time division length width area intensity CMx CMy
0 0 58.0705 14.6718 852 54.8732 426.313 518.079
1 0 62.1048 16.7459 1040 51.7519 425.367 519.918
2 0 64.0499 16.2998 1044 51.8985 425.176 517.222
3 0 65.0541 18.7997 1223 49.6075 425.823 517.446
4 0 67.1028 16.7802 1126 51.1146 425.382 518.069
5 0 67.0694 16.1773 1085 52.3364 425.683 519.439
6 0 70.0846 15.2815 1071 53.1064 425.726 516.019
7 0 74.1045 20.9029 1549 47.6068 425.271 511.638
8 0 73.0615 14.4536 1056 54.8987 425.306 513.976
9 0 76.114 15.3585 1169 53.929 424.275 512.263
10 1 39.0984 13.4532 526 53.5418 424.511 537.126
11 0 39.0499 11.114 434 59.2465 424.728 531.212
12 0 41.0552 10.6442 437 58.913 425.162 532.858
13 0 43.0666 12.0511 519 57.8728 425.455 531.977
14 0 44.0667 11.8003 520 58.4846 425.321 530.96
15 0 47.0621 12.6004 593 56.7605 425.42 531.153
16 0 45.0901 11.6877 527 59.4687 425.772 530.412
17 0 48.0229 11.7028 562 59.8114 425.146 529.84
18 0 50.0565 12.7056 636 58.5283 424.604 529.703
19 0 53.0968 14.6525 778 55.6992 424.909 528.456
20 0 53.0467 13.9311 739 57.4438 425.767 527.48
21 0 53.0491 11.0275 585 61.4359 425.487 525.21
22 0 56.0309 12.5645 704 59.3608 424.969 524.331
23 0 57.0894 12.0863 690 60.3565 423.233 525.062
24 0 60.0928 12.3809 744 59.2419 424.005 524.141
25 0 62.1277 13.5205 840 57.906 424.177 523.229
26 0 63.2522 13.2486 838 59.1694 424.412 518.646
27 0 65.0831 13.1831 858 59.6597 425.044 518.662
28 0 67.1206 12.2317 821 61.179 424.815 519.145
29 0 70.0702 13.5864 952 59.6754 425.047 517.097
30 0 71.078 13.661 971 59.966 425.334 518.021
31 0 74.1112 13.2638 983 60.9206 425.459 516.476
32 0 77.1272 13.575 1047 61.1156 425.136 513.798
33 0 82.1335 13.1615 1081 60.7253 424.45 514.263
34 0 83.144 13.7232 1141 60.9053 425.204 513.401
35 1 45.0444 11.7662 530 61.6849 425.255 530.536
36 0 44.1034 11.1329 491 62.9308 426.727 529.868
37 0 44.218 10.9005 482 63.2697 426.303 530.129
38 0 48.1416 12.484 601 61.5458 425.521 528.368
39 0 47.0817 10.726 505 64.8832 425.36 527.535
40 0 51.0367 12.4029 633 61.9147 426.284 528.684
41 0 50.0748 11.8822 595 63.4067 424.992 527.553
42 0 53.1078 12.2016 648 62.9213 426.531 527.776
43 0 55.0837 12.6353 696 62.7644 425.932 524.346
44 0 56.1493 12.3599 694 63.4193 426.741 523.71
45 0 59.0845 11.7628 695 63.2676 426.459 524.878
46 0 60.0563 12.1053 727 63.6176 426.739 521.596
47 0 60.0626 10.7055 643 65.0622 426.936 523.946
48 0 63.1353 11.4358 722 63.964 426.669 521.862
49 0 67.104 12.6073 846 62.7648 427.23 518.956
50 0 68.07 12.5312 853 63.0633 426.61 518.645
51 0 69.0565 12.5984 870 63.2012 427.595 514.425
52 0 74.0925 13.0648 968 61.3316 427.302 519.154
53 0 75.135 12.6838 953 62.915 426.707 515.586
54 0 79.0985 11.8333 936 63.2692 427.156 514.749
55 0 81.0768 13.074 1060 62.3236 426.837 511.987
56 1 43.0671 10.5417 454 62.1366 427.216 532.28
57 0 43.0302 10.4345 449 63.4521 427.481 530.566
58 0 43.0457 10.1752 438 63.0845 428.416 531.091
59 0 45.0607 10.6745 481 62.3742 427.353 529.805
60 0 47.1115 10.9103 514 62.8288 428.126 528.14
61 0 48.0417 10.6158 510 62.802 427.367 528.876
62 0 51.0319 11.2675 575 61.56 427.097 527.454
63 0 51.0375 10.7176 547 62.6654 427.303 525.377
64 0 53.0388 11.8215 627 61.6906 426.766 524.726
65 0 56.0608 12.1119 679 60.0471 427.158 525.794
66 0 55.053 10.8441 597 62.3819 427.511 523.496
67 0 58.1193 13.2142 768 59.3932 426.68 522.68
68 0 59.0717 11.8161 698 60.5129 426.308 524.539
69 0 60.0528 13.0385 783 59.8953 426.602 520.479
70 0 63.0449 14.7355 929 57.2917 426.377 521.615
71 0 65.0906 11.8604 772 60.7487 426.869 519.532
72 0 66.0302 12.0854 798 60.0764 426.95 520.612
73 0 68.1265 10.0401 684 62.5058 426.228 518.279
74 0 69.131 12.6571 875 59.6091 426.399 514.712
75 0 70.0718 12.2018 855 60.0667 427.046 511.734
76 0 77.1961 11.7623 908 59.6101 427.24 511.756
77 0 75.2543 12.0525 907 59.9978 426.728 512.25
78 0 79.0629 11.0039 870 60.9552 426.914 510.178
79 0 82.1535 11.3446 932 60.8144 426.573 507.878
80 0 85.1263 11.5593 984 60.9116 427.319 506.756
81 1 45.1048 8.02576 362 61.1216 427.715 527.569
82 0 45.1065 9.79902 442 59.6991 428.314 527.224
83 0 46.0297 11.145 513 59.6745 427.756 525.947
84 0 48.0906 11.312 544 59.6103 428.112 526.108
85 0 47.0532 8.3735 394 63.5355 428.475 528.995
86 0 49.043 10.0932 495 63.0545 428.756 524.857
87 0 50.048 9.91048 496 62.9516 428.615 525.486
88 0 55.0567 12.0785 665 61.206 427.735 522.349
89 0 55.2235 11.1728 617 60.7909 427.366 522.684
90 0 56.0959 11.926 669 60.7967 426.417 520.892
91 0 59.0935 12.201 721 59.9168 427.126 520.495
92 0 61.0833 10.9523 669 60.7892 427.118 520.117
93 0 62.092 9.79192 608 62.4819 426.852 518.683
94 0 62.1468 9.57411 595 62.7126 426.773 519.869
95 0 63.1615 8.85033 559 63.4705 426.911 516.934
96 0 67.3723 11.1173 749 60.6248 426.292 516.539
97 0 68.2541 10.1093 690 62.171 427.152 514.803
98 0 71.1746 11.816 841 60.4423 426.713 513.304
99 0 72.2907 8.97764 649 63.359 426.974 514.185
100 0 76.2119 9.28988 708 62.3418 427.103 512.643
101 0 77.1349 10.5918 817 61.9241 426.961 506.617
102 0 79.1599 9.95454 788 62.3071 427.033 506.769
103 0 83.319 12.2661 1022 59.226 427.171 507.795
104 0 84.1494 10.2793 865 61.9584 427.916 502.77
105 0 84.1578 8.35335 703 64.4808 427.286 503.935
106 1 43.0537 9.87139 425 58.3294 428.04 528.132
107 0 44.0797 10.2542 452 58.531 429.184 525.956
108 0 48.0272 10.8272 520 57.3385 428.29 524.91
109 0 49.0327 10.5848 519 57.4297 428.767 525.354
110 0 49.1503 8.87076 436 59.5459 426.83 525.151
111 0 50.206 10.3972 522 58.8506 425.437 522.057
112 0 52.0798 8.871 462 60.9026 426.558 522.132
113 0 55.1092 12.4662 687 56.524 426.916 519.601
114 0 55.0216 11.4682 631 58.0333 426.544 520.743
115 0 56.0674 11.2008 628 58.6831 427 519.132
116 0 59.1789 10.3922 615 58.9122 426.594 520.328
117 0 59.2454 11.5114 682 58.6408 428.043 517.32
118 0 61.1137 10.3414 632 59.269 428.226 515.74
119 0 62.057 10.2486 636 59.6698 428.465 516.366
120 0 64.0544 11.4434 733 58.2865 427.816 517.404
121 0 65.2176 10.442 681 59.5228 426.938 515.329
122 0 67.1301 11.8725 797 58.3438 427.767 512.29
123 0 71.1817 11.4074 812 58.7315 427.506 511.36
124 0 72.1378 12.7256 918 57.7418 428.316 510.985
125 0 71.1984 10.0985 719 60.7246 426.915 510.075
126 0 76.1456 10.4931 799 60.6358 426.685 509.768
127 0 77.2733 9.87404 763 61.7195 427.106 507.78
128 1 40.155 11.107 446 58.148 427.334 524.011
129 0 41.1804 10.2719 423 58.3475 428.428 526.324
130 0 41.1579 9.40282 387 60.2791 428.065 526.545
131 0 42.2016 9.66788 408 60.0784 426.88 526.326
132 0 42.0707 10.5299 443 59.5056 427.528 525.758
133 0 46.0501 10.8143 498 59.2169 428.442 522.805
134 0 46.0243 10.1251 466 60.103 427.496 524.386
135 0 48.171 11.044 532 59.1673 427.697 521.081
136 0 49.0403 12.6223 619 57.7496 428.179 521.452
137 0 52.051 11.3158 589 58.2716 428.504 522.136
138 0 51.0722 11.4152 583 59.494 428.149 518.273
139 0 54.0323 11.5487 624 58.6907 427.946 519.598
140 0 55.137 12.5324 691 57.822 428.683 518.651
141 0 55.0515 10.8807 599 60.1252 428.165 519.209
142 0 55.1461 10.7533 593 60.0455 427.786 516.928
143 0 59.078 13.5245 799 57.174 426.941 514.885
144 0 62.0564 13.1171 814 57.6044 427.42 514.665
145 0 64.0856 12.3585 792 58.4848 428.261 515.073
146 0 64.1183 12.2742 787 59.4015 427.883 515.005
147 0 65.1815 9.55792 623 61.9759 427.608 518.056
148 0 67.0444 11.5893 777 60.3089 427.229 515.286
149 0 73.1469 14.5051 1061 55.9265 427.397 515.107
150 0 73.178 12.7087 930 59.4946 427.073 511.506
151 0 75.1137 12.6608 951 59.7981 428.501 513.074
152 0 78.1587 12.948 1012 59.8794 427.701 509.443
153 1 42.0531 12.7933 538 57.4796 428.329 529.121
154 0 41.0295 10.5777 434 61.7949 427.348 526.606
155 0 41.0435 11.8654 487 61.0986 427.499 525.296
156 0 45.0201 10.9284 492 61.2419 428.673 527.287
157 0 48.0615 12.3176 592 59.3936 428.225 524.973
158 0 47.1019 12.6322 595 59.684 428.677 524.057
159 0 48.0269 11.0147 529 61.724 428.709 524.463
160 0 50.2082 10.4166 523 61.914 428.463 524.56
161 0 49.1487 11.5161 566 62.4876 428.82 520.899
162 0 52.1487 13.6916 714 59.1989 428.052 520.975
163 0 56.1126 12.2432 687 59.9025 428.341 521.857
164 0 56.0891 10.5368 591 62.3587 428.927 521.673
165 0 58.1411 12.9856 755 59.6265 429.034 519.997
166 0 57.0997 11.4186 652 61.9663 429.46 516.85
167 0 61.1722 13.0778 800 59.7512 429.656 516.211
168 0 62.3128 12.1644 758 60.6847 429.744 516.927
169 0 65.0948 13.4266 874 59.3158 429.616 512.159
170 0 66.0605 13.8812 917 59.3152 429.257 511.986
171 0 69.1253 13.4104 927 59.9407 428.893 512.319
172 0 70.2565 12.2266 859 61.2328 428.605 512.179
173 0 73.1084 12.6114 922 61.2419 428.426 509.731
174 0 73.0942 11.0132 805 63.6186 428.624 510.943
175 0 76.096 11.8009 898 62.1347 427.921 510.349
176 1 42.0479 11.4631 482 61.1369 427.415 525.33
177 0 42.0322 10.4206 438 62.5959 427.922 524.521
178 0 43.0393 10.8041 465 63.5183 427.89 522.815
179 0 45.026 11.9486 538 61.4851 428.34 522.318
180 0 46.0854 11.3051 521 62.1516 427.973 524.99
181 0 48.0233 11.0363 530 61.983 426.832 524.938
182 0 50.0385 13.05 653 60.2894 426.974 522.09
183 0 52.0519 12.1802 634 61.9038 426.09 520.733
184 0 53.0947 12.7696 678 61.1209 425.907 521.117
185 0 54.039 11.5472 624 63.1603 425.769 520.723
186 0 58.0476 12.7654 741 61.1957 425.599 519.209
187 0 60.0473 12.6567 760 60.9592 425.625 517.92
188 0 60.0386 11.7091 703 62.623 425.538 517.4
189 0 62.0992 12.0935 751 62.8602 425.69 516.016
190 0 65.0775 12.9384 842 60.8884 424.935 518.325
191 0 65.1028 12.0118 782 63.7596 424.041 514.793
192 0 68.1699 11.9407 814 63.3305 424.145 514.232
193 0 72.1139 13.2429 955 61.7016 423.75 512.944
194 0 72.1089 10.5396 760 64.4908 424.101 514.314
195 0 76.0594 11.8723 903 62.9524 423.58 513.702
196 1 36.032 10.8237 390 62.7051 424.49 530.713
197 0 38.0438 9.09477 346 63.9046 424.928 532.029
198 0 39.0593 10.7273 419 62.7494 424.019 529.465
199 0 43.0965 10.8129 466 60.8305 423.758 532.391
200 0 45.0772 11.1143 501 60.8343 423.746 530.369
201 0 46.0774 11.676 538 59.8755 422.926 531.316
202 0 45.0529 11.3866 513 61.423 422.419 527.992
203 0 48.0881 10.46 503 60.8648 423.298 533.036
204 0 48.1636 13.0804 630 60.0333 423.076 528.546
205 0 53.1673 11.6049 617 60.457 422.605 528.243
206 0 52.0885 12.2484 638 60.3683 423.591 526.572
207 0 54.1328 11.324 613 61.4584 423.688 526.918
208 0 57.1008 13.5725 775 58.0206 423.834 526.879
209 0 59.0902 11.8801 702 59.1823 423.983 528.84
210 0 58.055 10.7656 625 61.9744 422.789 524.61
211 0 60.1094 11.895 715 60.1944 423.143 522.806
212 0 62.1248 13.0866 813 58.9508 423.347 521.49
213 0 61.0668 10.6113 648 62.446 422.301 521.528
214 0 66.0759 12.4856 825 59.5648 421.714 519.587
215 0 69.0634 12.4958 863 58.8401 422.248 521.287
216 0 70.1291 11.0653 776 60.6353 422.219 521.349
217 0 74.1321 12.9903 963 58.2098 421.078 517.692
218 0 75.0998 10.8522 815 60.7902 421.259 517.745
219 0 75.0663 10.4175 782 61.821 421.748 514.413
220 0 79.0913 11.531 912 60.1382 421.387 514.808
221 0 81.14 10.3525 840 62.075 421.729 512.187
222 1 46.0579 11.3336 522 58.2778 422.059 531.328
223 0 46.0583 11.746 541 58.2514 422.172 530.335
224 0 47.0681 9.58186 451 59.6519 421.605 531.308
225 0 49.0582 10.3551 508 59.9232 421.61 527.532
226 0 49.107 10.4873 515 59.9437 421.854 526.305
227 0 51.0865 11.6273 594 59.1482 421.466 525.779
228 0 54.035 9.69743 524 59.9695 421.886 526.519
229 0 56.1412 12.9851 729 56.989 421.615 523.35
230 0 58.1068 12.7352 740 57.4311 421.219 523.428
231 0 59.0292 11.2995 667 58.5637 420.195 524.055
232 0 62.0951 12.2715 762 57.9803 422.009 521.001
233 0 64.0887 11.0316 707 58.6266 421.649 522.825
234 0 65.0413 12.4998 813 57.7995 420.788 519.341
235 0 66.0352 11.0093 727 59.6506 421.045 518.107
236 0 67.1479 12.4799 838 58.3461 421.706 516.19
237 0 70.1046 13.109 919 56.9238 420.94 516.027
238 0 71.2052 11.3475 808 58.8329 421.262 516.229
239 0 72.055 12.3239 888 58.0135 421.62 510.741
240 0 77.1116 12.5014 964 58.2116 421.243 513.534
241 0 77.0991 11.9716 923 59.3987 420.849 509.535
242 0 82.1027 13.069 1073 57.9795 422.472 508.799
243 0 83.1904 11.2032 932 59.2661 421.726 510.098
244 0 86.1864 12.2641 1057 58.8997 420.726 506.874
245 1 43.1378 10.7099 462 58.7251 420.844 526.682
246 0 44.0613 10.1903 449 59.9844 421.461 525.089
247 0 46.0919 11.1082 512 58.1973 421.898 526.594
248 0 47.0612 11.5594 544 58.1434 422.165 523.971
249 0 50.0734 11.4232 572 58.5297 422.484 525.939
250 0 51.045 11.147 569 59.0211 421.905 525.561
251 0 52.0959 10.807 563 58.9769 421.568 525.826
252 0 53.05 12.2903 652 57.1656 421.91 525.836
253 0 54.0739 10.9665 593 58.656 421.096 525.637
254 0 58.0764 12.3458 717 56.6639 422.563 525.98
255 0 57.1849 10.7896 617 58.436 422.216 525.561
256 0 62.0727 12.4854 775 56.4271 421.666 523.49
257 0 60.0381 9.36072 562 59.9911 422.498 525.525
258 0 63.1374 11.3879 719 58.2643 422.099 521.235
259 0 66.0482 11.2191 741 58.4575 421.328 521.408
260 0 67.1494 12.8222 861 56.6818 422.123 522.003
261 0 70.145 12.075 847 57.4168 422.567 520.832
262 0 70.2637 12.3535 868 57.7316 421.565 518.974
263 0 73.0874 13.2855 971 56.6972 421.746 519.06
264 0 74.0529 11.0192 816 59.2463 422.396 519.591
265 0 76.0443 12.0982 920 59.0239 421.227 515.685
266 0 79.0845 12.4424 984 58.6026 420.736 513.947
267 0 79.0684 11.5849 916 59.5306 420.816 512.876
268 0 84.0534 12.6824 1066 58.1782 421.198 514.876
269 0 85.1369 13.7191 1168 57.9212 421.769 510.508
270 0 86.1353 12.1321 1045 60.5761 420.728 509.555
271 0 90.0696 12.7679 1150 58.747 421.948 512.45
272 0 91.1338 12.553 1144 60.2928 420.93 507.049
273 0 94.0706 12.0335 1132 61.1511 419.883 506.199
274 0 97.1491 13.7521 1336 58.9319 420.671 506.783
275 0 102.158 11.864 1212 60.6295 420.745 506.403
276 0 107.219 12.1713 1305 59.4659 421.397 507.421
277 0 107.1 13.5574 1452 59.5117 420.835 500.876
278 0 111.264 13.1489 1463 59.4969 420.779 501.621
279 0 113.148 12.055 1364 61.0323 420.933 498.771
280 1 61.131 12.5305 766 58.346 420.43 526.748
281 0 61.0828 11.4762 701 59.7004 420.665 527.083
282 0 62.0896 12.8202 796 59.4209 420.698 523.562
283 0 65.3365 14.6626 958 57.1879 420.714 522.141
284 0 66.0368 12.1296 801 60.2135 420.322 523.065
285 0 70.072 13.4148 940 58.4074 420.332 520.483
286 0 72.0607 12.0732 870 60.2437 419.829 520.851
287 0 72.0925 12.1927 879 60.7019 420.077 519.796
288 0 75.0962 13.1964 991 60.0565 419.736 515.912
289 0 77.0875 13.6857 1055 59.5725 420.366 514.052
290 0 80.0906 11.1748 895 62.1419 420.14 515.296
291 0 83.1741 14.151 1177 59.4911 420.459 512.478
292 0 86.1097 14.3422 1235 59.3296 420.693 513.47
293 0 88.1596 13.3508 1177 60.7978 420.711 512.112
294 0 89.1326 11.7017 1043 63.4909 420.689 510.875
295 0 94.2306 12.9257 1218 61.6839 420.502 507.695
296 0 96.1397 13.2203 1271 61.9056 420.195 506.443
297 1 46.0848 10.7845 497 63.2012 420.342 530.819
298 0 47.0403 12.2448 576 62.7847 420.293 529.543
299 0 51.1949 10.2354 524 64.2195 420.111 530.639
300 0 50.0488 12.1481 608 63.625 420.464 528.712
301 0 53.1407 13.3419 709 61.9224 420.286 525.103
302 0 56.0333 12.4212 696 62.9885 418.841 525.91
303 0 56.0611 12.8431 720 62.7167 418.731 525.018
304 0 58.0596 12.7111 738 62.168 419.175 524.934
305 0 61.0763 13.4422 821 61.0731 419.03 523.121
306 0 61.1873 12.143 743 64.0229 419.202 522.701
307 0 64.0678 13.8291 886 61.1682 419.287 519.919
308 0 64.0707 12.6735 812 62.9815 420.082 520.679
309 0 67.0745 11.8227 793 64.1652 419.472 516.844
310 0 71.0607 13.3829 951 61.551 420.28 519.187
311 0 73.0778 13.2051 965 62.5306 419.641 515.256
312 0 75.1084 11.9427 897 63.903 419.489 513.991
313 0 78.0582 14.1305 1103 61.6772 419.554 511.012
314 0 79.153 13.3539 1057 62.1429 420.096 513.791
315 0 83.0975 14.5131 1206 60.9602 420.16 509.94
316 0 85.0893 13.7973 1174 62.3663 419.758 509.541
317 0 89.0711 14.0001 1247 62.2358 420.307 510.031
318 1 43.0097 11.5555 497 63.1107 420.294 530.368
319 0 46.0156 11.583 533 63.0732 420.371 530.488
320 0 47.0468 12.562 591 62.6531 419.665 528.834
321 0 46.1167 12.0564 556 64.6007 419.948 527.122
322 0 50.0302 12.4925 625 63.1632 420.398 528.238
323 0 50.1044 12.953 649 63.7334 420.119 525.314
324 0 52.1375 12.2177 637 64.4506 420.111 525.243
325 0 53.0127 12.6951 673 63.9643 420.288 525.45
326 0 50.0452 11.5496 578 67.0571 421.019 520.381
327 0 53.0334 11.3513 602 67.2027 420.566 520.631
328 0 55.0331 10.9752 604 67.9205 420.823 519.776
329 0 58.1144 12.0968 703 65.9986 420.054 521.898
330 0 62.1724 11.4038 709 66.969 420.248 521.681
331 0 61.0921 10.656 651 68.6882 420.118 518.76
332 0 64.176 10.9075 700 68.2757 419.821 518.257
333 0 67.0899 12.2224 820 66.6415 420.596 518.646
334 0 70.1214 11.1093 779 68.5314 420.639 516.33
335 0 70.0538 11.4341 801 68.9938 419.93 514.327
336 0 72.0556 10.4225 751 70.3209 420.117 515.02
337 0 77.0373 12.3836 954 68.1258 420.064 510.311
338 0 79.1112 11.743 929 68.9849 419.772 510.143
339 0 82.0942 9.79363 804 71.3296 420.354 510.444
340 1 42.0239 9.82774 413 69.6223 421.264 528.884
341 0 43.0503 9.61667 414 70.2705 420.79 525.8
342 0 43.0314 10.411 448 69.9129 421.029 525.875
343 0 44.0563 9.66944 426 70.8592 421.256 525.502
344 0 48.1006 10.9354 526 68.4867 420.975 524.002
345 0 51.0838 11.0602 565 67.5133 420.611 522.547
346 0 52.124 11.9139 621 67.2061 420.383 523.209
347 0 54.1236 11.2705 610 67.2902 420.282 524.207
348 0 55.1381 11.7704 649 67.1032 420.618 521.328
349 0 57.0834 11.5796 661 67.4312 419.773 518.7
350 0 59.1339 11.2457 665 67.2812 420.471 519.596
351 0 60.0465 10.0256 602 69.711 420.733 516.243
352 0 65.0638 11.8653 772 65.7992 420.069 517.04
353 0 69.0681 12.3646 854 64.7834 420.712 518.354
354 0 69.0705 11.5968 801 66.9226 420.989 515.606
355 0 71.0482 10.5984 753 67.9934 420.984 515.575
356 1 37.0457 9.98767 370 63.6378 421.673 532.23
357 0 39.0283 10.5052 410 64.8512 421.229 530.529
358 0 40.0635 11.6815 468 64.047 421.397 529.521
359 0 41.1782 10.4667 431 65.58 421.761 529.626
360 0 42.0293 10.9685 461 64.0998 421.751 531.698
361 0 44.0543 10.6914 471 64.9724 421.628 528.919
362 0 45.0511 11.1429 502 65.5876 421.488 528.633
363 0 47.0384 10.4808 493 65.7951 422.322 527.469
364 0 49.124 10.2598 504 66.3254 422.147 526.468
365 0 50.0716 12.4622 624 62.8686 421.827 525.641
366 0 51.0517 10.2837 525 66.4057 422.869 524.65
367 0 56.0309 13.0285 730 61.5356 421.996 523.707
368 0 56.0342 12.8314 719 62.1502 422.608 523.031
369 0 57.0325 10.7658 614 64.987 422.329 520.673
370 0 60.0868 10.2185 614 64.7883 421.621 520.212
371 0 60.0789 10.7525 646 64.0449 421.158 520.853
372 0 63.1187 12.5003 789 61.9442 421.294 517.914
373 0 62.054 9.79792 608 65.222 420.826 517.461
374 0 67.076 10.2272 686 64.809 421.048 515.204
375 0 69.047 11.6298 803 62.4321 421.625 514.306
376 0 72.0756 12.0845 871 61.3915 421.192 515.379
377 0 75.1184 10.6765 802 62.3741 421.282 515.374
378 0 79.1617 11.6597 923 61.1831 420.918 513.403
379 1 40.034 9.36704 375 60.9067 421.688 531.744
380 0 40.0795 10.0301 402 60.7587 421.878 530.316
381 0 42.0443 10.3462 435 60.6138 421.878 531.122
382 0 44.0776 9.84627 434 61.9654 421.221 529.106
383 0 43.0427 10.5244 453 61.9912 421.419 527.26
384 0 47.0736 10.0693 474 62.1624 422.025 527.656
385 0 46.1798 9.50633 439 64.1663 420.125 527.97
386 0 48.113 10.9326 526 61.7928 421.352 526.072
387 0 51.2016 12.2067 625 60.2368 421 525.466
388 0 54.1088 10.2017 552 62.0181 421.217 525.33
389 0 52.1756 9.87052 515 63.5767 420.532 521.773
390 0 54.1049 12.0137 650 60.2262 421.054 524.695
391 0 57.168 10.7928 617 60.4003 422.071 524.131
392 0 60.2209 11.8729 715 58.6867 421.334 521.559
393 0 61.3113 10.7647 660 60.6197 421.005 519.009
394 0 64.2261 12.0512 774 58.7054 420.668 519.11
395 0 65.1957 10.9516 714 59.4958 421.483 519.468
396 0 67.1409 11.5727 777 59.1042 421.543 517.013
397 0 70.1771 10.73 753 59.6321 422.062 517.114
398 0 72.2159 10.8979 787 59.6709 421.708 516.558
399 0 73.2369 10.8279 793 60.1917 421.899 514.545
400 0 76.2419 11.4504 873 59.5246 421.754 512.841
401 0 78.0881 12.614 985 58.4741 421.559 511.472
402 0 80.1864 11.0118 883 59.2367 422.392 510.717
403 0 83.0843 10.6037 881 59.4586 422.25 511.115
404 0 86.1199 12.9238 1113 57.0863 422.147 508.313
405 1 44.0313 9.81121 432 58.7847 423.146 527.507
406 0 45.0343 9.94797 448 58.6406 422.268 528.458
407 0 48.0605 11.1318 535 57.2168 422.363 527.72
408 0 47.0149 8.48667 399 59.8446 422.251 529.516
409 0 50.021 10.4356 522 58.1973 422.027 525.004
410 0 50.1083 10.2578 514 58.8385 420.549 526.595
411 0 52.1174 11.359 592 58 421.007 523.931
412 0 53.1794 10.9065 580 59.6345 420.957 525.298
413 0 57.1414 10.7628 615 59.1512 420.696 523.928
414 0 58.2196 11.5425 672 58.6577 420.661 519.943
415 0 61.1212 10.5201 643 59.7278 420.457 518.709
416 0 62.1548 9.44417 587 60.1584 421.4 521
417 0 64.1803 10.86 697 58.8594 421.795 516.646
418 0 68.2402 11.1958 764 57.9908 421.62 518.445
419 0 70.124 11.4511 803 56.6712 421.574 520.329
420 0 70.2143 11.8494 832 57.8726 420.912 512.856
421 0 72.1398 10.7846 778 58.1401 421.158 515.641
422 0 77.1054 12.7617 984 56.0935 421.166 513.134
423 0 77.1261 10.4634 807 59.3804 420.605 509.119
424 0 78.1476 10.5314 823 59.6379 420.491 510.589
425 0 82.0923 9.79385 804 59.7301 421.455 510.925
426 0 86.1462 11.5269 993 57.4068 421.165 511.94
427 1 47.0983 10.6161 500 57.2 422.214 528.158
428 0 47.0182 9.23046 434 59.03 421.984 528.73
429 0 48.1147 9.68518 466 58.4614 420.938 530.281
430 0 49.0387 10.5223 516 58.2054 422.322 527.138
431 0 50.0318 11.9724 599 56.5259 422.404 526.501
432 0 51.044 11.0101 562 58.1868 422.642 525.247
433 0 52.0603 9.20086 479 59.6743 421.463 524.691
434 0 52.1744 10.1582 530 58.3585 420.811 525.043
435 0 54.0989 10.3329 559 58.0501 421.279 526.381
436 0 57.1846 11.3317 648 57.0355 421.08 523.978
437 0 57.1639 12.7353 728 56.011 421.637 522.185
438 0 60.0605 11.888 714 56.7493 421.504 523.403
439 0 63.0975 12.3935 782 55.9246 421.584 520.588
440 0 63.1282 10.1856 643 58.4774 420.353 521.857
441 0 66.1384 11.1282 736 57.3845 420.878 520.966
442 0 67.1007 12.3993 832 55.9976 421.322 516.071
443 0 71.168 12.1122 862 56.0974 422.115 517.964
444 0 72.111 10.151 732 58.5109 421.57 517.325
445 0 75.2237 12.948 974 55.771 421.148 515.253
446 0 76.1578 13.3801 1019 55.5427 421.057 513.579
447 0 80.1511 12.8757 1032 56.1105 420.858 510.871
448 0 83.2133 12.5581 1045 56.4794 420.589 510.484
449 1 40.0526 10.0118 401 58.2893 421.569 530.509
450 0 43.0527 11.9156 513 55.963 422.417 530.324
451 0 43.0175 9.90294 426 58.7512 421.941 530.315
452 0 44.0843 11.047 487 57.846 422.158 530.637
453 0 45.018 10.5291 474 59.0907 422.34 529.289
454 0 47.1635 13.7182 647 55.6445 421.147 528.93
455 0 47.0685 13.1935 621 56.8374 421.957 527.401
456 0 47.0865 10.4913 494 61.0142 421.528 527.792
457 0 49.0968 12.0986 594 59.0741 421.362 526.825
458 0 51.1292 11.1287 569 60.8032 421.68 527.005
459 0 51.1378 11.3223 579 60.4162 421.82 525.641
460 0 55.1232 13.0072 717 58.8215 420.675 522.22
461 0 57.153 10.6031 606 61.6551 420.601 524.358
462 0 57.0877 12.8399 733 59.6248 421.059 523.46
463 0 58.1699 13.2887 773 59.066 420.074 521.956
464 0 60.1713 12.1653 732 60.4973 419.958 522.208
465 0 61.1264 11.0918 678 62.264 419.984 519.963
466 0 63.1496 12.6525 799 60.0538 421.075 520.4
467 0 66.1291 11.4473 757 61.6024 421.351 518.554
468 0 68.1105 12.9055 879 59.8544 421.259 517.953
469 0 70.1291 12.2631 860 61.1954 420.904 516.455
470 0 73.0747 13.0141 951 60.592 420.94 514.294
471 0 75.0942 12.8505 965 60.5845 421.668 514.523
472 0 79.1366 13.066 1034 60.1373 421.227 515.015
473 0 81.0862 12.5422 1017 61.4749 420.527 513.915
474 0 84.1366 13.6088 1145 59.8856 420.053 511.921
475 0 86.1234 15.0946 1300 58.7492 421.156 510.146
476 1 44.047 11.238 495 62.3354 420.374 531.754
477 0 43.0825 11.2343 484 63.5434 420.994 532.174
478 0 49.1414 12.8201 630 60.6333 421.213 531
479 0 50.0494 13.147 658 61.0122 421.204 529.918
480 0 50.0899 11.3396 568 63.2782 421.289 529.479
481 0 50.0932 12.337 618 63.3333 420.693 528.786
482 0 55.1006 11.8329 652 63.0721 420.517 528.495
483 0 55.0315 12.5746 692 63.0029 421.286 524.038
484 0 56.1498 12.3242 692 62.9494 421.166 525.947
485 0 55.0395 12.4093 683 63.8682 421.076 524.031
486 0 61.0667 12.8875 787 62.0572 421.837 524.058
487 0 61.296 13.1819 808 62.0062 421.524 521.818
488 0 62.13 12.4738 775 63.4258 421.163 521.409
489 0 63.1839 11.6485 736 64.4307 421.279 522.19
490 0 65.0687 12.0642 785 63.7707 421.045 520.454
491 0 68.0938 11.866 808 63.9196 420.428 519.126
492 0 70.1658 13.1118 920 62.3 421.172 515.416
493 0 72.2808 12.0502 871 63.6039 419.873 516.449
494 1 35.0731 9.69403 340 64.8382 421.262 534.135
495 0 36.0721 10.479 378 64.0688 421.878 533.333
496 0 37.1031 10.4843 389 64.3548 419.722 533.879
497 0 37.0964 9.94707 369 66.5285 420.423 530.569
498 0 42.1017 12.5173 527 61.5977 420.791 531.801
499 0 41.1426 10.6945 440 65.5727 421.209 529.911
500 0 45.0665 9.78553 441 65.8095 421.134 526.655
501 0 44.0591 10.3724 457 64.9234 420.842 529.646
502 0 48.1545 12.8752 620 62.1871 421.192 526.756
503 0 45.0328 9.72624 438 66.6758 420.164 526.737
504 0 48.062 7.49032 360 69.4167 420.492 523.622
505 0 48.066 9.46615 455 67.3758 420.745 525.648
506 0 51.0552 11.4973 587 65.0085 421.422 523.08
507 0 52.0454 10.3179 537 66 421.017 520.762
508 0 51.1446 8.64216 442 68.5747 420.505 520.59
509 0 55.0673 11.8764 654 64.3364 420.147 520.87
510 0 52.0497 8.49188 442 68.4661 419.896 517.009
511 0 56.1143 10.8172 607 65.967 419.586 518.471
512 0 57.0564 9.63958 550 66.9527 420.056 516.162
513 0 59.1362 10.8056 639 65.3521 419.48 514.222
514 0 62.0476 9.39601 583 66.8525 420.247 514.13
515 0 65.0667 7.5461 491 68.1752 420.151 514.075
516 0 67.1827 11.104 746 64.1099 420.063 509.418
517 0 72.0764 8.44937 609 66.2874 420.168 508.013
518 1 32.0641 6.17512 198 69 421.116 528.773
519 0 33.0101 4.08966 135 69.4074 420.422 525.8
520 0 31.0557 6.82644 212 67.8726 419.976 527.429
521 0 32.0607 5.70792 183 66.9454 420.426 521.732
522 0 37.0745 9.3865 348 65.2155 420.83 526.842
523 0 46.0293 11.623 535 60.3122 420.374 529.976
524 0 48.1348 12.3403 594 58.9394 420.771 530.101
525 0 50.0917 11.7984 591 60.1134 420.513 526.391
526 0 52.1304 12.2002 636 59.5377 420.425 526.277
527 0 52.0943 13.1876 687 58.3799 420.211 527.224
528 0 56.0851 12.4454 698 59.3668 419.937 525.077
529 0 55.1621 11.9647 660 59.6045 420.783 526.93
530 0 59.1349 13.9173 823 57.6367 420.674 524.821
531 0 58.1085 11.3064 657 61.5358 420.918 522.213
532 0 62.1731 12.4009 771 59.2257 420.17 523.828
533 0 65.163 12.1695 793 59.7062 420.269 521.364
534 0 63.0763 10.6538 672 62.5982 420.394 519.314
535 0 67.1208 12.5297 841 59.7325 420.328 520.096
536 0 70.0427 13.606 953 58.8625 420.581 516.493
537 0 73.1641 11.0983 812 61.1552 420.566 518.213
538 0 72.1042 9.76365 704 63.6207 420.116 516.428
539 0 78.1037 13.5461 1058 58.7306 419.91 514.549
540 1 36.0391 8.76825 316 63.3323 420.361 532.87
541 0 41.2446 11.2742 465 58.7656 420.523 533.832
542 0 40.0284 11.0422 442 60.9977 419.984 531.152
543 0 41.0325 11.1619 458 60.9039 421.068 532.19
544 0 43.0809 12.8827 555 59.0721 420.953 531.715
545 0 43.0256 9.38976 404 63.651 421.292 530.2
546 0 46.1845 10.7179 495 61.9798 420.325 530.62
547 0 48.0911 12.1852 586 60.2645 419.959 530.602
548 0 48.0337 9.53497 458 62.976 420.886 529.777
549 0 47.0543 10.9873 517 62.9865 420.571 525.948
550 0 52.1276 13.4861 703 58.6714 420.276 528.394
551 0 52.044 11.7785 613 61.2822 420.558 525.465
552 0 55.1472 11.7866 650 61.0985 419.863 526.618
553 0 54.0437 12.5824 680 61.2456 420.954 521.665
554 0 59.1002 13.3164 787 59.3443 421.502 522.633
555 0 61.0251 12.4375 759 59.7866 421.639 522.846
556 0 61.1277 13.938 852 58.6596 421.589 521.167
557 0 62.0554 12.4244 771 60.2088 421.118 521.222
558 0 64.015 12.5908 806 59.8002 420.584 521.424
559 0 68.081 12.9258 880 58.7648 420.561 521.084
560 0 70.076 12.9431 907 59.0298 420.112 518.292
561 1 39.0428 10.7574 420 59.3286 421.479 533.743
562 0 37.0393 12.2032 452 58.1792 421.482 534.23
563 0 40.1012 11.471 460 58.7 421.18 532.804
564 0 39.122 10.6079 415 61.2675 420.747 532.27
565 0 41.0448 11.1098 456 60.3202 421.132 530.45
566 0 43.1323 11.6618 503 59.2823 420.928 528.364
567 0 43.0244 12.1559 523 59.2046 420.92 528.069
568 0 43.2013 11.8515 512 60.4121 420.516 527.783
569 0 48.1818 12.3283 594 58.6532 420.406 528.754
570 0 49.0793 13.5495 665 57.1549 420.457 527.38
571 0 50.1169 10.695 536 60.5243 420.035 528.291
572 0 51.053 11.8896 607 59.5025 420.875 524.975
573 0 53.0689 11.3061 600 60.3067 420.738 524.132
574 0 54.0938 12.4414 673 58.5513 420.823 525.467
575 0 56.1238 11.4568 643 59.9393 421.404 524.319
576 0 58.0576 12.5393 728 58.9931 421.261 520.573
577 0 60.117 11.0618 665 60.215 421.77 520.389
578 0 62.1145 11.35 705 59.7504 422.196 521.966
579 0 64.255 13.104 842 57.728 422.38 520.35
580 0 66.0503 12.5662 830 58.4181 423.614 518.596
581 0 69.1531 11.3805 787 59.0724 423.15 520.746
582 0 71.1321 12.2167 869 57.8481 423.578 519.528
583 0 71.3068 11.7941 841 59.0773 423.547 515.177
584 0 74.3438 12.7919 951 58.3018 422.324 511.381
585 0 76.1331 12.0053 914 59.4519 422.369 509.717
586 1 40.1088 10.7707 432 58.1458 422.912 531.014
587 0 41.025 10.6033 435 58.0942 423.216 530.982
588 0 42.0404 12.3453 519 56.4528 422.645 530.021
589 0 44.0218 12.3575 544 56.1673 421.761 527.452
590 0 46.048 12.1395 559 56.2576 421.784 526.979
591 0 48.0294 12.8047 615 54.8081 422.002 528.686
592 0 48.1223 13.4865 649 55.1479 421.636 526.066
593 0 49.0424 10.9497 537 57.2961 422.803 526.845
594 0 51.0431 12.5384 640 55.7859 421.956 525.231
595 0 53.0791 10.9271 580 57.6276 421.584 524.936
596 0 53.0425 11.0854 588 57.6429 420.961 524.719
597 0 55.07 11.9848 660 56.5364 421.3 523.424
598 0 57.0254 11.1179 634 57.8896 421.091 519.591
599 0 58.1145 12.4582 724 55.9682 421.287 521.855
600 0 59.1663 13.7071 811 55.3859 420.811 520.88
601 0 62.1398 10.6534 662 58.4683 421.251 519.601
602 0 65.1712 14.7765 963 54.0789 421.847 518.86
603 0 68.1615 13.5707 925 55.1211 421.917 517.999
604 0 67.1605 10.8397 728 58.2225 421.753 518.629
605 0 70.1925 11.8389 831 57.7004 422.097 516.753
606 0 71.1605 10.9471 779 58.8152 421.576 516.072
607 0 74.1994 12.4125 921 57.4734 420.878 512.081
608 1 38.0365 9.33313 355 58.0394 421.704 531.752
609 0 39.0549 11.4198 446 56.9686 421.713 530.939
610 0 41.0966 9.5385 392 58.8801 422.158 528.676
611 0 41.034 9.57743 393 58.944 421.529 528.964
612 0 43.134 9.01842 389 58.8458 421.483 527.861
613 0 45.0565 10.7643 485 57.866 421.707 527.05
614 0 47.0981 12.336 581 55.8658 421.725 526.527
615 0 49.3528 12.1776 601 55.4792 422.629 526.925
616 0 47.0929 9.02471 425 59.3953 422.198 522.313
617 0 49.2113 11.156 549 57.4499 422.124 521.532
618 0 51.0988 9.55013 488 58.7131 421.57 523.285
619 0 54.0802 11.3535 614 56.6401 421.081 520.769
620 0 56.2278 11.9869 674 55.3976 421.368 520.779
621 0 57.0605 12.9862 741 55.1498 421.655 517.028
622 0 59.1704 10.1064 598 57.0769 421.517 518.052
623 0 59.1348 12.7167 752 55.0811 421.117 515.206
624 0 60.2233 11.0588 666 56.0781 421.577 517.264
625 0 63.0535 10.9431 690 56.6246 421.696 514.639
626 0 66.1317 10.9327 723 55.8326 421.284 516.293
627 0 68.1311 9.70188 661 56.9213 421.723 511.85
628 0 71.0651 12.0875 859 54.4214 420.792 512.395
629 0 75.1976 11.4631 862 54.92 421.477 511.262
630 0 75.1127 10.7971 811 56.4562 421.39 508.276
631 0 78.192 10.4742 819 56.6508 421.879 508.746
632 0 81.1133 11.3298 919 55.6942 421.056 509.299
633 1 40.0277 9.29357 372 57.2312 423.024 527.841
634 0 42.0866 10.7873 454 55.6167 423.196 527.07
635 0 43.0513 10.9404 471 55.8259 423.272 525.427
636 0 45.2068 11.2594 509 55.4008 422.597 525.393
637 0 46.1265 10.9265 504 56.0298 423.367 525.216
638 0 49.1161 11.6051 570 54.9439 423.263 525.151
639 0 47.1518 11.0494 521 56.2937 422.221 523.311
640 0 50.0515 11.5281 577 55.8614 422.426 522.076
641 0 51.0363 11.0706 565 56.7257 422.777 522.15
642 0 52.0795 10.7336 559 57.5832 421.986 519.996
643 0 55.1295 11.0649 610 57.2705 421.967 522.146
644 0 57.0239 13.0998 747 54.9183 420.968 520.842
645 0 56.1011 11.5684 649 57.1695 421.653 521.014
646 0 58.134 9.94255 578 58.3218 421.606 520.713
647 0 61.1067 11.9463 730 56.7178 421.103 518.275
648 0 62.134 10.6866 664 58.5181 421.477 516.181
649 0 64.1704 11.0487 709 58.0197 421.85 514.714
650 0 66.1165 10.6781 706 58.1572 421.966 517.483
651 0 68.1541 11.1219 758 58.3351 422.773 514.224
652 0 72.0853 13.8031 995 55.5186 422.224 514.326
653 0 73.0335 11.4194 834 58.1619 422.396 510.948
654 0 74.0977 11.2419 833 58.4406 422.465 511.049
655 0 80.0599 12.9528 1037 56.5294 422.051 507.2
656 1 43.0416 11.8722 511 56.3796 422.065 528.364
657 0 44.038 11.5809 510 56.902 422.737 527.382
658 0 47.0276 11.8229 556 56.2014 422.318 529.133
659 0 48.0671 11.4423 550 57.7218 421.52 528.124
660 0 51.0533 14.0833 719 54.4924 421.801 528.115
661 0 51.1887 10.8422 555 58.4757 422.344 524.18
662 0 51.03 12.1889 622 57.1592 422.368 526.109
663 0 54.0155 12.1076 654 56.5046 422.109 526.807
664 0 56.1518 11.4155 641 58.2356 422.108 521.643
665 0 57.0869 12.0518 688 57.4128 422.11 520.981
666 0 60.1756 13.9259 838 55.278 422.214 521.032
667 0 60.1091 13.3757 804 56.8781 422.281 520.325
668 0 62.0618 11.1341 691 59.1201 422.116 517.889
669 0 66.1524 13.5596 897 55.7436 422.193 519.483
670 0 68.2218 11.3893 777 57.7233 422.471 519.66
671 0 69.0921 12.4472 860 57.5093 422.123 514.671
672 0 74.0619 11.2744 835 57.5198 422.234 519.586
673 0 76.1945 11.9694 912 56.7895 422.525 518.648
674 0 75.1187 12.2473 920 58.1196 422.951 511.279
675 0 79.1533 11.2693 892 58.6648 422.228 513.922
676 0 82.1289 12.2125 1003 57.9492 421.954 510.433
677 1 43.0609 8.84794 381 59.105 422.95 530.78
678 0 46.0434 9.68651 446 58.1144 422.54 528.843
679 0 49.058 12.7808 627 55.236 421.992 527.719
680 0 48.0386 9.95033 478 58.8201 421.948 528.184
681 0 47.0584 10.3276 486 59.3313 422.889 527.617
682 0 51.0635 11.7501 600 57.9317 422.973 525.227
683 0 54.0469 12.6557 684 57.1433 423.355 524.158
684 0 54.0494 12.137 656 58.346 423.498 521.474
685 0 57.0458 13.5155 771 56.6083 423.274 522.326
686 0 57.0642 12.6875 724 57.2997 422.87 524.151
687 0 59.0841 11.5767 684 58.5775 422.961 520.105
688 0 60.2363 12.7 765 58.1464 422.074 519.626
689 0 61.1702 10.8877 666 60.1171 422.889 520.725
690 0 66.1041 13.8872 918 56.3671 422.822 517.601
691 0 66.2897 10.62 704 60.0582 423.621 516.17
692 0 68.182 11.7626 802 58.9738 424.029 517.948
693 0 70.0794 10.5452 739 60.1759 423.091 518.231
694 0 70.1155 11.5381 809 59.0408 422.808 518.922
695 0 77.119 11.5665 892 58.5852 422.585 517.509
696 0 75.0527 11.6851 877 59.6944 421.609 515.303
697 0 79.148 11.1184 880 59.9136 422.058 515.338
698 0 83.1869 13.0189 1083 58.5522 422.433 509.675
699 1 42.0342 10.2536 431 59.0302 422.06 533.234
700 0 45.0465 11.8544 534 56.97 422.485 533.039
701 0 47.0395 13.1804 620 56.4758 423.219 529.989
702 0 48.1446 11.5901 558 58.8746 422.67 528.522
703 0 50.1192 12.5501 629 57.9094 422.315 528.243
704 0 49.0734 11.2077 550 59.9655 422.011 528.653
705 0 51.1775 10.9814 562 60.427 421.58 523.52
706 0 53.0925 12.7513 677 59.2511 421.793 524.329
707 0 55.0714 13.3463 735 58.5429 421.385 524.652
708 0 54.1085 9.64728 522 63.0939 420.996 524.117
709 0 59.0916 11.3552 671 60.456 421.607 524.735
710 0 60.1544 12.1188 729 60.535 421.846 523.805
711 0 62.0734 13.5324 840 59.3607 421.787 521.765
712 0 64.1421 13.1115 841 60.0749 421.691 521.109
713 0 64.0772 12.0168 770 62.0506 421.848 519.147
714 0 65.1046 11.8425 771 62.3787 421.585 520.073
715 0 70.0769 10.888 763 63.5085 421.815 517.82
716 0 73.1997 12.1039 886 61.6445 421.674 519.085
717 0 74.1383 14.3516 1064 60.2716 422.076 513.777
718 0 78.1042 12.3297 963 62.3956 421.787 514.382
719 0 76.1577 10.8328 825 64.6133 421.566 513.983
720 0 81.2044 12.7826 1038 61.7197 421.679 513.679
721 0 84.1846 12.3657 1041 62.5994 421.567 513.158
722 0 85.5182 12.1144 1036 63.8205 421.66 508.407
723 1 43.121 10.5053 453 63.053 421.821 532.808
724 0 48.0567 11.6113 558 62.4014 421.554 530.455
725 0 48.0649 10.0905 485 63.9155 421.718 531.784
726 0 47.3073 8.96268 424 66.9292 422.113 529.8
727 0 53.0457 12.4987 663 61.9593 422.513 528.41
728 0 52.0596 12.697 661 62.7398 421.815 527.198
729 0 54.2148 11.6758 633 64.0047 421.659 525.698
730 0 52.1418 11.2194 585 64.8171 421.607 526.54
731 0 55.1418 12.8034 706 63.3499 420.647 524.572
732 0 56.1092 11.5311 647 65.1406 420.747 523.049
733 0 60.1463 12.453 749 63.6676 421.183 523.502
734 0 61.2142 12.9872 795 62.8289 421.153 521.425
735 0 63.0942 12.9013 814 62.4582 421.928 518.743
736 0 63.0489 11.0549 697 65.0947 422.284 519.491
737 0 66.2699 12.2227 810 63.6173 422.433 519.828
738 0 69.1071 12.647 874 63.238 421.622 516.4
739 0 70.2918 12.9887 913 62.943 421.844 517.982
740 0 74.1775 12.187 904 63.9989 422.205 517.768
741 1 38.157 9.90645 378 65.1296 422.471 534
742 0 38.0863 11.5527 440 64.2932 422.605 533.73
743 0 38.0594 12.5593 478 63.1004 422.425 535.701
744 0 42.1433 12.0304 507 64.6884 422.067 531.692
745 0 43.1257 12.8693 555 64.0541 421.432 532.204
746 0 44.0826 13.3159 587 63.3152 421.238 532.767
747 0 46.2466 12.6928 587 64.1908 420.298 532.087
748 0 47.1748 12.7398 601 64.7155 420.346 531.216
749 0 49.1995 14.4311 710 62.7338 421.521 530.42
750 0 51.0973 13.3275 681 64.1982 421.576 528.764
751 0 53.3038 13.4887 719 63.8234 421.455 528.223
752 0 52.1085 14.182 739 64.0785 421.831 526.332
753 0 55.1794 13.8458 764 63.8508 422.173 526.86
754 0 57.2151 14.0697 805 64.0373 421.421 526.988
755 0 58.119 13.3347 775 65.1664 421.671 525.143
756 0 61.0935 13.4712 823 65.0389 421.722 522.164
757 0 65.2354 13.0604 852 64.5505 421.196 523.973
758 0 65.1132 12.2095 795 66.1937 422.096 523.196
759 0 66.0935 12.2402 809 66.1681 422.252 520.951
760 0 71.1734 13.0386 928 64.084 421.901 521.009
761 0 71.0991 13.2913 945 64.6349 421.502 517.229
762 0 75.0806 14.8374 1114 62.3564 421.206 518.869
763 0 76.1586 11.8437 902 65.8592 421.276 519.567
764 0 80.1874 13.5932 1090 64.0716 421.926 516.287
765 0 80.1485 14.2111 1139 64.0553 421.284 511.772
766 1 44.099 10.9526 483 65.8385 422.019 534.141
767 0 45.0567 11.3635 512 65.1367 421.559 533.406
768 0 46.1079 13.9022 641 63.4181 420.402 530.819
769 0 47.06 13.3022 626 64.6438 420.607 528.562
770 0 48.2509 11.5853 559 65.5724 420.537 531.748
771 0 52.1868 12.8193 669 64.6532 421.233 529.127
772 0 52.1552 12.5587 655 64.7771 421.866 528.98
773 0 51.0587 12.2016 623 66.4013 421.361 524.552
774 0 46.0683 10.6364 490 69.3796 420.667 521.963
775 0 57.0851 14.2944 816 63.0993 421.544 526.586
776 0 55.1333 12.243 675 65.7541 421.061 525.984
777 0 57.0747 12.0018 685 66.2044 420.488 521.359
778 0 58.1558 11.6755 679 66.8085 421.054 522.99
779 0 59.1581 11.4101 675 67.3867 421.25 520.236
780 0 61.2151 10.9123 668 68.2081 420.882 519.246
781 0 68.0676 12.6639 862 65.3295 421.333 521.203
782 0 70.2122 11.5365 810 67.0037 421.579 520.183
783 0 73.2684 11.492 842 66.9359 421.818 515.514
784 0 72.1744 10.8487 783 68.4968 421.102 514.775
785 0 67.0662 8.17103 548 71.3832 421.622 509.266
786 0 75.1938 10.6126 798 69.0576 421.124 508.962
787 0 76.0497 11.19 851 68.7168 421.38 506.488
788 1 39.0221 8.25174 322 71.5776 421.012 483.599
789 0 48.0929 13.9106 669 63.2257 421.679 533.025
790 0 49.0628 14.2063 697 62.9426 420.958 532.194
791 0 50.2295 11.0493 555 66.2144 421.274 532.978
792 0 51.1874 12.1124 620 65.1145 421.602 532.371
793 0 54.1522 12.3171 667 65.3928 421.411 529.175
794 0 55.2 13.9493 770 63.4701 422.595 528.065
795 0 57.1582 12.5441 717 65.3696 421.99 526.176
796 0 57.2518 14.6196 837 62.8877 421.879 527.907
797 0 60.0656 13.0025 781 64.7196 421.378 526.16
798 0 63.0476 13.815 871 63.7497 421.91 524.25
799 0 63.1234 11.4379 722 66.3753 421.716 525.091
800 0 67.2042 15.0883 1014 61.9329 421.381 523.139
801 0 66.0733 13.0461 862 65.5487 422.052 520.056
802 0 70.0509 13.4616 943 64.2503 421.171 521.807
803 0 72.1694 14.2858 1031 63.4956 421.87 519.731
804 1 35.0761 10.5485 370 67.1 421.654 536.781
805 0 35.03 12.2752 430 66.3442 421.477 534.344
806 0 36.0903 11.97 432 67.0046 421.581 535.155
807 0 41.1618 14.1636 583 62.5592 422.003 536.216
808 0 41.1589 13.6058 560 65.0089 421.188 534.025
809 0 41.0466 12.5224 514 65.8113 421.15 535.327
810 0 45.0731 13.0455 588 64.3537 420.968 534.437
811 0 47.1349 13.1537 620 64.4113 421.832 532.577
812 0 45.0822 11.6676 526 67.4905 422.103 530.099
813 0 47.0638 13.4286 632 65.6123 421.343 530.242
814 0 50.114 13.4493 674 64.7997 421.389 530.687
815 0 49.1055 12.7684 627 66.6938 421.541 528.884
816 0 51.0655 15.0983 771 64.0519 421.441 528.152
817 0 53.1812 13.4822 717 66.4059 421.22 527.814
818 0 55.129 13.2054 728 66.772 420.422 527.771
819 0 58.0764 12.122 704 67.2514 420.456 526.949
820 0 59.1586 14.1822 839 65.6222 421.48 523.74
821 0 60.0765 14.5148 872 65.1193 421.704 523.266
822 0 62.0708 13.9035 863 65.9525 421.966 523.366
823 0 63.0593 12.1473 766 67.9674 421.749 520.632
824 0 67.0931 11.7598 789 67.8162 421.461 522.299
825 0 71.0554 12.821 911 66.0362 422.013 521.923
826 0 72.1557 12.9027 931 67.0268 421.722 518.191
827 0 74.1647 13.0925 971 65.964 420.917 518.567
828 0 79.0691 12.4827 987 66.7254 420.744 517.034
829 0 81.0841 13.7758 1117 65.7511 420.77 513.433
830 1 43.0612 13.7014 590 64.5288 421.978 533.229
831 0 43.064 11.2855 486 66.8909 422.016 535.459
832 0 44.0362 11.1272 490 68.4204 421.673 532.153
833 0 46.131 14.3071 660 63.5485 421.802 533.912
834 0 47.0328 13.0547 614 66.1629 421.458 532.109
835 0 50.0242 13.4335 672 64.6592 421.668 530.635
836 0 51.0555 11.4385 584 66.9538 420.697 531.721
837 0 53.0988 11.94 634 66.6372 420.842 530.319
838 0 54.0749 13.0744 707 65.5361 421.468 528.519
839 0 57.0655 12.0563 688 66.327 421.042 527.246
840 0 58.059 15.2431 885 63.0622 421.788 526.673
841 0 58.0773 12.0873 702 67.0086 421.615 525.735
842 0 62.0719 14.3543 891 64.3244 421.719 524.632
843 0 64.0673 14.1102 904 64.5221 420.822 523.403
844 0 67.1191 12.9173 867 65.5306 420.854 523.803
845 0 69.0896 11.8686 820 66.7915 421.998 520.916
846 0 71.0932 12.3781 880 66.3205 422.039 521.319
847 0 73.1557 13.3824 979 65.5965 421.525 519.503
848 0 78.0578 13.0929 1022 65.7554 421.965 516.642
849 0 78.1303 13.9511 1090 65.7257 421.826 515.253
850 1 39.0479 12.728 497 64.3582 420.887 537.626
851 0 39.0424 11.9101 465 66.7936 420.6 535.176
852 0 39.0897 11.6143 454 67.0925 421.13 534.93
853 0 42.1298 14.2417 600 63.75 422.29 533.878
854 0 44.0962 12.0872 533 66.4897 421.919 532.689
855 0 44.1562 12.3878 547 66.2285 421.706 534.038
856 0 47.1405 13.6401 643 64.8756 421.569 532.866
857 0 48.1538 12.3147 593 66.3137 421.444 532.96
858 0 50.0759 13.3797 670 65.3373 420.458 531.407
859 0 52.0898 13.0544 680 65.3059 421.676 531.484
860 0 57.0495 13.2867 758 58.8364 420.906 534.021
861 0 54.0526 13.5609 733 67.1078 421.799 528.45
862 0 57.0397 14.4461 824 64.9418 421.084 530.593
863 0 57.0972 13.5908 776 66.6637 421.905 528.763
864 0 60.2043 13.4376 809 65.8096 421.787 529.499
865 0 60.1277 12.7229 765 67.4902 421.625 526.923
866 0 64.028 13.1817 844 65.8578 421.674 525.323
867 0 65.1587 14.0733 917 64.8637 421.52 524.98
868 0 69.0474 13.3821 924 65.198 421.517 523.943
869 0 72.1441 13.2374 955 65.2932 422.292 521.452
870 0 73.0682 13.6448 997 64.4684 421.232 522.366
871 0 78.215 12.977 1015 64.9123 421.323 520.662
872 0 79.1932 13.9785 1107 63.9485 420.923 518.749
873 0 81.3189 12.9121 1050 65.9162 420.871 516.856
874 0 84.1484 11.3252 953 67.3715 421.39 516.598
875 1 45.0991 13.0158 587 63.9915 420.535 534.274
876 0 45.113 12.8344 579 64.5216 420.807 534.478
877 0 46.1474 12.1567 561 65.6488 420.863 533.59
878 0 47.1283 13.1556 620 64.9516 420.827 531.844
879 0 49.1746 12.4251 611 63.928 420.866 534.625
880 0 52.1229 12.5856 656 64.029 420.928 532.026
881 0 52.0808 11.5398 601 65.9967 420.74 530.012
882 0 56.1311 12.0611 677 64.6736 420.427 529.973
883 0 56.1616 12.7845 718 64.2047 420.914 528.749
884 0 59.1456 10.956 648 66.1157 420.62 527.576
885 0 60.1769 12.3636 744 64.0228 420.325 529.306
886 0 64.1294 14.0653 902 61.9268 421.509 526.835
887 0 63.1627 13.5681 857 64.3209 421.645 521.795
888 0 66.1055 11.6329 769 65.0455 421.397 524.152
889 0 70.1299 15.0007 1052 61.4696 421.648 520.868
890 0 70.3252 13.4518 946 63.3721 421.107 520.701
891 0 73.2132 13.7134 1004 63.4004 421.827 516.728
892 0 76.1456 14.5511 1108 61.9765 422.064 517.119
893 0 78.1101 12.38 967 64.8966 422.009 516.314
894 0 81.0454 12.2647 994 64.9185 421.87 516.343
895 0 82.2482 11.9516 983 66.0214 421.669 511.3
896 0 84.204 11.3771 958 66.8434 422.219 510.469
897 0 87.1086 12.0998 1054 65.9412 421.937 507.753
898 1 44.0866 9.9123 437 68.0686 421.426 528.448
899 0 43.0281 9.4357 406 69.8571 421.532 529.143
900 0 47.261 11.0027 520 66.9827 421.917 528.34
901 0 47.1122 12.9903 612 65.4118 422.087 525.783
902 0 50.0573 10.7277 537 67.2328 422.369 526.065
903 0 50.1027 11.8157 592 66.1301 421.666 525.519
904 0 53.0511 11.4795 609 66.3547 421.186 522.64
905 0 62.1456 14.2086 883 61.1031 421.741 526.375
906 0 64.1222 12.2734 787 62.6404 421.421 525.263
907 0 64.1676 12.3427 792 62.827 421.14 521.754
908 0 69.1166 12.6308 873 61.6735 421.277 521.379
909 0 69.2883 12.7583 884 61.7704 422.215 520.738
910 0 74.1543 12.6493 938 61.4989 421.955 518.884
911 0 74.1812 10.8383 804 63.4851 422.187 514.612
912 0 78.1497 12.5272 979 61.1859 422.423 517.549
913 0 81.1729 12.4795 1013 60.9724 423.386 518.266
914 0 84.1094 11.1521 938 62.7068 422.47 514.406
915 0 89.1911 13.3309 1189 60.1253 422.58 513.59
916 0 90.0936 12.1207 1092 61.9991 421.864 508.097
917 1 45.1123 11.4159 515 61.5592 422.65 534.214
918 0 46.0451 10.5549 486 63.2407 421.488 532.42
919 0 51.1776 11.9974 614 60.7997 421.205 532.015
920 0 52.0672 13.2329 689 60.0537 421.922 530.396
921 0 53.0469 14.1196 749 59.0921 421.744 530.539
922 0 53.1044 13.69 727 60.2889 421.95 528.934
923 0 56.0786 13.7664 772 59.522 421.431 526.807
924 0 57.0944 14.0119 800 59.6975 420.838 524.011
925 0 58.071 12.4503 723 61.0415 420.819 525.834
926 0 61.0301 13.9603 852 59.3005 421.101 524.806
927 0 65.0241 13.8564 901 58.9811 421.088 522.442
928 0 65.0491 12.1754 792 60.9722 421.72 523.866
929 0 68.1479 12.6196 860 60.5395 421.29 522.509
930 0 71.0885 13.448 956 59.9519 420.967 518.95
931 0 74.0766 13.1081 971 60.1782 421.026 518.133
932 0 75.1431 12.6692 952 60.7878 421.038 518.579
933 0 79.0448 13.4607 1064 59.9784 420.359 516.059
934 0 81.0776 13.1232 1064 60.6701 421.374 512.588
935 1 41.0664 11.4936 472 61.8326 421.157 533.248
936 0 44.0535 12.4394 548 59.8467 421.186 534.128
937 0 48.1217 12.7385 613 59.9103 421.442 531.365
938 0 48.1276 14.2122 684 59.4708 421.37 528.899
939 0 49.0628 14.3286 703 59.111 421.105 529.361
940 0 50.059 12.3854 620 62.329 421.106 525.273
941 0 51.259 12.31 631 62.4945 420.864 525.677
942 0 54.0765 13.4254 726 61.1364 421.105 523.725
943 0 55.0624 12.6947 699 62.2518 421.046 523.17
944 0 57.054 14.5301 829 60.2666 420.651 523.062
945 0 58.0849 12.8777 748 62.3209 419.91 524.168
946 0 61.092 12.653 773 62.4166 421.03 521.008
947 0 64.1542 13.3896 859 61.2631 422.068 523.476
948 0 64.0678 13.6418 874 61.5561 421.495 521.474
949 0 66.0652 13.2445 875 62.6206 421.717 520.465
950 0 71.1044 14.106 1003 60.8754 422.464 516.929
951 0 73.1748 13.9529 1021 61.0206 422.234 518.884
952 0 75.0486 14.1508 1062 61.4124 421.895 516.274
953 0 75.0713 15.7317 1181 60.276 422.176 512.923
954 0 78.1205 12.7111 993 63.6405 421.683 512.547
955 0 81.1628 13.4668 1093 62.8207 421.667 512.271
956 1 40.0423 11.9873 480 63.5042 420.235 531.627
957 0 43.1063 12.7128 548 62.281 421.374 532.542
958 0 46.074 12.4799 575 62.6748 421.296 530.948
959 0 47.0565 13.0906 616 62.1299 421.268 530.427
960 0 45.0407 11.3009 509 66.22 421.165 528.825
961 0 49.0441 13.0291 639 63.011 421.225 527.418
962 0 50.0881 12.9172 647 62.9521 421.23 527.125
963 0 48.0498 11.7378 564 64.9592 420.945 526.966
964 0 52.0862 13.5737 707 62.5205 421.704 525.942
965 0 54.2602 12.2926 667 63.7916 422.178 524.148
966 0 57.0531 12.725 726 63.1736 422.375 521.439
967 0 59.1657 14.265 844 60.2145 422.429 524.576
968 0 59.1111 13.7876 815 61.5166 421.282 520.186
969 0 61.0663 10.9717 670 64.6627 422.115 520.512
970 0 63.1003 12.8209 809 62.5204 422.323 518.668
971 0 65.1295 13.7265 894 61.4396 421.499 518.516
972 0 68.1287 13.6506 930 61.1194 422.202 518.118
973 0 71.1184 13.808 982 61.1181 422.203 516.357
974 0 72.1305 13.0735 943 61.8081 422.4 517.185
975 0 75.0826 11.6538 875 63.2937 422.808 515.71
976 0 76.1041 13.0611 994 62.6137 421.961 509.883
977 1 41.0463 11.7185 481 60.6882 422.262 534.125
978 0 42.0508 12.366 520 61.7808 422.438 531.638
979 0 44.0485 12.8495 566 60.03 423.132 533.719
980 0 44.0522 10.7827 475 63.8568 422.539 529.905
981 0 45.0372 12.8338 578 62.2042 422.327 530.932
982 0 45.0548 11.3417 511 64.5225 422.137 529.933
983 0 49.3107 12.1475 599 62.3806 422.234 529.561
984 0 51.0977 11.1551 570 63.9421 421.375 529.177
985 0 52.0498 13.1797 686 62.328 422.733 527.373
986 0 53.0457 11.9331 633 63.9115 421.831 526.99
987 0 55.0643 13.3662 736 62.447 422.243 527.024
988 0 58.0972 13.5979 790 61.757 422.025 526.389
989 0 58.068 13.0881 760 62.2487 421.984 526.846
990 0 61.0356 12.976 792 62.9369 421.558 526.106
991 0 62.1046 14.1374 878 62.6902 421.866 521.382
992 0 64.0604 13.4092 859 63.8126 421.588 521.802
993 0 65.038 13.9303 906 62.9801 422.128 522.962
994 0 68.183 12.7891 872 64.7684 421.7 519.28
995 0 71.0694 13.1139 932 64.3562 421.554 519.339
996 0 72.1276 13.8366 998 64.493 421.674 517.646
997 0 74.1157 12.7503 945 65.2635 421.912 518.855
998 0 78.1916 13.7867 1078 64.4805 422.011 516.827
999 1 39.1175 13.191 516 63.3992 422.25 535.692
1000 0 41.0507 11.8147 485 64.6062 422.447 535.208
1001 0 39.0464 10.5259 411 67.1874 421.74 534.129
1002 0 43.0494 12.1488 523 65.4359 421.795 533.79
1003 0 44.0156 12.2002 537 66.1732 422.168 531.987
1004 0 44.0287 13.8319 609 64.7635 421.982 533.164
1005 0 46.0929 12.388 571 66.8406 421.93 531.126
1006 0 46.0412 11.1422 513 68.5302 421.75 532.3
1007 0 48.0598 13.0462 627 66.5008 422.196 530.81
1008 0 49.102 12.8304 630 67.019 422.436 530.74
1009 0 51.1202 12.7738 653 67.1256 421.534 530.92
1010 0 51.0861 12.8411 656 67.9451 422.117 528.991
1011 0 55.0509 12.1887 671 68.07 421.966 528.571
1012 0 56.0766 13.6956 768 66.7708 421.611 527.406
1013 0 56.1999 13.2918 747 67.3119 421.585 526.829
1014 0 57.2325 13.716 785 67.3771 421.036 526.746
1015 0 59.1603 13.0662 773 68.0582 421.138 527.431
1016 0 63.0433 13.1497 829 68.1049 420.993 523.737
1017 0 65.0532 12.9433 842 68.2447 420.147 523.785
1018 0 68.0757 12.8974 878 67.9294 420.951 524.142
1019 0 67.158 11.3166 760 71.0421 421.062 521.489
1020 0 69.0438 13.238 914 69.2429 420.704 520.205
1021 0 71.1698 13.798 982 68.834 420.27 520.153
1022 0 73.0363 12.9388 945 69.0868 420.717 521.58
1023 0 77.0691 13.5852 1047 69.0019 420.728 519.291
1024 0 77.1751 12.3226 951 71.021 420.802 518.171
1025 0 82.0738 12.9761 1065 69.8723 420.573 517.721
1026 1 42.097 13.5401 570 67.9035 420.658 534.828
1027 0 42.214 11.9155 503 70.8231 419.976 533.911
1028 0 45.2987 13.8415 627 67.9155 420.458 534.571
1029 0 47.2089 11.6292 549 69.5082 420.705 536.029
1030 0 49.1566 11.799 580 70.1 420.086 532.067
1031 0 48.1306 12.0713 581 70.148 419.831 533.64
1032 0 50.1988 12.3509 620 69.9984 420.313 531.823
1033 0 53.0635 12.8525 682 68.6657 420.381 530.425
1034 0 55.0823 13.3437 735 67.6952 419.761 531.152
1035 0 56.0475 13.1674 738 67.6531 419.864 530.5
1036 0 57.2117 12.9694 742 68.0175 419.865 529.977
1037 0 59.0787 13.2535 783 68.4074 420.338 526.069
1038 0 61.2053 12.9564 793 68.367 419.671 526.569
1039 0 64.2412 12.3908 796 68.5327 420.226 526.999
1040 0 66.0994 14.1605 936 66.688 419.798 523.114
1041 0 68.0991 13.8622 944 67.0032 419.287 524.235
1042 0 70.1297 13.6747 959 67.2847 418.885 522.584
1043 0 69.1019 11.635 804 71.454 419.102 518.98
1044 0 76.1261 13.2149 1006 68.1282 419.424 517.623
1045 0 76.1634 13.0115 991 68.4178 418.655 518.056
1046 1 41.0692 10.738 441 69.3152 419.694 536.8
1047 0 42.0643 10.0798 424 70.5967 419.125 535.722
1048 0 44.0552 12.5751 554 67.5921 419.682 534.368
1049 0 46.0922 13.4947 622 66.2637 419.44 533.392
1050 0 48.1594 13.5176 651 65.9739 418.986 534.261
1051 0 48.1557 13.3733 644 66.8075 419.669 533.076
1052 0 52.1876 12.9341 675 66.2118 419.036 531.034
1053 0 50.1535 11.2255 563 69.4938 419.05 528.877
1054 0 52.1801 12.2461 639 68.6103 419.111 528.563
1055 0 55.0301 12.3932 682 66.5982 419.091 530.969
1056 0 57.0302 12.8704 734 66.3188 419.123 527.228
1057 0 59.1622 14.3335 848 64.3998 419.62 526.167
1058 0 62.0393 13.1691 817 65.7503 419.814 523.343
1059 0 62.2308 12.9678 807 65.6555 420.162 524.084
1060 0 64.1606 14.5728 935 63.9134 419.628 524.88
1061 0 66.0833 14.5876 964 63.8942 420.392 523.468
1062 0 68.2501 12.8352 876 65.8584 420.421 523.508
1063 0 71.139 12.581 895 66.1676 419.945 521.226
1064 0 73.0598 12.5924 920 66.5435 419.766 521.509
1065 0 76.2285 12.9873 990 66.095 420.125 520.88
1066 0 78.1464 12.9884 1015 65.5586 420.299 522.468
1067 0 81.1059 12.9584 1051 66.334 420.233 519.282
1068 1 46.0586 13.7868 635 64.4032 420.183 536.677
1069 0 46.0662 12.6123 581 66.4802 419.861 535.25
1070 0 49.2463 12.4273 612 66.4559 420.495 533.31
1071 0 50.0517 12.4072 621 66.744 420.435 533.267
1072 0 51.0473 13.1643 672 65.558 421.417 534.921
1073 0 53.0413 12.0661 640 66.0969 420.706 536.094
1074 0 54.0306 13.1777 712 66.0281 420.24 531.548
1075 0 55.1286 13.786 760 65.1368 420.916 531.66
1076 0 58.0655 13.2609 770 65.8636 420.265 529.287
1077 0 61.0872 13.8982 849 64.5548 420.916 529.079
1078 0 63.0851 14.2347 898 64.2249 420.385 527.175
1079 0 65.1538 14.2586 929 64.2497 420.512 526.296
1080 0 67.0552 14.8833 998 63.7635 421.215 524.635
1081 0 72.1721 12.6226 911 65.7047 420.64 525.283
1082 0 72.2324 14.1488 1022 64.3268 420.728 523.401
1083 0 75.1244 14.3495 1078 64.795 420.404 520.596
1084 0 78.0606 14.8346 1158 63.7642 420.039 520.427
1085 0 79.0771 14.6945 1162 64.2771 419.633 519.906
1086 0 79.1771 14.9033 1180 64.7229 420.247 518.982
1087 0 84.1205 11.6024 976 68.0523 420.041 518.239
1088 0 87.1021 12.7437 1110 66.2667 420.93 519.323
1089 1 47.0752 14.5724 686 64.3674 421.223 533.073
1090 0 50.04 13.3293 667 66.4123 420.79 532.639
1091 0 50.1196 13.2882 666 66.0706 420.667 533.318
1092 0 49.0537 13.3323 654 67.5443 419.839 533.073
1093 0 53.089 13.1666 699 67.4106 419.571 530.205
1094 0 55.0521 12.7697 703 67.3826 419.488 530.262
1095 0 57.031 12.6773 723 66.2918 419.842 531.676
1096 0 58.058 13.4521 781 66.6184 420.762 525.914
1097 0 59.0792 14.1336 835 66.5437 420.801 525.758
1098 0 62.1883 14.9707 931 64.5832 420.325 526.127
1099 0 65.0456 13.4675 876 65.8288 420.613 524.927
1100 0 65.0496 13.1899 858 66.5676 420.98 524.837
1101 0 69.1209 15.1184 1045 64.423 420.792 522.004
1102 0 70.0947 13.2678 930 67.5903 419.927 521.401
1103 0 74.135 13.6508 1012 66.6126 420.139 520.947
1104 0 75.1301 12.6048 947 68.416 419.962 521.078
1105 0 78.1815 14.057 1099 66.828 419.829 519.201
1106 0 81.122 13.4612 1092 67.5934 420.817 515.768
1107 0 83.1516 13.1687 1095 68.442 421.373 514.105
1108 0 89.2002 13.9013 1240 67.0677 421 514.631
1109 0 88.1796 11.7374 1035 70.1807 420.243 513.611
1110 0 92.3006 12.1884 1125 69.6107 420.603 511.116
1111 1 50.0822 13.7174 687 66.0801 421.317 533.509
1112 0 52.2056 12.355 645 67.4062 421.361 531.651
1113 0 54.3717 13.9779 760 65.9855 421.116 529.879
1114 0 56.0597 13.0218 730 65.7466 421.353 531.912
1115 0 55.0356 12.5373 690 68.2044 420.783 526.913
1116 0 59.1175 12.7543 754 67.7361 420.211 526.32
1117 0 60.0469 12.7567 766 67.406 420.482 526.884
1118 0 63.3273 12.3959 785 67.6038 421.701 524.358
1119 0 64.077 13.3433 855 66.6398 420.843 525.608
1120 0 66.1746 12.1346 803 68.7634 420.361 521.481
1121 0 71.0974 14.1918 1009 65.0654 420.999 521.37
1122 0 74.1375 14.0415 1041 65.6215 421.431 521.275
1123 0 77.1293 13.6783 1055 66.6948 421.215 516.052
1124 0 76.1268 13.0177 991 68.4299 421.091 514.42
1125 0 80.3677 13.3885 1076 67.3615 421.217 511.737
1126 0 82.277 13.1386 1081 67.8492 420.969 512.907
1127 1 45.1168 11.1488 503 66.3618 422.095 534.972
1128 0 43.0367 11.6412 501 68.1916 421.994 531.844
1129 0 46.3533 13.8933 644 65.1025 421.505 531.37
1130 0 48.148 12.3993 597 66.9347 420.447 530.854
1131 0 47.074 13.192 621 66.6151 420.866 530.213
1132 0 48.0456 12.4049 596 67.8624 421.403 530.928
1133 0 51.174 13.9719 715 65.7944 420.229 528.769
1134 0 50.1352 13.1245 658 67.0578 419.834 527.772
1135 0 53.1035 14.0104 744 65.246 420.122 527.262
1136 0 54.1215 12.4719 675 67.6978 421.031 525.716
1137 0 56.0639 12.9138 724 67.5967 420.42 522.523
1138 0 60.3417 13.8047 833 64.8932 420.885 524.27
1139 0 62.0898 12.8363 797 66.6023 420.46 521.425
1140 0 60.0882 11.3333 681 69.1909 420.604 520.671
1141 0 65.1479 13.6459 889 65.3735 420.274 522.49
1142 0 68.1193 12.6396 861 67.1301 420.607 517.195
1143 0 71.1042 12.6153 897 66.9331 420.282 516.09
1144 0 71.099 12.3208 876 67.782 420.462 515.276
1145 0 76.0382 13.0724 994 66.2223 420.921 515.395
1146 0 81.1316 13.5952 1103 65.1967 420.898 513.959
1147 0 83.0723 14.8184 1231 63.6816 420.916 510.885
1148 0 83.0776 13.373 1111 65.8263 421.433 512.544
1149 0 87.244 11.9779 1045 68.1684 420.759 508.366
1150 1 44.09 11.091 489 66.182 420.732 533.145
1151 0 45.0836 13.6192 614 63.8811 420.621 530.774
1152 0 46.025 13.384 616 63.6299 421.341 532.273
1153 0 48.0758 12.7923 615 64.3122 421.528 530.418
1154 0 49.0849 14.0369 689 63.2264 421.248 528.17
1155 0 49.0655 14.287 701 63.281 421.706 528.223
1156 0 53.0347 13.3686 709 63.6869 420.839 525.793
1157 0 50.04 11.4308 572 67.2378 420.649 524.411
1158 0 54.0347 13.3988 724 64.4088 420.228 522.804
1159 0 57.1562 12.4921 714 64.5658 420.619 524.52
1160 0 62.0638 12.9222 802 63.2581 420.526 524.562
1161 0 61.022 13.2247 807 63.5774 420.351 523.886
1162 0 63.1622 12.27 775 64.809 420.179 522.088
1163 0 65.0974 13.1495 856 64.1262 420.269 519.192
1164 0 68.0875 14.8192 1009 62.1665 421.199 520.6
1165 0 72.1042 14.382 1037 62.5111 420.562 518.493
1166 0 73.1046 12.6668 926 64.6739 420.622 518.208
1167 0 74.0491 12.3026 911 65.9956 420.668 515.506
1168 0 78.0858 12.4222 970 65.4454 421.616 517.054
1169 0 81.1076 11.9594 970 66.2639 421.328 515.108
1170 1 43.0409 12.4068 534 64.8258 421.661 531.088
1171 0 45.0739 11.6697 526 66 421.447 530.462
1172 0 47.0539 12.1988 574 65.6516 421.507 530.84
1173 0 47.0845 11.4687 540 66.7315 420.985 529.041
1174 0 48.1379 12.1526 585 65.8427 421.291 530.125
1175 0 51.1445 12.8655 658 64.383 420.628 527.81
1176 0 50.0277 12.0533 603 66.0945 420.725 525.237
1177 0 55.089 12.6704 698 64.2378 421.023 525.63
1178 0 55.1097 12.8471 708 64.9619 422.016 525.051
1179 0 57.0968 14.239 813 62.9889 421.399 525.894
1180 0 61.1086 12.7642 780 64.359 421.533 523.786
1181 0 61.0527 10.6957 653 67.0567 420.812 524.459
1182 0 65.1261 12.1917 794 64.5617 420.947 524.402
1183 0 64.1143 12.0878 775 64.5458 421.026 524.776
1184 0 67.096 12.266 823 65.0401 420.933 519.704
1185 0 71.1176 13.316 947 63.1204 421.467 520.076
1186 0 72.0712 12.113 873 64.6174 421.769 520.196
1187 0 73.0452 14.2925 1044 62.7414 421.464 517.676
1188 0 76.0604 11.6092 883 65.7157 421.592 516.607
1189 0 80.2187 13.2139 1060 63.9934 420.957 516.072
1190 0 83.0964 12.1185 1007 65.6018 421.447 513.159
1191 1 45.0745 11.714 528 63.5928 421.189 533.86
1192 0 46.0323 11.0575 509 65.7092 421.458 531.843
1193 0 45.0325 11.4584 516 66.1008 422.36 531.405
1194 0 50.1275 13.6652 685 63.1854 422.679 530.987
1195 0 51.0802 13.4886 689 63.5181 422.179 528.91
1196 0 51.0363 12.932 660 65.2833 421.814 529.562
1197 0 55.0929 13.0325 718 64.3705 421.655 529.301
1198 0 54.17 13.2361 717 65.0321 421.635 526.869
1199 0 57.0833 12.6482 722 65.2604 421.072 527.996
1200 0 58.0871 12.8428 746 65.7547 420.704 524.588
1201 0 60.1125 13.3417 802 65.3105 421.647 524.16
1202 0 62.0321 13.2996 825 64.6509 421.507 524.112
1203 0 65.0669 14.3698 935 63.2941 421.578 523.306
1204 0 68.114 12.6112 859 65.2468 421.093 522.537
1205 0 70.0499 13.1049 918 64.4542 421.095 521.757
1206 0 74.1237 12.5196 928 65.4763 421.207 517.846
1207 0 75.0488 13.7244 1030 64.165 420.364 515.505
1208 0 78.166 14.0726 1100 63.97 420.865 516.251
1209 0 81.162 12.4566 1011 65.8051 421.322 515.145
1210 0 85.1671 13.5381 1153 64.314 421.432 513.761
1211 1 43.0313 12.7814 550 65.1964 421.2 530.716
1212 0 48.0563 12.1316 583 64.1304 420.808 531.58
1213 0 47.0398 12.0324 566 64.8622 420.562 533.277
1214 0 48.0241 13.1184 630 64.3857 421.186 529.968
1215 0 52.0422 12.7205 662 64.2326 420.557 527.074
1216 0 51.0674 11.5729 591 66.511 421.609 527.777
1217 0 54.0763 12.6858 686 64.8178 421.429 527.576
1218 0 56.0996 13.0839 734 64.5422 421.631 525.685
1219 0 57.0402 13.0259 743 64.3257 421.868 527.676
1220 0 60.0812 13.0989 787 63.9022 422.219 527.525
1221 0 61.0813 13.0318 796 65.1382 421.707 521.035
1222 0 64.1079 13.1185 841 64.2699 421.57 523.656
1223 0 64.2203 12.3637 794 65.6965 422.035 522.092
1224 0 68.1005 13.8031 940 63.8723 421.067 520.535
1225 0 69.0607 13.2492 915 64.188 421.651 520.833
1226 0 71.0943 12.7999 910 64.8989 421.652 520.125
1227 0 77.0469 13.3166 1026 62.9756 421.955 520.432
1228 0 78.0942 12.8307 1002 64.8932 421.655 514.576
1229 0 81.0519 12.1651 986 65.0041 421.472 516.127
1230 0 83.1343 13.3278 1108 63.8863 421.432 511.279
1231 0 86.2049 13.8739 1196 63.4022 421.674 509.134
1232 0 88.0607 12.5368 1104 64.6522 421.177 513.336
1233 0 92.2209 13.7713 1270 62.6842 421.623 508.535
1234 0 94.1613 13.2857 1251 63.6651 421.813 506.485
1235 1 50.1113 11.8536 594 63.2744 421.072 528.982
1236 0 52.0637 13.1954 687 61.7526 421.719 527.926
1237 0 52.1084 10.8812 567 64.6526 420.958 528.129
1238 0 53.0846 12.3011 653 63.0337 420.917 525.545
1239 0 56.2411 14.4912 815 60.1337 421.323 522.801
1240 0 60.2204 13.4838 812 60.3165 421.787 524.564
1241 0 61.1309 13.6919 837 60.4026 421.449 520.692
1242 0 63.1812 12.8361 811 61.3144 421.012 519.952
1243 0 62.0591 11.5696 718 63.2939 421.558 519.549
1244 0 66.1883 12.9932 860 60.664 421.89 521.56
1245 0 66.1371 11.703 774 62.854 421.919 518.147
1246 0 69.1003 13.068 903 61.5637 422.112 514.327
1247 0 71.1166 12.1069 861 62.7189 421.728 515.555
1248 0 76.2179 10.8898 830 63.2277 422.03 515.731
1249 0 81.1033 13.6246 1105 60.4597 421.538 513.273
1250 0 82.2299 13.1218 1079 61.3902 421.737 509.32
1251 0 86.1152 12.7968 1102 61.7332 421.479 509.618
1252 0 89.1268 13.2957 1185 60.7359 421.902 511.739
1253 0 92.1395 14.337 1321 59.7267 421.749 509.22
1254 0 95.0923 13.1451 1250 61.3576 421.351 506.378
1255 1 51.0392 12.3631 631 59.3106 421.166 532.399
1256 0 48.0205 11.62 558 62.3602 421.194 530.993
1257 0 53.1041 11.4304 607 61.86 420.689 529.731
1258 0 54.0364 13.9906 756 59.1693 420.966 527.328
1259 0 55.0716 13.7639 758 59.6715 421.661 528.042
1260 0 56.058 12.3087 690 61.6884 422.543 525.194
1261 0 61.0947 14.3548 877 58.5804 422.222 525.114
1262 0 60.1727 12.4309 748 61.1791 421.745 525.34
1263 0 64.0733 13.11 840 60.125 421.426 523.47
1264 0 66.0422 15.8232 1045 56.9665 421.302 522.848
1265 0 68.1043 15.3441 1045 57.8392 420.205 521.659
1266 0 69.083 13.52 934 60.2891 421.717 518.34
1267 0 72.1301 15.4166 1112 58.4299 421.403 516.857
1268 0 75.1028 15.1392 1137 58.6816 421.252 516.32
1269 0 79.0594 13.4835 1066 60.2936 421.767 513.757
1270 0 81.0794 13.7889 1118 60.5707 420.572 513.303
1271 0 84.3224 14.2667 1203 59.6575 420.425 512.962
1272 0 87.1344 11.9012 1037 61.8177 420.547 513.44
1273 1 45.1053 9.20069 415 63.7807 419.969 532.981
1274 0 49.1192 12.3781 608 59.9507 420.285 532.405
1275 0 48.177 10.6898 515 62.3379 419.654 532.546
1276 0 49.0126 13.3639 655 60.3145 420.125 530.542
1277 0 53.0881 12.8842 684 59.7456 420.506 528.958
1278 0 54.0704 11.1706 604 62.1225 422.018 527.685
1279 0 55.0487 13.1157 722 59.8698 421.985 528.287
1280 0 55.0758 13.3089 733 60.6589 422.116 524.96
1281 0 58.0817 11.8109 686 60.7536 421.943 527.257
1282 0 59.0678 13.256 783 60.2567 421.513 523.494
1283 0 60.0845 13.6474 820 59.8061 421.755 521.002
1284 0 65.054 14.4034 937 58.2156 421.2 521.267
1285 0 66.1314 13.1103 867 59.2999 421.632 518.488
1286 0 66.0715 11.4876 759 61.1976 421.013 521.2
1287 0 70.059 12.0898 847 60.2645 420.819 517.991
1288 0 72.0295 12.6615 912 59.7204 421.552 515.796
1289 0 76.0909 14.4827 1102 57.3657 421.541 517.782
1290 0 77.0858 12.4277 958 59.5553 420.801 515.466
1291 0 80.1146 12.4322 996 60.0532 420.721 512.566
1292 0 84.1329 12.7655 1074 59.1378 421.523 511.771
1293 0 86.0849 11.6048 999 60.7518 421.395 508.744
1294 0 89.1438 12.7659 1138 59.7109 421.684 508.963
1295 1 44.083 12.9528 571 57.697 421.511 531.699
1296 0 44.0683 10.8695 479 59.762 420.353 531.77
1297 0 46.0587 13.0269 600 58.2067 422.06 529.26
1298 0 45.0388 11.4346 515 60.3884 421.365 529.289
1299 0 49.1236 10.1784 500 60.626 421.172 528.202
1300 0 50.0972 12.5556 629 58.4976 421.275 527.731
1301 0 50.2303 12.1839 612 58.8252 421.748 529.346
1302 0 53.1887 14.0255 746 57.3016 421.63 525.974
1303 0 54.0931 11.2584 609 60.6847 421.447 525.338
1304 0 58.1551 14.1518 823 57.0109 421.623 524.081
1305 0 60.0686 12.3692 743 58.6312 422.063 523.849
1306 0 60.0366 12.509 751 58.7097 421.691 521.652
1307 0 63.1114 13.1513 830 58.2313 421.237 523.184
1308 0 62.1173 11.9451 742 60.3774 421.492 519.674
1309 0 66.0777 11.7891 779 59.2991 421.827 521.493
1310 0 70.1258 12.8769 903 57.7841 421.518 519.936
1311 0 72.0915 11.5132 830 59.3699 420.964 517.576
1312 0 75.1364 12.9099 970 58.5464 421.87 514.95
1313 0 76.0502 10.1906 775 61.6361 421.142 513.108
1314 1 40.0394 12.5626 503 57.3439 421.4 531.04
1315 0 45.08 10.0932 455 58.9055 421.435 531.521
1316 0 45.0675 10.4066 469 59.2068 421.503 530.693
1317 0 46.2199 12.3756 572 56.8269 422.14 531.72
1318 0 49.073 12.4101 609 57.2939 420.949 529.499
1319 0 50.1192 10.9738 550 58.3109 420.825 528.698
1320 0 51.1556 14.6416 749 54.9453 420.959 526.219
1321 0 51.1207 10.3285 528 59.3182 420.884 525.847
1322 0 53.1246 11.746 624 57.4279 422.008 527.859
1323 0 55.0914 11.7804 649 57.5578 421.518 525.519
1324 0 58.149 12.7603 742 56.4582 421.477 525.278
1325 0 61.0654 10.8245 661 57.7156 421.673 524.542
1326 0 63.0578 11.5767 730 57.3822 420.91 520.564
1327 0 64.1792 12.73 817 56.0012 421.027 520.442
1328 0 68.1721 12.4978 852 55.5575 421.485 522.29
1329 0 66.0609 9.21876 609 59.1067 421.568 518.092
1330 0 72.1752 10.7378 775 57.329 421.941 515.27
1331 0 75.2039 12.3797 931 55.6821 421.706 517.769
1332 0 78.1144 11.3423 886 56.8307 421.289 514.28
1333 1 37.185 10.9453 407 55.2039 422.44 534.582
1334 0 37.1497 11.9247 443 55.3544 421.941 531.059
1335 0 37.0508 12.4424 461 54.9393 423.169 533.241
1336 0 42.0608 13.4567 566 53.5919 421.659 531.076
1337 0 39.0908 12.5861 492 55.3699 421.569 529.646
1338 0 43.0348 11.2467 484 55.6136 421.769 530.411
1339 0 44.0526 10.6237 468 56.109 420.735 527.222
1340 0 44.1008 11.3603 501 55.9122 421.347 528.842
1341 0 43.1677 10.772 465 56.5484 421.553 524.759
1342 0 46.0327 9.51497 438 57.0525 420.863 527.167
1343 0 48.1391 10.8851 524 55.687 421.964 524.889
1344 0 51.1545 10.8886 557 55.3339 421.368 526.89
1345 0 52.1436 12.1204 632 54.5427 422.139 524.785
1346 0 54.1034 13.4742 729 53.5487 421.582 522.159
1347 0 56.1113 10.8712 610 55.8033 421.272 520.048
1348 0 57.1336 11.2018 640 55.7844 421.505 520.898
1349 0 59.1512 9.85609 583 56.6141 421.835 517.82
1350 0 61.1191 9.37514 573 56.5846 421.133 520.707
1351 0 64.1559 13.4048 860 53.614 420.735 516.714
1352 0 67.2242 13.1798 886 53.0655 421.018 517.974
1353 0 70.1751 11.2006 786 54.5522 421.67 518.837
1354 0 72.1834 11.7756 850 54.6824 421.931 514.764
1355 0 75.1329 10.3949 781 55.9654 421.339 513.424
1356 0 78.0619 9.92802 775 56.0684 421.325 515.021
1357 1 41.1116 8.51341 350 56.98 421.274 528.883
1358 0 41.1445 12.8814 530 53.5887 421.302 529.066
1359 0 45.2561 9.81084 444 55.232 421.399 530.511
1360 0 47.3267 11.7904 558 53.966 421.134 527.027
1361 0 49.169 11.6537 573 54.1745 421.234 527.855
1362 0 49.2659 10.3114 508 56.1417 420.803 526.563
1363 0 52.0869 13.4967 703 52.6643 422.03 524.68
1364 0 54.0651 10.9683 593 54.57 421.383 525.467
1365 0 55.2275 14.051 776 51.924 421.322 523.947
1366 0 56.1931 9.53854 536 56.1175 422 521.08
1367 0 60.3268 11.5372 696 54.0388 421.624 520.807
1368 0 62.0992 11.385 707 53.7468 421.897 520.137
1369 0 63.1465 12.7956 808 52.8267 421.47 518.646
1370 0 65.1717 10.971 715 54.4224 420.631 518.681
1371 0 67.2462 10.5285 708 55.315 420.88 514.726
1372 0 69.107 11.5763 800 54.5688 421.42 516.552
1373 0 71.0804 10.7906 767 55.2073 421.376 514.653
1374 0 73.2118 11.8014 864 54.2836 421.912 511.747
1375 0 78.1918 10.5766 827 55.1342 421.781 513.862
1376 0 76.0969 9.36963 713 56.9537 420.987 507.192
1377 0 81.1852 11.5908 941 54.865 420.707 508.119
1378 0 83.0626 11.1241 924 55.3225 421.492 511.17
1379 0 91.5152 10.195 933 44.0782 420.673 508.275
1380 1 48.0974 12.8489 618 51.8447 421.639 532.353
1381 0 49.167 10.7186 527 54.5617 421.799 528.825
1382 0 50.0889 10.4215 522 55.4157 422.084 527.617
1383 0 53.1967 14.4746 770 51.0455 422.036 529.578
1384 0 53.0727 8.8181 468 56.156 421.882 530.62
1385 0 52.1877 10.8071 564 55.4238 421.328 529.864
1386 0 56.0798 10.592 594 55.8805 422.424 524.066
1387 0 56.0658 11.0049 617 55.9092 421.642 523.891
1388 0 60.123 11.3434 682 54.89 421.99 525.009
1389 0 62.2622 12.9292 805 53.4099 422.571 524.614
1390 0 63.0989 12.3616 780 54.4603 422.13 521.117
1391 0 64.1513 11.1923 718 55.2911 421.908 522.858
1392 0 66.0709 11.2001 740 55.7649 420.734 519.627
1393 0 68.2165 11.4928 784 55.8584 421.156 518.02
1394 0 72.2509 11.3632 821 55.8051 421.08 519.301
1395 0 75.1261 13.4973 1014 53.5493 421.725 520.064
1396 0 78.1445 13.2191 1033 53.9913 422.243 515.733
1397 0 79.0511 11.7772 931 56.0236 422.62 513.068
1398 0 83.1222 12.7282 1058 55.3147 422.478 511.078
1399 0 86.2834 14.9739 1292 53.2337 421.694 510.806
1400 0 91.2651 13.1156 1197 55.0017 421.648 507.597
1401 0 93.3651 12.7671 1192 55.7861 421.454 509.669
1402 0 96.3154 12.1268 1168 56.4426 422.656 505.715
1403 0 99.2725 12.8938 1280 56.3008 422.08 503.216
1404 0 101.211 12.3504 1250 57.276 422.614 502.895
1405 1 54.0773 11.9829 648 57.2253 422.406 525.883
1406 0 54.1925 12.5663 681 57.0999 421.42 524.891
1407 0 56.0798 11.4301 641 58.5959 421.225 524.856
1408 0 57.0336 11.7124 668 58.0584 420.817 525.57
1409 0 61.0836 12.311 752 57.3644 421.464 520.001
1410 0 63.0572 13.0358 822 56.6399 421.749 522.64
1411 0 64.2546 11.3455 729 58.6914 423.259 519.937
1412 0 68.1287 13.3571 910 56.3725 422.378 519.165
1413 0 67.0648 12.0481 808 58.4282 422.194 517.079
1414 0 70.1199 12.065 846 58.1891 422.192 515.551
1415 0 73.1247 11.665 853 58.456 422.026 514.762
1416 0 78.1737 18.0495 1411 45.7023 421.363 518.743
1417 0 80.0688 12.0896 968 58.1281 422.142 513.363
1418 0 84.1745 12.6761 1067 57.3946 421.435 512.473
1419 0 84.1177 11.4245 961 58.3018 421.613 513.095
1420 0 90.1649 13.2868 1198 55.8998 422.048 511.447
1421 1 45.0789 11.735 529 57.0416 422.115 530.754
1422 0 46.2167 12.7227 588 55.6088 422.417 531.576
1423 0 49.0946 11.7732 578 57.3374 422.761 531.083
1424 0 50.0558 11.0876 555 57.564 421.809 531.306
1425 0 50.1858 12.6729 636 56.5063 421.739 529.652
1426 0 54.0932 12.0163 650 56.7369 421.958 529.206
1427 0 54.1485 13.9616 756 55.0569 422.417 528.266
1428 0 55.1587 10.8958 601 58.0067 422.106 528.085
1429 0 57.1381 12.146 694 56.1311 422.146 526.94
1430 0 60.1332 11.9901 721 56.1803 422.251 523.696
1431 0 63.0937 12.5845 794 55.1952 422.115 524.744
1432 0 63.0649 12.8756 812 55.3892 422.094 521.682
1433 0 65.0867 13.7663 896 54.8917 421.52 522.143
1434 0 67.1522 13.1641 884 55.3971 421.848 523.328
1435 0 71.2236 14.1386 1007 53.8103 421.904 521.14
1436 0 73.081 12.9993 950 54.8842 421.702 518.008
1437 0 74.2052 11.8725 881 56.0545 422.354 518.679
1438 0 77.2234 14.335 1107 53.5718 422.521 519.369
1439 0 80.1359 12.1544 974 55.5216 421.864 516.86
1440 0 84.1671 12.6415 1064 54.9267 421.868 514.484
1441 0 85.1698 13.0798 1114 55.0198 421.137 513.347
1442 0 87.174 12.3775 1079 55.8193 421.124 511.766
1443 1 48.084 12.395 596 55.2332 421.188 529.617
1444 0 51.0299 10.6408 543 56.7827 420.678 530.565
1445 0 52.2716 10.8855 569 56.4815 420.982 530.434
1446 0 52.1523 14.0742 734 54.3815 421.699 528.158
1447 0 58.0351 11.6481 676 55.5192 422.027 530.402
1448 0 55.0211 13.4676 741 55.2294 421.865 526.032
1449 0 58.103 12.6327 734 55.9128 422.166 522.943
1450 0 59.0744 12.3742 731 56.5103 421.688 522.688
1451 0 61.1496 13.0009 795 55.7761 423.048 521.145
1452 0 65.1921 13.2225 862 55.3678 421.566 521.486
1453 0 64.112 11.7295 752 56.7739 421.258 519.711
1454 0 66.1204 12.1899 806 56.1873 420.254 519.016
1455 0 68.2518 12.4392 849 56.093 421.128 517.848
1456 0 71.0316 12.1354 862 55.8155 421.262 516.832
1457 0 76.1676 12.8007 975 54.7169 421.365 514.682
1458 0 75.0774 13.1198 985 54.9492 421.256 516.394
1459 0 79.3028 11.6263 922 56.1291 420.706 516.951
1460 0 84.2356 12.5244 1055 54.8777 421.319 515.843
1461 0 87.1904 13.4763 1175 54.84 421.288 508.154
1462 0 88.1628 12.1366 1070 56.5224 421.241 509.029
1463 0 93.3076 12.5928 1175 56.0272 420.784 509.024
1464 1 47.2079 12.2861 580 56.181 421.371 530.684
1465 0 50.0795 12.7597 639 55.4069 422.527 530.513
1466 0 49.1458 12.3103 605 57.3554 421.871 528.015
1467 0 51.1755 13.3267 682 55.5396 422.287 529.99
1468 0 54.2269 14.0521 762 54.647 422.091 529.501
1469 0 54.1215 13.9686 756 55.4564 421.698 528.433
1470 0 56.1508 14.1939 797 55.7277 421.009 524.384
1471 0 59.2702 13.3794 793 55.9458 421.706 526.564
1472 0 60.0881 15.0612 905 55.1204 421.862 525.592
1473 0 61.1522 12.379 757 57.6579 421.59 523.306
1474 0 63.0488 15.2422 961 55.1988 421.839 523.12
1475 0 64.0641 13.3304 854 57.6089 421.102 518.479
1476 0 68.3428 13.3006 909 57.1507 420.792 523.072
1477 0 72.1939 13.159 950 57.8084 420.446 518.464
1478 0 73.0838 13.6145 995 57.5889 421.1 518.41
1479 0 74.1628 13.1872 978 58.7188 421.33 515.845
1480 0 76.2548 13.127 1001 58.7223 420.763 516.839
1481 0 81.3045 13.0005 1057 59.3359 420.957 512.868
1482 0 84.2031 13.313 1121 58.0963 420.761 517.362
1483 0 85.1972 13.0755 1114 59.2163 420.092 513.934
1484 0 87.0537 12.6588 1102 60.1597 421.188 510.975
1485 0 94.2323 14.5492 1371 57.2852 421.077 513.273
1486 1 48.0727 11.8362 569 60.3937 421.202 531.754
1487 0 49.0883 15.3601 754 57.0703 420.809 531.422
1488 0 54.4012 11.8563 645 60.2574 421.437 529.229
1489 0 55.0992 14.1926 782 57.8478 421.514 530.902
1490 0 54.1395 12.8741 697 60.6987 421.578 527.131
1491 0 55.341 13.5523 750 59.9707 420.508 527.812
1492 0 58.0971 13.4774 783 60.2261 420.471 525.871
1493 0 60.1357 13.7688 828 58.7742 419.847 529.221
1494 0 63.2179 13.667 864 59.6331 419.631 525.862
1495 0 65.159 13.3366 869 60.4212 419.701 524.03
1496 0 65.31 12.9077 843 61.3132 420.203 521.515
1497 0 71.2174 13.0165 927 60.2211 420.627 522.374
1498 0 71.2441 15.6083 1112 58.0387 420.227 520.389
1499 0 71.1446 12.6503 900 61.8811 421.088 520.073
1500 0 76.4065 15.2212 1163 58.5795 421.076 517.727
1501 0 77.2718 13.7566 1063 60.8024 421.15 516.784
1502 0 81.1957 12.8701 1045 61.9665 421.224 514.46
1503 0 84.1624 14.7215 1239 59.406 420.993 515.337
1504 1 44.3472 14.3188 635 58.6283 420.97 532.532
1505 0 47.3544 11.5512 547 61.3071 420.781 530.784
1506 0 47.1301 13.8765 654 59.3838 420.732 532.177
1507 0 46.1318 12.0091 554 62.8123 420.399 530.087
1508 0 49.0876 13.262 651 60.6375 420.017 531.455
1509 0 53.1867 13.7252 730 59.4781 421.132 530.688
1510 0 50.0336 13.6109 681 61.5683 420.467 527.197
1511 0 55.2721 14.89 823 58.9356 420.766 526.827
1512 0 57.1122 13.7274 784 59.3776 421.369 528.018
1513 0 60.162 13.314 801 60.1348 421.042 525.404
1514 0 59.2077 12.8868 763 61.0052 420.927 523.24
1515 0 60.0642 11.5876 696 62.7428 420.941 522.116
1516 0 64.27 12.0274 773 61.5459 420.966 522.202
1517 0 68.0685 14.3826 979 58.4586 421.396 521.123
1518 0 66.115 12.4329 822 61.7214 421.01 516.117
1519 0 71.1532 14.1807 1009 59.0416 421.037 517.583
1520 0 72.2126 12.9756 937 60.7492 420.466 513.551
1521 0 75.1762 14.4461 1086 59.1657 419.974 513.052
1522 0 75.0867 12.8119 962 60.8607 420.72 514.035
1523 0 78.144 13.3216 1041 60.2872 419.93 509.746
1524 0 84.0652 12.7877 1075 60.2195 420.674 510.049
1525 0 82.0991 10.7431 882 62.8322 419.706 511.621
1526 1 48.1101 11.5153 554 59.3357 421.522 530.554
1527 0 45.1873 12.924 584 59.3459 421.135 530.038
1528 0 47.0435 12.3503 581 59.8571 421.592 528.434
1529 0 49.0916 14.6053 717 57.2692 421.492 529.34
1530 0 50.1479 13.6596 685 59.0496 421.053 528.863
1531 0 51.1747 12.7016 650 60.4462 421.058 525.414
1532 0 53.2172 15.0891 803 57.8169 421.127 525.75
1533 0 51.0411 12.0491 615 62.226 421.455 524.194
1534 0 53.039 12.3494 655 61.5038 421.214 522.191
1535 0 58.1298 13.0226 757 59.8296 420.342 523.445
1536 0 61.2177 14.4076 882 58.297 420.823 522.336
1537 0 62.0898 11.8538 736 60.1617 420.976 525.724
1538 0 64.0881 12.8105 821 60.7345 421.179 520.476
1539 0 65.1033 12.4111 808 60.6287 421.408 522.038
1540 0 67.1254 11.5903 778 62.2288 420.928 516.997
1541 0 71.0588 12.4263 883 61.6263 420.849 514.856
1542 0 75.1005 12.7163 955 60.4513 419.804 516.356
1543 0 76.183 11.9974 914 61.6849 420.869 516.15
1544 0 81.0561 13.3981 1086 60.337 420.661 514.546
1545 0 81.1314 12.868 1044 61.6025 420.373 513.427
1546 0 87.23 12.7135 1109 61.6366 421.83 510.41
1547 1 40.047 10.5126 421 63.4418 421.242 530.154
1548 0 44.053 12.1899 537 61.1769 420.7 530.937
1549 0 46.1471 14.6271 675 58.9822 420.782 530.84
1550 0 47.3987 12.7641 605 61.076 421.388 528.431
1551 0 47.135 14.3206 675 60.5333 420.513 527.71
1552 0 48.2346 11.2368 542 63.8063 420.784 529.67
1553 0 50.0965 14.1128 707 60.4611 420.966 528.738
1554 0 55.1347 14.383 793 59.5851 421.077 528.793
1555 0 53.1747 12.788 680 62.2235 420.507 526.768
1556 0 57.389 12.0058 689 62.0784 420.464 528.792
1557 0 59.064 14.7298 870 59.3172 419.755 527.868
1558 0 60.1624 15.3917 926 59.108 419.764 523.025
1559 0 60.0444 14.2395 855 60.814 419.778 524.938
1560 0 62.03 13.9126 863 61.4438 420.403 523.117
1561 0 66.2823 12.9748 860 62.0721 420.365 523.071
1562 0 70.3727 13.9543 982 60.2454 420.678 524.813
1563 0 72.1065 12.8282 925 61.8324 420.499 521.89
1564 0 72.2035 14.0021 1011 61.7448 420.593 519.073
1565 0 72.0974 12.5109 902 64.1885 420.192 513.7
1566 0 79.0847 13.9471 1103 61.4932 420.508 519.147
1567 0 80.2067 13.4403 1078 62.7532 420.663 515.717
1568 1 38.0991 11.89 453 63.4879 420.514 535.033
1569 0 41.037 11.648 478 63.4937 420.349 534.038
1570 0 41.0595 15.6358 642 61.5654 419.96 531.52
1571 0 43.2682 14.3061 619 62.4604 419.897 531.7
1572 0 43.5076 11.1245 484 65.4773 420.326 532.074
1573 0 46.1258 12.1407 560 64.45 420.707 531.234
1574 0 48.3369 12.5577 607 63.7232 420.252 532.486
1575 0 49.241 12.0022 591 64.3739 419.753 530.763
1576 0 50.1873 13.071 656 63.9573 420.308 529.393
1577 0 53.1365 13.0983 696 64.1523 420.204 525.596
1578 0 57.3426 13.7768 790 61.8013 420.42 530.851
1579 0 55.137 13.1491 725 64.6138 420.436 528.363
1580 0 60.3677 13.3681 807 63.72 419.445 526.534
1581 0 61.4016 14.1202 867 63.7278 419.953 524.113
1582 0 64.3987 11.4754 739 66.2828 419.834 526.352
1583 0 67.2163 12.0655 811 65.545 420.386 524.16
1584 0 67.2811 12.7673 859 65.7637 419.239 522.918
1585 0 71.2806 13.4819 961 64.9646 419.11 521.831
1586 0 73.3688 12.9755 952 65.4737 420.184 522.204
1587 0 77.3297 13.9532 1079 64.1446 420.424 522.223
1588 0 79.1945 12.7155 1007 66.3257 420.214 519.825
1589 0 79.231 12.6213 1000 67.099 419.642 518.507
1590 0 81.3553 13.1645 1071 66.7554 420.148 517.345
1591 1 42.3814 14.3223 607 63.5552 420.445 534.619
1592 0 44.2941 10.3851 460 68.4 419.878 533.263
1593 0 44.2639 13.0354 577 65.2444 421.007 535.484
1594 0 46.257 12.3008 569 66.1951 420.151 534.1
1595 0 47.2647 11.6789 552 67.0072 420.172 532.661
1596 0 47.3158 11.2859 534 68.7116 419.492 530.635
1597 0 47.2967 10.8676 514 69.3152 419.284 529.533
1598 0 51.2485 12.8394 658 66.4772 418.854 531.29
1599 0 53.602 12.5742 674 65.8086 418.405 531.823
1600 0 53.1418 12.8148 681 67.2379 418.577 528.354
1601 0 54.1682 13.3842 725 66.7972 419.75 527.157
1602 0 56.3409 11.9629 674 68.1632 419.34 526.834
1603 0 59.3169 13.5375 803 65.5504 419.919 527.99
1604 0 62.2261 12.8724 801 66.6991 419.703 524.463
1605 0 60.4546 13.7955 834 66.5767 419.568 527.802
1606 0 64.3474 12.5724 809 68.2435 420.841 524.047
1607 0 67.2658 12.6067 848 68.7995 420.279 522.88
1608 0 68.2828 11.4231 780 70.4154 420.456 520.832
1609 0 72.3434 12.6756 917 69.2454 420.491 519.796
1610 0 72.2951 13.6939 990 68.604 420.429 520.168
1611 0 79.4174 14.0397 1115 67.3561 421.228 519.336
1612 0 74.2047 14.9451 1109 68.4986 420.915 515.71
1613 0 80.2964 12.0802 970 71.6897 420.356 515.084
1614 1 46.4019 11.9607 555 70.2577 420.348 533.661
1615 0 46.3206 12.3703 573 71.0035 420.597 531.506
1616 0 49.2387 11.4341 563 71.9662 419.932 531.002
1617 0 46.4028 10.5166 488 75.8607 420.137 527.787
1618 0 51.2551 12.7012 651 71.7619 420.376 530.353
1619 0 56.2898 13.0752 736 70.8777 420.469 529.681
1620 0 53.2547 12.9754 691 72.4848 420.69 528.52
1621 0 58.2828 12.8168 747 71.7497 419.96 527.846
1622 0 58.1749 13.7516 800 72.1538 421.164 526.412
1623 0 61.2492 13.2247 810 72.3802 420.819 526.668
1624 0 62.552 14.1642 886 72.0102 420.687 524.546
1625 0 67.208 14.2394 957 71.209 420.224 524.158
1626 0 67.3611 13.2272 891 73.7677 421.46 522.621
1627 0 69.2793 14.3621 995 71.8925 420.712 524.148
1628 0 71.3909 13.8253 987 74.0659 420.943 518.878
1629 0 75.2748 14.6264 1101 72.0254 420.025 521.77
1630 0 79.3178 14.8769 1180 71.5254 420.132 521.838
1631 0 82.2613 15.5966 1283 71.1169 420.086 519.269
1632 0 82.3897 13.4604 1109 75.6601 419.334 515.454
1633 0 87.3549 15.1108 1320 72.4015 419.874 518.227
1634 0 88.2427 12.6583 1117 76.3805 419.645 517.365
1635 0 91.4328 14.0322 1283 75.0226 420.163 513.91
1636 1 49.3601 13.0065 642 74.6698 420.651 532.888
1637 0 51.2819 12.6555 649 74.5824 420.049 534.31
1638 0 51.2895 13.5895 697 74.7217 421.162 532.756
1639 0 54.2424 14.214 771 72.8807 420.947 533.564
1640 0 55.1108 15.4961 854 72.0468 420.91 532.156
1641 0 56.142 12.9315 726 75.0606 421.262 532.708
1642 0 61.3478 14.3118 878 71.9932 420.968 533.165
1643 0 59.3024 13.7431 815 73.9252 420.617 531.833
1644 0 60.3554 13.8016 833 74.3517 420.495 528.911
1645 0 63.3723 13.6653 866 74.1005 420.66 528.706
1646 0 66.2714 15.4063 1021 71.0979 421.287 528.014
1647 0 68.4298 14.3505 982 73.0214 421.024 525.911
1648 0 70.3261 14.1199 993 72.6727 421.065 527.697
1649 0 73.2946 15.2126 1115 71.2072 420.804 525.484
1650 0 74.2474 15.2463 1132 72.2253 421.76 522.437
1651 0 78.3608 16.156 1266 69.9637 421.708 523.37
1652 0 80.3098 15.2908 1228 71.2752 420.733 522.297
1653 0 81.3155 13.4046 1090 74.7 419.527 519.717
1654 0 85.3134 14.8511 1267 72.8721 419.613 518.148
1655 0 87.4061 14.5184 1269 73.208 419.727 516.514
1656 1 46.4006 12.1335 563 70.7123 420.346 540.38
1657 0 46.2039 12.0336 556 74.732 420.336 534.808
1658 0 46.1915 13.0327 602 73.6512 420.884 534.708
1659 0 48.2192 13.9571 673 71.2511 420.727 535.462
1660 0 48.2122 12.0924 583 74.9931 421.11 533.089
1661 0 52.2408 13.744 718 70.7716 420.521 534.252
1662 0 53.2806 14.7521 786 69.7366 420.785 534.111
1663 0 52.0893 12.8817 671 72.8226 420.423 531.548
1664 0 55.1172 12.7002 700 73.0186 420.436 529.966
1665 0 55.1387 13.3844 738 72.0583 419.425 528.508
1666 0 52.1993 13.9274 727 73.3384 420.486 527.173
1667 0 56.0775 12.3579 693 74.2944 420.551 527.488
1668 0 62.0568 13.5199 839 71.4076 421.313 526.788
1669 0 63.2512 14.64 926 69.9147 420.446 524.941
1670 0 68.1821 14.8719 1014 68.932 420.552 526.07
1671 0 68.2614 12.1298 828 73.0386 419.638 522.562
1672 0 72.3153 15.9441 1153 67.8144 420.408 523.283
1673 0 72.1404 14.0559 1014 70.1183 420.396 524.905
1674 0 76.2227 14.6544 1117 69.8299 419.804 521.225
1675 0 80.227 15.1944 1219 69.0796 420.204 521.477
1676 0 82.2695 12.8602 1058 72.2278 420.03 520.573
1677 0 83.131 14.2185 1182 70.3477 420.963 521.46
1678 0 86.1793 13.6112 1173 71.0605 421.009 517.341
1679 0 89.1755 15.2508 1360 69.4287 421.179 513.043
1680 0 92.3523 15.3326 1416 69.6822 420.583 512.424
1681 0 95.1934 15.4212 1468 69.0988 419.746 512.268
1682 0 96.4375 16.0933 1552 68.6798 419.326 512.363
1683 1 49.2988 13.124 647 70.5688 420.107 534.037
1684 0 50.2811 12.7284 640 71.65 420.064 531.75
1685 0 52.0597 13.4461 700 69.9129 419.566 534.761
1686 0 56.268 14.0044 788 68.5013 420.382 533.612
1687 0 54.0976 13.5311 732 71.6079 420.84 530.915
1688 0 57.1887 13.3243 762 71.563 420.104 529.147
1689 0 57.1206 13.9529 797 70.7378 419.952 529.685
1690 0 62.2992 14.6711 914 69.3917 419.699 530.191
1691 0 58.232 15.2322 887 71.1015 420.646 524.598
1692 0 66.1128 16.3962 1084 68.2721 420.146 527.054
1693 0 67.1375 14.582 979 70.5455 420.705 526.106
1694 0 70.0738 14.7416 1033 70.0523 420.066 526.745
1695 0 73.2756 14.3022 1048 70.4552 420.491 526.815
1696 0 73.0816 15.0106 1097 71.2607 420.378 522.476
1697 0 74.2824 13.3948 995 73.9457 420.567 521.095
1698 0 79.1971 15.6319 1238 71.0436 420.071 520.817
1699 0 81.0878 14.0712 1141 73.1814 420.308 520.368
1700 0 82.1525 13.4384 1104 75.1422 420.158 520
1701 0 85.1376 13.9304 1186 74.3904 420.524 517.216
1702 0 88.148 13.5114 1191 74.9698 420.834 516.561
1703 0 92.5871 14.7321 1364 73.1136 420.947 516.595
1704 0 97.4114 15.7168 1531 71.0764 420.59 516.864
1705 1 51.3345 15.8763 815 69.9607 420.701 534.894
1706 0 51.4928 13.866 714 72.8221 419.164 535.695
1707 0 54.2274 13.8675 752 72.2753 421.209 535.394
1708 0 56.42 13.8958 784 72.8571 420.529 533.227
1709 0 54.64 13.5615 741 73.4413 420.258 533.41
1710 0 59.4299 14.7737 878 72.0114 420.617 530.839
1711 0 59.4859 14.2387 847 72.2586 420.798 533.014
1712 0 59.3668 13.425 797 75.2685 420.477 530.346
1713 0 60.1903 14.0887 848 74.4576 420.396 529.053
1714 0 65.5793 14.4253 946 72.797 420.554 527.961
1715 0 66.4262 14.407 957 72.953 419.889 527.364
1716 0 72.5408 14.7641 1071 71.4556 419.362 528.004
1717 0 71.2685 14.9856 1068 72.6901 420.859 527.692
1718 0 75.4944 15.0475 1136 72.147 420.266 526.217
1719 0 76.4134 14.6833 1122 74.2442 420.723 524.124
1720 0 77.5129 14.9911 1162 74.3477 420.081 520.997
1721 0 79.3391 14.7846 1173 73.8977 419.962 523.222
1722 0 82.2285 15.0191 1235 73.6113 419.986 521.934
1723 0 81.3713 14.2311 1158 76.1848 419.573 520.402
1724 0 87.3704 14.8677 1299 74.5396 419.841 520.139
1725 0 89.661 14.7667 1324 75.1714 420.048 518.156
1726 0 91.665 14.4766 1327 75.5788 420.023 518.308
1727 0 93.4323 15.4443 1443 75.0367 420.735 515.705
1728 0 97.4188 15.8388 1543 74.8574 419.394 512.086
1729 1 52.3558 15.1846 795 73.5006 420.449 535.842
1730 0 53.3806 14.1062 753 75.5631 420.896 535.73
1731 0 54.539 14.8151 808 74.3886 420.259 535.739
1732 0 56.5644 14.7266 833 74.1164 420.63 535.547
1733 0 58.6327 14.4118 845 75.2225 421.32 534.548
1734 0 57.659 15.7651 909 74.6777 421.196 533.777
1735 0 58.5634 13.4896 790 78.5519 421.013 531.444
1736 0 62.6906 14.9145 935 75.8374 420.313 532.273
1737 0 63.6664 14.2147 905 77.3392 420.47 531.201
1738 0 65.4749 15.2272 997 76.8987 419.749 527.935
1739 0 68.565 14.7014 1008 76.4901 420.97 530.282
1740 0 69.6208 15.3115 1066 76.6773 420.839 526.556
1741 0 72.78 15.0179 1093 76.839 420.433 525.981
1742 0 74.5047 15.6366 1165 76.8292 419.674 525.357
1743 0 74.655 13.9977 1045 79.2067 420.365 525.079
1744 0 80.5832 16.1076 1298 75.6448 420.825 523.433
1745 0 80.4313 15.1931 1222 77.7709 420.389 519.259
1746 0 83.5935 15.4916 1295 77.0008 420.7 521.531
1747 0 86.4118 14.6276 1264 78.1551 420.109 519.096
1748 0 89.5119 15.5175 1389 76.514 419.763 518.112
1749 0 90.4531 15.754 1425 76.6112 419.901 517.052
1750 1 46.4854 13.4881 627 77.0606 420.145 537.123
1751 0 47.6708 13.5093 644 76.2174 420.328 537.112
1752 0 47.4137 14.616 693 75.5599 421.278 538.781
1753 0 50.4128 14.4209 727 74.63 421.21 539.575
1754 0 49.4988 13.0508 646 77.935 421.695 537.389
1755 0 52.3664 14.1885 743 76.1534 421.147 537.164
1756 0 54.3306 13.8596 753 76.6321 421.126 535.226
1757 0 56.596 14.3473 812 75.5135 421.212 535.685
1758 0 56.5207 13.7826 779 77.5879 421.177 532.888
1759 0 55.4627 14.0635 780 77.5654 420.495 531.928
1760 0 60.7852 15.4149 937 74.6115 420.408 531.354
1761 0 60.4176 14.6315 884 76.3597 420.574 529.543
1762 0 63.6213 15.0264 956 74.8525 420.164 530.645
1763 0 64.6063 16.5154 1067 73.686 421.235 528.356
1764 0 66.5728 13.8195 920 77.5065 421.12 526.774
1765 0 69.3957 14.828 1029 75.6832 421.102 526.317
1766 0 69.5351 13.5759 944 78.2394 421.101 522.684
1767 0 74.3221 13.8048 1026 76.3411 420.937 525.378
1768 0 75.3886 17.1246 1291 72.2362 420.31 523.548
1769 0 75.6245 13.8844 1050 77.6505 420.864 520.751
1770 0 78.2896 14.1909 1111 76.1782 420.837 523.99
1771 0 82.4964 15.3461 1266 75.1161 420.968 520.795
1772 0 85.569 15.3327 1312 74.4291 420.703 518.702
1773 0 87.6953 14.7784 1296 75.6782 420.353 517.195
1774 0 90.3694 14.7616 1334 74.9243 421.373 516.603
1775 0 89.4137 13.6556 1221 77.1515 419.996 515.176
1776 1 45.4532 12.1664 553 77.8897 420.915 535.04
1777 0 48.4587 13.331 646 76.0728 420.896 534.449
1778 0 47.5054 12.588 598 77.5987 420.162 534.498
1779 0 50.5869 14.5888 738 74.3198 420.863 534.5
1780 0 52.5637 14.4396 759 74.7694 421.368 532.269
1781 0 54.3029 14.7138 799 74.5294 420.802 532.36
1782 0 57.5085 14.0501 808 74.8824 420.712 529.861
1783 0 58.3765 13.9611 815 74.6589 420.045 529.234
1784 0 59.5662 13.8669 826 74.73 420.953 529.441
1785 0 60.3466 14.6984 887 73.7971 420.734 529.529
1786 0 62.3725 14.237 888 75.5248 420.181 525.904
1787 0 67.3279 15.0606 1014 73.8304 420.767 526.276
1788 0 70.4537 16.5357 1165 71.0086 421.135 526.328
1789 0 71.3081 14.9913 1069 74.072 420.85 524.144
1790 0 70.5502 14.5428 1026 75.8402 420.605 521.072
1791 0 73.3572 15.3086 1123 74.6946 420.879 521.564
1792 0 75.5947 14.4851 1095 75.9388 420.139 520.795
1793 0 78.3197 13.4321 1052 77.3859 419.758 520.369
1794 0 78.5764 14.0373 1103 77.6201 419.872 517.863
1795 0 82.333 14.3442 1181 77.7163 421.223 516.262
1796 0 87.3697 15.4859 1353 74.3444 420.944 518.471
1797 0 89.4104 15.1772 1357 75.3007 421.001 515.335
1798 0 90.2649 15.5099 1400 75.1971 420.576 514.314
1799 0 92.2778 15.1391 1397 75.8461 420.702 512.321
1800 0 95.4231 14.2418 1359 78.1185 420.086 506.327
1801 1 50.3127 12.8795 648 78.2963 420.162 529.642
1802 0 49.2416 10.3774 511 82.4188 420.926 529.661
1803 0 54.1829 12.9192 700 77.7529 421.09 530.873
1804 0 55.3559 14.1629 784 75.611 421.328 532.835
1805 0 56.2854 14.4442 813 77.166 421.103 528.183
1806 0 56.2548 14.0788 792 78.5556 421.27 527.979
1807 0 58.4787 12.0215 703 80.697 421.043 526.885
1808 0 59.2912 15.6684 929 75.4478 420.797 526.535
1809 0 61.2451 15.0543 922 75.9143 420.941 527.095
1810 0 61.454 12.1554 747 81.004 421.208 525.248
1811 0 68.4344 13.4435 920 77.612 421.866 525.8
1812 0 67.6548 13.5098 914 78.9716 421.45 519.737
1813 0 68.4272 14.351 982 78.1741 420.611 522.722
1814 0 71.3893 15.8987 1135 75.5568 420.707 521.93
1815 0 74.4866 15.7612 1174 75.8612 420.267 519.24
1816 0 78.5624 16.1528 1269 74.9425 420.164 520.486
1817 0 80.2776 15.2346 1223 76.991 419.833 518.623
1818 0 81.378 14.1439 1151 78.6872 420.726 518.311
1819 0 86.6092 15.4603 1339 75.3316 420.615 519.043
1820 0 87.3035 14.9822 1308 77.3425 420.755 514.281
1821 0 91.4035 15.3167 1400 76.3979 420.501 514.812
1822 0 94.4042 15.1476 1430 76.0028 420.941 514.249
1823 0 97.3512 16.0964 1567 75.0989 420.04 511.671
1824 1 50.5526 13.4118 678 76.1283 421.317 534.562
1825 0 52.3661 13.6348 714 75.5462 421.111 533.999
1826 0 51.4843 14.315 737 76.6635 420.782 530.715
1827 0 55.3695 14.3942 797 75.5847 421.183 530.87
1828 0 56.4584 14.8782 840 74.8893 421.205 530.133
1829 0 56.4799 14.7309 832 76.1142 420.677 529.536
1830 0 58.3741 13.5334 790 77.6684 420.278 528.665
1831 0 60.2215 15.2437 918 74 420.561 531.348
1832 0 62.3227 15.5 966 74.0518 421.235 529.856
1833 0 65.2614 13.8826 906 76.2384 420.551 527.967
1834 0 67.5947 14.8088 1001 74.5804 419.981 526.258
1835 0 68.3159 14.1402 966 75.7132 418.965 525.48
1836 0 68.5027 14.2038 973 76.372 419.748 524.93
1837 0 72.2706 14.9023 1077 75.442 419.139 521.753
1838 0 75.4156 13.8698 1046 76.5612 420.387 521.453
1839 0 78.2805 15.981 1251 73.6763 420.039 523.138
1840 0 78.387 14.7729 1158 75.0026 420.318 521.67
1841 0 83.4713 14.9033 1244 74.5217 420.151 518.268
1842 0 83.5137 14.2851 1193 75.2171 419.489 518.376
1843 0 87.3455 16.3947 1432 71.7919 419.434 516.726
1844 1 45.1887 11.7065 529 75.0983 420.242 537.062
1845 0 46.3663 12.7679 592 74.0034 419.9 535.86
1846 0 46.3079 14.4468 669 72.3602 420.049 535.042
1847 0 47.303 11.8174 559 74.9106 419.168 534.263
1848 0 49.1475 12.7575 627 75.2791 418.812 531.348
1849 0 50.324 11.8035 594 74.4394 419.672 534.392
1850 0 51.4197 12.6411 650 75.0108 419.871 530.398
1851 0 53.3298 14.3822 767 71.5828 419.69 531.937
1852 0 56.2344 13.8705 780 71.659 420.02 530.118
1853 0 57.2674 15.2618 874 69.2311 420.379 530.806
1854 0 60.3746 14.4597 873 70.3769 419.549 526.958
1855 0 59.3087 14.4667 858 71.0653 420.111 524.058
1856 0 62.4037 13.0762 816 71.9779 419.885 524.108
1857 0 63.4556 13.3794 849 71.8068 419.874 525.012
1858 0 66.371 13.6505 906 71.3698 420.193 524.298
1859 0 64.2942 12.225 786 73.7977 419.931 519.469
1860 0 69.2645 13.6578 946 71.3996 419.9 520.469
1861 0 72.3976 14.6828 1063 69.7187 419.181 520.979
1862 0 74.3057 13.3099 989 71.7624 420.242 519.383
1863 0 77.6199 15.1894 1179 69.2977 420.548 519.318
1864 0 78.3822 12.9111 1012 72.7332 421.074 516.675
1865 0 82.4658 14.3453 1183 69.5232 420.496 520.627
1866 1 42.2704 13.4373 568 68.9349 420.928 537.06
1867 0 42.4011 13.7732 584 69.2483 420.976 536.565
1868 0 45.2317 15.5422 703 65.7909 419.906 537.929
1869 0 46.3384 13.4446 623 68.3772 420.162 536.848
1870 0 46.3856 11.7278 544 70.3309 421.235 536.647
1871 0 47.504 13.1147 623 69.9872 420.746 534.486
1872 0 48.5032 11.4632 556 72.3327 420.64 533.917
1873 0 51.6216 15.9623 824 66.3386 420.973 533.091
1874 0 50.4118 12.6161 636 71.5126 420.983 531.37
1875 0 53.2812 15.8405 844 67.3306 420.627 530.283
1876 0 56.4054 14.5199 819 67.4713 420.01 530.16
1877 0 56.5575 14.5516 823 68.3268 420.464 528.441
1878 0 54.5044 12.6228 688 72.0814 419.98 525.185
1879 0 58.378 13.3954 782 70.5243 420.895 526.356
1880 0 59.2936 13.2392 785 70.4166 421.014 527.214
1881 0 62.6126 13.7193 859 70.0687 420.603 524.423
1882 0 65.3203 13.7323 897 69.7079 420.321 525.359
1883 0 67.6693 15.7531 1066 66.5338 420.839 525.226
1884 0 68.3484 14.4554 988 69.2095 421.045 522.493
1885 0 70.5304 14.6036 1030 69.1369 420.785 521.684
1886 0 72.4037 13.8805 1005 70.6269 420.375 519.027
1887 0 76.3804 14.9384 1141 68.8046 419.762 519.399
1888 0 78.3791 14.5064 1137 69.6113 419.645 518.128
1889 0 81.2494 14.1786 1152 70.0104 420.329 517.329
1890 0 83.5316 15.3834 1285 67.9136 420.159 518.123
1891 0 85.5143 13.3428 1141 70.8948 419.608 516.106
1892 0 89.5767 14.468 1296 69.2515 419.186 515.459
1893 0 92.5752 16.0734 1488 67.0323 419.911 511.925
1894 0 94.7609 16.1881 1534 68.5684 420.64 508.745
1895 1 50.4161 14.4002 726 69.1226 420.667 531.97
1896 0 50.2536 12.1384 610 73.1607 420.944 531.034
1897 0 50.3243 11.5054 579 75.0035 421.133 526.135
1898 0 54.3049 15.6708 851 68.9342 420.51 529.455
1899 0 55.4 13.9531 773 71.5032 420.222 528.045
1900 0 59.5812 14.8369 884 69.4989 421.362 527.333
1901 0 58.5491 13.3051 779 71.7176 421.399 526.56
1902 0 63.4737 15.7703 1001 67.961 421.299 526.098
1903 0 63.2964 14.361 909 70.7701 420.466 524.986
1904 0 63.1556 13.3797 845 73.2994 419.915 521.675
1905 0 65.2776 13.68 893 72.822 420.179 522.482
1906 0 68.2999 15.0659 1029 70.7532 420.355 522.515
1907 0 69.5453 14.2785 993 72.8278 420.692 520.478
1908 0 72.5572 17.0073 1234 69.4506 420.818 519.626
1909 0 75.4707 16.1122 1216 70.2944 420.154 520.749
1910 0 78.3452 16.1465 1265 70.7597 420.338 519.972
1911 0 79.2661 16.0094 1269 71.3885 420.139 516.512
1912 0 84.3659 16.5707 1398 70.7504 420.065 516.906
1913 0 85.641 16.2422 1391 71.6513 420.032 515.884
1914 0 86.4779 15.5184 1342 72.687 420.145 515.473
1915 0 88.3685 15.0846 1333 74.3796 420.779 510.457
1916 0 92.441 15.9129 1471 72.1965 421.338 512.858
1917 0 97.4601 16.3657 1595 70.9831 421.331 514.344
1918 0 99.2858 16.3266 1621 72.0475 420.484 508.417
1919 0 102.291 16.5704 1695 71.059 420.886 509.358
1920 0 106.394 16.5893 1765 71.5229 421.344 504.432
1921 0 110.383 16.9229 1868 71.1221 420.721 504.214
1922 0 113.525 15.926 1808 72.1538 420.477 502.808
1923 1 61.3834 11.8762 729 75.4609 421.427 528.154
1924 0 62.3323 12.9307 806 75.232 421.174 527.907
1925 0 68.3671 15.6801 1072 70.3993 421.55 528.824
1926 0 67.5237 14.78 998 73.005 421.17 527.528
1927 0 69.3951 15.8368 1099 72.3003 420.635 525.28
1928 0 71.444 14.4729 1034 73.3482 421.001 527.222
1929 0 73.678 14.6991 1083 74.1634 421.084 524.729
1930 0 76.5324 14.4645 1107 74.3875 420.49 524.47
1931 0 76.5626 15.7779 1208 74.2152 420.377 522.08
1932 0 80.5779 16.0714 1295 72.8201 419.93 522.644
1933 0 83.252 16.5882 1381 72.3302 421.302 522.403
1934 0 84.5805 14.5069 1227 75.9641 420.081 520.27
1935 0 87.6728 14.6682 1286 74.5708 420.33 521.621
1936 0 89.3986 15.7832 1411 73.9908 420.564 517.142
1937 0 93.623 15.7013 1470 73.8742 420.175 516.658
1938 0 95.3788 15.6848 1496 74.506 419.765 517.265
1939 0 97.3408 14.2078 1383 77.1048 419.992 513.189
1940 0 101.545 16.0914 1634 74.1016 419.548 514.799
1941 0 105.566 15.0238 1586 75.7011 420.19 512.873
1942 0 109.535 16.0406 1757 74.2886 419.451 511.556
1943 0 110.862 14.0896 1562 77.42 418.917 510.329
1944 0 116.824 16.161 1888 74.518 419.096 508.408
1945 0 118.68 14.1642 1681 78.069 418.706 503.343
1946 0 124.541 14.3648 1789 77.4723 418.361 503.598
1947 0 128.514 14.2941 1837 77.2161 418.795 503.414
1948 1 67.4055 14.5389 980 75.4245 418.449 531.131
1949 0 68.3241 14.6069 998 77.1523 418.283 527.908
1950 0 71.3738 14.9775 1069 75.8831 418.305 527.507
1951 0 73.3775 14.2142 1043 77.0384 417.438 526.829
1952 0 74.4193 15.0633 1121 76.6334 417.411 525.399
1953 0 79.7204 16.0937 1283 74.2689 416.698 524.969
1954 0 79.2924 14.3015 1134 77.0547 418.018 524.747
1955 0 81.3317 13.9429 1134 78.4824 418.069 519.948
1956 0 83.4157 13.8943 1159 78.8326 418.129 518.868
1957 0 87.4577 14.7042 1286 77.1407 417.779 519.023
1958 0 92.2691 15.3789 1419 75.5095 417.679 519.898
1959 0 92.4228 14.2389 1316 77.9316 417.335 518.714
1960 0 98.3703 16.0211 1576 74.2786 418.152 516.392
1961 0 99.3581 13.8187 1373 78.7808 418.446 511.446
1962 0 102.491 14.9477 1532 76.7604 417.922 511.842
1963 0 106.677 14.961 1596 76.5006 418.107 510.819
1964 0 108.278 14.5829 1579 77.5117 418.346 506.548
1965 0 112.553 14.1889 1597 77.253 418.458 506.868
1966 0 117.385 14.2948 1678 77.3176 418.877 504.168
1967 1 59.4887 12.9436 770 77.8143 419.544 530.971
1968 0 62.4529 13.274 829 77.6357 419.721 529.462
1969 0 65.3484 14.461 945 76.163 419.759 527.361
1970 0 65.4676 13.2585 868 78.4436 420.013 527.56
1971 0 67.3628 13.3753 901 77.9345 420.198 528.141
1972 0 67.4192 12.6373 852 80.7066 419.974 523.167
1973 0 73.2646 16.338 1197 74.7678 419.106 523.126
1974 0 74.318 14.9762 1113 76.5723 419.82 523.505
1975 0 76.6012 15.4697 1185 75.676 419.909 525.262
1976 0 77.5109 14.7979 1147 77.6277 419.803 520.826
1977 0 80.3934 15.0759 1212 77.0949 419.776 520.987
1978 0 86.3634 15.7358 1359 74.9419 419.754 520.564
1979 0 86.581 15.627 1353 76.2151 420.078 517.812
1980 0 89.3806 14.8466 1327 77.1756 420.719 517.277
1981 0 90.4381 13.8548 1253 79.6353 420.263 511.88
1982 0 95.5765 16.1965 1548 75.365 419.599 513.087
1983 0 98.5027 14.9742 1475 76.878 420.461 511.809
1984 0 103.482 15.9545 1651 75.8013 419.592 507.598
1985 0 103.583 14.2495 1476 78.689 420.329 508.232
1986 1 53.353 11.7519 627 81.7544 420.667 529.753
1987 0 55.4016 11.7506 651 80.3149 420.937 531.966
1988 0 59.5802 12.8566 766 79.3812 420.251 528.93
1989 0 61.3372 14.4284 885 77.478 420.047 529.072
1990 0 63.3018 15.4972 981 76.2059 421.128 527.79
1991 0 62.5763 13.8071 864 79.853 420.49 524.817
1992 0 67.3947 15.0754 1016 77.2884 420.137 525.065
1993 0 69.3944 14.9003 1034 76.648 420.827 526.197
1994 0 72.5623 15.2696 1108 75.6706 421.519 523.81
1995 0 73.4013 14.3594 1054 77.8264 421.574 522.972
1996 0 75.4396 14.2498 1075 78.6846 420.258 520.169
1997 0 79.4548 14.373 1142 77.9352 420.152 521.232
1998 0 81.5471 15.1814 1238 77.3514 419.839 518.649
1999 0 84.5392 14.3247 1211 78.0983 420.496 518.78
2000 0 88.3992 14.8191 1310 77.5015 420.498 517.519
2001 0 91.5643 16.4693 1508 74.5816 419.928 516.322
2002 0 90.3688 14.474 1308 78.4075 420.118 514.563
2003 0 97.4211 16.013 1560 75.5391 419.202 512.306
2004 0 100.537 15.3675 1545 76.1657 419.204 512.882
2005 1 48.3612 12.9029 624 76.9135 420.979 533.623
2006 0 49.2432 14.6416 721 73.7184 420.619 535.849
2007 0 47.1859 14.0296 662 77.0287 420.928 532.826
2008 0 51.3281 15.0405 772 74.6697 421.022 532.631
2009 0 53.305 14.7641 787 75.3202 420.893 531.727
2010 0 54.4408 13.7764 750 75.8827 420.18 532.211
2011 0 55.4101 13.6076 754 77.3607 419.744 529.548
2012 0 57.1689 15.6904 897 73.9955 418.783 530.246
2013 0 58.2547 13.8358 806 76.6476 419.696 527.756
2014 0 61.2683 14.2978 876 75.2945 419.838 528.909
2015 0 64.4657 16.3498 1054 72.5465 419.469 528.003
2016 0 63.2847 13.9686 884 77.3122 419.983 525.443
2017 0 66.2313 15.5516 1030 74.8194 418.853 524.849
2018 0 68.5303 16.2994 1117 73.7663 418.551 522.802
2019 0 69.2875 15.3707 1065 75.3362 419.173 523.44
2020 0 70.361 13.914 979 77.6864 419.375 521.188
2021 0 73.2483 15.5089 1136 75.6963 419.34 520.257
2022 0 77.4831 15.0484 1166 75.4048 419.897 520.362
2023 0 79.4159 15.1229 1201 74.6986 419.675 520.619
2024 0 82.4825 14.985 1236 75.0615 419.531 518.162
2025 0 84.2795 15.0333 1267 74.794 419.638 515.474
2026 0 85.4642 14.5909 1247 75.1772 420.359 517.086
2027 0 89.4242 17.7245 1585 71.0233 419.796 513.02
2028 0 91.3815 13.3506 1220 76.9631 419.344 513.79
2029 0 95.4499 14.7826 1411 74.3132 419.235 514.336
2030 0 96.4419 15.035 1450 74.5793 419.977 510.852
2031 0 101.639 15.2009 1545 73.9204 419.731 510.253
2032 0 104.835 13.3543 1400 75.7036 419.436 511.638
2033 0 108.476 16.317 1770 72.0153 419.342 507.886
2034 0 109.372 14.7204 1610 74.1988 419.315 505.713
2035 0 114.348 16.651 1904 71.6654 419.854 504.902
2036 0 116.411 14.8869 1733 74.0462 418.163 499.973
2037 0 121.704 15.5377 1891 72.7435 418.081 503.975
2038 0 127.678 16.1422 2061 71.3508 419.099 502.274
2039 0 128.271 17.1745 2203 70.902 419.803 498.007
2040 1 64.3105 13.4659 866 73.3949 420.001 528.241
2041 0 67.4508 14.1288 953 72.6202 419.848 529.598
2042 0 68.4907 14.0457 962 73.8617 420.268 527.715
2043 0 71.3881 14.5542 1039 73.0192 420.311 526.899
2044 0 73.5798 14.6236 1076 73.368 419.628 525.153
2045 0 73.416 15.1329 1111 72.8506 419.599 526.004
2046 0 75.3836 14.791 1115 74.5049 418.534 523.765
2047 0 76.3004 16.3826 1250 72.4328 419.596 523.336
2048 0 79.4922 17.6118 1400 70.7521 419.605 521.244
2049 0 81.5577 16.663 1359 71.691 419.718 521.865
2050 0 82.4577 14.7348 1215 74.8831 419.583 520.026
2051 0 86.3021 16.1989 1398 72.5186 419.565 518.889
2052 0 86.4463 15.2349 1317 74.9636 419.448 517.217
2053 0 91.3222 16.0531 1466 72.56 419.625 517.529
2054 0 93.3738 16.5571 1546 71.7102 418.846 519.539
2055 0 96.6887 16.0101 1548 72.6531 418.129 516.856
2056 0 96.2146 14.9458 1438 74.8387 419.524 514.097
2057 0 99.4016 14.9595 1487 74.3652 418.68 512.147
2058 0 103.611 15.7802 1635 72.7982 418.987 512.577
2059 0 108.507 15.5566 1688 72.9265 418.53 509.053
2060 0 112.436 15.9469 1793 74.5237 418.63 508.523
2061 0 116.567 15.8879 1852 74.6906 417.977 507.549
2062 1 60.4607 14.3399 867 74.9596 418.16 533.414
2063 0 60.253 12.4143 748 78.0695 417.688 531.63
2064 0 62.4575 15.1783 948 75.1899 418.578 530.084
2065 0 63.4148 14.2238 902 77.1075 418.696 529.318
2066 0 64.3027 14.8361 954 77.5482 418.504 527.957
2067 0 65.5413 14.0675 922 78.1681 418.624 527.749
2068 0 68.8004 15.1598 1043 75.4171 418.693 529.78
2069 0 69.3465 14.2761 990 79.0111 418.968 525.778
2070 0 69.5566 11.9902 834 82.56 418.505 524.79
2071 0 73.6209 16.1775 1191 76.2594 418.695 525.354
2072 0 76.412 15.4033 1177 77.582 417.822 524.125
2073 0 78.536 15.2414 1197 78.4152 417.576 522.105
2074 0 80.3415 16.1436 1297 77.3092 417.729 521.685
2075 0 82.4186 14.4021 1187 79.786 417.438 520.497
2076 0 84.5073 16.2826 1376 77.2064 417.18 519.634
2077 0 87.6406 15.7005 1376 77.5102 417.764 519.279
2078 0 88.3373 13.9013 1228 81.1702 417.916 515.414
2079 0 91.8067 14.0186 1287 80.9914 417.649 514.391
2080 0 97.6279 16.1327 1575 76.9124 417.915 515.895
2081 0 99.7756 16.2364 1620 77.3531 417.865 512.785
2082 0 102.52 15.0995 1548 79.1292 418.846 511.564
2083 0 106.506 16.046 1709 77.4149 419.188 510.353
2084 0 108.568 16.2111 1760 78.4233 418.409 506.957
2085 0 112.621 15.4856 1744 79.3068 418.568 505.62
2086 0 117.596 16.7183 1966 77.4802 418.484 500.595
2087 0 116.586 13.6637 1593 83.2367 418.006 498.857
2088 0 124.613 16.6115 2070 78.0483 418.181 499.874
2089 0 128.501 15.3306 1970 79.6568 418.15 498.388
2090 0 132.608 15.8588 2103 78.9715 418.924 495.023
2091 0 137.941 16.8188 2320 77.1737 418.506 495.991
2092 0 140.344 15.8539 2225 79.5299 417.652 491.896
2093 1 73.5212 14.2 1044 79.5881 418.383 526.487
2094 0 73.5223 12.9213 950 83.2463 417.46 523.391
2095 0 80.473 16.0551 1292 77.171 418.499 523.711
2096 0 79.5179 14.525 1155 80.8753 418.574 522.138
2097 0 84.7018 15.407 1305 79.0881 418.248 520.329
2098 0 84.5429 14.3951 1217 81.8899 418.565 519.272
2099 0 88.6045 16.1504 1431 78.7757 417.925 518.305
2100 0 93.4111 15.5656 1454 78.5399 419.134 519.203
2101 0 91.4755 14.2115 1300 82.6131 418.395 516.413
2102 0 94.2898 15.2084 1434 81.6653 418.942 512.092
2103 0 98.621 14.5 1430 81.8538 418.403 512.018
2104 0 100.439 14.7054 1477 80.7576 418.544 515.53
2105 0 102.513 15.1689 1555 81.6547 418.104 509.938
2106 0 105.669 15.2646 1613 82.0862 418.189 509.206
2107 0 111.746 15.5442 1737 80.6828 419.114 506.33
2108 0 113.446 15.7343 1785 81.2415 418.381 503.073
2109 0 115.595 13.9192 1609 83.3145 417.954 505.648
2110 0 122.615 16.295 1998 79.4449 417.764 501.469
2111 0 125.613 14.6561 1841 82.2368 417.858 498.286
2112 0 129.62 15.5455 2015 80.3707 418.476 498.116
2113 0 134.612 15.8901 2139 79.5012 417.028 497.021
2114 1 68.4986 14.9784 1026 78.4113 417.474 528.196
2115 0 66.4042 13.3877 889 81.2576 418.442 526.893
2116 0 71.5498 14.9686 1071 78.9253 419.084 525.542
2117 0 74.8847 14.5691 1091 78.9047 418.915 525.521
2118 0 76.6502 16.2426 1245 76.9695 418.522 523.897
2119 0 79.7239 15.5913 1243 76.5455 418.044 524.635
2120 0 79.3076 14.3618 1139 80.115 417.779 520.649
2121 0 82.6562 15.4616 1278 78.5243 418.616 518.673
2122 0 84.9154 15.0267 1276 79.1144 418.672 518.722
2123 0 87.5808 13.6902 1199 80.4337 418.609 517.776
2124 0 91.4915 14.5259 1329 79.307 418.789 515.026
2125 0 95.615 17.0371 1629 75.2597 418.456 514.347
2126 0 97.57 15.7938 1541 77.3387 419.006 512.026
2127 0 99.4259 14.8855 1480 78.4169 419.055 512.682
2128 0 103.479 13.9835 1447 79.3234 418.616 511.071
2129 0 106.526 15.0198 1600 78.8288 418.562 507.249
2130 1 51.3286 12.118 622 80.1254 419.33 532.463
2131 0 52.5144 12.4918 656 80.3689 419.14 531.959
2132 0 55.6123 14.2235 791 76.6688 418.473 534.279
2133 0 59.5265 15.1361 901 75.061 419.091 532.973
2134 0 57.5284 16.1833 931 76.522 418.692 528.326
2135 0 58.3911 13.8206 807 79.9591 418.605 528.892
2136 0 61.352 13.5611 832 80.4014 419.546 528.091
2137 0 64.4911 14.4671 933 77.6742 419.661 530.726
2138 0 65.3672 14.1661 926 77.8996 420.19 529.278
2139 0 66.4352 13.9233 925 78.8908 419.814 529.032
2140 0 69.6743 14.4243 1005 78.5313 419.244 528.009
2141 0 71.3314 14.7901 1055 78.3848 418.418 525.736
2142 0 70.3571 14.2985 1006 79.5596 419.28 525.11
2143 0 73.4216 13.62 1000 80.087 420.329 523.692
2144 0 77.3629 16.2481 1257 76.152 419.558 521.809
2145 0 79.2759 16.2344 1287 75.6154 419.145 523.62
2146 0 81.6847 14.7396 1204 78.1179 419.279 520.501
2147 0 85.5857 14.2664 1221 78.0573 418.895 519.834
2148 0 86.5772 15.8818 1375 75.7731 417.778 519.528
2149 0 89.3847 16.0094 1431 76.3816 417.204 515.24
2150 0 92.6501 13.783 1277 78.6241 417.583 517.139
2151 0 96.6217 15.2657 1475 76.9566 417.813 514.416
2152 0 100.594 15.2295 1532 76.7591 417.118 512.879
2153 0 103.578 16.1231 1670 75.9395 417.013 509.532
2154 0 104.462 15.9484 1666 77.0672 418.029 507.068
2155 0 107.609 14.3204 1541 79.2933 417.959 507.773
2156 0 112.469 14.5551 1637 78.0928 418.135 507.976
2157 1 58.5695 13.7443 805 76.3342 418.789 530.825
2158 0 59.4803 12.9791 772 78.7098 418.163 529.034
2159 0 61.4169 14.312 879 76.6496 418.344 531.737
2160 0 64.3638 14.8842 958 76.8925 418.639 528.585
2161 0 65.4418 14.425 944 78.7881 419.164 526.621
2162 0 68.4374 15.1233 1035 77.1227 418.527 527.167
2163 0 69.3978 15.0725 1046 77.7667 418.144 527.278
2164 0 70.4902 13.6047 959 80.0094 418.289 528.024
2165 0 71.4354 14.0966 1007 80.2622 418.204 526.204
2166 0 75.4478 13.9964 1056 80.2936 418.411 524.812
2167 0 77.4938 15.5883 1208 79.029 417.833 520.74
2168 0 80.5704 15.3158 1234 78.9619 419.137 521.63
2169 0 83.4446 15.7829 1317 78.4768 418.045 521.28
2170 0 85.5481 16.6222 1422 77.1055 418.58 518.832
2171 0 87.6438 15.8368 1388 78.4993 418.182 518.501
2172 0 89.4194 15.7572 1409 79.2186 417.749 513.723
2173 0 91.5172 14.7076 1346 80.7058 418.311 513.709
2174 0 95.4007 15.1362 1444 79.991 418.524 514.28
2175 0 102.687 16.4676 1691 76.5305 418.513 513.86
2176 0 105.528 15.9483 1683 76.5639 417.989 513.564
2177 0 107.542 15.1755 1632 78.2684 418.526 511.865
2178 0 110.326 14.6022 1611 80.0006 418.011 507.209
2179 0 117.78 16.7771 1976 75.4054 417.944 504.477
2180 0 117.488 14.41 1693 79.6946 417.988 503.868
2181 0 124.841 16.6212 2075 75.3677 417.784 502.503
2182 0 125.502 14.454 1814 79.1306 417.873 499.101
2183 0 129.918 14.8787 1933 78.9772 417.948 497.439
2184 0 134.56 15.2572 2053 78.3419 418.359 496.28
2185 0 136.521 14.2981 1952 79.6552 418.137 496.42
2186 1 64.3139 13.8073 888 80.4572 418.225 527.496
2187 0 69.7674 15.265 1065 77.3709 417.648 527.843
2188 0 70.5334 14.9433 1054 78.5797 418.249 525.825
2189 0 74.8884 15.5565 1165 76.7305 418.29 525.507
2190 0 72.3783 14.0926 1020 81.3069 418.944 521.241
2191 0 76.5384 15.6784 1200 78.475 418.971 522.744
2192 0 77.6423 14.9661 1162 80.3907 418.601 519.722
2193 0 81.4618 15.8479 1291 77.4245 418.646 522.875
2194 0 81.5613 14.7619 1204 79.5963 418.546 523.06
2195 0 85.5146 15.7166 1344 78.2277 418.667 520.17
2196 0 85.5088 15.2265 1302 79.5115 418.619 518.329
2197 0 90.7681 14.3002 1298 79.5609 418.194 517.571
2198 0 93.7797 14.4808 1358 79.5736 418.207 515.193
2199 0 96.3631 15.1199 1457 78.2972 417.866 512.962
2200 0 100.599 16.68 1678 75.3158 417.9 512.949
2201 0 102.559 15.7081 1611 77.414 417.895 508.271
2202 0 108.69 17.0485 1853 74.4625 418.542 509.756
2203 1 48.6438 12.6635 616 80.3782 419.534 532.292
2204 0 48.3896 13.4533 651 79.1091 418.762 533.958
2205 0 50.5944 11.9183 603 82.4942 418.375 529.743
2206 0 53.622 12.4576 668 80.7455 418.117 530.861
2207 0 57.0486 14.2335 812 77.9335 418.607 531.368
2208 0 56.668 14.6644 831 78.012 418.138 531.433
2209 0 59.6996 14.64 874 77.0801 418.249 531.616
2210 0 61.6282 14.3603 885 77.826 418.314 530
2211 0 62.4714 16.3275 1020 76.1441 418.139 529.6
2212 0 65.5835 15.019 985 77.5817 418.479 527.174
2213 0 67.7446 16.267 1102 75.3194 418.902 528.715
2214 0 67.5845 14.7963 1000 78.877 418.503 525.176
2215 0 72.7314 15.8116 1150 75.6852 418.266 526.522
2216 0 72.4613 14.9873 1086 77.8867 417.828 524.806
2217 0 76.6038 15.7825 1209 76.0877 417.269 524.831
2218 0 76.4902 16.9172 1294 75.3648 417.446 521.326
2219 0 81.7552 17.002 1390 73.4612 417.732 523.47
2220 0 81.4451 14.3287 1167 78.9906 417.164 518.857
2221 0 83.5588 15.4622 1292 76.9141 417.488 518.056
2222 0 85.4906 13.2295 1131 80.0212 418.599 519.03
2223 0 92.8097 16.4854 1530 74.7523 417.608 514.416
2224 0 93.8661 15.5115 1456 76.3997 417.88 515.178
2225 0 95.5434 15.8462 1514 76.5324 417.81 515.085
2226 0 100.89 14.6298 1476 77.6944 418.229 512.744
2227 0 103.427 16.195 1675 75.5707 418.33 512.01
2228 0 104.368 14.4009 1503 79.2096 418.529 508.676
2229 0 109.651 16.1057 1766 76.3669 417.631 506.759
2230 0 113.902 15.6539 1783 76.6708 417.84 509.328
2231 0 117.542 15.5604 1829 77.421 417.275 504.932
2232 0 121.672 15.887 1933 76.7062 418.035 502.661
2233 1 57.5384 13.9038 800 76.9175 418.705 534.979
2234 0 54.3848 13.3309 725 79.6 419.113 533.527
2235 0 55.3891 11.7171 649 82.9168 419.299 531.567
2236 0 61.5887 14.1584 872 77.9633 417.959 531.857
2237 0 60.4251 13.9842 845 79.5349 417.825 530.233
2238 0 62.5246 14.9221 933 78.6013 418.15 529.454
2239 0 65.7921 15.5034 1020 77.2137 418.54 530.112
2240 0 65.6654 15.3353 1007 77.9216 418.387 529.647
2241 0 70.6498 16.5606 1170 75.2949 418.15 529.494
2242 0 69.7281 16.4353 1146 76.6728 419.065 527.865
2243 0 70.8063 14.8998 1055 77.981 419.114 529.41
2244 0 72.5742 13.8479 1005 80.794 419.507 525.717
2245 0 75.4346 14.158 1068 79.6311 419.428 525.389
2246 0 76.664 16.5006 1265 76.2553 419.193 525.447
2247 0 80.751 17.1144 1382 75.3755 418.255 523.179
2248 0 79.8059 14.8987 1189 78.9798 418.479 523.02
2249 0 83.7403 16.0496 1344 77.1816 418.325 520.389
2250 0 87.6423 17.1721 1505 74.7774 418.971 519.891
2251 0 90.8804 17.3525 1577 74.8922 418.467 517.72
2252 0 93.8811 15.8285 1486 76.819 418.929 515.549
2253 0 95.5486 15.1546 1448 77.9682 418.754 513.979
2254 0 97.5703 14.9738 1461 78.373 417.535 513.403
2255 0 103.91 16.6491 1730 75.1977 418.939 513.382
2256 0 106.855 15.9282 1702 76.4342 418.575 510.336
2257 0 110.731 17.0414 1887 73.602 419.855 513.789
2258 0 115.207 16.1014 1855 75.6954 419.329 508.161
2259 0 116.914 15.5499 1818 76.9769 419.028 506.53
2260 0 119.598 14.8079 1771 77.9497 417.852 505.447
2261 0 125.921 16.1768 2037 75.8787 418.98 502.618
2262 0 128.909 16.7715 2162 75.2007 419.463 499.514
2263 1 62.6295 13.9072 871 78.8967 419.144 528.404
2264 0 66.2719 15.9796 1059 75.1501 419.04 530.43
2265 0 68.9668 15.7757 1088 75.3097 419.629 529.404
2266 0 69.6331 14.4184 1004 77.3526 419.553 530.433
2267 0 73.196 16.285 1192 74.9992 419.357 529.501
2268 0 71.5398 14.9987 1073 78.6887 418.616 524.459
2269 0 74.5494 14.9968 1118 78.2236 418.913 525.647
2270 0 76.7837 15.446 1186 76.8954 418.79 526.481
2271 0 80.6313 15.2918 1233 76.6529 419.575 526.755
2272 0 78.7081 14.6999 1157 79.5722 418.833 522.676
2273 0 81.5036 14.576 1188 79.7912 419.614 519.388
2274 0 85.6582 17.9434 1537 73.6292 419.786 522.4
2275 0 87.7635 15.1088 1326 78.1259 419.043 521.483
2276 0 90.558 15.4818 1402 77.4529 418.534 519.412
2277 0 91.8082 15.2927 1404 78.4587 418.225 518.39
2278 0 97.0013 17.1956 1668 74.7428 418.838 518.247
2279 0 97.9171 15.0842 1477 78.8104 418.534 514.529
2280 0 101.896 14.711 1499 79.4036 418.676 512.646
2281 0 101.668 13.7408 1397 81.7223 419.303 508.974
2282 0 104.949 13.1493 1380 82.479 418.851 506.409
2283 0 114.118 16.3076 1861 75.6851 418.786 509.202
2284 0 116.033 14.9871 1739 77.9782 418.899 506.89
2285 0 121.871 15.9759 1947 75.8593 419.426 504.896
2286 1 59.0248 12.8251 757 77.1414 419.609 533.107
2287 0 60.6443 12.0704 732 79.4208 419.564 531.654
2288 0 62.7414 14.9343 937 76.1612 419.499 530.719
2289 0 65.9452 14.3149 944 76.982 419.012 529.056
2290 0 67.9027 15.6106 1060 74.75 419.747 529.878
2291 0 71.3207 13.7127 978 77.0522 419.274 529.782
2292 0 71.8135 15.4845 1112 75.2131 419.693 528.134
2293 0 73.8004 14.3495 1059 76.6789 419.684 527.019
2294 0 75.6698 15.1051 1143 76.3167 419.469 525.243
2295 0 78.9 14.2712 1126 77.8259 419.483 523.989
2296 0 79.8226 14.5949 1165 77.6773 420.248 522.18
2297 0 84.0604 14.9416 1256 76.4029 419.695 522.269
2298 0 87.0888 14.6862 1279 76.8468 419.043 520.629
2299 0 85.9546 14.5775 1253 78.4485 419.546 516.841
2300 0 92.8858 15.4275 1433 73.8011 419.682 518.7
2301 0 95.239 15.7918 1504 73.7753 419.392 514.82
2302 0 98.8426 16.5415 1635 72.156 419.96 515.248
2303 0 102.92 16.2457 1672 72.1489 420.4 513.764
2304 0 104.353 14.6618 1530 75.1392 420.458 510.215
2305 0 107.714 14.5106 1563 75.4683 419.888 507.079
2306 0 112.944 16.973 1917 71.6166 420.29 506.828
2307 1 56.7644 14.2167 807 72.1214 419.833 534.09
2308 0 55.9113 11.5004 643 77.9425 420.624 529.278
2309 0 55.6951 9.17495 511 82.8571 420.816 528.65
2310 0 63.2813 15.5812 986 71.3611 420.223 531.874
2311 0 59.7317 14.6488 875 74.6697 420.166 528.272
2312 0 66.4833 15.0414 1000 71.638 419.646 531.028
2313 0 63.604 13.3639 850 76.4506 419.255 527.576
2314 0 66.5676 15.2326 1014 73.4112 419.507 529.467
2315 0 68.5207 15.1341 1037 73.9094 419.906 527.122
2316 0 73.7279 17.7952 1312 69.6105 420.582 525.985
2317 0 75.0921 16.047 1205 71.9386 420.05 525.767
2318 0 74.1096 15.1397 1122 74.3993 419.958 523.872
2319 0 77.0965 14.4364 1113 75.3783 419.687 521.681
2320 0 79.0497 13.852 1095 76.2146 419.886 521.816
2321 0 81.535 15.1591 1236 74.199 419.871 520.183
2322 0 83.4939 15.2346 1272 73.9127 419.541 520.697
2323 0 87.737 15.3527 1347 73.4484 420.638 518.108
2324 0 86.6753 14.7331 1277 75.1308 419.533 517.624
2325 0 91.985 15.5678 1432 73.3163 419.621 516.714
2326 0 91.8481 14.6437 1345 75.6015 419.387 513.584
2327 0 97.4034 16.8885 1645 71.8298 419.784 511.872
2328 0 100.677 17.3425 1746 71.0286 420.068 513.851
2329 0 101.988 15.3351 1564 73.6809 419.428 512.025
2330 0 105.624 15.8961 1679 73.0167 419.776 508.772
2331 0 110.069 16.308 1795 72.5677 419.253 507.463
2332 0 115.055 16.7398 1926 71.459 419.288 504.921
2333 0 115.107 14.8383 1708 74.3472 420.136 501.794
2334 0 120.954 16.1632 1955 71.6772 419.464 505.528
2335 0 123.889 16.1596 2002 71.8422 419.557 500.846
2336 0 130.81 16.4514 2152 70.8982 420.044 499.844
2337 1 73.1319 13.5372 990 72.4909 419.794 526.76
2338 0 73.8962 14.9805 1107 72.1012 419.286 525.227
2339 0 76.8225 13.0691 1004 75.1922 419.47 521.196
2340 0 80.0401 14.0929 1128 73.2748 419.194 522.707
2341 0 81.0684 14.7283 1194 72.8878 418.928 521.688
2342 0 86.137 14.5466 1253 72.6289 419.993 519.411
2343 0 85.6917 14.1904 1216 73.7319 420.005 518.058
2344 0 90.9567 15.26 1388 71.8437 420.139 516.949
2345 0 93.7952 15.7257 1475 71.181 420.524 516.557
2346 0 94.9801 13.5186 1284 73.4829 420.382 516.44
2347 0 97.6762 15.8278 1546 71.1798 419.768 511.705
2348 0 104.165 15.677 1633 70.0588 420.051 513.382
2349 0 106.723 16.7442 1787 68.7734 420.194 510.264
2350 0 107.93 15.6953 1694 63.487 419.817 506.494
2351 0 111.745 15.7323 1758 62.5205 419.742 504.895
2352 0 116.004 15.5426 1803 61.5646 419.855 506.573
2353 0 121.43 15.5481 1888 61.3014 419.508 501.81
2354 0 122.951 15.9332 1959 61.583 418.961 498.72
2355 1 59.7116 13.6657 816 62.5429 419.125 526.547
2356 0 61.6794 10.3276 637 65.3407 419.826 527.33
2357 0 67.3029 14.9771 1008 59.872 419.702 528.404
2358 0 69.9216 14.2159 994 60.5392 419.422 525.986
2359 0 69.5956 15.9637 1111 59.459 419.389 523.652
2360 0 67.7131 13.1142 888 63.3435 419.993 520.721
2361 0 74.259 14.0589 1044 60.8611 420.062 523.138
2362 0 74.7327 14.3578 1073 60.6542 419.234 523.006
2363 0 75.5341 12.0475 910 64.1033 419.878 518.318
2364 0 82.0533 14.515 1191 59.8346 420.747 523.076
2365 0 79.9114 13.1646 1052 63.0542 419.933 516.872
2366 0 86.0362 16.5396 1423 58.889 419.978 518.955
2367 0 84.6942 13.1296 1112 62.911 420.134 517.303
2368 0 90.8583 14.5281 1320 60.8826 419.649 516.748
2369 0 90.4291 11.9431 1080 64.6657 419.911 511.456
2370 0 95.0469 14.6875 1396 61.1003 419.428 512.413
2371 0 98.2389 14.3731 1412 61.1303 419.334 513.325
2372 0 99.7983 12.7156 1269 63.6233 418.98 505.742
2373 0 103.692 14.0898 1461 62.5243 419.258 503.149
2374 0 106.808 13.7256 1466 62.2326 419.763 506.889
2375 1 53.7734 11.9762 644 61.9627 419.95 530.581
2376 0 55.762 11.5491 644 63.6522 419.702 529.675
2377 0 59.7842 11.4579 685 62.4526 418.682 530.175
2378 0 59.8408 10.812 647 63.7542 419.791 528.504
2379 0 64.0024 15.3276 981 59.0459 419.479 528.074
2380 0 66.9576 14.442 967 59.5615 419.544 527.574
2381 0 66.7837 14.7641 986 59.6856 419.911 524.689
2382 0 68.6346 13.2149 907 62.2657 420.319 522.18
2383 0 69.9341 13.8416 968 60.6756 418.819 525.014
2384 0 70.6787 14.5447 1028 60.4611 419.504 525.186
2385 0 75.0142 13.0775 981 62.1132 419.965 522.109
2386 0 78.1317 14.7955 1156 60.4273 419.784 520.678
2387 0 79.9209 14.5018 1159 60.4702 419.601 522.917
2388 0 82.8298 14.8135 1227 60.3521 420.147 520.493
2389 0 84.7152 15.9594 1352 59.179 420.844 516.837
2390 0 89.1049 16.6882 1487 58.6308 421.1 514.625
2391 0 89.6634 14.4987 1300 60.7323 421.499 516.188
2392 0 90.9866 14.5406 1323 61.6213 421.271 511.463
2393 0 97.3135 16.0615 1563 59.3903 421.37 511.635
2394 0 97.881 15.2226 1490 60.6832 422.129 509.159
2395 0 96.5582 12.8938 1245 64.5639 422.409 503.188
2396 0 103.806 14.2574 1480 61.6088 422.568 505.864
2397 0 109.815 16.2 1779 59.0332 422.278 505.763
2398 0 111.876 13.5597 1517 61.9275 421.972 502.925
2399 0 116.174 16.0621 1866 59.717 422.035 501.826
2400 0 116.69 14.2085 1658 62.0796 421.413 499.683
2401 0 121.089 14.7412 1785 60.6487 421.126 504.439
2402 0 125.893 13.2494 1668 62.8076 420.917 498.589
2403 1 65.711 13.6811 899 60.0779 420.575 526.625
2404 0 66.8367 13.7499 919 61.2405 421.178 523.818
2405 0 70.1094 14.2349 998 59.7264 421.481 526.055
2406 0 70.8607 12.6022 893 62.1445 421.464 522.026
2407 0 72.0656 12.6968 915 62.4973 421.426 520.301
2408 0 73.0453 13.3479 975 61.4277 421.352 524.691
2409 0 77.0172 14.2566 1098 60.7823 421.728 521.288
2410 0 77.6785 11.2258 872 63.5436 421.055 521.115
2411 0 79.9022 11.9771 957 64.4138 421.089 513.062
2412 0 82.1161 12.251 1006 63.9086 420.868 514.803
2413 0 84.7474 14.2069 1204 61.7674 421.55 516.736
2414 0 87.7702 14.5608 1278 61.3912 421.287 516.811
2415 0 92.2581 15.0881 1392 61.0632 421.063 512.68
2416 0 93.0994 14.1784 1320 62.4621 421.321 511.04
2417 0 95.3366 14.6953 1401 61.3569 420.665 510.788
2418 0 101.235 17.642 1786 57.9776 421.04 509.097
2419 0 103.975 16.3115 1696 59.7205 421.031 508.886
2420 0 106.967 15.5655 1665 60.5213 420.807 506.119
2421 0 109.763 15.6609 1719 60.7243 421.14 502.987
2422 0 115.097 16.6121 1912 59.3834 420.977 501.294
2423 0 117.76 16.0326 1888 60.276 420.896 503.077
2424 0 119.994 14.309 1717 62.0664 420.648 500.051
2425 0 125.158 14.0861 1763 62.464 421.147 499.883
2426 1 67.65 12.5499 849 63.6396 421.474 522.536
2427 0 71.9088 14.2542 1025 61.718 420.922 522.314
2428 0 74.8871 15.7437 1179 60.0628 420.561 524.166
2429 0 75.7077 14.0805 1066 63.2927 420.779 518.472
2430 0 79.0043 14.9612 1182 61.4721 420.948 519.067
2431 0 82.4965 15.5643 1284 61.2796 422.241 519.603
2432 0 83.8631 16.8966 1417 60.8984 421.162 516.822
2433 0 88.2726 14.2513 1258 63.3728 420.994 517.82
2434 0 89.219 14.7166 1313 63.5019 421.393 513.762
2435 0 93.1541 14.943 1392 63.0395 420.994 516.378
2436 0 97.1946 16.5441 1608 61.0112 420.542 515.549
2437 0 98.0841 15.8334 1553 62.1964 420.466 514.232
2438 0 101.055 14.7049 1486 63.5814 420.732 511.847
2439 0 102.882 14.1522 1456 64.7308 421.003 506.161
2440 0 105.933 15.3587 1627 63.512 421.466 508.763
2441 0 113.001 16.9644 1917 60.7199 420.806 508.221
2442 0 117.045 16.5321 1935 61.3349 420.842 505.524
2443 1 58.114 13.3875 778 61.7224 421.111 532.513
2444 0 58.6856 13.4104 787 62.629 420.888 529.823
2445 0 58.2107 13.4683 784 64.2143 420.381 526.936
2446 0 59.7532 11.8487 708 65.7429 420.242 527.826
2447 0 62.9131 13.622 857 63.5566 421.08 529.145
2448 0 64.833 15.4859 1004 61.2141 420.869 529.316
2449 0 67.1574 16.2752 1093 61.7576 420.92 525.284
2450 1 16.0202 9.98737 160 49.45 421.25 551.344
2451 0 13.009 9.37814 122 50.4098 420.508 551.123
2452 0 15.0646 12.3468 186 48.7742 421.328 550.871
2453 0 16.0376 13.3436 214 48.3364 421.374 550.098
2454 1 79.5652 16.1377 1284 61.7165 419.932 522.308
2455 0 78.9342 14.265 1126 64.2815 421.468 519.536
2456 0 82.8369 16.623 1377 61.5512 420.332 519.864
2457 0 82.8247 15.2853 1266 63.1848 420.655 516.627
2458 1 17.1467 9.62287 165 49.3273 420.024 550.491
2459 0 13.0364 8.89816 116 50.8276 420.672 551.172
2460 0 18.093 8.06944 146 49.5068 420 550.075
2461 0 18.1302 10.8107 196 49.0204 420.536 549.791
2462 0 18.0368 11.3657 205 47.522 420.693 551.42
2463 0 17.0206 9.04784 154 50.0844 420.838 549.487
2464 0 16.3223 8.63848 141 50.1418 420.369 550.149
2465 0 16.0134 10.6786 171 48.8538 420.532 549.292
2466 0 16.031 7.73503 124 49.3306 420.863 550.613
2467 0 15.0542 10.0969 152 48.6053 420.651 551.888
2468 0 16.0356 9.79073 157 48.9682 420.484 550.07
2469 0 16.0727 11.759 189 48.0212 420.122 550.947
2470 0 15.0247 10.7822 162 48.6173 421.204 551.167
2471 0 15.0117 9.12619 137 50.4234 419.416 549.635
2472 0 18.1021 11.4903 208 48.5577 420.269 550.385
2473 0 15.0197 8.38898 126 49.254 419.714 553.548
2474 0 17.0874 10.0659 172 50.6279 421.343 551.192
2475 0 17.1855 14.5472 250 47.9 419.572 551.536
2476 0 17.0212 10.2225 174 50.0345 420.19 551.966
2477 0 17.0208 13.1604 224 49.7277 420.754 550.598
2478 0 17.0239 11.6307 198 50.2121 420.581 551.485
2479 0 18.01 12.8262 231 49.8225 420.255 550.281
2480 0 16.0524 10.6526 171 51.7193 419.404 550.398
2481 0 16.0425 8.97616 144 52.1944 418.799 550.562
2482 0 18.0687 8.19094 148 51.6419 420.284 550.493
2483 0 19.0772 15.2014 290 47.3241 420.138 549.5
2484 0 17.0305 10.628 181 51.2707 420.271 549.332
2485 0 17.0122 10.6394 181 50.7569 419.657 549.486
2486 0 19.0604 15.5296 296 48.5169 420.328 548.841
2487 0 17.2243 8.36029 144 52.2292 419.035 549.062
2488 0 18.0437 12.1926 220 50.0136 419.5 548.455
2489 0 18.2224 12.0182 219 49.6027 420.237 549.543
2490 0 20.0327 14.027 281 48.1779 420.16 549.046
2491 0 20.0532 9.57453 192 49.6354 420.141 549.615
2492 0 20.1421 15.0432 303 47.9769 419.871 547.743
2493 0 16.0217 12.9824 208 51.0529 419.63 549.096
2494 0 18.023 14.2596 257 50.4981 419.704 547.109
2495 0 15.011 8.32723 125 53.848 419.456 548.752
2496 0 18.0346 12.8087 231 51.0822 420.225 549.455
2497 0 18.0129 14.4896 261 50.5747 419.609 547.613
2498 0 17.0233 14.5683 248 51.3548 419.008 546.883
2499 0 18.0277 12.6472 228 50.9737 420.289 548.592
2500 0 18.0587 14.5636 263 50.8973 420.106 547.711
2501 0 16.0135 10.1789 163 51.7791 420.902 549.761
2502 0 18.0151 11.0463 199 52.5226 420.593 547.196
2503 0 14.0361 10.9717 154 53.448 421.104 547.442
2504 0 16.1058 8.1958 132 54.8561 420.598 547.303
2505 0 18.0404 10.0331 181 52.5414 420.099 547.53
2506 0 18.045 12.8567 232 52.0647 421.565 546.634
2507 0 19.058 12.9604 247 50.7368 421.696 546.96
2508 0 17.0692 12.3614 211 51.7772 420.891 547.123
2509 0 16.0617 15.3782 247 50.4656 421.174 547.429
2510 0 18.0234 14.3702 259 50.5174 420.614 545.34
2511 0 18.0823 10.6734 193 52.6321 420.508 545.316
2512 0 17.0496 10.7334 183 52.4098 420.076 544.131
2513 0 16.0098 14.1163 226 50.3496 420.69 545.96
2514 0 17.0144 13.9294 237 50.4262 421.287 543.975
2515 0 18.1107 11.5954 210 51.8571 420.433 545.748
2516 0 17.2823 14.8129 256 51.1289 420.191 544.66
2517 0 18.1776 13.4781 245 51.0776 420.09 545.82
2518 0 18.071 15.4944 280 50.6357 420.45 545.039
2519 0 18.0533 13.1832 238 52.3529 420.492 544.903
2520 0 19.0522 14.6965 280 50.4286 420.418 545.275
2521 0 18.0131 14.0454 253 50.8617 420 546.447
2522 0 19.2052 12.9132 248 51.6492 419.294 544.625
2523 0 17.0756 14.5822 249 50.8835 419.1 546.112
2524 0 18.0414 11.5291 208 52.8462 419.505 544.731
2525 0 17.019 12.1041 206 52.4418 420.049 545.549
2526 0 18.0842 10.5064 190 53.6474 420.163 543.837
2527 0 18.1088 13.5294 245 52.1796 420.384 544.298
2528 0 17.0475 16.19 276 50.663 420.221 543.504
2529 0 17.0716 12.6526 216 52.1759 420.116 543.63
2530 0 16.0374 9.10371 146 54.4726 420.034 545.945
2531 0 18.0183 10.7113 193 52.6891 419.389 545.922
2532 0 17.0976 10.0599 172 53.2907 419.477 544.715
2533 0 17.0391 10.3879 177 51.8305 420.215 546.898
2534 0 17.0327 14.619 249 50.1566 420.743 545.755
2535 0 18.027 11.4273 206 51.7767 420.646 544.806
2536 0 18.0447 11.7486 212 51.8302 420.953 543.83
2537 0 19.0669 14.1606 270 50.8556 421.022 541.878
2538 0 16.0222 9.36201 150 53.6933 421.267 543.373
2539 0 16.0486 11.3406 182 52.3352 421.341 542.984
2540 0 19.1162 15.0658 288 49.7326 421.792 542.715
2541 0 18.0424 13.5237 244 51.0492 420.84 542.193
2542 0 20.2618 13.3256 270 51.1704 420.033 542.626
2543 0 17.058 10.5523 180 52.3389 420.111 544.994
2544 0 17.0191 7.28594 124 54.2419 420.556 545.21
2545 0 19.2244 13.9406 268 51.0037 420.608 542.854
2546 0 19.0475 13.5451 258 50.4419 420.946 543.628
2547 0 19.0366 14.0781 268 50.6903 421.552 542.892
2548 0 20.1503 11.9601 241 51 421.606 544.39
2549 0 20.0515 13.1661 264 51.4621 421.125 543.337
2550 0 17.0106 9.28832 158 52.1835 420.823 545.646
2551 0 21.2359 12.8085 272 50.261 420.849 543.052
2552 0 20.0539 14.461 290 49.5 420.821 542.579
2553 0 21.1122 13.9256 294 49.0612 421 543.704
2554 0 16.1945 9.81815 159 51.717 420.396 544.918
2555 0 18.0653 11.1263 201 50.4627 420.323 545.94
2556 0 18.2232 10.2616 187 51.0802 421.861 544.861
2557 0 18.0175 7.15971 129 52.3643 421.357 545.426
2558 0 19.0673 12.5346 239 50.0837 420.816 543.264
2559 0 19.1673 16.3299 313 47.6038 421.035 544.585
2560 0 17.0245 13.04 222 50.3288 421.176 543.662
2561 0 19.0096 12.8356 244 50.5861 421.443 542.598
2562 0 18.0352 12.143 219 49.863 420.817 545.096
2563 0 17.0149 7.22896 123 52.3984 420.203 545.951
2564 0 17.083 13.8734 237 50.2278 419.873 544.101
2565 0 21.2867 12.637 269 49.4089 420.844 543.271
2566 0 18.0974 13.0958 237 50.097 420.911 543.633
2567 0 20.1976 14.7047 297 47.67 421.125 544.492
2568 0 17.0369 12.6784 216 50.5185 421.981 544.116
2569 0 19.5052 10.4075 203 50.67 421.177 545.68
2570 0 18.0388 10.81 195 51.1949 420.318 544.99
2571 0 17.1305 12.7842 219 50.9178 420.274 544.196
2572 0 18.2677 13.8496 253 50.0632 419.897 544.462
2573 0 18.0084 8.21837 148 53.1824 420.297 545.358
2574 0 19.0361 14.5513 277 50.4296 421.213 543.783
2575 0 19.0864 14.3034 273 50.5604 420.282 546.051
2576 0 18.2527 11.8339 216 51.9259 420.241 545.722
2577 0 19.082 12.1057 231 51.9913 420.113 544.961
2578 0 20.1276 11.3774 229 52.7118 420.092 544.55
2579 0 18.0542 12.7394 230 51.8391 419.791 545.226
2580 0 21.0672 14.4775 305 51.6262 419.708 543.777
2581 0 20.2907 10.4481 212 52.8396 419.208 544.788
2582 0 20.1369 12.6137 254 52.3386 419.512 544.681
2583 0 18.1597 11.9496 217 51.3364 420.47 546.903
2584 0 20.0604 13.7585 276 52.2319 420.123 544.123
2585 0 20.2041 13.4131 271 52.2509 419.863 544.081
2586 0 20.2421 13.2891 269 52.5762 419.706 544.06
2587 0 20.1419 14.9936 302 53.3146 418.954 544.036
2588 0 18.1399 9.81265 178 54.0786 419.522 546.545
2589 0 18.1147 14.1874 257 52.7237 419.525 544.276
2590 0 19.0608 15.7916 301 51.2492 419.854 544.429
2591 0 18.0566 9.47023 171 55.1871 419.731 545.287
2592 0 20.1231 14.5107 292 52.7329 419.668 544.394
2593 0 21.0756 14.709 310 53.1097 420.206 542.8
2594 0 21.088 12.8035 270 52.3852 420.311 544.778
2595 0 20.2905 13.5531 275 52.0582 419.822 545.818
2596 0 16.3707 12.0337 197 54.1827 420.005 544.426
2597 0 19.0568 17.3167 330 51.2424 419.555 545.212
2598 0 18.0499 11.0804 200 53.895 420.66 544.25
2599 0 19.1895 14.1223 271 51.9188 421.605 543.779
2600 0 19.3518 15.5541 301 52.608 422.196 542.322
2601 0 20.0439 12.9216 259 54.9691 420.876 543.421
2602 0 19.2865 13.4809 260 54.6269 420.335 543.642
2603 0 18.2268 8.61368 157 57.9236 420.025 544.325
2604 0 19.2598 14.538 280 54.6 420.393 543.732
2605 0 21.0551 13.061 275 55.1273 420.265 543.131
2606 0 19.1028 14.1864 271 54.9631 420.17 543.011
2607 0 20.4332 13.2138 270 55.3815 420.333 543.356
2608 0 20.2562 12.2925 249 55.3374 420.811 544.667
2609 0 19.5108 17.5287 342 52.8567 420.053 544.19
2610 0 19.4047 15.151 294 55.0374 420.486 542.803
2611 0 19.0756 12.0049 229 56.2183 420.384 544.415
2612 0 20.459 14.0281 287 55.1463 421.46 543.523
2613 0 21.293 16.2964 347 53.5418 420.412 543.694
2614 0 21.2536 13.9271 296 56.7669 420.534 542.973
2615 0 18.4071 10.5937 195 59.1692 419.662 543.656
2616 0 21.1486 14.6109 309 56.233 420.421 543.285
2617 0 21.4782 14.6195 314 55.9427 419.959 543.06
2618 0 20.2678 12.5322 254 58.3307 420.067 542.957
2619 0 23.4136 15.9309 373 54.9115 420.877 544.153
2620 0 21.448 12.4021 266 58.4549 421.162 544.068
2621 0 21.1712 14.123 299 58.5452 420.977 543.853
2622 0 19.086 12.8366 245 61.9714 420.122 542.967
2623 0 20.185 16.7946 339 59.4159 421.622 543.083
2624 0 20.3507 12.9726 264 62.9053 421.208 543.314
2625 0 19.228 12.5338 241 65.5145 420.871 541.78
2626 0 22.3534 14.6286 327 63.107 420.132 541.862
2627 0 21.4987 13.8148 297 65.4377 420.721 542.795
2628 1 34.4269 15.9759 550 116.716 421.127 541.493
2629 0 36.2021 18.8387 682 112.487 419.906 538.32
2630 0 39.0988 19.8983 778 110.937 419.829 536.887
2631 0 43.0701 19.387 835 112.048 419.869 535.873
2632 0 45.2192 20.9867 949 110.641 420.619 532.159
2633 0 49.3434 22.1914 1095 106.51 421.11 531.309
2634 0 51.1172 20.4041 1043 111.968 421.045 532.455
2635 0 52.3742 19.017 996 118.147 420.68 532.486
2636 1 129.262 11.8596 1533 100.71 420.925 510.565
2637 1 46.0469 13.2691 611 72.4092 419.229 394.534
2638 0 46.039 13.2279 609 73.2036 418.617 378.823
2639 0 48.0349 14.2813 686 72.3192 418.752 367.981
2640 0 48.0315 13.158 632 75.0411 420 363.324
2641 1 88.0018 11.2043 986 63.3256 419.72 348.746
2642 0 58.0418 14.1105 819 68.7497 419.972 351.47
2643 0 77.5462 17.8345 1383 55.2509 419.906 341.152
