time division length width area intensity CMx CMy
0 0 49.1095 11.5253 566 56.2898 1264 526.062
1 0 50.0414 12.8494 643 54.367 1262.79 527.324
2 0 50.1196 14.0464 704 53.2685 1262.59 526.166
3 0 52.0927 13.3992 698 53.3381 1263.26 526.625
4 0 53.121 12.8951 685 53.8613 1262.77 525.618
5 0 54.1256 12.2493 663 54.0151 1262.72 525.793
6 0 56.2417 14.2954 804 50.9776 1262.9 527.713
7 0 60.2106 12.3566 744 52.3468 1262.13 526.301
8 0 59.1325 12.0746 714 53.6737 1262.36 522.754
9 0 61.1058 14.0412 858 52.1037 1261.44 521.495
10 0 61.0864 13.1453 803 52.7347 1261.41 522.611
11 0 63.1782 13.1374 830 52.606 1261.7 520.414
12 0 65.3176 13.8248 903 51.4241 1261.98 522.344
13 0 67.3367 13.4696 907 51.8412 1262.35 520.189
14 0 68.2123 12.0799 824 53.7269 1262.36 518.443
15 0 68.2151 11.6543 795 54.2126 1262.18 519.093
16 0 73.1825 13.2545 970 52.635 1262.58 518.314
17 0 74.3531 11.6337 865 54.7017 1262.3 518.397
18 0 76.242 11.8176 901 54.2897 1261.68 518.491
19 0 80.141 13.2142 1059 52.6922 1262.03 516.733
20 0 80.1321 11.3188 907 54.968 1262.84 517.065
21 0 83.1446 13.1819 1096 53.5201 1262.58 512.832
22 1 46.1165 11.9914 553 53.2966 1262.15 530.93
23 0 48.1153 13.4469 647 52.0896 1260.54 531.056
24 0 47.0634 10.5177 495 55.7939 1261.39 530.606
25 0 50.0505 11.8281 592 54.7399 1261.55 528.324
26 0 52.0653 12.3691 644 54.0823 1261.68 525.944
27 0 50.084 10.4624 524 57.0191 1262.36 527.479
28 0 50.0816 9.86391 494 58.1316 1262.1 526.19
29 0 54.0675 12.7988 692 54.9827 1262.24 527.036
30 0 55.0467 13.0798 720 55.0819 1262.53 526.097
31 0 57.0786 11.5105 657 57.2024 1262.64 524.726
32 0 60.0651 12.1535 730 56.1726 1262.35 524.836
33 0 61.0851 11.9505 730 57.2096 1261.66 521.649
34 0 64.0567 12.2548 785 56.8369 1262.31 522.047
35 0 64.0704 11.2376 720 58.5833 1262.16 522.072
36 0 65.114 10.305 671 59.7109 1263.41 521.216
37 0 68.1523 13.4258 915 57.1803 1263.04 518.166
38 0 70.0946 11.456 803 59.5604 1262.28 519.792
39 0 71.0817 11.1421 792 60.5745 1262.08 517.557
40 0 73.1566 11.0995 812 60.303 1263.24 519.482
41 0 76.1227 11.2056 853 61.2485 1261.84 515.673
42 1 40.0251 9.99374 400 60.915 1263.89 535.072
43 0 41.0292 13.5513 556 57.7248 1263.31 533.941
44 0 41.0207 9.31238 382 62.712 1264.06 534.267
45 0 43.0785 9.63357 415 62.959 1263.74 532.846
46 0 44.102 10.453 461 61.0304 1263.95 533.252
47 0 42.0495 9.67907 407 64.3415 1264.37 531.486
48 0 46.0623 12.7002 585 60.882 1264.11 530.41
49 0 48.1452 12.6285 608 60.9375 1264.53 529.885
50 0 49.0529 12.3336 605 62.3008 1263.92 529.559
51 0 49.0846 10.7366 527 63.9564 1264.82 528.503
52 0 51.0705 11.2002 572 62.9895 1264.49 530.696
53 0 53.2434 11.4005 607 62.9736 1263.92 528.783
54 0 53.1813 11.1317 592 64.1824 1264.38 526.877
55 0 56.1273 11.9193 669 63.4694 1264.01 526.245
56 0 56.0365 11.9565 670 63.8343 1264.03 525.224
57 0 58.0902 11.1551 648 64.5633 1264.11 525.083
58 0 60.1196 11.8098 710 63.5972 1264.92 523.293
59 0 62.0532 10.5716 656 65.3598 1263.8 522.062
60 0 63.088 11.8882 750 64.3307 1264.71 521.595
61 0 66.0702 12.6229 834 62.6355 1263.85 522.665
62 0 66.101 11.4219 755 65.1536 1263.7 520.13
63 0 68.1235 10.481 714 65.8936 1264.09 521.034
64 1 35.0881 9.2909 326 65.0184 1264.15 535.31
65 0 38.0856 10.6077 404 64.0644 1264.43 533.646
66 0 39.0873 11.0778 433 63.4804 1264.74 533.316
67 0 42.0417 11.4172 480 62.6208 1263.83 533.612
68 0 42.0712 13.8812 584 60.7397 1263.39 532.88
69 0 43.0424 10.7568 463 64.8553 1263.69 531.503
70 0 43.0937 9.95505 429 65.9231 1263.5 532.566
71 0 46.0171 12.4519 573 62.5026 1263.81 532.007
72 0 47.0256 10.675 502 64.6972 1263.63 532.546
73 0 48.0838 12.1455 584 63.4777 1262.96 530.661
74 0 50.0987 11.9564 599 64.596 1263.64 528.2
75 0 49.0475 11.9884 588 65.5901 1264.22 526.158
76 0 50.0178 11.236 562 66.2295 1264.42 526.705
77 0 54.0563 11.007 595 65.7294 1263.9 526.346
78 0 56.1093 13.1351 737 63.483 1264.14 523.52
79 0 59.0771 13.7786 814 61.9607 1263.69 525.053
80 0 59.0514 11.5323 681 66.3921 1264.52 521.32
81 0 60.0707 10.8206 650 66.8431 1264.15 522.975
82 0 63.0974 13.3762 844 63.4147 1264.61 522.462
83 0 63.0746 10.8285 683 67.3514 1264.2 520.568
84 0 68.0852 12.5725 856 64.8072 1264.46 521.322
85 0 69.1477 11.6273 804 66.495 1264.78 520.432
86 0 71.0835 12.3095 875 65.896 1264.99 517.885
87 0 75.0621 12.6295 948 65.4462 1264.96 516.909
88 0 77.1468 13.39 1033 65.0019 1264.87 513.628
89 0 79.0497 11.537 912 67.5548 1264.99 513.088
90 0 81.1549 12.5809 1021 66.0078 1263.96 514.188
91 0 85.0615 12.5321 1066 66.3021 1264.6 513.801
92 1 45.0414 11.3007 509 63.2593 1265 532.468
93 0 44.0276 10.5161 463 66.1534 1264.87 531.557
94 0 47.1105 11.6535 549 64.7414 1264.66 529.603
95 0 47.0646 13.3646 629 63.1749 1264.81 529.792
96 0 47.118 12.4793 588 64.9167 1264.08 527.742
97 0 50.0882 12.7775 640 64.3094 1264.86 526.242
98 0 53.0908 12.2055 648 64.7917 1264.53 527.029
99 0 53.0736 11.7007 621 65.7359 1264.83 527.828
100 0 52.1665 11.9617 624 65.7228 1264.88 527.532
101 0 54.0371 11.5661 625 67.0832 1264.66 524.547
102 0 57.0784 12.7369 727 64.6878 1264.67 524.832
103 0 57.0354 11.9925 684 66.0044 1264.62 523.557
104 0 59.0169 11.9457 705 65.573 1265.38 524.038
105 0 61.1183 12.6803 775 65.3006 1264.87 522.809
106 0 62.0424 12.0401 747 66.2128 1264.97 521.788
107 0 65.0841 12.0152 782 65.8721 1265.62 520.185
108 0 66.0855 12.8167 847 65.0626 1264.92 520.416
109 0 67.027 10.9956 737 66.8684 1265.2 519.825
110 0 69.0234 11.8076 815 65.8564 1263.93 518.908
111 0 69.1289 12.455 861 66.6214 1262.86 514.267
112 0 74.0417 11.7096 867 67.2007 1263.96 515.047
113 0 77.0532 14.211 1095 63.1014 1264.26 513.566
114 0 77.0891 11.8564 914 66.5624 1263.96 513.296
115 1 40.0451 11.9116 477 63.1447 1264.55 531.04
116 0 40.014 11.421 457 64.4464 1264 530.567
117 0 39.0111 11.1507 435 65.1103 1265.4 530.533
118 0 42.0371 11.8943 500 64.228 1265.47 528.862
119 0 43.0446 10.3381 445 65.1371 1265.64 529.717
120 0 47.0526 12.1991 574 62.2422 1265.25 530.047
121 0 48.0548 12.3401 593 62.2142 1264.25 529.027
122 0 46.0315 11.1228 512 64.9766 1265.19 528.221
123 0 48.0573 11.4655 551 65.6352 1264.87 526.085
124 0 49.0762 10.4531 513 66.0546 1265.71 525.041
125 0 51.0418 11.2065 572 65.1154 1264.4 524.879
126 0 54.1178 12.2326 662 63.7749 1264.15 524.054
127 0 55.0219 11.5045 633 64.6193 1264.49 523.316
128 0 55.0313 12.4656 686 62.9286 1264.46 524.443
129 0 56.0462 11.9187 668 64.8293 1265.26 521.91
130 0 58.1024 11.8584 689 65.1045 1265 520.274
131 0 61.06 13.1182 801 63.0512 1263.75 521.653
132 0 63.0756 11.399 719 65.5508 1264.4 520.213
133 0 66.0734 11.6991 773 65.1022 1265.05 518.398
134 0 66.0616 12.4883 825 64.417 1264.06 518.016
135 0 68.0422 11.243 765 66.5373 1264.13 517.265
136 0 70.0728 11.6736 818 65.7971 1264.61 516.963
137 0 73.088 11.5204 842 65.7126 1265.03 515.283
138 0 73.0652 11.3597 830 66.4819 1264.61 514.647
139 1 39.005 11.7421 458 62.917 1264.75 531.683
140 0 40.0336 10.8659 435 65.0874 1265.64 530.713
141 0 42.0189 11.1141 467 63.6681 1265.15 532.006
142 0 43.0254 12.5042 538 63.3494 1264.8 529.455
143 0 42.1253 10.7774 454 65.5066 1264.06 530.101
144 0 47.0368 10.9064 513 64.6608 1264.56 529.575
145 0 47.015 12.9108 607 62.6573 1265.41 528.631
146 0 47.0601 11.7297 552 65.2609 1265.07 526.623
147 0 50.1117 11.7937 591 65.0152 1264.87 526.792
148 0 53.0604 12.514 664 63.2003 1264.55 526.185
149 0 53.0898 13.2229 702 63.5385 1264.42 522.313
150 0 54.0493 11.804 638 65.0094 1264.01 524.284
151 0 55.0335 12.3561 680 64.7544 1265.48 523.321
152 0 60.0461 12.0907 726 63.9366 1264.62 522.543
153 0 59.0311 11.5532 682 66.1378 1264.76 519.919
154 0 62.0846 11.8226 734 64.8665 1263.97 522.455
155 0 63.0462 10.9602 691 66.7771 1263.85 518.731
156 0 64.0505 12.1311 777 66.0026 1265.14 519.445
157 0 67.2052 14.0614 945 63.0582 1264.69 517.74
158 0 69.1876 12.0975 837 66.0394 1265.01 514.137
159 0 70.1852 11.8259 830 65.9964 1265.19 518.072
160 0 74.1742 11.7965 875 66.5509 1265.06 514.642
161 0 76.158 12.9336 985 66.2203 1265.45 511.763
162 0 79.1337 12.2325 968 67.3481 1264.56 510.895
163 1 40.0156 10.5959 424 65.408 1264.58 531.224
164 0 42.0304 10.3734 436 65.0321 1265.21 531.236
165 0 45.096 12.4623 562 63.2153 1265.36 528.614
166 0 45.021 13.1494 592 62.7956 1265.96 527.312
167 0 47.0749 13.2767 625 61.9216 1266.29 527.733
168 0 47.125 12.3077 580 63.281 1266.3 527.15
169 0 48.0486 11.9879 576 64.5938 1266.29 521.252
170 0 52.1775 12.6875 662 62.0816 1266.31 524.891
171 0 53.1033 12.1838 647 62.9814 1265.83 521.955
172 0 53.109 11.2222 596 63.7752 1265.62 523.782
173 0 55.0387 12.1187 667 62.5997 1265.15 522.685
174 0 57.135 13.1968 754 61.183 1265.46 521.329
175 0 60.0974 11.9972 721 61.9639 1264.72 520.277
176 0 60.1807 12.2298 736 61.8791 1263.97 518.95
177 0 61.0959 11.9975 733 62.3888 1264.21 517.225
178 0 63.0792 11.874 749 61.9733 1264.39 516.653
179 0 66.1492 11.6404 770 62.0455 1264.91 515.752
180 0 68.1251 12.1394 827 61.0097 1264.24 516.155
181 0 69.0562 11.4255 789 62.1432 1263.18 514.921
182 0 73.1093 13.2404 968 58.8202 1263.4 516.175
183 0 74.2178 11.574 859 61.2969 1262.65 514.645
184 0 76.3982 11.0474 844 62.2464 1262.39 512.126
185 0 78.1309 11.084 866 62.3822 1262.15 507.528
186 0 83.2004 13.6778 1138 58.3453 1262.32 509.96
187 0 85.1572 12.5415 1068 60.1367 1262.11 507.712
188 0 85.087 10.8477 923 62.9242 1262.1 505.564
189 0 90.219 11.2726 1017 62.2291 1262.4 505.975
190 0 92.4378 11.1102 1027 62.3914 1261.6 504.147
191 1 47.0415 10.1825 479 62.238 1261.09 525.754
192 0 49.0915 10.2258 502 61.5797 1261.28 523.833
193 0 55.182 13.1746 727 56.9752 1260.9 525.371
194 0 55.0811 12.1639 670 58.7463 1261.14 523.213
195 0 55.1849 10.4195 575 61.3461 1260.68 523.306
196 0 59.3762 12.4292 738 57.5406 1261.45 525.751
197 0 58.1326 10.2524 596 61.4128 1261.91 524.725
198 0 61.18 11.3272 693 59.9841 1261.58 523.661
199 0 63.2477 10.9095 690 60.8783 1261.12 521.471
200 0 64.3939 13.8678 893 57.5823 1260.88 518.483
201 0 67.082 12.0152 806 59.8089 1259.86 519.227
202 0 67.2279 11.7808 792 60.6717 1259.53 517.705
203 0 70.183 11.869 833 60.1176 1260.35 520.198
204 0 71.1961 10.6747 760 61.8053 1260.21 520.491
205 0 73.3446 10.8665 797 61.7077 1259.62 518.093
206 0 77.1602 14.593 1126 57.0941 1260.87 517.309
207 0 80.2873 13.4766 1082 58.7209 1261.04 514.502
208 0 83.2476 12.3247 1026 59.7778 1260.84 512.735
209 0 85.4761 12.5649 1074 59.9441 1260.87 511.696
210 1 45.1829 10.4907 474 61.5886 1259.58 530.698
211 0 44.1884 10.6589 471 62.1529 1260.11 528.983
212 0 47.1487 11.7925 556 59.9964 1260.29 531.617
213 0 50.0553 11.9468 598 59.4632 1259.56 530.311
214 0 51.1472 10.6555 545 61.1101 1258.97 529.439
215 0 52.0912 9.71373 506 62.5277 1259.26 528.955
216 0 53.1542 10.7423 571 61.9422 1259.02 526.608
217 0 57.2927 11.8689 680 59.9588 1257.98 524.998
218 0 58.2969 11.1327 649 60.6841 1258.07 526.422
219 0 58.1276 11.578 673 60.4814 1258.64 523.926
220 0 58.0883 11.6719 678 60.7566 1257.99 524.909
221 0 65.2261 12.817 836 58.1926 1258.58 523.569
222 0 64.1754 11.6711 749 60.6836 1258.64 522.099
223 0 66.1983 12.5683 832 59.4423 1259.19 521.23
224 0 66.262 13.009 862 58.8121 1258.74 521.552
225 0 68.2556 11.369 776 60.8802 1258.65 519.075
226 0 71.1108 12.9657 922 58.9436 1258.85 517.302
227 0 71.1968 12.0371 857 59.8051 1258.71 518.104
228 0 75.1668 13.4235 1009 58.5758 1258.92 513.077
229 0 77.11 11.2826 870 60.7058 1258.39 512.06
230 0 78.1211 12.1222 947 60.2112 1258.12 510.401
231 0 81.1921 12.7106 1032 59.4128 1257.04 509.63
232 0 85.1601 13.5744 1156 58.4524 1258.96 507.824
233 0 91.2212 13.4399 1226 57.7137 1258.78 510.038
234 1 46.1207 11.2965 521 59.6142 1258.02 528.15
235 0 45.0533 10.5209 474 60.6097 1258.36 528.985
236 0 48.162 11.9181 574 58.669 1258.99 528.554
237 0 49.0426 12.8256 629 58.4181 1258.28 525.536
238 0 50.0158 12.9359 647 58.1731 1258.32 525.873
239 0 52.0751 12.3476 643 59.0296 1258.81 524.467
240 0 56.0817 11.0018 617 59.7358 1258.31 525.486
241 0 55.1115 13.0826 721 58.9861 1258.01 521.361
242 0 58.026 12.7012 737 58.8928 1259.3 521.347
243 0 60.0609 13.1866 792 57.9242 1258.72 521.682
244 0 61.03 13.3377 814 58.8464 1257.79 519.158
245 0 61.03 13.2722 810 140.132 1256.79 519.231
246 0 65.0776 12.5235 815 60.3018 1258.62 517.188
247 0 66.1334 12.0363 796 61.6168 1258.89 517.479
248 0 69.0885 11.8254 817 61.6671 1258.72 516.121
249 0 74.1075 12.3334 914 60.5755 1259.38 516.976
250 0 73.0728 12.1112 885 61.3401 1258.29 518.856
251 0 78.1126 13.2373 1034 60.0513 1258.81 516.79
252 0 79.1014 12.6546 1001 61.4895 1259.32 513.235
253 1 39.089 9.46557 370 61.9243 1258.16 534.741
254 0 42.0207 10.828 455 60.8506 1259.8 533.712
255 0 45.0457 12.4318 560 59.7375 1259.29 532.148
256 0 44.118 10.6306 469 62.0256 1258.7 532.938
257 0 47.0504 11.5833 545 60.0257 1259.64 533.29
258 0 48.0209 11.7032 562 60.7687 1259.43 530.338
259 0 47.0269 10.5471 496 63.1774 1258.73 529.466
260 0 51.0872 10.8834 556 61.8561 1259.34 531.094
261 0 52.0644 10.8327 564 62.8369 1259.45 528.855
262 0 53.1717 12.9768 690 60.4449 1258.55 527.335
263 0 54.095 11.184 605 62.3636 1258.62 528.896
264 0 58.4071 11.8479 692 61.1416 1259.42 528.152
265 0 58.133 11.9037 692 61.789 1258.09 525.621
266 0 62.0286 12.7361 790 60.1089 1257.81 525.044
267 0 61.0381 10.4033 635 63.4709 1257.91 525.762
268 0 64.1069 11.668 748 61.9318 1258.26 524.808
269 0 66.2274 11.0528 732 62.6161 1258.81 523.996
270 0 70.0618 13.0884 917 59.6205 1258.04 523.702
271 0 71.077 11.9026 846 61.3865 1259 522.152
272 0 73.0583 11.4977 840 61.969 1258.02 520.68
273 0 76.1418 12.7525 971 61.2152 1256.91 517.267
274 0 77.1152 12.021 927 61.9299 1257.62 517.9
275 1 41.0811 11.5381 474 57.6709 1257.58 537.333
276 0 40.0381 10.2153 409 59.5037 1258.1 537.196
277 0 41.0582 11.7638 483 57.9255 1257.71 535.565
278 0 43.0627 10.9375 471 59.2675 1257.67 535.516
279 0 44.0775 10.7084 472 59.8093 1258.92 535.57
280 0 47.0872 11.4893 541 58.9519 1258.01 534.259
281 0 47.0688 10.1129 476 60.1681 1258.34 534.861
282 0 49.0528 11.3551 557 59.0072 1258.48 533.305
283 0 50.0333 10.3331 517 60.9323 1258.38 531.282
284 0 54.0178 11.4777 620 58.6323 1258.09 530.2
285 0 55.0416 11.6094 639 58.4507 1257.74 529.336
286 0 56.0764 12.3225 691 58.275 1257.4 528.003
287 0 57.0498 11.3234 646 58.9799 1257.65 527.251
288 0 60.12 11.5602 695 58.8 1256.99 526.752
289 0 62.0177 12.4642 773 56.7503 1257.8 525.027
290 0 62.0595 11.2956 701 58.3481 1257.45 526.195
291 0 64.1324 9.76105 626 59.9137 1257.53 523.502
292 0 66.149 9.76584 646 59.7539 1257.5 523.796
293 0 68.0813 10.6637 726 58.7286 1257.53 520.11
294 0 70.3243 10.1672 715 59.2266 1257.6 521.49
295 0 70.2124 9.59945 674 60.1573 1257.38 517.464
296 0 73.2028 9.48051 694 60.1426 1256.9 518.748
297 1 39.2007 7.72946 303 59.0957 1256.7 535.013
298 0 37.0631 6.90715 256 60.3906 1256.81 536.086
299 0 41.0772 10.1029 415 57.2096 1256.49 534.99
300 0 43.0822 10.1898 439 56.492 1256.97 535.779
301 0 45.1926 12.1259 548 54.7464 1256.73 531.861
302 0 44.047 12.1234 534 56.5375 1255.28 531.966
303 0 46.0313 10.7101 493 58.5619 1256.35 531.787
304 0 46.0178 11.3217 521 58.4549 1256.78 531.841
305 0 48.0386 10.6165 510 59.6608 1256.71 529.502
306 0 49.0599 11.007 540 59.4556 1256.72 529.844
307 0 51.0302 10.6408 543 59.5396 1256.8 526.635
308 0 53.022 11.052 586 58.4539 1257.56 526.674
309 0 55.045 12.0992 666 56.8514 1256.85 527.408
310 0 53.0549 9.98964 530 60.5924 1257.47 525.166
311 0 57.1077 10.9267 624 59.0657 1256.99 524.7
312 0 59.058 11.4802 678 58.0502 1256.73 523.173
313 0 60.0613 10.8056 649 58.869 1256.86 521.518
314 0 62.1382 11.5549 718 56.805 1257.22 523.467
315 0 63.0981 11.3791 718 57.3607 1257.3 521.014
316 0 67.1481 11.2289 754 57.3607 1256.88 520.715
317 0 68.2174 10.789 736 58.2717 1257.41 518.697
318 0 69.1648 10.728 742 58.7116 1257.16 516.768
319 0 72.0713 11.5025 829 57.918 1257.27 516
320 0 74.0747 12.3389 914 56.6521 1256.46 517.388
321 0 76.1327 10.6919 814 58.527 1256.66 516.87
322 0 80.2103 11.6444 934 57.621 1257.04 513.279
323 0 81.1438 11.2147 910 58.3407 1256.85 512.557
324 1 40.1481 8.49355 341 60.1114 1256.8 529.311
325 0 42.0617 11.3167 476 56.9895 1257.01 529.943
326 0 44.0566 9.94176 438 58.331 1257.91 530.025
327 0 46.0948 12.1923 562 56.0943 1257.3 530.151
328 0 47.0891 10.5757 498 58.488 1257.73 527.946
329 0 48.1599 11.2334 541 57.4104 1257.04 528.695
330 0 49.0855 11.042 542 57.7694 1257.32 528.301
331 0 50.076 12.0617 604 57.3824 1256.89 524.919
332 0 51.1165 11.1706 571 58.627 1256.64 526.62
333 0 53.0498 12.2715 651 56.7527 1257.47 528.166
334 0 55.0829 12.6355 696 56.2687 1257.5 523.539
335 0 57.0679 12.0033 685 56.6613 1256.64 522.704
336 0 59.0873 10.9499 647 57.6862 1256.88 523.974
337 0 61.1028 11.3743 695 56.7597 1257 521.622
338 0 62.0472 11.6685 724 56.489 1256.64 523.291
339 0 62.038 10.8482 673 58 1257.17 519.315
340 0 64.111 12.8839 826 55.2458 1257.95 520.832
341 0 65.1233 10.4264 679 58.2622 1257.39 519.143
342 0 67.1226 9.83276 660 58.9591 1257.57 516.688
343 0 68.1888 11.0575 754 57.7427 1257.72 516.898
344 0 70.159 12.0013 842 56.7945 1257.47 514.109
345 0 75.0842 11.8134 887 56.5524 1257.06 512.775
346 0 75.2048 11.9939 902 56.6907 1256.92 512.981
347 1 39.0844 10.3878 406 56.1158 1256.81 532.079
348 0 41.0905 11.2435 462 55.1212 1257.48 530.937
349 0 39.088 9.77281 382 57.034 1256.6 531.141
350 0 42.0303 10.6828 449 55.3541 1257.24 530.791
351 0 43.0271 9.85426 424 56.6179 1257.88 530.493
352 0 42.0666 10.103 425 56.8729 1257.08 528.087
353 0 47.0349 12.3951 583 54.0875 1257.58 527.556
354 0 44.0586 11.0535 487 56.3634 1257.95 528.686
355 0 47.0185 12.3994 583 54.8542 1258.18 526.479
356 0 48.0545 9.46841 455 57.6901 1258.14 525.666
357 0 51.1869 11.4873 588 55.3282 1257.79 527.238
358 0 51.0445 11.0884 566 56.6343 1258.04 523.339
359 0 52.1058 12.1292 632 55.2658 1258.33 522.905
360 0 54.1437 11.9497 647 55.4142 1258.17 523.643
361 0 56.0866 10.3768 582 57.0378 1257.9 523.57
362 0 57.094 12.0678 689 56.1205 1257.81 520.492
363 0 60.0536 12.2391 735 55.4925 1258.77 520.152
364 0 61.0576 11.7266 716 56.4134 1258.44 519.892
365 0 62.0477 12.7966 794 55.2091 1258.16 520.378
366 0 62.1083 10.6266 660 58.5939 1259.04 516.994
367 0 67.0687 13.4638 903 55.2159 1258.37 516.659
368 0 69.1189 12.5147 865 56.1584 1258.86 516.363
369 0 69.1094 12.8637 889 55.8808 1258.69 517.918
370 0 73.0504 14.0862 1029 54.967 1258.15 514.567
371 0 76.1245 13.005 990 55.8657 1257.84 514.641
372 0 76.0832 13.0384 992 56.7702 1257.97 513.659
373 0 80.165 12.4743 1000 57.168 1257.61 512.979
374 0 79.0566 11.321 895 59.0503 1257.74 512.201
375 0 84.1621 12.666 1066 57.4568 1258.39 509.719
376 0 85.1544 11.7904 1004 58.4313 1257.99 510.1
377 0 88.151 12.1609 1072 58.3134 1258.14 508.66
378 0 91.103 13.0621 1190 57.3983 1257.65 506.229
379 0 94.0836 12.4995 1176 58.6701 1257.71 503.431
380 0 97.1582 12.0525 1171 58.8403 1257.93 503.458
381 0 100.079 13.1396 1315 57.8038 1257.92 502.553
382 0 101.192 12.916 1307 59.0084 1257.19 499.699
383 0 104.241 12.097 1261 59.7272 1257.42 495.534
384 1 56.0477 10.8657 609 58.4581 1258.46 525.898
385 0 56.0441 10.581 593 59.1939 1257.46 526.008
386 0 58.0343 11.1658 648 58.3673 1258.63 523.708
387 0 61.0713 13.5907 830 56.3241 1258.19 522.754
388 0 63.0479 12.4508 785 57.3172 1258.12 523.721
389 0 61.096 11.8993 727 59.216 1257.65 519.436
390 0 65.1495 11.7115 763 58.8086 1258.01 520.482
391 0 67.0488 15.2277 1021 55.048 1258.92 519.091
392 0 68.1589 11.796 804 59.3085 1258.07 518.129
393 0 70.0427 11.9498 837 58.9976 1257.96 518.711
394 0 72.1031 13.5778 979 57.4872 1257.59 515.257
395 0 72.026 10.3018 742 61.0863 1258.21 516.834
396 0 77.0972 13.671 1054 57.1973 1258.31 514.18
397 0 76.0537 10.703 814 60.312 1258.65 517.246
398 0 82.1587 12.1716 1000 59.27 1258.18 511.114
399 0 83.0956 12.5638 1044 59.0479 1258.54 513.644
400 0 86.16 14.6123 1259 56.5782 1258.27 510.913
401 0 88.1007 13.0986 1154 58.61 1257.97 510.584
402 0 92.1398 11.6671 1075 60.1637 1258.8 508.813
403 0 95.0947 14.7537 1403 56.7641 1258.99 505.748
404 0 97.1436 13.0734 1270 59.0559 1258.96 505.063
405 0 100.184 13.555 1358 59.0994 1259.2 500.921
406 1 42.0617 10.7461 452 59.8628 1258.52 531.909
407 0 45.1102 11.4608 517 58.4913 1258.85 532.787
408 0 45.0899 13.4398 606 56.9934 1258.54 532.038
409 0 43.0611 11.565 498 60.755 1258.1 528.737
410 0 48.108 11.2247 540 60.363 1257.63 528.724
411 0 44.0734 10.6867 471 62.8641 1257.92 528.754
412 0 49.0312 11.8904 583 60.307 1257.98 529.449
413 0 51.049 11.9101 608 60.2566 1258.04 529.015
414 0 54.0795 13.0549 706 59.1218 1258.1 527.33
415 0 54.0661 11.2455 608 61.6957 1257.84 526.294
416 0 54.077 12.1678 658 61.535 1258.51 525.073
417 0 57.0747 12.58 718 60.9109 1259.12 523.955
418 0 57.0565 11.1644 637 62.6954 1258.73 522.841
419 0 60.1056 13.5927 817 59.2864 1258.47 522.862
420 0 62.0578 13.8419 859 59.177 1257.86 522.08
421 0 63.1248 13.1486 830 59.9988 1258.11 522.44
422 0 64.2205 11.6318 747 62.427 1258.09 519.383
423 0 67.1325 12.1551 816 61.6985 1257.68 519.423
424 0 70.1328 11.8204 829 61.3329 1257.45 520.417
425 0 74.1771 13.5621 1006 58.9712 1258.3 520.301
426 0 76.0978 12.865 979 60.1307 1258.05 518.349
427 0 78.1541 12.808 1001 60.6344 1258.13 517.638
428 0 81.1366 13.9025 1128 59.2305 1257.9 516.102
429 0 82.0861 12.2432 1005 61.7493 1256.92 516.108
430 1 42.0355 11.3238 476 59.9916 1258.49 534.334
431 0 45.0504 10.2552 462 61.2186 1258.39 533.338
432 0 45.1248 11.7009 528 60.3542 1258.59 533.436
433 0 47.0344 11.5447 543 60.0902 1258.62 532.49
434 0 49.0294 13.237 649 58.4407 1257.94 530.171
435 0 52.0166 11.6694 607 59.2274 1258.38 531.224
436 0 51.0757 12.0605 616 60.1964 1258.21 529.674
437 0 54.1943 12.3629 670 59.1896 1258.76 529.249
438 0 54.0557 12.8386 694 59.2205 1258.74 528.327
439 0 54.0307 11.475 620 60.9306 1259.15 527.431
440 0 57.055 12.6895 724 59.5207 1257.83 526.642
441 0 57.1102 11.5216 658 61.1246 1258.26 525.998
442 0 59.1363 12.5304 741 59.3495 1258.5 526.356
443 0 60.0398 11.559 694 61.0144 1258.91 523.419
444 0 62.1008 11.9 739 60.1326 1258.26 524.003
445 0 64.172 11.2822 724 60.6671 1258.08 523.771
446 0 67.0501 12.9157 866 59.0104 1258.05 521.673
447 0 69.0798 12.9271 893 58.9944 1257.89 520.563
448 0 70.115 12.3654 867 59.5052 1257.52 520.864
449 0 74.1059 12.1718 902 59.765 1257.71 517.443
450 0 74.0482 12.5864 932 59.9678 1258.71 516.046
451 0 79.0884 11.7337 928 60.1444 1258.2 515.913
452 0 80.0475 12.4551 997 59.6921 1258.37 513.841
453 1 42.0211 10.6851 449 58.9955 1258.81 534.109
454 0 44.0857 12.0674 532 58.5207 1258.08 531.729
455 0 45.1215 12.4109 560 57.5179 1258.96 533.086
456 0 42.0127 11.1395 468 60.8611 1258.62 532.344
457 0 43.0541 11.7294 505 60.105 1258.49 533.614
458 0 46.0456 13.1826 607 58.5848 1258.64 531.367
459 0 45.0378 10.8131 487 61.5565 1258.81 530.109
460 0 45.0681 10.1402 457 63.0372 1257.62 527.453
461 0 48.189 11.4341 551 60.6171 1257.81 531.158
462 0 49.0655 11.291 554 61.7022 1258.12 528.946
463 0 52.0146 11.7467 611 60.6367 1257.18 529.463
464 0 52.0162 11.6118 604 61.1805 1257.02 528.238
465 0 53.0909 9.86986 524 62.8072 1257.05 527.061
466 0 55.0837 12.127 668 60.9177 1258.17 526.103
467 0 56.1452 12.3074 691 60.3647 1258.49 526.64
468 0 57.0404 11.6759 666 61.7883 1258.41 524.107
469 0 60.0236 11.7787 707 61.7864 1258.12 522.239
470 0 60.1471 9.46014 569 64.297 1257.38 523.107
471 0 63.1007 12.488 788 61.2487 1258.35 521.374
472 0 65.1496 12.525 816 61.4216 1257.72 522.009
473 0 67.0578 10.573 709 63.5628 1257.37 520.544
474 0 56.1364 3.8834 218 70.0459 1257.1 505.555
475 1 1 3 3 62.6667 1258.33 479.333
476 1 36.0528 6.65689 240 69.8375 1256.73 498.667
477 1 77.0625 14.0665 1084 60.8672 1257.49 518.928
478 0 78.0726 13.0904 1022 61.181 1257.63 521.709
479 1 40.051 13.2831 532 60.7932 1257.67 536.008
480 0 39.1901 11.1253 436 63.4816 1257.7 537.083
481 0 42.011 14.0678 591 61.3689 1257 535.369
482 0 46.0619 12.9608 597 61.5544 1256.75 534.752
483 0 45.069 12.847 579 62.3713 1257.73 533.772
484 0 44.0641 11.9372 526 64.1977 1257.48 532.662
485 0 47.139 12.2404 577 63.3934 1257.39 532.752
486 0 49.087 12.4677 612 62.6797 1258.29 531.768
487 0 51.0622 14.923 762 60.0892 1258.03 531.854
488 0 53.0775 12.2274 649 63.2265 1257.77 532.035
489 0 54.0729 13.1859 713 62.9537 1257.95 530.008
490 0 56.0422 12.8475 720 63.5403 1257.69 530.008
491 0 57.0672 14.9298 852 61.9472 1257.41 528.34
492 0 60.0862 12.8149 770 64.1312 1258.02 526.021
493 0 60.0388 13.941 837 63.6177 1256.68 527.587
494 0 62.0767 12.839 797 64.8231 1257.62 526.21
495 0 63.0642 13.3356 841 64.7277 1258.13 525.963
496 0 65.107 12.4871 813 66.69 1256.08 525.134
497 0 70.069 14.7141 1031 63.8739 1256.76 523.436
498 0 72.0965 13.6345 983 65.1892 1257.29 522.159
499 0 73.0724 14.1093 1031 66.1426 1257.48 519.322
500 0 76.0689 13.9742 1063 66.2041 1257.55 519.18
501 1 35.0171 10.8233 379 67.0976 1257.43 540.625
502 0 36.009 11.6082 418 68.8636 1257.89 537.694
503 0 36.0421 11.8472 427 69.8384 1257.01 536.843
504 0 39.1385 12.8518 503 67.4632 1257.49 537.175
505 0 39.0454 12.7031 496 68.8548 1257.62 536.53
506 0 39.0569 12.1617 475 70.04 1258.42 535.543
507 0 41.0227 12.2128 501 69.8383 1257.88 533.8
508 0 42.1321 12.7219 536 69.181 1257.64 532.424
509 0 44.0534 11.2818 497 70.6781 1257.25 534.32
510 0 45.0148 12.3737 557 69.7433 1257 531.702
511 0 46.0306 12.4265 572 69.1504 1256.79 533.318
512 0 45.0484 11.9871 540 70.2389 1257.31 532.844
513 0 47.0662 11.6219 547 70.7185 1256.55 529.013
514 0 46.0216 10.3864 478 73 1257.46 529.569
515 0 45.0159 9.75212 439 73.5399 1257.37 524.606
516 0 45.0316 8.83825 398 74.8518 1257.18 526.593
517 0 47.039 9.43897 444 74.1712 1257.34 524.556
518 0 51.0523 10.2248 522 72.9004 1258.05 521.115
519 0 49.0309 8.74959 429 75.1585 1257.25 523.403
520 0 53.0409 9.10618 483 74.5714 1256.89 519.586
521 0 50.0306 7.0357 352 75.429 1257.59 514.389
522 0 52.0792 5.93327 309 75.4175 1257.8 507.945
523 1 33.063 9.43653 312 73.1282 1257.35 503.433
524 0 35.0852 9.00665 316 72.7753 1257.65 501.873
525 0 33.0058 9.3014 307 73.658 1257.3 499.469
526 0 37.0265 9.39867 348 73.2126 1257.16 496.437
527 0 37.0247 11.884 440 69.8591 1256.98 496.17
528 0 38.022 8.44247 321 74.3988 1256.76 492.679
529 0 45.0856 12.7757 576 66.2569 1257.69 535.986
530 0 47.0258 13.7797 648 64.9012 1257.78 535.694
531 0 46.0183 12.5168 576 67.1059 1258.16 535.351
532 0 50.0164 13.3756 669 65.3184 1257.2 534.006
533 0 52.0178 14.3028 744 64.539 1257.36 532.864
534 0 52.1038 13.6266 710 65.5958 1257.56 532.003
535 0 51.0833 12.8418 656 67.497 1257.29 530.111
536 0 58.0736 15.1015 877 62.577 1257.7 529.708
537 0 57.2117 15.1368 866 63.4688 1257.82 528.01
538 0 58.1267 12.5416 729 66.1358 1257.11 529.647
539 0 59.114 12.9411 765 66.0183 1257.02 529.158
540 0 63.0719 13.3498 842 64.8456 1257.09 527.956
541 0 64.0925 13.4181 860 64.9628 1257.23 528.896
542 0 65.0845 14.2738 929 64.9085 1256.63 525.111
543 0 69.074 13.0729 903 65.8904 1257.8 526.09
544 0 71.0808 14.4624 1028 64.4465 1257.85 524.9
545 0 72.0717 14.5411 1048 65.0048 1258.09 522.169
546 0 74.0682 12.556 930 68.129 1257.23 521.641
547 0 77.0733 13.4936 1040 66.9413 1256.86 522.102
548 1 41.0727 12.6848 521 66.5547 1257.16 536.952
549 0 41.151 12.199 502 67.51 1256.88 536.894
550 0 40.0175 13.1193 525 67.5752 1256.95 537.034
551 0 43.0494 14.3091 616 65.7078 1257.09 536.417
552 0 44.0273 13.2645 584 68.274 1256.49 535.194
553 0 47.0832 14.1239 665 66.4647 1257.5 534.026
554 0 46.069 12.2642 565 69.1115 1258.04 534.152
555 0 48.0526 14.0887 677 67.4357 1258.19 531.66
556 0 48.0857 13.06 628 69.3646 1258.19 532.369
557 0 51.1077 14.2836 730 66.5384 1257.77 532.474
558 0 52.0723 13.174 686 68.1006 1257.42 532.459
559 0 56.0776 15.3181 859 65.4261 1257.28 531.07
560 0 57.3065 13.3493 765 67.3935 1257.02 531.761
561 0 60.0675 12.9854 780 67.6 1258.09 530.654
562 0 60.1596 14.7774 889 66.7075 1258.31 527.674
563 0 63.1002 13.9778 882 67.3946 1257.94 528.439
564 0 64.0324 12.9466 829 68.4234 1257.22 530.435
565 0 66.0504 12.6267 834 69.934 1257.64 524.492
566 0 69.1375 13.1477 909 68.692 1257.56 522.707
567 0 73.073 13.7123 1002 67.6816 1257.59 523.061
568 0 73.0782 13.3008 972 69.3179 1257.36 521.225
569 0 75.0367 13.8066 1036 68.4353 1257.34 521.661
570 0 79.0334 13.412 1060 68.2481 1257.28 521.397
571 1 41.0654 13.1254 539 68.5102 1256.91 536.204
572 0 43.0931 13.6449 588 67.6803 1257.95 535.826
573 0 44.0261 12.9923 572 68.8776 1257.64 535.484
574 0 47.0155 15.2078 715 65.8224 1257.52 533.733
575 0 47.0177 13.9522 656 66.9954 1258.24 535.598
576 0 47.0286 12.7794 601 69.8436 1258.15 532.73
577 0 49.1457 12.819 630 68.1746 1258.55 534.402
578 0 52.0969 14.6266 762 66.2165 1258.96 532.311
579 0 51.0522 13.1042 669 68.8505 1259.06 531.828
580 0 53.2336 13.3374 710 68.869 1260.4 529.163
581 0 55.1744 14.6445 808 66.9579 1260.01 530.318
582 0 56.1821 12.7977 719 69.3547 1260.47 529.11
583 0 59.2119 13.9837 828 67.2319 1260.32 529.746
584 0 61.0374 14.4665 883 67.7599 1259.2 525.156
585 0 64.0548 15.3462 983 66.6531 1259.18 524.637
586 0 64.2775 13.4728 866 69.6155 1259.22 524.622
587 0 69.0712 15.1728 1048 67.3569 1259.62 522.76
588 0 71.0357 15.1192 1074 67.3128 1258.96 521.991
589 0 73.0436 14.0738 1028 68.8395 1258.11 520.62
590 0 75.1 13.3555 1003 70.2353 1258.01 519.648
591 0 79.1625 15.6766 1241 66.4762 1258.44 519.243
592 0 79.0936 15.0328 1189 68.5307 1258 515.908
593 0 83.0944 15.0311 1249 67.8487 1259.28 516.387
594 0 83.2042 12.7878 1064 71.4549 1258.34 516.242
595 1 43.1115 12.8968 556 68.5468 1258.22 534.543
596 0 43.1098 12.5726 542 69.4797 1257.54 535.194
597 0 43.0175 13.7154 590 68.7153 1258.05 533.447
598 0 45.205 11.9013 538 69.8606 1257.78 534.524
599 0 48.0607 13.5246 650 68.1954 1257.89 531.812
600 0 49.0935 14.4215 708 67.2415 1257.64 530.876
601 0 51.0702 14.5094 741 66.9123 1258.03 530.198
602 0 53.0386 14.0275 744 67.3091 1258.65 530.626
603 0 52.0562 13.0244 678 68.9484 1258.81 530.6
604 0 56.0644 12.8602 721 68.7573 1258.73 528.061
605 0 56.0824 13.605 763 67.9843 1258.94 528.062
606 0 60.0908 13.7625 827 67.0943 1258.56 525.932
607 0 63.069 12.9858 819 67.4591 1257.84 526.914
608 0 64.0441 13.5532 868 66.8618 1258.35 525.324
609 0 65.0683 13.724 893 67.5442 1258.34 522.56
610 0 69.1266 14.119 976 65.9467 1258.78 522.483
611 0 71.2087 15.0543 1072 64.666 1258.34 523.146
612 0 74.0403 13.6817 1013 67.0711 1258.35 519.839
613 0 75.0959 15.5934 1171 65.0282 1258.72 519.292
614 0 77.0883 13.2575 1022 68.5528 1258.58 518.6
615 1 37.0472 12.5785 466 68.382 1259.56 535.856
616 0 39.0151 10.7394 419 68.8425 1259.26 536.442
617 0 41.021 11.6526 478 68.8054 1259.15 536.575
618 0 43.0286 12.3871 533 68.6098 1258.47 535.006
619 0 44.0228 12.6525 557 68.6715 1257.97 534.188
620 0 45.1097 13.4339 606 68.1931 1258.28 532.457
621 0 45.0714 12.3582 557 70.1149 1258.57 532.395
622 0 46.0203 13.9504 642 68.2477 1258.37 531.433
623 0 50.0252 14.1928 710 66.731 1258.13 530.463
624 0 50.0657 12.903 646 69.0186 1258.49 530.336
625 0 52.0805 13.4599 701 68.1156 1258.85 529.06
626 0 54.0934 13.0515 706 68.6884 1258.46 527.203
627 0 54.0943 13.7353 743 67.7793 1258.78 526.437
628 0 58.0384 13.6289 791 66.2604 1257.89 529.536
629 0 59.1037 13.434 794 67.4534 1258.56 526.683
630 0 60.0527 13.638 819 67.7302 1258.42 524.983
631 0 63.3008 14.0757 891 66.8485 1258.57 523.565
632 0 65.1293 14.6785 956 65.5042 1258.03 523.331
633 0 67.1033 13.8741 931 67.1031 1259.17 520.914
634 0 70.1307 14.3589 1007 66.0506 1259.48 520.786
635 0 73.0999 13.3926 979 67.1614 1259.44 520.811
636 0 73.0835 13.0673 955 68.2199 1259 517.747
637 0 76.0939 13.2468 1008 67.7679 1259.87 517.198
638 0 80.0849 14.1225 1131 66.0407 1259.93 515.928
639 1 38.0588 10.694 407 68.8722 1258.95 535.334
640 0 38.0784 10.8986 415 67.8868 1259.13 536.036
641 0 39.0584 11.7773 460 68.6522 1259.55 533.546
642 0 39.1002 10.7928 422 70.1777 1258.63 531.272
643 0 42.0586 12.5777 529 66.8752 1258.81 533.397
644 0 43.0095 12.2531 527 67.1366 1257.77 533.01
645 0 44.1431 12.3689 546 66.3828 1258.27 533.544
646 0 46.1494 13.3046 614 65.1629 1258.44 531.3
647 0 48.0516 12.0912 581 66.2616 1257.88 531.656
648 0 50.0549 12.746 638 65.0972 1258.3 531.154
649 0 52.0263 12.955 674 64.8279 1258.62 530.272
650 0 52.0821 13.6899 713 64.108 1258.69 529.982
651 0 53.0681 14.0951 748 63.9398 1259.56 527.737
652 0 55.022 12.5404 690 65.5942 1258.97 528.254
653 0 56.0433 13.3825 750 65.084 1259.13 526.179
654 0 60.042 12.8577 772 65.1891 1259.2 526.635
655 0 62.0827 13.6431 847 64.4711 1258.85 524.982
656 0 63.0716 12.7157 802 65.8853 1258.47 524.916
657 0 64.0486 11.6942 749 68.1736 1259.12 521.745
658 0 67.0891 13.9665 937 65.1761 1258.84 520.371
659 0 68.0268 13.4359 914 66.139 1258.14 522.059
660 0 72.0644 13.2104 952 66.3939 1258.27 523.605
661 0 73.1166 13.3075 973 67.4399 1258.95 519.27
662 0 76.0854 12.21 929 68.7417 1258.89 520.306
663 1 40.0796 11.0281 442 68.8258 1258.95 536.658
664 0 42.0916 11.0473 465 68.9312 1259.16 535.751
665 0 41.1618 12.5116 515 67.7592 1259.01 534.596
666 0 43.0338 13.4313 578 67.3114 1259.17 533.171
667 0 47.0337 12.2891 578 68.2561 1259.19 533.176
668 0 47.0455 12.7324 599 68.7412 1259.17 531.741
669 0 48.0412 12.5517 603 68.6667 1259.04 531.63
670 0 50.1819 11.7772 591 69.4061 1259.32 531.323
671 0 50.0707 12.6022 631 68.7845 1259.11 529.141
672 0 54.0394 13.009 703 67.4552 1259.14 530.266
673 0 54.0306 13.1777 712 67.5899 1259.49 529.468
674 0 56.216 12.6121 709 68.4894 1259.97 527.326
675 0 57.1141 11.6258 664 69.5874 1259.22 528.449
676 0 58.1141 11.2193 652 70.4862 1259.08 526.799
677 0 60.0813 12.8992 775 68.8052 1259.43 525.284
678 0 62.0968 10.5641 656 71.1982 1259.08 526.041
679 0 66.1646 12.5445 830 68.6337 1258.62 523.174
680 0 69.1328 12.5845 870 67.831 1258.42 522.633
681 0 69.1264 13.2511 916 67.321 1259.13 523.473
682 0 72.0865 14.6352 1055 65.5062 1259.4 519.414
683 0 74.1378 12.76 946 68.7537 1259.75 518.17
684 0 77.1802 12.8789 994 68.2213 1259.85 517.332
685 1 42.1093 10.7815 454 67.0264 1259.88 537.086
686 0 41.1005 11.8003 485 66.5567 1259.54 536.429
687 0 43.2168 11.8704 513 67.0253 1260.03 532.891
688 0 46.0653 11.7442 541 66.5619 1258.95 533.998
689 0 45.1062 12.3708 558 67.086 1259.57 532.686
690 0 47.0811 12.3829 583 66.6484 1259.69 532.384
691 0 48.0737 12.3352 593 66.2614 1260.45 532.965
692 0 48.0663 13.6062 654 65.7294 1260.85 532.054
693 0 52.1007 12.4374 648 66.0463 1260.1 532.057
694 0 53.0226 13.2396 702 64.5869 1259.55 531.878
695 0 55.0296 14.6285 805 62.9143 1259.37 530.78
696 0 55.0763 11.6747 643 67.3173 1258.47 530.443
697 0 57.0991 13.2752 758 65.1108 1258.93 529.584
698 0 58.0607 12.7625 741 66.4318 1259.39 525.513
699 0 61.0889 15.0436 919 62.4255 1258.69 527.291
700 0 61.0596 12.6925 775 65.7277 1259.27 526.928
701 0 62.1187 12.8303 797 66.1681 1259.94 525.045
702 0 66.1165 12.9317 855 65.7193 1259.38 522.986
703 0 70.1432 13.3584 937 64.5037 1259.3 522.938
704 0 71.1246 11.6978 832 66.8534 1259.28 522.957
705 0 73.0626 12.5919 920 66.4141 1259.12 518.483
706 0 75.2573 11.9856 902 67.5033 1259.3 517.838
707 0 78.1128 14.8119 1157 63.3967 1258.73 515.819
708 0 80.0973 12.8843 1032 66.436 1258.37 516.138
709 0 83.0428 14.1614 1176 64.381 1258.93 515.297
710 0 83.1946 12.4407 1035 67.9633 1259.11 513.491
711 1 42.0316 9.56424 402 67.607 1259.47 535.112
712 0 46.0756 11.3726 524 64.9771 1259.28 533.605
713 0 47.0284 11.7376 552 64.2645 1259.73 534.141
714 0 47.0249 10.42 490 66.3306 1259.26 533.969
715 0 48.0372 11.2205 539 65.269 1259.45 534.011
716 0 51.0701 13.55 692 61.9292 1258.99 531.715
717 0 49.0226 11.1173 545 66.6422 1259.51 529.875
718 0 53.0344 12.6144 669 62.9417 1259.31 530.103
719 0 56.075 13.3571 749 61.7944 1258.93 527.451
720 0 58.035 13.7503 798 60.8396 1259.11 526.793
721 0 57.1021 10.6476 608 65.5 1258.95 525.41
722 0 61.076 13.4914 824 60.9442 1259.1 523.026
723 0 63.0634 12.4954 788 61.6079 1258.15 523.698
724 0 65.0395 13.192 858 60.3147 1258.01 521.2
725 0 65.1229 10.8718 708 63.048 1258.24 522.097
726 0 70.0858 12.6702 888 60.4302 1258.69 521.625
727 0 72.155 12.1128 874 60.4222 1259.18 521.746
728 0 74.195 12.1706 903 60.5083 1258.65 520.085
729 0 75.1128 11.4894 863 61.3024 1258.68 519.943
730 0 76.1576 11.66 888 61.375 1258.7 518.432
731 0 79.0835 12.2782 971 61.001 1257.73 515.231
732 0 81.1137 10.6394 863 62.9676 1257.86 514.432
733 1 40.0306 10.0923 404 61.3243 1258.79 535.374
734 0 42.0173 10.4243 438 60.589 1258.51 534.169
735 0 43.0439 11.2443 484 59.8244 1259.52 533.849
736 0 44.0507 11.0781 488 59.2377 1259.57 533.369
737 0 46.0423 12.7057 585 56.8342 1259.72 533.455
738 0 45.0424 10.9008 491 60.1752 1258.98 530.57
739 0 48.0771 12.2304 588 58.4082 1258.96 531.818
740 0 50.0538 12.6464 633 58.0063 1259.41 529.675
741 0 52.0484 12.8726 670 57.1866 1259.36 529.77
742 0 53.0317 10.9557 581 58.9983 1259.61 531.043
743 0 55.0359 12.9007 710 57.2944 1259.24 529.396
744 0 56.0529 11.1859 627 59.0558 1258.96 528.123
745 0 58.1033 11.6861 679 57.5847 1258.28 529.776
746 0 59.0536 12.8866 761 57.4336 1258.22 526.791
747 0 60.0504 12.7226 764 57.5956 1257.23 525.732
748 0 63.065 12.7329 803 57.5567 1257.27 525.166
749 0 65.1365 13.1109 854 56.8688 1258.41 525.225
750 0 66.0373 10.7061 707 58.9208 1258.67 526.703
751 0 69.1383 11.9037 823 57.4909 1258.43 524.504
752 0 69.1472 13.5653 938 57.065 1258.69 521.241
753 0 70.1353 11.3495 796 59.9812 1259.23 518.013
754 0 74.2443 11.8797 882 59.4297 1258.31 520.992
755 0 76.1205 12.0861 920 60.0576 1258.48 515.845
756 0 76.1314 11.3357 863 61.0823 1258.6 515.593
757 0 80.1243 12.0063 962 59.9699 1258.09 517.411
758 1 43.0807 10.8633 468 59.3611 1259.43 534.566
759 0 42.0982 8.88399 374 61.0936 1259.75 536.102
760 0 44.0242 10.4488 460 59.5565 1259.24 536.226
761 0 46.0459 12.379 570 57.7333 1258.74 533.644
762 0 47.1235 11.9473 563 58.421 1258.29 533.675
763 0 48.1019 12.0785 581 59.0809 1258.39 532.391
764 0 48.0726 12.6475 608 58.898 1259.04 531.722
765 0 50.3358 11.8206 595 59.9597 1258.31 530.553
766 0 52.0384 11.8951 619 59.3764 1258.97 532.322
767 0 53.1813 11.9591 636 59.8758 1258.32 529.234
768 0 53.0973 11.5072 611 61.0638 1257.43 528.967
769 0 54.067 11.2638 609 61.1182 1257.64 529.575
770 0 59.0662 13.815 816 57.386 1257.57 528.779
771 0 59.053 12.5989 744 59.6102 1258.19 528.145
772 0 60.1044 13.1105 788 59.5571 1258.73 526.778
773 0 62.2073 12.4262 773 60.2859 1258.36 524.631
774 0 64.0561 14.019 898 59.0512 1257.72 524.186
775 0 65.083 12.6608 824 60.4005 1258.52 525.248
776 0 69.0724 13.7682 951 58.7571 1258.08 523.646
777 0 69.1335 13.351 923 59.8689 1257.42 521.646
778 0 72.0479 13.0052 937 60.2423 1257.98 522.252
779 0 72.1122 12.3557 891 61.1302 1258.27 520.782
780 1 38.0325 10.7802 410 60.2171 1258.2 538.337
781 0 38.0472 9.90874 377 60.8117 1258.54 540.361
782 0 39.0878 11.9986 469 59.8188 1258.92 538.335
783 0 42.0337 10.444 439 60.8884 1259.12 537.276
784 0 43.1292 11.8713 512 58.8984 1258.24 537.936
785 0 45.0678 12.1817 549 58.5738 1258.77 536.506
786 0 44.0417 13.0558 575 58.127 1258.39 535.831
787 0 46.0763 12.2189 563 59.0462 1258.54 534.856
788 0 46.0775 12.2402 564 59.0621 1258.32 533.961
789 0 48.0934 12.0183 578 59.8304 1258.51 533.296
790 0 48.1061 13.0545 628 59.2134 1257.73 531.081
791 0 50.0396 11.1512 558 61.3728 1258.15 532.625
792 0 52.0839 13.2478 690 58.3768 1258.59 532.891
793 0 52.0979 9.69328 505 62.8515 1258.38 531.883
794 0 55.0701 11.2221 618 61.3689 1259.47 529.44
795 0 56.0723 11.6457 653 61.3002 1259.07 527.828
796 0 57.0631 12.0919 690 61.6145 1258.81 527.822
797 0 58.1294 11.4228 664 62.9277 1258.39 525.748
798 0 63.1079 12.8035 808 60.9975 1258.87 526.205
799 0 64.1492 11.785 756 62.623 1258.78 526.237
800 0 64.097 11.9974 769 63.2991 1258.44 523.417
801 0 66.2338 11.6708 773 64.608 1259.04 522.281
802 0 68.1394 12.2103 832 64.8269 1258.17 521.383
803 0 72.0647 12.017 866 64.8441 1259.05 522.191
804 0 74.1144 12.7236 943 65.2916 1258.34 518.426
805 0 76.0404 11.3492 863 66.9641 1258.35 520.63
806 0 79.1286 13.8003 1092 64.5348 1258.34 518.266
807 1 40.012 11.6215 465 65.8817 1259.19 537.006
808 0 42.0122 10.497 441 68.2018 1258.49 535.485
809 0 43.0314 12.0842 520 66.3904 1258.51 536.34
810 0 45.0183 11.4842 517 67.824 1258.14 535.197
811 0 47.101 11.9106 561 66.9554 1258.9 535.025
812 0 48.071 12.2319 588 67.7874 1259.19 532.037
813 0 49.0861 11.8771 583 68.5712 1258.4 531.432
814 0 51.0316 11.679 596 68.8205 1258.49 531.557
815 0 52.0462 12.854 669 67.7504 1258.67 529.738
816 0 54.1619 13.9212 754 66.6592 1258.5 530.166
817 0 54.1041 11.7921 638 70.5768 1258.24 529.041
818 0 57.0962 11.8922 679 70.2062 1257.64 530.258
819 0 60.0877 13.8464 832 67.2512 1257.67 528.62
820 0 60.1355 12.3222 741 69.9555 1258.63 527.066
821 0 62.0586 11.3441 704 70.777 1259.11 527.224
822 0 64.1452 13.7656 883 68.3511 1259.15 524.615
823 0 67.1037 13.5611 910 68.5121 1258.88 523.338
824 0 66.1851 11.5887 767 72.1317 1258.68 522.7
825 0 69.0744 12.3924 856 70.8598 1258.98 523.314
826 0 71.1417 11.5404 821 72.2875 1258.68 521.432
827 0 75.0583 12.6968 953 70.6768 1257.7 520.221
828 0 76.0973 11.5773 881 72.8297 1257.7 519.106
829 0 79.187 12.7546 1010 70.1396 1257.75 521.917
830 1 40.0682 9.80827 393 72.4936 1258.71 536.758
831 0 43.1187 10.6914 461 71.5358 1258.7 534.952
832 0 44.1988 10.9053 482 71.1514 1258.56 534.768
833 0 47.0742 12.1935 574 69.0209 1258.6 535.035
834 0 49.141 11.2126 551 69.9946 1258.38 534.459
835 0 49.1443 11.9648 588 69.6718 1258.34 531.345
836 0 51.132 12.4775 638 68.2053 1257.61 534.058
837 0 53.0733 12.7748 678 67.9823 1257.96 531.111
838 0 55.0936 12.6693 698 68.2851 1258.7 530.344
839 0 57.173 12.401 709 68.1227 1258.17 530.595
840 0 58.0656 13.0198 756 67.41 1258.85 529.173
841 0 60.0816 13.0323 783 67.0651 1258.75 527.782
842 0 62.1411 12.6808 788 66.7157 1258.77 529.368
843 0 63.1182 12.1993 770 67.9909 1257.75 527.258
844 0 65.1002 13.2104 860 66.4663 1258.09 526.002
845 0 68.2109 12.3441 842 66.8017 1259.08 524.309
846 0 70.0405 12.4928 875 66.7314 1259.07 524.747
847 0 70.1815 10.8291 760 68.8908 1258.45 523.008
848 1 34.0084 11.6148 395 63.8405 1259.04 540.595
849 0 36.1556 11.5335 417 64.2062 1259.05 540.096
850 0 35.0648 9.32558 327 66.6544 1258.01 540.058
851 0 38.0649 11.0338 420 63.9524 1257.43 539.46
852 0 40.0955 12.146 487 61.4086 1258.24 540.053
853 0 40.0204 12.2687 491 62.1996 1259.67 537.58
854 0 42.0303 12.0627 507 62.3314 1259.4 537.12
855 0 42.0345 11.5144 484 63.6984 1259.11 537.004
856 0 43.049 12.2651 528 63.4186 1259.11 535.616
857 0 45.0903 12.7078 573 61.9738 1258.86 536.302
858 0 45.0296 11.1482 502 64.6175 1257.99 535.574
859 0 45.0605 10.2307 461 66.5228 1259.26 534.436
860 0 53.0286 13.2193 701 57.398 1258.46 533.839
861 0 51.0821 11.3543 580 66.2207 1259.28 532.274
862 0 53.0341 12.3694 656 64.2119 1258.54 533.52
863 0 54.0587 12.4494 673 63.4844 1259.39 534.651
864 0 56.1246 13.8264 776 62.183 1259.41 532.497
865 0 56.0309 11.5472 647 65.2334 1259.09 531.499
866 0 58.0803 12.3622 718 63.8259 1259.17 529.94
867 0 60.029 11.2945 678 65.0044 1259.05 529.367
868 0 61.0732 12.264 749 64.1215 1258.97 527.079
869 0 62.0235 10.2864 638 65.8433 1259.85 529.085
870 0 66.054 12.2778 811 62.5314 1258.55 527.748
871 0 66.0643 10.7471 710 64.4338 1258.65 526.616
872 0 69.0753 12.3633 854 62.7927 1258.39 524.128
873 0 71.0772 11.6634 829 63.4089 1258.33 524.726
874 0 72.0403 12.3542 890 62.6933 1258.72 522.051
875 1 38.0477 11.1965 426 60.5869 1257.65 541.765
876 0 37.0446 10.7438 398 61.5276 1257.86 541.482
877 0 39.0739 10.7233 419 62.6181 1257.91 538.336
878 0 40.0295 10.7421 430 62.6046 1258.1 538.507
879 0 41.0211 11.0431 453 61.2759 1258.08 539.85
880 0 41.0166 11.6538 478 61.4644 1257.95 538.253
881 0 44.0633 12.187 537 60.419 1257.24 536.313
882 0 45.0524 10.5433 475 62.6568 1256.92 538.267
883 0 47.1117 13.4786 635 59.3197 1257.52 535.417
884 0 49.0752 12.8578 631 60.2805 1257.26 533.861
885 0 49.0332 12.6649 621 61.0386 1257 534.712
886 0 50.0539 13.2258 662 60.9788 1258.35 532.214
887 0 51.0606 12.2208 624 61.9647 1258.48 534.438
888 0 51.0289 12.7967 653 61.4288 1258.19 533.035
889 0 53.1091 12.8603 683 61.8067 1258.42 531.246
890 0 55.0804 12.0914 666 62.524 1257.78 532.054
891 0 56.1152 13.7574 772 60.3886 1258.7 530.372
892 0 56.1074 12.6187 708 62.1229 1258.88 528.917
893 0 57.0528 12.0941 690 62.871 1258.77 529.877
894 0 60.0792 12.7498 766 62.1175 1258.67 528.651
895 0 62.0433 13.8935 862 60.3469 1258.52 528.675
896 0 63.0307 12.1845 768 62.4219 1259.01 526.921
897 0 66.1488 13.1975 873 61.1501 1258.84 526.392
898 0 67.0586 12.8395 861 62.0465 1258.41 525.412
899 0 70.1035 12.9951 911 61.7146 1258.51 525.543
900 0 72.0903 13.0947 944 60.8538 1258.71 523.63
901 0 74.1258 12.7081 942 61.7781 1259.01 522.951
902 0 76.0764 13.7625 1047 60.9188 1259.24 518.99
903 0 78.0706 13.3213 1040 61.5135 1258.49 517.959
904 0 80.1039 12.5587 1006 62.7922 1258.26 516.491
905 0 83.1996 13.3534 1111 62 1258.71 515.104
906 1 43.0198 10.6695 459 64.1786 1258.63 535.98
907 0 46.0393 13.0106 599 60.6678 1258.34 535.713
908 0 45.0552 11.6302 524 63.6928 1258.49 535.01
909 0 47.0599 11.8997 560 63.5893 1259.32 534.136
910 0 51.0305 12.8159 654 61.9083 1259.07 534.726
911 0 50.0666 12.743 638 63.1818 1259.46 531.37
912 0 52.1151 11.9543 623 63.6035 1259.57 531.637
913 0 53.0403 11.3499 602 63.9053 1260.53 533.174
914 0 56.0594 13.343 748 60.9532 1259.84 531.07
915 0 57.0805 13.3145 760 61.471 1259.75 530.018
916 0 58.1227 12.1639 707 62.7383 1259.29 530.071
917 0 62.0558 12.4404 772 62.2241 1259.48 528.505
918 0 63.1846 13.0886 827 61.8972 1258.29 525.68
919 0 64.0442 11.6638 747 63.3039 1258.2 527.158
920 0 67.0416 12.9472 868 62.0346 1258.91 524.985
921 0 68.0241 13.2894 904 62.2799 1258.8 521.317
922 0 70.0866 12.5702 881 63.3689 1258.91 523.213
923 0 74.0599 12.6249 935 63.2545 1258.41 521.412
924 0 76.1434 12.0956 921 63.8654 1257.8 519.14
925 0 78.1241 13.3506 1043 62.9904 1257.84 518.413
926 1 40.0386 9.56577 383 64.1253 1258.26 539.05
927 0 42.1179 10.0432 423 64.104 1258.25 536.856
928 0 45.0284 12.2589 552 62.0435 1259 536.009
929 0 48.0253 10.9734 527 63.6774 1258.52 535.298
930 0 48.042 11.1569 536 64.6101 1258.27 533.022
931 0 51.1048 12.7385 651 61.7665 1258.28 533.561
932 0 53.0553 12.3833 657 62.9589 1258.38 531.349
933 0 53.0786 11.5677 614 63.9072 1257.73 532.112
934 0 53.0322 12.8978 684 63.2149 1258.53 528.876
935 0 56.0163 11.8001 661 62.5704 1258.22 532.781
936 0 58.1469 10.5595 614 64.4202 1258.16 531.427
937 0 60.0862 12.0327 723 62.5104 1258.42 527.876
938 0 62.0272 11.2693 699 62.834 1258.3 529.687
939 0 64.1379 12.1457 779 62.3338 1258.24 525.987
940 0 64.0719 13.0634 837 61.3154 1258.24 525.762
941 0 66.0752 13.1365 868 61.5542 1257.75 524.219
942 0 68.1149 12.7579 869 61.7791 1258.14 522.908
943 0 72.1464 13.0013 938 60.8699 1258.03 521.05
944 0 73.0862 13.2446 968 61.1333 1257.72 519.217
945 0 76.0497 12.242 931 61.5467 1256.84 521.204
946 0 79.0471 11.4362 904 62.0011 1258.06 520.596
947 0 81.0589 12.6081 1022 60.6478 1258.9 518.533
948 0 84.0436 12.7196 1069 60.6642 1258.4 517.633
949 0 86.1655 13.3812 1153 59.8846 1258.58 515.844
950 1 44.0253 11.3798 501 59.3413 1259.5 535.371
951 0 45.0693 9.91805 447 60.9329 1259.34 535.803
952 0 47.0483 10.8824 512 60.6797 1258.88 533.648
953 0 49.1555 10.9245 537 59.7989 1259.23 533.21
954 0 50.0605 13.244 663 58.2021 1258.82 530.837
955 0 52.2001 13.5632 708 57.1257 1258.93 531.794
956 0 53.0714 12.2853 652 59.4034 1257.11 529.034
957 0 55.024 13.1397 723 57.5574 1258.33 531.015
958 0 56.0981 13.5655 761 57.8384 1258.28 526.344
959 0 59.041 11.8392 699 59.3648 1258.41 526.647
960 0 60.0794 13.1825 792 58.3194 1258.18 525.936
961 0 64.032 12.5875 806 57.9144 1258.24 526.259
962 0 64.0674 12.1591 779 58.8549 1258.2 524.895
963 0 67.1718 11.8353 795 59.2553 1257.83 521.375
964 0 70.2093 12.0639 847 58.6919 1258.69 522.882
965 0 72.0675 11.8084 851 59.1116 1259.21 521.917
966 0 74.0722 11.7858 873 58.9771 1259.36 521.512
967 0 74.0491 12.4647 923 59.0704 1259.35 519.871
968 0 77.0363 11.2025 863 60.5377 1258.2 516.979
969 0 81.0732 12.2358 992 59.7349 1259.07 515.079
970 0 85.0872 12.1522 1034 59.4516 1259.36 515.756
971 0 86.0683 12.8154 1103 59.5666 1258.53 513.613
972 1 41.0098 9.09539 373 60.1904 1259.61 536.858
973 0 45.0453 9.96775 449 59.8864 1259.77 534.628
974 0 46.0581 12.5276 577 57.104 1260.01 535.126
975 0 46.066 12.8728 593 57.9191 1260.31 532.718
976 0 47.1385 10.3313 487 60.9404 1259.57 533.053
977 0 49.0366 11.0938 544 60.2408 1259.56 531.517
978 0 51.0778 11.3552 580 59.7569 1259.55 530.519
979 0 52.0807 11.5974 604 60.0464 1259.84 529.215
980 0 53.156 11.1559 593 60.5885 1259.28 529.476
981 0 56.1015 12.2278 686 59.2755 1259.2 527.948
982 0 56.0681 10.3089 578 61.6782 1259.21 528.785
983 0 60.0671 11.304 679 59.9323 1259.39 527.834
984 0 60.1027 12.4953 751 60.1318 1258.37 523.338
985 0 65.1359 13.0343 849 58.4594 1259.76 525.154
986 0 65.1788 12.1819 794 60.1574 1258.88 523.463
987 0 66.0999 10.469 692 61.7081 1259.37 524.058
988 0 69.0983 12.1276 838 60.5191 1259.06 520.286
989 0 74.1314 13.503 1001 58.2967 1259.04 521.423
990 1 37.0119 10.321 382 59.644 1259.32 538.948
991 0 38.0433 10.3566 394 59.533 1259.87 538.155
992 0 39.0487 11.3448 443 58.5463 1259.4 539.108
993 0 38.0173 10.5215 400 61.0325 1259.94 535.372
994 0 42.0505 10.8441 456 59.9956 1259.67 535.785
995 0 43.0251 11.6444 501 58.5908 1259.33 536.098
996 0 44.0125 10.0653 443 60.553 1259.4 533.535
997 0 45.1178 11.0599 499 59.3768 1259.59 532.733
998 0 46.0843 12.1516 560 59.0286 1259.77 531.004
999 0 49.0225 10.3422 507 60.9408 1259.46 531.56
1000 0 51.0603 11.2808 576 59.1337 1259.8 531.646
1001 0 51.0486 11.3225 578 59.564 1259.12 529.664
1002 0 53.0563 10.2721 545 60.5927 1259.04 530.754
1003 0 53.1155 11.5032 611 59.329 1259.33 530.46
1004 0 55.0096 11.7252 645 59.5736 1259.21 526.708
1005 0 56.0454 10.5093 589 61.2479 1259.24 527.635
1006 0 60.0812 12.9158 776 57.9369 1259.1 525.756
1007 0 60.0426 10.7257 644 60.1009 1259.54 528.154
1008 0 61.0304 10.503 641 60.5023 1259.89 527.211
1009 0 63.0619 11.6394 734 60.1812 1258.23 525.087
1010 0 65.0403 12.6844 825 59.0279 1258.8 523.018
1011 0 68.0915 11.1761 761 60.1616 1258.6 524.099
1012 0 68.0893 10.0456 684 61.1184 1258.18 526.146
1013 0 70.0577 12.2899 861 59.0163 1258.12 522.762
1014 0 73.0831 12.5884 920 58.9804 1257.7 521.763
1015 0 75.0669 11.563 868 60.788 1257.97 519.561
1016 0 76.0968 10.2107 777 62.1248 1258.08 519.332
1017 0 82.0965 12.5706 1032 59.2316 1257.14 518.765
1018 0 84.1996 12.4229 1046 60.1004 1258.03 516.132
1019 0 84.296 12.2188 1030 60.4029 1257.97 514.978
1020 0 88.1723 12.4302 1096 60.1022 1257.72 513.289
1021 1 45.0493 9.05675 408 60.4387 1257 536.515
1022 0 48.0605 9.96661 479 59.3132 1257.53 535.526
1023 0 49.1148 11.1372 547 59.2815 1257.8 532.177
1024 0 51.0539 11.2822 576 58.1024 1257.82 533.585
1025 0 54.0886 11.9619 647 57.4235 1257.63 531.414
1026 0 53.2189 10.2595 546 59.5916 1257.32 530.559
1027 0 56.2227 12.0058 675 57.8356 1257.17 530.162
1028 0 58.2253 12.5032 728 57.4766 1257.5 529.596
1029 0 59.1237 12.533 741 57.336 1257.62 528.888
1030 0 61.1583 12.7701 781 56.6364 1257.12 527.561
1031 0 62.1824 10.5496 656 59.1357 1256.7 528.139
1032 0 64.1033 11.5907 743 57.6608 1257.41 528.944
1033 0 68.3663 12.3014 841 56.736 1257.44 525.235
1034 0 70.213 13.3593 938 55.8337 1256.74 524.619
1035 0 72.1283 12.8244 925 55.893 1256.91 522.307
1036 0 72.3335 10.8249 783 58.3295 1256.91 521.504
1037 0 77.2322 13.181 1018 55.8035 1257.44 519.983
1038 0 78.2084 13.106 1025 55.9688 1257.06 519.905
1039 0 81.251 11.2491 914 58.0952 1257.27 515.546
1040 1 41.1921 10.0505 414 57.686 1257.02 533.343
1041 0 43.0448 10.9886 473 56.0063 1256.7 535.431
1042 0 44.1595 10.6885 472 57.2606 1256.09 534.155
1043 0 46.1704 10.223 472 57.9767 1256.46 532.375
1044 0 48.1314 11.2608 542 57.1531 1256.51 532.705
1045 0 51.1522 11.4756 587 55.8313 1255.9 533.475
1046 0 51.1856 10.8429 555 56.382 1256.72 532.124
1047 0 50.028 9.43472 472 58.4428 1256.81 533.044
1048 0 55.0342 11.2112 617 55.7893 1257.2 530.909
1049 0 56.0906 11.0357 619 56.2504 1257.26 531.26
1050 0 57.0293 11.0294 629 56.7774 1256.62 531.486
1051 0 60.1105 12.111 728 55.0783 1257.27 531.345
1052 0 61.0503 11.3841 695 56.0547 1256.56 529.088
1053 0 62.129 11.4439 711 56.2194 1256.58 529.948
1054 0 64.0612 11.0675 709 56.6544 1256.13 529.322
1055 0 67.1377 13.167 884 54.448 1256.06 524.595
1056 0 69.2712 10.7693 746 57.0362 1256 525.753
1057 0 71.3396 12.1251 865 55.9561 1256.55 524.142
1058 0 75.2771 12.2747 924 55.2489 1256.71 523.995
1059 0 76.0735 11.7649 895 56.0793 1256.85 522.296
1060 0 80.2055 12.3932 994 55.2264 1256.24 522.153
1061 0 80.2337 12.2392 982 56.1884 1257.05 520.11
1062 1 41.1492 8.65145 356 57.7753 1257.2 539.143
1063 0 42.2524 10.2006 431 56.2065 1256.94 540.329
1064 0 42.1372 12.1745 513 55.2066 1256.55 539.232
1065 0 44.106 10.5655 466 56.6116 1256.76 539.687
1066 0 44.1087 10.3381 456 57.6535 1256.71 538.768
1067 0 47.0697 12.1522 572 55.0717 1256.88 538.99
1068 0 49.0336 13.4194 658 54.1413 1256.72 536.27
1069 0 48.1004 11.1434 536 57.0709 1256.95 537.763
1070 0 53.0659 12.4751 662 55.4018 1257.48 537.18
1071 0 52.119 11.4737 598 57.8077 1257.78 532.719
1072 0 57.0754 11.1256 635 57.2158 1258.55 535.539
1073 0 56.1785 10.5378 592 57.9899 1257.68 535.786
1074 0 58.1002 11.4457 665 57.3459 1257.72 532.415
1075 0 60.0394 11.3925 684 57.4737 1258.01 531.937
1076 0 63.174 11.3021 714 57.4062 1257.27 529.473
1077 0 63.1223 12.8956 814 56.3661 1258.05 528.338
1078 0 64.0603 10.5682 677 58.709 1257.45 528.902
1079 0 67.1927 11.6382 782 57.1637 1257.59 527.909
1080 0 70.1181 13.1778 924 55.8355 1258.44 526.774
1081 0 71.06 12.3417 877 56.9407 1257.64 525.735
1082 0 74.1992 13.2481 983 56.001 1257.74 524.182
1083 0 77.1608 11.7417 906 58.0982 1257.47 522.178
1084 0 79.137 12.472 987 57.4711 1257.17 521.748
1085 0 82.053 12.0776 991 58.3582 1256.68 520.333
1086 1 41.0192 10.2635 421 59.9145 1256.86 538.515
1087 0 45.1136 11.5486 521 56.8964 1256.87 539.779
1088 0 43.1945 10.9042 471 59.6454 1257.91 537.601
1089 0 45.234 13.5297 612 57.1242 1257.91 538.02
1090 0 45.0165 10.3962 468 62.4231 1257.46 535.872
1091 0 50.082 12.1601 609 58.2036 1257.55 535.599
1092 0 50.1216 12.9086 647 58.3416 1256.87 535.019
1093 0 52.1789 12.0164 627 59.2616 1256.4 534.617
1094 0 51.1359 12.1246 620 60.3597 1256.56 531.568
1095 0 55.0812 11.6555 642 60.1153 1257.06 532.713
1096 0 56.2106 12.3464 694 59.6542 1258.08 529.069
1097 0 57.2724 12.362 708 60.1497 1258.2 526.924
1098 0 59.1398 13.0876 774 59.1667 1257.68 528.012
1099 0 61.2181 12.4963 765 59.3438 1258.27 524.995
1100 0 65.3151 12.0646 788 59.3185 1258.37 526.195
1101 0 64.2638 13.5224 869 58.3763 1258.28 523.493
1102 0 66.1134 12.3576 817 59.9498 1257.43 525.39
1103 0 68.2161 13.4572 918 58.5762 1257.64 524.081
1104 0 70.2954 11.8215 831 60.5427 1257.39 522.225
1105 0 74.2497 14.8553 1103 56.5993 1257.31 522.77
1106 0 76.1288 13.0437 993 58.5841 1258.33 521.846
1107 0 79.3318 12.5549 996 59.2982 1258.81 519.824
1108 0 78.1998 11.8287 925 61.0086 1258.34 515.817
1109 0 83.2719 13.546 1128 58.578 1257.62 515.582
1110 0 86.3467 12.8436 1109 59.0252 1258.02 514.606
1111 0 89.3912 11.8132 1056 60.4612 1258.42 515.361
1112 0 91.1609 11.8691 1082 60.6294 1258.46 514.311
1113 0 94.3239 13.7717 1299 59.0816 1258.29 509.65
1114 0 98.208 14.5202 1426 57.324 1258.58 511.046
1115 0 98.2737 10.6641 1048 62.2824 1257.72 509.284
1116 1 50.0618 10.5669 529 60.1153 1258.03 532.026
1117 0 53.0389 10.7657 571 59.38 1258.41 532.124
1118 0 52.0737 9.7362 507 61.069 1259.59 529.71
1119 0 53.0624 9.08364 482 61.9502 1258.71 530.398
1120 0 54.0754 9.69017 524 62.2042 1258 527.332
1121 0 59.0865 10.9162 645 60.1705 1258.04 526.918
1122 0 59.1172 12.1454 718 58.7368 1258.53 524.777
1123 0 63.0396 13.6264 859 56.1269 1257.97 525.803
1124 0 65.0397 11.0855 721 59.2122 1257.92 524.452
1125 0 68.101 12.2318 833 57.4166 1257.98 522.443
1126 0 68.065 11.8416 806 58.5261 1258.48 524.649
1127 0 71.1497 11.8342 842 58.3266 1259.42 522.672
1128 0 75.1681 12.7847 961 57.3059 1259.46 519.691
1129 0 75.0543 12.3377 926 58.8909 1259.29 518.096
1130 0 76.1371 12.425 946 57.9577 1257.32 520.266
1131 0 79.0578 12.9652 1025 57.0029 1258.23 517.571
1132 0 75.6174 15.5784 1178 56.5917 1258.31 517.829
1133 0 71.6002 13.2681 950 62.6663 1257.02 517.56
1134 0 66.4485 15.1997 1010 64.0416 1256.49 518.107
1135 1 165.418 9.27955 1535 65.0189 1256.55 487.251
1136 0 165.77 8.27049 1371 66.9125 1257.76 488.018
1137 1 83.1321 12.1493 1010 63.2 1257.09 439.075
1138 1 48.0343 12.3037 591 63.0863 1257.51 453.677
