time division length width area intensity CMx CMy
0 0 43.0417 12.0581 519 63.6744 122.776 528.066
1 0 43.0556 12.0774 520 63.7135 121.671 529.679
2 0 44.046 11.4653 505 63.5564 121.606 530.59
3 0 45.0716 11.6259 524 63.8168 122.353 528.58
4 0 45.0672 11.0945 500 63.92 121.686 528.208
5 0 47.0593 11.5174 542 62.6476 121.828 527.917
6 0 48.1109 12.3049 592 61.7568 121.821 527.517
7 0 48.0509 12.4659 599 61.9533 121.194 525.965
8 0 50.0713 11.7433 588 62.0357 121.332 525.638
9 0 52.1071 12.7814 666 61.0871 120.339 522.263
10 0 53.1017 12.8433 682 60.1334 120.394 525.83
11 0 56.1016 13.1369 737 59.0597 120.879 523.217
12 0 56.2609 13.8995 782 57.9271 121.087 521.54
13 0 59.2064 14.0863 834 57.2998 121.344 521.676
14 0 60.0738 12.9341 777 58.6834 121.341 522.409
15 0 59.0775 11.7981 697 60.2425 121.324 520.405
16 0 62.1888 11.8993 740 60.1054 121.474 518.349
17 0 63.0621 12.6225 796 59.4397 121.347 520.651
18 0 66.1098 13.3868 885 58.1311 120.679 518.585
19 0 68.1575 12.2364 834 59.1535 120.832 517.971
20 0 69.1451 11.729 811 59.8903 121.794 518.544
21 1 35.0372 11.3879 399 59.4887 121.754 533.451
22 0 37.0398 12.2031 452 58.7766 121.113 532.35
23 0 37.0624 11.5481 428 60.6192 119.619 532.491
24 0 38.0081 10.8924 414 61.4831 120.302 533.13
25 0 39.0088 11.5359 450 61.9489 120.609 531.213
26 0 41.0467 12.9121 530 59.7113 120.913 530.509
27 0 41.0558 11.7401 482 62.6971 121.494 530.674
28 0 44.0767 13.3857 590 59.9949 121.398 532.58
29 0 45.0314 12.4136 559 62.8855 121.288 530.088
30 0 44.0693 11.6634 514 64.7276 121.642 530.531
31 0 46.0751 12.4362 573 64.4154 121.709 528.7
32 0 46.0464 11.8359 545 65.5229 121.486 528.857
33 0 47.0653 11.5796 545 66.6587 120.923 527.38
34 0 50.0689 13.3816 670 64.003 121.609 527.933
35 0 53.0319 12.8979 684 64.5351 121.363 527.127
36 0 53.0533 13.0058 690 64.7739 122.659 524.836
37 0 55.026 13.7208 755 63.8119 122.126 525.058
38 0 57.0567 13.6531 779 64.6585 121.461 523.467
39 0 61.0674 13.5424 827 63.5066 121.248 523.844
40 0 61.097 12.5865 769 65.3472 122.42 523.299
41 0 62.068 12.148 754 66.3064 121.168 522.836
42 0 62.0599 12.359 767 66.6806 122.613 522.089
43 0 66.0439 12.628 834 65.7302 122.119 519.181
44 0 68.0885 12.1166 825 66.503 122.955 520.072
45 0 71.0355 13.1624 935 65.5968 122.558 516.714
46 0 74.0505 11.6407 862 66.2981 123.015 519.21
47 0 73.0747 11.6182 849 67.7102 123.272 517.383
48 0 78.0395 11.5198 899 67.8042 122.91 515.636
49 1 41.0534 10.1331 416 68.6274 123.731 532.945
50 0 42.0595 11.7928 496 67.1814 122.966 531.238
51 0 45.0526 12.0082 541 65.7542 123.939 531.588
52 0 44.0977 12.3362 544 67.614 123.638 530.572
53 0 47.0475 11.5628 544 67.9118 123.184 530.34
54 0 49.1041 11.0378 542 68.179 123.45 529.415
55 0 52.0615 13.0615 680 65.6118 123.104 527.972
56 0 52.1276 12.8531 670 66.2149 122.958 526.884
57 0 55.0977 12.3417 680 66.075 123.372 527.471
58 0 54.057 11.9874 648 67.1157 124.247 526.054
59 0 59.1202 12.2631 725 66.4938 122.97 524.378
60 0 59.0486 12.2611 724 66.3246 123.841 524.878
61 0 60.0438 12.3743 743 66.7187 123.052 525.088
62 0 61.0236 12.6181 770 66.6494 122.806 523.526
63 0 61.1332 12.1374 742 68.1253 123.016 520.745
64 0 63.1067 12.2332 772 68.535 122.922 517.247
65 0 67.0738 12.0166 806 68.2332 123.331 518.141
66 0 69.0594 13.0033 898 66.7439 123.655 518.886
67 0 71.0867 13.8563 985 65.9878 122.791 517.726
68 0 72.068 12.4882 900 67.9978 122.348 517.697
69 0 74.1097 10.5519 782 70.5115 122.804 517.423
70 0 80.0369 14.4933 1160 64.9784 122.459 514.44
71 0 80.0947 12.8098 1026 67.8996 122.768 512.274
72 0 84.061 12.6932 1067 67.4733 122.461 513.154
73 0 86.0515 12.876 1108 67.4666 121.866 511.668
74 0 87.1525 12.633 1101 67.9973 122.565 510.029
75 0 89.0945 10.7863 961 69.9917 123.049 510.026
76 0 92.1014 13.3114 1226 67.1501 123.1 505.712
77 0 96.0911 12.9773 1247 67.0866 122.704 505.672
78 1 53.0811 11.7179 622 66.9341 123.186 524.939
79 0 55.0589 13.0406 718 65.5738 122.776 524.567
80 0 56.1072 11.6028 651 67.7988 123.33 522.857
81 0 58.0601 12.4354 722 66.6344 123.173 521.555
82 0 60.1429 11.8551 713 66.4951 123.71 523.201
83 0 61.0468 12.8262 783 65.8174 123.105 520.659
84 0 63.1815 13.3742 845 65.0817 123.62 520.298
85 0 64.0508 12.9429 829 65.2449 123.877 521.637
86 0 69.0962 12.5188 865 65.2925 124.162 519.297
87 0 70.0641 14.4154 1010 63.9871 124.163 516.536
88 0 72.1058 12.4401 897 66.4181 123.821 515.817
89 0 72.0459 11.8813 856 67.9019 124.027 513.308
90 0 77.15 13.882 1071 64.8702 123.106 514.964
91 0 77.0724 12.1963 940 68.3766 123.718 513.408
92 0 81.0483 12.7455 1033 67.636 123.812 510.497
93 0 82.0446 11.9203 978 70.1114 123.608 508.835
94 0 84.088 11.5474 971 70.3368 123.566 510.726
95 0 89.1124 12.7816 1139 69.1089 123.722 508.457
96 1 42.0771 10.4808 441 71.9637 123.322 529.499
97 0 44.0254 10.9936 484 70.6777 124.213 529.353
98 0 45.0162 10.9294 492 71.5528 123.762 530.189
99 0 46.1053 11.9509 551 70.5808 124.113 529.514
100 0 48.0372 12.1989 586 70.8038 124.148 527.259
101 0 49.0388 12.174 597 70.9028 123.757 526.342
102 0 53.0288 13.7284 728 67.5536 123.754 525.834
103 0 54.0841 12.3696 669 70.2197 123.833 524.028
104 0 54.0459 13.3775 723 69.5339 124.481 522.744
105 0 58.0235 12.426 721 69.5257 124.11 524.487
106 0 58.0709 12.0026 697 71.0832 124.126 522.499
107 0 61.07 12.6412 772 70.1088 124.798 521.342
108 0 62.0836 12.3865 769 70.9857 124.124 519.534
109 0 63.0603 13.5426 854 69.5234 124.504 519.092
110 0 64.1026 12.3084 789 70.7719 123.242 520.213
111 0 66.0855 12.7865 845 71.0308 122.214 517.67
112 0 70.1211 13.1344 921 70.5309 123.29 517.545
113 0 71.0408 12.4999 888 70.9707 123.6 516.59
114 0 72.1548 11.4753 828 73.4155 123.368 514.467
115 0 75.0676 13.348 1002 70.9501 123.621 513.183
116 0 76.075 12.6323 961 72.8117 123.139 514.647
117 0 79.0916 12.9976 1028 72.1654 124.599 511.943
118 0 83.1275 13.365 1111 71.288 124.637 511.373
119 0 84.2447 13.1047 1104 72.5226 124.748 509.231
120 0 85.0708 12.8599 1094 73.9616 124.214 506.564
121 1 44.0704 12.5935 555 71.5658 123.679 528.198
122 0 46.0528 12.464 574 71.101 124.528 527.92
123 0 47.0377 12.1817 573 71.0908 124.099 526.511
124 0 49.0771 11.9608 587 71.0698 125.055 526.75
125 0 50.0502 13.6063 681 69.0822 123.636 524.561
126 0 49.2156 10.7689 530 73.7981 123.455 526.106
127 0 54.0823 12.407 671 70.0373 123.504 524.721
128 0 54.0478 13.0255 704 69.3977 123.474 523.891
129 0 54.2426 11.6882 634 72.8438 124.148 522.065
130 0 54.0346 12.0108 649 72.4299 123.943 521.995
131 0 58.0215 13.0296 756 70.3796 122.738 522.57
132 0 59.0562 11.9886 708 71.6723 123.496 521.917
133 0 62.0606 12.9228 802 70.3778 123.943 518.364
134 0 61.0303 10.929 667 73.7166 123.193 519.928
135 0 65.0591 13.6184 886 70.5429 123.144 516.754
136 0 69.0692 12.7698 882 70.9444 123.88 516.965
137 0 68.164 12.7193 867 71.9885 124.21 515.679
138 0 73.1256 12.499 914 72.2834 123.953 514.423
139 0 74.0839 13.0798 969 71.6471 123.76 513.304
140 0 77.1291 13.7951 1064 70.5648 124.628 514.183
141 1 40.0343 11.5651 463 73.1857 124.572 530.492
142 0 40.0247 9.51911 381 76.1864 124.344 530.341
143 0 43.0202 11.6922 503 74.3956 123.394 527.258
144 0 44.0253 11.9931 528 73.1553 123.822 528.483
145 0 44.1203 11.6273 513 73.768 124.548 528.83
146 0 43.0494 10.337 445 78.5214 124.133 526.148
147 0 47.0229 11.8666 558 75.4014 124.122 526.029
148 0 48.0803 12.4375 598 74.704 123.639 525.948
149 0 48.128 12.633 608 75.0164 123.641 524.229
150 0 51.0589 11.8295 604 75.6275 123.321 524.308
151 0 52.1831 11.6321 607 76.1153 124.527 524.407
152 0 53.0766 11.8508 629 75.7202 123.757 523.733
153 0 56.1685 12.1598 683 75.2767 123.836 522.346
154 0 58.1151 12.5441 729 74.4115 122.962 523.136
155 0 58.0592 12.1428 705 74.7021 123.089 523.475
156 0 60.1411 12.0051 722 75.7839 124.427 521.874
157 0 62.0357 13.2988 825 72.6533 123.865 520.841
158 0 65.0756 12.6161 821 73.0268 124.313 519.717
159 0 66.0684 11.8665 784 75.1837 124.425 518.189
160 0 68.0664 12.003 817 75.0208 124.308 516.417
161 0 69.0983 11.7803 814 76.398 124.688 516.075
162 0 73.0868 11.9173 871 75.6074 123.854 514.896
163 0 75.0579 11.6177 872 76.4369 124.103 512.732
164 0 77.1272 12.3303 951 74.7634 124.658 514.333
165 1 41.0399 10.7944 443 75.0519 125.099 529.749
166 0 41.0628 12.0791 496 74.4093 125.593 526.712
167 0 44.0478 11.8735 523 74.7553 125.778 527.727
168 0 44.0254 11.1072 489 76.6299 126.061 527.513
169 0 45.065 12.2933 554 75.3394 125.953 523.829
170 0 46.0308 10.7537 495 77.7354 125.513 526.655
171 0 48.0232 11.2862 542 74.8819 125.384 526.454
172 0 49.0294 11.8092 579 75.4663 125.038 524.454
173 0 51.0861 11.5687 591 76.198 124.611 522.509
174 0 52.03 11.3973 593 76.6307 124.845 523.659
175 0 53.0259 11.4661 608 75.8158 123.967 522.679
176 0 52.0817 10.7715 561 78.189 123.041 520.907
177 0 56.0544 12.7198 713 74.0645 123.491 520.628
178 0 57.0621 11.5488 659 77.0258 123.628 519.284
179 0 60.1506 11.5377 694 75.1023 124.012 521.218
180 0 61.1619 12.0009 734 74.9809 123.41 519.646
181 0 63.1304 11.2466 710 75.631 122.428 520.545
182 0 64.0653 11.5507 740 75.6622 122.707 517.405
183 0 64.057 11.6147 744 76.5551 121.867 517.896
184 0 69.0425 12.514 864 74.3171 121.727 516.759
185 0 70.1332 12.8042 898 73.4933 121.683 516.984
186 0 73.0582 14.0573 1027 71.4722 121.583 514.796
187 0 76.0973 13.7718 1048 71.5029 121.427 513.261
188 0 79.1495 13.822 1094 71.1408 121.336 512.515
189 0 80.0521 13.3163 1066 73.2336 121.622 510.024
190 0 83.1109 14.0896 1171 71.86 120.624 509.564
191 0 83.1008 12.202 1014 75.501 119.908 511.391
192 0 87.2503 12.6418 1103 74.4832 119.82 507.602
193 0 89.1172 14.8456 1323 71.4626 119.404 506.142
194 0 92.1183 13.2764 1223 73.2886 119.87 507.03
195 1 46.0876 10.5451 486 77.0062 119.521 529.163
196 0 49.1052 11.9947 589 75.1409 120.1 528.031
197 0 49.1209 11.4819 564 76.2926 120.629 528.558
198 0 54.091 13.3109 720 72.4958 120.192 527.764
199 0 52.0663 11.8695 618 76.1845 119.629 527.055
200 0 54.072 12.0025 649 74.584 119.498 527.834
201 0 57.1434 13.0549 746 72.9222 118.602 526.044
202 0 59.0773 11.6288 687 74.0946 118.448 527.702
203 0 60.1613 12.0177 723 73.9364 118.999 527.017
204 0 62.1834 12.3184 766 73.9778 118.884 524.881
205 0 62.0882 12.4822 775 73.7652 118.466 524.2
206 0 64.1029 11.9963 769 73.9883 119.615 524.021
207 0 66.158 12.6213 835 73.6144 119.85 521.944
208 0 68.1199 12.8303 874 71.9897 119.812 523.017
209 0 72.0681 13.4179 967 70.6422 119.916 522.389
210 0 73.2893 13.4945 989 71.27 118.639 517.917
211 0 75.2079 12.8444 966 70.7826 119.078 521.086
212 0 77.1846 12.6191 974 72.0503 119.082 518.471
213 0 79.1132 12.7412 1008 71.8194 118.337 518.179
214 0 83.1553 13.0238 1083 71.1838 117.704 516.125
215 0 83.1218 12.4035 1031 72.9243 118.024 516.436
216 0 86.1532 13.1858 1136 71.6866 117.653 514.739
217 1 46.0542 11.7687 542 73.2435 116.891 531.932
218 0 48.1437 11.1333 536 73.5784 116.517 532.463
219 0 50.0562 11.3273 567 73.8448 117.527 531.436
220 0 50.0362 11.3518 568 74.6954 117.062 530.532
221 0 52.087 12.0184 626 73.401 117.599 530.636
222 0 52.0462 12.412 646 73.9133 118.034 529.226
223 0 52.047 12.2005 635 75.2394 118.239 527.917
224 0 57.0984 13.2928 759 72.0935 117.715 526.428
225 0 57.072 13.5443 773 72.6559 117.649 525.929
226 0 57.0652 12.7573 728 73.897 117.874 524.841
227 0 61.1252 12.5807 769 73.9805 117.763 524.818
228 0 61.0716 13.1157 801 74.3571 117.848 521.697
229 0 62.1012 13.5424 841 73.2342 117.559 521.364
230 0 66.1234 11.8566 784 74.9924 117.311 523.071
231 0 66.1019 13.9179 920 72.5109 116.125 519.764
232 0 67.0813 13.1482 882 74.9274 118.052 517.366
233 0 71.1043 14.0498 999 72.0721 117.839 518.937
234 0 73.1595 13.2177 967 73.8428 116.881 517.678
235 0 73.0799 13.0268 952 75.3004 117.025 515.128
236 0 78.0801 13.1916 1030 74.2592 117.768 515.248
237 0 77.101 12.6587 976 75.708 117.108 514.1
238 0 81.191 13.6222 1106 73.7043 117.26 513.064
239 0 84.0955 13.7225 1154 72.948 117.574 511.795
240 0 85.0831 12.5642 1069 75.8775 117.225 510.694
241 1 46.0514 11.1832 515 78.5301 117.002 526.693
242 0 48.0856 10.5437 507 78.3748 118.156 527.345
243 0 49.0706 12.4107 609 75.711 117.864 525.686
244 0 50.0345 11.7519 588 77.3095 117.121 525.903
245 0 54.0469 12.8037 692 75.4827 117.701 523.293
246 0 53.0467 11.4051 605 78.7455 118.106 524.378
247 0 56.0835 13.4977 757 74.572 118.469 523.823
248 0 57.0651 13.0377 744 75.0699 118.141 524.999
249 0 58.0707 12.4159 721 77.2233 118.721 522.331
250 0 62.1067 13.0582 811 75.397 117.642 522.872
251 0 63.061 12.3056 776 76.759 118.101 521.885
252 0 64.0874 13.0291 835 75.5162 118.557 521.745
253 0 68.089 12.5424 854 75.5246 117.621 521.021
254 0 68.0775 12.7502 868 75.9009 119.154 519.773
255 0 70.0813 12.7566 894 75.6376 118.57 520.021
256 0 73.1913 11.3811 833 77.5618 118.25 520.103
257 0 74.1357 12.0185 891 76.752 119.138 516.957
258 0 79.0526 12.8395 1015 74.0837 118.834 516.338
259 0 79.0932 12.7192 1006 74.6163 118.204 515.372
260 0 82.2402 13.4606 1107 73.1545 118.756 514.53
261 1 42.0307 9.92132 417 76.458 119.106 533.017
262 0 44.022 11.6078 511 73.454 118.108 532.207
263 0 47.0596 10.5398 496 73.4335 118.192 533.946
264 0 46.0628 10.9416 504 74.0913 118.571 532.901
265 0 48.0293 11.4722 551 74.3503 117.361 528.632
266 0 49.0606 12.6782 622 71.7379 116.905 529.59
267 0 51.1203 12.05 616 71.901 116.89 529.362
268 0 51.1064 12.1316 620 73.7258 117.361 527.85
269 0 56.2317 12.6086 709 71.8858 118.408 528.463
270 0 55.0568 11.6062 639 74.2973 117.294 527.689
271 0 59.1119 12.1972 721 71.6824 118.187 527.305
272 0 59.1961 12.163 720 73.2069 117.117 523.81
273 0 60.0823 11.7339 705 74.3007 115.952 523.485
274 0 63.0484 12.6728 799 71.841 116.716 523.528
275 0 65.2119 12.5591 819 71.0672 116.726 524.27
276 0 66.0951 12.5123 827 71.3156 117.34 522.439
277 0 70.3304 13.1522 925 69.7816 116.84 520.084
278 0 71.1191 13.0907 931 70.4705 117.043 518.749
279 0 72.1636 13.2338 955 70.3937 116.952 517.136
280 0 75.2216 13.1478 989 69.3276 116.385 519.411
281 0 77.1729 13.6317 1052 68.9933 116.758 517.553
282 0 79.1167 11.7421 929 71.8052 116.945 517.453
283 0 83.037 13.0665 1085 69.5069 117.003 516.392
284 1 43.0364 10.2936 443 70.1761 117.084 533.93
285 0 43.0362 11.5484 497 68.1408 116.905 533.459
286 0 43.1089 10.0907 435 70.7195 116.444 534.161
287 0 47.0776 10.8969 513 68.3353 116.867 533.46
288 0 49.027 11.5447 566 68.0371 116.23 531.314
289 0 49.0514 11.2127 550 69.0545 116.884 530.093
290 0 51.138 12.0263 615 66.8585 116.681 531.48
291 0 51.0908 12.2918 628 67.199 117.083 530.744
292 0 54.1328 12.4139 672 66.5863 117.244 529.597
293 0 55.0694 11.2404 619 68.2116 117.283 528.242
294 0 56.064 11.1301 624 68.6619 117.3 527.792
295 0 58.0378 10.7172 622 68.4695 117.204 525.026
296 0 59.0786 10.4945 620 68.2064 116.795 526.116
297 0 63.0794 11.8739 749 65.3992 116.343 523.947
298 0 64.1048 12.1832 781 65.3022 116.238 523.083
299 0 68.0825 12.2205 832 64.8438 116.026 521.947
300 0 69.051 11.6436 804 64.8346 116.407 522.522
301 0 70.0489 11.8917 833 64.8523 116.394 519.944
302 0 73.0909 11.1915 818 65.5293 114.934 519.885
303 0 74.0377 12.21 904 64.3164 114.778 518.223
304 0 75.0424 11.8067 886 64.6919 115.176 516.214
305 0 78.3015 12.2092 956 64.2019 115.155 515.013
306 1 42.0812 10.8837 458 64.6376 115.434 532.622
307 0 43.0324 10.5734 455 64.3121 115.655 532.664
308 0 43.025 11.0866 477 64.4444 116.283 533.006
309 0 45.0683 10.9389 493 65.3773 115.704 531.213
310 0 46.0333 10.84 499 64.7575 116.357 532.784
311 0 47.025 12.8442 604 63.7185 115.775 529.05
312 0 48.0247 11.7231 563 65.4742 115.714 528.677
313 0 49.0648 12.5345 615 65.0585 115.75 526.036
314 0 52.0582 13.1584 685 63.2876 116.158 527.547
315 0 52.1695 11.6735 609 65.4581 116.205 527.34
316 0 55.0684 12.0396 663 65.3891 115.885 527.09
317 0 57.0553 11.9183 680 65.7794 116.465 526.197
318 0 55.0359 11.5743 637 67.5212 116.036 523.76
319 0 60.0709 13.7338 825 63.6206 116.322 523.265
320 0 60.0414 12.3581 742 66.4326 115.581 522.965
321 0 60.105 11.4466 688 68.2049 115.714 522.744
322 0 65.0502 11.8524 771 66.9961 116.03 523.318
323 0 64.0727 10.5661 677 69.5524 115.996 521.278
324 0 68.1295 12.9019 879 66.2708 115.84 520.985
325 0 69.1629 12.738 881 67.294 116.158 519.899
326 0 70.0924 13.3966 939 67.2705 116.99 516.149
327 0 72.0462 11.3538 818 70.0807 116.446 517.694
328 0 76.1122 12.2057 929 68.7772 116.629 518.001
329 0 77.0853 13.0116 1003 68.7966 115.749 514.152
330 0 82.0862 12.694 1042 68.6766 116.06 516.11
331 0 84.2764 13.3608 1126 68.3197 115.725 511.368
332 0 86.1682 13.0675 1126 68.9689 115.571 511.698
333 1 44.028 10.9249 481 70.7672 116.439 532.601
334 0 47.0646 11.4311 538 70.7342 116.554 529.037
335 0 48.026 11.3272 544 70.1011 115.919 530.246
336 0 50.0655 11.1654 559 70.0465 116.111 530.724
337 0 51.0734 11.9828 612 70.9363 115.938 526.343
338 0 52.0899 11.7297 611 71.8003 115.511 525.948
339 0 55.0993 11.4339 630 71.6857 116.224 527.036
340 0 55.0978 12.9588 714 69.7255 116.725 525.646
341 0 58.1944 11.2897 657 71.2709 116.409 525.469
342 0 59.1053 12.1817 720 70.25 116.582 524.604
343 0 61.1097 12.1585 743 70.8708 116.806 521.965
344 0 62.0878 12.3857 769 69.5319 116.566 522.241
345 0 64.0707 11.9555 766 69.6423 116.337 522.663
346 0 66.198 13.369 885 68.5774 116.067 519.436
347 0 68.1591 12.6029 859 69.7579 115.719 516.787
348 0 71.0774 11.5508 821 70.0816 116.446 520.021
349 0 72.1127 12.2725 885 70.5797 115.385 513.794
350 0 77.1003 12.2179 942 68.7049 116.213 515.157
351 0 77.1313 11.2406 867 70.6113 116.519 513.293
352 0 82.1473 12.295 1010 68.0257 115.766 512.417
353 0 83.0914 11.698 972 69.1605 116.438 513.228
354 0 86.1555 12.9533 1116 67.4624 116.649 510.436
355 0 89.171 12.1789 1086 68.6298 116.607 508.831
356 0 94.1061 13.3148 1253 66.312 116.837 505.27
357 0 95.137 13.3702 1272 66.8978 116.581 507.371
358 1 53.0616 11.9107 632 66.9937 117.259 525.521
359 0 53.0269 11.9751 635 66.7087 117.436 528.324
360 0 56.0606 11.8087 662 66.9305 117.369 527.213
361 0 56.0285 11.5834 649 68.7966 117.274 524.254
362 0 57.0195 10.8384 618 70.5307 117.011 524.351
363 0 58.06 10.3686 602 71.3837 117.982 523.621
364 0 60.0404 12.0585 724 69.5124 117.779 521.298
365 0 62.1041 11.9799 744 69.7715 117.582 519.63
366 0 64.0428 12.0388 771 69.1323 118.403 520.852
367 0 66.0872 11.8177 781 69.9616 117.706 519.155
368 0 70.053 13.8467 970 65.9856 117.854 517.858
369 0 70.061 13.3883 938 67.2729 117.701 518.894
370 0 73.1898 12.2285 895 68.4436 117.301 515.88
371 0 73.19 13.1712 964 68.2033 117.01 515.517
372 0 78.082 13.4218 1048 67.1126 117.184 515.455
373 0 79.176 12.769 1011 68.6469 116.625 513.785
374 0 80.0632 10.8789 871 71.6452 116.814 513.23
375 0 81.1506 11.4602 930 71.1387 117.451 511.376
376 1 44.0344 10.5599 465 66.6237 117.585 534.331
377 0 44.0469 10.6931 471 68.5987 117.843 530.478
378 0 46.0252 11.0157 507 67.3964 117.103 529.815
379 0 46.0765 10.0268 462 69.2727 117.251 530.128
380 0 46.0306 10.2541 472 69.8136 116.697 527.638
381 0 47.0819 10.5986 499 69.5952 116.868 527.373
382 0 52.1153 12.1078 631 66.5436 116.098 526.783
383 0 51.0394 10.0903 515 69.8505 116.252 526.66
384 0 54.0249 11.0134 595 68.8487 116.795 525.704
385 0 55.0761 12.056 664 67.9699 115.773 523.913
386 0 57.0555 12.1285 692 67.2731 116.86 522.227
387 0 59.0672 11.6647 689 67.8374 116.659 523.682
388 0 59.0768 10.6641 630 69.4 116.641 522.705
389 0 63.0478 13.466 849 64.7397 115.899 522.283
390 0 64.1046 11.6528 747 67.9411 116.672 520.333
391 0 66.0286 11.5253 761 68.2155 117.39 519.047
392 0 68.0599 13.062 889 65.9449 116.758 517.196
393 0 67.0511 11.4987 771 69.153 116.503 515.724
394 0 73.1459 12.5639 919 65.889 116.201 517.028
395 0 75.0683 12.1623 913 66.5586 117.302 515.336
396 0 75.0603 11.4708 861 68.0546 117.108 512.314
397 0 77.0718 10.2891 793 69.0618 117.382 514.178
398 0 81.1333 11.894 965 66.858 116.948 512.445
399 1 41.0804 10.5403 433 66.4919 117.076 532.829
400 0 43.0291 10.4116 448 66.192 116.801 530.612
401 0 43.0701 10.7267 462 65.2338 116.892 530.916
402 0 44.0346 10.3555 456 66.046 117.647 528.77
403 0 49.0467 11.54 566 63.2686 117.793 529.638
404 0 48.1289 10.8043 520 65.2 117.838 528.287
405 0 50.0785 11.6817 585 64.2769 117.928 527.966
406 0 51.1191 11.8938 608 64.3898 117.567 526.872
407 0 53.0672 11.476 609 64.9425 117.54 526.703
408 0 54.1131 11.476 621 65.211 117.512 526.127
409 0 54.1011 11.5709 626 66.1006 117.15 524.032
410 0 56.108 11.264 632 66.3165 116.544 525.051
411 0 58.0917 11.6712 678 65.6077 116.92 522.075
412 0 60.0864 11.8663 713 65.0743 116.952 522.074
413 0 60.1576 12.0351 724 65.1202 116.836 524.044
414 0 62.0531 12.6343 784 64.6084 117.069 522.267
415 0 65.1222 11.5168 750 66.108 116.727 519.528
416 0 65.065 11.1427 725 67.2193 117.411 519.305
417 0 68.1295 12.5203 853 65.0938 117.981 518.558
418 0 70.1086 11.4109 800 66.5725 117.712 520.514
419 0 73.0717 12.7409 931 64.3684 117.496 519.76
420 1 37.0184 9.48176 351 67.8889 116.789 533.986
421 0 38.0585 11.5612 440 65.7591 116.948 533.452
422 0 39.0145 10.3295 403 67.5285 117.077 534.454
423 0 41.1143 10.6532 438 66.3813 116.753 533.514
424 0 44.0935 11.8612 523 64.6119 116.26 532.272
425 0 45.0335 10.9252 492 66.1829 117.132 532.766
426 0 46.0559 11.8986 548 65.1642 117.115 531.21
427 0 46.0291 11.8621 546 66.6282 117.822 530.544
428 0 49.042 11.9489 586 65.4727 117.58 529.251
429 0 50.0277 12.1932 610 65.9066 116.816 527.554
430 0 51.0172 11.8783 606 65.8993 118.018 528.37
431 0 52.037 11.684 608 66.1678 118.196 527.701
432 0 54.0206 11.9214 644 65.8121 118.461 526.557
433 0 55.0258 11.1402 613 67.3295 118.121 526.073
434 0 57.0418 11.5003 656 66.1296 117.512 526.587
435 0 59.0988 12.2676 725 65.5531 118.019 524.589
436 0 59.0949 11.5408 682 67.085 117.993 523.12
437 0 62.0137 13.8679 860 63.6372 118.443 522.97
438 0 64.058 10.8183 693 68.3492 118.205 521.609
439 0 66.05 12.2634 810 65.9617 118.011 520.748
440 0 69.365 11.9657 830 66.3626 116.802 519.616
441 0 73.1855 12.1062 886 66.053 117.287 519.975
442 0 75.0995 14.1812 1065 63.2235 117.7 517.831
443 0 74.0544 12.2883 910 66.2582 118.262 516.776
444 0 79.1294 13.6612 1081 63.9232 117.49 515.001
445 0 80.1494 13.138 1053 64.8661 117.197 515.011
446 1 39.1076 10.6373 416 67.3389 117.584 533.099
447 0 41.0384 11.5258 473 65.6956 117.243 533.347
448 0 44.137 11.419 504 65.4802 116.921 531.766
449 0 44.0611 11.3933 502 66.3068 116.94 530.968
450 0 44.0843 11.41 503 66.9384 118.05 528.74
451 0 44.0417 10.4901 462 68.5736 117.593 530.344
452 0 47.0432 11.6489 548 66.6332 117.67 529.206
453 0 46.0428 12.3581 569 66.9174 117.606 527.652
454 0 49.0426 12.0508 591 66.9594 117.095 527.616
455 0 51.1 13.3072 680 64.0824 118.162 527.831
456 0 51.1643 12.9973 665 65.7654 117.439 526.728
457 0 52.071 13.0783 681 65.0602 117.463 527.975
458 0 55.1572 12.4191 685 65.6292 117.666 525.276
459 0 57.0499 13.1289 749 64.0427 117.734 523.959
460 0 57.0581 12.6713 723 65.7593 116.598 522.625
461 0 58.0477 12.0418 699 66.3863 116.798 522.833
462 0 59.0746 12.1372 717 67.1743 117.123 520.813
463 0 60.071 11.3199 680 67.5162 116.168 522.334
464 0 62.1388 13.3411 829 65.316 115.96 518.318
465 0 64.1175 12.4303 797 66.4668 116.021 516.509
466 0 66.1246 12.053 797 66.8783 117.048 518.646
467 0 69.1625 13.1719 911 64.8364 117.449 517.681
468 0 70.0716 12.3017 862 66.5336 117.323 515.499
469 1 38.0372 10.148 386 67.9845 117.101 532.798
470 0 37.0252 9.18295 340 70.8706 116.597 530.465
471 0 43.0488 11.4289 492 65.376 117.559 532.362
472 0 43.0621 10.9145 470 65.3617 117.072 534.143
473 0 45.0346 13.6784 616 63.4951 116.786 532.427
474 0 45.0113 11.4638 516 66.7481 116.607 530.422
475 0 47.0548 11.561 544 66.5018 117.528 530.298
476 0 48.1716 12.2271 589 66.3039 115.978 527.655
477 0 51.0738 12.4721 637 65.6593 116.62 530.447
478 0 51.0479 12.2042 623 65.9358 116.806 530.136
479 0 51.0522 12.1248 619 66.6898 116.733 529.89
480 0 53.0609 11.9485 634 67.0047 116.576 528.263
481 0 54.1132 12.5847 681 67.3113 115.915 527.64
482 0 58.0947 12.91 750 65.8773 115.855 525.655
483 0 58.0354 11.6825 678 68.7876 116.866 524.734
484 0 60.0412 12.2249 734 67.2956 116.781 524.424
485 0 62.1696 13.431 835 65.9353 116.644 523.235
486 0 64.1736 12.6843 814 66.5725 117.509 522.956
487 0 67.0546 12.3034 825 67.0352 117.205 521.926
488 0 69.0591 13.293 918 65.8954 116.948 520.856
489 0 71.0672 13.0018 924 65.421 117.121 523.045
490 0 72.0889 13.0672 942 66.0934 116.987 520.017
491 0 73.0893 13.8734 1014 66.1252 116.512 517.112
492 0 75.0577 12.8568 965 67.0756 117.239 515.95
493 0 75.0978 12.4771 937 68.5165 115.978 515.798
494 1 37.0172 10.6437 394 68.3655 117.249 535.574
495 0 39.0222 10.7375 419 67.7232 117.661 534.499
496 0 38.0395 11.3566 432 68.9444 115.565 533.303
497 0 41.0127 11.2648 462 68.1277 116.374 534.123
498 0 40.0217 11.4938 460 68.7217 116.789 532.504
499 0 42.0161 12.2096 513 68.0916 117.008 532.267
500 0 42.0231 11.2319 472 69.947 117.066 529.816
501 0 45.0568 12.4509 561 67.959 116.604 530.007
502 0 43.111 10.9253 471 71.6794 117.157 529.467
503 0 48.0244 11.6191 558 69.6093 116.285 530.238
504 0 50.0703 12.3826 620 68.7774 116.598 528.781
505 0 50.1224 12.4695 625 68.376 116.885 529.528
506 0 51.0869 11.6468 595 69.563 117.649 528.536
507 0 53.1781 12.4111 660 68.8591 117.042 525.836
508 0 55.1008 11.8329 652 69.3252 116.791 525.218
509 0 56.1706 11.7143 658 69.81 116.427 526.204
510 0 57.1744 12.0683 690 69.4928 115.974 523.246
511 0 62.0932 12.9805 806 66.66 115.984 525.924
512 0 62.0837 11.0174 684 69.8904 116.415 523.933
513 0 64.054 13.1295 841 67.0499 115.73 521.392
514 0 67.0733 12.8814 864 67.8646 116.552 521.051
515 0 70.0903 13.1259 920 66.3304 116.386 522.649
516 0 73.0722 13.1788 963 66.4392 116.352 519.733
517 0 76.1028 13.4686 1025 65.7961 116.502 519.324
518 0 77.0996 12.1272 935 68.3144 117.175 517.321
519 0 79.12 13.0561 1033 66.8461 116.545 518.089
520 1 40.1013 11.3961 457 67.5208 116.468 534.033
521 0 42.0536 10.7482 452 68.1903 117.321 534.878
522 0 44.0569 11.2582 496 67.5262 117.405 533.804
523 0 45.0219 12.7938 576 64.6285 116.922 535.314
524 0 46.0271 12.0146 553 66.6835 117.105 533.156
525 0 45.079 10.7811 486 68.7572 116.905 531.449
526 0 49.0932 12.4457 611 66.9836 116.723 528.856
527 0 49.076 11.472 563 68.0995 116.629 529.941
528 0 49.0731 11.3708 558 68.5591 116.195 529
529 0 50.0346 12.4914 625 66.192 117.006 529.83
530 0 54.0556 12.0247 650 67.0862 117.011 527.882
531 0 57.0279 12.187 695 65.9194 117.309 528.023
532 0 59.069 12.3415 729 65.0864 116.487 528.968
533 0 59.0592 11.3953 673 67.5676 116.688 525.805
534 0 58.0565 12.1778 707 67.5997 116.707 524.072
535 0 61.1048 13.4032 819 65.9683 116.48 522.278
536 0 63.0725 12.1923 769 67.2419 116.8 522.303
537 0 68.0747 12.2659 835 65.9281 116.879 523.135
538 0 68.1136 11.5983 790 67.2253 116.253 522.696
539 0 69.1598 12.5073 865 66.067 116.164 522.262
540 0 71.1543 12.227 870 66.6736 116.141 519.251
541 0 74.0965 12.9561 960 65.9677 116.442 518.214
542 0 76.1105 12.1008 921 67.3236 115.825 516.434
543 0 78.0779 12.6156 985 67.0173 116.981 517.426
544 0 80.0488 11.8178 946 67.8985 116.921 517.383
545 0 80.0676 9.50446 761 70.5598 117.231 518.419
546 0 86.0745 12.4892 1075 67.6921 116.504 514.239
547 0 87.1206 13.0623 1138 67.7408 116.054 512.981
548 0 88.072 11.1159 979 70.5832 116.404 510.843
549 0 91.1332 11.9825 1092 69.4963 116.033 510.438
550 1 49.0373 10.4818 514 69.9689 116.109 530.477
551 0 51.1102 11.3285 579 68.8636 116.326 529.738
552 0 52.0822 12.0771 629 68.8029 115.847 528.305
553 0 52.0619 11.4287 595 68.795 116.63 529.63
554 0 56.0975 12.5317 703 68.2105 117.05 526.071
555 0 57.0902 11.9635 683 68.7877 117.359 525.079
556 0 59.0832 12.7278 752 67.6423 117.231 524.481
557 0 59.1085 10.6414 629 70.3084 116.941 525.385
558 0 63.1765 11.6974 739 69.5399 116.418 522.894
559 0 65.0223 12.3189 801 68.8464 116.323 522.271
560 0 68.0473 11.4626 780 68.8756 115.858 521.935
561 0 70.0814 12.0146 842 68.614 117.064 521.287
562 0 73.0675 12.8785 941 67.864 117.173 518.853
563 0 74.1545 11.8267 877 69.9487 116.819 516.081
564 0 76.0907 10.5269 801 72.1685 116.134 518.218
565 1 41.0208 10.385 426 70.5423 116.669 531.728
566 0 41.0625 9.71688 399 71.3133 116.471 531.727
567 0 44.0386 11.2855 497 68.3803 116.634 531.394
568 0 45.0351 11.3689 512 69.4688 116.193 530.182
569 0 46.0432 9.64311 444 71.1802 116.419 532.351
570 0 50.0996 11.5769 580 67.9466 116.467 531.795
571 0 51.0865 11.0597 565 69.3876 115.947 529.547
572 0 53.0744 11.1918 594 69.2273 117.01 528.354
573 0 54.124 11.6954 633 69.1943 116.725 526.313
574 0 56.2475 13.1739 741 66.6424 116.708 526.524
575 0 58.1092 12.6314 734 67.9959 117.402 525.23
576 0 58.0385 10.4586 607 70.9292 117.265 525.998
577 0 61.077 11.4937 702 69.1254 117.568 523.489
578 0 62.0662 11.1977 695 69.5252 118.027 524.124
579 0 65.103 12.7183 828 66.9601 118.057 522.072
580 0 67.2092 13.4208 902 65.7018 119.479 520.369
581 0 69.1697 12.1296 839 67.093 119.024 521.284
582 0 71.1096 14.4566 1028 63.5156 119.342 519.893
583 0 72.0419 11.6182 837 67.638 119.124 517.901
584 0 74.0517 11.9646 886 67.6422 118.191 515.04
585 0 78.0368 12.5966 983 66.3032 118.112 514.127
586 0 80.0547 11.9793 959 67.1397 118.177 515.28
587 0 82.1211 12.3111 1011 67.3007 118.453 511.262
588 0 84.1157 13.4814 1134 65.5018 117.895 509.179
589 1 44.0831 11.3649 501 66.7046 116.721 529.719
590 0 45.0138 8.97502 404 68.9208 116.983 531.564
591 0 48.035 12.2827 590 65.2424 117.368 528.042
592 0 49.0148 10.7111 525 68.381 117.046 528.202
593 0 51.0738 11.6302 594 66.6027 117.973 526.411
594 0 52.0725 12.0793 629 67.1812 117.984 526.924
595 0 52.0959 12.4578 649 67.3652 117.609 522.817
596 0 56.0283 11.3871 638 67.2273 117.042 526.723
597 0 56.0209 12.7988 717 66.0321 117.502 525.618
598 0 58.0305 11.0976 644 68.6475 117.348 524.422
599 0 57.2034 11.293 646 68.9319 117.31 523.42
600 0 61.0445 12.6301 771 66.3761 116.243 523.734
601 0 62.0602 11.6177 721 68.4105 116.813 522.069
602 0 66.129 13.4132 887 65.1905 117.416 521.933
603 0 67.0557 13.541 908 65.4361 117.678 518.577
604 0 70.1235 13.4049 940 64.7181 117.666 519.76
605 0 69.0877 12.3321 852 67.1808 117.859 518.115
606 0 73.0867 12.6836 927 66.0194 117.458 516.786
607 0 74.0465 11.8169 875 66.6469 116.769 519.918
608 0 77.0686 12.3397 951 66.1441 117.362 516.955
609 0 79.2549 12.9834 1029 65.0019 117.592 514.879
610 1 42.0166 10.4482 439 66.5626 118.727 533.802
611 0 43.0311 11.9216 513 66.4172 117.986 532.458
612 0 44.0589 11.3711 501 67.2016 118.052 531.038
613 0 46.076 11.8283 545 66.1706 118.374 529.941
614 0 47.0202 10.8889 512 67.041 118.141 531.199
615 0 46.0319 11.5789 533 67.0863 119.039 529.722
616 0 48.058 10.8827 523 67.5277 118.805 526.941
617 0 52.044 13.0467 679 63.8851 118.748 527.554
618 0 54.0838 11.9814 648 65.1404 118.046 527.279
619 0 52.0289 12.3969 645 65.7892 117.268 523.972
620 0 55.0152 12.6329 695 64.4849 117.662 525.673
621 0 57.0395 14.0604 802 63.1596 118.1 522.066
622 0 58.0781 13.6196 791 63.531 117.57 521.638
623 0 60.0551 13.038 783 64.2708 117.111 522.193
624 0 61.0307 12.0595 736 65.1073 117.697 523.611
625 0 64.1272 12.6156 809 63.1978 118.263 523.428
626 0 65.1342 12.9425 843 63.5516 117.631 520.158
627 0 68.1592 13.2777 905 62.2188 117.976 519.644
628 0 67.0768 13.4324 901 62.0122 117.198 521.225
629 0 72.1851 13.1329 948 62.0833 117.766 518.078
630 0 72.081 13.8455 998 61.8427 117.533 515.177
631 0 74.1066 13.4806 999 61.9409 117.887 514.65
632 0 76.1147 12.7439 970 62.3918 117.162 516.53
633 0 79.0528 12.9787 1026 62.6647 118.459 513.212
634 0 79.1251 12.4739 987 63.6981 118.81 512.19
635 1 43.0584 11.8676 511 62.0489 119.303 530.564
636 0 43.1384 11.5674 499 61.9619 118.778 530.619
637 0 44.0736 11.9573 527 62.3226 119.672 530.127
638 0 46.0827 10.1991 470 63.9553 119.649 530.6
639 0 47.1414 11.561 545 62.7358 118.563 527.288
640 0 48.1303 12.7155 612 61.1291 118.681 527.61
641 0 52.1453 14.076 734 59.1185 118.937 526.542
642 0 52.1319 13.7344 716 60.6886 117.957 523.284
643 0 53.0812 12.1323 644 62.3463 118.071 527.014
644 0 53.1515 13.2075 702 61.2778 117.017 524.426
645 0 55.0601 12.5681 692 61.6084 117.948 527.634
646 0 58.1064 12.1501 706 62.9674 117.816 523.868
647 0 58.1224 12.9726 754 61.9828 117.357 522.691
648 0 61.0697 12.6413 772 62.0259 117.63 523.17
649 0 62.0641 12.8093 795 61.9132 118.099 521.776
650 0 65.0944 13.4881 878 60.4749 118.006 522.95
651 0 63.0932 12.1249 765 63.6967 118.818 519.881
652 0 67.255 12.5046 841 62.6908 118.325 518.904
653 0 69.1614 12.8251 887 62.1939 118.496 517.942
654 0 71.1576 12.6199 898 62.8252 118.643 516.306
655 0 74.1655 14.4272 1070 60.6682 118.32 515.72
656 0 75.1046 13.1683 989 62.4368 117.8 515.297
657 0 80.1327 13.0783 1048 62.3798 118.529 513.594
658 0 80.052 13.3663 1070 63.0411 118.092 513.495
659 0 84.1756 13.0917 1102 62.7278 117.5 514.546
660 1 48.137 11.7789 567 63.9788 118.099 532.035
661 0 48.0612 11.8599 570 65.821 118.598 527.898
662 0 52.2 14.2912 746 62.2721 118.574 527.722
663 0 51.1177 12.2854 628 65.965 118.279 525.72
664 0 54.1067 13.6212 737 64.1411 118.45 525.514
665 0 55.0612 12.9674 714 64.9062 118.276 525.595
666 0 53.1618 11.8882 632 67.4415 118.247 525.193
667 0 58.1951 12.8877 750 66.384 118.257 523.968
668 0 60.1942 13.6724 823 65.7679 118.154 523.383
669 0 62.1084 13.1061 814 65.8022 118.323 524.512
670 0 64.0808 12.3126 789 67.9366 118.465 521.967
671 0 66.1575 13.09 866 66.8048 118.271 521.092
672 0 66.1214 12.7795 845 68.6071 118.224 520.178
673 0 69.1037 12.8358 887 67.9662 118.504 519.343
674 0 72.1532 14.0396 1013 66.1599 119.057 517.877
675 0 73.1272 13.9346 1019 66.4151 118.171 517.778
676 0 76.093 13.6149 1036 66.4894 118.157 518.082
677 0 75.1346 12.5774 945 69.3598 118.473 515.121
678 0 81.1632 12.5057 1015 68.0966 118.183 513.085
679 0 82.1166 13.1398 1079 67.392 117.733 512.599
680 0 85.0863 13.7625 1171 66.205 117.661 512.499
681 0 86.1669 12.998 1120 67.5821 118.474 512.332
682 0 89.1376 13.294 1185 67.5679 118.754 508.344
683 0 92.2043 13.4376 1239 67.1372 119.064 507.637
684 1 46.0332 11.0138 507 67.3905 119.677 528.706
685 0 46.0374 11.2952 520 67.8981 119.296 529.381
686 0 49.1193 11.5433 567 66.9859 119.076 528.958
687 0 51.0331 11.7571 600 66.865 119.032 525.39
688 0 51.0361 11.9523 610 67.4754 117.839 526.236
689 0 53.0768 12.2087 648 66.3194 118.525 528.11
690 0 55.1508 11.9309 658 66.3647 118.664 527.895
691 0 57.1904 11.7502 672 66.0699 119.501 528.75
692 0 60.0964 11.5481 694 66.4539 120.016 527.306
693 0 61.0832 11.0996 678 66.9602 118.861 526.737
694 0 61.1054 11.4065 697 67.8336 118.462 523.96
695 0 66.1302 12.0822 799 65.6471 118.325 523.408
696 0 66.1637 13.4213 888 63.9043 117.3 522.818
697 0 68.0892 12.2633 835 65.7545 117.758 522.058
698 0 69.1369 12.5403 867 65.7728 118.34 519.81
699 0 71.0724 13.3244 947 65.1151 117.366 518.899
700 0 72.0952 12.3587 891 65.963 118.026 517.73
701 0 74.1245 11.1434 826 67.5738 118.824 516.171
702 0 74.0742 13.446 996 65.0884 118.359 515.758
703 0 77.0771 13.5319 1043 64.6203 118.208 514.959
704 0 81.0687 13.7661 1116 63.6138 118.323 514.591
705 0 81.1256 12.5484 1018 65.7279 118.077 512.113
706 0 86.1416 13.1992 1137 65.0809 118.412 510.483
707 0 87.1252 13.1764 1148 64.6803 117.868 512.962
708 0 88.1117 13.0062 1146 65.8709 117.442 509.524
709 0 91.2113 12.4765 1138 66.0387 118.012 508.159
710 0 95.3498 12.8369 1224 65.5172 118.109 509.302
711 1 46.1032 11.8213 545 66.3101 118.233 532.741
712 0 49.0567 12.5365 615 66.1968 118.078 530.354
713 0 50.0577 13.3446 668 65.8024 118.394 529.229
714 0 51.0708 12.6099 644 67.3028 118.05 529.72
715 0 53.0735 12.3602 656 67.4207 118.348 530.073
716 0 54.1134 12.8434 695 67.4403 117.896 528.278
717 0 54.0473 13.7287 742 66.6739 118.27 527.076
718 0 56.1296 12.1683 683 68.896 118.059 526.316
719 0 59.0983 15.0766 891 64.0606 117.842 527.221
720 0 59.0483 12.5829 743 68.1992 117.987 525.822
721 0 60.0726 12.9177 776 68.3273 117.832 522.674
722 0 63.1 13.8827 876 66.6895 117.871 522.731
723 0 66.1745 15.3231 1014 63.998 117.301 521.07
724 0 65.1155 12.1323 790 68.7722 117.228 522.27
725 0 69.1045 12.9514 895 67.2447 117.437 520.708
726 0 72.2011 12.5621 907 67.3197 117.885 519.669
727 0 72.1394 12.3927 894 67.2942 118.461 520.63
728 0 74.138 12.6656 939 67.3259 117.852 519.118
729 0 78.165 13.2924 1039 66.2117 117.676 516.962
730 0 81.1496 12.8528 1043 66.4976 117.816 516.809
731 0 85.2281 13.3524 1138 65.7698 116.839 514.278
732 0 86.1179 13.795 1188 65.7348 116.962 510.03
733 1 41.2237 12.7111 524 67.3931 117.681 532.781
734 0 43.0195 12.6687 545 65.8807 117.635 533.914
735 0 42.0817 11.7628 495 67.7879 118.521 533.778
736 0 45.1136 11.8811 536 66.9142 118.756 532.744
737 0 47.1665 12.9541 611 65.761 118.859 530.604
738 0 46.0741 11.3947 525 68.221 118.137 531.682
739 0 47.042 11.7554 553 68.3183 118.203 530.042
740 0 50.0571 13.145 658 66.7356 118.318 528.881
741 0 49.163 11.4314 562 69.726 118.44 528.233
742 0 55.0971 14.175 781 64.9129 118.558 527.987
743 0 55.0736 12.5105 689 67.7344 118.199 527.524
744 0 57.1118 15.1282 864 64.316 117.985 525.888
745 0 58.0746 12.6389 734 68.0708 117.285 525.601
746 0 60.037 13.1419 789 67.3866 117.129 525.75
747 0 62.0657 13.4213 833 66.9964 116.205 526.127
748 0 62.0557 12.6016 782 69.2941 116.286 523.832
749 0 66.0271 13.8579 915 67.3137 117.392 523.807
750 0 67.1968 14.2715 959 66.853 117.48 521.853
751 0 69.1055 12.8789 890 69.4978 117.33 521.035
752 0 70.1151 13.2639 930 69.4613 117.539 520.763
753 0 71.0891 13.265 943 69.0095 118.195 522.751
754 0 72.079 12.4863 900 72.0067 117.187 519.651
755 0 74.056 13.7194 1016 70.6339 117.419 517.468
756 0 76.105 13.7836 1049 70.3966 117.572 518.06
757 0 78.2043 14.6923 1149 69.5231 117.162 517.742
758 0 77.1234 13.6534 1053 71.7274 117.973 517.841
759 0 79.0528 14.699 1162 70.043 118.153 516.923
760 0 81.2333 13.4551 1093 71.6606 117.755 517.738
761 0 80.0801 13.499 1081 72.7687 117.445 513.773
762 0 82.0876 14.1312 1160 71.7078 117.033 515.48
763 0 82.0826 13.3402 1095 73.4731 117.065 514.942
764 0 82.1578 13.1576 1081 73.988 117.863 514.397
765 0 85.0852 13.128 1117 73.3312 117.17 514.003
766 0 84.1685 12.7958 1077 74.3788 117.705 513.332
767 0 86.0716 12.2805 1057 74.7209 117.275 514.659
768 0 86.1047 13.3675 1151 73.3162 116.17 511.863
769 0 86.1408 14.0119 1207 72.314 116.373 510.654
770 0 87.1763 13.5587 1182 72.4932 116.397 512.036
771 0 90.0669 13.4789 1214 71.8806 117.053 513.923
772 0 90.1406 14.2666 1286 71.4914 117.725 509.609
773 0 91.121 13.2461 1207 72.0795 117.271 513.702
774 0 91.3131 12.2655 1120 74.3625 116.614 512.303
775 0 92.2765 14.8684 1372 70.4322 117.278 509.469
776 0 93.0966 12.5676 1170 73.2812 116.924 512.142
777 0 95.1389 14.1477 1346 70.4658 116.3 510.06
778 0 92.1421 12.6978 1170 73.4427 116.926 510.631
779 0 96.1095 15.524 1492 68.2138 117.263 509.278
780 0 94.1757 13.0607 1230 72.4122 116.929 508.763
781 0 95.2123 13.8848 1322 70.8457 117.172 509.3
782 0 97.1376 13.5993 1321 71.6858 117.558 511.273
783 0 93.2354 12.2378 1141 73.4014 117.826 508.138
784 0 97.1549 13.7204 1333 70.2341 117.133 509.698
785 0 96.2178 13.2408 1274 71.2441 117.711 508.041
786 0 98.1119 12.1494 1192 71.6284 117.179 510.028
787 0 100.2 14.9601 1499 67.3336 117.531 507.364
788 0 101.148 13.4259 1358 69.2334 117.273 507.638
789 0 101.214 15.3338 1552 66.5715 117.485 508.171
790 0 100.081 14.0685 1408 69.1222 116.761 506.019
791 0 99.1077 12.7841 1267 71.1792 117.085 505.504
792 0 101.179 12.5223 1267 70.7301 117.489 507.032
793 0 102.187 12.1542 1242 70.7923 117.136 507.317
794 0 103.135 14.0884 1453 67.9959 118.355 504.582
795 0 102.293 12.8846 1318 69.8976 117.863 503.186
796 0 102.153 13.3623 1365 69.3758 117.707 504.059
797 0 103.202 12.3932 1279 69.9844 117.348 508.011
798 0 103.092 14.0263 1446 67.9758 117.774 503.499
799 0 104.215 13.1171 1367 68.9144 117.639 504.557
800 0 105.313 13.7116 1444 67.8705 117.483 501.34
801 0 106.175 14.8246 1574 65.2662 118.027 505.785
802 0 104.171 13.6891 1426 67.8724 117.173 503.367
803 0 105.185 13.6997 1441 67.9993 117.978 502.856
804 0 106.175 13.9298 1479 67.2738 117.408 503.306
805 0 107.254 14.3118 1535 66.3264 117.349 501.625
806 0 105.188 12.1401 1277 69.5881 117.338 502.305
807 0 107.106 13.2952 1424 67.8399 117.742 500.968
808 0 104.249 12.0865 1260 69.9183 117.034 501.343
809 0 107.222 12.5441 1345 68.7108 117.07 503.275
810 0 106.186 13.3727 1420 67.4084 116.785 501.174
811 0 107.094 13.2314 1417 67.1016 117.683 500.806
812 0 110.128 12.3311 1358 67.363 118.024 505.043
813 0 110.175 12.8795 1419 66.5278 117.323 503.472
814 0 109.198 13.2969 1452 66.2438 117.337 501.124
815 0 110.139 12.0302 1325 67.2347 117.597 503.629
816 0 109.098 12.97 1415 66.947 117.381 500.399
817 0 110.118 13.313 1466 66.2367 117.102 499.104
818 0 112.269 13.3518 1499 66.1948 116.378 501.396
819 0 111.109 11.9973 1333 67.8575 116.412 505.106
820 0 110.169 11.7547 1295 68.0548 117.444 500.774
821 0 112.133 12.4852 1400 66.3457 117.87 501.408
822 0 112.169 12.5079 1403 66.5567 117.996 498.542
823 0 112.218 11.8341 1328 67.003 117.87 499.525
824 0 114.253 13.9428 1593 64.3126 117.512 498.357
825 0 113.205 12.8439 1454 65.2758 117.926 502.312
826 0 113.146 13.6018 1539 64.5731 117.743 498.845
827 0 114.147 12.8256 1464 65.3156 116.888 497.176
828 0 115.159 12.3829 1426 65.4832 116.752 500.776
829 0 113.272 13.322 1509 64.7283 116.83 496.068
