time division length width area intensity CMx CMy
0 0 51.0177 11.7018 597 57.0972 1029.78 506.352
1 0 50.0292 13.4521 673 55.1189 1029.41 508.288
2 0 52.08 12.5768 655 55.8244 1028.95 507.246
3 0 52.0599 10.3727 540 57.6944 1029.39 509.248
4 0 55.0358 11.9195 656 55.6082 1028.8 507.378
5 0 55.0586 13.2586 730 54.8562 1028.56 504.229
6 0 56.0214 11.0137 617 56.8558 1028.3 506.379
7 0 58.0553 10.9378 635 56.8976 1028.03 503.683
8 0 58.0482 10.9047 633 56.5782 1028.47 503.205
9 0 64.0978 13.8538 888 52.4414 1027.96 503.757
10 0 63.0666 12.8594 811 53.8545 1027.6 502.069
11 0 64.0487 12.2095 782 54.7852 1028.09 499.7
12 0 66.0698 11.2305 742 55.2642 1028.1 501.95
13 0 67.1125 12.5908 845 54.4083 1028 499.671
14 0 69.1165 13.1372 908 53.6344 1027.42 497.598
15 0 69.0843 12.492 863 54.1078 1028.34 500.64
16 0 71.0519 10.3023 732 55.9795 1027.77 501.663
17 0 72.065 11.2121 808 55.9257 1028.01 498.735
18 0 73.1108 11.0654 809 56.3424 1027.67 497.021
19 1 39.0223 11.0962 433 54.2864 1027.8 516.679
20 0 36.0247 10.7149 386 55.9508 1028.25 516.552
21 0 37.0528 9.76985 362 56.8646 1028.05 514.934
22 0 39.1075 10.6374 416 55.7428 1027.33 511.726
23 0 39.0442 11.3461 443 55.9052 1026.44 513.402
24 0 42.0223 11.5177 484 55.4339 1027.47 510.595
25 0 41.0236 11.4325 469 56.0682 1026.83 511.358
26 0 42.0364 12.1561 511 55.043 1027 511.233
27 0 43.0404 11.9655 515 55.3029 1028.37 511.722
28 0 44.0425 11.6024 511 56.0078 1027.51 510.403
29 0 45.1358 12.3405 557 55.7953 1027.59 509.05
30 0 46.0217 10.0387 462 57.8658 1027.95 511.69
31 0 47.1105 12.4388 586 55.8157 1028.04 506.597
32 0 48.14 13.71 660 54.6773 1028.41 507.664
33 1 105.185 13.8138 1453 55.713 1027.9 480.28
34 1 51.0739 10.9058 557 57.5368 1028.41 508.201
35 0 52.0636 11.3323 590 57.4186 1028.3 506.827
36 0 54.0597 13.4851 729 55.6914 1029.33 505.353
37 0 55.073 12.3654 681 57.3774 1028.74 506.214
38 0 58.0875 13.5657 788 56.6523 1027.94 504.435
39 0 59.043 14.6165 863 56.0162 1027.99 501.827
40 0 62.0956 13.9301 865 57.0798 1028.88 501.732
41 0 63.0608 12.8289 809 58.7441 1028.21 503.504
42 0 66.036 14.0984 931 58.2277 1029.23 502.974
43 0 66.1405 13.2597 877 60.1003 1028.54 501.228
44 0 69.0895 13.6634 944 59.8294 1029.38 501.285
45 0 68.0694 11.8409 806 63.0211 1028.61 499.64
46 0 71.0509 13.9759 993 61.4814 1029.28 496.032
47 0 74.0792 14.5115 1075 61.4446 1030.8 495.546
48 0 79.0677 13.988 1106 62.1519 1029.72 496.174
49 0 79.0968 13.6415 1079 63.7053 1030.09 494.19
50 0 83.0745 14.818 1231 62.6994 1030.12 493.803
51 0 83.0563 13.834 1149 64.7659 1030.32 491.136
52 1 44.0461 13.9853 616 63.026 1030.05 513.42
53 0 44.0341 12.6947 559 66.0966 1030.61 511.433
54 0 44.0878 12.407 547 67.1316 1030.73 509.609
55 0 46.0407 10.7948 497 68.6781 1030.42 512.225
56 0 47.0893 12.5506 591 66.8291 1030.16 510.832
57 0 49.0767 11.9201 585 67.8581 1031.09 511.056
58 0 52.076 12.0401 627 67.6124 1031.5 509.683
59 0 52.0567 13.9847 728 66.4121 1030.89 507.014
60 0 55.0301 12.2842 676 68.108 1031.1 506.848
61 0 56.0243 12.8159 718 67.89 1030.27 506.547
62 0 56.0513 12.8989 723 68.3527 1030.13 506.39
63 0 59.0734 12.2898 726 68.8733 1030.61 504.784
64 0 60.0559 11.9222 716 68.8771 1030.12 504.823
65 0 63.0894 14.5983 921 65.5776 1030.26 504.973
66 0 62.078 11.8561 736 71.1997 1030.53 501.917
67 0 67.0969 12.3404 828 70.0314 1030.69 500.332
68 0 67.0247 13.6964 918 68.9477 1029.94 501.528
69 0 70.0807 13.0849 917 70.5333 1030.04 498.305
70 0 73.0872 13.5728 992 70.0312 1029.63 496.825
71 0 73.0564 13.9481 1019 69.9549 1029.91 495.548
72 0 77.0465 12.3043 948 70.7447 1029.55 499.133
73 0 80.0955 12.9595 1038 70.2081 1028.74 496.855
74 0 81.0905 13.4418 1090 70.7881 1028.87 493.306
75 0 82.1871 11.5103 946 73.1712 1029.23 493.679
76 0 85.0505 13.4861 1147 70.0227 1029.75 492.955
77 0 87.0654 12.8524 1119 71.4915 1029.93 488.333
78 0 89.0433 12.5557 1118 71.1655 1030.04 490.276
79 0 93.1029 12.7816 1190 71.2429 1029.72 488.187
80 0 95.1068 12.1758 1158 72.4102 1029.36 485.65
81 0 100.133 13.542 1356 70.6954 1030.19 482.938
82 0 102.103 13.4374 1372 70.5889 1030.25 483.056
83 0 105.142 12.2597 1289 72.4205 1029.69 479.657
84 0 109.168 13.7128 1497 69.6426 1030.1 483.859
85 0 112.163 12.3214 1382 72.3401 1030.49 481.195
86 0 115.167 13.7886 1588 70.4943 1030.51 477.484
87 0 119.336 14.589 1741 69.4819 1030.54 475.809
88 1 57.0331 11.958 682 70.4208 1030.71 503.903
89 0 57.0686 11.3898 650 71.5169 1031.21 502.711
90 0 59.0768 11.9167 704 70.2045 1029.82 503.374
91 0 61.1056 11.9302 729 70.8711 1030.43 500.937
92 0 64.0554 13.1605 843 69.0902 1030.82 500.937
93 0 65.0545 12.2205 795 70.4516 1030.71 501.185
94 0 67.0815 12.9246 867 68.8328 1031.09 501.442
95 0 67.0678 11.3766 763 71.2005 1030.96 500.794
96 0 71.0682 12.692 902 70.4956 1030.07 499.016
97 0 73.1013 13.2419 968 70.0899 1030.65 498.169
98 0 73.0562 12.4151 907 71.8545 1031.12 497.334
99 0 76.1118 12.5736 957 71.4587 1030.4 495.191
100 0 78.0734 13.7819 1076 70.3504 1030.05 493.934
101 0 80.0547 12.4415 996 72.7289 1030.74 491.164
102 0 81.015 13.3802 1084 70.7777 1030.64 494.035
103 0 84.1342 12.0046 1010 72.2941 1031.15 491.656
104 0 86.138 11.7022 1008 71.9147 1031.21 493.264
105 0 88.0955 12.9746 1143 72.5661 1030.43 487.934
106 0 93.0712 13.5165 1258 70.7297 1030.8 488.611
107 0 95.1349 14.0327 1335 70.7483 1030.89 485.849
108 1 50.0477 11.7688 589 71.0119 1030.78 508.044
109 0 51.1007 12.2307 625 70.3504 1031.16 507.296
110 0 54.0816 13.7015 741 68.22 1029.54 506.408
111 0 55.0194 12.0503 663 71.3273 1029.28 504.739
112 0 55.0378 13.7905 759 69.8498 1029.77 504.935
113 0 55.1176 12.1014 667 71.5172 1030.37 505.52
114 0 53.0838 10.1914 541 72.8928 1030.03 507.81
115 0 62.0302 12.768 792 71.8851 1030.15 500.611
116 0 63.0406 12.6426 797 72.4479 1029.91 500.872
117 0 64.115 13.6786 877 71.7035 1030.57 497.895
118 0 68.0405 14.2856 972 70.1944 1031.03 498.06
119 0 71.0604 13.5941 966 71.5362 1031.27 498.612
120 0 73.0818 13.437 982 71.1191 1030.89 499.424
121 0 72.1721 12.9274 933 73.4309 1030.58 496.356
122 0 71.0724 12.0159 854 75.1838 1031.16 496.854
123 0 76.0544 12.2675 933 74.6602 1030.86 494.329
124 1 41.0258 13.0893 537 71.2682 1031.25 510.544
125 0 41.0833 10.9777 451 75.6608 1030.14 509.523
126 0 44.0453 12.578 554 72.2022 1029.94 510.462
127 0 44.0572 13.3236 587 71 1029.83 509.993
128 0 46.0518 12.8117 590 73.1305 1030.45 507.137
129 0 48.0244 12.806 615 71.8634 1031.51 509.216
130 0 48.0573 12.714 611 73.7021 1030.26 505.38
131 0 49.0174 12.1997 598 74.3562 1029.93 507.135
132 0 49.0482 12.5998 618 74.2605 1030.43 504.618
133 0 52.0695 12.0416 627 74.6699 1031.1 502.426
134 0 52.0575 10.8726 566 76.5371 1030.66 503.735
135 0 53.0628 12.2685 651 74.5038 1030.26 503.965
136 0 58.0413 13.0769 759 72.942 1030.87 502.27
137 0 58.1507 12.9147 751 74.2676 1030.8 499.595
138 0 58.0448 12.2492 711 75.1125 1030.81 499.027
139 0 62.136 12.5531 780 74.2987 1030.36 497.245
140 0 62.048 11.5395 716 76.1229 1031.59 500.831
141 0 66.048 13.5962 898 73.1604 1031.28 498.609
142 0 68.0542 12.5047 851 74.7497 1031.41 496.462
143 0 68.0962 11.6893 796 76.2073 1030.14 494.986
144 0 73.0559 13.5102 987 73.1793 1029.82 495.324
145 0 73.0355 12.1585 888 75.1892 1030.96 494.291
146 1 38.0284 10.8866 414 76.4662 1030.26 509.969
147 0 40.039 10.9393 438 75.7808 1030.04 512.345
148 0 41.0354 10.6737 438 76.3767 1029.97 510.418
149 0 41.029 11.1628 458 76.3013 1029.83 508.223
150 0 43.0257 11.7604 506 74.1443 1029.82 510.502
151 0 44.0158 12.3592 544 74.6489 1030.72 506.458
152 0 46.0446 11.2934 520 74.8173 1030.07 506.825
153 0 46.164 10.0511 464 76.5388 1029.8 507.849
154 0 49.0297 10.9322 536 74.4851 1030.19 506.192
155 0 50.0271 10.4344 522 74.8199 1030.44 505.546
156 0 51.0968 11.0966 567 74.0053 1031.28 505.767
157 0 51.0249 12.5037 638 72.5721 1030.89 502.274
158 0 54.0739 11.2993 611 72.9656 1030.8 501.139
159 0 56.043 12.0978 678 71.3776 1030.67 504.671
160 0 58.0541 11.9199 692 71.5043 1031.73 501.422
161 0 60.0704 12.0692 725 72.0676 1031.5 499.436
162 0 61.0774 12.2468 748 71.2901 1031.21 499.353
163 0 66.0427 13.461 889 69.1957 1031.17 498.453
164 0 67.1578 13.1928 886 69.061 1031.63 498.473
165 0 68.0719 12.81 872 70.1284 1031.35 496.643
166 0 71.0528 13.3422 948 69.6319 1032.06 495.455
167 0 72.0832 13.4844 972 70.2006 1032.05 493.56
168 0 77.127 13.2509 1022 69.4922 1032.14 493.306
169 0 78.0852 14.0488 1097 69.6855 1031.73 489.984
170 1 39.0177 12.3277 481 71.6715 1030.99 509.16
171 0 40.0491 10.7867 432 73.6713 1031.4 510.014
172 0 41.0176 11.8242 485 73.1485 1031.07 508.208
173 0 44.0241 12.8339 565 71.1912 1031.69 507.195
174 0 45.0498 12.1421 547 72.1682 1031.39 507.618
175 0 46.1128 13.4887 622 70.1286 1030.99 506.532
176 0 49.0685 13.4913 662 69.0196 1029.74 506.16
177 0 48.1085 12.7628 614 71.5472 1029.72 504.764
178 0 50.0339 12.1318 607 72.7002 1030.1 504.588
179 0 51.0206 13.5239 690 70.3203 1030.88 503.814
180 0 52.08 11.828 616 72.6185 1030.5 503.974
181 0 53.0229 12.5418 665 71.4361 1029.85 504.359
182 0 58.0504 13.9189 808 68.7389 1029.58 501.724
183 0 59.0534 14.0043 827 69.607 1028.49 501.092
184 0 61.0424 14.9077 910 68.3044 1028.31 497.994
185 0 64.0282 14.8528 951 67.1714 1027.92 499.814
186 0 63.0655 13.2561 836 70.799 1028.25 498.86
187 0 68.0748 14.014 954 68.4361 1028.12 496.986
188 0 70.1066 14.8345 1040 67.076 1027.8 496.819
189 0 72.0662 14.4728 1043 67.7057 1027.88 495.963
190 0 75.0707 14.1067 1059 68.1265 1027.38 495.114
191 0 75.0982 11.9843 900 71.3256 1026.48 495.386
192 1 41.0273 12.3333 506 68.504 1026.15 511.152
193 0 41.0423 12.4262 510 69.5216 1027.23 511.022
194 0 42.0692 11.3385 477 70.2537 1026.53 512.428
195 0 42.128 12.3196 519 70.289 1026.26 509.967
196 0 42.0335 11.586 487 70.8727 1026.77 511.402
197 0 45.0263 13.0146 586 68.9915 1026.87 509.573
198 0 47.0961 12.8036 603 68.7877 1026.37 510.556
199 0 50.0805 13.8377 693 66.9019 1026.32 509.266
200 0 51.064 11.5737 591 69.6514 1026.74 509.132
201 0 52.062 12.9077 672 67.8824 1026.09 507.699
202 0 53.0496 13.3837 710 67.3394 1025.55 508.221
203 0 56.0367 14.776 828 64.7681 1025.68 508.325
204 0 58.0885 13.1007 761 66.3298 1026.11 510.3
205 0 57.0409 11.6408 664 69.2636 1025.84 507.143
206 0 60.1352 11.9564 719 68.1947 1025.96 505.889
207 0 62.0392 13.3786 830 66.8181 1026.4 505.311
208 0 63.1372 13.5895 858 66.7144 1026.47 504.46
209 0 66.1576 12.183 806 67.8015 1026.77 503.757
210 0 68.0924 13.3936 912 67.2982 1025.84 501.039
211 0 70.0962 11.1704 783 69.1648 1026.02 502.747
212 0 72.1352 11.6448 840 69.0917 1025.66 502.149
213 0 76.0803 12.96 986 67.6826 1025.25 499.332
214 0 77.2038 12.9786 1002 68.8104 1024.95 497.382
215 1 39.0428 11.8844 464 68.069 1024.66 517.276
216 0 38.0238 10.5723 402 70.107 1024.27 518.873
217 0 42.0474 10.7973 454 69.4626 1024.24 515.947
218 0 44.0255 12.4246 547 66.4095 1023.34 517.771
219 0 44.0535 12.5529 553 67.5118 1024.07 516.293
220 0 44.0135 13.9503 614 66.5717 1024.33 513.663
221 0 46.047 11.4231 526 69.4943 1024.56 513.348
222 0 46.0312 12.535 577 68.1508 1024.71 513.038
223 0 45.0484 10.6774 481 70.7256 1025.2 512.326
224 0 48.0683 13.1896 634 67.989 1024.14 508.97
225 0 51.1138 13.2645 678 67.3496 1024.55 509.162
226 0 53.0455 12.8192 680 67.425 1024.46 509.131
227 0 55.0433 11.8089 650 68.4831 1024.37 509.448
228 0 54.1286 11.5835 627 70.4402 1024.88 506.671
229 0 57.0316 12.1512 693 68.3925 1024.66 507.421
230 0 58.0493 11.4902 667 69.7346 1024.68 505.63
231 0 61.022 14.2736 871 65.9793 1024.75 502.59
232 0 62.0378 12.1539 754 69.6326 1024.94 500.822
233 0 66.0518 13.4137 886 67.2517 1024.94 502.196
234 0 66.0852 12.3477 816 69.1103 1024.05 502.152
235 0 68.1107 12.465 849 69.6054 1023.76 500.081
236 0 70.0561 12.1331 850 70.0753 1024.38 500.092
237 0 73.088 12.5739 919 68.6877 1024.57 498.863
238 0 74.0231 11.645 862 70.6798 1024.45 498.985
239 0 77.0196 13.0876 1008 69.1974 1025 495.919
240 0 79.0951 12.9591 1025 69.9083 1024.63 495.449
241 0 80.1635 11.6512 934 72.2902 1024.33 492.07
242 0 84.0693 12.7514 1072 70.4179 1024.93 493.991
243 0 86.065 13.6409 1174 69.7794 1025.43 491.669
244 0 87.1319 13.5312 1179 70.5598 1023.93 490.704
245 1 45.0406 11.3009 509 69.8487 1024.73 510.505
246 0 46.0713 11.1349 513 70.5458 1024.74 510.033
247 0 45.0624 9.23165 416 72.6923 1024.52 512.135
248 0 46.1216 11.5998 535 70.8 1024.77 510.695
249 0 47.0718 11.1107 523 71.7113 1025.84 508.904
250 0 49.1158 11.6052 570 70.2596 1025.04 510.302
251 0 53.0671 12.2863 652 69.2224 1025.61 509.388
252 0 53.0498 12.8181 680 68.4294 1026.06 508.965
253 0 54.1672 10.6153 575 71.4783 1025.51 509.673
254 0 56.0525 10.9719 615 71.7398 1026.25 508.327
255 0 58.054 11.1793 649 71.1787 1026.17 507.995
256 0 59.05 12.1253 716 70.648 1025.83 506.409
257 0 61.081 11.7058 715 70.2657 1026.24 508.901
258 0 61.08 11.6896 714 71.6204 1026.23 506.499
259 0 64.1147 12.4776 800 70.7588 1024.46 504.231
260 0 67.1607 11.2417 755 71.853 1025.92 505.303
261 0 70.0506 12.4053 869 69.8608 1026.08 504.556
262 0 71.0961 13.1372 934 69.7934 1025.32 502.151
263 0 73.064 12.7012 928 69.75 1025.84 503.768
264 1 37.0065 11.0251 408 70.4559 1025.63 518.221
265 0 40.0991 11.4466 459 69.4967 1025.54 516.715
266 0 42.1468 11.3888 480 69.9688 1025.1 517.142
267 0 42.027 10.4933 441 70.2426 1024.82 516.626
268 0 44.0646 12.3228 543 68.582 1025.45 515.296
269 0 44.0217 12.3803 545 69.0917 1025.51 515.76
270 0 46.0517 11.3785 524 69.271 1024.04 516.7
271 0 47.0426 11.7553 553 69.8445 1024.76 514.403
272 0 47.0249 12.1 569 70.935 1024.68 510.167
273 0 50.0843 11.9199 597 69.7655 1024.06 511.963
274 0 50.0652 10.2267 512 71.7852 1023.74 512.938
275 0 50.1228 10.9531 549 70.8852 1024.06 512.005
276 0 53.1486 12.0982 643 69.8134 1024.68 509.33
277 0 55.1575 11.4581 632 69.6503 1024.04 510.642
278 0 56.1798 11.7124 658 69.8009 1023.76 509.337
279 0 58.1234 12.6111 733 68.7067 1023.88 505.583
280 0 58.1226 9.42835 548 73.261 1023.26 506.626
281 0 61.1116 9.31083 569 72.5729 1023.57 505.627
282 0 65.1924 9.46429 617 72.0438 1023.83 505.264
283 0 65.113 9.998 651 72.4547 1023.21 501.831
284 0 66.1028 9.60625 635 72.9307 1022.93 501.841
285 0 69.1013 11.1141 768 70.9076 1022.65 500.125
286 0 69.1038 9.01542 623 73.8523 1023.17 495.665
287 0 72.1548 9.60436 693 72.9841 1023.49 496.727
288 1 36.1261 7.86136 284 71.5282 1023.67 513.908
289 0 37.0732 7.82237 290 71.2828 1023.95 515.01
290 0 39.0265 8.14831 318 70.978 1023.4 514.019
291 0 39.0711 9.26516 362 69.942 1023.79 513.168
292 0 39.0688 8.7794 343 70.8513 1023.52 511.91
293 0 42.1231 9.99451 421 69.5321 1023.95 510.948
294 0 43.033 9.7367 419 70.1885 1023.83 510.737
295 0 43.0922 9.67692 417 70.295 1023.4 508.281
296 0 46.0429 8.94817 412 70.6602 1023.46 508.194
297 0 47.066 9.32733 439 70.6446 1022.91 507.531
298 0 48.0298 10.785 518 69.2066 1023.09 504.396
299 0 49.1351 8.42575 414 70.6715 1022.68 502.391
300 0 51.0561 8.48086 433 71.1293 1023.37 505.173
301 0 51.1082 10.4093 532 68.921 1023.38 501.301
302 0 53.1043 8.56804 455 69.3736 1021.54 496.756
303 0 52.0677 6.12664 319 72.3511 1022.21 494.937
304 0 56.2413 7.98345 449 70.2739 1022.19 496.586
305 0 56.1539 7.67534 431 70.1926 1022.17 492.923
306 0 60.2338 8.56663 516 69.4225 1021.99 495.459
307 0 62.3139 8.2646 515 69.3981 1022.15 492.755
308 0 66.1805 8.41638 557 68.7379 1022.88 490.898
309 0 69.0365 8.89384 614 67.9609 1022.33 490.197
310 0 72.0873 8.91974 643 68.07 1022.98 491.928
311 1 35.0092 5.34145 187 68.9412 1023.61 505.989
312 0 36.0327 6.49411 234 68.7735 1022.34 510.295
313 0 39.0581 9.72909 380 65.3395 1022.44 508.263
314 0 37.0164 5.67316 210 68.7238 1022.68 504.095
315 0 42.0583 9.48684 399 65.0977 1022.59 508.784
316 0 43.069 11.0753 477 63.5849 1022.66 508.348
317 0 47.062 12.4517 586 60.6587 1023.12 508.589
318 0 50.0435 11.55 578 61.5052 1022.57 507.431
319 0 49.0714 10.4134 511 62.9002 1022.81 506.462
320 0 51.1029 11.3888 582 61.6959 1022.28 507.672
321 0 54.0415 11.8057 638 61.2868 1022.04 505.61
322 0 54.0676 10.3389 559 63.2397 1023.37 505.873
323 0 57.0722 12.6857 724 59.6271 1022.9 505.372
324 0 56.083 12.214 685 61.2686 1021.94 503.549
325 0 60.037 10.6101 637 62.573 1022.61 504.487
326 0 61.185 12.4704 763 60.8191 1023.03 500.933
327 0 62.0361 10.8324 672 63.0089 1022.31 500.622
328 0 66.0534 11.7935 779 60.9692 1022.64 501.766
329 0 68.0648 11.7682 801 61.593 1022.66 500.403
330 0 68.0868 13.1156 893 60.3707 1022.65 498.394
331 0 72.1263 12.8247 925 59.8778 1023 500.178
332 0 72.0501 12.5885 907 61.5788 1022.28 496.061
333 0 75.048 11.5659 868 61.6912 1022.45 498.548
334 0 75.0741 10.0834 757 64.3236 1022.66 495.861
335 0 79.0808 13.3155 1053 60.6591 1021.89 493.139
336 1 41.035 12.1847 500 59.846 1022.23 512.164
337 0 41.0513 9.25672 380 63.1553 1022.63 511.529
338 0 46.1492 12.1562 561 59.3832 1022.56 510.496
339 0 46.0182 11.3433 522 60.4962 1023.54 508.201
340 0 45.0369 10.7245 483 62.2795 1023.46 506.965
341 0 48.0157 11.5379 554 60.935 1023.55 506.948
342 0 49.0125 11.6909 573 60.5759 1022.75 509.304
343 0 51.0459 11.4995 587 61.4429 1023 505.744
344 0 52.0391 9.87718 514 62.8054 1022.74 507.891
345 0 54.053 10.6377 575 62.9113 1022.36 504.969
346 0 53.0829 10.7191 569 63.5325 1022.46 504.264
347 0 57.0921 12.0332 687 61.6186 1023.61 502.083
348 0 59.083 12.9987 768 60.4688 1022.98 504.051
349 0 59.0574 11.2772 666 63.3438 1022.52 503.206
350 0 61.1238 11.0104 673 63.5572 1023.69 502.712
351 0 63.1496 11.8924 751 63.289 1023.8 500.909
352 0 66.0743 12.713 840 61.7131 1023.65 499.262
353 0 68.1444 12.6056 859 62.1129 1023.28 499.079
354 0 68.1265 11.7282 799 63.1089 1022.92 501.005
355 0 71.0565 12.5675 893 62.9496 1023.34 495.671
356 0 75.1232 11.8871 893 63.3136 1022.96 494.987
357 1 37.0095 10.7 396 63.3586 1023.53 514.033
358 0 41.0411 11.8662 487 62.0801 1024 512.92
359 0 40.0169 11.77 471 62.8556 1024.11 513.195
360 0 42.0572 13.1012 551 60.6642 1023.54 512.944
361 0 44.0312 11.7417 517 62.7137 1023.83 511.213
362 0 44.0303 11.0151 485 64.6639 1023.37 510.553
363 0 45.0594 11.5625 521 64.5298 1024.28 508.317
364 0 45.0519 11.5644 521 64.9443 1024.37 507.745
365 0 46.1136 11.2765 520 65.4365 1023.55 506.658
366 0 52.1997 11.9349 623 63.1701 1024.39 506.917
367 0 51.0816 12.2745 627 63.7544 1024.39 504.367
368 0 52.1557 12.0025 626 64.0879 1024.66 505.03
369 0 54.0752 10.9107 590 64.983 1024.43 505.363
370 0 55.0273 11.7578 647 64.2628 1023.67 504.345
371 0 59.1486 13.9479 825 60.9745 1023.72 503.525
372 0 59.1153 11.3676 672 64.8467 1023.47 502.924
373 0 63.142 12.2898 776 62.9549 1023.14 502.193
374 0 62.1444 11.3124 703 64.7482 1024.34 501.834
375 0 66.1203 11.7059 774 63.4341 1024.89 501.266
376 0 70.184 12.4672 875 62.1623 1024.75 500.035
377 0 69.1257 12.6002 871 63.271 1024.25 494.702
378 0 73.16 12.6162 923 62.4518 1023.76 495.678
379 0 76.1128 12.7837 973 62.2107 1023.49 494.841
380 0 78.0864 12.9728 1013 61.925 1023.54 492.347
381 0 81.1714 12.529 1017 62.6008 1023.31 490.992
382 1 40.0889 9.27937 372 64.3548 1022.97 511.696
383 0 43.0787 10.446 450 63.5778 1023.61 509.509
384 0 45.1014 10.8422 489 62.8425 1024.15 509.115
385 0 46.0564 12.8104 590 60.8322 1024.08 508.571
386 0 46.1263 11.6419 537 62.5698 1024.26 507.762
387 0 47.0479 11.6477 548 62.3686 1023.89 504.766
388 0 52.0575 13.0625 680 60.3676 1023.4 505.706
389 0 51.0163 12.7998 653 61.4579 1023.62 505.142
390 0 53.0386 12.2929 652 61.8144 1024.19 504.239
391 0 54.0944 11.369 615 62.3919 1024.11 504.889
392 0 55.0393 11.6099 639 62.4538 1024.33 504.505
393 0 57.0567 13.5304 772 60.6049 1023.11 501.895
394 0 59.1705 12.9625 767 60.957 1023.21 502.711
395 0 62.243 12.7243 792 60.827 1023.1 501.398
396 0 65.1391 13.31 867 60.1442 1023.17 498.87
397 0 65.118 10.7804 702 63.1966 1023.79 499.548
398 0 69.0872 11.6085 802 62.3416 1023.66 496.481
399 0 70.0805 13.0279 913 60.8456 1023.95 497.656
400 0 72.0865 11.4168 823 62.87 1023.74 495.097
401 0 71.1392 9.71335 691 64.7786 1023.63 494.336
402 0 78.0938 11.3837 889 62.3768 1024.44 494.287
403 0 75.154 9.87305 742 64.8854 1024.07 491.527
404 1 42.0573 10.7235 451 61.0377 1024.47 511.007
405 0 41.0932 8.44422 347 64.5072 1025.15 509.343
406 0 43.0598 8.29079 357 65.0252 1024.07 507.7
407 0 47.052 11.0303 519 61.1985 1023.95 510.439
408 0 48.0257 9.6615 464 62.8039 1024.18 509.612
409 0 50.0552 10.4485 523 61.7935 1023.79 507.866
410 0 52.1247 12.2591 639 59.4742 1023.12 507.829
411 0 55.1728 13.1405 725 58.2993 1023.81 506.99
412 0 54.0306 10.9568 592 61.0625 1023.81 506.676
413 0 54.0741 11.2438 608 60.9408 1023.62 505.459
414 0 59.0743 12.0357 711 59.6048 1024.33 504.142
415 0 61.0909 12.7351 778 58.4396 1023.6 504.636
416 0 63.2014 12.0725 763 59.3408 1023.97 502.148
417 0 62.1848 11.6749 726 60.5165 1023.87 500.034
418 0 64.108 11.465 735 59.7837 1023.74 501.313
419 0 69.0778 11.5232 796 59.2638 1023.59 500.165
420 0 70.1408 11.5624 811 59.6412 1024.49 496.026
421 0 69.2338 9.50402 658 61.7599 1023.84 497.234
422 0 75.1712 13.303 1000 57.355 1023.93 494.786
423 0 76.26 11.1592 851 60.02 1023.31 491.416
424 0 78.2035 10.8819 851 60.6346 1023.6 492.049
425 0 80.1523 11.4532 918 59.8693 1023.82 493.54
426 0 83.1342 12.0408 1001 59.2078 1023.78 490.072
427 1 41.0568 11.0335 453 57.9183 1024.42 512.693
428 0 42.1438 10.6065 447 58.5145 1023.79 509.89
429 0 42.0429 10.1563 427 59.0984 1023.03 512.536
430 0 44.022 11.2217 494 58.2672 1024.45 511.393
431 0 45.07 11.3379 511 58.4207 1024.63 509.207
432 0 47.0519 10.8178 509 59.0413 1024.73 507.971
433 0 49.0409 11.419 560 58.7661 1024.19 506.318
434 0 49.1142 10.893 535 59.5252 1023.37 507.191
435 0 51.0664 10.3591 529 59.6635 1023.93 508.079
436 0 54.1127 11.2543 609 58.6108 1024.44 504.755
437 0 53.0559 10.4984 557 59.8276 1024.22 504.573
438 0 56.0354 11.2072 628 59.4538 1023.89 504.268
439 0 58.0562 11.1272 646 59.452 1024.08 503.337
440 0 59.0969 12.0311 711 58.6062 1022.65 500.948
441 0 62.0777 11.2601 699 59.4878 1023.72 502.907
442 0 63.1246 13.8932 877 57.0228 1023.7 500.051
443 0 64.1469 11.349 728 59.5453 1024.33 501.287
444 0 67.0995 10.3279 693 60.3406 1024.03 499.788
445 0 70.1765 12.5968 884 58.491 1023.32 498.586
446 0 71.0666 10.8068 768 60.4635 1023.62 495.656
447 0 75.0906 13.2373 994 57.9306 1023.99 495.839
448 0 76.2174 13.0679 996 58.4086 1023.5 495.181
449 1 38.1409 9.22893 352 61.7784 1023.35 509.69
450 0 41.1345 9.40816 387 61.5194 1023.81 507.473
451 0 44.0295 12.4235 547 58.2742 1023.71 510
452 0 46.0601 11.2028 516 60.1221 1023.57 510.252
453 0 47.0492 11.031 519 60.1676 1024.61 511.462
454 0 46.2071 9.6089 444 62.6036 1023.79 510.644
455 0 48.0915 12.1435 584 59.9983 1023.94 509.238
456 0 48.0801 13.4983 649 59.4407 1024.77 508.587
457 0 49.0759 12.2463 601 60.2013 1023.9 510.318
458 0 51.0668 10.8877 556 62.1151 1023.95 507.299
459 0 53.0656 12.8143 680 59.1676 1024.29 508.36
460 0 55.0666 13.5835 748 58.8021 1022.7 504.683
461 0 53.036 10.5023 557 62.6697 1022.8 505.163
462 0 57.0366 10.8702 620 61.7581 1023.87 505.029
463 0 61.0869 11.9829 732 60.112 1022.97 506.445
464 0 62.1039 12.5274 778 59.9036 1022.61 502.195
465 0 63.1661 9.53043 602 62.613 1022.93 503.635
466 0 65.0658 12.3414 803 59.6326 1023.49 500.741
467 0 67.1548 11.2576 756 60.922 1023.71 500.868
468 0 71.0775 12.0151 854 59.9262 1023.75 496.076
469 0 71.1004 11.6174 826 60.3668 1022.74 499.35
470 0 76.0818 12.1711 926 59.9892 1023.33 496.472
471 0 77.1189 10.8274 835 62.012 1023.8 495.541
472 1 38.099 11.1289 424 60.592 1023.3 514.991
473 0 40.0229 12.6178 505 59.196 1023.77 513.616
474 0 40.0465 9.91348 397 62.1511 1024.07 514.02
475 0 41.0396 11.891 488 60.3443 1023.51 512.924
476 0 40.063 10.0342 402 63.6318 1022.96 510.818
477 0 45.0276 9.90503 446 61.9686 1022.87 514.07
478 0 44.0472 11.4196 503 61.6302 1022.84 511.334
479 0 47.0678 9.90061 466 61.9936 1022.86 512.245
480 0 47.0256 11.5044 541 61.0869 1022.32 510.499
481 0 49.1033 11.038 542 60.2565 1022.32 512.247
482 0 53.0309 11.993 636 59.3664 1021.88 509.607
483 0 53.0636 11.9479 634 60.1246 1023.06 505.191
484 0 55.0384 10.0839 555 61.3387 1023.15 505.969
485 0 59.0933 12.2687 725 58.8759 1023.03 504.668
486 0 58.1084 12.339 717 59.1032 1023.56 504.192
487 0 61.0306 12.5019 763 58.8191 1023.78 501.592
488 0 63.0875 14.2659 900 57.3956 1023.55 501.549
489 0 64.2974 13.2976 855 58.4877 1023.35 500.233
490 0 65.0523 11.8213 769 59.8895 1023.1 500.999
491 0 69.1204 11.8778 821 59.894 1023.02 498.381
492 0 72.0713 10.3647 747 61.5743 1024.12 494.459
493 0 76.0712 12.9221 983 58.5076 1022.34 495.891
494 0 77.0516 11.0446 851 60.886 1022.97 492.24
495 1 39.0167 10.1239 395 61.4506 1023.01 511.666
496 0 40.0252 12.2423 490 59.1286 1022.04 512.827
497 0 43.1491 11.7268 506 59.2885 1021.94 512.806
498 0 44.0464 13.0544 575 58.2539 1022.58 511.974
499 0 45.0449 12.1212 546 59.0678 1022.68 512.187
500 0 49.0236 12.0758 592 59.0304 1022.94 508.938
501 0 49.0554 11.9864 588 59.1769 1022.36 508.665
502 0 51.0419 12.8522 656 58.3491 1023.39 507.974
503 0 50.0396 10.6715 534 60.8408 1022.71 507.796
504 0 55.0717 12.7289 701 57.7347 1022.82 508.482
505 0 53.0601 11.2702 598 60.6455 1023.54 504.829
506 0 56.0269 12.851 720 58.7 1023.5 505.467
507 0 60.0958 11.9642 719 58.7204 1023.12 502.14
508 0 61.1875 11.8978 728 59.1978 1022.8 500.459
509 0 61.0327 10.8466 662 60.8021 1022.08 501.97
510 0 65.1565 12.0019 782 59.2839 1022.73 500.243
511 0 67.1129 12.5907 845 58.7207 1022.18 498.619
512 0 70.042 11.9785 839 59.1132 1022.04 499.723
513 0 72.029 12.8559 926 58.6004 1022.49 496.973
514 0 76.1266 13.7797 1049 57.4118 1022.96 496.549
515 0 77.1091 12.4369 959 58.4599 1022.85 496.951
516 0 79.1134 12.2735 971 59.0185 1023.22 494.11
517 0 82.1402 11.3221 930 59.5452 1022.94 495.432
518 1 43.0472 10.0123 431 57.3341 1023.29 515.668
519 0 42.035 10.1344 426 59.2582 1023.67 511.211
520 0 44.1978 10.8376 479 57.7474 1022.88 513.008
521 0 46.1349 11.0979 512 57.7305 1023 511.402
522 0 49.0361 12.9904 637 55.6405 1023.57 511.429
523 0 50.0316 12.9718 649 56.1048 1023.17 509.393
524 0 52.1061 11.2463 586 57.5956 1023.73 509.631
525 0 55.0578 13.3859 737 55.1642 1023.39 507.436
526 0 54.2142 10.8643 589 58.5467 1023.4 505.28
527 0 56.058 12.3443 692 56.9104 1023.38 504.954
528 0 59.0644 11.8515 700 57.2586 1022.86 505.706
529 0 60.0811 10.4192 626 58.9249 1023.21 505.139
530 0 63.0528 12.9415 816 56.0478 1023.03 505.466
531 0 63.1887 11.0938 701 58.3195 1023.2 504.692
532 0 66.098 13.132 868 56.8479 1022.32 501.63
533 0 69.1197 13.1511 909 56.4081 1021.93 500.329
534 0 71.0367 13.0918 930 56.8753 1022.9 496.937
535 0 72.2404 12.8598 929 57.1087 1022.33 499.543
536 0 76.2267 12.8826 982 56.8045 1023.29 494.461
537 0 77.1689 11.0407 852 58.9554 1023.16 492.735
538 0 80.1906 12.0214 964 57.6068 1022.31 495.74
539 0 85.1574 14.209 1210 55.719 1022.05 493.21
540 1 44.0506 10.8966 480 56.8333 1022.99 512.654
541 0 42.0438 9.6566 406 58.5887 1023.23 514.424
542 0 44.0087 11.5886 510 56.9039 1023.01 511.904
543 0 44.0232 8.6091 379 61.0554 1023.27 509.443
544 0 48.0456 10.3443 497 58.8632 1023.51 510.972
545 0 48.0705 12.0656 580 57.3948 1023.15 508.54
546 0 53.143 13.2661 705 55.4355 1022.51 508.867
547 0 52.0266 12.3975 645 57.3271 1023.26 508.039
548 0 55.0554 12.1332 668 56.994 1023.22 506.876
549 0 52.0456 10.6445 554 59.5902 1022.22 506.392
550 0 56.0855 11.946 670 57.9478 1022.67 505.561
551 0 59.1253 12.2283 723 57.6764 1022.65 505.773
552 0 61.0158 13.2916 811 57.0567 1022.08 504.951
553 0 61.0538 10.9412 668 59.247 1023.32 504.937
554 0 63.0552 12.6556 798 58.683 1023.8 499.99
555 0 66.2719 11.6188 770 59.7545 1023.82 498.565
556 0 67.0507 11.8418 794 59.4345 1023.38 498.533
557 0 68.0856 12.6899 864 58.3484 1022.4 501.806
558 0 75.2589 12.2643 923 58.753 1022.75 500.982
559 0 74.1182 12.7364 944 58.8559 1022.71 498.988
560 0 77.0845 12.1166 934 59.7902 1022.59 496.935
561 0 79.1484 12.2555 970 59.8979 1023.69 492.501
562 0 81.1645 13.5034 1096 58.8759 1023.23 495.035
563 0 82.0961 11.5962 952 60.9769 1022.72 495.002
564 0 86.1145 14.2949 1231 58.7043 1022.84 493.783
565 1 46.2101 11.6641 539 59.5677 1023.51 511.655
566 0 47.0564 12.6019 593 59.8988 1022.88 510.175
567 0 51.1434 11.9468 611 60.1751 1023.38 509.9
568 0 49.0621 11.088 544 61.682 1023.25 510.564
569 0 51.0698 12.4536 636 60.8192 1023.17 510.259
570 0 53.0554 11.2147 595 61.8924 1023.71 509.375
571 0 54.1247 11.1779 605 62.0281 1022.93 508.605
572 0 54.0767 12.5747 680 60.7838 1023.55 508.068
573 0 56.0749 13.2323 742 60.3841 1023.5 507.199
574 0 58.0761 10.8823 632 63.4573 1023.31 504.305
575 0 62.2257 12.069 751 61.8762 1023.58 505.81
576 0 61.2289 10.6159 650 63.4292 1023.74 505.472
577 0 66.2264 13.7558 911 60.2272 1023.65 501.812
578 0 67.1098 12.9787 871 60.9541 1024.1 503.026
579 0 67.191 10.9836 738 64.5474 1024.25 499.767
580 0 70.2004 11.1538 783 63.5836 1025.49 501.519
581 0 71.1598 11.439 814 63.903 1024.88 498.251
582 0 75.183 12.1836 916 62.6124 1026.14 495.737
583 0 78.2676 12.6872 993 61.3243 1025.96 496.632
584 0 82.2426 13.5088 1111 61.1161 1024.83 492.668
585 0 83.2346 11.786 981 63.3802 1024.33 493.326
586 1 42.1677 10.8851 459 62.6274 1025.09 512.057
587 0 46.1058 12.6882 585 60.6906 1024.83 510.19
588 0 46.1512 10.834 500 62.788 1024.74 511.138
589 0 48.146 11.3405 546 62.3938 1023.55 508.868
590 0 48.1282 11.3447 546 62.2894 1023.23 509.973
591 0 50.1661 11.7011 587 62.6814 1023.81 506.915
592 0 51.1844 12.8359 657 61.3638 1023.51 506.91
593 0 53.0963 12.1854 647 61.6723 1024.33 507.552
594 0 55.1006 10.9255 602 63.3538 1023.55 503.468
595 0 59.1812 10.0201 593 63.7437 1022.96 504.968
596 0 59.0962 11.2359 664 62.8404 1023.52 504.574
597 0 61.0993 12.5042 764 62.1518 1023.52 502.065
598 0 62.086 11.7579 730 62.5521 1023.42 501.04
599 0 66.2224 13.3339 883 60.88 1022.93 500.518
600 0 67.1249 12.0373 808 63.6993 1022.3 497.741
601 0 69.1271 12.9761 897 62.796 1023.17 497.493
602 0 69.1402 11.8021 816 64.4828 1023.13 497.676
603 0 75.1356 12.7237 956 62.6412 1023.34 496.66
604 0 73.2229 12.0181 880 64.3295 1023.24 495.392
605 1 38.1749 10.9758 419 63.6587 1023.48 513.766
606 0 40.0968 11.6967 469 62.5693 1023.81 513.32
607 0 39.1753 11.6655 457 64.1641 1023.19 511.604
608 0 42.1035 11.448 482 63.8527 1023.46 512.369
609 0 42.0707 12.17 512 63.1777 1023.9 512.881
610 0 46.1453 11.8755 548 63.354 1023.4 509.235
611 0 46.0466 11.4015 525 64.5524 1023.65 510.385
612 0 46.0677 12.156 560 64.4357 1023.53 506.95
613 0 50.0442 12.3891 620 63.4032 1024.2 508.3
614 0 51.0674 12.9045 659 63.091 1023.98 508.222
615 0 52.0676 12.7142 662 63.207 1024.46 507.184
616 0 54.0695 11.7442 635 64.4472 1024.32 504.479
617 0 56.1078 12.9572 727 62.4704 1024.5 507.304
618 0 58.0709 13.1736 765 62.7464 1023.96 505.871
619 0 59.0471 13.159 777 62.973 1023.39 504.088
620 0 61.0521 13.038 796 63.4384 1023.34 500.774
621 0 63.0596 13.6696 862 62.8654 1023.45 499.56
622 0 64.0513 12.1309 777 64.3346 1024.19 500.053
623 0 66.11 11.98 792 64.8662 1023.15 500.439
624 0 70.1058 12.6095 884 63.5034 1022.98 499.416
625 0 71.0984 15.148 1077 61.1142 1023.29 497.528
626 0 74.0835 14.3352 1062 61.9416 1023.41 495.213
627 0 76.0649 14.2378 1083 62.4672 1023.37 493.886
628 0 77.1882 12.3594 954 64.4203 1022.8 494.44
629 1 37.0591 9.7412 361 65.9141 1024.07 514.019
630 0 40.048 10.5374 422 65.1517 1024.02 513.927
631 0 42.0238 12.4929 525 62.6019 1023.32 513.453
632 0 43.0758 11.4217 492 64.9167 1023.2 510.974
633 0 44.0303 12.446 548 63.7263 1024.35 511.728
634 0 45.0611 11.7174 528 65.5795 1024.36 510.017
635 0 47.1011 12.4413 586 64.3669 1024.03 510.283
636 0 48.1504 12.3156 593 63.8263 1024.62 510.044
637 0 46.0181 11.9084 548 66.2938 1024.47 507.958
638 0 52.1089 12.7617 665 63.6962 1023.8 505.534
639 0 53.02 13.0517 692 63.6257 1024.61 505.328
640 0 55.0923 13.1416 724 63.261 1024.16 503.942
641 0 58.0283 15.3029 888 60.1374 1024.74 504.882
642 0 59.0814 13.2529 783 62.8378 1024.08 502.949
643 0 59.0783 12.2549 724 64.8716 1024.07 502.314
644 0 62.0479 14.0698 873 62.2497 1023.1 502.6
645 0 64.0429 13.366 856 62.8937 1022.77 501.745
646 0 67.0512 13.8849 931 62.1901 1023.97 500.242
647 0 69.1787 12.0413 833 64.1308 1024.04 499.579
648 0 71.0652 14.0575 999 62.1572 1023.51 497.104
649 0 72.1192 13.7134 989 62.64 1023.86 496.691
650 0 75.1918 13.3126 1001 62.989 1023.89 494.925
651 1 37.0612 13.6801 507 61.4181 1025.16 513.596
652 0 39.1578 12.5135 490 62.4939 1023.87 513.918
653 0 41.032 12.0394 494 62.0506 1024.88 513.85
654 0 40.0449 11.8617 475 63.5853 1024.31 512.415
655 0 41.0478 12.4489 511 62.591 1024.59 512.791
656 0 43.0757 12.5825 542 62.0554 1023.83 513
657 0 42.0511 10.7726 453 64.9272 1024.86 511.662
658 0 45.0323 12.5021 563 62.6927 1023.79 511.739
659 0 45.0094 12.1752 548 64.1496 1023.76 509.197
660 0 46.0935 13.3858 617 62.5511 1023.57 510.258
661 0 49.0595 16.0621 788 59.5165 1024.23 508.048
662 0 50.0652 13.1828 660 62.8273 1024.39 506.579
663 0 54.0559 15.1695 820 60.089 1023.82 507.167
664 0 52.0415 13.9312 725 62.7752 1024.23 506.408
665 0 55.0956 12.4329 685 63.1518 1023.86 506.155
666 0 58.098 14.1313 821 61.6395 1023.22 503.862
667 0 58.1927 13.3006 774 63.1512 1024.13 504.539
668 0 61.2089 14.8181 907 61.333 1024.09 503.345
669 0 63.0868 14.5355 917 61.8048 1023.85 501.414
670 0 63.1495 12.0033 758 64.9815 1023.65 500.625
671 0 69.1904 13.8603 959 61.391 1023.88 501.958
672 0 70.0915 13.7535 964 62.4201 1024.51 500.72
673 0 71.1089 15.4833 1101 60.8084 1023.93 497.617
674 0 73.033 15.3629 1122 61.1283 1024.95 495.122
675 0 74.0844 12.3103 912 64.5154 1023.82 496.365
676 1 37.018 12.1833 451 62.1397 1024.32 515.743
677 0 37.0469 13.1455 487 62.9528 1024.23 513.197
678 0 39.0445 13.0876 511 62.002 1024.49 513.047
679 0 40.091 13.5691 544 61.1636 1024.74 513.88
680 0 40.0233 12.3928 496 62.5746 1023.81 514.349
681 0 43.0424 12.6387 544 62.5386 1024.56 513.04
682 0 45.3982 13.1503 597 62.2412 1024.33 511.632
683 0 45.0206 12.1056 545 63.6459 1024.92 510.787
684 0 45.2849 12.4766 565 63.6531 1024.62 509.809
685 0 47.2142 12.8563 607 63.4498 1024.41 510.733
686 0 49.0703 12.6349 620 63.3419 1023.84 510.398
687 0 51.1188 13.1067 670 63.5149 1024.37 506.845
688 0 50.0506 12.6272 632 64.731 1024.29 507.576
689 0 53.0511 12.5351 665 65.006 1024.21 506.6
690 0 56.0883 14.3167 803 62.8319 1025.03 505.472
691 0 59.0701 15.1854 897 61.5463 1024.93 506.13
692 0 59.0477 10.6863 631 67.0777 1024.89 506.765
693 0 61.0853 13.8331 845 63.9858 1024.06 504.69
694 0 62.1258 12.6678 787 65.4358 1023.53 503.606
695 0 64.126 12.1635 780 65.8654 1023.57 502.677
696 0 67.0569 12.0047 805 66.3503 1023.2 500.222
697 0 68.1023 12.5987 858 66.7238 1022.95 497.429
698 0 71.0743 12.5643 893 66.5566 1024.3 497.482
699 0 73.0861 13.6278 996 65.3835 1023.22 497.138
700 0 75.0615 11.4573 860 66.8302 1023.89 498.391
701 1 40.0701 11.0556 443 66.1896 1023.87 513.975
702 0 40.0361 11.04 442 65.6719 1023.88 512.968
703 0 42.1732 12.6147 532 64.1165 1023.26 511.393
704 0 43.1704 12.2306 528 64.375 1023.07 512.775
705 0 43.0128 11.0665 476 65.8845 1023.34 509.992
706 0 45.0507 12.4082 559 64.3023 1024.22 509.411
707 0 46.0361 9.94872 458 67.0633 1023.65 508.755
708 0 50.0902 12.6971 636 62.9764 1023.03 508.763
709 0 48.0691 11.1714 537 65.6927 1023.45 504.84
710 0 51.0714 12.1007 618 64.5065 1023.5 505.579
711 0 53.0305 12.2005 647 64.575 1023.18 505.451
712 0 54.0398 10.9919 594 66.798 1023.49 503.423
713 0 58.0929 12.8071 744 63.5094 1023.16 505.296
714 0 59.0501 13.3785 790 63.4253 1023.22 500.866
715 0 61.046 11.4995 702 65.3518 1023.24 501.389
716 0 63.0749 12.7626 805 63.9528 1023.04 500.436
717 0 63.1052 11.98 756 65.2976 1023.72 498.525
718 0 66.0721 12.6528 836 64.4641 1024.02 496.372
719 0 69.1306 11.8616 820 64.6671 1023.65 492.933
720 0 72.0637 11.92 859 64.7229 1023.36 494.558
721 0 73.1304 10.5565 772 66.7707 1023.4 491.566
722 0 76.0272 12.4692 948 64.5222 1023.37 491.857
723 1 38.0151 7.52332 286 68.4056 1022.34 510.955
724 0 39.0299 10.9403 427 64.8009 1022.61 510.225
725 0 39.0298 9.04436 353 66.9773 1023.74 511.037
726 0 41.0802 10.37 426 65.6408 1023.31 508.749
727 0 42.0537 9.65432 406 66.6059 1023.97 508.03
728 0 39.0399 7.32583 286 69.1748 1023.07 503.43
729 0 45.1653 7.37291 333 68.6096 1022.74 503.601
730 0 45.0898 11.7987 532 64.4474 1023.13 505.564
731 0 48.0169 10.8295 520 65.3096 1022.18 503.075
732 0 49.072 9.37398 460 66.6739 1023.03 501.798
733 0 51.0217 8.93738 456 67.1382 1022.74 499.083
734 0 51.1064 9.50958 486 66.4012 1022.53 497.311
735 0 51.1235 11.0908 567 64.6966 1023.45 496.961
736 0 54.0502 8.15909 441 67.0454 1023.79 493.435
737 0 57.2066 8.91506 510 66.7412 1023.72 491.245
738 0 60.0654 9.18998 552 66.7953 1023.16 493.607
739 0 60.0831 10.0028 601 66.3894 1023.93 493.208
740 0 61.0489 7.51856 459 69.1133 1023.08 492.97
741 0 64.0853 8.9256 572 67.3199 1023.37 488.101
742 0 69.1784 10.2055 706 66.2422 1023.02 488.317
743 0 70.1314 9.31109 653 67.781 1023.19 490.723
744 1 34.004 8.88131 302 66.894 1022.68 506.437
745 0 37.1053 9.78296 363 65.8237 1022.94 508.774
746 0 35.0663 7.32898 257 69.5331 1022.23 508.712
747 0 38.1727 7.2303 276 68.9203 1021.59 505.558
748 0 48.1088 11.765 566 62.3269 1022.63 509.039
749 0 49.0333 11.1149 545 62.7578 1022.98 510.31
750 0 50.171 13.0952 657 61.0183 1023.04 508.262
751 0 53.079 12.0198 638 61.2241 1022.5 509.163
752 0 53.0849 11.1896 594 62.8653 1022.74 508.451
753 0 53.1361 11.48 610 63.2197 1022.98 507.692
754 0 56.1881 12.1912 685 62.1854 1023.09 507.307
755 0 57.0729 10.9159 623 64.0883 1023.58 504.323
756 0 61.3016 11.8431 726 61.6212 1023.31 506.318
757 0 60.1831 12.0632 726 62.865 1022.55 502.486
758 0 62.1158 12.0098 746 62.2319 1023.39 503.983
759 0 65.1481 13.9835 911 59.4654 1023.34 502.436
760 0 68.2069 10.6441 726 62.7286 1023.09 503.015
761 0 69.2406 11.9005 824 61.8944 1023.52 498.914
762 0 71.1056 11.6447 828 62.1208 1023.03 498.903
763 0 73.0878 13.2033 965 60.5824 1022.42 498.137
764 0 75.1219 13.1253 986 61.1978 1022.8 496.49
765 0 78.1084 11.3816 889 63.1057 1022.25 494.894
766 0 81.296 12.0793 982 62.1436 1023.31 494.896
767 1 41.0775 10.7115 440 62.2 1022.87 512.432
768 0 42.1077 10.1169 426 63.0986 1022.74 511.523
769 0 47.1014 10.9126 514 60.4163 1023.38 512.385
770 0 50.1956 10.8575 545 61.1963 1022.57 510.231
771 0 50.1866 11.3377 569 61.2865 1022.39 508.814
772 0 47.1256 9.82481 463 63.797 1023.36 509.194
773 0 52.1128 11.1681 582 61.5515 1023.21 507.912
774 0 52.1361 12.4674 650 61.2462 1021.87 506.342
775 0 56.1883 11.4793 645 60.462 1022.23 509.423
776 0 56.1 10.9804 616 62.3458 1022.86 504.906
777 0 64.124 12.6162 809 49.3931 1020.87 503.549
778 0 60.1004 11.747 706 61.0822 1022.12 506.074
779 0 63.2575 13.453 851 58.611 1022.61 503.397
780 0 64.156 10.8174 694 62.4049 1022.18 500.118
781 0 66.0499 13.3535 882 59.1463 1022.95 501.622
782 0 69.1607 11.654 806 60.6774 1023.13 501.01
783 0 71.1846 12.4606 887 59.1759 1023.64 498.826
784 0 72.1311 11.7148 845 60.0106 1023.13 500.083
785 0 73.2018 12.2948 900 59.2167 1023.76 497.17
786 0 78.2051 11.3548 888 59.6025 1022.83 495.774
787 0 82.0957 12.0956 993 58.3182 1023.16 497.05
788 1 38.1388 10.4618 399 59.7243 1022.21 515.002
789 0 39.0205 11.2761 440 59.7636 1022.44 512.477
790 0 39.0658 12.0054 469 58.3646 1021.84 514.957
791 0 42.0394 11.0135 463 59.419 1022.33 513.397
792 0 46.1076 10.6273 490 58.8531 1022.6 513.516
793 0 45.1248 11.5236 520 58.5942 1022.72 512.187
794 0 47.2886 12.1805 576 57.8073 1023.77 508.965
795 0 48.0548 10.9042 524 59.4008 1023.53 507.697
796 0 49.1629 10.333 508 60.4272 1023.94 509.596
797 0 52.0471 12.8537 669 57.4245 1023.34 507.774
798 0 53.1005 12.7682 678 57.3496 1023.65 507.96
799 0 56.1124 13.3126 747 56.2035 1023.46 507.557
800 0 57.1577 12.5092 715 57.1301 1023.26 506.411
801 0 56.057 11.0423 619 59.3069 1024.12 506.176
802 0 57.0291 11.538 658 59.2523 1023.48 504.862
803 0 60.1226 12.5909 757 48.1678 1023.59 506.24
804 0 61.1327 12.8736 787 57.0851 1023.63 504.646
805 0 65.2087 12.2223 797 57.3375 1023.87 502.969
806 0 64.1068 12.2296 784 57.5957 1023.1 500.534
807 0 65.0775 10.4798 682 59.7023 1023.1 500.877
808 0 69.1372 12.8006 885 57.0757 1022.83 499.134
809 0 72.2044 14.1958 1025 55.2566 1023.68 498.196
810 0 73.1452 12.8512 940 57.233 1023.12 498.27
811 0 75.3046 13.1068 987 56.7315 1023.28 499.502
812 0 79.2191 11.9289 945 58.2106 1023.64 495.855
813 0 80.1579 11.2029 898 58.804 1022.98 497.517
814 0 82.1816 12.6427 1039 57.9105 1023.02 493.439
815 1 44.1418 12.0068 530 58.6868 1023.16 510.602
816 0 46.0905 13.7989 636 57.2343 1023.12 510.547
817 0 47.0472 12.5831 592 58.6318 1022.3 509.488
818 0 48.1944 10.8311 522 60.3314 1023.02 510.282
819 0 48.1884 11.6833 563 60.1403 1023.05 509.021
820 0 49.0624 10.8433 532 60.8308 1023.14 508.925
821 0 52.1736 12.6117 658 58.9103 1023.83 506.505
822 0 53.0482 12.7997 679 58.6539 1023.58 507.834
823 0 56.0686 12.556 704 59.0071 1023.14 505.868
824 0 57.1425 14.0351 802 57.7718 1023.02 504.616
825 0 57.0766 11.7036 668 60.3174 1023.04 504.922
826 0 62.1495 13.3066 827 57.3253 1024.26 507.082
827 0 62.0735 12.7591 792 58.9205 1023.69 503.97
828 0 64.123 11.9926 769 59.9545 1023.27 503.177
829 0 66.0794 13.3476 882 58.5011 1023.06 501.471
830 0 69.1501 14.6348 1012 56.4387 1023.25 502.374
831 0 69.0519 13.8591 957 58.0752 1023.27 499.544
832 0 73.2503 13.7747 1009 57.6353 1023.63 498.988
833 0 74.1914 13.0338 967 58.7291 1023.14 497.93
834 0 79.0472 15.1428 1197 56.2473 1023.41 498.65
835 1 35.0181 12.5078 438 58.8744 1023.43 517.247
836 0 36.0294 11.7127 422 60.5948 1022.93 517.367
837 0 39.0871 12.8943 504 59.0595 1022.46 516.859
838 0 41.0394 14.084 578 57.3633 1023.38 515.545
839 0 41.0459 11.7186 481 60.6757 1022.4 512.919
840 0 41.0577 11.6665 479 60.8768 1022.94 513.56
841 0 43.0663 12.6317 544 59.3732 1022.95 513.816
842 0 44.1194 13.5315 597 58.4941 1023.29 513.417
843 0 45.1315 13.3388 602 59.2525 1023 513.454
844 0 47.0527 12.2841 578 61.2301 1023.35 512.567
845 0 49.0321 12.4204 609 59.8243 1023.42 511.054
846 0 51.1864 14.457 740 57.4959 1023.08 511.236
847 0 52.1205 12.4711 650 59.9262 1023 509.129
848 0 52.0407 11.049 575 61.767 1024.16 511.085
849 0 55.1058 13.5376 746 59.1568 1023.5 508.847
850 0 57.0577 12.426 709 60.1735 1022.49 507.958
851 0 57.1056 14.5345 830 58.7518 1022.2 506.007
852 0 58.1561 12.6728 737 60.3487 1023.38 505.672
853 0 64.2331 14.027 901 58.0522 1023.79 504.4
854 0 63.1072 11.9162 752 60.875 1023.12 503.207
855 0 67.167 13.8163 928 58.1002 1023.09 504.921
856 0 67.0335 13.3366 894 59.151 1022.88 503.698
857 0 70.1367 14.1296 991 58.4521 1022.46 501.632
858 0 74.2148 14.4715 1074 58.0577 1022.06 497.891
859 0 75.0417 13.6857 1027 58.9007 1022.99 499.641
860 1 39.1269 12.8556 503 58.1213 1022.79 517.694
861 0 40.0775 11.2781 452 61.4425 1023.17 517.746
862 0 42.233 10.8683 459 62.1547 1023.05 517.373
863 0 43.2054 13.0771 565 60.0938 1023.32 517.285
864 0 42.1118 11.2795 475 62.9663 1023.41 514.646
865 0 47.1862 12.2493 578 60.3201 1023.25 516.202
866 0 45.1056 12.6814 572 61.0157 1023.19 514.916
867 0 47.0652 13.7257 646 60.1641 1023.45 512.774
868 0 40.0233 8.29517 332 65.6175 1023.6 504.551
869 1 52.1798 14.3351 748 58.8596 1023.5 512.739
870 0 52.1075 14.9307 778 58.644 1022.69 511.815
871 0 55.1622 13.2518 731 60.5075 1022.98 508.413
872 0 57.1491 12.1787 696 61.0934 1022.6 511.045
873 0 60.1656 14.1609 852 59.088 1022.12 509.969
874 0 60.0485 12.1069 727 62.2861 1022.96 504.898
875 0 61.0869 12.8178 783 62.0856 1022.06 504.839
876 0 66.0966 12.981 858 61.8636 1022.71 505.253
877 0 67.0992 13.9197 934 60.7013 1022.43 504.903
878 0 68.2156 13.0908 893 61.6685 1022.09 503.393
879 0 72.1143 13.4925 973 61.222 1022.27 503.585
880 0 72.0718 13.0148 938 62.8134 1022.08 498.933
881 0 75.1603 11.7216 881 64.2928 1021.89 499.017
882 0 79.0875 12.7327 1007 63.4717 1022.55 501.242
883 1 38.1531 11.3752 434 65.1866 1023.35 517.823
884 0 41.0904 13.5555 557 62.5386 1022.62 517.704
885 0 42.0174 13.8514 582 62.1048 1021.86 519.241
886 0 43.0407 13.3595 575 63.6852 1022.95 517.376
887 0 42.0515 12.0567 507 66.1874 1022.43 516.268
888 0 45.2117 11.789 533 66.0713 1022.67 515.914
889 0 46.0437 13.7478 633 64.5308 1022.85 516.1
890 0 50.1222 14.2851 716 63.3003 1022.85 515.391
891 0 50.0433 12.5691 629 65.3879 1023.49 515.396
892 0 51.1202 14.2801 730 64.3794 1023.51 512.701
893 0 53.0507 13.1007 695 65.7827 1023.2 511.396
894 0 55.091 14.0132 772 65.1878 1022.74 511.246
895 0 57.0376 13.5875 775 66.0013 1023.29 508.763
896 0 58.2211 15.0289 875 64.5863 1023.63 510.408
897 0 63.119 13.7518 868 65.3479 1023.9 509.561
898 0 63.1073 13.6593 862 66.6044 1024.01 507.912
899 0 63.1026 12.757 805 68.2596 1023.78 508.643
900 0 67.1346 13.1527 883 67.3952 1023.39 507.342
901 0 69.1969 14.7983 1024 66.123 1023.47 503.873
902 0 72.0929 13.9958 1009 66.2359 1024.04 506.417
903 0 74.1435 14.1348 1048 66.7462 1023.45 503.299
904 0 76.0888 14.1414 1076 67.7574 1024.05 500.114
905 0 77.1403 14.2597 1100 68.2164 1024.06 499.376
906 1 40.0938 12.371 496 68.1089 1023.74 519.433
907 0 42.1084 14.7476 621 65.5185 1023.53 518.82
908 0 42.075 14.3316 603 67.3781 1023.43 516.919
909 0 42.1595 13.8759 585 68.3316 1024.48 518.169
910 0 44.209 14.1374 625 67.5728 1024.57 517.466
911 0 46.1135 13.4668 621 68.5298 1024.94 516.622
912 0 47.1476 14.5713 687 68.2999 1025.04 513.565
913 0 48.0608 14.2112 683 68.3938 1025.25 515.999
914 0 49.092 13.8923 682 69.2346 1024.19 514.242
915 0 52.1445 12.9832 677 69.2703 1024.83 514.693
916 0 53.3144 14.874 793 67.2686 1024.16 513.512
917 0 57.1738 13.8875 794 67.5176 1025.09 514.382
918 0 55.0523 14.5316 800 68.4612 1023.92 511.115
919 0 60.0221 14.628 878 66.2734 1023.76 513.319
920 0 61.1504 15.0122 918 65.7854 1023.64 512.88
921 0 60.0626 13.0697 785 70.1618 1023.34 510.675
922 0 63.1827 16.0012 1011 66.6231 1023.69 508.49
923 0 64.0982 13.8382 887 69.3021 1023.45 509.201
924 0 66.1704 13.3746 885 70.3412 1023.43 507.658
925 0 68.1224 13.8427 943 70.0233 1023.57 506.666
926 0 70.0886 14.7242 1032 69.2364 1022.97 506.405
927 0 71.176 12.7712 909 71.7756 1023.6 506.754
928 0 75.0896 14.9954 1126 70.357 1023.4 502.98
929 0 77.0733 13.5715 1046 72.7103 1023.02 501.742
930 0 79.1096 14.1829 1122 72.311 1022.71 501.005
931 0 81.1594 14.4161 1170 72.147 1023.23 500.479
932 0 83.2738 14.3262 1193 72.9237 1022.81 497.836
933 0 85.1191 13.3578 1137 74.0343 1022.59 499.109
934 0 86.1436 13.0015 1120 75.6464 1023.44 495.419
935 0 92.1567 14.3668 1324 72.5574 1023.55 497.232
936 0 93.1633 13.9003 1295 73.834 1023.26 495.145
937 0 94.0515 14.9812 1409 72.8403 1023.25 496.628
938 0 98.1666 13.3039 1306 76.0727 1023.5 493.961
939 1 50.1241 15.0227 753 72.9469 1023.31 513.154
940 0 54.1294 14.4469 782 71.8031 1022.82 514.109
941 0 54.088 14.1621 766 73.6031 1022.35 511.305
942 0 55.1217 11.393 628 77.5462 1022.85 511.919
943 0 56.1417 12.4685 700 76.1743 1023.96 510.626
944 0 60.0896 14.7779 888 72.4189 1023.45 510.568
945 0 62.0617 13.8411 859 74.2247 1022.51 508.503
946 0 63.2504 14.3556 908 73.0297 1023.22 509.455
947 0 66.1032 12.9495 856 74.6086 1024.03 509.408
948 0 67.0981 13.3238 894 75.0906 1023.69 506.083
949 0 69.0589 13.7564 950 73.8737 1024.42 507.023
950 0 72.2686 14.2109 1027 74.1675 1024.84 503.926
951 1 36.2811 13.7261 498 73.7088 1024.46 518.936
952 0 39.2198 13.3351 523 73.7438 1024.41 519.05
953 0 40.0643 13.054 523 72.8738 1024.72 519.803
954 0 40.132 11.2878 453 74.8146 1023.97 520.6
955 0 43.0739 14.2081 612 71.6846 1023.57 517.333
956 0 44.149 13.613 601 71.995 1023.28 517.894
957 0 44.151 13.7256 606 73.3284 1023.82 515.764
958 0 46.2337 13.8644 641 72.5429 1023.53 515.136
959 0 49.0563 13.0666 641 73.0811 1023.71 514.139
960 0 50.0337 15.1298 757 71.0555 1023.1 514.063
961 0 51.139 12.7691 653 73.8806 1023.63 512.591
962 0 52.1143 12.4534 649 74.1972 1023.93 513.251
963 0 54.1779 15.5229 841 70.258 1023.79 512.64
964 0 57.3183 14.6725 841 71.4162 1024.04 511.724
965 0 58.093 12.721 739 74.7118 1024.09 510.149
966 0 58.1609 13.5314 787 74.4524 1024.57 507.994
967 0 63.1592 14.1072 891 72.6061 1023.75 507.77
968 0 64.1543 13.4987 866 73.8256 1023.84 507.993
969 0 66.1167 14.2929 945 73.163 1024.52 505.753
970 0 67.0807 12.8353 861 74.6051 1024.3 506.346
971 0 68.2635 13.946 952 74.6481 1024.22 503.119
972 0 70.0556 14.2173 996 75.0472 1024.67 503.122
973 0 74.1617 13.3088 987 74.9808 1024.79 501.849
974 1 37.1623 13.6159 506 73.6858 1024.72 519.466
975 0 37.1853 13.1235 488 75.2582 1024.68 519.611
976 0 36.1231 13.2879 480 75.6396 1024.37 518.998
977 0 38.3123 13.1811 505 74.2812 1023.98 519.35
978 0 40.2807 13.0335 525 74.7981 1024.33 519.15
979 0 41.3298 14.7351 609 73.7126 1025.39 515.859
980 0 43.2807 14.3251 620 73.5645 1023.83 516.04
981 0 44.0666 14.0923 621 74.4734 1023.59 515.098
982 0 45.0504 14.1841 639 73.4178 1024.19 516.099
983 0 47.1453 13.6387 643 73.93 1024.43 513.743
984 0 49.0779 14.8336 728 72.2679 1024.11 512.747
985 0 51.0723 13.6473 697 73.769 1024.46 512.194
986 0 50.0702 12.3227 617 75.2334 1023.58 511.945
987 0 53.334 12.4311 663 74.2609 1024.27 512.787
988 0 56.114 15.2725 857 70.1972 1024.29 510.625
989 0 55.2487 14.1361 781 71.9475 1024.36 511.175
990 0 58.2198 14.3937 838 72.3294 1024.11 508.172
991 0 63.1543 14.6467 925 69.9859 1023.63 510.056
992 0 63.3452 13.3238 844 73.295 1023.86 507.133
993 0 64.0654 15.7027 1006 70.6074 1024.79 506.677
994 0 66.0709 13.758 909 72.8735 1023.58 505.469
995 0 68.0657 14.0453 956 72.2699 1023.75 502.538
996 0 72.2377 13.857 1001 72.3177 1023.75 504.492
997 0 73.1221 13.539 990 73.1374 1023.94 502.866
998 0 75.0757 15.1181 1135 70.8335 1023.62 501.478
999 0 78.2556 13.5837 1063 72.905 1023.88 500.294
1000 0 81.3165 13.9455 1134 71.7064 1024.44 499.055
1001 0 84.1198 14.836 1248 70.903 1023.66 496.252
1002 1 44.0619 12.3236 543 72.9006 1023.75 518.459
1003 0 45.0696 15.465 697 70.2697 1024.42 516.409
1004 0 48.0576 14.2745 686 71.8192 1023.61 515.373
1005 0 50.1728 13.9319 699 71.8898 1023.83 515.644
1006 0 51.4322 13.2796 683 73.0351 1023.79 513.949
1007 0 52.1735 12.7459 665 73.0857 1023.92 516.021
1008 0 54.2439 14.3058 776 71.8286 1024.23 514.045
1009 0 57.1221 15.178 867 70.9089 1023.7 512.247
1010 0 56.0907 15.4036 864 71.4688 1024.79 509.391
1011 0 59.1152 13.5498 801 72.8215 1024.5 511.296
1012 0 61.1179 15.1674 927 70.9266 1024.13 509.82
1013 0 61.1789 15.3648 940 71.3234 1023.96 508.649
1014 0 65.1189 15.9247 1037 69.7724 1023.01 508.241
1015 0 66.1627 13.89 919 72.7954 1022.6 506.84
1016 0 72.4008 15.6766 1135 69.2379 1023.07 505.224
1017 0 73.3758 14.3372 1052 71.0095 1022.84 505.3
1018 0 71.1907 13.3444 950 73.8021 1022.51 503.252
1019 0 76.0952 15.4806 1178 70.3056 1023.34 501.798
1020 0 80.1438 13.5382 1085 71.683 1023.14 503.327
1021 0 83.1741 13.7062 1140 71.8772 1022.59 500.818
1022 1 40.1042 14.1382 567 70.7055 1022.26 521.095
1023 0 40.0753 14.8221 594 70.5673 1023.12 520.052
1024 0 43.0331 13.4315 578 72.3166 1023.24 517.19
1025 0 45.1159 13.9197 628 70.5159 1023.59 519.594
1026 0 45.0526 14.6495 660 70.5955 1023.23 519.653
1027 0 48.1054 14.9671 720 70.2778 1022.03 517.625
1028 0 45.113 12.2803 554 75.1913 1022.06 517.433
1029 0 48.1664 13.2458 638 73.232 1022.56 516.5
1030 0 52.1372 13.8097 720 70.3194 1021.63 518.157
1031 0 52.0806 15.3608 800 70.2575 1021.7 515.642
1032 0 56.2727 15.9402 897 69 1022.05 512.891
1033 0 57.1826 15.092 863 69.6211 1022.45 514.492
1034 0 57.1481 15.1536 866 71.1894 1021.98 510.98
1035 0 60.0877 14.3291 861 70.4019 1022.13 512.965
1036 0 62.1726 16.3416 1016 68.8661 1021.96 509.069
1037 0 61.1291 13.6269 833 72.928 1022.1 509.405
1038 0 66.0883 14.4352 954 71.7442 1021.88 507.733
1039 0 68.0844 14.8933 1014 70.6134 1022.49 509.684
1040 0 71.1743 16.0732 1144 69.458 1021.93 506.832
1041 0 74.231 16.3139 1211 69.4558 1021.25 506.701
1042 0 75.4988 15.391 1162 71.574 1021.26 503.229
1043 0 80.2379 15.7033 1260 70.954 1021.56 502.729
1044 0 81.1053 14.7093 1193 72.8273 1021.36 500.455
1045 0 82.1305 14.1482 1162 73.4045 1020.38 501.546
1046 0 88.2273 16.7069 1474 69.4254 1020.79 501.723
1047 0 88.4652 14.582 1290 73.0194 1021.64 500.655
1048 1 44.0473 14.0985 621 71.3816 1021.98 521.892
1049 0 42.0575 13.1962 555 76.1748 1021.63 519.041
1050 0 43.3489 14.5563 631 74.4105 1021.42 520.585
1051 0 48.5355 14.8139 719 72.4298 1021.66 520.281
1052 0 47.0794 14.6986 692 74.2962 1021.44 518.28
1053 0 50.1499 13.9382 699 75.814 1021.26 517.415
1054 0 50.1164 14.7257 738 75.729 1021.81 516.94
1055 0 52.0896 14.8782 775 75.1045 1022.35 516.759
1056 0 55.146 15.9395 879 73.5597 1021.69 515.785
1057 0 56.2676 14.431 812 75.8054 1021.31 516.815
1058 0 56.3133 14.9343 841 75.8157 1021.73 515.168
1059 0 59.1453 15.1491 896 75.5067 1021.83 512.648
1060 0 63.0944 15.6908 990 73.1182 1021.93 513.661
1061 0 64.2216 14.7147 945 75.1291 1022.18 513.506
1062 0 66.4019 14.4122 957 75.8359 1021.99 510.973
1063 0 68.1712 14.757 1006 74.831 1022 511.582
1064 0 71.0989 15.9637 1135 73.7092 1022.11 508.709
1065 0 73.4156 15.4599 1135 73.9859 1022.87 510.1
1066 0 77.1526 13.9075 1073 75.9627 1022.89 507.422
1067 0 78.4073 14.4247 1131 75.0424 1022.15 506.508
1068 0 79.2969 14.9943 1189 74.5374 1022.42 504.952
1069 0 84.0676 13.6914 1151 75.411 1021.45 505.954
1070 0 85.3677 12.7449 1088 77.0395 1021.5 505.096
1071 0 88.1758 15.7073 1385 72.2751 1023.08 503.508
1072 1 43.3137 14.2218 616 73.5195 1023.04 523.594
1073 0 43.2224 13.5347 585 74.8154 1021.99 523.757
1074 0 46.0775 14.6492 675 73.5941 1022.09 521.741
1075 0 47.1546 13.9329 657 73.8767 1022.71 521.746
1076 0 49.0833 16.3396 802 70.6721 1022.82 521.324
1077 0 51.2886 15.0521 772 72.4197 1022.8 519.196
1078 0 52.1396 14.6146 762 72.8911 1022.51 519.634
1079 0 51.0874 15.3267 783 73.9195 1022.19 517.014
1080 0 54.2577 14.7813 802 73.9726 1022.77 514.741
1081 0 57.1503 15.5205 887 72.4634 1022.25 516.315
1082 0 58.1418 14.1551 823 74.4423 1021.9 514.358
1083 0 59.2663 14.4264 855 74.9544 1023.01 513.227
1084 0 60.1976 14.7514 888 74.5045 1022.56 511.418
1085 0 64.607 14.4102 931 73.7562 1022.09 511.92
1086 0 64.4024 13.4467 866 75.8406 1022.28 510.109
1087 0 67.5606 14.5203 981 73.8828 1021.95 509.437
1088 0 69.2529 14.1366 979 75.0133 1022.49 509.671
1089 0 73.1713 13.4342 983 75.6124 1022.2 505.545
1090 0 74.4057 15.9934 1190 72.6286 1022.64 506.654
1091 0 76.1925 13.2953 1013 76.5498 1023.06 506.114
1092 0 81.4407 15.8275 1289 72.4112 1021.81 504.158
1093 0 82.1633 15.1406 1244 73.9582 1022.24 502.815
1094 0 83.2772 15.2022 1266 73.801 1021.57 502.848
1095 1 38.2011 15.1305 578 74.417 1021.98 523.223
1096 0 38.1535 13.9437 532 76.703 1022.92 522.87
1097 0 40.3266 14.3082 577 76.9203 1022.61 521.485
1098 0 40.4692 13.7141 555 78.1928 1022.11 520.477
1099 0 42.1687 14.276 602 77.0914 1022.34 520.304
1100 0 42.1963 13.9586 589 76.9762 1023.19 521.834
1101 0 44.3145 13.9683 619 77.2068 1022.68 518.837
1102 0 46.2098 15.2565 705 76.0936 1022.06 519.423
1103 0 48.2419 15.671 756 74.7368 1022.19 518.742
1104 0 48.1299 15.2296 733 75.7121 1022.1 517.408
1105 0 49.2753 14.6727 723 77.1743 1021.76 517.986
1106 0 51.1872 14.7302 754 75.6724 1022.77 518.626
1107 0 54.2258 14.1999 770 76.7039 1023.73 516.174
1108 0 55.1152 14.9687 825 76.4933 1023.27 516.229
1109 0 55.1904 15.8542 875 76.1669 1022.95 514.529
1110 0 58.1248 17.0667 992 73.9829 1023.69 513.695
1111 0 59.1094 15.0568 890 77.1371 1023.64 512.807
1112 0 61.193 15.5573 952 75.8992 1023.36 512.195
1113 0 63.2756 16.5151 1045 68.3349 1023.08 510.737
1114 0 66.3429 15.7967 1048 74.8979 1023.06 512.525
1115 0 69.3037 16.9111 1172 73.7927 1023.39 509.953
1116 0 69.4016 16.8584 1170 74.4607 1023.44 509.116
1117 0 73.209 17.1427 1255 73.8494 1023.12 507.517
1118 0 75.1768 17.3192 1302 72.8802 1023.94 507.422
1119 0 76.3768 15.8556 1211 75.9843 1022.95 505.117
1120 0 77.2464 14.6026 1128 77.805 1023.44 503.449
1121 0 81.3085 14.5495 1183 77.4446 1023.95 503.724
1122 0 84.2543 15.7855 1330 75.6632 1023.74 499.702
1123 0 88.3474 15.258 1348 76.322 1024.28 498.289
1124 0 89.3358 15.0779 1347 76.6897 1023.73 498.4
1125 1 44.1969 13.7566 608 77.6266 1023.48 520.02
1126 0 46.0603 14.1119 650 76.9631 1023.01 520.245
1127 0 46.3906 14.3564 666 77.97 1024.07 517.784
1128 0 48.0867 17.1149 823 75.0595 1023.16 515.216
1129 0 50.1853 16.2 813 75.3592 1024.43 516.294
1130 0 51.0729 16.2513 830 76.0747 1023.19 515.002
1131 0 51.1242 15.2961 782 77.8235 1022.56 513.996
1132 0 55.0461 15.4779 852 76.3768 1023.34 513.863
1133 0 55.1501 15.8477 874 76.6133 1022.29 513.162
1134 0 56.1387 14.8204 832 77.6538 1021.92 513.255
1135 0 60.2762 16.3746 987 74.7933 1022.27 510.688
1136 0 61.1156 15.7243 961 75.8845 1022.96 511.71
1137 0 62.1383 15.1597 942 76.5531 1022.12 510.447
1138 0 65.2092 14.6452 955 77.3613 1022.38 506.84
1139 0 68.2536 15.5157 1059 75.1171 1022.3 507.193
1140 0 71.2455 15.1869 1082 75.6848 1022.98 506.927
1141 0 71.0408 15.3011 1087 75.9742 1022.97 505.952
1142 0 75.184 15.3756 1156 74.7586 1023.1 504.19
1143 0 76.0987 15.3091 1165 74.8927 1023.37 503.407
1144 0 80.2969 14.8947 1196 75.3077 1023.38 500.732
1145 0 83.109 15.4857 1287 74.0031 1023.05 501.445
1146 0 86.0975 15.738 1355 72.9838 1022.97 499.069
1147 0 90.191 15.7222 1418 72.8244 1022.46 497.03
1148 1 42.0969 13.8253 582 73.3488 1023.76 520.062
1149 0 41.259 13.7909 569 76.0369 1023.36 518.16
1150 0 45.1712 14.8546 671 72.8092 1023.67 518.888
1151 0 45.126 16.0883 726 73.5165 1022.97 517.499
1152 0 47.1901 16.6984 788 70.4086 1022.95 518.518
1153 0 49.2198 15.2581 751 72.4874 1024.04 517.963
1154 0 49.1462 15.0164 738 73.5217 1023.83 516.469
1155 0 51.3788 14.9673 769 74.2549 1023.29 513.871
1156 0 51.2819 16.302 836 72.6423 1022.6 514.331
1157 0 54.3356 16.9686 922 71.3514 1022.67 512.889
1158 0 56.2178 16.0803 904 71.9038 1023.13 512.025
1159 0 55.2353 15.8594 876 72.7957 1023.04 513.086
1160 0 58.0762 15.273 887 73.9267 1023.54 511.504
1161 0 60.2452 16.0511 967 72.2254 1023.68 510.312
1162 0 62.205 14.3718 894 73.2808 1022.79 510.796
1163 0 63.2621 13.4362 850 75.5271 1023.06 508.475
1164 0 68.1062 15.2703 1040 72.1904 1023.5 507.955
1165 0 68.0508 15.2239 1036 73.0637 1023.38 506.727
1166 0 71.0945 15.8803 1129 71.3268 1023.4 504.671
1167 0 71.0813 13.7589 978 74.0695 1023.51 504.441
1168 0 73.2567 14.7836 1083 72.3296 1024.17 502.705
1169 0 77.3084 15.4576 1195 71.1121 1024 500.683
1170 0 79.2826 14.3033 1134 71.8906 1023.38 499.627
1171 0 82.2595 14.6974 1209 70.9926 1023.71 499.12
1172 0 84.3325 15.344 1294 70.4946 1023.58 498.036
1173 0 89.3089 16.5269 1476 68.0684 1023.32 497.69
1174 0 90.131 16.7978 1514 68.1764 1024.36 497.449
1175 0 92.1811 14.0593 1296 71.1397 1023.5 496.479
1176 1 47.1046 13.1622 620 70.8274 1023.18 517.153
1177 0 49.1333 15.346 754 68.7122 1024.06 516.55
1178 0 48.1648 13.5784 654 72.1361 1024.35 516.599
1179 0 52.0449 14.8141 771 70.0285 1023.63 516.358
1180 0 53.1536 15.0319 799 70.9712 1023.7 513.817
1181 0 54.6573 14.472 791 71.5841 1023.83 515.445
1182 0 54.1532 14.3297 776 73.9034 1022.58 512.058
1183 0 58.3861 15.5859 910 71.2099 1023.83 513.742
1184 0 59.2356 14.3833 852 73.5704 1023.66 512.205
1185 0 62.1693 15.9725 993 71.1299 1023.39 510.769
1186 0 63.0946 14.9141 941 73.339 1023.78 510.686
1187 0 63.3554 14.3003 906 74.9503 1023.86 507.022
1188 0 67.1174 16.4488 1104 71.625 1024.26 507.023
1189 0 69.2961 15.2678 1058 73.5983 1023.37 507.784
1190 0 68.1 14.1263 962 76.1622 1023.3 504.955
1191 0 74.1067 16.0579 1190 73.3479 1024.12 503.629
1192 0 77.1289 16.5567 1277 72.2866 1023.98 503.311
1193 0 76.1252 14.6207 1113 75.3702 1024.06 504.178
1194 0 82.0497 15.8684 1302 73.4677 1024.16 501.427
1195 0 83.1148 15.8576 1318 73.2451 1024.07 499.602
1196 0 86.3203 15.8364 1367 72.493 1023.65 502.404
1197 0 89.1361 14.9883 1336 74.4828 1023.45 498.642
1198 0 92.2056 14.8581 1370 73.9117 1024 497.724
1199 1 43.0466 15.4716 666 74.4925 1023.33 517.054
1200 0 47.044 15.2836 719 73.0765 1023.19 519.541
1201 0 47.1515 14.4216 680 75.7162 1023.42 518.91
1202 0 48.1422 15.4127 742 73.8544 1023.54 518.544
1203 0 50.2253 15.6097 784 74.051 1023.79 517.003
1204 0 51.0737 15.507 792 74.8725 1023.88 516.255
1205 0 52.2944 13.8256 723 77.2669 1024.1 515.7
1206 0 54.1081 14.3971 779 75.9679 1023.95 515.193
1207 0 57.0847 14.715 840 75.5429 1022.99 514.29
1208 0 56.118 16.2693 913 74.9639 1023.65 513.07
1209 0 59.1012 14.6359 865 76.4439 1023.86 512.333
1210 0 62.2264 15.9257 991 73.9818 1023.65 512.684
1211 0 62.5378 15.7025 982 74.7729 1023.78 510.263
1212 0 67.0621 15.2843 1025 75.0644 1024.04 508.077
1213 0 68.1589 15.8893 1083 74.7119 1022.79 507.435
1214 0 69.2498 15.4946 1073 75.3364 1023.88 506.363
1215 0 73.1281 14.9327 1092 75.6639 1023.39 504.029
1216 0 75.2105 15.1043 1136 75.2711 1023.76 504.183
1217 0 77.2337 15.0193 1160 75.2784 1023.7 502.024
1218 1 39.3432 13.8525 545 74.3229 1023.98 522.363
1219 0 39.1086 15.9556 624 72.3077 1024 522.505
1220 0 39.169 14.3736 563 75.4742 1024.28 521.179
1221 0 41.2032 14.4406 595 74.1613 1023.67 520.442
1222 0 40.3147 14.1884 572 75.493 1023.62 519.273
1223 0 43.2891 14.4378 625 75.0144 1024.26 519.054
1224 0 42.1656 15.1071 637 74.6907 1024.81 519.005
1225 0 44.07 14.3181 631 75.0127 1024.6 518.99
1226 0 46.3737 15.0948 700 74.2043 1024.31 516.7
1227 0 48.0781 14.3725 691 75.4935 1024.57 515.812
1228 0 51.3844 14.012 720 74.4222 1024.08 516.275
1229 0 50.2159 14.8758 747 75.0268 1024.12 515.09
1230 0 53.1443 14.5641 774 74.8876 1024.13 513.191
1231 0 55.3843 14.1917 786 74.2583 1024.56 513.336
1232 0 58.3695 16.1728 944 71.4958 1023.79 512.794
1233 0 60.1013 17.1045 1028 69.6021 1024.02 511.493
1234 0 60.0994 14.4428 868 73.5495 1024.37 509.692
1235 0 64.1831 15.0351 965 72.1762 1024.58 509.311
1236 0 65.3237 16.0585 1049 70.8208 1024.59 508.451
1237 0 66.1469 15.4051 1019 71.9578 1024.15 505.964
1238 0 72.2554 14.9331 1079 70.4328 1023.55 508.069
1239 0 71.1829 15.1581 1079 71.4087 1023.54 504.285
1240 0 73.1678 15.3893 1126 70.6501 1023.72 503.639
1241 0 76.2525 14.5962 1113 70.8922 1024.01 503.917
1242 0 80.2694 14.713 1181 70.5859 1023.19 502.532
1243 0 79.2159 14.6435 1160 71.0112 1023.78 500.222
1244 0 82.0846 14.7531 1211 70.2659 1024.1 500.227
1245 0 85.1524 13.8223 1177 70.7162 1023.76 499.82
1246 0 90.2061 14.999 1353 68.8182 1023.7 496.234
1247 0 92.2968 14.7351 1360 69.4125 1024.08 494.093
1248 0 96.4504 16.4541 1587 66.8576 1024.07 493.928
1249 0 97.4162 15.3978 1500 67.8813 1023.93 494.043
1250 1 48.1193 13.5081 650 70.64 1023.94 514.706
1251 0 51.3036 15.0282 771 68.1427 1024.18 515.394
1252 0 54.0685 15.5728 842 68.0309 1024.33 513.798
1253 0 55.2292 14.2678 788 69.4048 1024.1 514.477
1254 0 55.1287 14.2757 787 70.1245 1023.69 512.071
1255 0 59.3863 16.2664 966 67.2692 1023.37 512.636
1256 0 59.2132 17.6819 1047 66.2416 1024.14 511.02
1257 0 61.2507 16.359 1002 67.5369 1024.03 510.163
1258 0 64.2378 16.797 1079 66.8072 1023.62 509.633
1259 0 65.2161 14.567 950 69.5442 1024.03 510.613
1260 0 69.1196 16.8114 1162 66.7892 1024.95 508.383
1261 0 69.4403 15.1785 1054 69.315 1024.02 507.882
1262 0 71.134 14.6765 1044 70.4339 1024.13 507.358
1263 0 74.4143 15.1852 1130 69.8009 1024.07 505.166
1264 0 76.3346 14.9998 1145 70.1511 1023.5 504.879
1265 0 79.4017 15.6168 1240 69.0169 1022.96 506.148
1266 0 80.7463 14.6137 1180 71.5119 1024.01 499.164
1267 0 83.5923 14.9296 1248 70.5553 1023.77 497.595
1268 0 87.5618 13.9102 1218 71.3834 1023.41 501.258
1269 0 91.5262 16.3123 1493 68.7508 1023.77 496.932
1270 0 94.4417 15.5334 1467 69.8582 1023.02 495.761
1271 0 98.4636 15.0411 1481 70.3038 1022.9 494.298
1272 1 44.3953 13.4699 598 74.0334 1023.58 516.518
1273 0 47.1919 14.5788 688 71.4491 1023.65 519.017
1274 0 51.3054 15.4175 791 70.3388 1023.51 516.685
1275 0 51.4126 14.2183 731 72.0561 1022.03 518.245
1276 0 55.1714 16.1134 889 69.1496 1022.7 517.011
1277 0 55.1239 14.2044 783 73.2401 1023.02 514.14
1278 0 57.2944 15.6385 896 71.029 1024.33 513.438
1279 0 59.2058 15.6741 928 71.445 1024.16 513.093
1280 0 59.3818 15.3077 909 72.1848 1024.13 511.748
1281 0 61.1341 15.2942 935 73.1658 1024.18 510.262
1282 0 65.0768 15.2282 991 72.8557 1024.19 508.957
1283 0 65.052 15.4953 1008 72.8234 1024.52 508.599
1284 0 66.2491 14.5813 966 74.0797 1023.72 508.965
1285 0 69.2918 15.2832 1059 73.6034 1024.17 507.246
1286 0 73.2438 17.667 1294 69.8161 1023.63 507.879
1287 0 77.3979 17.7266 1372 69.0335 1023.36 505.969
1288 0 77.3819 15.6496 1211 72.6276 1024.04 504.429
1289 0 76.2312 13.5509 1033 77.1956 1023.88 504.457
1290 0 83.2768 16.2831 1356 71.9432 1024.33 502.38
1291 0 84.2595 15.5828 1313 72.7768 1024.23 502.15
1292 1 39.1522 14.8906 583 74.0806 1024.81 523.439
1293 0 40.3052 13.9436 562 75.7936 1023.91 520.591
1294 0 40.366 15.1117 610 74.3738 1024.64 522.372
1295 0 41.1988 14.515 598 76.1789 1023.78 521.56
1296 0 42.4027 14.999 636 75.6431 1023.75 520.697
1297 0 44.2322 14.8308 656 76.0213 1024.82 519.768
1298 0 49.2571 16.5661 816 71.3248 1024.13 521.1
1299 0 48.1251 14.1922 683 75.6032 1024.47 518.739
1300 0 49.1508 15.7678 775 74.6581 1024.36 517.844
1301 0 52.1614 15.7971 824 74.2427 1024.34 517.391
1302 0 51.4103 14.3746 739 77.3667 1024.14 517.112
1303 0 55.3439 16.4246 909 74.1463 1024.27 515.12
1304 0 55.1437 15.2329 840 76.6381 1023.86 514.963
1305 0 58.386 15.4318 901 75.3485 1024.89 513.764
1306 0 56.4439 14.8112 836 77.3923 1024.64 512.98
1307 0 61.2326 15.9556 977 75.1658 1023.56 514.371
1308 0 61.1738 15.4478 945 77.0212 1024.16 510.774
1309 0 64.1486 16.9762 1089 74.2773 1024.5 511.008
1310 0 67.2842 15.7243 1058 75.4953 1024.5 509.312
1311 0 70.2687 16.6361 1169 73.5321 1024.27 508.66
1312 0 72.3862 14.5193 1051 76.6851 1024.53 507.628
1313 0 72.2692 14.5567 1052 77.5295 1024.53 506.551
1314 0 76.2867 15.0354 1147 75.8082 1023.94 506.581
1315 0 79.1357 17.2109 1362 72.0999 1023.45 504.695
1316 0 81.2002 16.0837 1306 73.9058 1023.97 503.417
1317 0 84.227 15.7194 1324 73.9063 1024.09 501.73
1318 0 86.2968 16.0261 1383 73.4866 1023.65 501.04
1319 1 40.3028 13.9445 562 74.0641 1023.85 522.539
1320 0 42.1504 13.3569 563 74.9734 1024.27 521.721
1321 0 43.0894 13.9942 603 74.9867 1024.01 521.26
1322 0 44.1341 14.9997 662 73.6495 1024.33 520.642
1323 0 45.2062 15.0643 681 74.1968 1024.22 520.489
1324 0 47.2783 14.8906 704 74.4545 1024.56 521.018
1325 0 46.0396 15.6387 720 75.025 1024.3 519.315
1326 0 50.1329 16.0573 805 73.3602 1024.23 518.325
1327 0 49.2451 14.0725 693 77.4473 1024.18 518.182
1328 0 52.05 14.0826 733 77.5539 1023.74 517.175
1329 0 53.0693 14.2644 757 77.1678 1024.07 517.27
1330 0 55.08 14.7059 810 76.1691 1024.41 516.905
1331 0 57.1138 15.723 898 74.2305 1024.14 516.931
1332 0 57.2345 15.3404 878 75.8178 1024.51 514.721
1333 0 59.2463 14.5157 860 77.0872 1024.42 515.145
1334 0 61.1436 15.3737 940 75.8904 1024.81 514.283
1335 0 63.2676 16.3433 1034 75.3511 1025.48 510.857
1336 0 65.1685 15.0072 978 76.68 1024.15 511.495
1337 0 63.2889 14.0941 892 78.6839 1024.27 509.987
1338 0 68.3553 15.0829 1031 75.7944 1024.11 510.198
1339 0 71.2211 15.6414 1114 74.6706 1023.43 506.733
1340 0 73.2256 15.1313 1108 75.1345 1024.42 506.901
1341 0 76.1014 16.4649 1253 72.7733 1024.86 505.583
1342 0 79.1194 16.5193 1307 72.0099 1024.06 506.235
1343 0 81.1032 16.3126 1323 72.0763 1024.95 504.768
1344 0 83.2058 16.982 1413 71.1125 1024.34 501.917
1345 0 87.3606 15.1556 1324 72.9645 1024.58 499.893
1346 0 91.3965 15.8978 1453 71.7405 1023.89 500.279
1347 0 91.2074 13.7379 1253 75.929 1023.9 497.48
1348 0 97.1712 15.4367 1500 72.4607 1024.74 498.389
1349 0 99.1785 15.7796 1565 72.2965 1024.98 496.819
1350 1 46.1137 15.8087 729 73.9931 1023.91 519.022
1351 0 46.0698 15.368 708 76.1723 1023.8 517.85
1352 0 48.0702 17.2664 830 73.5639 1023.35 517.024
1353 0 51.0738 14.528 742 75.4771 1023.89 519.074
1354 0 52.1035 14.1641 738 77.9106 1024.44 515.484
1355 0 54.0411 14.9146 806 76.6712 1024.32 517.676
1356 0 56.1923 14.8597 835 76.6695 1023.79 515.974
1357 0 61.0758 15.6854 958 63.5146 1022.69 517.28
1358 0 60.2104 18.1862 1095 72.7215 1023.92 515.252
1359 0 61.085 16.3379 998 76.0731 1024.22 513.926
1360 0 61.1318 15.5075 948 78.0707 1023.93 512.385
1361 0 63.1082 14.8 934 79.1831 1023.93 512.312
1362 0 67.1061 16.4963 1107 76.9259 1023.41 509.913
1363 0 69.1264 15.0304 1039 78.3657 1024.02 509.793
1364 0 68.1419 14.0295 956 80.7406 1024.03 508.063
1365 0 72.2332 15.1315 1093 78.2278 1023.81 506.107
1366 0 75.0951 15.2607 1146 76.7042 1023.85 506.67
1367 0 78.1186 15.6813 1225 75.6359 1024.42 503.539
1368 0 81.221 15.7718 1281 74.4902 1024.35 503.459
1369 0 85.2927 16.4375 1402 73.1405 1023.87 500.869
1370 0 88.2186 15.5749 1374 73.8894 1024.07 500.309
1371 0 89.1716 15.2515 1360 74.639 1024.24 498.574
1372 0 91.1587 14.8093 1350 75.2948 1023.7 496.533
1373 0 97.2801 14.7101 1431 74.1216 1023.71 494.255
1374 1 45.1214 15.824 714 73.549 1024.19 519.189
1375 0 47.2135 16.5631 782 72.1356 1024.27 519.243
1376 0 48.0718 16.5586 796 72.9108 1024 516.46
1377 0 49.04 13.907 682 76.5308 1023.94 516.186
1378 0 52.0831 15.4753 806 73.2283 1024.33 516.814
1379 0 53.0564 15.983 848 73.0943 1025.29 515.175
1380 0 54.0693 15.0733 815 74.6712 1024.03 515.077
1381 0 57.0808 16.6606 951 71.5068 1023.73 515.523
1382 0 58.0382 14.9901 870 74.4483 1023.67 513.741
1383 0 60.099 14.9587 899 74.1791 1023.38 513.161
1384 0 63.1974 14.7474 932 73.9346 1023.59 511.207
1385 0 65.1609 15.4694 1008 72.7927 1023.84 511.579
1386 0 66.1025 15.2037 1005 73.3821 1024.77 508.911
1387 0 69.3436 15.9496 1106 71.9548 1024.1 507.776
1388 0 70.1376 16.0684 1127 71.0958 1023.74 509.658
1389 0 73.0479 15.1955 1110 72.345 1024.07 508.12
1390 0 76.1773 16.3566 1246 71.4647 1023.97 505.47
1391 0 79.1285 15.5443 1230 71.839 1023.72 503.706
1392 0 81.1185 15.7917 1281 71.4676 1023.61 503.671
1393 0 85.088 16.054 1366 70.806 1023.82 502.264
1394 0 89.1875 14.8339 1323 72.1935 1024.72 502.304
1395 0 91.1076 15.8384 1443 70.4158 1023.96 501.448
1396 0 93.154 15.9306 1484 70.5573 1024.04 499.277
1397 0 95.1604 15.91 1514 71.1836 1024.65 495.781
1398 1 47.0593 15.1723 714 71.6204 1024.25 518.812
1399 0 48.0808 13.8517 666 72.548 1024.53 519.631
1400 0 47.0523 15.1959 715 70.8545 1024.09 520.669
1401 0 50.0758 14.9773 750 72.292 1023.99 518.356
1402 0 52.12 16.3277 851 70.6874 1024.41 516.582
1403 0 51.1159 15.5138 793 72.7112 1024.18 515.441
1404 0 54.17 15.1745 822 72.8759 1024.34 516.176
1405 0 54.1662 14.7694 800 73.0838 1024.25 516.439
1406 0 54.047 13.5808 734 75.436 1024.55 515.09
1407 0 57.2116 14.8222 848 73.7724 1023.91 513.823
1408 0 60.0721 16.8631 1013 71.7335 1023.43 512.186
1409 0 62.2265 15.9418 992 72.1936 1023.61 512.662
1410 0 62.1005 14.9113 926 72.9438 1024.39 513.797
1411 0 65.3164 16.1215 1053 72.377 1025.07 508.1
1412 0 64.3704 14.7117 947 74.8279 1024.54 509.86
1413 0 69.2381 15.6128 1081 73.0352 1024.05 508.132
1414 0 70.148 14.0132 983 75.3632 1024.05 505.427
1415 0 69.2453 13.7338 951 76.4164 1024.01 505.338
1416 0 74.2975 14.8592 1104 73.9447 1024.1 504.462
1417 0 78.1838 14.402 1126 73.5213 1023.95 504.892
1418 0 81.3396 16.9905 1382 70.2135 1024.46 500.488
1419 0 83.1817 15.6044 1298 72.1795 1024.69 500.225
1420 0 86.4616 15.2669 1320 72.0061 1024.89 500.522
1421 0 89.0773 15.3687 1369 72.3053 1024.02 496.935
1422 0 92.2868 15.5494 1435 71.6467 1024.51 498.091
1423 0 97.1461 15.1627 1473 71.2641 1024.61 498.83
1424 0 99.3901 14.6192 1453 72.6882 1024.13 494.8
1425 0 104.157 16.3119 1699 69.9211 1024.85 493.532
1426 1 46.2873 12.7681 591 74.78 1024.52 517.883
1427 0 48.1203 15.2327 733 71.3561 1024.76 519.479
1428 0 48.0553 14.5041 697 73.8494 1024.53 518.818
1429 0 52.0743 15.1706 790 71.1367 1024.86 520.72
1430 0 52.0386 14.7583 768 73.3581 1024.97 518.794
1431 0 53.2053 16.1826 861 70.4251 1024.51 520.915
1432 0 53.1763 14.7622 785 74.8994 1025.15 517.976
1433 0 55.0817 14.7962 815 75.1914 1024.85 517.826
1434 0 55.0702 15.1806 836 76.8481 1024.36 514.976
1435 0 57.332 15.9945 917 74.7088 1024.81 516.503
1436 0 58.2951 15.0098 875 76.4251 1024.32 515.106
1437 0 60.2132 14.6313 881 76.5267 1024.2 515.595
1438 0 63.3605 17.645 1118 72.3497 1024.64 513.507
1439 0 63.1836 14.1809 896 77.4609 1024.54 512.48
1440 0 66.292 16.1558 1071 74.2213 1024.93 511.602
1441 0 68.1667 15.1247 1031 75.3453 1024.49 511.952
1442 0 71.2518 15.4522 1101 74.6985 1024.63 510.708
1443 0 72.1694 16.2119 1170 73.9496 1024.6 507.745
1444 0 75.1191 15.0028 1127 74.9867 1024.37 508.061
1445 0 76.2783 14.9059 1137 75.2375 1024.15 506.623
1446 0 80.3487 16.0426 1289 72.7929 1023.98 506.14
1447 0 81.1901 14.5215 1179 75.1807 1024.41 506.336
1448 0 84.119 15.4305 1298 73.5362 1024.24 503.744
1449 0 86.1339 15.801 1361 73.0948 1024.49 503.317
1450 0 89.1528 14.8509 1324 74.8784 1023.78 501.384
1451 1 42.2251 14.2569 602 73.4103 1025.49 523.703
1452 0 43.0512 15.2609 657 73.7382 1024.79 521.333
1453 0 44.078 14.5424 641 75.6303 1025.24 519.183
1454 0 45.0875 13.9285 628 75.051 1022.79 521.282
1455 0 48.0918 16.6556 801 71.3396 1023.5 520.029
1456 0 50.0754 15.6165 782 71.5806 1024.29 519.458
1457 0 50.1076 14.1096 707 73.5587 1024.54 519.188
1458 0 52.1661 13.0736 682 75.1056 1023.81 517.867
1459 0 52.1278 16.2677 848 72.5601 1023.29 515.341
1460 0 55.1879 16.616 917 70.6238 1023.97 516.674
1461 0 58.2034 15.4974 902 72.1541 1024.49 514.686
1462 0 57.0965 16.8662 963 71.6874 1024.74 514.01
1463 0 58.1841 14.7979 861 75.3554 1023.74 511.71
1464 0 60.0942 15.1595 911 74.5071 1023.87 513.304
1465 0 63.0163 14.3138 902 75.4313 1024.78 511.59
1466 0 64.1224 15.8447 1016 73.4636 1023.97 509.989
1467 0 66.0792 15.2544 1008 73.9236 1024.46 509.472
1468 0 69.1041 15.0063 1037 73.7223 1023.16 508.309
1469 0 71.1294 16.6738 1186 71.0531 1024.03 508.618
1470 0 71.2352 15.891 1132 72.9346 1023.57 503.806
1471 0 75.072 15.4652 1161 72.8036 1023.83 504.036
1472 0 79.2409 17.0871 1354 69.8235 1023.97 504.753
1473 0 81.2895 15.8446 1288 71.1918 1023.87 501.601
1474 0 83.0582 15.447 1283 71.9376 1023.78 501.832
1475 0 86.1858 16.8125 1449 69.5348 1023.58 501.21
1476 0 88.1487 15.0201 1324 72.1224 1023.41 500.424
1477 1 45.1153 13.8756 626 72.8834 1023.67 520.564
1478 0 46.0417 14.1393 651 73.3886 1023.98 518.748
1479 0 46.0644 14.8922 686 73.7026 1023.65 516.908
1480 0 49.1427 16.1367 793 70.71 1023.45 519.677
1481 0 51.096 14.2281 727 74.1004 1023.39 517.638
1482 0 51.0595 16.3731 836 71.3935 1023.03 516.129
1483 0 53.4064 14.2492 761 73.3377 1022.95 517.355
1484 0 52.2044 14.0026 731 75.5581 1023.66 514.61
1485 0 56.1989 13.3099 748 75.1925 1023.46 514.504
1486 0 55.1382 14.9443 824 74.3398 1023.4 513.944
1487 0 58.0379 15.3693 892 73.6009 1023.5 511.953
1488 0 62.088 16.1706 1004 71.1016 1023.55 512.59
1489 0 63.3354 15.11 957 73.8088 1023.6 509.218
1490 0 64.2239 14.9944 963 73.3936 1024.14 510.824
1491 0 68.1294 17.8044 1213 68.8483 1023.48 510.945
1492 0 70.1636 15.7346 1104 71.6422 1022.71 509.122
1493 0 70.08 14.5263 1018 73.3438 1022.57 508.55
1494 0 71.101 15.1334 1076 73.1348 1021.87 506.776
1495 0 77.1865 15.0674 1163 72.2072 1022.17 506.345
1496 0 78.1009 14.8654 1161 71.9371 1022.66 506.034
1497 0 81.107 16.1145 1307 70.6756 1022.69 502.981
1498 0 84.1281 18.3649 1545 67.9573 1023.13 499.792
1499 0 87.1464 16.2485 1416 70.5593 1023.57 499.078
1500 0 90.1458 15.3196 1381 71.1528 1023.54 499.054
1501 1 41.1877 13.2321 545 73.8771 1023.23 520.539
1502 0 41.2216 13.0999 540 74.9907 1023.34 518.72
1503 0 45.1558 14.5275 656 70.3674 1022.97 520.422
1504 0 46.0845 15.1244 697 70.5509 1023.24 519.073
1505 0 47.1168 13.9865 659 71.8042 1022.95 517.692
1506 0 48.076 16.3491 786 69.1234 1023.91 517.078
1507 0 50.1394 14.6791 736 71.6861 1022.71 515.279
1508 0 51.0534 15.1214 772 71.6023 1022.77 514.505
1509 0 53.0862 15.051 799 71.214 1023.47 514.665
1510 0 53.0862 15.0698 800 160.125 1023.48 514.678
1511 0 56.1101 13.9904 785 72.321 1022.93 514.861
1512 0 56.1095 16.8777 947 69.2577 1023.14 513.71
1513 0 59.2078 15.5385 920 70.312 1022.95 512.517
1514 0 62.1083 16.3263 1014 69.2919 1022.3 510.601
1515 0 61.0603 14.8214 905 72.4365 1022.93 511.044
1516 0 64.096 15.5704 998 71.4329 1023.52 508.772
1517 0 66.0519 15.6089 1031 71.4636 1023.56 508.752
1518 0 67.1887 14.7346 990 72.7172 1023.39 507.716
1519 0 70.09 13.4684 944 74.7288 1023.09 504.732
1520 0 72.1011 14.8541 1071 71.8441 1022.65 505.734
1521 0 76.0762 15.5633 1184 70.6385 1022.21 504.201
1522 0 80.081 14.5728 1167 71.3025 1023.05 502.622
1523 0 80.102 14.7936 1185 71.3705 1022.52 500.644
1524 0 84.209 14.3096 1205 71.0108 1023.22 502.264
1525 0 87.2056 15.3316 1337 70.8474 1021.96 495.899
1526 1 39.0414 12.3459 482 73.9564 1022.91 519.079
1527 0 42.1103 14.652 617 70.6434 1023.96 519.522
1528 0 44.1061 13.6489 602 73.0847 1023.22 514.478
1529 0 46.022 16.2966 750 68.884 1023.09 515.384
1530 0 47.2915 13.6388 645 72.1473 1022.9 515.515
1531 0 47.1881 14.8554 701 71.6705 1023.19 513.522
1532 0 50.1741 15.0476 755 71.1907 1022.54 514.885
1533 0 51.1545 15.3848 787 70.014 1023.39 515.165
1534 0 51.0996 15.0882 771 71.6913 1023.79 513.475
1535 0 54.0318 14.9727 809 71.3993 1023.33 512.913
1536 0 57.0362 15.8145 902 70.2118 1023.31 511.673
1537 0 57.298 15.7772 904 70.927 1023.43 511.216
1538 0 58.152 12.8628 748 74.7192 1023.48 511.877
1539 0 62.1001 15.4267 958 70.8894 1022.95 510.396
1540 0 63.0921 14.6611 925 73.0054 1022.64 508.024
1541 0 66.1644 15.5219 1027 71.443 1022.55 506.796
1542 0 66.0833 15.1324 1000 72.342 1022.79 508.597
1543 0 69.3434 14.046 974 73.5873 1022.81 506.774
1544 0 72.1183 15.1695 1094 72.4314 1023.28 505.184
1545 0 74.1014 15.5463 1152 71.842 1023.16 503.582
1546 0 80.1969 17.6565 1416 67.947 1023.53 502.472
1547 0 78.1111 14.825 1158 73.1244 1022.82 499.893
1548 0 82.129 14.9034 1224 71.9028 1022.72 496.587
1549 0 85.0762 15.9151 1354 70.6152 1023.06 497.085
1550 0 88.0821 14.9633 1318 71.6275 1023.4 495.505
1551 1 44.1802 13.0375 576 73.1007 1023.29 517.887
1552 0 48.134 14.7089 708 70.8305 1023.6 518.323
1553 0 49.2363 14.2375 701 71.7646 1023.53 517.514
1554 0 50.1903 15.501 778 70.6748 1022.99 516.32
1555 0 50.1402 13.5819 681 73.7063 1022.5 515.916
1556 0 50.0658 15.0003 751 72.4208 1022.57 515.834
1557 0 52.1349 15.0379 784 72.9158 1022.72 514.272
1558 0 53.2735 15.9554 850 71.1047 1021.83 513.158
1559 0 58.0737 15.8075 918 70.1198 1022.63 513.286
1560 0 59.0646 13.6122 804 73.7015 1022.83 512.73
1561 0 60.1089 14.8065 890 71.8753 1022.63 511.84
1562 0 62.0871 15.8326 983 70.9095 1022.57 510.149
1563 1 73.1422 10.4181 762 75.9948 1021.79 439.301
1564 0 64.0746 14.1242 905 73.8133 1022.22 508.252
1565 0 70.3017 15.0352 1057 71.334 1022.26 507.355
1566 0 71.0966 14.7968 1052 71.8992 1022.77 506.25
1567 0 73.1129 14.2519 1042 72.8148 1022.84 506.137
1568 0 74.1914 14.9478 1109 72.8684 1023.4 501.537
1569 0 77.1203 13.641 1052 73.9914 1022.67 501.993
1570 0 81.137 15.2212 1235 71.4105 1022.06 500.177
1571 0 85.054 15.6842 1334 69.6402 1022.12 502.01
1572 0 87.2421 14.8094 1292 70.6463 1022.84 499.954
1573 0 90.452 15.71 1421 69.874 1022.99 496.502
1574 0 93.3199 14.1878 1324 71.46 1022.31 494.326
1575 1 34.1739 15.2455 521 67.6737 1021.95 523.902
1576 0 34.2569 12.9901 445 71.5843 1022.68 521.524
1577 0 34.2621 12.6087 432 72.0972 1022.45 521.829
1578 0 38.2203 12.3233 471 72.4076 1022.77 519.716
1579 0 38.1217 13.2208 504 72.0278 1022.21 519.579
1580 0 40.084 15.3927 617 69.0697 1022.21 519.183
1581 0 41.3128 15.1527 626 68.9649 1022.64 520.805
1582 0 42.1727 13.5396 571 70.7145 1022.08 520.478
1583 0 45.2281 15.8309 716 68.2109 1022.23 516.964
1584 0 44.1562 14.6978 649 70.3174 1022.2 515.954
1585 0 48.2417 15.8162 763 67.7025 1022.18 515.414
1586 0 46.4461 14.3392 666 69.7928 1022.64 516.593
1587 0 51.2566 15.8614 813 67.0098 1022.39 515.904
1588 0 53.6493 14.3338 769 68.7295 1021.94 513.355
1589 0 53.3874 13.9546 745 69.2564 1022.05 513.119
1590 0 53.1866 14.6842 781 68.1933 1022.83 513.042
1591 0 58.3235 14.2653 832 68.3065 1022.16 511.918
1592 0 58.4217 14.2926 835 68.4647 1022.38 509.667
1593 0 62.312 14.5558 907 67.2878 1022.87 509.116
1594 0 65.3067 14.2252 929 67.366 1022.22 506.311
1595 0 67.5525 14.3444 969 66.4365 1022.34 507.787
1596 0 66.1988 14.3658 951 67.0694 1021.33 505.364
1597 0 71.315 13.4754 961 67.3611 1021.59 503.826
1598 0 74.1598 14.1451 1049 66.5844 1020.89 502.268
1599 0 74.3266 13.185 980 67.6653 1021.67 500.917
1600 0 81.2788 15.6006 1268 64.0032 1021.6 500.972
1601 0 81.3116 14.8687 1209 65.1596 1022.06 500.386
1602 0 85.2075 15.9376 1358 63.7592 1021.6 497.907
1603 0 90.2418 15.3477 1385 63.5458 1021.87 498.575
1604 1 45.4173 14.3117 650 64.5231 1021.63 517.945
1605 0 45.4173 14.2016 645 140.874 1021.63 517.822
1606 0 44.3423 11.975 531 68.0508 1022.59 518.122
1607 0 48.2363 14.1802 684 65.9459 1022.25 516.358
1608 0 47.1504 13.6372 643 66.9751 1022.27 515.162
1609 0 52.3552 14.7263 771 64.7886 1022.31 514.11
1610 0 55.2313 15.9873 883 62.778 1023.06 514.111
1611 0 55.45 15.0225 833 64.7971 1023.31 511.84
1612 0 56.2234 14.2823 803 65.1295 1023.25 513.078
1613 0 57.3993 13.2406 760 67.304 1022.9 508.386
1614 0 60.1821 14.3398 863 65.1784 1023.21 510.502
1615 0 62.5249 15.8017 988 63.7186 1023.16 508.241
1616 0 64.142 14.5926 936 65.5128 1022.42 506.669
1617 0 66.421 15.2512 1013 64.5745 1022.51 506.484
1618 0 69.3089 15.0918 1046 64.5688 1022.54 505.447
1619 0 70.4854 12.4707 879 67.6633 1022.22 505.261
1620 0 72.4897 14.6228 1060 65.2924 1022.75 500.325
1621 0 73.4487 15.7525 1157 64.0493 1022.43 500.332
1622 0 76.4296 13.3325 1019 66.5859 1022.68 499.979
1623 0 80.4895 13.6415 1098 66.2769 1022.84 499.323
1624 0 85.4036 15.6902 1340 63.2702 1022.64 496.881
1625 0 86.205 14.9295 1287 64.6138 1022.44 495.056
1626 0 90.3431 13.6369 1232 65.8758 1023.49 495.572
1627 0 90.3232 13.1749 1190 66.9882 1022.87 492.949
1628 0 95.2685 15.2621 1454 63.9072 1023.12 491.871
1629 0 96.2331 12.6568 1218 67.3785 1021.64 491.15
1630 0 102.49 14.616 1498 64.6088 1022.37 488.599
1631 0 105.456 14.3946 1518 65.2457 1022.18 486.447
1632 1 51.266 13.1081 672 67.3066 1021.72 512.979
1633 0 55.1938 14.8568 820 64.7598 1021.64 513.127
1634 0 56.4671 14.8936 841 66.0274 1021.45 509.401
1635 0 55.3101 11.553 639 69.9014 1022.25 511.562
1636 0 60.3853 13.4801 814 67.156 1022.06 510.631
1637 0 61.4262 14.0657 864 67.544 1021.9 509.611
1638 0 65.5296 14.2684 935 67.354 1023.31 508.089
1639 0 64.4966 14.3884 928 67.7468 1023.09 507.267
1640 0 67.4078 13.9005 937 68.2359 1022.89 507.895
1641 0 69.5124 13.6379 948 69.2015 1023.26 503.864
1642 0 69.3959 12.1189 841 70.9869 1022.89 506.006
1643 0 72.5131 15.3352 1112 67.9901 1022.86 502.12
1644 0 75.5799 14.2498 1077 68.9991 1022.48 502.236
1645 0 76.5446 13.8873 1063 69.1458 1022.73 503.69
1646 0 81.472 13.5629 1105 69.6118 1022.81 501.306
1647 0 85.3931 15.9029 1358 66.5972 1023.36 499.591
1648 0 85.3473 14.9976 1280 67.9078 1022.39 500.123
1649 0 89.4182 14.7845 1322 67.7526 1023.19 497.584
1650 0 92.3773 15.8697 1466 66.0014 1023.32 497.372
1651 0 96.3709 16.9968 1638 64.6899 1023.25 496.378
1652 0 100.739 15.4756 1559 66.442 1022.25 491.924
1653 0 105.453 16.3011 1719 65.2688 1021.57 490.825
1654 0 106.309 15.7466 1674 66.276 1021.9 489.507
1655 0 111.409 16.426 1830 64.8787 1021.64 490.036
1656 0 114.438 16.5155 1890 65.054 1022.6 487.877
1657 0 119.456 16.55 1977 64.5903 1021.88 484.34
1658 1 57.1582 13.9963 800 68.3075 1022.58 512.415
1659 0 56.5722 13.8938 786 69.4733 1022.2 510.586
1660 0 56.3128 12.9988 732 71.5027 1022.93 509.805
1661 0 60.342 13.7549 830 70.0494 1021.89 509.628
1662 0 66.4142 12.1058 804 70.9478 1022.07 510.664
1663 0 66.3159 13.5412 898 70.9076 1022.83 506.881
1664 0 66.3062 14.2973 948 69.9852 1022.58 508.414
1665 0 70.5884 14.7758 1043 69.3375 1021.39 505.515
1666 0 71.4463 14.7523 1054 70.2571 1021.7 506.554
1667 0 74.5652 15.6373 1166 68.9743 1022.44 506.029
1668 0 73.2843 14.0958 1033 72.4521 1022.74 504.469
1669 0 77.4604 15.2981 1185 70.5654 1022.56 505.018
1670 0 76.5329 14.5166 1111 72.6247 1021.61 504.189
1671 0 80.4478 14.1831 1141 72.8449 1021.76 503.096
1672 0 82.3173 16.8373 1386 70.2908 1021.97 499.615
1673 0 85.3752 15.2737 1304 72.1104 1022.9 500.932
1674 0 84.3808 15.3352 1294 73.5904 1022.1 499.249
1675 0 88.4383 14.8352 1312 74.1646 1021.85 496.773
1676 0 93.7442 16.705 1566 70.5562 1021.67 499.312
1677 0 95.3626 15.9706 1523 72.4478 1022.6 495.56
1678 0 99.3536 16.0739 1597 71.5717 1022.41 493.276
1679 0 101.42 17.0776 1732 70.3256 1022.97 493.611
1680 0 105.48 16.5909 1750 71.1954 1022.17 491.317
1681 0 109.288 16.6075 1815 70.4523 1022.62 490.714
1682 0 111.487 16.0736 1792 71.3527 1022.16 488.958
1683 0 116.435 15.1758 1767 72.8998 1022.34 486.358
1684 0 119.281 15.4425 1842 72.677 1021.34 481.823
1685 0 122.506 14.5708 1785 73.8992 1021.49 480.91
1686 0 128.384 15.4225 1980 71.6131 1021.86 482.287
1687 0 133.354 17.4498 2327 69.0786 1022.46 478.677
1688 1 65.2516 14.3751 938 73.9776 1021.51 507.177
1689 0 70.2542 13.7643 967 72.5667 1021.84 508.459
1690 0 72.1991 15.3049 1105 71.5014 1021.37 508.68
1691 0 72.3486 13.3797 968 75.9256 1021.93 504.281
1692 0 76.3072 15.5293 1185 72.2211 1022.65 504.47
1693 0 78.4084 15.5595 1220 72.0418 1022.43 503.536
1694 0 80.3781 15.5017 1246 72.2006 1021.97 503.282
1695 0 81.3 14.8094 1204 74.1545 1022.13 500.999
1696 0 85.2649 15.2466 1300 72.4485 1021.5 500.712
1697 0 88.4928 15.2216 1347 72.683 1022.06 498.955
1698 0 90.1945 16.0098 1444 71.7805 1022.36 498.577
1699 0 92.2816 16.1571 1491 71.5386 1022.03 494.268
1700 0 94.3646 14.9632 1412 73.495 1021.83 496.549
1701 0 97.2302 14.1725 1378 74.7221 1022.59 493.959
1702 0 99.4722 14.2854 1421 74.7776 1022.76 492.209
1703 0 103.613 15.1815 1573 73.2416 1022.73 490.927
1704 0 106.411 15.0078 1597 73.0645 1022.76 490.488
1705 0 111.629 16.0084 1787 71.117 1023.15 487.962
1706 0 116.44 16.0254 1866 70.5922 1021.69 488.992
1707 0 117.464 14.9492 1756 73.3622 1022.86 484.949
1708 0 122.526 14.903 1826 73.3478 1022.42 481.033
1709 0 126.339 16.8435 2128 70.4502 1021.98 479.366
1710 0 130.365 15.5947 2033 72.6286 1022.17 476.576
1711 0 133.521 16.1323 2154 71.7247 1022.01 475.16
1712 0 138.426 17.0488 2360 70.4492 1021.97 476.079
1713 0 142.44 15.6768 2233 71.991 1021.89 474.323
1714 0 148.314 15.4806 2296 72.7726 1022.41 468.723
1715 0 150.463 14.5086 2183 74.481 1021.73 468.325
1716 0 156.688 15.7063 2461 72.963 1021.59 465.673
1717 0 163.61 15.4331 2525 73.2424 1022.26 464.602
1718 0 169.677 16.5078 2801 71.764 1022.21 462.604
1719 1 76.3352 12.3796 945 77.3069 1022.35 503.949
1720 0 78.6712 12.8891 1014 77.857 1022.09 497.818
1721 0 81.655 14.6102 1193 73.0453 1022.46 505.013
1722 0 85.3055 13.9733 1192 74.8414 1021.85 500.947
1723 0 86.5563 13.6558 1182 76.2656 1021.79 497.952
1724 0 92.4412 15.8587 1466 73.221 1021.92 497.83
1725 0 92.4435 14.3114 1323 76.1776 1022.14 495.813
1726 0 97.6509 15.3301 1497 73.7508 1022.06 496.814
1727 0 100.439 16.6369 1671 72.0353 1022.99 495.767
1728 0 103.335 15.561 1608 73.9702 1022.14 492.827
1729 0 106.495 15.2589 1625 74.528 1021.82 492.971
1730 0 109.345 15.9403 1743 73.7654 1022.31 491.054
1731 0 112.445 15.5099 1744 74.3532 1021.82 490.573
1732 0 116.468 15.4291 1797 74.4085 1022.26 488.867
1733 0 118.462 14.5616 1725 75.5287 1023.46 487.57
1734 0 122.263 15.483 1893 74.6614 1023.28 486.481
1735 1 65.3225 14.0686 919 77.0979 1022.77 511.742
1736 0 68.2321 13.6886 934 77.5054 1022.31 511.043
1737 0 68.2203 13.7056 935 79.5251 1022.46 508.169
1738 0 72.2699 15.6635 1132 75.2615 1021.77 508.441
1739 0 73.3327 14.5092 1064 77.4446 1022.65 508.307
1740 0 75.2912 14.0123 1055 79.2246 1022.57 505.738
1741 0 75.397 14.0854 1062 79.9209 1022.62 505.249
1742 0 77.7531 14.1859 1103 79.4878 1021.66 504.929
1743 0 80.4446 13.8356 1113 78.735 1021.93 505.664
1744 0 83.3198 14.6064 1217 78.5752 1022.66 501.598
1745 0 85.3754 13.8916 1186 79.403 1022.1 500.651
1746 0 90.3338 13.6826 1236 79.0922 1022.18 499.164
1747 0 92.2782 13.5026 1246 78.9655 1022.06 497.739
1748 0 93.364 12.7137 1187 79.5206 1022.41 496.596
1749 0 101.43 15.6956 1592 73.6633 1022.46 495.394
1750 0 103.437 15.6617 1620 74.187 1022.59 492.38
1751 0 107.291 15.4812 1661 73.1866 1022.84 492.575
1752 0 110.373 14.3875 1588 74.1259 1022.7 493.738
1753 1 60.1814 13.991 842 74.5475 1022.84 513.572
1754 0 63.359 14.41 913 73.7273 1023.31 512.018
1755 0 64.4736 14.3935 928 73.8351 1022.59 511.916
1756 0 69.4138 15.4436 1072 71.0793 1022.41 511.604
1757 0 68.6926 13.3784 919 74.926 1022.6 509.151
1758 0 71.3389 14.8867 1062 72.4162 1022.74 508.935
1759 0 74.4704 15.7647 1174 71.0298 1023.65 506.624
1760 0 75.4128 14.1621 1068 74.1704 1022.67 504.472
1761 0 78.4547 14.1865 1113 73.4798 1022.17 503.452
1762 0 79.5576 13.7259 1092 74.6209 1022.21 501.854
1763 0 83.3708 16.9724 1415 69.4085 1023.03 502.871
1764 0 87.3399 15.3882 1344 71.8847 1022.81 500.324
1765 0 89.4098 14.5174 1298 72.8297 1022.96 498.955
1766 0 90.3462 14.6215 1321 73.2203 1022.84 496.459
1767 0 94.4111 13.2082 1247 74.2718 1023.42 498.626
1768 0 97.4844 14.8229 1445 72.6512 1022.32 492.483
1769 0 100.51 14.6254 1470 72.4612 1022.78 494.136
1770 1 45.3479 12.371 561 74.0321 1021.86 518.642
1771 0 48.4274 13.9797 677 73.3973 1022.49 517.397
1772 0 51.2582 13.9295 714 72.9426 1021.75 515.815
1773 0 52.3223 14.2387 745 72.9476 1022.67 514.698
1774 0 53.3043 13.3573 712 74.0169 1022.69 514.501
1775 0 56.5745 13.628 771 73.2957 1021.55 514.78
1776 0 57.3547 13.5821 779 74.1438 1021.9 513.544
1777 0 59.2482 14.5659 863 72.1344 1021.86 513.154
1778 0 60.2579 13.5418 816 73.3542 1021.39 512.153
1779 0 63.1979 15.0954 954 72.0482 1021.78 509.973
1780 0 65.465 14.7407 965 72.1596 1022.36 508.723
1781 0 67.5148 15.1374 1022 71.0391 1022.75 510.827
1782 0 69.3351 14.74 1022 71.4687 1022.48 508.457
1783 0 72.2044 15.1376 1093 72.0247 1022.41 505.831
1784 0 72.2233 15.1059 1091 72.4216 1022.07 504.305
1785 0 73.3746 14.7054 1079 73.7053 1022.14 502.182
1786 0 77.2777 14.4026 1113 73.5346 1021.43 502.526
1787 0 78.2586 14.1071 1104 74.9955 1022.87 501.694
1788 0 81.2572 14.9402 1214 73.3377 1022.47 499.507
1789 0 83.3126 15.6879 1307 72.4973 1022.27 497.363
1790 0 82.4862 14.2206 1173 74.4467 1022.01 498.017
1791 0 88.2962 15.3574 1356 71.8931 1022.1 498.143
1792 0 90.1957 14.5462 1312 73.2325 1022.85 495.486
1793 0 93.2594 14.5723 1359 72.9757 1021.8 492.75
1794 0 97.4608 15.6063 1521 70.8968 1021.42 493.354
1795 0 99.3934 14.5885 1450 72.969 1022.23 489.842
1796 0 101.327 15.1885 1539 72.0773 1022.04 488.825
1797 0 104.379 15.4629 1614 70.8402 1022.07 490.882
1798 0 106.363 15.071 1603 71.4311 1022.16 484.971
1799 0 109.513 15.3863 1685 70.6237 1021.81 483.903
1800 0 115.71 16.2302 1878 68.8275 1022.22 484.693
1801 0 116.321 14.0302 1632 72.9571 1021.07 480.358
1802 0 118.487 14.28 1692 72.6625 1022.27 480.579
1803 0 124.273 14.1785 1762 73.0397 1022.62 478.343
1804 0 127.473 16.0347 2044 70.4736 1022.39 475.833
1805 0 132.661 14.9554 1984 71.5998 1022.09 475.354
1806 1 69.4163 14.5643 1011 71.5312 1022.08 507.299
1807 0 72.5129 13.6114 987 73.5998 1022.01 501.937
1808 0 73.6177 13.4207 988 73.7399 1022.38 503.563
1809 0 77.3331 14.1983 1098 72.3843 1022.75 501.928
1810 0 80.7042 15.5878 1258 70.4626 1022.75 503.11
1811 0 82.4938 16.4618 1358 69.2106 1023.01 500.953
1812 0 84.306 15.2302 1284 70.954 1023.13 500.16
1813 0 86.5245 14.3312 1240 73.1186 1021.42 496.227
1814 0 90.544 14.7442 1335 72.3873 1022.65 495.811
1815 0 93.6409 15.1109 1415 71.371 1022.17 497.399
1816 0 94.5749 14.359 1358 72.9993 1021.88 492.501
1817 0 97.5497 14.9565 1459 72.5202 1021.3 489.976
1818 0 100.455 14.5439 1461 72.1266 1022.16 491.842
1819 0 105.331 14.9054 1570 70.865 1022.19 491.248
1820 0 108.337 13.6057 1474 72.886 1022.24 489.245
1821 0 111.517 13.9262 1553 72.7122 1022.18 485.255
1822 1 56.4107 14.8908 840 70.9048 1022.42 510.346
1823 0 56.65 12.7096 720 74.2792 1021.76 509.693
1824 0 59.348 14.7267 874 71.8947 1022.25 509.196
1825 0 60.4588 13.1991 798 73.3985 1022.11 510.221
1826 0 62.6063 13.9922 876 72.9829 1022.18 507.983
1827 0 65.5151 14.1036 924 73.0487 1022.8 505.337
1828 0 67.1753 15.7796 1060 70.7924 1022.18 504.866
1829 0 69.3301 13.8612 961 72.847 1022.09 507.092
1830 0 70.3471 15.0824 1061 71.3204 1022.15 507.094
1831 0 73.4984 13.3472 981 74.0897 1022.19 504.576
1832 0 76.2355 16.0555 1224 70.5572 1022.29 503.569
1833 0 77.444 14.617 1132 72.7182 1022.49 502.942
1834 0 78.591 12.7495 1002 75.7136 1022.22 501.25
1835 0 82.2587 14.2599 1173 73.1654 1020.64 498.994
1836 0 83.4976 14.1082 1178 74.0195 1021.5 498.13
1837 0 89.2379 14.9712 1336 71.6916 1021.92 497.508
1838 0 91.3576 16.0687 1468 70.0252 1022.05 496.777
1839 0 87.4341 13.2671 1160 75.6759 1020.87 492.68
1840 0 94.8023 14.1136 1338 73.3602 1021.49 490.555
1841 0 100.361 14.5974 1465 71.9195 1021.6 492.038
1842 0 98.4392 12.6372 1244 75.2396 1021.95 488.572
1843 0 106.709 14.6192 1560 71.3513 1022.4 487.167
1844 1 51.3367 13.2654 681 72.9413 1021.66 511.232
1845 0 57.6276 14.7152 848 70.0189 1021.26 511.803
1846 0 55.3555 12.9165 715 74.621 1021.24 508.334
1847 0 60.3282 13.9238 840 72.25 1020.53 507.911
1848 0 62.3833 13.2568 827 72.7013 1020.89 508.878
1849 0 63.547 14.0368 892 72.6648 1021.5 507.437
1850 0 66.3043 16.1076 1068 70.4822 1021.35 507.285
1851 0 66.3523 13.3379 885 75.209 1020.93 505.244
1852 0 69.3851 13.9511 968 74.0041 1021.15 505.315
1853 0 70.3815 14.0236 987 74.0942 1021.92 505.584
1854 0 74.3726 14.6156 1087 73.9632 1021.13 502.932
1855 0 76.3791 15.7373 1202 71.6522 1021.65 503.387
1856 0 79.3031 14.64 1161 72.0939 1021.84 505.369
1857 0 81.6044 15.4403 1260 72.1889 1021.39 502.013
1858 0 82.5118 14.6524 1209 73.756 1021.55 502.144
1859 0 85.4253 14.8902 1272 73.4536 1021.2 497.411
1860 0 88.3382 15.0558 1330 72.9489 1021.62 498.217
1861 0 90.3563 13.2586 1198 74.9958 1021.49 497.546
1862 0 91.3202 13.0968 1196 76.2416 1021.78 491.281
1863 0 95.5364 14.4971 1385 73.657 1022.26 493.462
1864 0 100.355 17.6074 1767 69.0396 1022.66 492.717
1865 0 104.37 14.9564 1561 72.8226 1021.84 491.018
1866 1 48.2666 12.7624 616 73.9838 1022.32 515.831
1867 0 49.2891 14.0599 693 73.6349 1021.81 514.343
1868 0 51.1688 13.4848 690 73.4638 1021.66 514.58
1869 0 53.8491 11.9036 641 74.8768 1021.88 513.41
1870 0 54.3084 13.0551 709 74.2623 1022.49 513.172
1871 0 58.4027 16.2835 951 69.5857 1022.24 512.081
1872 0 57.2564 14.7232 843 72.9039 1022.42 511.769
1873 0 60.2467 15.1377 912 72.3268 1022.99 509.749
1874 0 62.586 13.9169 871 73.1699 1022.51 509.99
1875 0 61.252 15.2158 932 72.6202 1022.86 509.057
1876 0 63.4232 14.7422 935 73.3198 1022.72 506.712
1877 0 66.3454 14.9973 995 72.9668 1022.25 505.999
1878 0 67.3534 13.5554 913 76.1577 1022.08 502.386
1879 0 69.45 14.3556 997 74.5817 1022.41 504.156
1880 0 72.4086 15.2192 1102 73.4419 1022.66 503.956
1881 0 74.1948 13.3298 989 76.3003 1022.17 501.628
1882 0 77.582 14.9777 1162 73.0534 1022.54 502.148
1883 0 79.4056 13.9159 1105 74.8018 1022.43 502.701
1884 0 83.3893 15.1338 1262 72.1395 1022.37 501.103
1885 0 82.2085 13.7577 1131 75.2759 1022.59 498.971
1886 0 87.3616 13.9421 1218 74.2258 1022.43 499.824
1887 0 87.4918 13.6584 1195 76.0778 1022.18 493.285
1888 0 93.4098 15.3945 1438 72.7441 1021.65 495.318
1889 0 96.3023 14.7348 1419 73.3277 1021.62 494.019
1890 0 98.4833 15.2005 1497 72.348 1022.13 491.14
1891 0 101.365 14.5613 1476 73.0224 1021.07 492.898
1892 0 106.704 14.4137 1538 72.2913 1020.86 493.43
1893 1 56.5194 14.4906 819 70.9255 1021.76 513.282
1894 0 58.2935 14.2211 829 74.304 1021.84 510.756
1895 0 59.5957 13.7426 819 74.3114 1021.9 511.838
1896 0 63.4484 14.4369 916 73.8373 1022.01 508.472
1897 0 64.3785 14.2439 917 74.0087 1022.82 508.439
1898 0 65.7309 13.8291 909 75.4037 1022.51 506.974
1899 0 68.3468 14.5727 996 74.008 1022.25 507.254
1900 0 69.609 14.682 1022 74.6898 1022.68 504.199
1901 0 71.3344 15.9811 1140 73.279 1022.54 503.175
1902 0 73.5082 13.5223 994 76.7495 1022.62 499.12
1903 0 78.4284 14.4973 1137 74.343 1022.23 501.244
1904 0 80.4218 14.6229 1176 74.6174 1021.69 500.148
1905 0 80.392 14.9766 1204 74.2915 1022.49 501.624
1906 0 82.358 12.8949 1062 77.646 1022.21 496.28
1907 0 87.5311 15.5602 1362 73.2665 1021.81 495.739
1908 0 88.6521 13.9985 1241 75.6213 1022.73 495.654
1909 0 92.3556 14.4875 1338 74.3572 1022.66 493.146
1910 0 96.2773 14.801 1425 73.939 1022.11 493.585
1911 0 99.632 14.8848 1483 73.4363 1022 489.972
1912 1 53.3962 13.6526 729 74.1866 1021.91 512.118
1913 0 54.4468 13.9218 758 74.0435 1021.9 512.712
1914 0 54.298 13.6101 739 76.5656 1022.59 508.402
1915 0 58.2771 13.9334 812 74.9372 1022.24 510.725
1916 0 59.4926 13.0941 779 75.9217 1022.33 508.893
1917 0 62.4408 14.8461 927 73.0561 1023.4 510.33
1918 0 62.2821 14.5628 907 74.4311 1023.04 507.826
1919 0 64.4437 14.695 947 73.962 1023.1 506.637
1920 0 68.4704 15.4227 1056 72.2481 1023.11 507.799
1921 0 69.3695 14.9633 1038 73.0443 1022.63 508.294
1922 0 70.5219 14.7188 1038 73.8651 1022.58 505.479
1923 0 75.5111 15.1633 1145 72.7834 1022.38 504.266
1924 0 75.4128 14.7322 1111 74.4536 1023.14 500.511
1925 0 77.3696 14.4501 1118 75.1163 1023.24 498.649
1926 0 81.2943 17 1382 70.5391 1023.08 501.141
1927 0 82.4637 14.3821 1186 74.0413 1022.04 500.949
1928 0 83.403 15.539 1296 73.3333 1022 497.186
1929 0 87.21 15.3423 1338 73.1173 1022.18 496.458
1930 0 89.3647 14.659 1310 74.4458 1021.7 495.344
1931 0 93.3248 14.3692 1341 73.9239 1022.23 496.013
1932 0 98.431 16.5395 1628 70.266 1022.9 494.6
1933 0 98.3979 16.23 1597 71.3744 1023.56 492.919
1934 0 102.365 14.4581 1480 73.6682 1021.78 492.379
1935 1 54.248 14.6365 794 71.1474 1022.14 517.125
1936 0 56.6058 13.0552 739 73.318 1022.45 515.675
1937 0 55.3868 11.212 621 78.0209 1021.72 512.187
1938 0 60.4186 14.5485 879 72.4892 1021.14 511.935
1939 0 61.3047 13.7347 842 73.2981 1021.21 512.681
1940 0 63.406 13.9261 883 72.94 1020.99 511.616
1941 0 63.3258 13.2963 842 73.8159 1021.71 511.02
1942 0 66.4546 13.528 899 73.4227 1021.03 509.684
1943 0 68.4946 12.7893 876 74.2717 1021.15 507.812
1944 0 71.338 13.7795 983 72.1251 1020.47 510.868
1945 0 72.59 14.575 1058 71.5898 1020.38 509.595
1946 0 74.2748 13.477 1001 73.4675 1019.75 506.001
1947 0 77.4367 13.7919 1068 73.0684 1020.43 504.18
1948 0 80.4495 14.9286 1201 70.796 1019.88 503.4
1949 0 81.4058 14.0039 1140 72.5026 1019.71 501.836
1950 0 83.7769 14.7654 1237 71.4406 1019.56 499.65
1951 0 89.3617 14.4469 1291 70.9396 1019.1 499.865
1952 0 89.4464 13.986 1251 71.8082 1019.25 498.87
1953 0 92.5564 14.6829 1359 71.3297 1018.59 494.595
1954 0 96.4067 16.2955 1571 68.1884 1019.64 497.739
1955 0 98.3404 13.7787 1355 72.0133 1019.47 493.26
1956 1 49.4234 11.0879 548 71.4799 1019.85 518.389
1957 0 46.663 10.5865 494 76.0304 1019.59 515.972
1958 0 49.4365 12.4604 616 72.5227 1018.66 517.555
1959 0 51.2856 12.7521 654 72.4541 1019.09 515.095
1960 0 54.3571 13.9264 757 70.2444 1019.73 514.995
1961 0 55.5778 13.3327 741 71.4116 1019.81 513.822
1962 0 58.263 13.5764 791 70.4918 1019.61 515.115
1963 0 55.2541 11.9267 659 75.7815 1019.76 509.646
1964 0 60.2496 14.3403 864 71.1852 1019.96 510.65
1965 0 61.6067 11.9468 736 75.288 1020.3 509.394
1966 0 63.3059 14.4536 915 72.282 1020.46 507.436
1967 0 67.3446 14.3293 965 71.4674 1020.78 508.847
1968 0 68.3612 15.1841 1038 70.4836 1020.63 509.489
1969 0 70.2071 13.6168 956 73.136 1020.89 506.655
1970 0 71.4174 14.4223 1030 73.2456 1021.21 504.261
1971 0 74.5603 13.9753 1042 73.3676 1022.06 504.552
1972 0 75.6605 15.0277 1137 72.6552 1022.07 501.911
1973 0 76.7956 14.7795 1135 73.0546 1021.67 501.541
1974 0 79.5418 13.2509 1054 74.9877 1021.45 498.67
1975 0 84.3625 16.3461 1379 70.2197 1021.63 498.553
1976 0 85.5234 13.9026 1189 73.2431 1021.36 498.118
1977 0 90.5324 15.8175 1432 70.0147 1021.1 496.16
1978 0 92.4321 13.5667 1254 73.3501 1021.42 492.729
1979 0 93.446 13.762 1286 73.6726 1022.13 492.213
1980 0 98.7409 14.1076 1393 72.3991 1022.77 492.124
1981 1 47.7386 12.5266 598 73.5201 1022.33 514.679
1982 0 50.4606 14.9622 755 70.2331 1021.59 513.977
1983 0 52.4419 14.416 756 69.9008 1022.38 515.259
1984 0 54.4205 13.506 735 71.2599 1021.58 512.943
1985 0 51.4236 13.4763 693 73.8961 1021.3 509.271
1986 0 56.3841 14.5254 819 71.0464 1022.29 510.11
1987 0 59.5351 14.5125 864 70.2014 1022.49 510.889
1988 0 61.7592 15.4147 952 68.9107 1022.25 508.466
1989 0 60.2651 14.486 873 71.5304 1021.85 505.926
1990 0 63.7164 14.6116 931 70.753 1022.61 507.802
1991 0 66.3494 15.765 1046 69.0287 1021.58 505.733
1992 0 67.3238 14.408 970 70.9938 1021.75 507.48
1993 0 69.4156 16.25 1128 68.3103 1022.17 504.699
1994 0 69.6159 14.422 1004 71.0259 1022.77 503.421
1995 0 70.5304 13.9656 985 72.1553 1022.55 501.514
1996 0 75.4966 14.9013 1125 70.0729 1021.47 501.403
1997 0 77.7068 15.1209 1175 69.7719 1021.77 499.011
1998 0 80.4983 12.3605 995 72.4955 1021.6 500.447
1999 0 82.206 14.4272 1186 70.398 1021.85 495.813
2000 0 84.6573 14.7418 1248 68.9663 1022.34 499.037
2001 0 85.5269 13.0485 1116 71.991 1021.38 495.729
2002 0 90.4699 14.7231 1332 69.3551 1022.11 494.29
2003 0 91.5026 14.0105 1282 70.7449 1021.76 489.764
2004 0 97.4491 15.7929 1539 67.1046 1022.22 493.583
2005 0 100.547 14.8388 1492 68.5932 1022.05 488.798
2006 0 98.3388 12.9247 1271 72.0291 1022.2 485.331
2007 1 52.1006 17.044 888 59.6272 1021.54 513.866
2008 0 52.4629 13.2284 694 69.8588 1021.88 512.16
2009 0 55.4648 13.0714 725 70.4372 1022.59 507.992
2010 0 59.3744 15.2591 906 67.3157 1022.66 506.523
2011 0 61.4437 14.1918 872 68.5356 1021.82 506.602
2012 0 64.5651 14.0169 905 68.7072 1020.71 505.913
2013 0 65.2984 13.6144 889 69.0225 1021.32 504.068
2014 0 66.5372 14.0673 936 69.4316 1021.2 502.153
2015 0 68.4192 13.3004 910 69.6462 1021.5 504.067
2016 0 69.8301 14.0197 979 69.7181 1021.61 501.342
2017 0 74.2937 14.0119 1041 68.6446 1020.98 502.997
2018 0 76.3277 15.4859 1182 67.2792 1021.82 502.028
2019 0 76.1443 14.1048 1074 70.2179 1021.9 499.053
2020 0 82.4083 16.1027 1327 66.2133 1021.6 499.898
2021 0 84.3572 14.2963 1206 69.0572 1022.03 496.493
2022 0 83.4008 13.2013 1101 70.8756 1021.47 496.601
2023 0 85.7114 15.0505 1290 69.2333 1021.63 492.385
2024 0 93.3741 16.3322 1525 66.1082 1022.3 493.25
2025 0 94.6823 14.8708 1408 68.1669 1021.88 494.92
2026 0 97.3675 15.3337 1493 67.6209 1022.09 494.007
2027 0 101.45 15.8797 1611 66.4382 1021.81 494.249
2028 0 103.39 14.9531 1546 68.216 1021.76 488.065
2029 0 109.335 15.201 1662 67.1522 1021.95 490.393
2030 0 111.536 14.9997 1673 67.7723 1021.87 485.985
2031 0 114.579 14.3133 1640 69 1021.72 486.061
2032 0 120.529 16.7926 2024 65.4323 1021.57 482.636
2033 0 121.447 16.1881 1966 66.5748 1021.57 484.046
2034 0 127.384 15.7477 2006 67.2034 1021.37 478.242
2035 1 64.3764 12.7687 822 70.2908 1021.48 507.769
2036 0 65.4406 15.1282 990 67.9657 1019.7 507.44
2037 0 66.6696 14.0394 936 69.2714 1020.67 509.352
2038 0 69.5265 13.3762 930 70.7667 1021.07 505.417
2039 0 70.317 13.2116 929 71.3423 1021.88 504.878
2040 0 72.9897 13.6595 997 71.8174 1021.62 503.196
2041 0 76.4966 15.5301 1188 69.0042 1021.56 504.623
2042 0 76.5054 16.9008 1293 68.133 1021.74 502.169
2043 0 79.3042 15.9386 1264 69.6867 1021.62 502.851
2044 0 84.4685 14.3841 1215 71.4304 1021.53 500.923
2045 0 81.5055 13.7046 1117 73.7448 1021.39 499.355
2046 0 86.7805 15.5911 1353 70.7206 1020.33 499.542
2047 0 90.512 17.2132 1558 68.4288 1021.32 499.782
2048 0 91.3405 15.4805 1414 71.6322 1021.37 495.972
2049 0 93.7145 14.3948 1349 73.2098 1021.39 493.757
2050 0 95.4864 14.3581 1371 73.7265 1021.33 493.903
2051 0 100.675 14.6511 1475 72.2407 1021.39 494.184
2052 0 102.584 15.4216 1582 71.8148 1020.91 490.813
2053 0 105.529 16.0335 1692 71.9444 1021.1 489.336
2054 0 107.45 16.5379 1777 71.5802 1020.74 486.652
2055 0 111.364 17.2318 1919 70.8671 1019.96 486.799
2056 0 115.63 15.6015 1804 72.5782 1020.76 486.774
2057 0 119.509 17.2122 2057 70.5119 1020.96 483.36
2058 0 121.319 15.4551 1875 73.4016 1020.99 482.31
2059 0 127.403 16.8442 2146 71.0252 1020.46 479.045
2060 0 129.397 16.09 2082 75.024 1021.16 478.3
2061 0 137.418 16.7373 2300 73.7448 1020.9 478.091
2062 0 138.587 16.5672 2296 74.8053 1020.45 473.07
2063 0 143.65 15.2872 2196 76.5328 1019.56 474.185
2064 0 149.467 16.0772 2403 75.8215 1021.56 471.162
2065 0 151.55 15.909 2411 76.6528 1020.78 469.901
2066 1 79.5184 14.9777 1191 76.9664 1020.34 502.432
2067 0 84.4959 15.8114 1336 76.0883 1020.16 502.624
2068 0 86.5159 15.003 1298 76.3313 1020.69 502.445
2069 0 89.671 14.8543 1332 77.6809 1020.68 497.806
2070 0 91.392 14.8481 1357 78.0914 1020.81 497.007
2071 0 94.7572 15.1967 1440 76.8243 1020.4 498.162
2072 0 93.4239 14.7179 1375 79.6102 1019.86 492.817
2073 0 96.6633 13.7177 1326 81.1433 1019.51 493.469
2074 0 100.41 15.9148 1598 77.2772 1019.73 494.758
2075 0 105.634 16.7465 1769 76.0565 1019.68 489.404
2076 0 107.598 16.7475 1802 75.9967 1019.87 490.593
2077 0 110.689 15.9184 1762 77.6589 1019.9 488.289
2078 0 113.297 14.9077 1689 78.8538 1020.72 487.182
2079 0 116.341 14.9819 1743 78.6804 1020.01 484.697
2080 0 121.482 15.6813 1905 76.4436 1019.93 486.711
2081 0 127.306 17.2497 2196 74.6908 1019.66 480.7
2082 0 129.407 16.2974 2109 76.2617 1020.8 479.593
2083 0 133.657 16.1009 2152 76.8402 1020.84 476.873
2084 0 136.398 16.5179 2253 75.9348 1020.68 475.227
2085 0 142.439 16.1613 2302 76.192 1020.24 472.671
2086 0 145.47 16.024 2331 76.3814 1020.58 470.7
2087 0 149.23 18.0527 2694 73.6752 1020.4 469.536
2088 0 152.463 15.1184 2305 78.7015 1020.58 463.404
2089 0 155.836 14.6757 2287 79.7473 1020.62 459.011
2090 0 161.371 15.9942 2581 76.9636 1021.04 462.251
2091 0 163.253 15.4546 2523 78.6326 1020.38 454.88
2092 0 169.58 15.1728 2573 78.9957 1020.78 455.781
2093 0 172.561 15.3222 2644 79.5034 1020.2 454.769
2094 0 175.715 14.7682 2595 80.2085 1019.78 448.256
2095 0 182.501 15.4684 2823 78.779 1020.65 452.561
2096 0 187.576 14.5115 2722 80.8619 1020.3 444.588
2097 0 193.869 13.7928 2674 81.8717 1020.27 441.785
2098 0 199.812 15.8599 3169 78.551 1020.68 440.951
2099 0 204.878 16.3951 3359 77.8559 1020.47 437.422
2100 0 212.761 15.9334 3390 78.2248 1020.9 437.648
2101 0 215.712 14.918 3218 80.5824 1020.23 427.342
2102 1 169.659 14.2462 2417 81.0463 1020.46 457.131
2103 0 175.538 13.7691 2417 81.4146 1020.23 458.336
2104 0 176.737 13.8341 2445 82.1644 1020.83 448.16
2105 0 186.53 14.7537 2752 79.5643 1020.27 455.041
2106 0 187.969 15.343 2884 80.6238 1020.29 444.71
2107 1 199.67 16.0515 3205 78.3232 1021.14 443.802
2108 0 201.897 15.2751 3084 79.844 1020.04 444.321
2109 0 211.747 15.5752 3298 78.9036 1019.6 441.044
2110 0 218.862 16.2157 3549 78.1166 1019.53 435.192
2111 0 219.77 15.1977 3340 80.847 1019.68 430.121
2112 1 181.507 11.2282 2038 83.5594 1020.84 461.78
2113 0 181.696 11.7944 2143 82.0854 1019.96 464.008
2114 0 179.64 14.6182 2626 81.1021 1020.03 453.368
2115 0 187.673 13.2944 2495 82.3174 1020.15 451.694
2116 0 194.821 13.9718 2722 81.7748 1020.67 448.308
2117 0 200.641 13.7509 2759 82.4686 1020.2 441.951
2118 0 208.548 15.2435 3179 78.9786 1021.06 447.655
2119 0 215.624 15.7729 3401 79.0415 1020.63 439.1
2120 0 217.876 15.2885 3331 80.5551 1019.62 432.964
2121 0 225.777 15.1964 3431 79.6264 1020.44 435.895
2122 0 231.965 14.3298 3324 81.8682 1020.89 427.763
2123 0 238.811 13.6802 3267 82.7466 1020.34 422.265
2124 0 250.69 14.4601 3625 81.3837 1020.52 419.736
2125 1 65.7078 13.347 877 76.8609 1020.27 508.08
2126 0 68.7334 14.7381 1013 75.769 1021.42 510.177
2127 0 70.6636 13.8544 979 78.8754 1021.54 505.45
2128 0 73.5693 14.9791 1102 76.3221 1021.19 506.082
2129 0 74.0836 14.8751 1102 77.5826 1020.79 503.475
2130 0 75.6439 13.4975 1021 79.0921 1020.4 503.907
2131 0 79.8817 15.7858 1261 75.0825 1020.21 502.616
2132 0 79.5803 13.7848 1097 78.9325 1020.49 501.938
2133 0 82.7994 14.046 1163 78.7455 1021.59 500.288
2134 0 85.6428 15.6347 1339 75.9634 1021.73 499.234
2135 0 86.6598 15.4051 1335 77.1116 1021.06 497.231
2136 0 90.495 14.719 1332 77.9016 1021.19 496.493
2137 0 92.667 15.9388 1477 76.2762 1021.61 498.438
2138 0 92.5019 15.7186 1454 78.2572 1021.68 495.069
2139 0 97.7039 16.5602 1618 75.6786 1022.3 495.984
2140 0 98.4436 14.6988 1447 79.2785 1020.95 493.836
2141 1 40.5578 12.1555 493 79.4767 1021.37 519.83
2142 0 43.525 14.2906 622 75.9662 1021.41 519.143
2143 0 44.5469 11.6282 518 78.1216 1021.34 519.369
2144 0 46.5755 11.1647 520 79.3288 1020.92 517.856
2145 0 46.5433 11.7955 549 79.3297 1020.82 517.107
2146 0 46.7572 12.7895 598 79.4197 1020.67 515.376
2147 0 48.7297 12.9695 632 78.7057 1020.32 516.229
2148 0 50.4166 14.5785 735 74.7837 1020.35 518.156
2149 0 52.7379 14.828 782 73.9335 1019.34 517.384
2150 0 53.5392 16.1377 864 72.9514 1020.27 515.184
2151 0 57.8674 16.0712 930 71.2022 1020.05 513.186
2152 1 70.3351 19.9331 1402 59.8117 1019.91 505.511
2153 0 66.4319 17.9733 1194 64.2529 1019.81 506.402
2154 0 69.5653 18.3425 1276 63.4632 1019.98 503.755
2155 0 70.4091 14.3589 1011 70.0435 1020.18 504.748
2156 0 69.6813 17.0203 1186 66.5498 1020.04 501.406
2157 0 67.8445 19.8542 1347 63.6852 1020.72 507.863
2158 0 69.714 18.4038 1283 65.6867 1020.32 507.839
2159 0 71.6217 17.397 1246 66.7576 1020.33 508.118
2160 0 73.6332 18.3884 1354 65.9505 1020.41 505.938
2161 0 76.8407 18.4147 1415 65.7823 1020.89 505.333
2162 0 80.1611 17.4773 1401 66.212 1020.44 504.411
2163 0 80.9777 15.7204 1273 69.121 1021.16 500.272
2164 0 85.596 18.5055 1584 64.7778 1020.26 499.121
2165 0 87.6058 16.6085 1455 67.1808 1020.27 499.718
2166 0 91.0535 17.3305 1578 66.1179 1020.61 499.298
2167 0 94.7555 19.9355 1889 63.0026 1019.72 496.926
2168 0 99.9295 19.6639 1965 62.6651 1020.42 494.509
2169 0 99.5247 17.2018 1712 66.6495 1019.47 492.732
2170 0 103.668 18.9451 1964 64.0759 1020.77 492.42
2171 1 55.0151 13.1419 723 69.1549 1020.41 516.866
2172 0 57.7349 15.5192 896 66.6328 1020.13 516.28
2173 0 57.3866 14.0451 806 69.6538 1020.16 514.963
2174 0 58.929 15.4593 911 68.0088 1020.64 516.535
2175 0 63.5398 15.3132 973 67.5735 1020.91 514.448
2176 0 64.859 16.2815 1056 66.6004 1019.97 511.555
2177 0 64.6038 16.1136 1041 67.7791 1020.68 512.335
2178 0 66.9758 14.6471 981 68.7431 1019.24 512.62
2179 0 68.8991 16.1831 1115 66.7686 1019.49 511.198
2180 0 69.7739 17.0838 1192 65.6141 1019.59 510.972
2181 0 73.8958 14.7099 1087 68.586 1020.42 506.914
2182 0 76.1734 16.1342 1229 66.0586 1019.97 507.655
2183 0 78.2979 16.003 1253 67.1189 1020.16 503.708
2184 0 78.5699 15.9348 1252 67.5942 1020.29 503.108
2185 0 81.8983 15.0553 1233 67.7275 1020.37 502.497
2186 0 86.7818 15.9019 1380 66.0217 1020.13 503.8
2187 0 88.9473 15.9982 1423 66.0176 1019.79 501.215
2188 0 92.541 16.2847 1507 65.29 1020.33 498.627
2189 0 94.9704 16.8052 1596 64.4969 1020.02 497.669
2190 0 95.5296 14.9378 1427 66.9769 1020.43 495.931
2191 0 101.022 17.3625 1754 63.9031 1020.6 494.466
2192 0 101.611 14.9098 1515 67.0944 1019.98 491.051
2193 0 105.459 16.3286 1722 65.1341 1019.93 491.185
2194 0 110.027 15.8143 1740 65.5529 1019.98 490.171
2195 0 113.734 17.1189 1947 63.7288 1020.29 488.91
2196 0 113.49 15.596 1770 65.7859 1020.89 487.718
2197 0 117.8 14.9236 1758 65.9647 1020.42 485.77
2198 0 123.541 15.242 1883 65.8789 1020.53 480.23
2199 1 64.4661 13.3559 861 65.2846 1019.77 511.83
2200 0 66.5409 15.0885 1004 64.8028 1020.01 507.848
2201 0 68.43 14.292 978 66.3241 1019.65 505.026
2202 0 72.5832 16.1745 1174 63.8731 1019.93 506.819
2203 0 72.8794 13.7899 1005 66.6438 1020.66 504.112
2204 0 74.7548 15.2231 1138 65.3181 1020.64 504.25
2205 0 75.3864 14.5252 1095 66.5169 1019.96 504.749
2206 0 77.6691 13.2743 1031 67.5257 1019.93 505.913
2207 0 79.8752 14.6228 1168 66.1113 1020.37 505.57
2208 0 81.7354 14.8161 1211 66.7713 1019.73 500.563
2209 0 82.5752 13.9388 1151 68.1955 1020.27 500.608
2210 0 86.9503 15.4571 1344 66.0283 1020.24 501.417
2211 0 85.3989 13.8878 1186 68.5877 1020.47 499.863
2212 0 90.6629 15.894 1441 65.5933 1020.08 500.21
2213 0 94.2694 14.6283 1379 67.5772 1019.98 495.691
2214 0 95.7083 14.586 1396 67.8467 1020.56 494.343
2215 0 99.5779 15.174 1511 66.589 1019.98 495.529
2216 0 99.704 14.0917 1405 68.5779 1019.63 494.506
2217 0 103.874 15.9808 1660 66.9693 1018.76 486.804
2218 0 107.842 13.9648 1506 68.8446 1019.2 491.678
2219 0 111.392 16.2489 1810 67.2878 1019.32 487.924
2220 0 115.797 16.1404 1869 67.4992 1019.56 488.349
2221 0 119.594 15.7784 1887 67.8622 1020.46 488.42
2222 0 121.691 14.7176 1791 70.4305 1020.34 484.61
2223 0 128.572 16.3799 2106 67.868 1019.75 485.18
2224 0 129.253 14.8004 1913 70.9263 1019.86 482.839
2225 0 131.879 15.0592 1986 71.3444 1019.41 481.546
2226 0 138.791 17.1985 2387 68.4851 1019.98 481.777
2227 0 141.03 15.401 2172 71.9715 1020.24 478.223
2228 0 146.909 15.1659 2228 72.5256 1020.07 477.485
2229 0 152.283 17.0209 2592 70.9039 1020.03 472.125
2230 0 157.15 14.9348 2347 73.6242 1019.92 474.164
2231 0 159.51 14.463 2307 76.156 1019.64 464.72
2232 0 166.801 14.6822 2449 74.2385 1020.08 471.624
2233 0 171.444 15.4861 2655 74.1608 1020.48 465.492
2234 0 176.991 15.4019 2726 75.128 1019.97 463.566
2235 1 138.99 15.7061 2183 74.4104 1020.64 481.617
2236 0 140.892 15.0825 2125 75.6066 1019.75 480.931
2237 0 142.765 13.3927 1912 78.6203 1020.09 476.85
2238 0 148.501 14.9225 2216 77.5794 1020.65 471.618
2239 0 153.638 15.0483 2312 76.5978 1020.51 475.306
2240 0 157.843 15.8132 2496 76.2055 1020.81 471.238
2241 0 163.111 16.0627 2620 76.3939 1020.26 468.542
2242 1 116.086 14.8424 1723 76.9739 1020.6 491.416
2243 0 121.294 14.2381 1727 76.9189 1020.94 490.94
2244 0 121.955 15.1039 1842 77.702 1020.75 484.316
2245 0 126.117 14.3755 1813 77.5576 1021.21 487.327
2246 0 130.306 13.8827 1809 78.4632 1021.4 485.031
2247 0 135.817 15.4104 2093 76.8103 1020.86 480.6
2248 0 138.472 14.4795 2005 78.3905 1020.76 479.72
2249 0 143.899 14.6561 2109 77.9611 1020.68 478.91
2250 0 149.117 14.9078 2223 77.0045 1020.89 479.543
2251 0 151.95 15.867 2411 77.2003 1020.57 472.951
2252 0 159.132 14.8494 2363 78.047 1020.54 474.898
2253 0 162.856 13.4966 2198 80.4477 1021.47 470.617
2254 0 168.25 15.4592 2601 77.5025 1020.28 470.595
2255 0 171.591 14.9425 2564 78.5862 1020.96 469.004
2256 1 130.217 15.1285 1970 79.3432 1020.66 486.411
2257 0 134.986 14.2015 1917 80.8659 1022.14 483.728
2258 0 139.341 14.7552 2056 80.0944 1020.78 480.864
2259 0 140.251 13.761 1930 82.4078 1020.65 478.033
2260 0 147.181 16.3743 2410 78.083 1020.81 477.201
2261 0 150.384 15.2078 2287 80.0547 1021.6 476.689
2262 0 156.007 16.2685 2538 78.1907 1021.43 472.487
2263 0 158.709 14.1328 2243 81.7619 1021.09 471.457
2264 0 162.941 14.7661 2406 81.4418 1021 466.493
2265 0 169.152 15.359 2598 80.0358 1021.4 466.332
2266 0 173.697 14.5886 2534 81.901 1021.75 461.388
2267 0 180.211 14.8104 2669 81.2716 1021.29 462.668
2268 0 184.097 15.3506 2826 81.0973 1021.34 455.791
2269 1 65.1737 14.7759 963 78.5888 1021 513.862
2270 0 68.1088 15.2403 1038 79.0019 1021.05 511.451
2271 0 71.9307 16.5159 1188 76.0345 1021.6 512.561
2272 0 73.0378 14.5267 1061 80.7653 1020.65 507.73
2273 0 74.6895 14.8348 1108 79.3863 1021.24 510.442
2274 0 75.7703 14.61 1107 79.4788 1021.83 510.318
2275 0 78.8007 14.7968 1166 80.0866 1020.51 507.455
2276 0 79.7022 14.1527 1128 81.9636 1021.16 503.481
2277 0 83.3257 14.9534 1246 80.0136 1020.58 505.626
2278 0 86.1101 14.2144 1224 80.8472 1020.82 504.462
2279 0 86.5036 14.5312 1257 81.8409 1020.08 500.581
2280 0 89.5662 14.4586 1295 80.6301 1020.61 502.134
2281 0 92.6616 15.0764 1397 79.4481 1021.24 502.036
2282 0 95.3165 14.8033 1411 80.7449 1021.72 496.775
2283 0 98.7588 15.1986 1501 78.966 1021 497.604
2284 0 101.855 15.257 1554 78.2304 1021.17 497.4
2285 0 106.334 14.2099 1511 79.4818 1022.72 495.878
2286 0 108.569 15.0411 1633 78.7857 1021 491.47
2287 0 111.579 14.8505 1657 78.5365 1020.99 492.066
2288 0 113.508 13.7612 1562 80.0576 1021.02 489.91
2289 0 118.82 14.9386 1775 78.0873 1020.7 487.385
2290 0 122.22 13.8847 1697 79.1632 1021.54 486.546
2291 0 128.789 15.8398 2040 75.6319 1021.23 484.43
2292 0 131.422 14.9823 1969 76.8085 1022.29 482.845
2293 1 72.3783 14.0788 1019 74.6889 1021.56 511.261
2294 0 73.5257 13.6959 1007 76.8123 1021.46 506.077
2295 0 75.9189 13.7647 1045 76.1321 1021.45 507.164
2296 0 79.7482 14.759 1177 74.8946 1022.37 506.031
2297 0 81.3474 15.2924 1244 73.7797 1022 504.924
2298 0 83.4759 12.9499 1081 77.4283 1021.85 503.385
2299 0 86.2298 12.0492 1039 78.1877 1022.28 502.443
2300 0 88.3231 13.9488 1232 74.3093 1022.38 498.821
2301 0 89.6913 15.7875 1416 71.7832 1022.54 499.126
2302 0 93.7584 13.3641 1253 74.5531 1022 496.903
2303 0 92.7205 13.4382 1246 74.5947 1022.65 495.193
2304 0 98.8058 13.7846 1362 73.2812 1022.95 494.098
2305 0 103.296 13.7662 1422 72.6962 1021.88 492.26
2306 0 105.473 13.2736 1400 73.6243 1022.29 489.859
2307 0 108.467 14.4929 1572 71.6285 1022.16 489.321
2308 0 113.098 14.4742 1637 71.0232 1022.69 488.459
2309 1 56.4193 11.6272 656 74.7866 1022.35 511.078
2310 0 58.2577 10.5565 615 75.2667 1022.16 509.32
2311 0 58.1572 11.7612 684 75.1155 1021.4 508.001
2312 0 64.466 15.8999 1025 67.7532 1022.05 510.992
2313 0 63.5764 11.844 753 73.7902 1021.29 508.09
2314 0 65.5282 12.529 821 72.4397 1021.76 510.112
2315 0 70.5214 15.1302 1067 68.3927 1022.19 507.468
2316 0 70.3395 13.2927 935 71.0674 1022.36 506.898
2317 0 71.1671 10.0608 716 76.257 1021.62 501.722
2318 0 76.3569 15.899 1214 66.9341 1022.28 506.832
2319 0 77.7785 13.0242 1013 71.3426 1022.18 499.981
2320 0 81.2676 14.8522 1207 68.2585 1021.79 502.407
2321 0 84.831 15.3482 1302 67.4501 1021.92 500.131
2322 0 87.3868 16.7073 1460 65.5507 1021.67 499.985
2323 0 87.4554 14.1215 1235 69.3296 1022.3 496.382
2324 0 88.2935 12.7756 1128 70.5204 1021.98 497.325
2325 0 94.7152 13.4086 1270 68.989 1021.76 496.156
2326 0 96.3523 15.5056 1494 66.7985 1021.55 492.303
2327 0 99.3946 15.3026 1521 66.3695 1021.96 491.004
2328 0 103.648 13.8063 1431 68.0699 1022.04 491.17
2329 0 106.24 14.439 1534 67.4778 1021.43 485.383
2330 0 112.117 15.3857 1725 65.5954 1021.73 488.181
2331 0 112.52 13.571 1527 68.4787 1022.12 483.406
2332 1 58.6047 11.9786 702 68.208 1022.28 510.342
2333 0 60.7503 13.5637 824 66.8774 1022.61 510.262
2334 0 64.645 14.8194 958 64.881 1022.41 511.807
2335 0 64.2345 14.0423 902 66.9279 1022.1 509.562
2336 0 65.1813 14.2986 932 66.559 1021.97 510.135
2337 0 70.0865 16.4511 1153 63.9124 1021.74 509.104
2338 0 71.1581 15.6412 1113 64.9928 1021.36 508.65
2339 0 73.2173 17.2227 1261 64.1451 1021.4 505.939
2340 0 75.1753 15.3508 1154 66.3232 1021.81 505.314
2341 0 75.238 14.6734 1104 66.9058 1022.2 505.426
2342 0 79.1458 15.5536 1231 65.6548 1022.06 503.969
2343 0 80.5133 13.9977 1127 67.4037 1021.98 503.868
2344 0 82.2248 14.9225 1227 67.2233 1022 499.145
2345 0 87.7166 17.9213 1572 62.6692 1022.41 501.194
2346 0 88.7667 16.8982 1500 64.2667 1022.17 499.483
2347 0 90.283 14.6428 1322 67.0408 1022.01 498.304
2348 0 92.4615 12.6755 1172 68.9829 1022.33 494.587
2349 0 95.3308 15.3046 1459 65.6786 1022.45 496.225
2350 0 102.489 16.8604 1728 57.3704 1022.35 492.074
2351 0 105.587 17.6158 1860 55.4199 1021.86 493.242
2352 0 108.253 16.7201 1810 56.1061 1022.44 490.141
2353 0 108.443 13.5278 1467 59.182 1021.96 486.721
2354 0 114.365 15.9577 1825 56.4449 1021.95 489.859
2355 0 117.448 15.1301 1777 57.5104 1021.54 486.012
2356 0 121.314 15.2908 1855 57.1294 1021.78 482.072
2357 0 125.403 15.5738 1953 56.7952 1021.57 482.853
2358 1 50.1793 13.1329 659 56.3399 1021.82 515.683
2359 0 54.5705 15.7961 862 54.4582 1021.12 513.116
2360 0 53.4374 13.455 719 56.3213 1021.45 515.88
2361 0 56.5615 15.4168 872 54.5401 1022.68 514.806
2362 0 57.6997 13.7782 795 56.1031 1021.99 512.88
2363 0 54.3876 11.749 639 59.3959 1022.12 510.213
2364 0 56.5605 10.0954 571 61.5517 1022.67 505.511
2365 0 57.4305 11.4573 658 59.9605 1021.68 508.802
2366 0 63.3136 14.3571 909 56.8119 1022.37 509.253
2367 0 63.7718 13.3601 852 58.3239 1022.24 508.216
2368 0 67.3078 15.4663 1041 56.3785 1022.97 506.552
2369 0 66.669 12.8696 858 59.3823 1022.59 505.126
2370 0 69.7912 14.3428 1001 57.3277 1022.48 506.439
2371 0 71.6943 14.255 1022 57.2652 1022.58 503.606
2372 0 75.0526 15.4425 1159 56.2994 1021.35 502.916
2373 0 77.6616 16.3272 1268 55.8691 1021.15 502.641
2374 0 77.708 14.014 1089 57.9871 1022.35 497.966
2375 0 82.9141 15.2326 1263 56.0087 1021.53 502.121
2376 0 84.2581 15.5 1306 55.9012 1021.74 503.769
2377 0 83.272 15.7916 1315 56.5194 1021.35 499.866
2378 0 85.5811 12.3742 1059 59.8933 1021.26 495.525
2379 0 89.4468 15.2381 1363 56.8966 1021.65 494.778
2380 0 91.6446 14.2725 1308 57.6307 1021.97 495.929
2381 0 96.8784 14.9053 1444 56.7936 1022.26 493.56
2382 0 96.163 11.2933 1086 61.1501 1022.13 486.843
2383 0 99.5935 15.9348 1587 56.6068 1020.81 490.702
2384 0 105.311 15.0507 1585 56.9842 1020.94 490.485
2385 0 104.184 13.0634 1361 59.6084 1021.9 483.677
2386 0 112.372 15.3152 1721 56.7048 1021.92 487.141
2387 1 60.1898 12.8095 771 58.2646 1021.98 508.569
2388 0 60.119 14.3715 864 55.9282 1022.03 511.701
2389 0 64.4751 16.6111 1071 54.4407 1023.11 508.387
2390 0 64.1874 15.5794 1000 56.266 1023.52 504.54
2391 0 67.3567 12.6194 850 58.3541 1023.98 503.414
2392 0 70.2579 16.6529 1170 54.7744 1024.68 504.503
2393 0 71.4622 13.5876 971 56.9217 1024.49 505.052
2394 0 74.5706 13.9868 1043 57.5916 1024.58 498.177
2395 0 72.1972 11.1777 807 61.4325 1024.48 496.322
2396 0 75.3803 13.0538 984 58.7724 1024.35 495.126
2397 0 76.2334 13.275 1012 58.5593 1023.52 494.623
2398 0 80.4492 13.2133 1063 58.3001 1024.13 495.137
2399 0 83.468 13.2266 1104 58.2944 1024.29 496.151
2400 0 83.468 13.1907 1101 129.631 1023.29 496.033
2401 0 89.4282 13.2732 1187 58.6874 1023.94 495.123
2402 0 90.1067 12.4741 1124 59.855 1023.87 489.713
2403 0 95.2744 13.5293 1289 58.1932 1022.95 492.244
2404 0 100.091 3.16712 317 62.5394 1023.4 457.763
2405 0 102.386 13.3026 1362 58.7636 1023.64 484.421
2406 0 104.294 13.2989 1387 59 1023.58 486.506
2407 0 108.147 12.7604 1380 60.4703 1024.2 479.068
2408 0 106.489 14.086 1500 59.0947 1023.64 479.535
2409 0 115.512 15.3663 1775 57.9628 1023.1 481.687
2410 0 114.481 11.7924 1350 59.6356 1023.45 491.43
2411 0 112.253 8.61445 967 63.1117 1023.07 487.229
2412 1 71.2529 12.589 897 56.2085 1023.96 510.922
2413 0 75.4535 12.9749 979 58.3861 1023.68 503.423
2414 0 73.2074 13.4139 982 59.7047 1023.58 500.051
2415 0 74.2135 11.9251 885 61.835 1023.82 496.864
2416 0 76.4975 12.4841 955 60.6042 1023.09 499.731
2417 0 71.1159 13.7663 979 61.5015 1022.46 494.882
2418 0 81.6756 14.227 1162 59.21 1023.13 497.68
2419 0 82.6617 13.8879 1148 59.3815 1023.14 497.716
2420 0 89.283 14.6724 1310 59.0046 1023.47 496.301
2421 0 89.283 14.818 1323 58.8594 1023.5 496.353
2422 0 93.606 14.2726 1336 60.3585 1022.87 496.114
2423 0 96.7227 14.1332 1367 60.5999 1022.43 491.241
2424 0 100.504 15.6213 1570 59.4261 1022.64 491.808
2425 0 100.684 12.2959 1238 63.5032 1023.54 486.275
2426 0 103.171 14.0059 1445 62.1557 1023.13 483.947
2427 0 109.549 15.3173 1678 60.0512 1023.38 486.05
2428 0 112.303 16.6869 1874 58.6644 1023.23 485.177
2429 0 117.538 16.6329 1955 58.1023 1023.34 484.318
2430 0 120.442 15.0113 1808 60.4447 1024.45 482.821
2431 0 120.442 15.5427 1872 59.7703 1024.43 483.737
2432 0 125.495 14.5185 1822 61.6959 1023.12 477.954
2433 0 131.654 14.3026 1883 61.7961 1022.94 477.628
2434 1 15.0302 7.78431 117 46.7436 1024.88 532.342
2435 0 15.0302 7.78431 117 46.7436 1024.88 532.342
2436 0 15.0265 14.907 224 44.6562 1024.04 530.205
2437 0 14.199 14.6489 208 45.7212 1024.48 531.433
2438 0 14.0249 10.7665 151 45.6887 1023.76 532.364
2439 0 15.2806 13.9393 213 45.338 1023.88 532.099
2440 0 14.0171 9.55975 134 47.4104 1023.46 531.298
2441 0 16.0136 10.5535 169 47.7929 1024.12 529.491
2442 0 15.0265 10.0489 151 47.6225 1023.56 530.662
2443 0 12.0503 10.9541 132 46.9697 1023.72 529.962
2444 0 11.009 13.8069 152 46.2434 1022.79 531.724
2445 0 12.0081 12.0752 145 46.5379 1023.18 531.028
2446 0 13.0152 14.5983 190 45.9158 1023.35 532.01
2447 0 14.0713 10.9442 154 46.4545 1023.31 532.52
2448 0 15.0881 14.3821 217 45.2166 1022.92 532.724
2449 0 13.165 4.2537 56 50.3929 1023.79 531.089
2450 0 13.0111 5.76432 75 49.8933 1023.39 530.76
2451 0 15.0164 11.8537 178 47.2303 1023.49 531.646
2452 1 82.382 13.3767 1102 61.3984 1023.1 501.716
2453 0 84.5572 14.0378 1187 61.1348 1023.34 498.399
2454 0 86.1942 14.6297 1261 60.6749 1022.74 499.027
2455 0 88.2941 13.5117 1193 61.4669 1023.31 497.474
2456 0 92.41 13.0397 1205 62.3303 1022.23 493.437
2457 0 96.6451 15.6242 1510 59.1715 1022.71 494.531
2458 0 97.1578 14.3478 1394 61.0194 1021.44 494.153
2459 0 101.547 14.2397 1446 61.2137 1022.82 490.69
2460 0 105.6 14.555 1537 60.8302 1022.5 490.809
2461 0 107.228 14.2221 1525 61.7607 1022.15 488.98
2462 0 111.521 15.0914 1683 60.8295 1022.73 490.135
2463 0 113.817 15.314 1743 60.9466 1022.41 485.335
2464 0 116.36 14.7388 1715 61.8052 1022.3 486.786
2465 1 65.3738 11.1666 730 65.0123 1022.37 504.415
2466 0 68.4406 13.6177 932 62.1888 1022.54 509.034
2467 0 70.5148 15.3726 1084 60.738 1022.24 507.379
2468 0 72.3415 14.1274 1022 62.4442 1022.32 504.018
2469 0 74.7992 13.4493 1006 63.1292 1022.24 504.161
2470 0 76.2668 13.2823 1013 62.6604 1023.87 503.874
2471 0 79.6298 14.1153 1124 61.7046 1022.78 500.997
2472 0 82.4252 14.8256 1222 61.1146 1023.27 498.902
2473 0 83.6353 14.2882 1195 61.5824 1022.54 500.134
2474 0 85.2989 12.6965 1083 64.7258 1023.53 495.251
2475 0 91.7466 15.5973 1431 60.2516 1022.83 495.971
2476 0 91.4526 13.4824 1233 63.3236 1022.52 491.121
2477 0 96.8487 15.1164 1464 61.0294 1022.53 493.163
2478 0 98.2902 14.3453 1410 62.1667 1022.5 492.213
2479 0 102.993 13.0688 1346 63.7318 1021.34 485.391
2480 0 105.789 15.1244 1600 61.35 1022.4 489.531
2481 0 105.721 15.3895 1627 61.7664 1022.32 485.443
2482 0 110.84 14.1104 1564 62.8613 1022.74 484.502
2483 0 114.333 14.1255 1615 62.5901 1022.41 480.853
2484 0 119.641 16.5997 1986 59.4159 1022.29 483.918
2485 0 122.872 15.6911 1928 60.4611 1023.19 483.044
2486 0 124.751 13.6112 1698 63.3769 1022.95 476.76
2487 0 126.31 15.4857 1956 61.5353 1023.11 475.293
2488 0 131.589 12.9342 1702 63.5482 1022.31 476.89
2489 0 138.801 15.0648 2091 61.2683 1023.5 472.616
2490 1 76.3728 12.2295 934 63.1167 1022.25 501.517
2491 0 79.4033 14.0674 1117 61.4584 1022.18 494.782
2492 0 83.6784 12.5122 1047 62.384 1022.56 497.352
2493 0 83.4245 12.2746 1024 64.1748 1022.51 496.02
2494 1 13.0084 2.22932 29 50.0345 1023.1 533.379
2495 0 14.0867 8.51868 120 48.4833 1022.35 528.258
2496 1 91.56 14.4058 1319 61.1463 1023.12 495.984
2497 0 94.698 15.8082 1497 59.8898 1022.95 492.943
2498 0 97.4005 15.2053 1481 60.686 1022.78 493.363
2499 0 100.271 15.0991 1514 60.8752 1022.86 490.443
2500 0 103.434 16.2036 1676 60.0107 1023.21 487.683
2501 0 103.529 15.5513 1610 60.6602 1023.58 488.308
2502 0 106.726 12.6961 1355 64.1129 1023.06 486.782
2503 0 111.518 15.5042 1729 60.801 1023.26 485.121
2504 0 114.361 14.5854 1668 62.2302 1023.72 478.42
2505 0 118.386 12.9154 1529 64.5396 1024.01 473.64
2506 0 125.828 14.6311 1841 61.5828 1024.91 477.296
2507 0 126.345 12.8933 1629 64.0264 1023.19 469.036
2508 0 125.348 12.9559 1624 64.0665 1023.19 469.225
2509 1 202.693 13.37 2710 63.8306 1022.65 444.056
2510 0 207.703 12.3735 2570 65.2922 1022.26 439.513
2511 0 198.269 10.3143 2045 68.0186 1022.97 440.598
2512 1 150.431 17.8886 2691 58.9309 1023.44 461.268
2513 1 82.5203 14.0208 1157 60.3302 1024.08 498.901
2514 0 82.6249 12.708 1050 62.3467 1022.47 498.555
2515 0 86.1618 15.0995 1301 61.1499 1022.79 494.319
2516 0 89.6788 14.2063 1274 61.3728 1023.11 494.648
2517 0 93.711 15.8786 1488 59.7675 1023.07 492.796
2518 0 95.3999 14.0986 1345 61.8914 1022.43 490.37
2519 0 97.3914 15.4018 1500 60.53 1022.62 489.523
2520 0 98.1249 13.8089 1355 62.4487 1022.75 489.359
2521 0 99.1266 14.2444 1412 62.0113 1022.78 488.567
2522 0 101.215 14.4742 1465 61.8553 1022.34 486.549
2523 0 103.481 12.7367 1318 64.459 1022.24 478.993
2524 0 110.258 15.4547 1704 60.5874 1022.3 482.486
2525 0 112.673 14.9104 1680 61.6214 1022.8 476.358
2526 0 116.518 15.3625 1790 60.7246 1023.37 479.437
2527 0 119.427 15.993 1910 60.7298 1022.52 478.581
2528 0 120.556 15.4368 1861 61.496 1022.72 475.883
2529 0 124.885 15.7185 1963 61.1238 1022.76 475.252
2530 0 128.295 15.5501 1995 60.8912 1023.07 475.414
2531 0 132.338 16.8206 2226 59.4838 1022.06 474.495
2532 0 137.669 15.7625 2170 61.0894 1022.39 467.286
2533 0 139.391 13.1429 1832 64.31 1022.75 463.954
2534 0 143.558 14.9556 2147 62.2734 1023.26 466.448
2535 0 150.937 15.6556 2363 61.4989 1023.47 461.49
2536 0 152.631 14.4269 2202 63.47 1023.03 457.137
2537 0 157.536 15.0632 2373 62.5563 1024.08 459.632
2538 0 164.709 16.3744 2697 61.1542 1023.75 455.729
2539 0 168.004 13.9699 2347 63.7256 1023.66 453.621
2540 0 174.939 15.2739 2672 62.3975 1023.76 453.673
2541 1 96.7427 12.4764 1207 65.4209 1023.77 483.033
2542 0 96.533 11.9234 1151 67.4952 1023.74 479.761
2543 0 103.672 14.0829 1460 63.6918 1023.08 486.032
2544 0 103.652 13.854 1436 64.9756 1023.53 479.469
2545 0 109.052 14.8095 1615 63.6793 1024.46 480.932
2546 0 111.823 13.8165 1545 65.0615 1023.67 478.695
2547 0 115.014 14.4852 1666 64.8319 1024.09 477.758
2548 0 115.825 14.9018 1726 64.1715 1024.21 480.021
2549 0 119.578 13.6229 1629 66.5562 1023.09 473.156
2550 0 125.68 15.3007 1923 63.8606 1023.89 472.992
2551 0 129.983 16.556 2152 62.4828 1023.04 472.249
2552 0 133.916 16.6597 2231 62.7987 1023.25 469.552
2553 0 139.222 15.2706 2126 64.9332 1023.08 465.227
2554 0 141.354 13.5758 1919 66.6133 1023.69 466.954
2555 0 146.588 15.0558 2207 64.9397 1022.8 464.423
2556 0 149.944 12.8782 1931 67.9544 1023.74 459.23
2557 1 86.4968 15.33 1326 62.7707 1023.83 494.342
2558 0 90.0046 14.4215 1298 63.8744 1023.7 492.733
2559 0 89.5749 12.0346 1078 67.2505 1024 492.091
2560 0 92.3401 14.0134 1294 65.9057 1022.86 489.998
2561 0 92.2787 11.8446 1093 69.3687 1023.08 479.841
2562 0 98.6662 14.5744 1438 64.8081 1022.72 489.074
2563 0 99.7495 14.0552 1402 65.6106 1023.68 486.237
2564 0 104.556 12.4431 1301 67.9039 1023.36 484.952
2565 0 105.933 13.5746 1438 66.2399 1023.01 484.707
2566 0 109.625 15.4071 1689 65.0953 1023.03 480.957
2567 0 111.623 12.811 1430 67.8958 1023.18 477.928
2568 0 118.339 15.802 1870 63.2417 1023.66 479.268
2569 0 121.519 14.6232 1777 65.4069 1023.31 474.064
2570 0 126.382 14.749 1864 63.6175 1023.09 477.392
2571 0 124.371 11.7712 1464 68.9761 1023.72 467.411
2572 0 131.94 12.9832 1713 66.7642 1022.99 467.472
2573 0 134.898 12.4836 1684 67.1396 1023.23 468.292
2574 0 139.866 12.8408 1796 66.3079 1023.64 468.812
2575 0 143.388 12.4348 1783 67.9686 1022.73 462.033
2576 0 147.512 14.27 2105 65.6428 1022.45 461.433
2577 1 17.1364 11.6711 200 47.51 1022.32 526.915
2578 0 15.4098 7.07344 109 50.9358 1021.74 525.661
2579 1 92.3422 12.9951 1200 64.6483 1023.05 495.776
2580 0 93.7881 11.9845 1124 66.5276 1022.47 492.479
2581 0 95.3609 13.8212 1318 65.0827 1021.89 489.836
2582 0 95.3406 12.5445 1196 67.6998 1022.39 487.323
2583 0 102.476 12.9201 1324 66.7666 1023.76 484.161
2584 0 104.89 14.8441 1557 64.3988 1022.28 483.931
2585 0 105.457 13.9867 1475 65.4624 1022.35 484.912
2586 0 111.747 14.4881 1619 65.071 1022.4 481.739
2587 1 12.0382 10.882 131 48.3893 1022.75 528.634
2588 0 14.0278 4.84753 68 50.4853 1022.09 526.647
2589 0 13.0448 4.75286 62 50.3065 1022.6 528.306
2590 0 13.0861 10.3163 135 48.8074 1022.67 524.993
2591 0 13.1132 4.72805 62 50.5161 1022.9 529.064
2592 0 14.0778 9.4475 133 48.2932 1022.6 525.534
2593 0 15.1353 8.19275 124 48.9355 1023.04 526.952
2594 0 15.0448 11.499 173 47.8844 1022.4 527.22
2595 0 15.0465 6.97837 105 49.3905 1021.72 528.038
2596 0 15.2118 7.42844 113 49.354 1021.37 524.301
2597 0 16.0904 9.01161 145 48.0828 1021.51 528.869
2598 0 15.1436 12.7447 193 46.5544 1023.49 527.762
2599 0 14.0525 7.54313 106 49.1981 1023.21 526.453
2600 0 14.3383 12.2051 175 47.4514 1024.05 524.943
2601 0 15.1007 6.42353 97 50.3711 1022.73 526.289
2602 0 16.1253 9.73622 157 49.3185 1021.74 524.643
2603 0 16.0671 6.34838 102 51.0882 1021.93 526.147
2604 0 15.1411 8.38775 127 49.7165 1022.02 526.701
2605 0 14.0226 4.63538 65 50.2923 1020.83 525.277
2606 0 15.0625 10.2904 155 48.3742 1022.39 527.445
2607 0 14.168 8.11688 115 49.5217 1022.6 526.504
2608 0 14.0027 8.42696 118 48.8983 1022.54 526.992
2609 0 15.0909 6.95785 105 49.2476 1022.42 528.419
2610 0 17.175 12.7511 219 46.9589 1022.63 525.598
2611 0 17.0235 12.982 221 47.4208 1023 526.769
2612 0 16.0073 12.8067 205 47.3073 1023.8 526.38
2613 0 17.0366 9.97852 170 48.2941 1022.88 526.747
2614 0 15.1071 10.1939 154 48.8052 1022.73 525.747
2615 0 15.0211 14.7126 221 47.2262 1022.38 527.167
2616 0 14.1492 6.21942 88 50.3977 1022.33 525.83
2617 0 15.0062 2.99877 45 52.8444 1022.02 526
2618 0 14.0021 1.42836 20 53.4 1024.3 529.15
2619 0 16.0101 11.6802 187 48.0535 1022.82 528.246
2620 0 17.1358 10.3292 177 50.1186 1023.81 527.068
2621 0 16.0296 8.92101 143 49.042 1023.22 528.51
2622 0 16.072 11.884 191 49.6702 1022.79 526.236
2623 0 15.054 11.492 173 49.6012 1023.41 526.63
2624 0 16.1096 5.83502 94 53.1489 1023.04 527
2625 0 17.0213 14.1 240 49.2042 1023.41 525.742
2626 0 17.3567 12.7904 222 50.3919 1023.31 524.626
2627 0 17.2115 11.2716 194 51.0773 1022.75 526.031
2628 0 17.3313 14.5979 253 48.9447 1022.83 525.573
2629 0 15.0452 8.17539 123 52.5041 1021.42 526.228
2630 0 17.1587 11.0731 190 50.9 1021.24 526.953
2631 0 17.2299 10.7952 186 51.8495 1022.15 525.237
2632 0 18.0178 12.6542 228 51.5395 1022.71 524.917
2633 0 17.0923 13.1053 224 49.7009 1022.94 527.812
2634 0 18.086 10.3948 188 52.0851 1022.63 527.926
2635 0 16.1917 10.9315 177 52.5085 1022.84 527.938
2636 0 15.0387 10.6392 160 52.0312 1023.43 529.512
2637 0 18.1243 10.2073 185 51.3459 1023.6 529.524
2638 0 16.0444 14.4599 232 50.6164 1022.51 528.836
2639 0 13.0431 9.04691 118 53.6271 1022.64 529.339
2640 0 18.0307 11.2585 203 52.3054 1023.33 527.404
2641 0 16.0097 12.7423 204 51.5343 1023.13 527.343
2642 0 17.0272 12.2158 208 50.8462 1023.23 528.981
2643 0 18.0878 10.8913 197 51.8934 1024.24 528.553
2644 0 16.006 12.8702 206 50.767 1023.98 529.33
2645 0 19.0371 12.5019 238 52.2437 1023.21 527.849
2646 0 15.0194 11.7182 176 54.1477 1023.18 527.972
2647 0 17.0071 10.6426 181 52.9668 1024.15 529.674
2648 0 17.1088 14.1448 242 50.905 1023.88 531.14
2649 0 15.0539 7.57277 114 53.5965 1023.32 530.79
2650 0 15.0075 7.99601 120 46.6917 1023.08 529.767
2651 0 16.0102 8.4321 135 53.1259 1024.61 532.326
2652 0 16.0206 11.6101 186 51.5645 1024.34 530.952
2653 0 18.0188 14.0409 253 50.8419 1023.7 530.044
2654 0 17.0057 11.2315 191 52.4346 1023.68 529.105
2655 0 19.0135 11.2025 213 51.3333 1023.86 530.366
2656 0 16.1615 8.72445 141 53.7092 1023.22 530.979
2657 0 18.0724 14.0546 254 51.0394 1023.03 530.39
2658 0 17.0194 9.3423 159 52.2579 1024.18 531.786
2659 0 20.0171 14.5876 292 49.8596 1023.53 530.209
2660 0 17.0125 15.1653 258 50.655 1024.34 529.023
2661 0 19.0161 10.3596 197 51.5787 1023.99 531.081
2662 0 14.0111 5.85249 82 54.5488 1024.04 531.646
2663 0 18.1552 11.4017 207 52.1546 1024.65 530.193
2664 0 18.0424 11.8055 213 51.3803 1023.31 533
2665 0 17.0942 13.6303 233 51.176 1023.64 530.159
2666 0 18.0564 15.2301 275 50.0327 1024.08 530.982
2667 0 19.0293 13.9259 265 50.4075 1023.99 531.721
2668 0 18.1285 14.2318 258 50.6977 1024.07 530.802
2669 0 16.0336 9.35536 150 51.5467 1024.01 533.48
2670 0 18.0167 10.7678 194 50.3969 1023.92 532.804
2671 0 18.0647 9.35524 169 52.5503 1023.89 532.071
2672 0 17.0123 7.17128 122 54.2869 1024.54 532.033
2673 0 18.0074 14.383 259 50.8108 1024.01 531.382
2674 0 17.0845 6.4971 111 54.5135 1023.14 533.072
2675 0 17.12 8.11917 139 53.8201 1024.09 531.036
2676 0 16.0083 9.49505 152 52.8158 1023.63 532.21
2677 0 19.1366 13.9523 267 50.3034 1023.68 531.184
2678 0 17.3432 10.9553 190 52.4316 1024.09 530.8
2679 0 18.0375 11.587 209 52.3445 1024.4 531.12
2680 0 15.0339 12.5716 189 52.5132 1023.18 531.228
2681 0 17.0099 13.4627 229 51.8297 1023.75 532.834
2682 0 18.0104 13.9919 252 50.7381 1024.08 532.111
2683 0 17.0058 10.0554 171 52.6257 1023.67 533.602
2684 0 17.0327 12.1531 207 51.4396 1023.5 532.343
2685 0 18.0347 12.5314 226 51.0487 1022.85 531.58
2686 0 15.0148 12.7208 191 51.0052 1023.62 532.722
2687 0 14.0417 9.47177 133 52.579 1023.19 533.165
2688 0 15.004 3.93228 59 55.2203 1022.39 532.932
2689 0 17.0555 11.316 193 51.4456 1023.77 532.057
2690 0 17.0118 5.58436 95 53.3368 1022.39 535.042
2691 0 17.0219 13.1595 224 50.5179 1023.25 532
2692 0 20.0476 12.2209 245 49.8204 1023.03 533.033
2693 0 18.0478 9.41944 170 52.3294 1024.65 532.324
2694 0 17.0497 10.2055 174 50.5345 1024.15 532.592
2695 0 16.0786 14.9266 240 49.8167 1023.65 532.888
2696 0 18.0474 14.0741 254 50.8465 1023.58 532.244
2697 0 16.0258 13.3534 214 50.9486 1023.5 532.696
2698 0 18.0173 14.7081 265 50.3321 1024.42 531.943
2699 0 16.0838 5.78223 93 54.2151 1023.83 533.667
2700 0 18.0103 10.0498 181 52.3867 1025.06 533.608
2701 0 16.0252 7.55061 121 53.4876 1023.79 531.364
2702 0 17.0256 9.57381 163 52.7485 1024.23 532.822
2703 0 17.0229 13.2175 225 51.5689 1023.5 530.053
2704 0 17.0174 9.04956 154 51.6948 1023.42 532.74
2705 0 16.0098 10.6809 171 52.731 1024.58 530.982
2706 0 14.0103 5.56733 78 56.8333 1023.9 531.333
2707 0 17.199 14.4776 249 50.9639 1023.27 530.434
2708 0 16.0517 8.84642 142 52.5141 1023.66 533.761
2709 0 17.0564 9.43929 161 53.4783 1024.24 530.416
2710 0 18.0697 14.4994 262 50.4313 1023.51 533.374
2711 0 17.1017 11.6948 200 52.215 1023.24 532.865
2712 0 15.0905 6.09656 92 55.8587 1024.1 534.533
2713 0 16.0945 13.0479 210 52.4143 1024.17 533.976
2714 0 16.0251 12.7301 204 52.9559 1024.21 532.524
2715 0 18.0133 15.8216 285 51.1754 1023.58 531.916
2716 0 16.0653 12.0757 194 53.7268 1023.09 531.959
2717 0 16.0538 8.34691 134 55.1866 1023.96 532.47
2718 0 15.0223 6.92304 104 54.5481 1023.84 533.029
2719 0 17.0639 11.9551 204 53.4804 1024.16 533.917
2720 0 18.0227 11.7629 212 53.4481 1025.04 532.514
2721 0 17.2524 11.2448 194 53.1701 1024.68 534.866
2722 0 15.0207 8.92104 134 54.9254 1024.7 532.821
2723 0 17.0845 12.6431 216 52.1759 1024.38 533.398
2724 0 18.0844 10.0086 181 53.8398 1024.38 534.895
2725 0 16.0402 13.0298 209 53.4402 1023.99 533.124
2726 0 17.2925 10.2935 178 53.5 1023.12 534.584
2727 0 15.0147 8.32516 125 55.184 1023.68 533.992
2728 0 17.0725 9.02036 154 54.3052 1024.72 533.935
2729 0 16.0096 10.6186 170 53.8882 1024.35 533.118
2730 0 15.0146 8.99124 135 54.0889 1023.33 533.978
2731 0 16.0184 10.0509 161 54.3913 1024.16 536.373
2732 0 16.1023 8.01128 129 56.4574 1024.9 534.039
2733 0 15.0147 7.25958 109 54.9908 1024.38 535.917
2734 0 15.0056 13.5949 204 52.7794 1023.94 533.108
2735 0 15.0027 5.19906 78 56.6538 1023.59 535.615
2736 0 15.0764 10.4799 158 53.2658 1024.28 533.297
2737 0 16.1014 10.496 169 54.9231 1024.09 534.095
2738 0 14.0316 6.05775 85 56.7765 1023.38 535.141
2739 0 19.0396 11.2923 215 53.1907 1023.4 533.223
2740 0 17.0854 14.1056 241 51.8672 1023.59 531.51
2741 0 14.0095 3.56901 50 59.74 1021.54 534.06
2742 0 16.037 9.41572 151 55.5762 1023.21 531.715
2743 0 16.0304 15.034 241 53.7759 1023.67 532.208
2744 0 16.0282 14.0378 225 52.5422 1024.17 532.329
2745 0 16.0186 5.11905 82 57.2317 1023.77 534.524
2746 0 16.0403 9.22679 148 55.6757 1023.73 530.466
2747 0 14.0232 9.6269 135 55.6963 1023.56 530.793
2748 0 15.0127 8.85918 133 55.7519 1024.11 531.835
2749 0 17.0683 6.56188 112 55.0446 1023.56 533.92
2750 0 16.0222 7.73926 124 57.4113 1023.74 530.944
2751 0 14.1633 5.01294 71 57.3099 1023.96 531.746
2752 0 17.0271 8.98567 153 55.0588 1023.69 532.49
2753 0 18.0677 12.5085 226 52.6593 1024.09 530.588
2754 0 17.0198 11.3985 194 53.3144 1024.36 530.876
2755 0 17.0547 9.14703 156 54.359 1024.12 533.43
2756 0 16.0045 10.3721 166 52.7108 1023.73 532.916
2757 0 15.0242 6.45626 97 54.299 1023.41 534.124
2758 0 15.0242 6.45626 97 54.299 1023.41 534.124
2759 0 15.0051 9.33014 140 51.9143 1023.31 531.614
2760 0 14.0279 7.69897 108 53.1204 1024.35 531.676
2761 0 16.0225 6.67813 107 54.8131 1023.34 532.15
2762 0 16.0296 10.2935 165 50.0909 1023.82 531.661
2763 0 15.0742 14.3955 217 51.4747 1023.79 531.396
2764 0 18.1363 11.0827 201 52.2637 1023.28 531.279
2765 0 16.0215 13.1074 210 51.5333 1023.92 529.829
2766 0 16.0237 8.79949 141 54.4043 1024.01 532.064
2767 0 17.0159 8.46266 144 54.1111 1023 530.292
2768 0 15.0182 7.59077 114 54.386 1023.75 532.175
2769 1 298.605 15.6595 4676 79.1533 1024.09 384.445
2770 0 298.713 14.9876 4477 84.5752 1023.99 384.846
2771 0 304.869 15.4132 4699 84.6814 1024.16 379.585
2772 1 11.0046 3.27136 36 48.1111 1020.39 239.5
2773 1 301.784 15.0074 4529 87.9293 1023.97 376.225
2774 0 299.611 15.6837 4699 86.9447 1023.65 377.671
2775 1 306.626 14.3921 4413 89.8106 1023.91 371.853
2776 0 311.766 14.7354 4594 89.5424 1024 376.248
2777 0 302.602 15.4229 4667 89.694 1024.78 375.849
2778 0 299.832 17.7633 5326 86.0533 1024.54 375.834
2779 1 312.301 19.4812 6084 81.2334 1023.31 366.012
2780 0 0 0 0 -nan -nan -nan
2781 0 0 0 0 -nan -nan -nan
2782 1 2 4.5 9 52.1111 1027.33 525.889
2783 0 13.0208 5.52961 72 56.1111 1024.26 529.875
2784 0 15.1559 9.56724 145 55.3862 1024.02 531.269
2785 0 15.0275 2.59524 39 58.4615 1024.1 532.897
2786 0 16.0223 12.4826 200 53.265 1023.91 532.175
2787 0 16.0223 12.3578 198 87.7677 1024.86 532.141
2788 0 15.0077 11.5274 173 51.474 1023.8 530.566
2789 0 16.0333 8.35762 134 53.9254 1024.9 531.007
2790 0 14.1282 8.6352 122 54.1148 1024.16 532.959
2791 0 15.0133 13.2549 199 46.2362 1024.62 532.93
2792 0 17.0212 12.6901 216 46.6111 1024.75 531.185
2793 0 17.0247 7.92966 135 47.763 1025.4 534.756
2794 0 17.0395 14.0262 239 45.9665 1025.29 533.1
2795 0 18.176 12.489 227 46.2555 1024.44 532.709
2796 0 18.022 12.0408 217 47.3364 1024.3 531.788
2797 0 15.0714 8.16116 123 49.2358 1024.22 531.878
2798 0 16.0258 10.9823 176 46.8977 1024.65 533.761
2799 0 16.0221 12.2331 196 47.3061 1023.94 532.214
2800 0 17.1116 9.99322 171 48.0526 1024.26 531.532
2801 0 18.0494 7.20245 130 48.2538 1024.16 534.785
2802 0 16.0534 14.0157 225 45.9778 1024.3 531.947
2803 0 18.0551 12.2957 222 46.2523 1024.31 532.712
2804 0 17.024 9.86844 168 46.5714 1024.05 533.833
2805 0 18.0368 14.1932 256 44.7461 1024.57 532.445
2806 0 17.0074 7.87892 134 46.7612 1024.13 534.493
2807 0 15.0169 10.3883 156 47.4167 1023.64 531.974
2808 0 16.0325 9.9797 160 46.325 1024.23 533.194
2809 0 16.0608 10.398 167 45.8862 1024.18 533.82
2810 0 15.0167 3.99555 60 48.9667 1024.22 533.133
2811 0 17.0808 10.8894 186 45.7849 1023.98 532.489
2812 0 17.0182 12.4573 212 44.5708 1024.5 531.939
2813 0 16.0185 5.55608 89 47.2022 1024.52 533.27
2814 0 16.022 5.2428 84 47 1025.24 534.667
2815 0 17.0412 13.3794 228 44.3509 1024.85 529.601
2816 0 17.0486 11.4379 195 44.9333 1024.11 529.395
2817 0 17.0953 8.42338 144 45.7083 1023.72 529.986
2818 0 18.0216 10.9868 198 44.4798 1025.16 532.616
2819 0 16.0076 11.6195 186 44.6935 1024.43 533.016
2820 0 12.0051 3.66512 44 48.6364 1023.73 533.273
2821 0 17.0868 9.0128 154 45.2208 1024.79 531.675
2822 0 17.0288 6.98815 119 45.3025 1025.86 530.983
2823 0 13.0092 4.22778 55 46.0364 1025.89 532.327
2824 0 15.0322 2.39486 36 46.4444 1025.14 529.167
2825 1 174.41 12.3387 2152 70.566 1024.93 452.21
2826 0 183.518 12.8108 2351 71.9507 1026.18 437.136
2827 0 180.443 11.7101 2113 72.0554 1024.99 444.989
2828 0 191.456 12.2064 2337 70.9966 1025.53 442.334
2829 0 188.457 13.0163 2453 69.7954 1025.28 446.601
2830 0 179.717 12.5308 2252 71.0835 1025.15 446.631
2831 0 175.471 12.5776 2207 72.1255 1024.67 442.327
2832 0 174.572 12.8829 2249 71.7932 1024.96 443.171
2833 0 169.363 11.3189 1917 73.7486 1024.27 447.774
2834 0 171.888 11.8449 2036 71.9725 1024.26 448.679
2835 0 167.49 12.0067 2011 72.4316 1024.79 441.901
2836 0 170.732 12.6807 2165 70.8171 1024.33 446.454
2837 1 2 8.5 17 69.2353 1028.18 353.706
2838 1 173.781 13.9026 2416 67.9052 1025.48 447.082
2839 1 3 4.33333 13 70 1026.92 354.615
2840 1 170.485 10.9042 1859 69.9042 1025.43 458.204
2841 0 165.571 10.7507 1780 71.55 1025.38 447.846
2842 0 178.627 10.6087 1895 69.7968 1025.68 453.163
2843 0 182.761 9.64098 1762 70.4574 1024.81 452.47
2844 0 178.572 11.7264 2094 67.5272 1025.01 452.107
2845 0 168.88 12.1388 2050 69.4366 1025.33 446.145
2846 0 167.563 12.9145 2164 68.3886 1024.8 446.793
2847 0 166.573 11.9767 1995 69.1013 1024.43 448.861
2848 1 0 0 1 70 1028 356
2849 1 166.546 10.0152 1668 71.3183 1024.78 451.243
2850 0 167.654 11.7981 1978 69.3574 1024.68 445.483
2851 0 168.591 11.8393 1996 68.2149 1024.49 451.116
2852 1 179.419 10.612 1904 70.3361 1024.54 443.274
2853 0 183.889 10.9251 2009 67.2678 1024.97 456.539
2854 0 297.982 16.6218 4953 67.0707 1024.99 372.753
2855 1 127.172 12.4084 1578 79.2395 1024.76 292.731
2856 1 296.01 15.9657 4726 68.1107 1025.59 379.786
2857 0 129.42 13.4291 1738 77.0857 1024.44 290.411
2858 1 0 0 2 71.5 1029 356
2859 1 167.596 12.6256 2116 68.4683 1025.71 444.89
2860 0 165.54 12.9213 2139 68.1519 1025.38 443.671
2861 0 169.428 12.796 2168 67.8413 1024.96 447.726
2862 0 165.52 12.1194 2006 68.7891 1024.36 450.815
2863 0 167.615 11.8247 1982 69.719 1024.28 445.513
2864 0 162.526 11.9243 1938 70.5764 1024.9 443.384
2865 0 165.729 12.9368 2144 67.8144 1024.56 445.478
2866 0 166.692 12.9461 2158 66.8253 1025.12 452.534
2867 0 172.513 14.0395 2422 65.4579 1025.41 453.388
2868 0 165.6 14.0218 2322 67.1537 1025.14 445.574
2869 0 158.463 11.6746 1850 70.9151 1024.87 447.307
2870 0 163.706 12.3392 2020 68.8406 1024.73 449.952
2871 0 159.649 11.5253 1840 70.563 1025.59 451.426
2872 0 124.204 13.3249 1655 77.5142 1024.62 294.856
2873 0 301.762 14.2298 4294 51.643 1024.51 386.245
2874 0 299.185 15.2648 4567 48.5667 1025.04 380.109
2875 0 298.089 15.6128 4654 46.7795 1024.99 381.189
2876 0 298.688 16.7064 4990 40.7934 1023.85 384.878
2877 0 307.233 18.9758 5830 34.5506 1023.6 400.547
2878 0 490.639 22.3729 10977 29.447 1021.33 342.793
2879 0 539.837 27.3027 14739 26.6585 1020.11 333.233
