time division length width area intensity CMx CMy
0 0 59.1535 12.1041 716 61.0056 119.007 502.025
1 0 60.1893 11.3808 685 62.6336 118.712 501.27
2 0 63.2678 13.3875 847 59.4038 118.313 499.594
3 0 64.2467 13.1057 842 59.7078 118.485 499.3
4 0 66.2551 12.6783 840 60.3333 118.018 496.695
5 0 68.1369 14.3388 977 57.175 117.818 499.484
6 0 71.2551 12.7991 912 58.8542 117.708 498.762
7 0 69.2131 11.4863 795 61.6591 117.242 497.158
8 0 73.2299 13.8741 1016 58.3494 117.754 493.857
9 0 74.2479 12.4717 926 60.4816 117.153 494.838
10 1 39.0639 9.90683 387 61.9354 117.132 513.512
11 0 40.0737 9.9317 398 61.9573 117.681 513.724
12 0 37.0185 10.7514 398 63.3241 117.626 511.392
13 0 41.0382 10.3562 425 61.9788 117.779 513.214
14 0 42.0201 11.6373 489 60.8098 117.354 512.442
15 0 44.0115 12.065 531 61.1092 118.218 510.422
16 0 40.0416 11.2633 451 65.204 117.583 510.06
17 0 42.0248 11.1839 470 65.5149 117.755 511.66
18 0 44.0639 11.7556 518 65.3263 117.373 510.336
19 0 46.0242 10.7335 494 66.0688 117.496 510.457
20 0 46.0232 12.1678 560 65.5018 117.732 510.109
21 0 47.0633 11.6651 549 67.561 117.632 507.306
22 0 48.0308 11.3469 545 68.2917 116.824 507.501
23 0 49.1035 11.2416 552 68.5018 116.063 508.29
24 0 49.076 12.9187 634 67.4322 117.101 505.756
25 0 52.0246 13.1668 685 66.2803 116.442 505.467
26 0 52.0888 13.0354 679 67.6981 116.482 503.588
27 0 56.0772 12.9643 727 67.0454 117.872 505.384
28 0 56.0416 12.3837 694 69.2738 117.081 503.148
29 0 55.0381 12.1734 670 70.7239 116.987 503.173
30 0 56.0668 11.843 664 71.6506 117.554 501.886
31 0 59.0358 12.0435 711 70.5035 117.466 502.658
32 0 61.0614 12.8887 787 69.028 117.919 501.127
33 0 61.0963 13.1432 803 69.807 117.344 498.382
34 0 62.0487 12.2162 758 71.3074 117.649 500.253
35 0 66.0487 12.6876 838 69.9797 117.537 498.204
36 0 66.1678 12.8915 853 70.1782 118.623 497.136
37 0 68.0818 13.4103 913 69.8959 118.002 495.002
38 0 71.0825 11.5922 824 71.8726 117.174 497.927
39 0 74.08 12.5675 931 69.4125 117.284 497.192
40 0 74.1452 13.1229 973 70.4471 118.05 493.49
41 0 75.0379 12.2871 922 71.8894 117.397 493.499
42 1 40.0832 10.7027 429 72.2308 118.671 511.604
43 0 42.0894 10.3827 437 72.0938 118.169 511.19
44 0 42.1362 12.4358 524 70.7519 118.796 509.479
45 0 44.0829 11.4103 503 71.8807 118.137 509.523
46 0 45.1091 11.3724 513 71.538 118.891 508.959
47 0 45.0425 10.2126 460 74.0565 120.254 510.196
48 0 47.0637 12.0263 566 71.4117 119.191 509.053
49 0 50.0357 12.3112 616 70.7938 119.44 508.174
50 0 50.0698 12.0232 602 71.4867 119.439 507.741
51 0 52.0374 11.4917 598 72.3679 119.866 504.871
52 0 53.0387 11.8404 628 71.1576 119.487 507.761
53 0 55.0972 13.449 741 67.4723 120.07 508.439
54 0 54.0567 11.5434 624 72.4968 120.171 504.524
55 0 59.0904 12.997 768 68.0091 119.815 506.35
56 0 57.0392 12.2197 697 71.2496 119.283 503.673
57 0 60.036 11.7263 704 72.5355 120.223 501.717
58 0 60.0508 11.6401 699 72.6023 120.68 500.485
59 0 64.0263 12.1981 781 70.9488 119.987 499.369
60 0 65.0405 13.284 864 70.2894 120.286 498.154
61 0 65.0995 12.3042 801 72.0961 119.533 498.166
62 0 69.0996 12.0695 834 71.8981 119.207 497.078
63 0 73.0551 12.1826 890 70.091 119.799 497.997
64 0 74.0768 13.5535 1004 69.4691 119.188 494.52
65 0 75.0979 13.2227 993 70.6103 119.334 494.351
66 1 38.0208 10.8888 414 71.7029 119.717 509.843
67 0 38.1375 10.1213 386 72.228 120.085 511.663
68 0 42.0966 11.1885 471 70.6348 119.397 511.125
69 0 43.0559 11.4967 495 71.1051 119.339 509.691
70 0 44.0418 10.7171 472 72.6398 118.919 509.248
71 0 45.0529 11.4754 517 71.9768 119.408 508.085
72 0 47.1215 11.0141 519 72.9017 118.992 508.435
73 0 48.0816 11.1061 534 72.3165 118.191 508.687
74 0 50.0614 11.3461 568 72.5968 118.257 506.06
75 0 50.0731 11.9625 599 72.2254 118.621 505.506
76 0 50.1076 11.615 582 73.5395 119.172 503.698
77 0 54.0704 11.4295 618 72.8366 119.261 503.707
78 0 55.0751 10.4766 577 73.9913 119.607 503.64
79 0 55.0827 12.0364 663 71.1704 119.437 504.765
80 0 57.0618 11.4437 653 72.6891 119.047 502.995
81 0 58.1241 12.2497 712 72.323 120.01 501.223
82 0 59.1497 11.8682 702 72.6054 120.09 502.007
83 0 61.1168 12.4843 763 72.211 119.453 499.78
84 0 62.1116 10.3523 643 75.4339 119.767 500.647
85 0 65.1212 11.4556 746 74.0188 120.115 500.032
86 0 67.0797 11.1509 748 74.2032 120.265 498.943
87 0 70.2017 12.4641 875 72.5154 120.381 497.066
88 0 70.1242 11.6935 820 75.1549 120.326 494.021
89 0 73.0762 12.5486 917 72.7426 120.605 494.477
90 0 74.1751 12.5918 934 73.4293 119.382 492.575
91 1 38.012 12.4698 474 70.8397 120.209 510.738
92 0 38.0635 10.3511 394 74.1548 120.698 511.916
93 0 39.0293 11.2736 440 74.7818 120.441 509.359
94 0 41.036 11.1853 459 75.1155 120.813 508.37
95 0 42.0173 9.92448 417 75.8106 120.794 510.806
96 0 43.0161 10.6239 457 75.105 119.823 510.615
97 0 45.0071 11.6648 525 75.2057 120.377 507.333
98 0 45.031 11.4144 514 75.6031 120.531 509.226
99 0 45.0683 12.0484 543 76.2118 119.801 506.858
100 0 46.09 10.87 501 77.4271 119.543 507.754
101 0 49.0834 10.5535 518 77.4479 120.295 507.041
102 0 49.067 12.3505 606 74.6749 120.012 506.028
103 0 52.0631 12.3888 645 74.1225 120.389 504.315
104 0 53.146 11.9106 633 74.4281 120.694 504.7
105 0 55.0514 12.3703 681 74.511 120.016 502.167
106 0 55.0333 11.0297 607 76.8929 120.326 501.865
107 0 56.0826 10.9125 612 75.8137 120.623 502.874
108 0 60.0523 12.8222 770 72.513 120.313 500.803
109 0 61.1322 10.9435 669 75.272 120.75 500.332
110 0 63.0441 12.6261 796 73.4648 119.094 496.878
111 0 64.0931 12.4662 799 73.3342 118.793 497.547
112 0 66.0726 12.1382 802 74.3142 119.213 496.349
113 0 69.1389 11.542 798 73.886 119.873 495.891
114 0 71.0737 12.0579 857 73.5858 119.681 494.599
115 0 73.1573 11.8922 870 73.354 119.933 493.306
116 0 76.2162 11.5199 878 74.0786 119.576 493.579
117 0 79.1602 12.8979 1021 71.0333 120.214 492.169
118 0 79.1634 11.8363 937 74.0331 120.61 488.725
119 0 81.1561 11.6319 944 75.1059 120.782 486.767
120 1 44.0757 11.4349 504 71.2639 120.913 508.022
121 0 45.0246 10.15 457 73.0503 120.829 507.449
122 0 45.0338 11.1028 500 71.832 121.294 507.18
123 0 48.0235 10.0576 483 72.1097 120.952 506.636
124 0 49.0805 11.6543 572 70.4476 121.061 504.577
125 0 49.0315 10.9521 537 72.2905 120.022 502.782
126 0 52.0335 10.7046 557 70.6804 119.679 505.25
127 0 51.0605 11.3395 579 71.0345 119.658 502.594
128 0 55.0604 13.1492 724 67.1533 120.057 501.706
129 0 55.1358 11.3357 625 70.5552 120.973 499.509
130 0 57.1772 10.8785 622 69.6801 119.785 500.257
131 0 58.0709 9.81558 570 70.7298 119.442 502.358
132 0 62.0696 11.3421 704 68.4432 119.868 498.95
133 0 61.1077 11.2425 687 69.0626 120.565 498.521
134 1 121.199 10.3548 1255 74.1347 119.844 470.329
135 0 126.189 11.3719 1435 71.3233 119.439 470.9
136 1 67.0901 11.5367 774 68.0155 120.18 496.716
137 0 69.1007 10.8393 749 68.6609 120.093 495.935
138 0 73.1522 11.7563 860 67.7721 120.062 492.029
139 0 75.1718 11.9327 897 68.0234 119.661 491.071
140 0 76.0953 10.9862 836 69.9103 120.781 492.191
141 0 77.045 11.4089 879 69.2309 120.561 492.27
142 0 81.0802 12.8515 1042 68.1459 120.667 486.462
143 0 84.0642 12.3596 1039 68.6256 119.456 486.75
144 0 84.057 11.8729 998 70.6142 119.155 484.753
145 1 43.1363 10.0611 434 69.6406 120.59 506.781
146 0 46.0329 10.5142 484 70.2107 119.802 504.496
147 0 47.1177 10.9301 515 69.9359 119.705 507.052
148 0 49.049 10.8463 532 71.2444 119.592 503.769
149 0 50.0526 11.3481 568 68.882 119.657 505.757
150 0 50.0559 10.8479 543 70.825 119.783 505.05
151 0 52.0284 10.9748 571 71.6357 120.485 502.974
152 0 53.0311 11.4084 605 71.5702 119.793 500.536
153 0 55.0878 10.6376 586 72.1519 119.462 500.582
154 0 56.1565 10.7735 605 71.805 119.777 500.007
155 0 59.0707 11.901 703 69.3115 120.219 498.61
156 0 61.0781 13.6383 833 66.7851 121.011 498.379
157 0 62.0811 10.9534 680 69.4221 120.456 500.481
158 0 63.0436 11.9441 753 68.5272 120.425 496.918
159 0 66.0513 11.6273 768 68.6562 120.233 497.473
160 0 69.1264 11.4283 790 68.2468 121.318 494.719
161 0 71.0611 12.0038 853 67.6389 121.063 493.601
162 0 73.0545 11.5941 847 67.9811 120.571 492.488
163 0 76.1193 11.863 903 67.6412 120.653 490.767
164 0 79.124 10.7174 848 68.5295 121.13 491.584
165 0 81.1021 11.467 930 67.6398 120.751 489.519
166 1 40.1531 8.39288 337 70.6706 121.531 506.131
167 0 43.0168 10.461 450 67.6822 121.689 505.591
168 0 43.0617 11.9132 513 66.5049 122.094 504.189
169 0 45.0509 9.96651 449 69.1759 121.82 502.401
170 0 47.013 11.1671 525 67.2457 121.135 504.465
171 0 47.0515 10.5841 498 68.4719 121.396 502.998
172 0 48.1687 9.96499 480 70.0375 121.081 501.829
173 0 51.0233 12.4453 635 66.7039 121.644 499.726
174 0 53.0547 10.9133 579 68.0933 121.029 499.931
175 0 54.0445 12.1011 654 66.8073 120.705 499.034
176 0 57.0618 11.7942 673 65.9346 119.513 497.774
177 0 58.1144 11.5978 674 66.5757 119.512 498.135
178 0 59.0559 10.3969 614 68.6401 119.754 496.666
179 0 63.0613 12.8764 812 64.5542 120.6 495.783
180 0 66.0677 13.244 875 63.8126 120.017 495.974
181 0 67.0928 12.7286 854 65.0867 119.527 494.454
182 0 68.0431 11.5662 787 66.5553 119.311 494.235
183 0 72.0702 12.4046 894 65.9586 118.224 492.677
184 0 73.0471 11.9786 875 66.632 117.99 491.776
185 0 75.0503 12.7515 957 65.9363 117.77 489.862
186 0 77.0624 12.8597 991 66.1655 118.017 488.618
187 0 78.0364 11.0077 859 67.9325 117.648 489.36
188 0 85.1021 13.5367 1152 64.0877 117.545 488.404
189 0 88.1428 12.5705 1108 65.6606 117.546 485.913
190 1 44.0485 11.7825 519 65.1252 116.911 505.886
191 0 45.0761 11.8245 533 64.7542 115.848 506.291
192 0 45.1341 10.9895 496 67.0262 115.7 505.585
193 0 48.0882 12.3315 593 63.715 116.556 507.958
194 0 51.2026 11.1518 571 65.8004 115.732 506.327
195 0 50.0429 11.0105 551 66.9946 115.543 506.942
196 0 53.0142 11.3177 600 66.9183 115.977 505.558
197 0 56.0488 12.2215 685 65.2044 116.124 505.134
198 0 56.104 10.9261 613 67.2039 115.85 504.985
199 0 57.0764 12.2467 699 65.8698 115.941 503.863
200 0 59.1618 12.3559 731 65.6129 116.35 502.349
201 0 59.0682 12.5448 741 65.6721 115.552 502.107
202 0 64.1021 12.0901 775 65.0877 115.178 502.538
203 0 64.1052 14.1486 907 62.9515 115.272 500.206
204 0 67.2555 12.906 868 63.9631 115.62 501.794
205 0 68.1265 12.1539 828 65.2428 115.348 499.308
206 0 70.0708 10.8747 762 65.9291 115.458 500.589
207 0 72.106 13.1057 945 64.1979 115.839 498.214
208 0 73.0786 12.5345 916 65.2686 115.959 496.947
209 0 75.0537 12.2446 919 65.2546 116.219 498.807
210 0 80.1266 11.981 960 65.5052 115.293 496.278
211 0 81.1223 10.9341 887 67.0383 115.453 495.225
212 0 81.1444 12.7427 1034 65.4981 115.064 493.282
213 0 86.218 12.7352 1098 64.9991 114.656 493.055
214 0 87.0946 11.941 1040 66.5087 114.329 492.592
215 1 46.0514 9.90199 456 67.511 113.833 513.708
216 0 50.0997 10.9581 549 65.2077 113.563 512.689
217 0 49.0157 10.466 513 67.347 113.396 510.343
218 0 51.0276 10.9941 561 67.1586 112.629 509.686
219 0 52.0741 12.7895 666 64.8694 113.571 508.498
220 0 53.0843 11.1521 592 67.0524 113.681 509.049
221 0 55.1111 12.0847 666 66.012 113.95 505.58
222 0 58.0893 12.9628 753 63.9973 114.348 506.463
223 0 59.1114 11.453 677 67.0044 114.706 504.118
224 0 58.0823 11.0877 644 67.2143 113.629 504.228
225 0 63.0685 13.6677 862 63.3237 114.233 501.716
226 0 64.0164 12.325 789 64.4195 114.098 502.06
227 0 66.0739 12.3044 813 64.5117 113.829 500.39
228 0 67.1271 13.5713 911 63.2327 114.477 499.126
229 0 67.1883 11.2668 757 66.605 114.268 496.612
230 0 70.0565 12.0474 844 65.269 114.205 495.504
231 0 73.1371 12.0322 880 64.5091 114.223 494.776
232 0 74.0762 13.1216 972 64.1543 114.545 491.724
233 0 79.1741 13.0725 1035 63.1169 114.386 493.953
234 0 79.1924 11.933 945 65.3524 113.412 492.828
235 0 84.1006 12.7704 1074 63.5605 113.187 491.019
236 0 84.1673 12.5227 1054 64.7296 113.686 488.579
237 1 44.0549 9.32926 411 67.2749 113.723 507.414
238 0 47.1243 12.4352 586 63.2048 113.623 508.787
239 0 48.0499 11.4672 551 64.7132 114.18 505.584
240 0 49.064 11.3729 558 65.4032 113.848 505.511
241 0 51.053 12.9669 662 62.5227 113.539 504.347
242 0 50.0486 10.6097 531 66.6403 114.228 505.107
243 0 52.0692 10.9662 571 66.2697 114.648 502.942
244 0 53.0466 10.651 565 66.2814 113.791 501.356
245 0 57.0203 13.6267 777 62.1622 114.376 500.005
246 0 57.0724 11.2839 644 65.5637 114.474 500.393
247 0 58.0623 12.5383 728 64.1016 114.099 501.843
248 0 58.0229 11.9953 696 64.5603 114.029 502.914
249 0 64.1051 13.8835 890 61.7742 115.17 499.115
250 0 64.0286 12.3695 792 64.2513 114.201 498.904
251 0 67.0362 13.0974 878 63.1264 114.801 497.833
252 0 68.1 12.0852 823 64.4228 115.284 498.961
253 0 71.0961 12.1385 863 64.6246 114.721 498.652
254 0 73.1541 13.3964 980 62.8051 115.448 496.203
255 0 76.1363 12.123 923 64.5785 115.443 494.671
256 0 77.2078 12.5246 967 64.3185 115.194 494.385
257 0 79.0979 13.6034 1076 63.1822 115.557 493.554
258 0 82.1757 12.6193 1037 64.2642 115.377 493.347
259 1 42.0527 10.8911 458 64.5218 114.197 513.306
260 0 44.0855 11.3643 501 65.1238 115.553 511.982
261 0 44.0385 11.7624 518 65.5965 115.676 510.102
262 0 46.0695 11.5695 533 65.8274 114.968 510.313
263 0 48.0779 12.043 579 65.3817 115.25 508.843
264 0 49.1013 13.0546 641 64.8003 114.783 508.268
265 0 52.0414 11.8944 619 65.9903 114.729 508.284
266 0 52.0256 11.7442 611 67.0033 114.141 506.318
267 0 55.0638 12.1132 667 66.096 113.822 507.471
268 0 58.0462 13.0069 755 64.9682 114.698 504.981
269 0 57.0735 10.7405 613 68.9299 114.997 505.225
270 0 61.1218 12.6305 772 65.6036 113.705 506.069
271 0 63.0219 13.3922 844 65.2536 114.222 502.977
272 0 64.0316 12.4938 800 67.1312 114.315 501.779
273 0 67.079 13.5661 910 65.2341 113.605 501.766
274 0 68.0472 12.5501 854 66.8876 113.146 502.055
275 0 70.079 13.1138 919 65.9042 113.554 501.063
276 0 71.0799 11.9302 848 67.9717 114.167 498.571
277 0 75.089 13.7703 1034 65.2631 113.546 497.798
278 0 77.2392 13.5941 1050 65.7057 113.156 496.97
279 0 80.113 13.4185 1075 65.8316 113.394 494.504
280 0 84.1069 13.792 1160 65.0224 112.757 494.688
281 0 85.1735 13.267 1130 66.2168 113.197 493.419
282 0 88.0817 14.1914 1250 65.3256 113.474 490.27
283 0 90.0619 12.4803 1124 67.6931 112.753 491.921
284 1 46.1009 11.6267 536 66.8563 112.769 513.537
285 0 48.0772 13.7903 663 64.5204 112.472 511.63
286 0 50.0323 13.4513 673 64.4799 112.966 511.496
287 0 50.0363 11.9513 598 66.5702 113.161 512.505
288 0 52.0496 11.4698 597 66.7437 112.816 511.916
289 0 54.0597 12.9116 698 65.7364 113.093 507.202
290 0 56.0384 13.0268 730 65.0151 112.744 509.071
291 0 56.0525 13.4695 755 65.143 112.981 507.872
292 0 56.0638 12.9139 724 66.471 112.713 505.633
293 0 59.1527 11.0054 651 67.8495 113.232 507.919
294 0 59.0587 12.1743 719 66.3463 113.139 507.971
295 0 61.0733 11.1014 678 68.0059 112.699 504.724
296 0 64.1035 13.7278 880 64.3511 113.033 502.633
297 0 63.1235 12.4676 787 66.6861 112.269 500.048
298 0 67.1064 12.7112 853 65.8171 112.625 500.91
299 0 69.0952 11.8532 819 66.6178 112.215 500.706
300 0 70.1328 11.6636 818 66.9267 112.819 500.66
301 0 72.0728 12.7232 917 65.337 112.814 498.483
302 0 75.1547 12.6938 954 65.4686 111.088 496.444
303 0 78.0831 12.9734 1013 64.0533 111.756 499.345
304 0 79.0642 12.7997 1012 66.0642 111.722 494.21
305 0 82.1813 12.01 987 66.4053 111.631 494.142
306 1 44.0607 11.2572 496 65.9698 111.843 513.554
307 0 43.1033 10.3008 444 68.9032 111.885 510.732
308 0 46.0564 11.5945 534 66.9476 112.554 511.517
309 0 47.0564 11.3693 535 66.415 112.219 510.912
310 0 49.1349 12.944 636 66.1336 112.637 509.453
311 0 50.1206 12.1108 607 66.8699 112.906 509.12
312 0 51.032 10.9147 557 68.8761 111.908 507.005
313 0 54.0947 12.7924 692 65.7269 112.107 507.474
314 0 55.0485 11.9894 660 67.0818 111.845 505.633
315 0 55.0677 11.4949 633 68.9558 111.882 503.807
316 0 57.0646 11.0226 629 68.8076 111.89 505.817
317 0 60.1158 10.5297 633 68.3681 112.291 505.981
318 0 64.0768 13.0781 838 65.4081 111.809 501.97
319 0 64.2761 12.773 821 65.9428 111.977 501.441
320 0 67.1075 12.8153 860 65.1605 111.649 501.753
321 0 68.0422 11.9632 814 66.7752 111.3 501.622
322 0 70.1359 12.5185 878 65.4146 112.642 501.721
323 0 72.0841 12.2218 881 66.3314 112.205 497.092
324 0 74.1744 11.2842 837 68.2832 111.419 497.072
325 0 76.1243 12.611 960 66.3906 112.104 495.291
326 0 79.1648 13.3645 1058 65.6352 112.411 493.166
327 0 80.124 11.6195 931 68.5951 111.799 490.977
328 0 82.0808 10.5993 870 69.892 112.194 490.417
329 0 83.1016 11.1791 929 70.1496 112.094 488.402
330 0 87.1278 12.5907 1097 67.8131 112.113 490.442
331 1 47.1619 11.5559 545 67.1101 113 508.787
332 0 47.078 10.2596 483 68.735 112.306 510.807
333 0 50.0656 12.6235 632 65.5222 112.53 510.429
334 0 50.1459 11.0079 552 68.25 112.746 509.645
335 0 53.0398 12.4058 658 67.0517 111.909 507.465
336 0 53.0338 12.7277 675 66.7719 112.427 506.354
337 0 54.0918 11.7948 638 67.8245 112.281 506
338 0 57.0939 11.5249 658 68.0699 112.178 506.003
339 0 57.0671 13.0198 743 66.4791 113.25 504.743
340 0 58.0445 11.474 666 67.3949 113.038 505.637
341 0 61.0475 12.9408 790 66.1342 113.001 502.351
342 0 62.0248 11.8985 738 67.9688 112.324 500.867
343 0 63.0322 12.3746 780 67.709 112.696 499.579
344 0 66.1348 12.0663 798 67.3972 112.573 500.857
345 0 69.0605 11.9026 822 67.6411 112.286 497.341
346 0 69.0635 10.932 755 69.9669 112.374 496.652
347 0 72.0385 13.0902 943 67.0255 113.468 495.139
348 0 74.0713 12.056 893 68.5431 112.987 495.947
349 0 77.0677 12.262 945 68.2381 112.178 495.571
350 0 81.1476 12.4341 1009 67.3925 113.273 493.588
351 0 82.0761 12.0863 992 68.869 113.478 491.552
352 0 84.1688 11.9997 1010 68.3515 113.333 490.607
353 1 43.0486 11.4057 491 69.1141 113.122 510.159
354 0 45.014 11.5964 522 68.5134 112.728 509.856
355 0 49.0927 11.3662 558 67.3656 113.176 509.676
356 0 49.0862 11.7548 577 67.7158 112.636 506.386
357 0 51.1035 13.3455 682 65.805 112.931 506.688
358 0 52.0585 11.7176 610 68.4639 113.423 504.789
359 0 54.0445 11.9346 645 67.3039 113.377 506.405
360 0 55.0346 13.5733 747 65.7952 112.83 504.722
361 0 54.1115 12.2155 661 68.2632 113.101 503.104
362 0 57.0355 12.1854 695 67.7942 112.719 503.535
363 0 60.0604 13.0036 781 66.4725 113.586 501.903
364 0 62.0986 12.7378 791 67.2288 113.781 500.216
365 0 62.0315 13.3319 827 65.9976 112.947 501.481
366 0 66.1292 12.2639 811 67.2503 113.649 499.34
367 0 66.0663 12.4723 824 67.9818 113.803 497.016
368 0 70.0554 14.4885 1015 64.4581 113.877 496.168
369 0 71.1401 12.6933 903 66.6102 113.682 496.69
370 0 74.0814 13.7281 1017 64.8476 113.151 496.709
371 0 76.0472 13.2549 1008 65.6994 113.048 494.724
372 0 76.0517 10.8742 827 69.3966 112.942 494.976
373 1 41.1284 12.0598 496 65.375 112.688 512.278
374 0 44.0321 10.2879 453 67.2428 114.029 511.148
375 0 45.0966 11.0208 497 66.4085 114.7 511.02
376 0 46.0562 12.6367 582 64.5361 114.502 509.378
377 0 51.1365 13.8062 706 61.4943 114.167 508.779
378 0 51.019 12.6619 646 64.5031 113.461 506.55
379 0 51.0671 12.7283 650 64.7062 113.314 506.389
380 0 50.1538 10.1089 507 67.8915 113.296 504.132
381 0 53.1371 10.7458 571 66.8897 112.909 504.312
382 0 55.0789 11.4381 630 65.4254 112.36 504.544
383 0 57.0542 11.7783 672 64.7738 113.074 503.454
384 0 59.1196 10.0643 595 66.0353 113.719 504.884
385 0 57.0821 11.0367 630 66.5841 113.524 502.776
386 0 62.2817 12.3311 768 64.1953 113.626 500.421
387 0 66.1664 12.3325 816 63.1066 113.328 501.577
388 0 64.0602 10.0062 641 67.1903 112.913 499.226
389 0 69.1759 11.9984 830 64.6157 113.188 498.081
390 0 69.1233 12.3113 851 64.5488 113.644 496.982
391 0 72.2635 12.2468 885 64.052 113.426 497.844
392 0 73.1863 10.3298 756 66.832 113.824 496.825
393 0 76.1606 12.0141 915 65.671 112.601 493.295
394 0 81.2868 11.8592 964 64.8122 112.822 495.561
395 0 80.1354 12.429 996 65.8946 112.48 490.894
396 0 85.2289 13.3523 1138 64.022 112.717 491.965
397 1 45.0411 12.1889 549 64.8142 113.388 510.763
398 0 46.1899 11.4311 528 65.947 113.197 509.822
399 0 47.0739 11.7475 553 66.6998 113.544 510.432
400 0 50.0929 12.2772 615 66.7138 113.28 508.367
401 0 54.1503 12.7054 688 64.3328 113.278 510.097
402 0 50.0604 11.1665 559 69.6673 113.973 506.631
403 0 54.0861 13.423 726 66.3264 113.603 507.762
404 0 55.1439 13.2562 731 67.3899 113.624 505.16
405 0 55.0463 12.7166 700 66.78 114.567 508.773
406 0 57.0558 11.5326 658 70.0122 113.679 506.147
407 0 61.1131 14.3668 878 66.8554 113.331 503.204
408 0 61.1729 12.0315 736 70.2582 113.701 502.696
409 0 63.1702 12.0627 762 69.6102 113.429 503.286
410 0 66.1387 12.2016 807 70.0855 112.209 499.281
411 0 70.106 14.4068 1010 67.4554 112.862 499.564
412 0 71.052 12.2305 869 70.0265 113.051 500.258
413 0 76.1243 13.872 1056 67.7064 112.732 498.105
414 0 77.1085 13.4745 1039 69.1203 113.719 496.038
415 0 80.1254 13.6786 1096 68.4078 113.026 496.017
416 0 81.1018 12.8974 1046 70.3069 113.279 494.49
417 0 85.1079 13.148 1119 70.0232 113.311 492.936
418 0 88.0678 12.6039 1110 70.7324 113.122 491.794
419 1 44.012 11.5196 507 71.0138 113.42 510.185
420 0 48.1978 11.764 567 69.649 114.159 510.605
421 0 49.0313 12.5838 617 69.6337 113.682 509.117
422 0 49.0584 13.6572 670 69.0657 113.594 507.122
423 0 52.0095 12.3631 643 71.4852 112.984 506.131
424 0 54.0448 11.9715 647 71.7326 113.179 506.046
425 0 56.0565 12.2555 687 71.9301 113.386 504.362
426 0 57.0563 13.4078 765 70.2248 113.261 504.209
427 0 59.0293 12.6547 747 71.4632 113.347 505.033
428 0 59.0995 12.572 743 72.6756 112.892 503.583
429 0 63.0964 13.9786 882 69.7812 112.105 503.395
430 0 65.0688 13.8315 900 70.55 113.491 500.416
431 0 67.0512 12.7664 856 72.1565 113.764 501.459
432 0 68.0605 11.9159 811 74.7891 113.879 497.832
433 0 67.0942 11.1783 750 76.516 113.561 495.744
434 0 65.0534 8.68517 565 80.6796 112.959 491.304
435 0 71.1076 9.07076 645 79.5891 113.326 488.949
436 0 73.1092 10.2313 748 78.6791 113.948 491.384
437 0 78.0472 9.95552 777 78.8533 113.7 488.685
438 0 78.0647 11.1062 867 78.8489 113.203 486.511
439 1 38.0648 8.64316 329 81.0426 113.486 508.216
440 0 40.0279 9.64326 386 79.3109 112.332 507.751
441 0 44.0764 10.6406 469 77.8934 113.373 509.068
442 0 44.0359 10.2644 452 78.9801 113.263 508.659
443 0 48.0433 11.781 566 75.6184 113.935 508.224
444 0 47.0834 10.492 494 78.1478 113.664 506.579
445 0 49.0468 11.907 584 76.363 112.973 506.077
446 0 50.0793 10.703 536 76.7201 113.276 505.703
447 0 55.0643 11.2232 618 75.5663 113.639 504.796
448 0 58.0913 12.3426 717 73.9191 112.98 503.276
449 0 59.05 12.718 751 73.1398 112.688 501.79
450 0 58.0425 11.6466 676 75.0518 113.179 499.953
451 0 60.0801 11.002 661 76.1725 112.862 497.405
452 0 60.052 10.9239 656 77.0823 112.773 498.646
453 0 63.029 10.6776 673 77.0015 113.519 495.823
454 0 61.0796 8.23516 503 79.4433 112.684 488.437
455 1 72.0936 13.6767 986 70.5507 113.268 497.502
456 0 74.1874 12.1045 898 73.3229 113.758 496.924
457 0 78.192 12.8018 1001 71.3956 112.931 495.816
458 0 82.0693 14.1588 1162 69.0155 113.231 495.417
459 0 83.1303 12.715 1057 70.6935 113.4 493.527
460 0 87.0868 12.4818 1087 71.3891 111.828 489.294
461 0 90.1274 12.5156 1128 71.0576 111.987 491.218
462 1 46.2185 10.6451 492 71.3618 113.65 511.604
463 0 43.0332 12.0604 519 71.185 112.642 512.214
464 0 46.0302 11.8183 544 70.989 112.278 511
465 0 48.1637 11.1495 537 72.1955 112.687 507.462
466 0 47.0518 10.6478 501 73.3792 113.128 507.118
467 0 47.1234 11.2258 529 73.3195 113.257 505.195
468 0 51.1418 10.3633 530 72.8585 113.404 505.957
469 0 51.1993 9.33607 478 74.977 112.316 505.358
470 0 55.1613 12.0556 665 70.5308 112.842 504.343
471 0 56.0867 11.6962 656 71.9329 113.451 503.933
472 0 59.1212 12.5167 740 70.4703 112.614 501.128
473 0 59.1206 10.9437 647 73.3199 112.986 503.583
474 0 61.0914 11.671 713 72.1585 113.353 502.599
475 0 66.1628 11.7286 776 72.2577 112.887 498.29
476 0 66.1459 11.8828 786 72.3893 112.503 499.48
477 0 70.1456 12.1034 849 72.2615 112.278 499.565
478 0 74.122 12.1961 904 71.3927 112.159 500.123
479 0 75.2171 12.444 936 71.1891 112.28 498.906
480 0 75.1943 11.7562 884 73.3484 111.682 495.033
481 0 77.0999 11.5564 891 74.2043 111.707 493.506
482 0 80.1373 12.0169 963 73.2056 111.35 495.061
483 1 44.2153 12.2356 541 71.7708 113.122 510.963
484 0 44.0574 11.19 493 73.3976 113.276 510.546
485 0 47.1611 10.8776 513 73.3899 112.988 511.197
486 0 46.0762 11.5678 533 72.8799 113.735 510.923
487 0 48.1409 10.9678 528 74.3958 113.727 509.65
488 0 51.1718 11.3148 579 72.3696 113.456 511.164
489 0 54.2093 11.9537 648 71.5864 113.137 508.494
490 0 54.1405 11.1931 606 73.1419 112.757 507.441
491 0 56.123 12.3657 694 71.3862 112.81 506.118
492 0 58.0579 12.7115 738 71.1992 113.724 504.099
493 0 60.2208 12.6534 762 71.2585 112.014 505.059
494 0 61.0517 11.3347 692 72.6358 112.624 505.168
495 0 63.0608 11.1638 704 73.8011 112.68 503.277
496 0 64.1277 12.5999 808 71.6931 111.441 502.246
497 0 66.1278 12.37 818 72.5196 111.441 501.379
498 0 69.1585 11.9147 824 72.6274 112.075 500.629
499 0 70.1492 10.7343 753 74.5458 112.259 499.866
500 0 74.0994 11.5655 857 73.0047 112.383 498.981
501 0 78.1517 12.8724 1006 70.5755 111.792 498.09
502 0 79.1254 11.9683 947 72.9293 112.897 494.57
503 0 81.104 12.6381 1025 71.5629 112.155 495.731
504 1 42.0752 9.95836 419 73.315 112.558 512.179
505 0 45.0388 10.3022 464 72.8772 113.341 511.843
506 0 46.0962 11.8014 544 70.6121 113.311 511.583
507 0 46.06 10.5732 487 73.5914 112.875 507.959
508 0 48.0828 10.9811 528 71.8011 112.623 509.665
509 0 52.0643 12.7534 664 68.7967 112.024 509.884
510 0 51.1498 11.1437 570 71.8526 112.719 508.088
511 0 51.0772 11.6295 594 71.4209 112.071 506.891
512 0 55.0766 12.8911 710 68.862 111.879 506.73
513 0 56.1073 11.9592 671 70.2772 112.152 506.437
514 0 56.0612 11.7729 660 71.2258 112.739 503.883
515 0 59.0532 12.6327 746 68.5804 112.501 503.893
516 0 60.0702 11.8362 711 69.9831 112.679 502.474
517 0 64.2376 12.4226 798 68.0013 112.262 503.469
518 0 65.2514 13.9154 908 66.6211 112.326 500.174
519 0 66.2414 12.8017 848 67.8738 112.65 501.504
520 0 69.0611 11.3378 783 69.5492 111.803 500.678
521 0 73.1454 13.562 992 65.6401 111.833 499.144
522 0 74.1926 12.6158 936 68.3248 112.39 496.419
523 0 76.153 13.0264 992 67.7198 112.177 495.182
524 0 79.1055 11.1876 885 69.9266 112.772 494.473
525 0 81.0904 13.0718 1060 67.6425 112.308 490.179
526 1 42.0252 11.7549 494 66.8178 112.933 512.709
527 0 45.0545 12.1186 546 66.6685 113.128 511.549
528 0 47.0173 12.0169 565 67.5487 112.474 509.92
529 0 46.0378 11.8381 545 69.0752 113.018 509.917
530 0 48.0261 10.4318 501 71.2814 112.703 509.894
531 0 51.0744 12.4916 638 68.29 112.9 507.494
532 0 52.1164 11.954 623 69.1637 112.048 508.119
533 0 53.0612 12.7589 677 67.873 111.781 506.984
534 0 55.0683 12.203 672 68.4851 112.341 505.948
535 0 53.2118 11.9522 636 70.4198 111.734 503.928
536 0 57.0952 12.2427 699 69.3433 112.571 502.429
537 0 58.0698 12.9499 752 68.0678 112.524 503.565
538 0 60.0872 13.0477 784 68.0753 111.672 500.36
539 0 62.0934 10.5003 652 71.0491 111.494 501.1
540 0 66.1079 13.9318 921 66.025 111.928 500.32
541 0 66.1752 12.2554 811 69.2602 112.159 498.506
542 0 69.0851 13.5485 936 66.8825 111.834 494.552
543 0 72.0893 13.1642 949 67.0369 112.292 498.35
544 0 74.1502 11.4093 846 69.4586 112.43 497.473
545 0 76.1219 10.5751 805 70.3814 112.226 496.354
546 0 80.182 12.1598 975 68.1415 111.635 494.232
547 1 42.03 12.5387 527 66.7571 112.51 512.628
548 0 42.0283 10.3264 434 69.765 112.438 510.355
549 0 45.028 11.1264 501 67.8483 111.413 511.118
550 0 44.0406 10.8536 478 69.2385 111.921 510.684
551 0 46.0483 11.7051 539 68.7365 111.913 508.529
552 0 47.0477 12.0941 569 68.638 111.199 508.583
553 0 50.0421 12.2097 611 67.6367 112.427 506.985
554 0 51.0683 12.4343 635 68.137 112.86 505.047
555 0 53.0353 13.5004 716 66.3813 113.148 503.877
556 0 54.0754 12.3716 669 67.4096 112.779 505.351
557 0 57.1225 12.5695 718 67.1476 111.776 503.694
558 0 57.1041 11.7855 673 68.3938 112.15 505.343
559 0 59.0715 13.1705 778 67.135 112.147 501.697
560 0 61.1175 13.2859 812 66.5911 111.973 500.319
561 0 63.0633 12.4954 788 66.6168 113.168 503.737
562 0 63.0733 13.2386 835 67.0096 112.489 499.705
563 0 64.0899 12.0456 772 69.2655 112.085 497.997
564 0 69.1419 14.3328 991 65.6024 112.173 499.694
565 0 71.1164 13.499 960 66.8635 112.335 495.116
566 0 71.1821 11.4355 814 69.4545 111.796 494.227
567 0 71.2745 11.2803 804 70.5 112.305 492.914
568 0 76.0995 12.5231 953 68.4795 112.025 492.324
569 0 78.0655 11.9387 932 68.7361 112.071 494.854
570 1 42.0589 10.6042 446 68.7175 112.87 512.067
571 0 45.0747 10.5159 474 68.2046 111.998 512.544
572 0 45.0497 12.1422 547 67.5082 112.812 508.517
573 0 49.1452 12.3308 606 66.3564 112.566 508.149
574 0 50.1376 12.3859 621 66.1755 112.446 508.75
575 0 51.045 12.6359 645 66.6016 112.749 508.947
576 0 53.0757 12.4539 661 66.6762 112.912 506.906
577 0 52.1337 13.216 689 66.2003 113.004 505.848
578 0 54.0337 12.7513 689 66.9202 113.373 504.09
579 0 57.1003 12.1891 696 66.6537 113.58 506.08
580 0 59.0423 13.4141 792 65.0543 114.819 503.885
581 0 58.0696 11.8478 688 67.9506 114.192 502.891
582 0 61.1056 13.5831 830 64.7723 115.405 501.302
583 0 63.0652 12.7646 805 64.9752 115.388 501.801
584 0 65.0766 13.5225 880 63.7659 114.26 501.873
585 0 66.049 13.5354 894 64.7629 113.761 495.546
586 0 68.0732 13.9115 947 64.1489 114.431 497.029
587 0 70.0613 12.3891 868 66.4562 114.033 495.427
588 0 73.1149 12.241 895 66.3095 114.088 495.654
589 0 75.1723 13.9945 1052 64.0048 112.966 492.817
590 1 37.0213 9.96723 369 67.4905 112.946 512.23
591 0 37.0147 9.23957 342 68.7836 113.696 511.708
592 0 40.0203 10.3697 415 66.5928 113.19 511.096
593 0 42.028 11.5399 485 66.4454 113.955 509.981
594 0 42.1062 12.3497 520 65.6635 113.269 509.829
595 0 43.107 11.3207 488 66.8586 112.65 510.055
596 0 44.0615 11.257 496 67.3669 113.298 508.401
597 0 46.0246 12.6671 583 64.6312 113.235 509.796
598 0 46.0702 11.3739 524 67.3015 113 508.267
599 0 48.0311 11.8673 570 66.0772 112.439 507.342
600 0 51.0568 12.3588 631 66.1775 111.93 505.845
601 0 51.0704 12.473 637 65.7943 112.656 504.349
602 0 54.0563 12.7275 688 65.1308 112.541 504.4
603 0 54.0621 12.8926 697 64.9297 112.799 501.567
604 0 57.0597 12.5833 718 64.1476 112.681 504.139
605 0 57.1809 13.1338 751 64.2636 112.726 503.635
606 0 59.1235 11.9073 704 65.0739 113.108 500.152
607 0 61.3056 10.5374 646 66.6331 112.605 501.204
608 0 63.0482 14.592 920 61.9793 113.037 497.715
609 0 65.0377 12.9002 839 63.8129 113.126 497.209
610 0 66.0617 12.4732 824 64.7087 112.931 495.357
611 0 71.0558 14.1016 1002 62.1098 113.063 495.454
612 0 73.114 12.6104 922 63.5141 112.914 496.711
613 0 74.055 12.4502 922 63.8688 113.71 496.271
614 0 74.1154 10.9154 809 66.7009 113.31 492.723
615 1 39.0712 10.4425 408 66.2819 114.005 509.549
616 0 42.0428 11.8689 499 63.7174 113.768 507.359
617 0 41.0612 11.3002 464 65.2909 113.821 509.843
618 0 44.12 12.6927 560 63.0196 113.4 508.112
619 0 45.1129 13.566 612 62.1863 113.018 505.946
620 0 45.0678 10.4287 470 65.9 112.896 506.121
621 0 50.0211 12.8946 645 61.738 113.059 505.465
622 0 49.0902 12.3446 606 62.9851 113.848 505.218
623 0 50.1595 11.3039 567 64.2504 112.492 502.832
624 0 52.0183 10.6886 556 64.6169 112.487 504.083
625 0 54.0441 11.8237 639 63.108 112.872 502.285
626 0 57.1043 11.2951 645 63.1349 112.891 499.808
627 0 58.0672 11.59 673 63.214 112.868 499.257
628 0 58.0166 11.6346 675 62.1126 112.52 502.246
629 0 61.1242 12.5646 768 60.7279 113.518 499.848
630 0 63.0618 12.7177 802 60.7269 113.246 497.017
631 0 64.0472 13.0997 839 60.1728 112.771 496.529
632 0 68.1464 12.0623 822 60.9331 112.7 494.814
633 0 69.1699 12.6789 877 60.6271 113.688 493.742
634 0 70.1456 10.4925 736 63.1291 113.666 493.996
635 1 36.0646 10.398 375 61.336 113.704 512.616
636 0 38.0418 10.5936 403 61.737 114.203 508.583
637 0 39.1014 12.0967 473 60.4841 113.939 507.795
638 0 43.0982 13.0168 561 58.5954 113.44 507.923
639 0 44.0071 11.5436 508 60.2362 114.085 506.762
640 0 47.0127 13.1241 617 58.4117 113.78 507.778
641 0 45.104 12.2606 553 60.3128 114.407 506.255
642 0 48.0793 13.6025 654 59.1621 113.558 503.956
643 0 49.0485 12.0493 591 60.4247 113.702 507.169
644 0 47.0906 10.2568 483 63.7184 112.725 504.71
645 0 51.101 11.6436 595 62.4387 112.471 505.459
646 0 52.1003 9.94236 518 63.0637 113.573 506.5
647 0 54.0688 12.0772 653 61.9617 113.812 502.513
648 0 54.0573 11.5988 627 63.3732 113.148 502.952
649 0 57.0774 12.0363 687 62.3348 113.498 500.917
650 0 58.1387 11.4726 667 63.4228 113.525 500.412
651 0 60.1241 11.0605 665 63.8361 114.55 500.221
652 0 62.0975 11.0149 684 64.6433 113.285 497.465
653 0 63.0506 9.99198 630 65.8635 114.246 498.381
654 0 67.1539 14.0871 946 61.3795 113.751 497.603
655 0 69.0683 12.0461 832 63.4748 114.025 497.319
656 0 71.0983 11.5896 824 64.6723 113.268 493.691
657 0 72.06 11.4904 828 65.3345 114.231 493.565
658 0 77.2017 11.6319 898 64.2851 113.284 496.972
659 0 78.0632 11.875 927 65.4455 113.113 493.565
660 0 80.1093 11.8713 951 66.0105 113.113 492.784
661 1 42.0537 11.6042 488 65.0471 113.764 509.701
662 0 43.0607 11.2399 484 66.3698 113.988 509.13
663 0 46.0227 12.2983 566 64.4205 113.634 508.583
664 0 46.0752 11.5897 534 66.2116 114.019 508.515
665 0 48.0621 13.6906 658 63.7796 113.43 505.784
666 0 49.0927 12.3033 604 65.9619 112.659 505.591
667 0 47.0454 11.6058 546 67.663 113.692 507.179
668 0 53.0354 11.2566 597 67.1692 113.58 506.442
669 0 53.0507 10.8198 574 67.6359 113.301 506.476
670 0 56.1356 13.1111 736 64.9361 113.136 504.635
671 0 58.0993 12.0655 701 65.8146 113.31 502.999
672 0 56.1423 10.9009 612 68.8611 113.768 503.243
673 0 61.0276 13.0597 797 65.1932 113.233 499.885
674 0 64.1312 12.5056 802 65.2606 114.35 500.319
675 0 64.093 12.4194 796 66.3844 113.22 497.734
676 0 67.1097 13.2619 890 65.4135 113.547 498.51
677 0 70.0851 12.4848 875 66.3109 113.536 496.864
678 0 71.0968 12.7573 907 66.4774 113.848 494.816
679 0 73.0693 11.8107 863 67.175 114.042 494.665
680 0 77.0957 11.7776 908 67.1289 112.841 493.391
681 0 78.1502 13.538 1058 65.8176 113.93 493.197
682 0 80.0801 12.1379 972 67.5998 113.6 490.282
683 0 82.1068 12.228 1004 67.9392 114.073 486.898
684 0 84.1452 12.9657 1091 67.1879 113.982 486.993
685 1 45.1853 10.3352 467 67.7623 113.976 511.527
686 0 46.0393 11.4902 529 66.4745 113.338 509.881
687 0 48.0599 11.881 571 67.3152 114.107 505.333
688 0 50.0624 11.7453 588 67.0085 114.022 506.099
689 0 50.0867 12.4784 625 66.5616 114.022 505.813
690 0 53.1652 12.5082 665 66.0015 114.666 505.302
691 0 54.046 11.7863 637 67.3548 114.49 505.956
692 0 57.1664 13.5219 773 64.9651 114.358 504.96
693 0 60.0615 12.2375 735 66.0122 113.491 504.65
694 0 59.0342 13.1957 779 65.1271 112.914 503.633
695 0 61.1279 12.9564 792 64.7323 113.141 504.072
696 0 65.0869 13.3053 866 64.4885 112.68 502
697 0 66.1552 13.1509 870 64.7713 112.52 501.67
698 0 69.1221 14.0187 969 63.8008 114.056 498.894
699 0 71.0369 11.9234 847 66.6116 112.648 497.85
700 0 72.172 13.5233 976 64.3268 113.199 495.18
701 0 74.1563 12.177 903 65.5471 113.312 497.198
702 0 78.1617 12.6149 986 65.3235 113.114 492.175
703 0 83.0795 13.4329 1116 63.5224 112.722 493.772
704 0 82.1083 11.8137 970 66.4526 112.128 490.891
705 0 87.1118 13.0637 1138 63.9886 112.781 489.272
706 0 87.1602 12.2189 1065 65.5465 113.603 488.905
707 0 92.124 13.395 1234 63.7885 112.955 488.044
708 0 93.0792 12.7956 1191 65.3619 112.322 484.443
709 0 97.1653 11.2489 1093 65.7749 112.775 485.505
710 0 99.1488 11.397 1130 66.077 112.92 484.306
711 1 52.0779 12.2893 640 63.8203 112.947 505.767
712 0 53.1066 12.9174 686 63.5233 113.329 504.28
713 0 57.165 12.3677 707 64.1146 112.894 505.823
714 0 56.1181 11.6362 653 65.9969 112.914 504.729
715 0 60.2189 13.2517 798 63.703 112.763 502.273
716 0 61.1047 12.8468 785 64.2357 112.615 503.851
717 0 63.0793 12.7776 806 64.5682 113.292 499.052
718 0 65.1332 13.0041 847 64.098 113.521 498.832
719 0 68.1524 12.3693 843 64.981 113.272 497.976
720 0 70.1826 13.8496 972 63.1986 112.882 496.973
721 0 74.1068 12.2796 910 65.1187 112.912 494.975
722 0 77.08 12.9995 1002 63.484 112.879 495.404
723 0 79.0667 12.2175 966 65.3778 111.696 492.121
724 0 80.2159 12.1298 973 64.7431 112.081 494.964
725 0 83.0803 12.5662 1044 64.5699 113.185 492.839
726 0 85.1111 12.5718 1070 65.2196 112.773 491.032
727 1 47.0583 12.2401 576 63.5694 113.734 510.58
728 0 50.2186 12.2066 613 63.9755 113.325 508.954
729 0 51.1152 11.4056 583 65.7822 112.859 507.372
730 0 51.0844 12.2542 626 64.9792 112.99 507.104
731 0 51.0582 11.673 596 66.1611 112.062 507.252
732 0 54.0908 12.2202 661 65.0363 112.902 505.372
733 0 58.0571 12.3327 716 64.5405 112.884 503.918
734 0 60.1015 12.8283 771 63.0752 112.167 505.135
735 0 60.1183 12.9911 781 63.5519 113.306 504.077
736 0 63.0681 11.6858 737 64.2809 113.864 504.256
737 0 63.1149 11.9465 754 64.7175 113.716 498.955
738 0 67.154 12.4788 838 63.4165 113.267 500.741
739 0 70.1426 11.5764 812 64.3744 113.786 499.857
740 0 70.1716 13.3245 935 63.3369 112.973 497.788
741 0 73.19 12.2284 895 63.9061 113.096 498.769
742 0 76.1874 12.4299 947 64.0158 112.776 496.131
743 0 79.1953 14.0539 1113 61.9012 112.875 494.453
744 0 79.1921 13.4483 1065 63.5953 112.441 490.31
745 0 81.1966 12.3527 1003 64.8305 112.748 488.845
746 0 84.1608 12.0603 1015 64.8197 111.885 490.99
747 0 88.1071 12.8594 1133 63.4793 111.325 489.608
748 0 91.0947 12.251 1116 64.6407 112.122 485.776
749 0 94.1962 12.8561 1211 63.3064 112.391 486.712
750 1 47.0368 11.0126 518 65.2876 112.792 507.869
751 0 49.0377 11.6237 570 64.9579 112.193 507.475
752 0 50.0775 12.7802 640 63.2812 112.267 507.767
753 0 52.1506 11.4284 596 65.4262 112.75 506.096
754 0 54.0545 12.5799 680 63.7912 112.754 504.454
755 0 54.0988 13.4754 729 62.989 113.425 503.362
756 0 55.133 12.6603 698 63.4771 112.979 505.117
757 0 57.0236 13.17 751 62.7643 112.233 504.273
758 0 58.1735 12.1877 709 64.0367 112.983 500.708
759 0 58.1303 12.2484 712 64.5534 112.987 501.129
760 0 64.0377 13.2734 850 61.6494 112.692 501.132
761 0 68.0744 13.7937 939 60.5772 113.232 500.865
762 0 69.0921 14.0827 973 60.3104 112.665 500.124
763 0 71.1385 14.8302 1055 59.327 112.224 498.614
764 0 71.1317 13.9741 994 60.9618 112.379 496.073
765 0 72.0536 12.116 873 63.4639 111.838 495.455
766 0 75.1492 14.1452 1063 60.9407 112.933 492.291
767 0 80.1049 13.8194 1107 60.6685 112.542 493.16
768 0 80.1421 12.5028 1002 62.7076 112.268 490.458
769 0 83.1058 13.2843 1104 61.2527 112.861 491.48
770 0 89.2633 11.9422 1066 62.3283 112.149 489.729
771 0 90.1435 12.4024 1118 62.5877 111.881 486.278
772 0 93.2484 13.9734 1303 60.7322 112.784 486.487
773 0 97.2546 12.2873 1195 62.3556 112.794 485.276
774 0 99.11 13.8634 1374 61.2576 111.448 482.328
775 0 104.257 13.1982 1376 61.3808 111.891 484.525
776 0 106.19 13.7489 1460 60.9692 112.415 482.821
777 0 109.248 17.3 1890 48.3947 110.787 485.211
778 1 55.1373 14.2735 787 59.8983 111.856 506.003
779 0 58.052 14.0219 814 59.8894 112.299 504.915
780 0 60.1089 14.4238 867 59.8766 112.078 503.023
781 0 61.1106 13.2056 807 61.2714 112.617 503.741
782 0 63.0508 12.5296 790 62.5127 112.91 502.165
783 0 66.1601 12.5907 833 61.8331 113.521 501.525
784 0 65.0542 12.0054 781 63.0115 112.777 501.74
785 0 70.0296 12.2948 861 61.6969 113.576 502.024
786 0 73.2213 13.6436 999 60.3644 112.564 496.666
787 0 76.126 11.5466 879 65.4073 112.063 419.734
788 0 76.0578 14.1603 1077 60.2043 112.156 495.629
789 0 80.1927 12.8067 1027 61.9533 112.36 494.466
790 0 83.166 14.0322 1167 60.8115 111.739 493.388
791 0 85.1512 12.836 1093 62.9387 112.131 490.506
792 0 87.1932 12.6042 1099 63.374 112.535 490.941
793 0 91.1519 13.7902 1257 61.6921 112.597 488.346
794 1 50.1891 12.0146 603 60.8275 114.005 510.151
795 0 49.1302 13.9629 686 60.8542 113.637 506.413
796 0 49.1217 12.8864 633 62.7883 113.167 507.972
797 0 52.2405 13.7633 719 61.338 112.757 506.885
798 0 53.1481 12.9073 686 62.4286 112.848 505.727
799 0 56.1587 12.714 714 61.7689 112.731 506.891
800 0 56.1191 12.9546 727 62.26 112.598 504.069
801 0 58.243 12.3105 717 62.5676 113.575 502.494
802 0 59.0846 12.3721 731 62.7633 112.873 503.635
803 0 63.06 17.2693 1089 48.5335 113.367 503.116
804 0 64.1274 13.1457 843 60.8577 113.082 501.923
805 0 65.1665 13.1816 859 60.6845 113.276 500.137
806 0 68.1597 13.9232 949 59.7777 112.575 497.92
807 0 66.1063 10.8159 715 63.4951 112.618 496.751
808 0 72.1491 13.0702 943 60.2163 112.335 497.94
809 0 74.2444 13.5633 1007 59.7329 113.163 495.587
810 0 77.1183 12.9671 1000 59.938 112.761 495.354
811 0 79.1188 11.9946 949 61.1992 112.824 492.12
812 0 82.0419 11.3235 929 62.0883 113.197 491.118
813 0 84.0651 12.3714 1040 60.5923 112.571 492.097
814 1 43.0815 10.1668 438 62.1164 112.861 509.801
815 0 44.0626 10.712 472 60.8835 112.845 510.199
816 0 48.0125 11.3512 545 60.2257 112.514 509.139
817 0 48.1786 9.67234 466 63.5987 111.951 507.041
818 0 50.1192 11.2133 562 62.1423 112.619 506.808
819 0 52.0517 11.5654 602 61.2874 112.636 503.824
820 0 55.1271 13.8045 761 57.8647 112.351 504.394
821 0 55.0351 11.0838 610 61.4361 113.075 501.4
822 0 55.0447 11.0092 606 61.0974 112.913 503.224
823 0 57.0664 11.18 638 61.0016 112.447 501.045
824 0 59.0592 11.2768 666 60.5541 112.344 501.263
825 0 64.1782 11.7485 754 59.3607 112.497 500.34
826 0 64.1124 11.667 748 59.6979 113.58 499.679
827 0 67.0903 11.9988 805 59.5801 113 496.616
828 0 71.0916 13.2224 940 57.9766 112.71 497.872
829 0 72.2167 12.2825 887 59.1342 112.442 496.229
830 0 74.0427 10.575 783 60.4981 112.586 495.885
831 0 77.0603 11.8868 916 59.4629 112.586 494.463
832 0 78.2115 12.3511 966 59.1273 112.994 490.617
833 0 81.1213 11.0452 896 60.5536 112.492 492.446
834 0 84.0753 11.5016 967 60.5946 112.789 489.508
835 0 87.1246 11.7648 1025 60.2761 112.793 487.745
836 1 47.0546 12.2836 578 60.1522 112.341 508.379
837 0 49.0414 12.5812 617 59.5105 111.912 506.994
838 0 50.0866 14.1355 708 58.2613 112.778 506.904
839 0 53.1744 12.2427 651 60.447 111.808 505.788
840 0 55.0387 13.2089 727 58.8611 112.373 507.226
841 0 56.0607 12.6648 710 60.1775 112.376 502.999
842 0 59.062 14.1208 834 58.1859 112.729 505.153
843 0 60.0168 11.5134 691 61.055 112.543 502.902
844 0 59.171 11.9315 706 61.3045 112.581 504.698
845 0 62.0997 11.3205 703 61.3186 112.863 498.502
846 0 66.1218 12.9156 854 59.5433 112.432 500.07
847 0 68.108 12.8032 872 59.7351 112.5 499.834
848 0 70.0667 12.8164 898 60.1047 113.573 497.661
849 0 72.1421 13.21 953 59.9014 113.015 496.859
850 0 75.1227 10.1434 762 62.8005 111.881 493.938
851 0 77.0898 13.5945 1048 59.312 111.706 496.278
852 0 82.1153 13.4323 1103 58.8685 112.805 494.226
853 1 39.0313 12.4772 487 59.8542 113.287 511.986
854 0 42.022 12.9694 545 59.3431 112.703 511.039
855 0 44.1149 12.2181 539 59.8868 112.308 510.599
856 0 45.0443 12.4544 561 59.7237 112.276 510.057
857 0 50.1977 12.2117 613 58.8923 111.972 509.577
858 0 49.0689 11.8813 583 59.825 111.425 509.621
859 0 49.0745 12.4301 610 59.6574 112.374 509.341
860 0 51.1106 12.2675 627 60.2584 112.104 507.349
861 0 53.1202 12.3305 655 61.2748 112.54 508.47
862 0 54.2375 12.5559 681 60.8752 112.311 507.228
863 0 54.0531 11.8402 640 62.2734 112.644 507.736
864 0 56.0915 13.2997 746 60.9491 112.614 505.408
865 0 60.0627 12.9864 780 60.1269 112.609 504.581
866 0 62.0953 12.6902 788 59.3541 112.586 506.876
867 0 62.2164 12.0226 748 61.385 112.904 501.019
868 0 66.1461 12.3817 819 60.3907 113.165 501.589
869 0 67.1444 13.7167 921 59.4984 112.909 499.7
870 0 70.1192 12.8496 901 60.1565 112.075 498.797
871 0 74.3004 13.7415 1021 58.8286 112.397 497.925
872 0 74.1189 13.3164 987 59.6515 111.889 497.136
873 0 77.1206 12.9019 995 59.5357 111.498 498.179
874 0 81.1325 13.6567 1108 58.9278 112.338 494.052
875 0 83.0324 13.2599 1101 59.5059 111.449 493.197
876 0 86.1891 13.1107 1130 59.3929 112.021 492.232
877 0 87.1036 14.2474 1241 58.4198 111.741 490.812
878 0 91.0519 11.9382 1087 60.7792 111.473 489.248
879 1 46.0613 11.2459 518 60.388 111.958 508.836
880 0 50.1097 13.1312 658 58.383 111.602 508.579
881 0 52.177 13.2242 690 57.9565 111.406 508.1
882 0 52.1011 11.8615 618 59.7557 112.134 507.715
883 0 52.0584 11.1221 579 60.7997 112.644 506.206
884 0 55.0763 14.3256 789 57.308 112.155 504.771
885 0 56.0808 11.1625 626 60.2332 111.391 504.96
886 0 59.0738 12.0358 711 58.9536 112.63 505.136
887 0 60.0545 11.7227 704 60.0994 111.905 503.341
888 0 63.0647 10.8143 682 60.5117 112.182 501.054
889 0 67.0617 12.8687 863 58.0371 112.394 500.97
890 0 67.0625 12.3169 826 58.6804 112.31 501.138
891 0 69.1712 11.6089 803 59.7646 112.836 497.376
892 0 71.2467 12.3374 879 59.0273 112.98 495.642
893 0 74.1042 12.3745 917 58.9575 112.791 499.019
894 0 75.162 13.0784 983 59.0966 112.218 495.24
895 0 79.1352 11.474 908 59.9581 112.746 497.352
896 0 80.1763 10.6765 856 61.5631 112.993 494.089
897 1 40.0405 10.7891 432 61.1111 113.62 513.206
898 0 44.1115 12.8991 569 57.8383 113.617 515.288
899 0 44.0665 12.4585 549 59.1275 113.475 514
900 0 46.1664 12.195 563 59.4014 113.202 515.19
901 0 47.0331 12.4806 587 59.2538 113.194 513.21
902 0 48.207 13.5457 653 58.9862 113.64 510.691
903 0 49.1025 12.5452 616 59.4123 113.063 512.495
904 0 48.0197 10.4957 504 62.756 113.502 509.407
905 0 50.1318 12.4671 625 61.3136 113.578 508.562
906 0 55.0721 14.6172 805 57.4957 113.155 509.15
907 0 56.0874 12.9263 725 59.1614 113.041 509.55
908 0 57.0938 13.6968 782 59.1816 113.027 507.785
909 0 60.2897 13.2859 801 60.3658 113.841 506.663
910 0 59.1929 12.2988 728 61.9615 114.008 506.128
911 0 58.0548 12.5743 730 61.663 114.289 506.948
912 0 59.2595 10.7325 636 61.8569 114.462 510.08
913 0 63.0282 12.4547 785 60.9847 114.795 509.546
914 0 65.1616 13.9806 911 61.0801 113.605 503.48
915 0 71.1348 11.429 813 62.8905 114.314 503.331
916 0 71.089 12.4633 886 62.2269 113.468 504.099
917 0 75.2109 10.2645 772 65.0039 114.367 502.768
918 0 76.2311 13.6427 1040 61.8298 113.266 500.709
919 0 77.1251 14.3014 1103 62.2647 113.179 497.759
920 0 79.1578 12.2793 972 64.4609 112.912 499.274
921 1 39.0938 10.948 428 66.8855 113.061 517.869
922 0 43.1131 13.9633 602 63.1478 113.329 515.684
923 0 42.0204 12.3035 517 65.7776 112.988 515.948
924 0 44.0326 13.1721 580 65.8793 113.095 514.021
925 0 47.1104 14.1582 667 64.4828 113.262 512.444
926 0 48.0725 13.2092 635 65.578 112.598 514.605
927 0 48.1159 12.3867 596 68.2701 113.232 511.628
928 0 50.0952 12.8356 643 68.4666 112.992 511.477
929 0 54.0785 15.8843 859 63.5716 112.793 512.343
930 0 54.0272 13.9744 755 67.4185 112.331 511.179
931 0 56.2231 13.3219 749 69.008 112.81 507.897
932 0 56.1575 12.8745 723 70.7344 112.433 507.573
933 0 58.1104 15.092 877 67.9475 112.171 507.498
934 0 59.0645 13.9678 825 70.3091 113.028 505.468
935 0 60.1308 13.7367 826 70.2736 112.989 505.643
936 0 64.1606 14.0117 899 69.4739 112.862 505.09
937 0 66.1573 14.4655 957 69.1985 112.764 505.374
938 0 68.1636 14.9053 1016 68.9075 113.027 505.037
939 0 69.1334 13.2642 917 72.3664 112.764 503.065
940 0 72.2337 14.6469 1058 70.8006 112.297 501.246
941 0 73.1403 13.2895 972 72.9198 111.849 499.965
942 0 79.2313 14.2747 1131 70.8806 112.448 499.424
943 0 78.4569 12.6056 989 74.1426 113.438 496.636
944 0 81.2611 14.4596 1175 71.7413 112.951 498.432
945 0 84.3157 15.098 1273 71.0126 111.884 494.604
946 0 86.2358 13.4515 1160 73.881 112.677 492.887
947 0 88.4792 12.9296 1144 74.6941 113.346 492.948
948 0 92.1395 14.2501 1313 72.7007 113.131 490.197
949 0 94.3642 14.5712 1375 71.4327 113.954 493.99
950 1 49.3191 14.2744 704 71.7955 114.624 512.712
951 0 50.2105 12.4874 627 73.5949 113.943 512.258
952 0 54.3264 14.7442 801 70.1186 114.11 511.488
953 0 52.2063 13.2743 693 73.4069 114.277 509.85
954 0 53.2527 12.2435 652 74.8175 113.405 510.224
955 0 57.1535 13.8924 794 71.9685 113.186 508.407
956 0 58.1537 14.1006 820 71.7732 112.865 508.863
957 0 61.2269 14.9934 918 70.7898 113.306 507.212
958 0 61.1114 13.8108 844 73.0178 112.87 505.847
959 0 64.1955 14.3312 920 71.6489 113.26 507.451
960 0 64.3203 13.7126 882 73.9218 112.608 505.529
961 0 67.3282 14.2734 961 72.6837 113.12 504.773
962 0 68.2888 14.2922 976 73.999 113.416 502.531
963 0 69.3345 13.2546 919 76.5473 113.285 500.399
964 0 74.2941 14.2945 1062 74.0847 113.361 500.771
965 0 77.2342 14.9804 1157 73.739 113.48 497.67
966 0 77.3 13.8939 1074 75.8808 114.12 497.716
967 0 80.2827 14.4365 1159 75.3719 113.148 496.103
968 0 82.3888 13.8854 1144 76.1014 113.267 496.813
969 0 85.4484 15.6118 1334 74.0375 113.873 493.909
970 1 47.3316 15.2118 720 73.6306 113.979 512.758
971 0 48.5344 14.2373 691 74.9899 113.957 513.039
972 0 48.439 14.9053 722 75.2895 114.427 512.708
973 0 49.3223 14.7601 728 75.8805 114.453 511.843
974 0 50.3556 14.8345 747 76.0174 114.198 510.861
975 0 50.3257 13.3729 673 78.3477 114.251 511.685
976 0 54.2957 15.5445 844 74.4325 114.019 511.316
977 0 54.2415 14.7489 800 77.465 113.609 507.561
978 0 59.5245 14.9182 888 75.4122 114.002 509.508
979 0 59.1947 15.2041 900 76.8256 114.802 507.252
980 0 60.2935 14.8109 893 76.7671 113.431 508.396
981 0 61.1606 14.8625 909 78.1969 113.252 507.453
982 0 62.4209 14.1299 882 79.7902 113.745 505.418
983 0 65.3379 14.5704 952 79.2668 113.992 503.884
984 0 67.3333 15.5941 1050 78.0057 113.507 503.901
985 0 69.1452 15.3445 1061 79.1706 114.075 502.342
986 0 70.24 15.1054 1061 78.6673 113.017 502.721
987 0 74.1796 14.9772 1111 78.6841 113.815 502.294
988 0 76.2953 15.9512 1217 78.0707 113.785 500.244
989 0 77.4084 14.6108 1131 80.6941 113.774 498.63
990 0 82.296 14.3628 1182 79.7284 113.655 500.336
991 0 84.3929 14.4799 1222 80.072 113.2 497.044
992 0 86.4766 15.5186 1342 79.231 113.416 495.566
993 0 86.3134 13.6364 1177 82.0816 114.378 495.744
994 1 42.2726 13.9807 591 81.758 113.411 514.411
995 0 44.1216 13.4401 593 80.8196 113.609 515.578
996 0 45.294 15.1013 684 80.9196 113.573 512.029
997 0 46.2072 13.1365 607 82.1565 113.743 514.563
998 0 47.2581 14.4949 685 81.1445 113.364 513.149
999 0 49.2999 14.0974 695 81.7755 113.709 512.437
1000 0 50.2033 14.4214 724 81.5249 114.322 511.356
1001 0 50.1441 14.3187 718 81.9304 113.454 509.969
1002 0 53.2507 13.8777 739 82.6482 113.304 509.23
1003 0 54.3274 13.6395 741 81.4912 114.119 510.58
1004 0 56.5189 13.8538 783 81.7101 113.347 508.834
1005 0 57.3982 15.7845 906 79.6578 113.471 506.959
1006 0 61.2315 14.5677 892 79.7814 113.411 509.624
1007 0 62.3129 13.5445 844 82.0332 113.378 507.355
1008 0 64.2506 15.2372 979 80.526 113.772 506.732
1009 0 67.5205 16.084 1086 78.7339 113.317 506.295
1010 0 67.9561 13.9649 949 83.3456 114.412 505.355
1011 1 150.515 14.9753 2254 81.2644 113.674 468.835
1012 0 153.664 13.6922 2104 83.0423 113.419 467.73
1013 1 73.3042 14.5694 1068 82.6826 113.468 502.653
1014 0 76.4353 14.4567 1105 83.2163 112.426 500.863
1015 0 78.3559 14.3065 1121 83.7547 112.211 499.509
1016 0 81.4533 15.2848 1245 81.9711 112.57 498.374
1017 0 83.6191 15.463 1293 81.6125 112.486 498.207
1018 0 86.5019 14.4621 1251 83.4157 112.106 496.489
1019 0 87.4078 15.1474 1324 82.6125 112.863 494.765
1020 0 91.3424 14.6591 1339 82.9313 112.637 495.633
1021 0 97.2802 14.0008 1362 82.8355 112.094 495.983
1022 0 96.3402 14.4903 1396 83.6454 111.571 493.076
1023 1 153.442 15.3348 2353 82.7896 112.406 466.315
1024 0 158.374 14.7372 2334 83.1915 112.519 466.149
1025 0 162.446 15.2173 2472 82.7249 112.749 465.022
1026 0 164.646 15.4513 2544 83.2197 112.217 463.383
1027 0 170.484 15.8549 2703 82.0988 111.201 463.268
1028 0 175.791 14.2612 2507 85.7555 110.981 459.668
1029 0 179.546 14.4253 2590 85.8444 111.669 456.362
1030 0 184.583 14.8605 2743 85.5866 110.703 450.905
1031 0 191.442 13.8998 2661 87.2762 110.841 451.087
1032 0 199.423 16.4675 3284 82.5646 111.18 448.988
1033 0 203.386 15.0404 3059 85.1736 111.413 446.504
1034 0 210.787 14.3558 3026 85.8731 111.106 445.106
1035 1 177.495 14.8793 2641 84.7448 111.279 459.826
1036 1 140.55 14.3437 2016 86.3626 111.233 474.124
1037 0 144.419 13.3362 1926 86.0763 111.357 479.379
1038 0 150.494 15.4092 2319 83.9556 111.197 469.714
1039 0 157.578 15.5732 2454 83.4238 111.691 468.815
1040 0 160.431 13.6445 2189 85.8319 111.229 469.659
1041 1 124.171 13.3848 1662 85.8712 110.631 484.836
1042 1 81.1203 13.6094 1104 85.6232 110.826 501.772
1043 0 83.2598 14.2686 1188 85.4402 111.157 498.148
1044 1 44.3498 14.2729 633 85.0711 111.166 516.899
1045 0 47.2266 14.5469 687 82.4279 110.328 517.849
1046 0 46.218 13.5445 626 86.6693 110.649 517.486
1047 0 50.3817 14.8665 749 83.8331 111.394 516.603
1048 0 53.2163 14.582 776 82.7487 111.764 516.478
1049 0 51.1973 14.5906 747 85.3106 111.257 514.656
1050 0 54.3037 15.1371 822 83.5255 110.933 515.33
1051 0 56.2835 14.4447 813 85.198 111.274 513.415
1052 0 55.09 14.4309 795 85.9686 110.917 512.072
1053 0 57.1766 14.2891 817 86.5324 110.891 511.996
1054 0 60.2254 13.5491 816 87.9951 111.254 510.825
1055 0 62.3038 14.1243 880 87.2739 111.866 508.644
1056 0 64.1001 14.5398 932 86.4785 111.013 509.613
1057 0 69.1533 16.0368 1109 83.0334 110.788 507.75
1058 0 69.2799 16.0653 1113 83.7161 111.076 505.927
1059 0 73.2815 15.3518 1125 83.6302 111.438 506.415
1060 0 74.2164 14.5386 1079 85.6274 111.331 504.503
1061 0 77.0524 15.5479 1198 83.5451 111.657 504.862
1062 1 37.0329 13.8795 514 86.1907 111.792 522.123
1063 0 37.313 13.561 506 86.7964 111.838 522.593
1064 0 37.027 14.692 544 86.1397 111.768 522.257
1065 0 41.1531 14.3853 592 84.8986 112.52 522.978
1066 0 39.0288 15.2195 594 85.7458 112.508 521.237
1067 0 42.3308 15.8986 673 82.8648 111.869 521.536
1068 0 42.1163 15.196 640 84.7156 112.019 520.761
1069 0 44.198 14.5029 641 85.0109 111.159 521.677
1070 0 44.1701 14.6253 646 85.1563 111.232 521.008
1071 0 45.2195 15.6348 707 84.0127 112.693 518.287
1072 0 48.1965 15.2916 737 83.848 112.784 518.577
1073 0 47.2989 15.8355 749 82.4206 111.682 519.25
1074 0 51.2659 15.3123 785 82.3223 111.729 516.795
1075 0 51.0695 14.4705 739 84.0961 112.406 516.632
1076 0 54.3037 15.0634 818 81.6993 112.443 516.002
1077 0 55.3093 15.2416 843 81.2633 112.431 516.171
1078 0 58.3551 16.0911 939 79.1768 112.087 514.267
1079 0 60.4709 15.7762 954 79.5472 111.906 513.483
1080 0 59.2445 16.2378 962 80.5832 112.274 512.035
1081 0 63.2512 15.6519 990 80.4051 111.864 510.866
1082 0 65.3466 14.3542 938 81.8294 111.549 511.076
1083 0 66.2633 15.9666 1058 80.327 112.515 509.007
1084 0 69.2275 15.9185 1102 79.0254 112.207 508.83
1085 0 70.4033 16.7038 1176 78.4124 111.604 506.975
1086 0 74.3851 15.8365 1178 78.0034 111.8 507.94
1087 0 76.3151 15.8946 1213 78.8862 111.445 503.998
1088 0 77.3333 14.5733 1127 81.8083 111.903 502.403
1089 0 82.2806 16.6139 1367 77.3409 111.738 502.072
1090 0 83.1994 16.4905 1372 78.2427 112.14 501.163
1091 0 84.2218 15.6848 1321 79.6805 112.525 501.013
1092 0 89.2346 15.6217 1394 78.8694 111.27 499.17
1093 0 90.2347 14.8391 1339 80.6468 111.724 498.652
1094 0 94.2678 15.4666 1458 79.1543 110.981 494.139
1095 0 96.1743 14.7961 1423 80.0365 111.423 494.911
1096 0 100.299 16.0421 1609 78.0709 112.378 490.671
1097 0 104.296 14.6698 1530 80.3673 111.826 490.297
1098 1 49.0913 13.0573 641 84.2324 111.725 515.588
1099 0 53.412 14.5847 779 81.3286 111.796 513.967
1100 0 56.0942 14.44 810 80.4914 112.704 515.135
1101 0 56.0734 14.6415 821 81.4555 112.248 512.35
1102 0 58.2157 16.2843 948 79.3333 111.621 512.637
1103 0 59.3311 14.9163 885 81.2463 111.75 512.722
1104 0 58.1751 14.6454 852 82.9237 111.816 511.67
1105 0 62.1401 15.7708 980 80.7531 111.453 511.22
1106 0 64.091 15.2908 980 81.4867 112.363 508.493
1107 0 67.2136 16.1872 1088 79.3952 113.282 508.102
1108 0 67.0596 15.3446 1029 81.8892 112.659 507.006
1109 0 71.071 16.772 1192 78.2022 112.465 507.507
1110 0 72.2857 15.5079 1121 80.1142 113.178 506.531
1111 0 76.1861 17.011 1296 77.2932 113.138 504.745
1112 0 78.1491 15.4064 1204 79.1146 112.74 504.323
1113 0 81.1506 16.8452 1367 70.5903 112.624 500.98
1114 0 84.1937 17.2103 1449 76.1511 112.335 500.824
1115 0 85.3187 15.1198 1290 79.8395 112.747 498.276
1116 0 88.2514 15.9998 1412 78.1608 112.757 497.998
1117 1 42.0581 15.2171 640 77.9938 112.825 519.319
1118 0 40.3091 14.364 579 82.0035 113.582 518.347
1119 0 42.1162 14.9586 630 81.6984 112.437 517.729
1120 0 44.1261 15.569 687 80.6405 113.099 516.217
1121 0 45.1212 14.3391 647 82.5394 113.606 517.457
1122 0 47.1854 15.047 710 81.6718 113.396 516.138
1123 0 47.4226 15.1826 720 82.3167 113.843 515.883
1124 0 49.2689 14.6137 720 83.0056 113.279 515.369
1125 0 50.1846 14.367 721 84.4078 112.917 515.053
1126 0 50.7358 14.7825 750 85.12 112.423 513.567
1127 0 53.5238 15.4697 828 83.6401 113.529 511.064
1128 0 55.1705 16.2043 894 82.4732 112.645 511.063
1129 0 56.2593 16.1218 907 82.5347 113.75 510.775
1130 0 57.2016 15.0345 860 84.6977 112.615 511.106
1131 0 59.4784 16.0226 953 82.4732 112.007 509.906
1132 0 61.4033 16.1066 989 83.2224 112.733 507.897
1133 0 64.4939 14.7301 950 85.0179 111.617 508.421
1134 0 66.2142 16.6581 1103 82.1015 111.418 506.85
1135 0 67.16 15.4556 1038 84.0607 111.786 506.777
1136 0 68.4476 16.6551 1140 82.6404 112.413 505.961
1137 0 73.201 15.4779 1133 83.256 111.56 503.863
1138 0 72.4264 15.2707 1106 83.9711 111.788 503.985
1139 0 75.3643 15.7767 1189 83.6712 111.753 502.037
1140 0 78.1714 16.1568 1263 82.7949 112.436 503.106
1141 0 81.2947 16.9261 1376 81.6504 112.376 501.642
1142 0 83.1605 17.3279 1441 81.3289 112.445 496.958
1143 0 83.1951 15.6259 1300 84.7077 112.806 497.308
1144 0 88.2854 16.492 1456 82.785 112.775 495.968
1145 0 89.2453 16.1465 1441 84.2318 112.452 494.249
1146 0 93.3098 16.6542 1554 82.6969 112.282 495.149
1147 0 96.3158 15.3246 1476 84.6999 111.865 493.523
1148 0 100.281 16.9722 1702 83.3367 113.008 489.934
1149 0 102.226 14.6831 1501 86.509 112.613 493.551
1150 0 106.276 16.6924 1774 83.9589 113.019 489.633
1151 0 109.21 15.8502 1731 86.1646 112.227 486.679
1152 1 49.2943 14.2004 700 88.51 112.451 514.437
1153 0 51.2069 13.6114 697 90.1191 113.498 513.73
1154 0 52.1472 15.8398 826 86.0278 113.334 513.389
1155 0 55.1367 17.5745 969 84.3612 112.658 511.325
1156 0 56.218 14.7995 832 88.4099 112.019 511.537
1157 0 56.1955 14.7877 831 90.1071 112.195 511.342
1158 0 58.1507 14.3936 837 90.1601 112.691 510.91
1159 0 59.2482 13.857 821 92.0195 112.515 509.447
1160 0 60.2038 16.7265 1007 89.0467 113.055 506.79
1161 0 62.3699 17.2519 1076 87.382 113.177 508.029
1162 0 64.2922 15.834 1018 89.7868 112.237 506.883
1163 0 65.1903 15.5084 1011 90.636 112.466 505.581
1164 0 67.3547 15.4703 1042 91.3023 112.902 505.452
1165 0 69.0218 15.5168 1071 91.3371 112.899 505.91
1166 0 71.1039 16.0329 1140 90.0851 112.969 503.267
1167 0 75.1977 17.075 1284 86.5101 112.979 503.694
1168 0 76.316 15.2262 1162 90.1343 113.59 502.678
1169 0 77.0723 15.5049 1195 90.2636 113.448 501.578
1170 0 81.2339 15.8062 1284 88.845 112.903 501.08
1171 0 83.1741 15.8944 1322 89.1331 113.144 498.469
1172 0 85.6442 14.8405 1271 91.3651 113.076 498.899
1173 0 87.1501 15.8233 1379 89.4721 112.75 497.934
1174 0 91.1895 15.6597 1428 90.313 113.712 496.288
1175 0 93.1586 15.0389 1401 91.0592 112.997 495.35
1176 0 97.3242 15.5254 1511 89.3653 112.62 493.587
1177 0 98.3253 15.4894 1523 91.6146 113.469 489.93
1178 0 104.223 13.9029 1449 93.1739 113.812 492.985
1179 1 53.2127 16.124 858 89.8077 113.168 512.696
1180 0 52.3404 14.3484 751 94.1451 113.356 513.332
1181 0 55.2376 15.5148 857 92.9755 113.333 512.359
1182 0 56.1199 14.0592 789 95.7744 112.213 512.351
1183 0 57.1935 14.7919 846 95.078 113.355 512.136
1184 0 57.1242 14.4072 823 96.5747 113.123 511.481
1185 0 59.3743 15.276 907 94.645 112.862 510.793
1186 0 58.1938 15.0188 874 95.4314 113.419 512.054
1187 0 62.2015 15.9643 993 94.1732 113.419 508.714
1188 0 60.2514 14.2901 861 101.791 113.825 507.316
1189 0 58.1601 15.5777 906 102.46 112.892 505.551
1190 1 103.672 14.2565 1478 82.7097 112.947 499.23
1191 0 103.184 16.2816 1680 79.3869 113.59 501.248
1192 0 103.438 14.8784 1539 83.0338 113.5 497.866
1193 0 103.331 16.4907 1704 79.902 113.693 498.051
1194 0 105.074 20.3095 2134 72.7404 113.705 493.96
1195 0 97.8447 20.9924 2054 73.4041 113.519 488.456
1196 0 95.5736 24.5884 2350 71.1264 112.976 491.673
1197 0 98.3313 19.3123 1899 79.5766 113.216 493.014
1198 0 100.684 21.8505 2200 74.9591 113.521 489.032
1199 0 101.846 25.0083 2547 71.2642 112.736 485.503
1200 0 99.4939 21.348 2124 79.105 112.529 491.646
1201 0 101.103 19.5345 1975 83.1514 112.923 490.9
1202 0 103.374 20.566 2126 81.183 112.827 487.799
1203 0 99.1119 20.0077 1983 85.5023 113.352 490.218
1204 0 109.307 23.905 2613 76.4845 113.457 485.804
1205 0 111.243 20.7115 2304 81.5161 113.619 486.977
1206 0 114.287 22.3648 2556 78.8901 113.309 484.075
1207 0 115.338 20.2535 2336 82.6871 112.456 482.478
1208 0 122.409 21.9919 2692 78.7273 112.948 477.553
1209 0 125.39 20.0653 2516 81.3355 113.202 474.316
1210 0 129.735 21.5748 2799 78.9228 113.017 475.344
1211 0 135.291 19.1736 2594 81.8647 113.175 475.008
1212 0 138.2 20.0941 2777 80.5095 113.363 471.913
1213 0 147.535 17.318 2555 84.4924 112.084 473.04
1214 0 146.503 22.1838 3250 76.8548 113.183 464.546
1215 0 150.497 18.9307 2849 82.2229 112.72 465.758
1216 0 153.518 20.4145 3134 79.7805 113.125 462.519
1217 0 159.374 21.8354 3480 76.369 112.913 453.312
1218 0 162.506 21.8391 3549 77.3026 113.282 459.942
1219 0 167.367 20.2967 3397 79.3777 113.308 461.184
1220 0 171.575 20.3234 3487 79.464 113.455 452.548
1221 0 176.517 22.5134 3974 75.5569 112.842 446.265
1222 0 181.365 19.9873 3625 79.5363 112.713 453.611
1223 0 185.309 20.4685 3793 78.6644 113.486 447.66
1224 1 86.1254 16.2902 1403 92.4932 114.3 498.762
1225 0 87.2418 14.0644 1227 96.3113 114.008 499.179
1226 0 88.2739 14.8968 1315 94.8821 113.706 498.733
1227 1 201.501 18.7691 3782 81.441 113.541 440.275
1228 0 207.353 18.794 3897 81.0467 113.046 439.024
1229 0 213.719 20.7281 4430 77.3826 113.279 435.442
1230 0 218.342 20.816 4545 77.554 113.134 431.609
1231 1 157.38 15.4149 2426 90.0824 113.692 467.794
1232 0 161.42 16.8442 2719 87.3516 113.1 467.626
1233 0 165.256 15.7271 2599 89.4105 112.92 462.561
1234 0 171.503 16.4545 2822 87.1772 113.501 462.966
1235 0 175.444 16.7575 2940 87.3656 113.767 459.934
1236 0 177.329 15.1639 2689 91.0509 113.634 456.064
1237 0 184.253 15.2562 2811 90.058 113.333 456.493
1238 0 189.668 15.796 2996 89.0931 112.639 452.318
1239 0 194.357 16.197 3148 89.1261 112.645 447.422
1240 0 200.547 16.9037 3390 87.5283 112.8 447.8
1241 0 205.541 16.4298 3377 89.3299 112.97 443.009
1242 0 212.301 15.3744 3264 91.2714 112.232 441.485
1243 0 220.223 16.8738 3716 88.4419 112.973 438.83
1244 1 146.271 15.4918 2266 91.989 113.226 473.609
1245 0 151.302 15.2411 2306 92.8946 112.89 468.532
1246 0 156.426 15.5856 2438 91.7502 112.952 467.714
1247 0 161.245 15.8393 2554 90.9702 113.444 467.834
1248 1 119.179 14.8851 1774 92.6071 113.383 485.884
1249 0 124.277 16.5437 2056 89.2996 113.219 482.069
1250 0 127.302 14.6973 1871 92.5158 113.049 481.492
1251 0 130.243 15.3636 2001 91.9705 113.167 478.722
1252 0 135.351 15.8921 2151 90.6495 113.434 476.201
1253 0 139.353 15.3639 2141 91.8454 113.162 472.501
1254 0 145.222 15.5211 2254 90.4663 112.88 474.126
1255 1 93.3901 14.2949 1335 92.8734 112.546 495.748
1256 0 95.3043 15.2459 1453 91.7756 113.404 493.968
1257 0 99.117 15.5069 1537 90.3682 113.382 494.807
1258 1 51.2419 14.3827 737 92.3962 113.094 515.742
1259 0 53.1267 14.4748 769 92.7594 113.489 513.705
1260 0 55.1633 14.5205 801 93.035 114.502 512.199
1261 0 58.1516 16.0787 935 88.8631 113.536 513.01
1262 0 58.1488 15.5119 902 91.8847 113.594 510.343
1263 0 60.2171 15.8759 956 88.7458 113.566 512.709
1264 0 58.173 15.7117 914 92.1291 113.033 510.92
1265 0 61.1795 14.8089 906 93.3212 112.485 510.83
1266 1 132.16 15.0424 1988 89.585 113.252 478.161
1267 0 134.159 14.0579 1886 90.3075 112.993 480.457
1268 1 69.0885 15.69 1084 91.1983 112.969 506.413
1269 0 70.1594 14.8091 1039 92.8402 113.218 505.488
1270 0 70.0993 15.2641 1070 92.2364 112.404 506.584
1271 0 74.1248 15.1771 1125 90.6302 112.415 507.072
1272 0 76.3432 14.854 1134 92.3571 112.781 503.425
1273 0 79.2097 14.9098 1181 91.5004 113.081 503.637
1274 0 82.1716 16.6116 1365 88.5853 112.807 500.64
1275 0 84.1249 14.9777 1260 90.473 111.337 503.398
1276 0 87.2258 15.1446 1321 90.7827 111.979 499.266
1277 0 89.1372 14.7638 1316 90.8024 112.297 498.094
1278 0 90.2247 14.342 1294 91.575 113.58 497.495
1279 0 96.2079 15.9031 1530 87.9961 113.295 495.015
1280 0 99.1902 15.1325 1501 88.6902 113.336 493.423
1281 0 102.329 14.6781 1502 89.4308 113.563 493.033
1282 0 106.141 14.5373 1543 89.4083 113.543 489.773
1283 0 107.216 14.3449 1538 89.474 113.741 487.824
1284 1 58.1828 15.3997 896 86.3906 113.184 511.624
1285 0 57.0648 15.1933 867 88.8824 113.46 509.96
1286 0 61.3841 15.4763 950 86.5758 112.946 511.299
1287 0 62.3011 14.8954 928 87.5496 112.652 509.575
1288 0 66.2368 14.9464 990 86.5323 113.435 509.273
1289 0 67.1552 14.8611 998 87.521 113.367 509.061
1290 0 72.2312 15.6442 1130 85.1584 113.646 504.913
1291 0 72.1586 15.9233 1149 84.5762 113.635 505.33
1292 0 76.2868 16.1627 1233 84.0316 114.019 504.93
1293 0 78.0852 15.8801 1240 85.1379 113.211 501.045
1294 0 81.1298 15.7649 1279 84.1775 113.88 501.851
1295 0 84.27 15.8657 1337 83.2543 112.937 499.889
1296 0 87.2636 15.2985 1335 83.9663 112.842 498.803
1297 0 91.278 15.524 1417 82.4905 114.041 498.616
1298 0 91.3331 15.4052 1407 83.1514 113.305 497.315
1299 0 97.5042 16.666 1625 79.6289 113.774 493.92
1300 1 42.2332 13.899 587 86.247 114.005 517.668
1301 0 44.1788 14.7129 650 83.6738 113.923 518.203
1302 0 44.0789 14.3152 631 85.3471 113.685 518.155
1303 0 45.393 14.0991 640 86.2562 113.758 517.114
1304 0 48.1233 15.9382 767 82.8201 113.462 516.683
1305 0 48.2371 15.1543 731 83.4282 114.286 517.179
1306 0 48.5378 15.2458 740 83.9919 114.064 514.438
1307 0 51.1472 16.1886 828 82.9239 112.923 515.376
1308 0 52.2047 14.9987 783 84.7829 113.585 515.37
1309 0 53.3895 15.2839 816 85.0306 113.871 513.091
1310 0 56.0788 15.0859 846 83.253 113.891 514.079
1311 0 59.3993 15.8083 939 82.1672 113.629 511.543
1312 0 60.1383 15.6473 941 83.0266 114.064 509.561
1313 0 62.1823 14.2163 884 85.043 114.028 510.356
1314 0 61.4326 14.4874 890 85.218 113.309 509.501
1315 0 65.3293 14.4958 947 84.1859 112.839 508.782
1316 0 69.1599 16.7294 1157 80.051 113.417 508.896
1317 0 71.1739 16.7196 1190 80.1471 113.531 505.638
1318 0 74.3063 15.315 1138 81.7935 113.013 506.778
1319 0 74.0886 15.5355 1151 81.6247 112.997 503.116
1320 0 78.2453 15.4897 1212 81.2104 113.537 503.04
1321 0 80.193 15.3754 1233 80.4031 113.265 503.656
1322 0 83.3249 15.7096 1309 80.3201 113.652 500.936
1323 0 86.3521 14.4525 1248 81.3486 113.576 501.905
1324 0 87.6168 14.9287 1308 81.6544 113.776 499.551
1325 0 91.1601 15.204 1386 80.6421 113.592 499.304
1326 0 94.5151 16.7169 1580 78.2911 113.384 496.018
1327 1 43.305 15.0098 650 82.4877 113.768 517.183
1328 0 45.4375 14.8996 677 81.3397 113.174 519.616
1329 0 46.2285 14.1255 653 83.2986 113.567 517.939
1330 0 47.1007 15.3076 721 81.613 113.95 517.297
1331 0 50.2287 15.6883 788 80.8972 113.528 517.065
1332 0 50.4751 14.7399 744 83.1263 113.827 515.862
1333 0 51.3432 15.8736 815 82.0491 113.953 516.506
1334 0 52.5319 15.0385 790 83.7456 114.203 515.237
1335 0 52.2529 14.2767 746 86.6153 114.906 515.218
1336 0 53.4538 14.1243 755 87.3828 113.543 513.567
1337 0 57.1907 16.5237 945 81.5979 113.643 514.716
1338 0 57.2342 15.6725 897 84.3567 113.721 513.388
1339 0 59.3367 15.6564 929 84.225 112.983 509.533
1340 0 62.3898 16.2687 1015 82.669 113.863 512.115
1341 0 62.3122 14.9569 932 85.3605 114.277 511.078
1342 0 66.0924 16.719 1105 82.038 113.586 510.537
1343 0 67.3226 17.1413 1154 81.6352 114.406 508.293
1344 0 68.2515 14.974 1022 85.7544 113.777 506.386
1345 0 73.2069 16.3782 1199 81.8907 113.955 506.082
1346 0 74.1668 16.0989 1194 82.4564 113.386 505.427
1347 0 78.2925 16.4128 1285 80.8366 113.375 503.16
1348 0 80.1333 16.8844 1353 80.139 114.215 502.016
1349 0 82.1211 16.5609 1360 80.2265 114.297 499.967
1350 0 85.2709 15.5622 1327 81.5576 113.194 497.791
1351 0 91.2554 16.7552 1529 78.3205 113.013 497.821
1352 0 92.2382 16.0129 1477 79.5992 112.615 496.007
1353 0 94.2252 15.9724 1505 79.9449 113.137 493.233
1354 0 97.2166 16.8387 1637 78.4191 113.797 493.559
1355 0 101.19 15.8811 1607 79.5146 113.635 493.382
1356 0 102.324 14.9819 1533 81.0183 113.088 491.393
1357 0 109.14 24.4183 2665 59.8173 111.896 492.368
1358 1 54.3768 14.8225 806 81.0409 113.349 515.439
1359 0 53.0979 15.8387 841 81.327 113.678 513.529
1360 0 57.2355 16.93 969 79.0299 113.354 510.519
1361 0 56.1988 14.8936 837 83.4934 113.349 511.128
1362 0 57.3472 14.1419 811 84.8792 112.937 513.005
1363 0 61.2008 15.3103 937 82.2305 113.512 511.839
1364 0 62.0539 14.858 922 83.4273 113.487 510.541
1365 0 64.3012 14.9297 960 83.3656 113.289 508.71
1366 0 66.1578 17.0502 1128 78.9734 113.363 508.768
1367 0 68.1058 16.0192 1091 80.8506 113.944 507.231
1368 0 68.219 14.4388 985 81.9056 113.845 508.719
1369 0 72.3092 14.4103 1042 82.2342 113.362 505.499
1370 0 75.23 15.1801 1142 81.4658 113.605 502.96
1371 0 77.2321 15.1232 1168 81.2337 113.805 502.505
1372 0 78.1568 14.6244 1143 82.2345 113.169 501.452
1373 0 82.3444 14.0872 1160 81.7043 113.278 500.027
1374 0 85.4098 14.7758 1262 79.2512 113.578 500.617
1375 0 88.2662 15.6912 1385 78.1646 113.624 498.668
1376 0 90.3848 15.2238 1376 78.4724 113.181 495.916
1377 0 94.3436 15.4117 1454 77.8583 113.226 495.656
1378 1 43.0644 12.1678 524 82.7462 113.973 518.59
1379 0 44.1892 13.8043 610 80.6787 114.885 518.384
1380 0 44.2086 15.4947 685 80.1212 113.526 516.828
1381 0 45.1416 14.0447 634 81.5568 113.189 518.114
1382 0 46.2095 15.1917 702 79.7393 113.402 518.249
1383 0 49.0742 13.7547 675 82.5926 112.978 515.265
1384 0 51.1605 15.7543 806 78.7159 113.32 514.892
1385 1 125.346 15.7165 1970 75.3599 113.042 485.262
1386 0 129.344 14.5426 1881 76.5316 114.036 481.291
1387 0 132.259 15.7948 2089 75.7046 113.335 477.595
1388 0 137.222 14.9684 2054 75.8437 112.91 478.908
1389 0 142.161 14.5258 2065 76.076 113.289 481.193
1390 1 58.17 15.1453 881 80.5914 113.633 513.199
1391 0 58.2409 16.0712 936 79.6122 113.381 512.962
1392 0 59.1566 15.8731 939 80.1757 113.242 511.126
1393 0 62.2118 15.2704 950 80.5032 113.453 511.343
1394 0 61.159 15.7132 961 81.5286 114.368 510.404
1395 0 67.4254 15.4244 1040 79.2413 113.53 509.72
1396 0 67.363 15.3942 1037 80.5439 113.59 508.094
1397 0 69.191 16.5773 1147 78.4577 114.285 506.323
1398 0 71.3678 15.2169 1086 80.5948 113.878 504.693
1399 0 74.4657 15.2419 1135 79.2317 113.985 504.264
1400 0 77.6253 16.2189 1259 77.4893 113.583 503.66
1401 0 78.2689 16.0856 1259 78.2216 113.462 501.743
1402 0 83.3862 16.3816 1366 76.5681 113.908 501.623
1403 0 86.3048 15.3641 1326 77.9668 113.621 500.296
1404 0 88.1869 17.1227 1510 74.6987 113.754 500.642
1405 0 92.1595 16.3629 1508 75.8879 113.558 498.247
1406 0 95.2712 16.9936 1619 74.5343 113.944 496.831
1407 0 96.3498 15.7655 1519 76.7551 113.259 495.973
1408 0 100.38 15.4912 1555 77.8617 112.712 490.67
1409 0 105.455 16.2534 1714 74.951 112.838 493.981
1410 0 108.382 16.1189 1747 76.0509 113.644 489.235
1411 0 110.42 14.6079 1613 78.155 114.338 488.457
1412 0 112.224 14.7562 1656 78.805 113.732 485.657
1413 0 117.246 15.54 1822 77.6427 113.248 483.148
1414 0 120.297 15.3121 1842 78.1298 113.27 480.032
1415 0 124.302 15.4302 1918 77.182 113.287 482.88
1416 0 130.672 16.3234 2133 75.6024 113.308 481.281
1417 1 59.2284 15.1954 900 78.2389 113.474 511.911
1418 0 62.3261 14.9696 933 77.9346 113.971 510.939
1419 0 62.129 13.5685 843 80.8719 114.242 510.38
1420 0 63.3852 15.0666 955 79.2963 114.472 508.054
1421 0 67.4909 14.7575 996 78.1998 113.525 510.608
1422 0 69.2587 15.9835 1107 76.2078 114.154 510.335
1423 0 69.3025 15.8003 1095 76.5251 114.068 509.839
1424 0 72.4154 15.2592 1105 77.1837 113.571 507.929
1425 0 71.2029 13.3983 954 80.6939 114.281 505.832
1426 0 75.304 14.395 1084 78.6476 113.877 505.525
1427 0 75.3952 14.4572 1090 79.2376 113.987 504.961
1428 0 77.1705 13.697 1057 80.5345 113.833 503.981
1429 0 81.1554 13.7144 1113 79.3414 114.048 503.488
1430 0 84.1375 15.0349 1265 76.5929 114.287 503.469
1431 0 87.2189 16.086 1403 74.9701 113.741 501.509
1432 0 88.3691 13.5907 1201 78.3705 114.326 500.002
1433 0 91.4885 14.5046 1327 76.5509 114.129 498.479
1434 0 94.3245 13.655 1288 77.2764 113.572 498.814
1435 0 99.3486 15.5614 1546 74.3351 114.024 496.838
1436 0 101.169 13.611 1377 76.2919 113.659 497.32
1437 0 102.53 13.6351 1398 76.4964 113.598 496.549
1438 0 106.323 14.6065 1553 75.6201 113.774 494.261
1439 0 109.421 12.7581 1396 77.914 113.696 494.188
1440 0 111.367 15.0853 1680 75.4268 114.045 490.965
1441 0 115.295 15.3433 1769 75.385 113.652 488.611
1442 0 119.208 14.957 1783 75.0998 113.771 489.992
1443 0 123.294 14.875 1834 75.8948 113.82 485.146
1444 0 125.255 14.1711 1775 77 113.55 484.102
1445 0 129.505 13.4821 1746 77.1208 113.302 483.704
1446 1 56.2147 16.099 905 75.8265 113.417 514.885
1447 0 55.1556 13.7792 760 79.7368 113.887 514.774
1448 0 58.318 15.6041 910 77.1989 113.695 511.821
1449 0 59.6071 15.317 913 77.8751 113.866 511.348
1450 0 61.2436 16.7038 1023 75.8622 113.228 511.691
1451 1 160.37 15.6263 2506 74.0463 114.605 473.3
1452 0 169.235 12.8343 2172 77.2182 114.012 471.893
1453 0 170.652 16.3784 2795 73.8877 114.326 462.218
1454 1 71.3241 14.8337 1058 76.9367 112.137 506.35
1455 0 71.372 14.8518 1060 77.4528 112.897 504.844
1456 0 74.3734 16.2693 1210 74.2165 113.696 507.634
1457 0 76.3942 14.8702 1136 76.6796 113.826 504.862
1458 0 80.2196 14.6224 1173 76.7153 113.05 502.829
1459 0 82.4105 13.4085 1105 78.7538 112.553 501.83
1460 0 84.4141 13.8839 1172 79.4036 113.075 497.972
1461 0 89.3302 15.2356 1361 76.1183 113.851 500.894
1462 0 91.4043 15.6776 1433 76.9512 113.909 497.177
1463 0 92.3123 14.3751 1327 79.7656 112.934 497.148
1464 1 47.2547 13.0569 617 81.3274 113.183 516.235
1465 0 51.3401 15.2707 784 77.102 114.142 516.898
1466 0 52.1941 13.6606 713 80.7447 113.248 515.781
1467 0 54.2127 15.4576 838 78.0811 113.788 514.875
1468 0 54.1738 14.5089 786 80.229 112.524 513.985
1469 0 56.1795 15.5573 874 78.9863 113.39 513.949
1470 0 56.1696 14.4918 814 81.7236 112.864 511.114
1471 0 56.3155 14.8272 835 82.2168 113.163 511.008
1472 0 60.103 15.3071 920 80.8359 113.318 512.318
1473 0 61.1882 15.3624 940 81.55 113.176 510.235
1474 0 58.2833 13.4344 783 86.7382 112.884 506.324
1475 0 64.2614 15.0479 967 82.0703 113.03 509.186
1476 0 65.3854 15.0492 984 81.9929 112.753 509.602
1477 0 68.4038 16.0664 1099 80.6151 112.85 508.106
1478 0 70.2002 16.1823 1136 80.0669 113.18 507.204
1479 0 73.2827 15.7882 1157 80.3354 112.93 504.799
1480 0 74.3918 16.682 1241 79.7889 112.604 503.815
1481 0 77.452 15.8937 1231 80.5808 112.759 503.829
1482 0 77.3011 15.3167 1184 81.516 112.29 502.194
1483 0 81.3591 16.249 1322 79.0877 112.302 503.596
1484 0 84.3577 16.6434 1404 78.3868 112.934 500.341
1485 0 87.3489 16.8062 1468 77.7943 112.623 497.446
1486 0 89.2131 15.973 1425 79.0989 112.601 497.648
1487 0 92.3067 15.8168 1460 78.8342 112.739 494.685
1488 0 96.2902 16.066 1547 77.4098 112.81 494.299
1489 0 97.2319 16.5481 1609 77.4562 112.831 494.963
1490 0 101.119 16.2482 1643 77.2374 113.444 492.199
1491 0 105.185 16.818 1769 76.2131 112.675 490.01
1492 0 107.213 15.3433 1645 78.0942 111.929 489.324
1493 0 112.353 16.6528 1871 75.3939 111.815 488.077
1494 0 114.273 15.9967 1828 77.4026 111.011 484.03
1495 1 59.2263 12.6802 751 79.221 111.699 514.225
1496 0 59.2344 13.32 789 80.5539 112.001 511.471
1497 0 62.2545 14.8744 926 77.8629 112.219 510.022
1498 0 65.1048 15.3291 998 77.2335 112.61 507.674
1499 0 65.3878 14.6052 955 79.4545 112.953 508.69
1500 0 68.1596 16.4027 1118 76.1208 112.961 507.394
1501 0 68.2808 13.5323 924 80.8084 112.475 507.793
1502 0 72.3237 16.2879 1178 76.6655 112.717 505.609
1503 0 72.1824 14.2833 1031 79.5926 112.202 506.097
1504 0 78.3393 16.8243 1318 74.9158 112.596 504.606
1505 0 79.2951 15.8396 1256 76.8639 112.046 502.542
1506 0 81.2481 14.7327 1197 78.7193 113.16 501.844
1507 0 83.2117 14.4571 1203 79.2195 111.963 500.558
1508 0 86.3214 14.1911 1225 79.7527 112.167 498.778
1509 0 86.1976 15.2208 1312 78.6921 112.738 495.988
1510 0 90.27 14.8665 1342 78.807 111.852 495.943
1511 0 94.29 15.3993 1452 77.7052 112.137 493.976
1512 0 96.1793 15.8246 1522 76.8857 112.346 493.872
1513 0 99.3584 13.9696 1388 79.0065 112.171 494.218
1514 1 49.2062 14.1242 695 77.7741 111.908 515.973
1515 0 48.1555 15.0139 723 77.4965 112.409 515.882
1516 0 50.1429 14.2194 713 80.2973 113.056 514.215
1517 0 51.4571 15.4109 793 79.0038 113.141 513.753
1518 0 52.2041 15.5735 813 79.4416 112.898 513.775
1519 0 54.1058 14.7119 796 81.5113 112.559 511.651
1520 0 54.1006 15.2309 824 80.9745 112.148 511.717
1521 0 57.3689 14.5201 833 82.9832 111.75 509.904
1522 0 57.2066 15.5227 888 81.6104 112.544 510.17
1523 0 59.1981 16.0478 950 80.4411 112.051 509.744
1524 0 62.2834 16.0075 997 81.1384 112.83 507.969
1525 0 61.1624 15.4016 942 83.2059 111.55 507.651
1526 0 64.1899 16.2487 1043 81.9291 112.552 506.954
1527 0 68.4205 16.5301 1131 80.3333 113.5 507.401
1528 0 68.2396 16.3834 1118 81.2352 112.685 504.437
1529 0 70.1639 15.022 1054 83.4829 112.605 503.959
1530 0 72.2838 15.1901 1098 83.388 112.227 503.558
1531 0 75.2361 16.1359 1214 81.0815 112.662 502.67
1532 0 78.7431 16.3443 1287 81.1313 111.936 501.273
1533 0 81.1458 16.8955 1371 79.6966 112.74 501.408
1534 0 83.2879 17.4335 1452 79.0069 113.191 500.537
1535 0 86.416 15.9577 1379 81.0145 112.822 497.938
1536 0 88.2402 17.1124 1510 79.6132 112.535 496.542
1537 0 91.4155 15.3694 1405 82.4391 112.683 494.673
1538 0 92.3993 16.6019 1534 81.5385 112.837 492.35
1539 0 96.3023 15.0671 1451 82.9731 112.178 494.471
1540 0 100.501 16.5272 1661 80.8399 112.062 491.09
1541 0 103.504 15.7482 1630 80.9908 111.836 491.021
1542 0 107.356 15.034 1614 82.062 112.074 490.211
1543 0 110.504 15.2121 1681 81.8656 112.073 488.52
1544 0 113.687 15.2348 1732 82.2552 112.49 487.948
1545 1 53.3426 15.3911 821 82.3033 112.641 512.35
1546 0 56.7164 15.2161 863 81.993 113.076 511.298
1547 0 56.32 14.897 839 83.0489 112.315 511.337
1548 0 58.4968 14.1888 830 83.488 112.241 509.495
1549 0 58.4474 14.0126 819 84.8767 112.403 510.788
1550 0 61.4925 14.2131 874 84.4016 112.871 508.808
1551 0 63.723 15.9597 1017 81.4248 112.674 507.858
1552 0 64.3734 16.0004 1030 82.5689 112.912 507.682
1553 0 66.2104 16.6439 1102 81.3149 112.734 507.889
1554 0 68.5323 16.4156 1125 80.4569 112.343 509.079
1555 0 70.3805 15.3025 1077 82.6091 111.686 507.682
1556 0 71.564 15.5665 1114 82.8636 111.776 506.715
1557 0 73.2823 15.72 1152 82.171 111.967 507.135
1558 0 75.447 15.0437 1135 82.148 111.112 505.219
1559 0 78.284 15.6354 1224 81.152 111.954 505.161
1560 0 80.4609 15.4112 1240 82.1371 112.085 502.358
1561 0 82.4056 15.63 1288 81.2717 112.068 502.857
1562 0 84.3689 14.9937 1265 82.5953 111.945 501.176
1563 0 88.5406 15.6877 1389 80.2822 111.677 501.552
1564 0 90.5245 15.9625 1445 80.9889 111.451 497.57
1565 0 89.6136 14.5848 1307 84.2701 111.507 497.049
1566 0 96.822 16.2153 1570 79.907 111.897 497.443
1567 0 97.2376 15.8581 1542 81.0097 112.18 496.08
1568 0 101.417 14.9284 1514 82.6697 112.551 494.104
1569 0 103.448 15.6117 1615 82.1889 111.876 490.296
1570 0 107.613 15.0446 1619 81.3792 111.257 492.466
1571 0 111.353 14.7189 1639 82.3441 111.34 489.361
1572 0 115.392 16.0497 1852 80.7991 112.001 487.006
1573 0 119.369 14.828 1770 82.8904 112.211 484.496
1574 0 123.495 15.0532 1859 81.716 111.47 486.23
1575 0 125.359 14.8454 1861 82.7577 111.19 482.45
1576 0 129.402 14.9766 1938 83.1708 111.894 479.858
1577 0 134.423 15.3545 2064 82.3934 111.82 479.721
1578 0 137.526 14.39 1979 85.0111 112.108 477.134
1579 0 142.353 14.9628 2130 84.6592 111.415 474.793
1580 0 148.32 14.9677 2220 84.1486 111.477 472.916
1581 0 150.68 14.8262 2234 85.4758 111.854 471.866
1582 0 155.299 15.2673 2371 84.949 111.28 469.723
1583 0 161.406 15.6252 2522 84.814 111.265 464.736
1584 0 165.247 15.5827 2575 84.9107 111.242 463.627
1585 0 170.399 15.0822 2570 85.3152 111.254 461.977
1586 0 173.348 14.6411 2538 86.2943 111.726 459.268
1587 1 124.268 14.7745 1836 86.5675 111.656 483.301
1588 0 129.374 15.4127 1994 85.2116 111.185 481.257
1589 0 132.376 15.6977 2078 85.4331 111.175 477.162
1590 0 135.292 14.8642 2011 85.9095 111.965 478.889
1591 0 139.237 15.9799 2225 85.2256 111.51 473.498
1592 0 143.318 15.7831 2262 85.3258 111.622 472.507
1593 0 147.178 14.2889 2103 87.5026 112.239 472.382
1594 0 152.292 14.6233 2227 87.4122 111.482 467.61
1595 0 153.378 14.272 2189 88.1562 111.557 466.2
1596 0 160.445 15.3511 2463 85.7402 110.499 465.863
1597 0 166.512 15.5604 2591 85.5496 110.883 462.794
1598 0 170.847 16.4357 2808 84.2974 110.157 460.613
1599 0 177.275 15.1854 2692 86.0509 110.816 458.47
1600 0 181.427 15.9237 2889 85.6719 110.745 454.114
1601 0 185.514 14.829 2751 87.5972 111.207 454.101
1602 0 191.451 14.014 2683 88.3977 110.834 453.88
1603 0 197.416 14.0718 2778 89.0799 111.064 446.292
1604 1 49.2197 12.495 615 87.4098 111.289 516.914
1605 0 53.3152 14.78 788 85.0051 112.236 515.855
1606 0 52.1657 14.0897 735 86.785 112.423 516.21
1607 0 55.2977 14.0512 777 86.9781 111.871 515.059
1608 0 54.2956 13.4265 729 88.7407 111.94 512.975
1609 0 56.5992 15.0709 853 86.3013 112.047 512.953
1610 0 56.1347 14.2336 799 87.383 112.737 514.308
1611 0 59.2551 14.311 848 88.0212 112.848 510.572
1612 0 63.1035 16.1481 1019 84.7341 112.986 509.415
1613 0 65.3017 14.946 976 86.1137 112.402 510.343
1614 0 65.1986 14.0801 918 88.1231 112.816 508.779
1615 0 66.1449 14.7404 975 87.6574 112.756 507.837
1616 0 68.1846 15.546 1060 87.6217 111.884 504.978
1617 0 72.2491 14.8237 1071 87.5238 112.011 507.256
1618 0 76.5752 14.0385 1075 87.4958 112.083 507.592
1619 0 77.5274 14.6271 1134 87.4418 111.757 505.726
1620 0 77.1719 14.9277 1152 89.0773 112.383 501.114
1621 0 78.7381 13.8688 1092 90.5888 111.876 501.624
1622 0 84.2488 14.7895 1246 88.244 112.103 500.824
1623 0 86.2502 14.5043 1251 89.1727 112.356 500.649
1624 1 43.1352 13.7475 593 89.0236 112.261 517.973
1625 0 43.154 13.95 602 90.9767 112.331 515.64
1626 0 45.128 14.0489 634 89.2319 113.159 518.196
1627 0 47.6295 14.9697 713 88.0266 112.579 515.142
1628 0 49.2486 15.4725 762 86.0564 112.829 515.932
1629 0 49.352 14.0622 694 89.1427 111.465 515.281
1630 0 51.2878 15.4228 791 86.1252 112.092 515.456
1631 0 54.4597 15.2406 830 85.1434 111.884 514.702
1632 0 54.5329 15.4769 844 85.4301 111.575 514.238
1633 0 57.2094 15.8366 906 84.1512 111.262 512.129
1634 0 57.3014 14.9735 858 85.4277 111.118 513.392
1635 0 59.2735 15.1164 896 85.0904 111.933 512.115
1636 0 61.14 15.1619 927 85.164 111.793 510.104
1637 0 64.3549 14.218 915 85.5115 111.434 509.659
1638 0 65.4975 15.4204 1010 84.5723 112.754 507.358
1639 0 67.6515 14.9442 1011 84.7507 112.613 506.076
1640 0 69.4535 14.0526 976 86.1629 112.494 505.446
1641 0 72.3095 15.323 1108 82.8673 112.888 505.76
1642 0 74.5121 13.7696 1026 85.3158 112.44 503.788
1643 0 78.2948 14.9435 1170 83.7769 112.368 501.896
1644 0 78.3794 14.4043 1129 84.2923 111.986 501.644
1645 0 82.2131 15.4477 1270 81.6252 112.267 501.933
1646 0 86.4712 16.0169 1385 79.9401 112.292 500.297
1647 0 88.2275 15.664 1382 80.8126 112.926 499.959
1648 0 90.3556 14.5315 1313 82.131 112.021 498.689
1649 0 93.2889 15.8969 1483 79.6979 112.671 497.765
1650 0 97.6155 14.8952 1454 80.8645 112.75 495.955
1651 0 99.2946 14.0088 1391 81.7757 112.76 496.626
1652 0 103.346 13.6822 1414 82.838 111.715 492.371
1653 1 51.5049 14.1928 731 80.8741 111.334 515.423
1654 0 52.178 15.2363 795 79.9358 111.584 515.643
1655 0 53.3838 13.8244 738 82.6585 111.205 513.606
1656 0 56.4076 15.6007 880 79.2375 112.28 513.57
1657 0 53.1546 14.4484 768 82.5234 111.691 513.973
1658 0 58.3769 15.5198 906 80.7351 112.276 511.674
1659 0 57.2067 15.0332 860 82.0779 111.849 510.593
1660 0 60.6888 15.3241 930 81.529 112.588 509.926
1661 0 59.1541 14.7074 870 82.4828 111.799 511.352
1662 0 64.2623 16.775 1078 78.0315 111.855 510.908
1663 0 64.1117 14.4435 926 82.8186 112.495 509.263
1664 0 67.1254 14.9571 1004 81.4253 112.316 508.607
1665 0 68.2322 15.5205 1059 81.136 111.169 505.865
1666 0 71.1005 15.9493 1134 80.657 111.257 505.786
1667 0 70.2289 14.0968 990 83.9172 112.004 504.594
1668 0 76.2413 16.3035 1243 78.6082 112.447 505.862
1669 0 78.6495 16.796 1321 77.9129 112.265 503.124
1670 0 79.4665 15.9313 1266 79.4408 111.318 502.712
1671 0 83.4256 16.266 1357 77.5468 111.439 501.501
1672 0 86.8131 15.5506 1350 78.3348 111.55 498.354
1673 0 91.1557 15.9288 1452 76.5875 112.468 499.132
1674 0 94.6142 14.7229 1393 78.9871 111.744 497.67
1675 0 95.3826 15.16 1446 78.6501 111.416 495.395
1676 0 100.301 15.8921 1594 76.4009 111.127 494.804
1677 0 101.382 14.2531 1445 79.3107 112.097 493.875
1678 0 104.452 14.6383 1529 78.3643 111.903 491.281
1679 0 109.536 15.9034 1742 76.376 112.355 487.354
1680 0 113.3 14.1483 1603 78.5128 111.568 487.247
1681 0 117.269 14.1896 1664 77.64 112.094 487.909
1682 1 54.3178 16.5139 897 76.6901 111.919 513.326
1683 0 55.1945 14.6029 806 79.4529 112.107 514.932
1684 0 57.1804 14.7428 843 78.8541 111.027 513.778
1685 0 58.3333 15.3257 894 79.123 111.324 511.662
1686 0 61.2075 16.6973 1022 75.8826 111.568 512.399
1687 0 61.294 15.597 956 79.5983 112.203 510.717
1688 0 64.4779 16.7499 1080 77.9287 111.221 509.424
1689 0 66.4902 15.3256 1019 79.6977 111.515 508.031
1690 0 69.3187 16.1573 1120 78.5411 110.941 508.944
1691 0 67.541 15.4277 1042 81.5557 111.509 506.624
1692 0 70.2989 16.1453 1135 79.7163 112.291 505.803
1693 0 71.5228 15.8271 1132 80.2968 111.961 506.346
1694 0 74.3962 14.7857 1100 81.7818 111.568 504.28
1695 0 75.2922 15.9113 1198 81.2871 111.653 500.771
1696 0 81.5822 15.3097 1249 79.9007 111.009 503.249
1697 0 83.6756 15.4884 1296 80.2292 111.606 501.716
1698 0 84.7978 15.59 1322 80.8654 111.739 498.35
1699 0 87.5423 15.7181 1376 80.1163 111.58 496.826
1700 0 90.7439 14.9762 1359 81.5703 111.221 496.797
1701 0 93.3047 16.3764 1528 79.1878 112.018 495.94
1702 0 97.4932 15.6729 1528 80.176 112.21 494.528
1703 0 99.5541 15.1576 1509 81.2531 112.164 493.122
1704 0 101.451 15.0121 1523 81.5673 112.194 491.997
1705 0 106.595 16.6236 1772 78.9955 112.682 488.899
1706 0 109.351 14.3574 1570 82.5471 111.104 489.844
1707 0 115.735 16.1404 1868 80.0905 112.237 486.392
1708 1 58.5058 13.7935 807 81.0359 112.016 513.596
1709 0 62.4499 14.7158 919 79.6975 111.621 511.96
1710 0 61.2519 13.3057 815 84.1055 111.72 510.496
1711 0 63.1867 15.7945 998 79.988 111.649 510.338
1712 0 65.3074 13.98 913 83.0219 111.545 509.496
1713 0 67.4232 16.0331 1081 80.7095 111.523 506.165
1714 0 69.3165 14.9027 1033 82.545 112.135 504.971
1715 0 71.5365 15.5445 1112 81.5234 111.551 505.607
1716 0 73.3727 15.2782 1121 82.4023 111.261 505.07
1717 0 75.249 15.1763 1142 83.8117 111.947 502.485
1718 0 79.4804 14.9597 1189 83.0673 111.79 504.191
1719 0 79.4389 15.9116 1264 82.879 112.106 504.015
1720 0 81.1313 14.8032 1201 84.3963 111.684 500.172
1721 0 85.3127 15.7069 1340 81.5373 111.984 501.968
1722 0 88.5634 15.5595 1378 81.4332 111.372 499.807
1723 0 89.5069 14.8927 1333 82.994 111.361 498.383
1724 0 93.2371 14.8653 1386 83.3629 111.318 497.36
1725 0 95.3152 15.496 1477 82.2031 111.62 495.59
1726 0 97.351 14.3193 1394 84.1564 111.568 494.613
1727 0 103.139 15.4549 1594 81.6562 112.341 494.193
1728 1 54.4215 15.8577 863 79.6616 111.898 517.345
1729 0 56.2751 15.3176 862 82.8782 111.497 513.44
1730 0 56.5168 15.6945 887 83.6167 112.002 513.353
1731 0 57.2862 14.96 857 84.8448 111.399 512.923
1732 0 59.416 15.2652 907 84.0529 111.88 511.903
1733 0 61.5377 14.2352 876 84.637 113.147 512.308
1734 0 61.2971 15.433 946 84.9197 112.876 510.221
1735 0 63.3666 15.797 1001 84.6813 112.477 510.299
1736 0 65.2257 16.1746 1055 83.7194 112.045 509.403
1737 0 65.2182 14.7351 961 85.5879 112.154 509.281
1738 0 67.1407 13.3898 899 88.0389 111.304 507.809
1739 0 72.7019 16.6708 1212 81.0792 112.355 508.836
1740 0 73.3666 15.7701 1157 83.6335 112.132 505.359
1741 0 74.8638 14.7735 1106 86.1582 112.136 505.363
1742 0 78.9801 16.08 1270 82.8252 111.28 504.386
1743 0 79.3651 15.4098 1223 83.982 111.376 504.027
1744 0 83.5515 16.0021 1337 82.9656 112.251 500.58
1745 0 86.6943 16.0564 1392 82.4677 111.746 498.469
1746 0 86.8198 14.4668 1256 85.5939 111.704 498.464
1747 0 92.3718 14.604 1349 83.8725 111.567 497.688
1748 0 95.2898 15.0173 1431 81.8309 111.991 497.411
1749 0 99.2059 15.4527 1533 81.8682 111.879 494.194
1750 0 102.35 14.6459 1499 82.8065 112.151 493.656
1751 1 53.1831 13.839 736 80.5326 112.652 516.558
1752 0 51.4447 13.3153 685 85.0788 112.403 513.816
1753 0 56.2011 14.6083 821 82.2911 112.418 515.188
1754 0 56.5051 14.3173 809 83.4363 112.894 512.953
1755 0 57.1809 14.9001 852 82.7512 112.218 513.415
1756 0 59.6934 13.7201 819 84.6923 111.915 510.459
1757 0 62.1823 15.9853 994 80.7113 112.12 511.213
1758 0 63.5252 15.5371 987 81.7903 112.31 510.617
1759 0 66.7047 15.816 1055 81.128 113.163 509.278
1760 0 66.5048 14.42 959 83.7466 112.257 510.083
1761 0 69.7537 15.8845 1108 81.1778 111.766 508.662
1762 0 70.4883 15.804 1114 82.0512 111.819 507.409
1763 0 72.515 16.0381 1163 81.2502 112.413 507.267
1764 0 74.3796 16.1603 1202 81.782 112.268 505.532
1765 0 77.5197 15.4928 1201 83.4596 112.45 503.056
1766 0 76.445 15.1482 1158 85.2245 112.396 501.747
1767 0 81.6432 15.5677 1271 83.3367 112.934 502.304
1768 0 84.4998 16.4616 1391 81.2056 111.807 502.208
1769 0 83.2603 13.3317 1110 87.3378 112.079 499.054
1770 0 88.323 15.5452 1373 82.4523 111.731 499.43
1771 0 90.8431 14.4425 1312 84.6044 111.991 496.89
1772 0 94.2816 15.5173 1463 82.4723 111.316 496.344
1773 0 97.3863 15.1459 1475 82.158 112.344 495.496
1774 0 99.292 15.6307 1552 82.2075 112.348 492.745
1775 0 102.352 15.7301 1610 81.9547 111.183 491.485
1776 0 105.414 15.4438 1628 81.8851 111.542 492.628
1777 0 108.601 15.0551 1635 82.9529 111.44 488.026
1778 0 113.324 14.8776 1686 82.6465 110.833 484.767
1779 0 116.603 15.1025 1761 82.7115 111.188 483.228
1780 0 121.271 14.95 1813 82.2317 111.776 482.127
1781 0 124.55 14.0827 1754 83.707 112.129 481.113
1782 0 130.518 14.9711 1954 81.5747 111.781 478.651
1783 0 132.177 14.9951 1982 82.3042 111.839 477.169
1784 0 135.692 14.7834 2006 82.178 111.56 476.496
1785 0 141.464 15.2265 2154 82.1671 111.614 472.764
1786 1 71.309 14.2619 1017 81.1701 111.116 507.026
1787 0 73.3797 14.7043 1079 81.6793 112.493 506.568
1788 0 75.719 14.5538 1102 81.5635 112.167 504.532
1789 0 78.4322 13.8209 1084 83.6245 111.791 502.048
1790 0 79.4284 14.1259 1122 82.6399 111.592 501.291
1791 0 82.4903 14.5229 1198 81.1227 111.768 502.902
1792 0 83.4609 14.8573 1240 81.8347 112.401 499.546
1793 0 86.3066 15.3638 1326 79.8733 111.434 498.71
1794 0 88.1724 14.5737 1285 81.5735 110.879 495.743
1795 0 90.3797 15.3685 1389 80.1346 111.72 497.152
1796 0 94.4842 14.8173 1400 80.26 111.546 494.72
1797 0 96.1881 14.6692 1411 80.017 111.454 495.444
1798 0 99.3296 15.5643 1546 78.1928 111.781 492.373
1799 0 102.18 15.3454 1568 78.3527 111.353 490.756
1800 0 107.648 13.9901 1506 79.1434 111.598 490.081
1801 0 108.346 14.9613 1621 78.541 110.592 488.357
1802 0 111.216 15.3754 1710 78.3398 111.801 484.784
1803 0 116.701 14.7813 1725 78.8991 112.154 485.294
1804 0 120.517 14.8941 1795 78.5894 111.72 482.397
1805 0 124.309 14.8743 1849 78.5852 111.515 480.096
1806 0 126.612 14.5642 1844 79.3921 111.379 479.101
1807 0 132.408 14.3949 1906 78.8835 111.356 474.927
1808 0 140.303 16.2435 2279 75.0009 111.871 477.055
1809 1 50.4562 13.4968 681 78.2687 112.555 512.106
1810 0 51.2681 13.8098 708 77.6751 112.429 513.452
1811 0 54.2014 14.8705 806 76.1117 112.767 511.009
1812 0 56.3387 13.4898 760 76.9421 112.854 511.407
1813 0 57.6926 14.6813 847 75.8689 111.292 510.808
1814 0 59.3509 15.0461 893 75.4367 112.274 510.183
1815 0 60.4292 14.3805 869 77.1623 111.748 507.333
1816 0 62.3505 14.8836 928 75.2899 111.657 507.561
1817 0 64.4576 14.335 924 76.395 111.12 505.948
1818 0 66.209 15.4964 1026 73.576 111.887 507.036
1819 0 67.4272 12.9473 873 77.5441 111.796 504.8
1820 0 71.4224 16.6894 1192 71.9832 111.98 501.279
1821 0 73.358 15.0222 1102 74.3031 111.855 502.583
1822 0 73.2814 15.6793 1149 73.5265 112.249 501.589
1823 0 75.267 13.0602 983 76.649 111.438 499.018
1824 0 76.6388 13.257 1016 76.6427 111.923 497.522
1825 0 79.4849 14.8456 1180 74.4627 111.785 497.336
1826 0 82.269 14.015 1153 75.1457 111.868 494.901
1827 0 88.4183 15.6303 1382 72.1476 112.457 492.524
1828 0 89.2482 14.3981 1285 73.8397 111.514 493.099
1829 0 93.4277 13.3686 1249 75.1353 111.567 493.283
1830 0 98.4455 16.0901 1584 70.6244 111.665 494.302
1831 0 101.799 13.8312 1408 73.5831 111.727 490.846
1832 0 101.239 13.6509 1382 75.3611 111.661 485.704
1833 0 108.631 15.3548 1668 72.1433 112.025 487.438
1834 1 52.4573 12.7151 667 73.8786 111.945 513.298
1835 0 55.6334 12.5105 696 74.5891 110.148 513.086
1836 0 58.5185 15.1063 884 72.1946 111.145 511
1837 0 60.6509 13.2067 801 74.2871 111.472 508.981
1838 0 62.4912 15.2501 953 71.4711 111.542 508.709
1839 0 63.5668 15.7 998 71.1994 110.549 508.87
1840 0 65.3775 15.3417 1003 71.3868 111.201 508.275
1841 0 68.3757 15.371 1051 70.9382 111.21 507.114
1842 0 69.3601 14.7491 1023 72.0772 111.487 504.804
1843 0 70.471 13.8355 975 73.1374 112.007 503.388
1844 0 73.6386 14.9242 1099 71.4213 111.151 504.245
1845 0 76.9073 14.628 1125 71.6969 110.852 503.801
1846 0 78.7692 15.0566 1186 70.9983 110.737 503.03
1847 0 81.443 14.8447 1209 70.9305 110.066 501.658
1848 0 83.46 16.3791 1367 69.553 110.273 499.985
1849 0 87.8139 15.9086 1397 69.5927 110.977 500.082
1850 0 89.4031 16.2299 1451 70.3832 110.728 497.138
1851 0 90.9554 15.9089 1447 71.1251 110.298 494.63
1852 0 95.9445 15.238 1462 70.9658 110.663 495.975
1853 1 49.0982 12.6074 619 73.6155 111.454 515.462
1854 0 50.3925 13.6131 686 71.8776 110.649 515.714
1855 0 50.2335 13.915 699 72.4392 111.258 513.196
1856 0 53.3577 14.4309 770 69.8649 111.355 514.821
1857 0 52.599 15.3045 805 68.5342 110.882 514.981
1858 0 53.5368 11.4314 612 74.8938 110.913 511.467
1859 0 57.3555 13.9481 800 71.3088 110.92 510.166
1860 0 58.6207 15.1312 887 70.3968 111.247 509.191
1861 0 60.4957 15.4722 936 68.9551 111.212 510.146
1862 0 61.2035 14.9991 918 69.4194 111.427 510.647
1863 0 63.4442 14.2172 902 70.5909 111.864 510.436
1864 0 66.455 17.4404 1159 66.8602 112.123 508.414
1865 0 68.483 14.719 1008 70.5198 111.347 507.991
1866 0 67.6368 15.805 1069 70.1777 111.74 507.658
1867 0 70.2626 16.9365 1190 68.5639 111.218 507.398
1868 0 73.3365 14.9312 1095 71.6941 111.023 504.679
1869 0 73.7799 15.3023 1129 71.0018 111.531 505.665
1870 0 76.4206 14.3809 1099 73.3439 111.884 502.634
1871 0 77.8209 15.9597 1242 71.9412 111.596 501.808
1872 0 79.5901 17.0373 1356 70.1158 111.883 504.364
1873 0 81.6216 17.8874 1460 69.9473 112.377 500.599
1874 0 82.4925 14.8013 1221 74.7248 111.953 498.964
1875 0 85.8112 15.7905 1355 73.2052 112.191 497.632
1876 0 87.5652 13.43 1176 76.0068 112.095 497.379
1877 0 89.7446 15.1875 1363 74.1416 111.69 495.618
1878 0 93.6495 15.8677 1486 72.9435 111.553 494.732
1879 0 96.3865 16.1641 1558 73.5629 111.898 491.408
1880 0 101.868 15.6085 1590 73.6805 112.113 490.961
1881 0 101.423 15.391 1561 74.8898 111.577 489.959
1882 0 105.195 14.8771 1565 75.4447 111.732 487.585
1883 0 110.645 15.021 1662 75.3406 111.842 488.024
1884 0 110.169 14.6593 1615 76.9214 111.635 485.006
1885 0 118.276 17.0618 2018 73.2963 112.056 482.802
1886 0 120.759 16.4791 1990 74.9025 111.815 481.716
1887 0 123.593 16.2226 2005 76.0055 111.559 480.241
1888 0 127.916 15.0255 1922 78.2732 110.887 478.621
1889 0 131.888 16.3472 2156 76.7018 110.912 476.189
1890 0 135.438 14.9294 2022 78.5425 111.404 476.818
1891 0 140.12 16.6001 2326 77.3745 110.278 471.693
1892 0 143.737 14.2483 2048 81.1343 110.103 472.043
1893 0 148.054 15.5214 2298 79.5535 111.214 467.642
1894 0 154.851 16.4546 2548 79.7139 111.186 466.317
1895 0 158.879 15.2884 2429 82.1289 111.177 463.782
1896 0 162.633 14.7572 2400 82.9412 111.3 462.84
1897 0 167.724 15.1618 2543 83.2375 111.957 455.157
1898 0 174.737 16.7624 2929 80.3438 111.724 453.227
1899 0 178.914 16.2034 2899 81.5502 111.416 450.474
1900 0 187.072 16.6139 3108 80.4122 111.898 449.718
1901 0 193.131 16.4293 3173 80.706 111.625 446.311
1902 0 200.069 17.0591 3413 79.4811 111.932 443.494
1903 0 206.086 17.4927 3605 78.9795 111.446 441.738
1904 1 159.75 14.3662 2295 85.1394 110.968 461.369
1905 0 163.793 13.9566 2286 85.6605 111.679 461.671
1906 0 172.211 15.3997 2652 83.0999 111.624 457.33
1907 0 175.12 13.9562 2444 86.347 110.941 453.234
1908 0 182.605 15.9415 2911 82.6142 112.04 451.483
1909 0 188.828 16.989 3208 80.8778 111.914 449.33
1910 0 196.359 16.811 3301 81.2317 111.252 445.191
1911 0 201.624 15.6629 3158 83.1691 111.163 441.202
1912 0 209.028 15.7634 3295 83.1566 111.038 437.573
1913 0 214.785 15.2432 3274 83.9334 110.917 436.567
1914 0 223.75 17.162 3840 80.4266 111.698 433.735
1915 0 230.562 17.4313 4019 80.3312 111.378 430.64
1916 0 239.895 16.0362 3847 82.2119 111.557 426.442
1917 1 169.004 14.9819 2532 85.0004 112.526 456.961
1918 0 174.547 14.4259 2518 86.2188 112.207 451.131
1919 0 180.809 14.5623 2633 85.1569 112.187 450.272
1920 0 187.773 15.098 2835 84.2885 112.131 450.125
1921 0 193.672 15.9393 3087 82.7933 111.73 446.587
1922 1 51.4645 15.2338 784 78.7411 112.353 511.221
1923 0 52.0572 12.0637 628 82.758 112.008 512.056
1924 0 54.6342 12.7027 694 80.1787 112.925 512.062
1925 0 54.3998 14.0258 763 78.3984 112.984 512.004
1926 0 56.8857 13.2019 751 77.6325 112.695 511.415
1927 0 56.942 12.9254 736 77.1168 111.641 511.371
1928 0 57.8711 13.4609 779 76.7548 111.624 509.546
1929 0 60.2729 14.7662 890 73.5831 111.885 510.849
1930 0 59.702 13.2826 793 75.5208 111.378 509.569
1931 0 61.246 13.0457 799 75.3867 111.872 510.788
1932 0 61.9547 15.8341 981 72.632 112.451 507.453
1933 0 63.6932 14.5227 925 74.5503 113.055 506.811
1934 0 62.9376 12.3932 780 78.3641 111.359 506.269
1935 0 66.8234 14.6057 976 75.1977 111.55 506.728
1936 0 68.9952 14.3053 987 75.7589 112.152 506.473
1937 0 70.8255 14.6134 1035 74.7488 111.386 508.869
1938 0 72.8029 15.0543 1096 75.4325 110.672 505.364
1939 0 73.5894 14.4314 1062 76.5301 110.674 505.641
1940 0 76.349 15.2851 1167 74.6975 110.635 506.86
1941 0 77.3623 14.9168 1154 75.3934 111.15 505.776
1942 0 79.6702 14.4471 1151 75.7272 110.593 504.757
1943 0 81.8622 14.3534 1175 75.5481 110.783 503.559
1944 0 83.8743 14.2833 1198 75.7145 110.038 504.174
1945 0 84.5648 15.4674 1308 74.409 109.821 501.521
1946 0 87.3033 12.4852 1090 77.7367 109.191 500.499
1947 0 90.605 14.7453 1336 74.8855 109.749 497.031
1948 0 93.9267 13.1166 1232 76.0966 109.159 497.413
1949 0 95.5573 13.3323 1274 75.9615 109.046 495.125
1950 0 99.4374 14.3306 1425 74.4639 108.891 493.565
1951 0 102.697 14.9566 1536 73.0085 108.51 495.253
1952 0 108.887 15.0339 1637 73.3684 108.573 488.385
1953 0 110.81 15.1972 1684 73.6295 107.847 485.483
1954 0 115.448 14.474 1671 74.4967 108.825 486.862
1955 0 119.494 15.1388 1809 73.5821 108.73 484.031
1956 0 122.51 14.3009 1752 74.8088 109.223 480.398
1957 0 128.667 17.246 2219 70.4633 109.03 481.12
1958 0 131.458 14.4533 1900 74.7489 108.223 477.957
1959 1 74.4023 15.0533 1120 72.8473 108.808 507.149
1960 0 78.5439 13.4956 1060 75.0151 109.237 504.056
1961 0 80.34 13.9781 1123 74.8994 109.577 502.191
1962 0 83.5063 15.2803 1276 73.1332 109.141 501.335
1963 0 86.3351 15.9263 1375 72.8073 109.588 499.996
1964 0 87.5095 14.2842 1250 75.552 109.513 498.411
1965 0 89.48 14.3831 1287 76.0427 109.79 494.524
1966 0 93.6551 16.5928 1554 72.6789 110.142 494.595
1967 0 96.4035 16.2339 1565 73.3942 110.169 492.557
1968 0 99.3955 16.1979 1610 73.8391 109.942 490.828
1969 0 103.366 15.8562 1639 73.8444 110.419 491.777
1970 0 108.314 16.1106 1745 72.8819 110.869 492.967
1971 0 109.373 14.1443 1547 76.6361 111.56 488.26
1972 0 115.407 16.3162 1883 73.8189 111.537 486.363
1973 0 117.503 14.6465 1721 76.5073 110.892 482.729
1974 1 55.3464 13.3703 740 76.8919 111.1 511.482
1975 0 58.5402 14.7249 862 75.6183 111.225 511.869
1976 0 61.2968 15.0253 921 74.7416 111.053 511.377
1977 0 61.2994 14.16 868 77.5576 110.736 507.869
1978 0 65.318 15.9833 1044 75.0709 111.082 507.546
1979 0 65.7011 14.1398 929 78.4338 111.666 507.357
1980 0 67.2 14.7322 990 78.2505 112.232 506.272
1981 0 69.1985 14.5379 1006 78.0924 111.89 506.422
1982 0 71.1797 15.2712 1087 77.8022 111.26 504.615
1983 0 72.2386 15.5734 1125 78.3209 111.841 503.133
1984 0 77.3266 17.0446 1318 75.4249 111.189 501.416
1985 0 78.3027 15.4401 1209 78.129 110.998 501.6
1986 0 81.4961 16.7493 1365 75.6996 111.829 502.42
1987 0 82.3561 15.4694 1274 78.6633 111.952 499.637
1988 0 83.1715 15.8828 1321 78.9667 111.61 494.837
1989 0 85.2997 16.1079 1374 77.8916 111.342 497.746
1990 0 90.2403 16.5336 1492 77.4336 112.153 493.916
1991 0 90.383 15.7994 1428 78.1492 111.051 496.997
1992 0 91.4253 14.3068 1308 82.2164 111.072 493.589
1993 0 97.3007 16.67 1622 77.8391 111.461 489.761
1994 0 99.3288 16.2994 1619 79.1174 112.052 488.193
1995 0 102.49 15.6406 1603 80.0012 112.032 488.918
1996 0 105.391 15.0583 1587 81.5035 110.848 487.788
1997 0 110.211 15.4976 1708 80.4204 111.118 486.698
1998 1 57.5206 15.3336 882 78.4116 111.407 510.282
1999 0 56.6468 14.511 822 80.0803 111.414 510.016
2000 0 59.469 14.7472 877 80.1209 111.759 508.95
2001 0 59.3095 14.6014 866 80.6848 110.941 509.077
2002 0 62.4508 15.7404 983 79.9644 111.701 507.034
2003 0 63.3603 15.7828 1000 80.297 111.39 507.567
2004 0 63.3588 14.6625 929 84.1163 111.752 504.048
2005 0 68.5076 14.2758 978 83.3763 111.596 505.185
2006 0 69.3806 15.0763 1046 82.6721 111.686 504.413
2007 0 73.2691 16.9239 1240 72.1685 110.953 503.014
2008 0 71.4902 14.8552 1062 84.4567 111.414 502.54
2009 0 74.2932 14.9408 1110 83.918 112.096 501.915
2010 0 76.2933 14.8113 1130 84.1735 112.065 500.275
2011 0 79.56 15.9879 1272 83.0841 111.176 498.143
2012 0 83.3068 17.9097 1492 79.4042 110.259 499.289
2013 0 82.472 15.4598 1275 83.6839 110.864 497.133
2014 0 86.6521 16.0527 1391 82.4033 110.732 496.85
2015 0 88.7575 14.0833 1250 85.7464 111.009 495.899
2016 0 89.2378 15.4419 1378 84.3324 111.033 494.798
2017 0 96.2764 16.92 1629 80.806 110.506 492.401
2018 0 96.6465 14.9617 1446 85.0104 111.067 489.144
2019 0 100.394 15.459 1552 83.6398 111.332 490.146
2020 0 104.661 15.6601 1639 83.1007 110.855 488.085
2021 0 107.431 15.2283 1636 83.8026 111.331 487.083
2022 0 110.31 16.0638 1772 82.6823 110.805 482.819
2023 0 114.556 15.6081 1788 82.8876 110.937 483.979
2024 0 120.47 15.9044 1916 82.0386 111.501 481.881
2025 0 121.383 16.4274 1994 82.0527 111.118 479.504
2026 0 127.525 15.4793 1974 82.5947 111.19 476.545
2027 1 47.2206 13.8711 655 80.8641 111.348 514.789
2028 0 47.1029 12.9079 608 82.4243 111.229 514.311
2029 0 50.4315 13.2457 668 81.0763 111.504 514.976
2030 0 52.111 15.6397 815 78.508 111.429 513.477
2031 0 53.656 15.6739 841 79.7824 111.287 511.904
2032 0 55.4825 15.6265 867 79.2664 111.121 512.362
2033 0 55.3454 14.274 790 81.2557 111.01 512.367
2034 0 57.5974 14.9139 859 80.4738 110.909 510.981
2035 0 58.6361 14.7691 866 80.5439 110.984 511.201
2036 0 62.7649 15.7572 989 78.7472 109.193 509.631
2037 0 61.5565 16.0503 988 79.3806 110.073 509.589
2038 0 64.5644 14.2184 918 81.5882 110.627 509.17
2039 0 64.5629 15.0396 971 81.0288 111.344 507.567
2040 0 66.5851 14.8081 986 81.7799 111.073 506.043
2041 0 71.6723 16.4917 1182 77.2809 111.001 507.566
2042 0 70.4205 14.7826 1041 80.8943 111.132 505.45
2043 0 71.4663 14.9721 1070 81.4065 110.848 501.237
2044 0 74.5897 14.7339 1099 81.4231 110.919 501.947
2045 0 77.4549 15.8544 1228 79.2801 110.808 502.266
2046 0 80.4021 15.4847 1245 79.698 109.636 500.796
2047 0 82.6797 16.2918 1347 78.1678 110.659 500.689
2048 0 85.5137 15.7168 1344 78.5826 110.66 499.17
2049 0 88.5878 15.9841 1416 77.7867 110.805 497.55
2050 0 91.3739 15.2341 1392 79.1667 110.623 494.485
2051 0 93.5775 15.4311 1444 78.3269 110.751 495.355
2052 0 97.3449 15.4502 1504 78.4707 110.182 492.028
2053 0 101.678 15.9227 1619 77.2329 110.501 492.838
2054 0 104.647 16.0348 1678 77.4768 109.95 490.906
2055 1 56.6176 12.9818 735 79.1048 109.249 510.826
2056 0 56.4807 14.0225 792 77.5215 110.193 512.537
2057 0 59.7137 13.9834 835 78.2132 110.37 509.315
2058 0 62.3946 14.3923 898 77.1047 110.481 509.38
2059 0 63.5329 14.1659 900 76.6033 109.858 510.447
2060 0 63.513 15.0835 958 81.0741 110.501 504.826
2061 0 63.3971 11.6094 736 85.2568 110.166 506.383
2062 0 69.8272 14.8653 1038 80.0713 109.924 504.963
2063 0 72.6666 15.4266 1121 78.157 109.146 506.483
2064 0 73.6021 13.5594 998 82.2204 111.018 504.062
2065 0 75.4937 15.9748 1206 78.7645 110.328 504.865
2066 0 76.3404 15.837 1209 79.3664 109.792 503.345
2067 0 79.4326 15.4848 1230 80.2707 109.48 502.17
2068 0 83.4691 16.6409 1389 78.2657 109.932 499.899
2069 0 85.5976 15.4911 1326 79.589 109.929 500.598
2070 0 87.4321 15.8866 1389 79.0792 110.17 499.947
2071 0 89.7077 14.3912 1291 82.2719 109.706 495.629
2072 0 91.6583 15.8305 1451 79.3977 109.217 498.451
2073 0 97.5954 13.8019 1347 82.0015 108.889 496.928
2074 0 96.5297 15.5393 1500 81.2627 109.015 491.952
2075 0 100.612 15.1971 1529 80.4814 109.039 492.912
2076 0 104.577 17.4608 1826 76.8653 109.159 491.737
2077 0 107.808 15.9264 1717 79.0984 109.302 490.196
2078 0 108.483 15.0991 1638 80.8718 110.075 489.457
2079 0 115.665 16.1847 1872 78.2051 109.292 487.267
2080 0 117.579 15.8531 1864 79.4608 109.178 484.641
2081 1 60.341 13.8214 834 80.1103 109.008 509.097
2082 0 62.5821 14.461 905 79.2475 110.169 508.272
2083 0 64.3297 15.2651 982 78.9002 110.239 507.891
2084 0 65.4704 15.1977 995 78.8563 110.19 508.063
2085 0 66.4095 14.6365 972 79.3241 109.727 507.46
2086 0 69.4902 15.4698 1075 78.3014 110.05 505.62
2087 0 71.3316 15.0845 1076 79.3374 109.817 504.884
2088 0 70.2155 14.2134 998 81.1273 110.112 504.66
2089 0 76.5086 15.2663 1168 78.6284 110.229 504.626
2090 0 77.6155 15.2805 1186 79.7774 110.579 501.213
2091 0 79.6144 15.7384 1253 79.5044 109.945 500.393
2092 0 81.7273 14.4505 1181 81.536 110.23 500.179
2093 0 84.7768 15.4288 1308 80.3761 109.82 499.049
2094 0 86.4424 15.6173 1350 80.1719 109.359 498.382
2095 0 88.3713 16.408 1450 78.8738 110.206 497.154
2096 0 91.409 14.8125 1354 80.9867 109.791 495.841
2097 0 93.3714 14.6512 1368 81.133 109.806 495.365
2098 0 95.9764 15.8268 1519 79.266 110.212 495.224
2099 0 99.4069 15.683 1559 79.3297 109.89 493.439
2100 0 102.33 16.0853 1646 78.4241 110.337 492.272
2101 0 105.566 14.9954 1583 80.4782 109.727 488.466
2102 0 111.486 16.0827 1793 78.5778 109.948 487.267
2103 0 113.425 16.0106 1816 78.8139 109.654 484.649
2104 0 117.682 16.9864 1999 76.7764 110.223 485.188
2105 0 121.641 15.4142 1875 79.4619 109.623 482.407
2106 0 124.369 15.1003 1878 80.9462 109.71 480.036
2107 1 56.4314 13.9107 785 76.8662 110.675 512.731
2108 0 56.4844 12.6938 717 79.3194 109.432 511.848
2109 0 58.2113 14.3443 835 78.982 109.035 510.787
2110 0 59.3903 13.8575 823 80.0608 109.136 509.55
2111 0 63.8383 15.8369 1011 76.8991 109.328 509.349
2112 0 64.5547 14.3599 927 79.2535 110.379 508.75
2113 0 65.6204 14.9953 984 79.0041 109.574 508.032
2114 0 66.4329 15.8506 1053 78.3343 109.545 507.633
2115 0 68.4304 15.2856 1046 79.3155 109.661 505.499
2116 0 67.3331 14.2575 960 81.4542 110.161 506.604
2117 0 71.6019 14.7063 1053 80.9326 109.78 506.442
2118 0 73.5539 14.1529 1041 81.8425 110.635 506.007
2119 0 76.6684 14.8823 1141 81.5758 110.12 503.23
2120 0 78.6311 15.7699 1240 79.7669 109.268 504.701
2121 0 80.5439 15.5195 1250 80.7608 109.98 501.768
2122 0 83.5938 15.7548 1317 80.3926 110.437 500.442
2123 0 85.4233 16.4592 1406 79.229 109.931 499.6
2124 0 87.7019 14.9142 1308 81.1651 110.125 501.292
2125 0 89.3965 15.0118 1342 82.4359 109.696 497.522
2126 0 93.5487 14.4096 1348 82.928 110.583 496.91
2127 0 94.6474 13.0484 1235 85.5725 110.755 491.062
2128 0 98.7375 13.4701 1330 84.4985 110.449 492.542
2129 0 104.691 16.4579 1723 79.2467 110.162 490.561
2130 0 106.921 15.0672 1611 81.4289 109.831 490.775
2131 1 49.4498 15.0051 742 76.1186 109.604 516.868
2132 0 51.7243 13.282 687 77.8777 109.881 517.328
2133 0 53.6222 14.6395 785 77.5758 111.087 514.789
2134 0 55.3693 13.9247 771 78.2127 111.066 512.789
2135 0 53.3874 13.0181 695 81.4201 110.05 512.01
2136 0 55.5445 14.2048 789 79.5843 110.474 511.734
2137 0 60.7788 15.3672 934 77.7463 110.939 512.528
2138 0 60.6042 16.88 1023 76.1349 111.081 511.935
2139 0 60.6367 15.8155 959 77.7529 111.617 511.714
2140 0 63.4729 15.676 995 77.8342 110.401 512.305
2141 0 62.6934 16.3335 1024 78.5 111.118 508.403
2142 0 65.5952 14.6505 961 79.8512 110.929 508.792
2143 0 66.6453 15.0948 1006 79.3569 111.086 507.717
2144 0 68.3299 14.6641 1002 79.985 110.496 506.462
2145 0 72.577 16.6857 1211 76.7531 110.55 504.814
2146 0 72.4767 15.1083 1095 79.0283 110.321 506.137
2147 0 75.8143 16.1975 1228 77.307 109.746 504.314
2148 0 76.3229 15.9454 1217 78.2983 109.776 501.482
2149 0 82.535 15.5692 1285 76.3136 108.67 501.704
2150 0 83.7005 16.1887 1355 76.4413 109.638 498.184
2151 0 88.5217 15.5442 1376 76.2565 109.416 498.491
2152 0 88.428 15.5607 1376 77.2682 109.17 496.047
2153 0 86.502 13.2251 1144 81.5009 108.642 495.165
2154 0 90.3584 14.4646 1307 79.1354 109.202 496.275
2155 0 87.802 15.8994 1396 79.8302 109.391 495.854
2156 0 87.6264 16.4106 1438 80.7566 109.273 497.437
2157 0 87.5337 14.5887 1277 82.426 109.86 496.881
2158 0 90.8129 15.8347 1438 80.6474 109.511 495.937
2159 0 92.6282 15.9239 1475 79.6908 109.523 498.159
2160 0 96.7142 14.6411 1416 81.3891 109.637 494.92
2161 0 95.9297 16.3245 1566 80.7822 110.068 493.033
2162 0 98.5769 14.9731 1476 82.6436 109.547 491.692
2163 0 100.55 15.3356 1542 81.8398 110.45 491.179
2164 0 104.258 15.289 1594 81.3011 109.371 492.144
2165 0 107.052 15.4504 1654 81.159 109.682 489.88
2166 0 110.721 15.5074 1717 80.6203 109.893 489.507
2167 0 115.331 15.2257 1756 80.8104 108.788 487.849
2168 0 115.464 13.6579 1577 83.5701 109.503 485.347
2169 0 121.066 16.2226 1964 79.3233 108.763 484.962
2170 0 123.693 15.8861 1965 80.1603 109.938 481.688
2171 0 127.538 15.5013 1977 80.0976 109.803 482.347
2172 0 131.531 14.05 1848 82.6515 109.293 477.767
2173 0 134.655 14.1324 1903 82.382 109.476 476.608
2174 1 72.0609 15.7089 1132 77.5733 110.049 507.883
2175 0 71.5507 11.9775 857 82.2392 109.924 507.274
2176 0 75.5171 15.5329 1173 77.9881 109.342 504.8
2177 0 77.7757 15.159 1179 78.7125 109.983 504.88
2178 0 79.8419 16.1945 1293 77.2529 108.721 504.146
2179 0 82.8389 15.1258 1253 78.1524 108.758 502.829
2180 0 82.4645 13.9575 1151 79.7889 108.98 504.053
2181 0 85.7179 14.8044 1269 79.2159 109.667 498.139
2182 0 87.6072 16.3685 1434 77.0509 109.287 496.64
2183 0 89.5692 14.6702 1314 79.8204 109.449 495.921
2184 0 95.5589 14.4309 1379 78.5714 109.525 497.077
2185 0 92.6804 14.9223 1383 81.2791 109.555 495.897
2186 0 96.7323 14.0284 1357 80.675 109.34 496.87
2187 0 98.4886 14.621 1440 80.0854 109.061 494.637
2188 0 104.036 15.4081 1603 78.7698 109.648 492.251
2189 0 104.845 15.747 1651 78.8292 109.336 490.614
2190 0 106.454 14.2784 1520 81.3342 109.741 489.849
2191 1 22.3087 10.2651 229 68.9389 109.821 529.275
2192 0 22.6888 13.9717 317 68.2208 109.502 527.792
2193 0 23.6269 11.47 271 70.8708 109.162 528.406
2194 0 23.316 14.6251 341 68.5161 109.54 528.633
2195 0 22.6853 13.7093 311 70.1061 109.582 528.707
2196 0 21.8579 11.9408 261 71.9004 109.908 529.069
2197 0 23.895 11.5505 276 72.6703 109.696 528.649
2198 0 22.3956 14.5564 326 70.7393 110.037 529.193
2199 0 21.31 15.2041 324 73.8272 109.343 527.012
2200 0 20.7134 10.5246 218 76.9679 109.394 529.436
2201 0 21.6419 13.6772 296 75.1959 108.905 528.703
2202 0 21.7898 10.9225 238 78.0168 109.248 530.101
2203 0 23.4587 13.4705 316 75.5348 110.123 529.079
2204 1 75.9975 18.1848 1382 82.623 109.889 505.98
2205 0 75.3537 16.6946 1258 87.1017 109.36 503.268
2206 0 77.2855 15.7727 1219 87.8819 109.415 505.916
2207 0 78.9008 16.2483 1282 88.6264 109.735 502.918
2208 1 27.5335 14.4188 397 78.9723 109.144 527.332
2209 0 25.7271 13.1768 339 82.8201 109.678 527.702
2210 0 29.7186 13.1231 390 80.6077 109.623 527.241
2211 0 27.6497 14.8645 411 81.5207 110.136 527.467
2212 0 26.8999 11.8216 318 54.9843 109.406 523.311
