time division length width area intensity CMx CMy
0 0 42.0212 11.0658 465 51.2452 1333.04 509.701
1 0 42.0617 10.1755 428 51.3692 1332.9 511.745
2 0 42.0453 10.9406 460 51.1761 1332.38 511.352
3 0 45.0436 12.1438 547 49.351 1332.83 508.665
4 0 45.1074 12.0601 544 48.9871 1332.57 510.686
5 0 48.1435 12.4835 601 48.4576 1332.33 508.476
6 0 48.0674 11.1718 537 49.7467 1332.19 509.177
7 0 49.0636 11.1896 549 49.8579 1331.9 508.297
8 0 49.0677 11.7593 577 49.5702 1332.19 503.901
9 0 49.0741 9.82189 482 51.5145 1331.49 504.212
10 0 52.0541 11.392 593 49.3491 1331.41 506.582
11 0 53.0807 13.2628 704 47.5071 1331.97 504.697
12 0 55.1014 12.3409 680 47.8221 1332.07 504.753
13 0 57.0618 11.0932 633 48.5877 1332.02 505.172
14 0 58.181 12.0142 699 48.2389 1331.31 501.454
15 0 58.0543 10.4041 604 49.3907 1332.07 498.589
16 0 60.074 11.8521 712 48.375 1331.61 499.404
17 0 63.1376 9.61392 607 50.1697 1331.88 501.499
18 0 62.1836 9.71317 604 50.3295 1331.42 499.488
19 0 63.1388 10.3581 654 50.289 1331.54 498.917
20 0 70.0616 13.431 941 47.0638 1331.81 498.34
21 1 34.01 12.7904 435 46.3241 1331.94 515.977
22 0 36.0241 10.2431 369 48.4309 1331.03 515.873
23 0 36.022 9.41091 339 50.1652 1330.53 515.286
24 0 38.0563 10.3268 393 49.1425 1331.61 514.201
25 0 39.0835 12.3326 482 48.3734 1330.96 514.293
26 0 39.0734 11.568 452 49.3075 1331.07 511.971
27 0 40.0896 11.15 447 50.0649 1332.23 511.953
28 0 42.1225 12.0363 507 50.0888 1331.67 511.321
29 0 41.0254 10.6032 435 51.8874 1331.68 512.207
30 0 45.0221 13.3934 603 49.126 1332.06 509.912
31 0 46.0259 11.9281 549 50.2969 1332.12 511.304
32 0 46.0929 12.605 581 50.654 1332.64 509.09
33 0 49.0806 14.2215 698 49.1905 1332.22 508.716
34 0 49.055 12.4554 611 51.4026 1332.39 507.188
35 0 50.1166 11.6927 586 51.4932 1332.25 509.829
36 0 53.0358 11.2754 598 52.2492 1333.33 506.385
37 0 54.0846 11.9812 648 51.3858 1332.98 507.557
38 0 57.0847 12.0698 689 51.9144 1332.08 506.213
39 0 58.0278 12.7353 739 51.1854 1332.15 505.721
40 0 58.1172 11.2531 654 52.7859 1332.91 504.387
41 0 61.138 13.952 853 50.34 1332.36 504.429
42 0 65.016 12.4585 810 51.2272 1333.18 502.553
43 0 65.0356 11.8704 772 52.6451 1332.56 500.398
44 0 66.0786 11.6982 773 52.5964 1333.32 500.634
45 0 71.1494 12.2419 871 51.403 1332.53 502.707
46 0 72.0489 12.9079 930 51.7731 1333.26 495.963
47 0 71.086 10.2974 732 54.0587 1334.72 495.385
48 1 37.0188 7.5097 278 54.0755 1333.82 514.885
49 0 41.0134 9.99674 410 51.1902 1334.17 515.698
50 0 40.0288 10.0927 404 52.8886 1334.22 513.243
51 0 43.0393 10.1767 438 52.6119 1334.31 510.6
52 0 46.0811 11.61 535 50.8561 1334.03 513.279
53 0 45.0278 9.83836 443 53.8962 1334.53 507.363
54 0 47.0369 11.1614 525 51.64 1334.65 510.345
55 0 48.0152 11.8504 569 52.522 1334.17 506.657
56 0 52.074 11.4068 594 51.9158 1333.98 507.281
57 0 50.0449 10.0909 505 53.8277 1334.86 505.881
58 0 56.1348 14.5008 814 48.5995 1335.25 506.491
59 0 55.0511 12.552 691 51.1331 1334.5 504.096
60 0 56.0816 12.5353 703 51.6017 1334.86 503.275
61 0 58.2036 12.2501 713 52.2581 1334.02 502.945
62 0 61.0767 12.296 751 51.6178 1333.94 505.419
63 0 60.1402 10.4922 631 54.2361 1334.23 500.171
64 0 60.0496 8.80939 529 55.8715 1333.75 500.369
65 0 63.0441 9.43784 595 55.8924 1333.94 496.508
66 0 68.1094 10.63 724 54.4254 1334.39 497.472
67 0 69.1138 13.8323 956 51.8243 1334.45 494.668
68 0 73.0957 11.6286 850 53.9494 1333.6 496.793
69 0 75.2483 11.6149 874 53.96 1333.94 496.462
70 0 75.0673 12.0292 903 53.7032 1333.58 497.05
71 0 79.0741 11.1794 884 53.7296 1333.73 496.584
72 0 81.156 12.0139 975 54.2164 1333.43 491.887
73 0 86.0778 12.3261 1061 53.4637 1332.69 494.188
74 0 87.099 12.1241 1056 53.91 1332.74 491.451
75 0 89.2404 11.3402 1012 55.2253 1333.04 487.545
76 0 90.0794 10.413 938 55.7015 1333.62 486.413
77 0 94.0904 11.4677 1079 54.7933 1333.74 485.525
78 0 96.1672 11.3032 1087 55.0478 1333.71 480.662
79 0 97.113 10.4826 1018 55.8752 1333.47 480.168
80 0 104.18 11.7776 1227 54.5306 1333.25 479.324
81 1 55.038 10.302 567 53.0494 1334.35 504.464
82 0 60.1137 12.3433 742 50.5202 1334.32 503.123
83 0 58.0449 9.64771 560 53.8071 1333.77 500.968
84 0 62.1064 8.71086 541 53.7209 1334.23 504.004
85 0 65.1821 11.0767 722 51.6953 1334.55 501.273
86 0 66.1211 12.1746 805 51.7627 1334.55 496.108
87 0 68.0795 12.2357 833 51.6519 1334.7 496.796
88 0 72.0981 11.7756 849 52.4087 1334.59 494.568
89 0 72.099 11.6645 841 52.5137 1334.98 492.482
90 0 75.1938 12.7138 956 52.2427 1333.8 493.61
91 0 77.073 12.4427 959 53.2409 1334.28 491.033
92 0 78.0653 11.9259 931 53.7164 1334.74 488.823
93 0 81.1696 11.4205 927 54.8781 1334.63 489.462
94 0 83.1357 10.5009 873 55.9221 1334.95 487.582
95 0 86.1444 11.3414 977 55.0921 1334.66 490.614
96 1 41.0913 9.63707 396 54.6414 1334.19 510.879
97 0 43.0413 10.548 454 54.3194 1335.04 509.163
98 0 42.0281 8.66086 364 56.5467 1335.18 507.19
99 0 46.0322 11.9699 551 53.7114 1334.63 508.615
100 0 47.1195 10.3354 487 55.0965 1334.19 508.708
101 0 47.0232 10.229 481 55.1081 1334.91 507.707
102 0 51.062 10.5754 540 54.9685 1334.76 506.846
103 0 52.0583 11.4487 596 54.651 1335.21 503.18
104 0 53.211 10.8812 579 54.848 1335.48 503.864
105 0 56.0832 11.8574 665 54.2902 1334.66 503.893
106 0 55.0288 10.9216 601 55.2446 1334.91 503.571
107 0 56.0613 10.8274 607 55.7776 1335.04 501.201
108 0 62.0751 11.7438 729 54.1728 1334.95 502.06
109 0 63.0711 12.034 759 54.1976 1335.19 499.651
110 0 65.173 12.5665 819 54.4872 1333.67 500.392
111 0 63.1934 11.8683 750 56.3507 1333.39 498.208
112 0 68.2466 11.2826 770 56.3169 1333.85 499.035
113 0 70.1082 11.0829 777 56.6384 1334.46 495.879
114 0 71.0611 12.0741 858 56.7238 1334.07 493.92
115 0 75.1275 11.8066 887 56.6821 1334.29 492.904
116 0 76.1414 12.306 937 56.588 1334.09 493.943
117 0 78.1214 13.7094 1071 55.2568 1334.82 489.762
118 0 82.0804 14.6686 1204 54.0365 1335.21 491.374
119 0 84.076 13.2023 1110 55.7793 1335.37 489.051
120 0 88.0781 14.1579 1247 54.3256 1335.02 490.74
121 1 44.0444 10.8073 476 54.8655 1335.1 510.174
122 0 45.0271 11.1266 501 54.6467 1335.57 508.613
123 0 47.0225 10.8246 509 54.002 1335.15 509.862
124 0 47.1016 11.7618 554 53.7653 1335.44 507.448
125 0 47.0075 10.1686 478 56.3808 1334.33 507.128
126 0 49.0297 10.6466 522 55.8678 1334.21 506.435
127 0 51.0766 12.1191 619 54.3037 1333.84 505.974
128 0 53.0656 13.0216 691 53.6179 1334.42 502.747
129 0 52.0959 11.4021 594 55.7811 1335.26 502.588
130 0 55.1872 12.1405 670 54.6075 1334.26 503.616
131 0 55.0983 9.41953 519 57.6262 1333.88 504.254
132 0 59.0802 11.9499 706 54.7422 1334.26 501.806
133 0 60.0785 10.8192 650 56.1262 1334.88 499.937
134 0 63.3801 11.6125 736 55.5435 1334.66 499.133
135 0 65.0356 12.4701 811 54.9642 1334.25 499.332
136 0 65.0374 12.3467 803 54.8643 1334.75 498.658
137 0 68.0997 11.4685 781 56.5237 1334.64 497.188
138 0 71.0835 11.0011 782 57.1637 1334.7 495.436
139 0 74.155 12.5413 930 56.3774 1334.4 493.831
140 0 76.1367 12.2411 932 56.3391 1335.42 493.938
141 0 76.1262 12.3742 942 57.6008 1335.2 491.166
142 1 38.0249 9.78307 372 56.7366 1335.57 511.234
143 0 38.0157 10.1274 385 58.6883 1334.42 507.984
144 0 42.0406 10.5136 442 57.8326 1334.19 508.706
145 0 44.1024 11.7681 519 55.6532 1335.26 508.372
146 0 45.0583 13.2717 598 55.0201 1334.4 506.134
147 0 47.0789 11.9162 561 56.2193 1334.27 509.977
148 0 46.0894 11.3692 524 58.1927 1333.98 506.357
149 0 50.1205 11.5522 579 56.8653 1334 507.523
150 0 49.0671 10.6793 524 58.8321 1333.82 506.271
151 0 50.1198 10.3352 518 59.5367 1334.65 505.301
152 0 53.1537 11.4197 607 58.028 1334.06 504.819
153 0 55.0394 11.8097 650 58.3446 1333.65 502.869
154 0 56.1132 11.655 654 58.2737 1333.94 501.781
155 0 58.0813 11.8283 687 57.2984 1334.24 503.236
156 0 62.0449 12.0236 746 56.248 1335.05 503.005
157 0 62.0537 11.8929 738 57.5434 1334.56 499.322
158 0 63.0649 10.5447 665 58.6241 1334.57 500.152
159 0 66.125 11.5236 762 58.0223 1334.39 499.077
160 0 69.2595 11.6085 804 56.6505 1335.38 499.178
161 0 70.1588 12.1439 852 57.7664 1335.34 496.41
162 0 71.0958 11.815 840 58.0429 1334.88 496.521
163 0 76.1334 13.7259 1045 55.5158 1334.9 496.275
164 0 78.1658 11.4372 894 58.4474 1335.41 494.385
165 0 78.219 10.624 831 60.1637 1335.1 491.777
166 1 40.0407 10.9139 437 55.5858 1335.99 511.73
167 0 41.0965 11.1445 458 56.4127 1335.95 508.221
168 0 44.0421 11.0576 487 55.9363 1336.29 509.244
169 0 45.0234 10.8166 487 57.1745 1335.87 507.158
170 0 46.0718 10.2666 473 58.8076 1335.13 506.721
171 0 46.1043 10.4762 483 58.1843 1335.49 506.228
172 0 48.0174 11.0793 532 57.8665 1335.26 505.346
173 0 50.0856 11.3006 566 57.3039 1335.89 504.041
174 0 53.0182 10.8265 574 57.7352 1335.35 505.199
175 0 54.0456 12.8595 695 55.9223 1335.08 503.117
176 0 55.1027 12.5584 692 56.9003 1333.76 501.766
177 0 56.0782 12.0011 673 57.8886 1333.85 501.135
178 0 57.0763 10.5998 605 60.0116 1334.21 500.694
179 0 58.0472 12.9033 749 56.4192 1334.94 499.814
180 0 61.0353 11.6654 712 57.382 1334.47 500.969
181 0 63.0656 11.3533 716 58.1522 1333.73 501.704
182 0 64.104 11.4189 732 57.0615 1333.61 501.478
183 0 65.0851 13.3056 866 57.567 1332.48 498.179
184 0 67.0562 11.6171 779 59.2131 1332.22 497.239
185 0 68.0525 12.1083 824 58.4867 1331.86 498.453
186 0 73.0488 12.608 921 57.797 1332.32 495.206
187 0 73.0597 12.8525 939 57.9201 1332.12 493.809
188 0 75.0913 11.8656 891 59.716 1331.68 492.82
189 0 78.0443 12.4288 970 59.0784 1331.69 491.237
190 0 81.106 13.2049 1071 58.5602 1331.12 490.244
191 0 84.1101 12.8998 1085 58.9327 1330.23 491.356
192 0 84.0555 11.9683 1006 60.325 1330.01 488.46
193 0 89.089 12.4707 1111 59.3807 1331.05 489.027
194 1 46.1267 12.5958 581 57.0224 1330.41 509.651
195 0 48.1096 9.35364 450 60.8333 1330.2 510.2
196 0 47.0678 9.45444 445 60.0562 1330.69 511.984
197 0 50.0549 12.2066 611 57.6416 1330.73 509.66
198 0 53.0538 11.4412 607 58.2982 1330.29 509.211
199 0 55.0678 11.9852 660 57.8242 1330.4 509.074
200 0 56.079 12.6429 709 56.354 1330.66 509.216
201 0 56.0937 11.2669 632 59.1519 1330.17 507.666
202 0 57.0698 11.1618 637 58.5212 1329.74 508.133
203 0 60.1356 11.0251 663 58.4208 1329.67 507.854
204 0 59.2226 10.165 602 59.8837 1330.2 508.154
205 0 63.1254 10.4712 661 58.8185 1329.89 507.201
206 0 65.1715 13.7637 897 55.0669 1330.12 506.013
207 0 68.1004 12.4228 846 57.0426 1330.36 503.291
208 0 70.1731 12.3552 867 56.624 1330.58 503.912
209 0 70.1957 12.2942 863 57.4287 1330.84 500.849
210 0 73.14 13.8365 1012 55.8063 1329.92 500.132
211 0 75.0719 11.8287 888 57.3255 1330.05 500.591
212 0 76.3017 12.6734 967 57.2451 1329.58 497.046
213 0 78.1552 11.1957 875 58.704 1329.06 498.704
214 0 79.1561 11.1931 886 59.4718 1328.86 497.509
215 0 82.228 12.6478 1040 58.075 1328.4 497.116
216 0 84.1254 11.1262 936 59.7917 1328.2 497.306
217 1 44.0765 10.1641 448 59.0424 1328.01 514.484
218 0 47.0928 11.6578 549 58.1166 1327.2 511.84
219 0 49.0539 11.9868 588 57.2449 1328.24 514.029
220 0 49.0547 10.6208 521 58.5144 1328.29 513.875
221 0 51.0791 12.3142 629 57.2814 1328.42 510.437
222 0 52.0352 11.8766 618 57.4434 1328.86 511.165
223 0 50.0627 11.4057 571 59.718 1329.23 508.835
224 0 57.0627 13.2135 754 56.248 1328.19 508.338
225 0 56.0206 11.8885 666 58.4204 1328.59 508.012
226 0 58.1051 12.2365 711 58.3586 1328.43 505.255
227 0 59.0534 12.1754 719 58.3574 1328.41 506.853
228 0 62.0881 12.144 754 57.9894 1328.95 506.863
229 0 62.0602 12.0206 746 58.6716 1328.72 504.971
230 0 64.0958 14.1039 904 56.74 1328.76 501.377
231 0 66.1248 12.2949 813 58.706 1328.69 501.517
232 0 70.1532 13.6416 957 56.2936 1329.09 502.857
233 0 71.1585 15.2898 1088 55.4026 1329.04 500.601
234 0 72.17 12.7754 922 58.8037 1328.03 499.445
235 0 74.1055 13.1164 972 59.25 1327.87 497.364
236 0 74.1218 12.6683 939 60.0586 1328.41 495.815
237 0 77.0968 12.0887 932 60.3809 1328.46 493.426
238 0 80.1167 13.5303 1084 59.0304 1328.29 493.938
239 0 80.2063 12.9167 1036 59.7297 1328.98 492.567
240 0 85.2034 13.7788 1174 58.9974 1328.57 489.87
241 0 88.1575 13.1016 1155 59.3887 1328.31 490.122
242 1 47.0831 10.0248 472 60.8093 1328.67 510.754
243 0 51.0792 11.629 594 59.2054 1329.33 507.475
244 0 50.0264 10.7343 537 61.2235 1328.04 507.81
245 0 51.0639 12.6508 646 60.7183 1328.82 503.455
246 0 56.1208 13.0255 731 58.3789 1328.87 505.542
247 0 57.1393 12.6008 720 59.4625 1328.66 505.311
248 0 56.0736 12.6263 708 60.5014 1328.62 503.982
249 0 59.034 12.8909 761 58.8883 1329.66 504.394
250 0 62.03 12.897 800 59.045 1328.88 504.151
251 0 60.0731 11.4694 689 60.9042 1329.61 504.747
252 0 63.1095 12.3436 779 59.5289 1329.85 504.185
253 0 67.0643 13.584 911 57.3008 1329.43 504.507
254 0 70.1179 14.4328 1012 55.834 1330.03 504.448
255 0 70.1083 12.3095 863 58.8285 1330.05 502.612
256 0 72.2567 13.4797 974 58.117 1329.78 499.44
257 0 76.1073 13.3102 1013 57.5064 1330.27 498.223
258 0 78.2073 11.6869 914 59.5405 1330.13 497.858
259 0 79.1288 12.6124 998 59.0701 1328.49 495.711
260 0 83.0887 13.0463 1084 57.595 1329.92 496.315
261 1 41.1388 10.3552 426 57.3263 1330.38 515.737
262 0 44.1331 10.4683 462 56.4978 1329.55 516.084
263 0 45.018 11.7064 527 55.8482 1329.85 515.068
264 0 45.0266 10.6159 478 58.8703 1329.04 511.571
265 0 49.0762 11.6757 573 55.9511 1329.08 512.454
266 0 51.1116 12.7368 651 55.51 1328.52 509.903
267 0 50.1134 11.893 596 57.3188 1328.12 508.893
268 0 50.0586 10.208 511 59.0587 1329.17 508.857
269 0 53.0915 12.7139 675 56.0385 1329.47 510.019
270 0 54.1294 10.9183 591 58.6091 1328.12 508.797
271 0 58.0459 12.4901 725 56.1559 1328.5 508.263
272 0 59.1203 12.7706 755 56.9377 1328.61 504.211
273 0 61.0908 13.3408 815 55.746 1327.92 505.767
274 0 61.1809 11.6376 712 58.1545 1327.74 506.156
275 0 64.141 12.4725 800 56.5538 1327.89 503.821
276 0 66.2477 11.9551 792 56.596 1328.41 504.665
277 0 69.3661 13.5657 941 54.7503 1327.99 502.235
278 0 72.1864 13.7145 990 54.8232 1327.61 500.689
279 0 72.2057 11.8966 859 56.9395 1327.83 499.953
280 0 75.2067 12.6717 953 56.1584 1327.12 500.583
281 0 77.1988 12.2282 944 55.7807 1327.77 501.502
282 0 79.067 12.306 973 56.1542 1327.98 499.245
283 1 43.0179 9.8796 425 53.9012 1327.65 518.287
284 0 42.1198 10.6363 448 55.1451 1327.59 514.022
285 0 44.0474 8.74058 385 54.8571 1327 518.016
286 0 47.0387 11.5012 541 52.9834 1327.59 515.684
287 0 46.0188 11.6692 537 52.9534 1327.99 515.331
288 0 48.034 10.9298 525 54.1733 1327.72 514.021
289 0 51.0963 10.9988 562 53.4217 1327.78 512.422
290 0 48.1408 10.3862 500 55.58 1327.64 511.116
291 0 53.2769 11.1681 595 53.4857 1327.95 512.489
292 0 52.0762 11.1759 582 53.866 1327.81 512.95
293 0 56.1534 10.596 595 53.7866 1328.15 510.681
294 0 58.0996 11.704 680 52.5912 1328.01 509.922
295 0 57.1008 11.5585 660 53.0424 1327.67 508.647
296 0 60.089 13.3802 804 50.8383 1327.71 507.437
297 0 61.2569 11.3457 695 53.3353 1327.04 504.758
298 0 65.1156 12.6544 824 51.8216 1327.21 503.329
299 0 64.1962 11.9633 768 53.0208 1326.87 502.04
300 0 69.2472 13.5024 935 50.4652 1327.49 504.05
301 0 69.2187 11.3987 789 53.0215 1327.51 497.572
302 0 72.0783 11.6679 841 52.5161 1325.73 498.926
303 0 73.2028 11.393 834 52.7602 1326.31 499.782
304 1 36.0983 10.4714 378 52.2725 1326.51 515.071
305 0 39.0457 10.0139 391 51.5115 1326.38 516.189
306 0 41.1083 7.63835 314 53.9554 1326.6 517.057
307 0 43.0487 12.2652 528 50.0701 1326.59 514.066
308 0 42.0609 9.55758 402 52.0846 1327.12 517.092
309 0 46.0274 10.9283 503 51.4493 1326.61 512.34
310 0 47.0701 10.8986 513 52.0156 1327.27 512.747
311 0 47.0916 11.7218 552 51.4293 1327.28 512.864
312 0 47.1208 11.2689 531 52.5273 1326.44 510.661
313 0 51.049 11.1266 568 52.6831 1326.42 510.952
314 0 50.0558 12.1065 606 51.9241 1326.55 510.292
315 0 50.083 9.60405 481 54.8046 1326.66 509.22
316 0 55.0851 11.5095 634 52.7808 1326.67 509.787
317 0 56.1436 11.2925 634 53.1735 1327.05 508.543
318 0 57.0535 12.3218 703 52.7098 1326.46 506.017
319 0 60.065 14.451 868 50.5749 1326.94 505.857
320 0 64.0977 14.2907 916 50.2314 1326.53 505.965
321 0 60.1084 10.1151 608 56.0033 1325.97 504.123
322 0 63.0937 11.998 757 53.605 1327.17 504.764
323 0 67.0664 11.9881 804 53.5535 1326.93 503.325
324 0 67.1282 12.2899 825 54.7382 1325.88 499.552
325 0 68.2223 11.184 763 55.7759 1326.78 501.48
326 0 72.0593 11.6432 839 55.1764 1327.14 499.714
327 0 73.0691 11.8518 866 55.5635 1326.56 498.968
328 0 77.132 13.4056 1034 53.7021 1326.9 498.459
329 0 79.0801 14.9342 1181 52.7079 1326.85 498.854
330 0 79.0543 12.7634 1009 55.9564 1326.73 494.193
331 0 85.154 14.9142 1270 53.2669 1327.14 494.091
332 0 85.1489 11.568 985 57.6985 1326.32 490.446
333 0 88.0814 12.829 1130 56.1752 1326.51 492.746
334 0 91.2466 11.31 1032 57.6831 1326.83 492.643
335 0 94.2398 12.7653 1203 56.6741 1326.05 490.604
336 1 49.0583 11.2315 551 56.2632 1326.69 511.352
337 0 51.0179 11.5646 590 56.9237 1326.58 509.125
338 0 53.0972 11.3377 602 56.7209 1326.49 510.09
339 0 55.048 13.3338 734 54.406 1327.53 507.452
340 0 55.0936 10.6728 588 57.2653 1327.29 509.128
341 0 55.0517 11.3348 624 56.9567 1327.34 506.413
342 0 60.1049 11.3801 684 56.9985 1326.79 504.844
343 0 58.0806 10.6576 619 58.315 1326.9 504.236
344 0 61.0705 11.8879 726 56.6846 1326.87 501.081
345 0 64.229 12.2997 790 55.9443 1326.59 501.567
346 0 67.0884 11.2091 752 56.6769 1326.7 503.1
347 0 69.0801 12.6375 873 55.323 1327.88 500.535
348 0 68.1548 11.2098 764 57.0668 1327.25 500.963
349 0 73.1684 11.7674 861 56.0987 1326.56 499.82
350 0 74.099 11.1473 826 56.4613 1327.53 498.119
351 0 78.1757 11.8579 927 55.8684 1327.83 496.054
352 0 78.0924 10.0394 784 57.6952 1327.76 493.784
353 0 81.1156 11.3788 923 56.7291 1327.42 492.042
354 0 85.1849 11.7157 998 56.3968 1326.85 489.242
355 0 88.0773 11.4899 1012 55.2036 1327.42 493.827
356 0 92.0808 12.9452 1192 54.7735 1326.92 487.419
357 0 95.174 11.8205 1125 56.2196 1327.23 485.56
358 1 50.0471 12.1286 607 53.6837 1328.04 506.733
359 0 52.0339 13.3375 694 51.9813 1328.07 509.733
360 0 53.0684 12.1918 647 53.9104 1327.56 508.108
361 0 54.1119 11.8089 639 54.6495 1327.96 505.718
362 0 54.1001 11.3309 613 55.8777 1327.33 503.279
363 0 60.0842 11.617 698 54.9656 1328.43 504.5
364 0 59.0967 11.2358 664 55.9864 1328.56 502.485
365 0 62.0219 10.8833 675 56.1556 1327.91 503.212
366 0 62.05 12.7639 792 54.7513 1328.56 501.621
367 0 66.1046 12.2382 809 54.3164 1328.62 502.109
368 0 67.0779 11.509 772 55.3627 1328.36 501.794
369 0 68.0923 11.176 761 56.2957 1328.27 498.92
370 0 70.0975 11.3128 793 55.8676 1327.87 499.145
371 0 71.148 10.9209 777 56.8121 1327.93 497.837
372 0 75.1035 10.8916 818 56.6589 1327.73 497.841
373 0 79.1605 12.8221 1015 54.7241 1327.15 495.106
374 0 80.0745 10.7775 863 56.9282 1328.49 494.808
375 1 38.0401 7.67612 292 56.6541 1329.33 514.575
376 0 43.0105 11.1833 481 52.6216 1329.41 512.994
377 0 40.0729 7.73591 310 57.6323 1328.93 510.703
378 0 45.0574 11.6962 527 53.0892 1328.19 510.588
379 0 46.0321 10.2972 474 54.2257 1328.11 511.044
380 0 45.0521 9.87746 445 55.4135 1327.43 510.589
381 0 49.097 10.6116 521 54.023 1327.17 511.637
382 0 51.0581 11.8492 605 53.3587 1326.65 509.284
383 0 50.0513 11.5481 578 54.0242 1327.1 506.806
384 0 53.0511 10.3297 548 54.9544 1327.84 506.843
385 0 54.0989 10.5732 572 55.2762 1327.64 507.327
386 0 56.0335 10.69 599 55.0785 1327.74 505.937
387 0 57.0605 12.846 733 52.8731 1327.59 506.393
388 0 61.0484 12.4983 763 53.2425 1327.01 504.469
389 0 62.0531 11.5707 718 54.2423 1327.14 502.983
390 0 63.0613 9.6097 606 55.5132 1327.67 503.366
391 0 65.0626 11.2814 734 54.4074 1327.52 500.496
392 0 67.1971 12.6791 852 53.223 1328.04 498.743
393 0 71.0925 11.7171 833 54.024 1326.77 499.275
394 0 73.0988 13.8853 1015 51.603 1326.99 498.884
395 0 76.0863 12.9458 985 52.1299 1327.31 496.947
396 0 76.1378 11.2559 857 54.3256 1326.96 496.917
397 1 39.0317 9.22328 360 54.1917 1327.16 513.467
398 0 41.0888 10.0271 412 53.0461 1327.03 513.318
399 0 42.0377 12.4174 522 49.8985 1327.44 515.134
400 0 42.0847 10.5977 446 52.157 1327.15 512.132
401 0 44.0751 11.3896 502 50.9821 1327.35 509.432
402 0 44.1169 11.1522 492 51.4776 1327.94 511.03
403 0 46.0457 10.381 478 52.2657 1327.91 510.73
404 0 47.0495 11.0522 520 51.6058 1327.87 508.615
405 0 48.1 10.6861 514 52.1946 1328.59 510.257
406 0 49.156 9.90724 487 52.8419 1327.95 510.979
407 0 52.0734 12.1175 631 51.0745 1327.87 509.767
408 0 54.0663 9.67331 523 53.153 1327.93 508.889
409 0 54.1097 10.4602 566 53.1095 1327.67 507.549
410 0 55.1243 9.83232 542 53.7362 1326.55 506.262
411 0 58.3374 11.4506 668 51.8967 1327.38 507.666
412 0 59.1205 12.4661 737 51.2524 1327.54 505.889
413 0 61.0365 12.2222 746 51.3606 1327.13 504.871
414 0 62.0878 11.7092 727 52.4553 1328.09 501.448
415 0 63.1833 9.11634 576 54.6181 1327.35 503.635
416 0 65.1389 11.2222 731 52.4938 1327.8 502.123
417 0 66.2351 9.61725 637 54.4835 1327.82 501.998
418 0 68.1192 10.2614 699 54.5479 1327.74 497.378
419 0 72.265 10.5445 762 54.0486 1327.58 498.783
420 1 36.1554 10.0123 362 52.953 1328.08 515.39
421 0 39.0096 8.33129 325 53.2831 1327.7 517.886
422 0 40.1436 10.587 425 52.7529 1327.62 514.991
423 0 41.0391 11.6474 478 52.1485 1327.19 514.186
424 0 43.1207 10.8532 468 52.5556 1327.44 513.744
425 0 42.0344 10.42 438 53.5365 1327.52 512.126
426 0 45.0352 11.9462 538 51.3011 1327.69 515.102
427 0 46.0724 10.9827 506 52.5336 1328.35 512.974
428 0 46.0405 10.469 482 53.8527 1327.9 510.539
429 0 50.0294 11.1534 558 52.7778 1327.06 512.016
430 0 49.0697 10.7398 527 53.0076 1328.45 509.903
431 0 51.1463 11.4378 585 52.1504 1328.78 508.831
432 0 54.0952 12.5889 681 51.3392 1328.76 507.323
433 0 55.0459 10.355 570 53.8386 1328.48 504.809
434 0 56.0328 11.6717 654 52.1361 1327.95 507.989
435 0 59.1087 10.9967 650 52.9292 1328.41 506.823
436 0 61.0586 13.8883 848 50.3715 1328.86 504.331
437 0 63.0999 12.0285 759 51.9631 1328.54 504.843
438 0 63.0578 9.91155 625 55.168 1327.97 502.326
439 0 68.0936 11.6898 796 53.1256 1327.9 502.644
440 0 69.1259 12.8317 887 52.5062 1326.62 499.973
441 0 69.1243 11.501 795 53.8943 1327.88 501.658
442 0 74.0469 11.8979 881 52.5006 1327.74 503.606
443 0 75.1422 13.5476 1018 51.6228 1328.36 497.047
444 1 36.1177 11.7117 423 51.156 1328.54 517.355
445 0 37.0176 11.454 424 52.2476 1327.88 516.7
446 0 39.0165 10.9697 428 52.5491 1328.24 513.93
447 0 42.0589 10.7468 452 51.8252 1328.55 515.292
448 0 40.1254 10.4921 421 54.1069 1327.65 512.734
449 0 43.0253 11.5746 498 52.5984 1327.42 512.45
450 0 43.055 11.5434 497 53.0121 1327.92 509.867
451 0 44.0451 12.964 571 51.9037 1327.77 509.954
452 0 45.1559 12.7115 574 52.5854 1327.47 508.76
453 0 49.1205 11.4209 561 52.7451 1328.44 510.232
454 0 49.0475 13.4564 660 50.8273 1327.45 510.215
455 0 49.0486 12.1104 594 52.5522 1327.98 509.448
456 0 50.2231 9.7963 492 54.878 1328.46 509.189
457 0 51.0242 9.85807 503 55.0696 1327.52 508.382
458 0 53.0651 13.474 715 51.4238 1327.65 506.364
459 0 53.1406 11.272 599 53.4958 1328.02 506.287
460 0 55.0912 10.891 600 54.4267 1326.51 504.097
461 0 57.0735 11.7393 670 53.6552 1326.73 503.399
462 0 57.0929 10.6318 607 54.9819 1327.97 502.582
463 0 58.0411 12.1638 706 53.7195 1327 503.623
464 0 62.2461 14.041 874 51.6533 1326.61 500.912
465 0 63.0307 11.2168 707 54.4356 1326.93 498.467
466 0 64.0866 11.8746 761 53.7622 1327.29 498.637
467 0 66.0429 11.3714 751 53.9827 1327.48 500.273
468 0 70.0759 11.6302 815 54.0012 1327.69 496.196
469 1 37.0243 11.1008 411 53.326 1326.98 512.041
470 0 39.0263 10.9157 426 52.0352 1327.6 515.223
471 0 42.0694 11.5761 487 51.154 1328.07 515.694
472 0 43.017 12.0882 520 51.7808 1327.48 513.254
473 0 43.0289 12.5497 540 51.4889 1327.91 514.033
474 0 44.0176 10.6775 470 52.3277 1328.4 515.389
475 0 45.0555 12.074 544 52.2702 1327.88 511.121
476 0 49.1037 12.6671 622 51.7508 1326.94 510.532
477 0 50.1688 12.1191 608 52.2533 1326.73 512.133
478 0 51.073 11.5129 588 53.534 1326.74 511.083
479 0 52.1102 13.3371 695 52.0072 1326.77 508.803
480 0 54.0752 12.7785 691 52.1823 1326.2 509.392
481 0 55.1316 10.6291 586 54.7986 1326.31 509.338
482 0 54.0526 11.1003 600 55.075 1325.84 506.432
483 0 59.121 14.0728 832 51.3005 1327.13 507.188
484 0 62.1832 14.0713 875 50.9051 1327.31 507.126
485 0 61.1215 12.0416 736 53.678 1327.14 505.587
486 0 63.1679 12.1106 765 53.6248 1327.71 503.88
487 0 65.0321 11.4559 745 53.9933 1327.75 505.03
488 0 67.085 12.5214 840 53.3167 1327.65 502.7
489 0 69.0674 12.9873 897 53.2787 1327.42 501.146
490 0 71.1684 13.0114 926 53.3402 1327.17 499.761
491 0 72.1702 11.9717 864 54.5197 1327.21 499.348
492 0 74.0876 12.3097 912 54.6754 1328.14 494.822
493 0 79.064 12.648 1000 53.858 1326.57 497.663
494 1 36.0657 9.81543 354 53.0367 1327.2 519.91
495 0 38.0772 11.6868 445 53.2022 1327.38 515.881
496 0 39.0472 11.1404 435 53.9632 1326.34 514.894
497 0 39.0357 11.1693 436 54.7615 1326.29 513.651
498 0 40.0183 11.1449 446 54.1682 1326.85 516.352
499 0 42.013 9.66368 406 56.0049 1327 514.732
500 0 43.0787 12.628 544 53.5 1327.14 511.847
501 0 43.1364 12.0548 520 54.3846 1326.5 512.292
502 0 46.0782 12.0881 557 54.1382 1327.63 510.989
503 0 46.0661 11.375 524 55.5458 1326.9 510.567
504 0 47.0632 11.0277 519 55.817 1327 511.085
505 0 49.0495 13.2519 650 53.4446 1327.74 508.082
506 0 50.026 10.4346 522 56.3487 1327.52 509.705
507 0 53.1055 12.1456 645 54.507 1327.09 505.833
508 0 55.1218 12.8443 708 53.928 1326.81 506.606
509 0 56.2351 11.9854 674 54.6291 1326.24 508.194
510 0 58.0989 10.5682 614 55.3762 1326.86 508.085
511 0 58.0397 12.0263 698 55.1991 1326.21 504.226
512 0 63.1157 13.4515 849 53.2203 1326.24 504.591
513 0 65.0967 14.056 915 53.0055 1326.61 502.71
514 0 68.1666 11.8093 805 54.5503 1327.16 501.725
515 0 69.1786 11.7522 813 54.4539 1326.99 503.715
516 0 71.0843 11.2683 801 54.5893 1327.36 502.958
517 0 75.0534 13.0174 977 53.1689 1326.74 499.8
518 0 75.1118 10.6508 800 55.6488 1326.97 499.922
519 0 78.1224 12.1476 949 54.5385 1327.21 498.247
520 1 42.0186 11.4711 482 51.6577 1327 518.046
521 0 42.0339 10.4678 440 53.7205 1326.97 515.948
522 0 44.1383 12.5968 556 52.268 1327.42 514.511
523 0 42.0351 11.0146 463 54.1685 1327.09 515.423
524 0 44.0515 9.9656 439 54.2392 1327.79 515.913
525 0 46.2128 9.02348 417 54.7842 1327.14 514.288
526 0 46.0449 11.8145 544 53.5147 1327.39 510.211
527 0 48.0755 12.1476 584 52.5531 1327.68 513.146
528 0 50.0892 11.5793 580 53.9345 1326.88 510.067
529 0 50.0775 11.8017 591 53.5618 1327.47 509.756
530 0 53.0278 11.2394 596 53.4799 1327.12 510.716
531 0 55.0345 10.7751 593 53.4115 1327.38 511.97
532 0 56.0922 13.8879 779 51.8755 1326.42 507.402
533 0 57.0872 11.246 642 53.9393 1326.09 507.132
534 0 60.1507 14.2309 856 51.2897 1327.02 505.765
535 0 59.0521 10.4653 618 55.1375 1326.29 504.706
536 0 61.0437 11.5655 706 54.0949 1327.27 502.922
537 0 65.1005 12.7188 828 52.8261 1327.14 504.048
538 0 67.0639 12.8236 860 52.5058 1326.32 504.842
539 0 69.1053 13.5156 934 52.7024 1325.9 502.112
540 0 70.1287 11.4361 802 54.5062 1326.31 500.535
541 0 73.1709 12.013 879 53.248 1326.68 502.058
542 0 74.0988 12.3079 912 53.807 1326.62 498.636
543 0 75.0637 11.2571 845 55.0828 1326.84 498.96
544 0 81.1467 12.4959 1014 53.8629 1327.15 497.595
545 0 81.266 12.4775 1014 54.4527 1326.81 495.165
546 1 44.0489 10.1478 447 54.604 1326.33 513.532
547 0 44.0306 14.2174 626 51.0431 1327.08 514.423
548 0 47.033 12.6082 593 52.7319 1326.88 511.958
549 0 46.1698 12.9305 597 53.1843 1326.04 510.365
550 0 48.0949 10.4169 501 55.2375 1326.54 512.826
551 0 50.0459 12.5884 630 53.2254 1326.27 512.473
552 0 50.0652 11.2054 561 55.0695 1325.77 512.599
553 0 54.1412 11.0082 596 54.9262 1326.87 510.346
554 0 54.052 11.0819 599 55.1152 1327.43 510.162
555 0 56.0792 11.9117 668 54.8563 1327.54 505.208
556 0 57.0621 10.8478 619 55.4297 1327.25 507.588
557 0 61.184 11.4409 700 54.9143 1326.24 505.193
558 0 60.0311 10.5445 633 56.7725 1326.53 505.314
559 0 63.1205 10.5829 668 56.75 1326.66 502.15
560 0 67.0425 13.663 916 53.1146 1326.45 503.06
561 0 69.0714 11.9731 827 54.8561 1327.6 501.404
562 0 69.1202 10.8507 750 56.7187 1326.87 497.847
563 0 75.0925 12.5312 941 54.4591 1326.67 499.777
564 0 75.0954 10.5333 791 57.0152 1326.53 498.874
565 1 39.0535 11.3946 445 53.9438 1326.87 514.757
566 0 41.0852 13.5572 557 52.3932 1326.53 512.436
567 0 43.0134 11.9033 512 53.2969 1326.71 513.943
568 0 43.0307 10.783 464 55.681 1326.67 510.847
569 0 45.0415 10.8344 488 54.7664 1326.72 514.266
570 0 46.1685 9.63861 445 56.3685 1327.34 511.265
571 0 52.0714 9.16049 477 55.5241 1326.62 513.254
572 0 51.055 11.3799 581 54.9828 1327.46 509.194
573 0 53.1577 11.2307 597 54.9363 1327.18 508.168
574 0 56.0319 12.2252 685 54.2701 1327.24 507.431
575 0 57.0584 10.3052 588 56.1327 1327.24 506.782
576 0 57.1064 11.4698 655 54.8519 1327.6 508.304
577 0 59.1203 12.3139 728 54.3819 1327.54 503.577
578 0 62.0757 11.7437 729 54.8491 1327.77 503.654
579 0 65.0533 13.1277 854 52.8735 1328.07 504.753
580 0 65.0833 10.0948 657 55.5982 1329.05 503.135
581 0 64.1173 11.1514 715 55.5301 1328.73 499.017
582 0 69.1733 10.5098 727 54.7455 1329.82 500.319
583 0 72.0961 13.1491 948 52.097 1329.71 498.216
584 0 74.0699 11.3136 838 53.9547 1328.51 499.308
585 0 75.0787 11.6145 872 54.3532 1327.99 497.835
586 0 79.0772 12.8988 1020 52.9657 1328.77 494.961
587 0 82.1613 11.7574 966 53.9576 1328.45 495.619
588 1 42.0434 9.10963 383 54.2689 1328.01 511.671
589 0 44.01 11.6337 512 52.3945 1326.9 510.631
590 0 45.083 11.4234 515 53.3806 1326.52 510.204
591 0 46.0388 9.44854 435 54.6023 1327.27 510.453
592 0 49.0102 9.8755 484 53.7996 1327.21 512.192
593 0 52.0193 12.4569 648 51.6404 1327.72 509.222
594 0 50.0314 11.5128 576 53.934 1327.95 508.24
595 0 53.0862 13.2238 702 52.3191 1327.28 504.818
596 0 55.0219 10.4686 576 54.2917 1327.89 507.602
597 0 56.0543 12.7912 717 52.0335 1328.14 508.039
598 0 56.0695 11.5214 646 54.3622 1327.93 504.514
599 0 57.0907 10.9125 623 55.5891 1327.13 503.133
600 0 63.0351 13.1197 827 53.399 1325.79 503.557
601 0 62.0775 12.5972 782 54.3785 1326.76 502.614
602 0 65.0948 12.1054 788 54.1739 1326.7 503.516
603 0 66.0478 12.4455 822 53.8029 1327.01 503.157
604 0 68.1414 12.8556 876 52.9361 1327.11 503.13
605 0 70.1731 13.4382 943 52.8123 1327.15 499.683
606 0 73.2089 12.5941 922 53.1681 1327.54 498.758
607 0 73.1443 10.9099 798 55.3396 1326.95 497.808
608 0 75.1804 12.5964 947 53.6357 1327.37 495.069
609 1 39.0467 10.91 426 52.6643 1328.53 516.317
610 0 38.0169 9.86403 375 54.9013 1328.29 514.088
611 0 43.1135 10.6927 461 53.1497 1328.33 513.555
612 0 45.0741 12.6237 569 51.2777 1328.24 513.404
613 0 44.083 11.6145 512 52.9785 1328.87 510.428
614 0 46.0619 13.2648 611 50.6841 1328.26 513.029
615 0 47.0838 11.1503 525 52.9524 1328.75 510.804
616 0 47.0262 12.1209 570 52.0877 1328.47 509.53
617 0 51.0306 12.1496 620 51.8371 1328.79 507.976
618 0 51.0226 10.5639 539 54.1299 1328.23 506.416
619 0 55.0697 12.1846 671 51.9434 1327.65 507.3
620 0 55.0321 12.3383 679 52.0457 1327.4 505.476
621 0 59.0511 13.192 779 50.3517 1327.62 505.936
622 0 57.1032 12.5212 715 51.979 1328.21 503.576
623 0 59.1063 14.8884 880 49.7966 1327.06 503.131
624 0 61.3302 11.3321 695 53.0317 1326.85 504.532
625 0 59.0794 9.05561 535 55.3383 1327.45 501.682
626 0 62.0631 12.9546 804 51.51 1327.54 501.813
627 0 62.0722 12.131 753 52.6215 1327.46 499.356
628 0 67.053 12.1397 814 51.6413 1326.86 500.143
629 0 71.1207 13.5263 962 49.5852 1328.1 500.8
630 0 73.174 13.2834 972 50.2953 1327.79 498.115
631 0 75.2258 13.2667 998 50.1964 1327.14 497.688
632 0 76.0653 13.3701 1017 50.1101 1327.29 497.574
633 0 74.1579 10.9631 813 53.2608 1328.25 491.979
634 1 40.0911 10.1519 407 50.8943 1328.63 514.162
635 0 41.0783 9.83487 404 52.0594 1328.35 510.75
636 0 41.1108 10.8974 448 50.1473 1328.93 512.781
637 0 43.1242 8.85814 382 51.2408 1329.02 513.987
638 0 45.0969 11.3312 511 49.9922 1328.06 510.883
639 0 44.1234 13.3263 588 48.7908 1328.83 508.248
640 0 47.1502 12.2799 579 49.5682 1328.46 509.408
641 0 47.0949 12.9738 611 49.3159 1328.9 507.496
642 0 48.1952 11.1007 535 51.7159 1328.34 504.946
643 0 51.109 11.72 599 50.3422 1328.33 508.052
644 0 55.1313 12.6063 695 49.4273 1327.3 506.476
645 0 54.1167 10.5328 570 51.6614 1327.03 508.135
646 0 57.113 11.9763 684 50.2295 1328.32 505.849
647 0 58.099 14.0106 814 48.785 1328.34 503.581
648 0 61.1414 13.2316 809 49.2089 1327.84 504.434
649 0 61.1017 12.0455 736 50.5761 1328.11 501.75
650 0 64.1514 10.3661 665 51.2617 1328.24 504.248
651 0 62.1779 12.5929 783 49.8978 1329.26 503.571
652 0 67.0909 13.1016 879 49.9772 1327.95 498.915
653 0 68.2337 13.4098 915 49.5683 1328.86 496.906
654 0 71.1084 11.377 809 51.3572 1328.48 499.648
655 0 73.0537 13.9076 1016 49.5344 1328.64 496.527
656 0 77.3049 13.7637 1064 49.3985 1328.01 497.357
657 0 79.1166 12.5385 992 50.9244 1328.9 494.22
658 0 82.1048 13.0443 1071 50.7796 1327.88 494.367
659 0 82.1453 11.3944 936 52.812 1327.77 493.928
660 1 48.0633 11.152 536 51.9347 1328.09 509.951
661 0 49.1101 10.5274 517 52.1489 1328.56 509.242
662 0 50.1718 12.7362 639 51.0094 1328.76 508.185
663 0 49.0635 12.7997 628 51.7389 1328.11 506.954
664 0 52.2307 11.0471 577 53.4194 1328.59 507.489
665 0 54.1229 12.1575 658 52.3587 1328.01 505.094
666 0 57.0824 12.3155 703 52.2916 1327.48 506.048
667 0 57.1164 11.4678 655 53.0061 1328.45 507.408
668 0 57.123 10.6612 609 55.3021 1328.24 504.803
669 0 61.192 13.237 810 53.016 1327.96 502.614
670 0 64.0852 13.4664 863 52.3302 1327.95 504.939
671 0 66.1636 13.512 894 52.6689 1328.16 501.425
672 0 65.1238 10.7334 699 55.867 1328.61 502.541
673 0 67.095 10.8056 725 55.4083 1328.02 503.617
674 0 71.088 12.4494 885 54.0802 1329.12 499.086
675 0 72.1202 14.1569 1021 53.0382 1328.12 497.011
676 0 73.1679 11.1934 819 56.1832 1328.3 497.234
677 0 76.0705 11.7654 895 55.6335 1327.99 494.444
678 0 78.1665 14.1365 1105 52.6923 1328.57 496.649
679 0 80.1224 12.1564 974 55.4066 1328.75 491.121
680 0 82.1335 11.9561 982 55.2648 1327.59 492.59
681 0 85.2102 12.4985 1065 54.9577 1328.69 491.276
682 0 90.0436 12.8382 1156 54.333 1328.65 490.458
683 0 92.1063 11.3456 1045 55.6086 1329.14 489.53
684 1 43.015 11.3681 489 53.7546 1329.22 508.697
685 0 47.0858 10.7888 508 52.9823 1328.79 512.441
686 0 47.043 11.4151 537 52.797 1328.07 512.063
687 0 51.0404 12.8526 656 51.7439 1328.38 507.829
688 0 52.1075 12.1864 635 52.6252 1328 507.117
689 0 55.0635 12.0225 662 52.3746 1328.16 508.683
690 0 56.1693 14.7589 829 49.608 1329.06 507.4
691 0 57.0931 11.8403 676 52.5133 1328.85 508.482
692 0 59.1164 10.7415 635 52.8961 1328.95 511.213
693 0 63.0242 11.9637 754 51.8979 1327.97 509.243
694 0 61.1902 10.737 657 54.3166 1327.33 505.633
695 0 64.0714 10.7848 691 53.6093 1327.36 502.946
696 0 66.1417 12.7302 842 52.0321 1327.16 501.659
697 0 65.0531 11.4829 747 53.8005 1327 502.739
698 0 68.0353 11.2148 763 53.7025 1328.37 501.292
699 0 68.0878 11.9845 816 53.2341 1327.32 503.515
700 0 71.1741 13.1227 934 52.0857 1327.77 498.377
701 0 72.0876 12.1796 878 53.2016 1327.93 498.477
702 0 75.0306 13.3146 999 52.1281 1328.06 496.954
703 0 77.1635 11.521 889 53.126 1327.49 499.786
704 0 79.1249 12.4613 986 52.998 1327.06 497.666
705 0 83.146 13.5906 1130 51.7398 1327.78 491.598
706 0 83.1824 11.613 966 53.5197 1328.41 495.528
707 0 84.1129 12.6497 1064 53.4586 1327.65 490.108
708 0 88.0941 14.1553 1247 52.008 1327.33 491.751
709 0 93.075 13.7416 1279 52.0274 1327.53 489.199
710 0 93.1183 12.511 1165 53.8137 1327.51 486.425
711 0 96.1724 13.0183 1252 53.8778 1327.16 488.224
712 1 47.1941 11.8235 558 53.9892 1327.64 511.613
713 0 48.0909 11.6446 560 54.1125 1327.4 512.5
714 0 49.0595 13.4327 659 53.0835 1327.32 510.011
715 0 51.0855 13.0761 668 53.1722 1327.39 510.741
716 0 52.1382 11.8915 620 54.7484 1327.2 509.815
717 0 55.0284 15.8464 872 51.1743 1327.9 508.102
718 0 57.152 13.8053 789 52.7807 1328.22 506.56
719 0 57.0877 11.6488 665 55.0902 1327.99 506.946
720 0 58.0955 13.2024 767 53.8527 1327.6 506.429
721 0 59.0555 12.0903 714 55 1327.61 506.948
722 0 63.1083 12.1537 767 54.6949 1327.53 504.473
723 0 65.192 13.4986 880 53.9125 1326.5 504.048
724 0 66.0754 14.1051 932 53.3476 1326.76 504.564
725 0 65.0961 12.2434 797 55.2422 1327.82 501.486
726 0 71.2369 13.027 928 54.0075 1327.54 501.509
727 0 74.1287 13.7733 1021 52.9853 1328.03 498.67
728 0 74.0674 12.3401 914 54.8359 1327.43 498.358
729 0 78.1473 11.5039 899 55.1646 1327.01 498.912
730 0 80.1623 13.1234 1052 53.8165 1327.2 497.834
731 0 81.1875 12.0955 982 55.4959 1326.29 496.513
732 1 38.0452 10.3561 394 53.7919 1327.48 519.089
733 0 40.0232 12.068 483 53.5176 1327.31 515.957
734 0 42.0906 10.9526 461 53.7137 1326.83 516.794
735 0 43.1818 9.6337 416 55.1394 1327.77 514.613
736 0 43.0507 12.0788 520 53.1462 1328.25 514.469
737 0 46.1306 12.0094 554 52.6805 1328.15 513.096
738 0 45.0781 11.2028 505 54.3168 1327.7 512.907
739 0 49.1481 10.8855 535 54.3664 1328.3 511.146
740 0 48.0875 11.2295 540 54.8815 1327.58 511.815
741 0 51.0688 15.2735 780 50.8654 1327.66 509.746
742 0 53.1323 10.5962 563 55.1687 1327.44 510.664
743 0 53.0998 12.2976 653 54.0674 1327.65 509.4
744 0 55.1209 13.679 754 52.9324 1327.16 509.468
745 0 57.0475 11.4291 652 55.4218 1327.29 506.227
746 0 60.0706 13.8504 832 53.0853 1326.66 506.998
747 0 61.1094 12.0603 737 55.464 1325.98 505.349
748 0 62.0839 12.3381 766 55.1436 1326.8 506.685
749 0 64.0823 12.2031 782 55.6547 1327.1 502.747
750 0 65.063 13.0335 848 55.3231 1327.09 503.919
751 0 70.0635 13.7161 961 54.4495 1326.42 503.486
752 0 70.0726 14.7704 1035 54.3459 1326.7 501.788
753 0 71.1448 12.4816 888 56.402 1327.15 503.824
754 0 71.1283 12.8781 916 56.8046 1327.2 502.402
755 0 72.166 12.6237 911 57.4841 1327.74 501.262
756 0 75.1099 13.873 1042 55.8983 1327.42 501.076
757 0 77.1844 14.135 1091 55.4748 1326.56 502.923
758 0 77.152 14.0502 1084 56.3745 1327.45 499.865
759 0 79.1137 14.0431 1111 56.117 1327.47 499.95
760 0 79.0892 13.2129 1045 57.5914 1327.09 496.726
761 0 76.1373 12.2673 934 59.5428 1327.5 494.938
762 0 80.0709 12.8261 1027 58.6641 1327.05 497.17
763 0 83.0795 14.9977 1246 56.4543 1326.58 496.955
764 0 83.0704 13.6872 1137 58.3228 1326.91 494.293
765 0 84.1615 12.6067 1061 58.6805 1326.52 499.439
766 0 84.1537 13.2258 1113 58.425 1327.38 495.284
767 0 86.1956 12.4368 1072 59.416 1327.02 493.11
768 0 86.1114 13.5871 1170 58.0718 1326.9 495.795
769 0 87.1523 12.5527 1094 58.8693 1327.43 493.88
770 0 89.1517 13.4938 1203 57.6525 1326.84 494.689
771 0 89.1945 14.8776 1327 56.5147 1326.56 494.028
772 0 90.2098 13.8012 1245 57.3124 1327.66 494.705
773 0 90.1091 13.0841 1179 58.3223 1327.42 492.904
774 0 89.1871 12.0085 1071 60.3669 1326.02 491.007
775 0 93.1615 16.1762 1507 54.3928 1326.65 496.028
776 0 92.2433 13.4969 1245 57.8835 1327.07 492.378
777 0 94.173 13.1354 1237 48.861 1325.27 498.799
778 0 93.1034 13.587 1265 58.0458 1326.17 490.278
779 0 94.0523 13.3011 1251 57.5516 1326.68 492.388
780 0 94.1476 13.7337 1293 57.471 1326.5 489.554
781 0 95.1557 10.6562 1014 59.7643 1327.03 494.791
782 0 91.0761 11.6606 1062 59.9765 1327.36 490.022
783 0 96.2025 14.1576 1362 56.1373 1327.91 487.826
784 0 95.1032 12.1026 1151 57.5361 1327.31 494.749
785 0 97.2372 13.8733 1349 55.848 1328.02 488.958
786 0 99.092 13.2806 1316 56.3313 1326.98 488.049
787 0 97.1363 12.3641 1201 56.8651 1327.3 492.322
788 0 100.238 14.1563 1419 54.4165 1326.63 492.222
789 0 101.282 13.3687 1354 55.8907 1326.86 489.66
790 0 101.125 13.2805 1343 56.4363 1326.19 488.6
791 0 98.343 12.2632 1206 57.9196 1326.59 487.263
792 0 99.2797 12.8324 1274 56.8634 1326.85 487.402
793 0 100.093 12.4884 1250 56.9736 1327.05 486.107
794 0 102.253 15.4225 1577 53.4001 1328.24 485.271
795 0 103.108 15.5176 1600 53.2219 1327.98 486.342
796 0 102.21 12.8364 1312 56.2416 1327.65 486.653
797 0 101.095 14.0265 1418 55.4013 1327.07 483.572
798 0 101.116 12.3027 1244 56.9236 1327.19 485.555
799 0 103.095 12.2217 1260 56.5992 1327.19 487.48
800 0 105.353 12.6907 1337 55.5475 1326.97 487.726
801 0 106.166 14.1005 1497 53.9893 1327.89 486.094
802 0 104.158 12.337 1285 56.6599 1327.32 484.857
803 0 103.343 13.8471 1431 46.1167 1327.49 481.163
804 0 107.151 12.4403 1333 56.1695 1327.43 482.478
805 0 105.234 13.4177 1412 54.9929 1327.74 483.606
806 0 104.094 13.1323 1367 55.4338 1326.85 481.533
807 0 107.152 13.0468 1398 55.1459 1326.9 483.722
808 0 107.141 13.4869 1445 54.7647 1326.7 481.012
809 0 105.166 12.4469 1309 55.7257 1327.48 484.006
810 0 107.073 13.5421 1450 54.391 1327.14 480.854
811 0 105.178 10.3824 1092 57.1364 1327.24 481.066
812 0 107.087 13.7832 1476 54.189 1327.65 481.554
813 0 107.216 11.7707 1262 55.7433 1327.15 482.914
814 0 109.189 14.5893 1593 52.995 1327.03 481.682
815 0 107.219 13.0294 1397 54.4137 1327.07 480.863
816 0 108.152 12.1311 1312 54.766 1326.88 487.016
817 0 109.32 13.3919 1464 54.015 1326.17 482.189
818 0 108.168 11.5284 1247 55.7273 1326.78 483.594
819 0 109.355 12.9761 1419 54.1276 1326.98 483.899
820 0 111.19 11.5837 1288 55.2547 1326.75 480.627
821 0 111.104 11.1787 1242 54.9187 1327.65 484.363
822 0 109.282 11.6396 1272 55.1643 1327.29 478.321
823 0 107.242 9.07294 973 57.4522 1326.94 480.17
824 0 111.151 11.8937 1322 54.7761 1326.88 478.838
825 0 111.179 11.8098 1313 54.4943 1326.81 480.745
826 0 114.154 12.1678 1389 53.8071 1328.04 480.035
827 0 111.263 11.666 1298 54.7581 1327.47 478.556
828 0 112.114 12.3089 1380 54.1384 1327.13 480.06
829 0 113.165 10.9044 1234 55.1799 1326.85 478.285
830 0 116.23 11.6838 1358 53.296 1327.17 484.789
831 0 116.162 12.6203 1466 53.1296 1327.27 486.107
832 0 111.136 10.4466 1161 55.4393 1327.52 478.072
833 0 116.142 13.4491 1562 52.4526 1327.09 480.403
834 0 117.2 12.8071 1501 52.7222 1327.37 482.502
835 0 117.245 12.2479 1436 53.1323 1327.19 479.356
836 0 116.22 12.0203 1397 53.3257 1326.78 481.178
837 0 116.387 11.1094 1293 54.4138 1326.15 477.292
838 0 114.112 10.7 1221 54.6405 1327.16 479.774
839 0 116.222 13.0353 1515 52.8607 1326.19 478.322
840 0 116.201 11.962 1390 52.9799 1326.73 480.037
841 0 118.259 11.9145 1409 53.7083 1326.79 475.164
842 0 120.236 13.6066 1636 51.563 1327.18 477.924
843 0 117.262 10.1397 1189 55.1388 1326.87 476.486
844 0 120.176 11.0505 1328 54.8268 1327.16 477.103
845 0 117.211 11.2703 1321 53.4822 1327.38 478.447
846 0 119.105 10.7972 1286 53.2543 1326.98 483.411
847 0 119.122 12.0129 1431 53.7191 1326.87 474.695
848 0 119.07 9.37266 1116 55.5735 1327.97 481.419
849 0 118.155 10.3169 1219 54.3544 1327.41 478.085
850 0 123.205 12.808 1578 52.2408 1326.42 478.973
851 0 122.123 10.8579 1326 53.4118 1326.08 478.465
852 0 121.121 11.5835 1403 53.2744 1327.33 478.921
853 0 122.193 13.7487 1680 50.4226 1327.72 473.993
854 0 121.14 11.854 1436 53.1198 1326.98 477.157
855 0 124.192 13.4067 1665 52.1087 1326.72 469.967
856 0 125.349 13.1632 1650 51.8073 1326.71 474.284
857 0 127.212 12.4124 1579 52.1526 1326.26 471.837
858 0 125.349 12.6367 1584 52.3352 1325.94 475.549
859 0 120.177 13.8878 1669 51.8029 1326.84 475.046
860 0 113.147 13.3896 1515 51.703 1326.48 478.872
861 0 109.187 12.1809 1330 52.5 1326.94 481.476
862 0 106.101 15.0423 1596 49.5238 1326.78 480.643
863 0 107.295 13.2438 1421 50.6038 1327.18 481.309
864 0 106.179 13.4019 1423 49.4982 1327.15 476.989
865 0 109.267 14.2861 1561 48.8975 1327 484.02
866 0 108.239 13.6088 1473 49.2417 1326.85 482.075
867 0 108.174 16.2239 1755 46.8137 1327.17 480.204
868 0 107.297 11.8829 1275 50.1631 1327.54 479.002
869 0 107.305 13.4104 1439 49.0584 1327.29 476.085
870 0 106.236 16.7363 1778 46.23 1326.59 478.282
871 0 106.161 17.5677 1865 45.7796 1326.9 481.075
872 0 106.14 15.8282 1680 47.0143 1326.38 478.863
873 0 104.164 14.3427 1494 48.3708 1325.98 478.096
874 0 106.11 12.4587 1322 49.9085 1326.89 482.041
875 0 105.168 14.5671 1532 48.2539 1326.02 485.108
876 0 101.295 11.4616 1161 51.0896 1326.5 482.147
877 0 103.227 12.2933 1269 50.435 1326.32 484.315
878 0 106.183 14.4468 1534 47.6773 1326.14 482.557
879 0 104.091 14.5257 1512 47.7665 1326.36 484.81
880 0 106.198 13.3524 1418 48.4866 1325.98 481.448
881 0 104.33 15.5181 1619 46.7813 1325.84 481.185
882 0 104.312 14.2362 1485 47.7138 1326.58 481.657
883 0 104.199 16.2669 1695 45.5976 1326.79 477.063
884 0 105.227 15.4143 1622 46.685 1326.61 481.438
885 0 105.207 13.0504 1373 48.6912 1325.79 483.369
886 0 105.35 15.3773 1620 46.5599 1326.68 483.261
887 0 104.305 12.6936 1324 48.9366 1326.17 480.696
888 0 103.203 15.3484 1584 46.7822 1326.71 480.804
889 0 105.291 13.0116 1370 48.1942 1326.81 482.173
890 0 105.507 15.5534 1641 45.7477 1326.86 478.784
891 0 104.085 20.9251 2178 42.5101 1327.09 479.912
892 0 106.349 12.1769 1295 48.4178 1327.37 479.659
893 0 101.229 13.6126 1378 47.7729 1327.42 484.956
894 0 103.245 15.1581 1565 46.524 1326.84 484.154
895 0 106.295 16.4919 1753 44.9897 1327.2 478.477
896 0 107.22 15.2771 1638 45.8156 1327.64 478.983
897 0 105.081 12.5617 1320 48.3197 1327.82 484.371
898 0 108.182 15.6034 1688 45.1499 1327.89 487.075
899 0 106.204 13.7094 1456 47.0852 1327.66 484.39
900 1 188.353 10.5812 1993 50.6513 1327.05 453.722
901 0 189.219 10.1258 1916 51.0214 1327.16 453.397
902 0 191.337 11.3517 2172 49.9728 1327.71 450.461
903 1 153.563 8.21162 1261 51.1467 1327.22 474.132
904 0 156.295 9.26456 1448 49.6796 1327.87 476.199
905 0 155.254 7.33637 1139 51.9535 1327.76 474.035
906 1 114.268 17.6516 2017 42.8532 1327.53 475.563
907 0 106.239 13.6579 1451 46.4549 1327.23 482.252
908 0 105.223 14.1984 1494 45.9491 1327.4 480.378
909 0 107.255 14.5913 1565 45.6026 1328.3 485.461
910 0 104.119 13.6094 1417 45.844 1328.46 481.153
911 0 104.192 15.4907 1614 44.2788 1328.84 480.119
912 0 106.135 13.1719 1398 46.0794 1328.8 480.746
913 0 104.359 14.4023 1503 45.4059 1329.15 484.269
914 0 103.128 13.6917 1412 45.9086 1328.19 485.254
915 0 115.177 13.8483 1595 44.7987 1328.69 479.628
916 0 113.2 12.1732 1378 46.0501 1327.93 480.008
917 0 113.552 12.5669 1427 45.9159 1328.84 481.432
918 0 111.363 17.3667 1934 42.7177 1327.76 480.344
919 0 111.251 13.2583 1475 45.1783 1327.61 477.372
920 0 112.192 13.6285 1529 45.5265 1327.51 479.427
921 0 110.16 11.5378 1271 47.3973 1327.27 481.444
922 0 112.195 13.0844 1468 45.6158 1327.53 481.319
923 0 114.194 14.0376 1603 44.6781 1327.45 481.069
924 0 112.45 14.6198 1644 44.1125 1327.36 473.938
925 0 112.183 15.1627 1701 43.6784 1327.49 476.111
926 0 109.347 15.4279 1687 43.8785 1326.94 481.424
927 0 110.403 15.2532 1684 43.8165 1327.32 475.846
928 0 111.347 14.4952 1614 44.412 1327.32 477.893
929 0 110.204 14.0376 1547 44.8345 1326.96 480.074
930 0 115.011 20.2068 2324 40.1992 1325.95 470.654
931 0 113.145 11.3659 1286 46.395 1327.1 476.694
932 0 112.205 14.6785 1647 44.0395 1326.64 474.469
933 0 113.214 16.6411 1884 42.7962 1326.5 479.017
934 0 109.229 13.4854 1473 44.9946 1327.32 475.322
935 0 113.447 15.4874 1757 43.1264 1327.44 479.678
936 0 113.305 17.2455 1954 41.8593 1326.99 473.24
937 0 113.289 13.5848 1539 44.538 1327.16 478.268
938 0 111.299 12.0486 1341 45.4922 1327.37 474.065
939 0 112.326 16.096 1808 42.4143 1327.16 472.601
940 0 114.245 15.1341 1729 43.1515 1326.48 476.288
941 0 112.206 13.7515 1543 44.324 1326.16 476.702
942 0 111.198 14.6135 1625 43.7858 1326.73 479.02
943 0 112.245 14.1388 1587 43.6289 1327.84 472.572
944 0 109.29 14.2831 1561 43.8334 1327.29 474.742
945 0 110.526 14.2229 1572 44.0674 1326.16 477.195
946 0 110.15 11.5479 1272 45.5495 1327.12 473.517
947 0 108.176 12.1377 1313 45.6101 1327.66 477.203
948 0 110.125 15.1191 1665 43.0282 1327.55 480.317
949 0 111.167 14.7976 1645 42.7976 1328.03 473.17
950 0 109.189 16.1188 1760 42.3119 1328.69 479.297
951 0 112.297 21.4163 2405 38.5805 1327.83 467.893
952 0 111.405 17.5576 1956 41.1028 1328 476.025
953 0 111.301 13.8723 1544 43.3815 1328.37 475.198
954 0 113.315 15.073 1708 42.493 1327.53 478.274
955 0 112.37 13.064 1468 43.7711 1327.32 477.215
956 1 164.213 7.10055 1166 50.976 1326.9 455.45
957 1 113.417 13.9662 1584 43.3889 1327.53 480.378
958 0 113.142 14.8839 1684 42.5226 1327.22 480.526
959 0 113.273 23.8538 2702 37.8453 1326.64 474.025
