time division length width area intensity CMx CMy
0 0 38.12 13.4313 512 59.5156 350.875 531.963
1 0 39.1135 12.1441 475 61.24 350.234 532.992
2 0 38.0778 11.7654 448 62.7857 350.42 533.683
3 0 40.0835 12.0498 483 61.9876 351.008 532.845
4 0 38.0441 12.6432 481 62.3971 350.53 530.9
5 0 42.116 12.4418 524 61.6469 349.523 532.605
6 0 41.1021 11.9945 493 63.6836 350.122 532.444
7 0 43.0939 12.9949 560 62.3589 350.232 531.234
8 0 41.2397 11.4453 472 65.286 350.299 531.487
9 0 44.1703 11.5915 512 65.1523 350.902 531.475
10 0 44.2115 13.2545 586 63.587 349.956 531.094
11 0 45.17 11.4235 516 65.7248 350.269 531.273
12 0 46.1068 12.0373 555 64.9568 350.789 531.978
13 0 48.0703 11.2336 540 64.3037 350.965 533.139
14 0 49.1288 14.3907 707 61.8543 350.165 529.446
15 0 48.1408 13.6267 656 63.4939 349.68 529.779
16 0 52.0567 13.1203 683 61.7745 349.962 533.236
17 0 51.1017 12.798 654 64.4817 350.665 530.365
18 0 53.0924 13.7119 728 61.717 349.753 532.813
19 0 52.0267 12.3014 640 65.5453 349.798 528.727
20 0 54.0846 14.3849 778 62.1799 349.575 529.65
21 0 56.0865 13.9249 781 62.9014 349.917 527.302
22 0 55.1922 11.2516 621 66.0322 350.06 528.105
23 0 56.0644 12.5035 701 65.0785 348.475 527.699
24 0 57.1841 13.4478 769 65.6255 349.332 525.26
25 1 126.282 13.5173 1707 68.5899 350.183 492.321
26 0 131.38 15.3981 2023 66.5106 350.525 489.245
27 0 134.395 14.4127 1937 68.1265 350.449 491.316
28 0 138.2 14.1462 1955 69.3371 350.292 489.287
29 0 141.49 13.6476 1931 71.3547 350.408 485.853
30 0 144.234 15.662 2259 69.4883 349.684 482.789
31 0 147.183 13.9962 2060 71.6422 349.789 485.433
32 0 151.429 14.9773 2268 70.769 350.114 480.95
33 0 154.511 14.8274 2291 71.5216 349.414 480.27
34 0 160.286 14.9982 2404 72.2999 349.912 476.545
35 1 76.1078 12.548 955 71.1832 351.366 517.925
36 0 77.096 12.3353 951 71.3596 351.097 518.175
37 0 80.1058 12.3961 993 72.3152 350.85 514.192
38 0 81.1404 11.3137 918 73.7092 351.266 517.264
39 1 45.0886 12.42 560 72.0161 350.257 530.788
40 0 45.1245 12.1885 550 72.2618 351.449 531.924
41 0 46.0233 12.0374 554 72.8141 351.144 530.782
42 0 48.0821 11.7715 566 73.477 351.641 531.129
43 0 49.1543 11.9216 586 74.2201 351.193 528.766
44 0 51.0257 12.3467 630 73.3635 351.405 529.225
45 0 56.0447 12.0796 677 73.9911 351.694 527.196
46 0 54.0253 12.6052 681 73.4816 351.606 526.46
47 0 56.1073 13.5811 762 72.8924 351.488 525.535
48 0 55.0431 9.88316 544 78.4449 352.452 524.825
49 0 56.0384 11.1531 625 77.2192 352.293 523.594
50 0 61.0558 12.4149 758 74.1873 352.193 524.212
51 0 63.0398 11.6752 736 75.6726 352.304 520.853
52 0 64.0752 10.5813 678 77.233 352.119 524.351
53 0 65.0522 10.3609 674 78.2626 351.819 522.831
54 1 32.0542 9.54634 306 77.8399 351.673 536.036
55 0 35.0715 9.95111 349 78.596 352.318 534.249
56 0 34.0249 10.6393 362 78.5193 351.691 532.42
57 0 34.0749 9.18565 313 80.8403 352.313 533.335
58 0 36.0211 10.2718 370 80.4486 352.478 531.986
59 0 38.0316 11.2801 429 78.2774 352.152 530.814
60 0 40.0543 11.2847 452 78.2677 352.704 531.159
61 0 41.0542 11.9111 489 77.4131 352.81 530.247
62 0 42.1136 9.5931 404 79.896 352.411 530.396
63 0 43.0876 10.4438 450 79.1356 351.638 528.762
64 0 44.0504 10.8739 479 78.8664 351.908 527.587
65 0 46.1469 11.3984 526 78.1407 353.074 526.029
66 0 46.0628 10.7028 493 78.6957 352.446 525.732
67 0 45.028 9.92715 447 79.9978 351.785 522.792
68 0 48.0266 9.22406 443 80.3296 352.056 524.079
69 0 47.0552 8.50066 400 81.1875 351.515 521.348
70 0 51.1034 9.97976 510 78.2294 351.61 520.657
71 0 50.0417 8.5129 426 79.8075 351.272 520.178
72 0 52.0646 8.50866 443 80.2935 351.553 518.876
73 0 55.0092 11.0345 607 76.2932 351.84 519.165
74 0 57.176 10.0392 574 77.2683 351.347 516.852
75 0 58.0424 9.23462 536 78.0504 352.052 514.608
76 0 62.059 9.70045 602 76.3189 352.784 513.543
77 0 61.0916 5.56541 340 80.0971 351.415 506.226
78 0 64.1703 8.10344 520 77.75 351.917 507.285
79 1 31.0167 5.5454 172 78.4884 353.041 527.587
80 0 31.0305 8.41108 261 75.6743 352.908 528.149
81 0 34.0112 6.70367 228 77 353.145 527.877
82 0 39.0151 9.91923 387 71.292 353.592 531.602
83 0 42.0671 11.1726 470 69.6319 351.964 529.6
84 0 43.042 10.664 459 70.0763 353.026 531.566
85 0 42.0683 10.1502 427 72.0749 352.225 530.033
86 0 44.0602 11.3481 500 70.374 353.332 528.39
87 0 44.0801 11.0481 487 71.3922 353.487 526.029
88 0 46.0911 11.7159 540 70.1537 352.38 525.863
89 0 47.0704 11.1323 524 70.7328 353.431 525.824
90 0 51.1161 11.6793 597 68.2714 352.221 524.985
91 0 51.1441 11.2427 575 69.7287 352.363 525.951
92 0 53.0882 12.6205 670 67.8567 353.252 523.782
93 0 54.1646 11.2804 611 70.072 353.19 523.056
94 0 57.0755 11.3534 648 69.125 352.711 523.546
95 0 59.0914 12.7768 755 67.2967 353.029 522.473
96 0 61.0571 11.2681 688 69.048 352.499 521.233
97 0 63.0402 12.5 788 67.8122 352.615 518.926
98 0 65.0905 11.123 724 69.4586 352.279 520.872
99 0 67.0857 11.8207 793 68.541 352.755 517.673
100 0 66.0648 10.8227 715 70.9007 353.015 516.284
101 0 71.0408 11.8242 840 68.9238 352.91 514.73
102 0 74.0729 11.2322 832 69.4736 352.556 514.023
103 0 73.0614 11.1003 811 70.6424 352.724 512.202
104 1 40.0112 10.2471 410 67.6951 353.593 531.249
105 0 39.0895 10.719 419 68.7375 353.58 528.811
106 0 39.0421 10.8857 425 68.96 352.819 528.28
107 0 41.0479 10.6217 436 68.9014 353.826 529.839
108 0 45.1594 12.6441 571 65.2032 353.093 529.063
109 0 44.016 9.90549 436 69.6674 353.61 529.399
110 0 43.1467 11.7043 505 68.905 352.846 525.624
111 0 47.1204 10.505 495 63.5131 352.402 529.867
112 0 47.0746 10.6427 501 69.3633 352.289 526.381
113 0 50.0916 12.6768 635 65.4378 352.323 525.246
114 0 51.1609 11.2977 578 67.7474 352.33 523.595
115 0 51.1101 10.9763 561 68.4706 352.988 523.169
116 0 51.0507 9.93131 507 69.2604 352.907 525.14
117 0 56.1142 10.6925 600 68.1767 353.805 522.388
118 0 58.1028 12.0476 700 66.5 354.547 521.031
119 0 59.0999 11.9966 709 66.8505 354.099 521.286
120 0 59.0794 9.88501 584 69.8887 353.685 521.967
121 0 61.1095 11.0621 676 68.2796 352.683 520.802
122 0 64.0353 11.6498 746 67.7386 353.19 519.723
123 0 66.2205 12.1866 807 67.2937 352.449 517.466
124 0 69.0785 11.2046 774 68.7403 352.767 515.326
125 0 70.1498 11.4612 804 68.5734 352.999 516.641
126 0 73.1348 12.2377 895 68.6156 353.283 513.631
127 0 77.0685 12.6511 975 67.5323 353.073 512.714
128 0 77.1821 10.3521 799 71.3504 352.698 513.075
129 0 82.1066 12.4959 1026 68.7173 353.097 509.967
130 1 41.0575 10.4244 428 68.3107 353.065 531.105
131 0 41.0397 10.3315 424 70.7311 353.012 529.623
132 0 44.0408 11.8299 521 68.0576 353.885 529.739
133 0 46.0659 11.3099 521 70.4415 353.488 526.608
134 0 45.0842 10.3806 468 72.3803 353.737 527.03
135 0 46.038 11.0561 509 71.4283 353.271 527.055
136 0 49.0417 12.2549 601 69.1398 353.349 525.903
137 0 50.0572 11.327 567 70.7019 353.265 524.974
138 0 52.0269 13.1663 685 68.3241 352.854 522.759
139 0 52.1038 11.4771 598 70.8495 352.89 524.4
140 0 54.0528 11.9698 647 69.8331 353.923 523.454
141 0 56.065 12.7174 713 68.432 353.749 522.331
142 0 58.0584 13.3659 776 67.125 353.784 521.866
143 0 59.0624 11.4794 678 69.531 353.237 520.298
144 0 60.0269 11.828 710 69.6803 352.815 518.742
145 0 62.0448 11.6045 720 68.9653 353.868 518.454
146 0 62.0487 10.8785 675 70.5748 353.83 516.951
147 0 66.0631 11.8372 782 68.2698 353.355 518.049
148 0 68.0241 12.3486 840 66.3821 352.537 519.58
149 0 71.051 11.8084 839 67.5566 352.946 515.044
150 0 73.0892 11.657 852 67.1854 353.592 516.08
151 0 75.0653 12.216 917 67.1505 354.077 513.285
152 0 76.1407 10.9403 833 69.2881 352.988 510.309
153 0 80.0953 13.0594 1046 66.0249 353.459 511.359
154 1 41.0504 11.6199 477 66.5849 353.535 528.53
155 0 45.0265 11.793 531 65.5838 353.9 526.486
156 0 45.0831 10.9132 492 66.8171 355.291 528.671
157 0 48.0417 12.2186 587 64.9761 354.787 525.549
158 0 48.0427 11.7604 565 65.8478 354.319 524.342
159 0 50.0963 10.2403 513 68.4308 355.46 522.314
160 0 52.0589 11.1604 581 66.2909 355.522 522.733
161 0 53.1 11.8267 628 65.6831 355.506 522.494
162 0 54.0194 11.0701 598 65.9515 355.114 523.253
163 0 55.0152 11.3241 623 65.6421 354.612 522.411
164 0 58.1776 11.018 641 65.6115 354.867 520.346
165 0 58.0441 12.4044 720 64.0014 354.875 520.061
166 0 61.0926 10.9015 666 65.3544 355.904 519.438
167 0 63.0661 12.0509 760 64.3776 355.9 517.805
168 0 65.1396 11.5905 755 64.8291 356.054 516.086
169 0 64.234 11.7228 753 65.0093 355.125 512.268
170 0 68.0803 11.1486 759 65.4559 354.9 513.083
171 0 73.0559 12.292 898 62.7918 354.774 512.684
172 0 73.0599 12.6471 924 62.3019 354.656 512.878
173 0 75.0872 11.773 884 64.31 354.294 509.107
174 0 77.0641 10.9779 846 64.1572 353.349 512.467
175 0 80.0933 11.7488 941 63.3549 353.191 505.406
176 0 81.1606 9.7954 795 65.6453 352.877 508.097
177 1 39.0092 9.2286 360 64.7278 352.872 527.044
178 0 41.0263 9.38423 385 63.3455 352.655 527.54
179 0 42.118 10.1857 429 62.8228 353.298 527.266
180 0 45.204 11.4149 516 60.593 353.027 527.483
181 0 45.0123 11.3747 512 61.8496 352.51 525.869
182 0 46.0396 10.4258 480 62.5562 353.51 525.419
183 0 48.0765 11.1697 537 62.0391 352.48 526.177
184 0 48.114 10.9739 528 63.3295 351.903 524.278
185 0 51.073 12.3353 630 61.2667 352.19 525.478
186 0 52.109 11.687 609 61.9327 351.741 524.115
187 0 54.0653 12.6699 685 60.7401 351.174 522.291
188 0 55.1538 11.5677 638 62.5298 350.917 520.737
189 0 56.0605 12.433 697 62.2568 351.484 519.572
190 0 58.0656 11.0048 639 62.9468 350.252 522.71
191 0 56.1488 9.72417 546 66.1777 350.234 520.736
192 0 62.0793 12.774 793 61.5284 350.241 520.18
193 0 64.1005 11.872 761 62.7792 350.398 520.243
194 0 65.1216 13.1139 854 62.1581 350.203 518.009
195 0 67.2161 12.4375 836 62.6471 350.47 520.361
196 0 69.3326 12.4184 861 63.0732 350.65 520.252
197 0 70.0812 10.9444 767 65.9452 350.214 515.7
198 0 74.1849 12.334 915 64.3016 350.177 516.319
199 0 76.2214 12.8442 979 63.571 349.834 517.121
200 0 79.2005 12.7903 1013 63.9003 348.968 514.046
201 1 41.0717 11.3703 467 64.3533 349.002 532.762
202 0 43.1692 10.4009 449 65.1581 349.347 534.708
203 0 44.0174 10.2005 449 65.8909 348.537 534.341
204 0 46.152 11.0721 511 65.5636 349.029 531.139
205 0 46.1922 11.4305 528 65.9337 349.21 530.1
206 0 48.1376 11.6541 561 65.8093 349.738 528.143
207 0 51.0144 12.7219 649 63.5609 349.288 530.043
208 0 52.0613 13.7338 715 62.8713 348.779 528.227
209 0 53.089 11.735 623 64.9936 348.785 530.13
210 0 53.0293 8.88188 471 69.5435 348.306 527.749
211 0 57.0392 12.5528 716 64.1536 348.351 527.684
212 0 58.0433 12.0083 697 65.7059 349.178 525.945
213 0 59.0819 11.9157 704 65.8963 348.433 526.197
214 0 61.1002 12.0458 736 65.7582 347.91 526.503
215 0 64.1093 13.3678 857 64.1949 348.46 524.888
216 0 67.0819 13.2077 886 63.9594 347.071 523.405
217 0 66.0853 12.2115 807 66.2639 346.928 519.667
218 0 69.1173 12.6018 871 65.0149 347.146 521.932
219 0 71.0914 11.6189 826 66.4964 347.108 520.269
220 0 74.0614 11.936 884 66.4638 346.464 518.782
221 0 74.0932 11.9984 889 66.4117 346.652 518.048
222 1 38.0079 8.18251 311 68.9325 347.453 536.624
223 0 41.0282 11.1631 458 65.1201 348.203 534.659
224 0 43.0497 11.87 511 63.9432 348.016 533.851
225 0 45.1455 11.762 531 64.1525 347.588 532.744
226 0 45.0374 10.3914 468 65.5833 347.015 534.115
227 0 47.0869 12.53 590 63.7017 346.814 531.073
228 0 48.0845 10.2736 494 66.9676 347.269 531.545
229 0 49.0431 9.76691 479 68.1649 347.154 530.123
230 0 50.064 12.6039 631 64.5674 347.591 529.35
231 0 48.1206 10.0996 486 69.393 346.726 526.457
232 0 51.0562 11.1446 569 67.812 348.135 525.511
233 0 53.1373 10.8587 577 68.1109 348.672 527.608
234 0 55.0966 11.253 620 66.8871 347.679 526.424
235 0 56.058 12.4692 699 65.8169 348.252 526.077
236 0 59.0962 10.9313 646 67.9009 348.443 523.433
237 0 60.1407 11.1405 670 67.6149 347.584 521.655
238 0 63.1125 11.7885 744 66.7527 347.556 522.224
239 0 63.0659 11.1629 704 68.1335 347.51 519.026
240 0 65.1114 12.1331 790 66.5684 347.901 518.533
241 0 68.1151 11.1135 757 67.4082 348.025 516.72
242 0 69.1892 11.0711 766 67.3943 347.899 518.369
243 0 73.1236 11.5831 847 66.7166 348.652 513.766
244 0 76.06 11.5698 880 66.6761 348.606 515.369
245 0 76.1356 11.2037 853 67.8593 348.096 512.892
246 1 37.0169 9.15797 339 68.9764 348.024 530.923
247 0 42.1262 11.1569 470 65.6298 349.021 531.817
248 0 41.0619 10.5451 433 67.739 348.432 530.707
249 0 43.0729 11.6547 502 65.4064 349.07 531.078
250 0 44.0373 12.2851 541 64.5102 349.048 531.708
251 0 45.0882 11.3333 511 66.7495 348.661 530.562
252 0 47.0545 10.9448 515 67.4699 348.029 528.994
253 0 49.0567 10.8854 534 67.7453 348.067 530.124
254 0 50.1279 11.2113 562 66.7473 349.45 531.151
255 0 50.0808 10.8025 541 67.8632 349.026 529.799
256 0 52.0606 11.8324 616 66.9432 349.445 528.727
257 0 53.1278 12.517 665 66.5519 349.585 526.277
258 0 53.0895 11.3959 605 68.5851 349.374 526.775
259 0 56.1601 12.3219 692 66.5361 349.201 526.577
260 0 58.1386 12.4186 722 66.4114 348.278 526.112
261 0 59.2094 11.6704 691 67.4428 348.088 525.664
262 0 60.1306 9.92839 597 69.5059 348.199 526.342
263 0 62.147 11.8912 739 67.4926 348.93 523.788
264 0 63.1413 11.6406 735 68.0952 348.41 523.838
265 0 68.1357 13.8107 941 64.6089 348.128 522.666
266 0 69.2668 11.7517 814 67.3206 348.081 522.499
267 0 72.1203 12.5346 904 66.1692 348.098 521.104
268 0 73.3209 11.7838 864 67.662 347.987 520.565
269 0 75.2536 11.7204 882 67.898 348.621 519.907
270 0 78.2747 12.9033 1010 66.1743 347.915 519.249
271 0 79.1421 12.6987 1005 67.3851 348.424 514.835
272 1 45.164 9.78656 442 68.2896 347.043 533.441
273 0 44.1404 11.5993 512 67.2969 347.369 531.732
274 0 45.0497 12.1865 549 66.3151 348.06 531.044
275 0 49.029 11.2994 554 65.9657 348.347 533.233
276 0 49.1427 10.6628 524 68.8969 348.737 530.63
277 0 50.0336 10.6728 534 68.4064 348.882 531.066
278 0 53.1279 11.8582 630 65.7349 347.66 531.87
279 0 54.0475 11.6379 629 65.6709 347.715 532.21
280 0 57.0451 12.3061 702 64.6111 347.899 531.338
281 0 58.0959 11.7909 685 65.4365 348.358 531.399
282 0 58.0566 9.78356 568 69.044 347.965 529.287
283 0 62.1149 12.8794 800 64.0162 347.821 526.991
284 0 62.1591 11.8084 734 65.2875 346.674 527.866
285 0 64.1285 12.1943 782 64.5588 347.464 527.023
286 0 66.162 12.1369 803 65.2814 346.477 522.796
287 0 68.1291 11.1553 760 65.9947 346.411 523.779
288 0 71.1995 12.7669 909 62.8229 346.327 522.833
289 0 73.1283 12.3892 906 63.6534 346.831 520.907
290 0 77.1198 13.3169 1027 61.6923 346.523 519.854
291 0 78.1572 12.5005 977 63.0154 347.095 520.018
292 0 79.145 13.2162 1046 63.0841 347.411 515.169
293 0 84.1249 11.9941 1009 63.6739 348.085 516.074
294 0 85.1571 12.2127 1040 62.9577 347.736 517.664
295 0 88.218 12.3784 1092 63.5229 346.995 512.999
296 1 45.0892 12.5307 565 61.908 346.975 535.292
297 0 45.0491 12.1867 549 63.3953 346.373 531.421
298 0 46.0223 11.0164 507 65.5227 346.886 531.416
299 0 48.0248 11.5982 557 65.0754 346.75 530.702
300 0 51.153 12.3551 632 62.9984 346.832 531.272
301 0 52.0612 12.1011 630 63.9159 345.835 528.271
302 0 53.0611 12.0616 640 64.7016 346.352 528.445
303 0 53.083 11.6233 617 65.7455 346.052 528.086
304 0 55.0943 11.8706 654 65.2554 345.789 527.324
305 0 57.088 11.5086 657 64.9269 346.598 525.772
306 0 57.1329 11.5695 661 65.4614 346.371 525.669
307 0 61.1199 10.8148 661 65.2239 345.623 524.958
308 0 64.0883 12.3111 789 63.9202 346.3 522.804
309 0 66.144 13.138 869 62.6364 346.414 521.993
310 0 67.1099 13.5002 906 61.9073 346.259 522.058
311 0 68.1562 12.442 848 63.7795 346.529 521.768
312 0 71.0766 12.2262 869 63.5949 346.636 520.613
313 0 73.1827 13.0222 953 63.2235 345.843 515.334
314 0 74.0763 11.8931 881 65.2213 346.131 514.355
315 0 77.2052 12.0329 929 64.4715 346.397 514.836
316 0 80.1225 11.9192 955 64.9079 345.964 515.44
317 0 83.1506 12.1226 1008 65.2113 346.657 512.418
318 0 84.1666 12.0594 1015 65.3724 345.969 512.465
319 0 90.2459 12.8316 1158 63.8126 346.614 510.565
320 0 91.156 13.9212 1269 63.1024 346.727 507.325
321 1 43.1146 11.2491 485 65.3505 346.695 531.369
322 0 43.0843 10.6303 458 66.393 346.29 531.836
323 0 47.0611 11.4319 538 64.9833 345.664 529.426
324 0 47.1465 10.7325 506 66.4743 345.8 530.077
325 0 50.1725 11.4804 576 65.9618 346.283 529.248
326 0 53.076 11.4176 606 65.1964 346.937 526.45
327 0 54.1784 12.9572 702 64.1011 346.265 524.607
328 0 55.1254 10.975 605 66.2694 346.081 528.451
329 0 56.0636 11.6118 651 66.1736 346.427 526.083
330 0 58.0458 11.1981 650 66.4846 346.437 525.506
331 0 59.0928 12.5904 744 65.2097 347.44 522
332 0 59.0563 11.362 671 67.1326 346.978 524.106
333 0 60.0778 11.0856 666 67.6471 347.565 523.438
334 0 65.0639 12.2649 798 65.6754 346.049 518.614
335 0 68.214 12.5927 859 64.9069 345.722 519.586
336 0 70.0925 12.3266 864 65.4271 346.206 518.666
337 0 73.0795 12.6301 923 64.5775 345.525 516.447
338 0 74.1123 12.7779 947 64.6441 345.846 516.4
339 0 75.1686 12.4121 933 66.0407 346.493 511.413
340 0 80.2126 11.8311 949 65.3635 347.111 515.446
341 0 83.2244 11.463 954 66.391 347.538 514.492
342 1 44.2362 11.416 505 64.6673 347.707 532.408
343 0 44.068 11.3007 498 66.2169 347.767 529.99
344 0 45.0478 11.4767 517 65.5222 348.404 531.014
345 0 49.0268 12.5646 616 63.6153 347.88 530.117
346 0 46.0275 11.9494 550 66.5436 347.076 527.582
347 0 50.0999 11.9761 600 65.5783 346.427 528.292
348 0 52.0565 13.4661 701 63.5635 347.155 528.669
349 0 52.1148 11.0525 576 66.592 347.083 529.507
350 0 53.1266 12.4231 660 66.2152 346.673 524.676
351 0 58.0885 11.9645 695 65.577 346.692 524.02
352 0 58.0573 12.746 740 64.7257 347.07 524.201
353 0 60.0858 12.2159 734 65.3079 348.012 523.054
354 0 61.0653 14.2307 869 63.3843 348.128 520.857
355 0 62.0286 11.7849 731 65.446 347.078 523.699
356 0 66.0455 11.6283 768 65.6602 348.28 520.553
357 0 65.1532 12.4169 809 66.026 347.119 519.171
358 0 69.0694 12.0603 833 65.7671 347.449 517.966
359 0 73.0287 13.5289 988 62.9939 347.431 518.448
360 0 74.1088 13.0079 964 64.083 347.262 515.498
361 0 77.1499 12.7414 983 64.7436 347.354 514.762
362 0 79.2011 13.068 1035 64.657 348.017 514.862
363 1 44.0441 11.8517 522 63.9444 348.077 531.644
364 0 45.0477 12.3869 558 64.4642 347.717 528.435
365 0 45.0164 10.1519 457 67.698 347.912 528.652
366 0 48.0898 11.6449 560 65.4911 348.5 528.477
367 0 47.0503 10.1168 476 68.5924 348.597 526.803
368 0 50.0607 12.2052 611 65.2946 348.938 526.273
369 0 51.0415 11.7356 599 66.197 348.876 526.194
370 0 54.0335 12.3812 669 64.7952 348.764 525.194
371 0 55.076 11.929 657 65.9026 347.709 525.677
372 0 55.0284 13.1568 724 64.9282 347.395 524.193
373 0 55.1203 10.8671 599 68.4791 347.843 525.037
374 0 59.14 12.7832 756 64.627 347.758 524.114
375 0 62.0822 12.0969 751 65.4088 347.655 522.619
376 0 60.2262 12.6357 761 64.8489 347.443 524.625
377 0 61.0734 11.5107 703 67.7881 348.336 519.129
378 0 66.1202 11.9026 787 65.9327 347.907 520.574
379 0 67.1326 13.3616 897 64.3958 348.392 517.87
380 0 67.1383 11.7817 791 66.5828 347.756 518.282
381 0 71.2323 12.0591 859 65.9197 347.375 519.001
382 0 70.2038 11.9794 841 66.3948 346.669 516.471
383 0 78.0744 13.4999 1054 63.7068 347.432 512.916
384 0 78.117 12.8781 1006 64.825 346.868 513.305
385 0 81.1573 12.3341 1001 65.2737 346.155 513.472
386 0 81.1321 12.3749 1004 65.8556 346.741 510.351
387 0 84.0852 12.4517 1047 65.4222 346.987 510.518
388 1 47.0233 13.3338 627 62.4466 346.927 529.97
389 0 48.073 10.3384 497 67.0724 346.817 529.235
390 0 45.0427 11.4336 515 67.5883 347.524 527.559
391 0 49.0492 13.4763 661 64.4387 347.71 525.98
392 0 52.0941 11.3833 593 66.0304 347.261 527.745
393 0 54.0705 10.9857 594 67.5842 347.487 526.424
394 0 55.0437 11.5181 634 66.6514 347.292 526.801
395 0 57.0448 13.0424 744 65.0833 347.977 524.155
396 0 59.0615 12.0722 713 65.9888 347.78 524.217
397 0 61.0504 12.3996 757 65.2655 347.61 525.625
398 0 63.0798 11.1763 705 67.2695 347.461 524.305
399 0 63.0644 12.6696 799 66.2428 347.952 522.255
400 0 66.0476 11.8248 781 66.4059 347.503 522.817
401 0 67.0463 12.4243 833 66.0576 347.514 521.778
402 0 70.107 13.2654 930 64.5753 347.782 519.926
403 0 70.0606 11.8326 829 66.772 348.62 520.238
404 0 74.0408 12.8983 955 65.1466 348.424 516.79
405 0 77.131 12.1741 939 65.6177 348.05 517.424
406 0 78.0684 11.9511 933 66.2047 348.599 516.696
407 0 82.1003 12.8989 1059 64.5807 348.172 516.286
408 0 83.1077 13.4163 1115 64.8143 347.747 511.678
409 0 86.1777 12.2305 1054 65.8624 347.494 511.806
410 0 86.1719 12.6491 1090 66.355 348.097 509.725
411 0 90.1408 12.3695 1115 66.8556 347.686 509.474
412 0 93.1805 12.7602 1189 65.91 347.347 508.354
413 1 51.0786 10.709 547 66.3108 348.15 530.316
414 0 50.1503 11.7048 587 66.4003 348.06 529.468
415 0 52.0989 12.6106 657 64.5282 347.807 528.79
416 0 53.1004 11.1299 591 67.4856 347.878 527.738
417 0 53.0551 12.3834 657 65.7565 347.589 526.527
418 0 56.0523 12.4526 698 65.4198 347.473 527.862
419 0 58.0632 12.7964 743 64.891 347.271 526.12
420 0 61.0734 13.0662 798 64.2431 346.974 524.914
421 0 61.0555 11.9891 732 66.4658 347.358 523.668
422 0 62.0856 12.2251 759 66.2978 347.576 523.681
423 0 64.1028 12.4176 796 65.6709 347.734 524.671
424 0 68.0848 11.706 797 66.1844 347.053 522.604
425 0 67.0428 13.0215 873 65.7629 347.536 519.801
426 0 70.0397 12.4644 873 66.0584 347.054 520.486
427 0 70.0858 12.9984 911 66.2075 347.44 515.992
428 0 75.11 12.1289 911 66.3128 347.345 518.056
429 0 76.0908 12.2485 932 66.4217 346.982 518.027
430 0 80.0507 12.4296 995 65.8462 347.309 517.047
431 0 78.0786 10.4638 817 69.9731 347.35 514.224
432 0 86.1714 12.4287 1071 66.1018 347.317 515.788
433 0 89.1837 13.1863 1176 65.1497 347.405 513.622
434 1 45.1032 11.3518 512 66.291 347.047 532.486
435 0 47.0234 10.9095 513 66.7154 346.665 533.205
436 0 49.0481 11.9271 585 65.7162 347.202 532.185
437 0 50.0597 12.9046 646 65.2152 346.865 529.542
438 0 50.066 9.847 493 69.0223 347.617 530.588
439 0 52.0578 12.5629 654 65.6743 348.078 529.586
440 0 54.1175 12.2511 663 65.0724 346.587 529.525
441 0 56.0675 11.0403 619 66.7754 346.821 528.977
442 0 57.065 12.9677 740 64.6743 346.439 526.319
443 0 58.1668 10.9857 639 66.313 346.698 529.146
444 0 59.0804 14.2518 842 63.4727 346.711 523.23
445 0 61.0536 12.0059 733 65.5048 346.422 524.689
446 0 62.0649 11.2141 696 66.4282 346.826 524.306
447 0 64.0694 12.1899 781 65.6684 347.257 521.392
448 0 65.0298 11.9484 777 66.2728 347.938 519.726
449 0 68.08 12.6175 859 64.8859 347.588 519.476
450 0 71.0868 13.589 966 63.1718 348.138 517.994
451 0 72.0521 11.8664 855 65.9298 347.76 515.097
452 0 75.1368 12.7368 957 64.883 347.383 514.956
453 0 77.0463 12.6677 976 65.0174 347.249 515.353
454 1 38.0529 9.82841 374 67.8235 347.262 533.163
455 0 39.051 11.549 451 66.1286 347.399 533.701
456 0 43.0504 13.3797 576 62.3142 348.413 536.028
457 0 44.0301 11.6966 515 66.2 347.584 532.899
458 0 44.0409 11.7164 516 65.9554 347.971 532.182
459 0 45.0218 12.5939 567 64.8166 347.57 531.79
460 0 46.0558 11.6598 537 65.6276 347.348 531.844
461 0 49.0803 12.1434 596 65.5101 346.96 529.906
462 0 49.0991 13.3811 657 65.1629 346.516 528.712
463 0 52.0435 12.1629 633 65.3144 346.144 530.101
464 0 53.1343 12.9671 689 64.8752 346.253 528.109
465 0 55.0376 12.5369 690 65.2986 347.058 527.312
466 0 57.0743 13.6138 777 63.8726 347.674 526.443
467 0 59.0865 12.1178 716 64.9441 347.067 528.363
468 0 58.036 11.5618 671 67.0224 347.152 526.292
469 0 64.0547 12.2864 787 65.6264 347.188 524.112
470 0 65.143 11.989 781 66.3444 346.17 523.01
471 0 65.1242 12.0385 784 67.4579 346.679 522.71
472 0 66.0265 11.4348 755 68.5073 346.27 520.951
473 0 70.0887 13.5257 948 65.6466 346.263 520.898
474 0 71.0822 12.3378 877 67.7959 346.47 519.513
475 0 73.0958 11.998 877 68.7104 347.143 518.488
476 0 77.1173 12.8635 992 67.621 346.591 516.289
477 0 80.1 12.834 1028 67.7179 346.162 515.112
478 0 83.0838 12.9147 1073 67.9264 346.295 515.686
479 1 46.0497 12.4865 575 66.2313 347.146 534.515
480 0 46.037 11.2301 517 67.7582 346.472 536.143
481 0 46.0292 11.8186 544 68.7022 346.706 532.842
482 0 47.0271 11.823 556 69.7392 346.683 530.246
483 0 50.0148 11.3166 566 68.7721 346.747 532.687
484 0 53.0633 13.0976 695 65.4029 346.718 532.426
485 0 54.0589 12.8009 692 66.4812 346.702 529.604
486 0 55.0509 12.6247 695 67.3885 347.006 527.453
487 0 56.0965 11.9794 672 68.244 346.576 527.783
488 0 57.0806 13.1043 748 66.9385 346.223 527.82
489 0 59.0885 12.7097 751 68.02 347.142 525.664
490 0 61.0682 12.265 749 68.1949 346.159 524.162
491 0 64.0864 12.3739 793 67.9092 346.236 523.865
492 0 64.0631 12.597 807 68.0669 346.592 522.538
493 0 66.0751 12.1528 803 68.3101 345.616 520.601
494 0 70.1114 12.5942 883 66.7429 346.37 520.405
495 0 72.0398 12.2571 883 67.3556 347.22 519.917
496 0 70.1439 9.9082 695 70.6921 346.824 517.45
497 0 76.1808 10.9476 834 69.0348 346.847 516.45
498 0 79.1646 11.8993 942 67.4554 346.401 514.475
499 1 39.0106 9.61278 375 70.0533 346.749 533.291
500 0 41.0786 11.7093 481 67.8004 346.985 529.886
501 0 41.0968 10.5118 432 69.1088 347.039 529.896
502 0 44.0581 11.099 489 67.3804 346.796 528.362
503 0 48.1031 11.9119 573 65.7644 346.307 529.565
504 0 51.0195 13.9947 714 62.4216 346.116 530.618
505 0 53.1242 12.6308 671 62.9851 346.586 530.249
506 0 55.1012 12.6858 699 63.4764 347.09 527.405
507 0 56.0298 13.2073 740 62.2797 346.809 526.923
508 0 55.112 12.1752 671 65.0745 346.718 524.234
509 0 58.0434 13.0764 759 62.2912 345.767 528.466
510 0 57.0714 11.0914 633 65.3128 345.919 525.742
511 0 63.0659 12.3839 781 63.0948 345.86 523.773
512 0 62.0244 13.0594 810 62.6272 345.849 522.621
513 0 66.2791 13.7751 913 60.6331 345.75 523.422
514 0 66.062 12.2461 809 62.5414 346.151 522.875
515 0 69.1657 11.8556 820 63.3305 346.239 519.72
516 0 73.0982 12.9278 945 61.3958 346.171 519.387
517 0 73.0967 12.504 914 62.4814 346.598 515.975
518 1 40.0252 10.9931 440 62.5386 345.998 533.134
519 0 40.0257 9.26905 371 64.7412 345.642 536.078
520 0 42.0552 10.938 460 63.3065 346.048 532.452
521 0 42.0201 11.4469 481 63.3617 346.1 533.218
522 0 45.0198 11.1284 501 63.3453 346.142 531.529
523 0 45.0717 11.7147 528 63.3106 345.665 529.475
524 0 47.0488 11.5837 545 62.7193 346.084 530.371
525 0 48.0658 13.0862 629 60.7138 346.151 530.55
526 0 48.0728 12.1066 582 62.9863 345.928 529.058
527 0 50.0162 11.5363 577 62.8735 346.229 530.43
528 0 53.0181 13.0144 690 61.413 346.357 527.501
529 0 53.1569 11.9834 637 63.2402 346.356 525.799
530 0 56.0568 13.7539 771 60.7445 346.297 525.781
531 0 57.144 11.5673 661 63.407 346.87 526.39
532 0 58.0467 11.8353 687 62.9301 346.632 524.36
533 0 60.1859 11.4146 687 63.4469 346.045 522.543
534 0 63.0581 12.655 798 61.8659 346.257 521.445
535 0 64.1032 12.5735 806 62.2866 345.68 520.325
536 0 68.1625 12.2208 833 62.0696 345.745 520.092
537 0 71.145 12.341 878 61.7392 346.413 520.106
538 0 69.1829 12.0839 836 62.8959 346.163 516.786
539 0 73.1398 11.7993 863 62.9652 346.49 518.038
540 0 75.1632 10.8431 815 64.2098 346.491 517.372
541 0 81.0966 13.1448 1066 61.3152 346.629 514.008
542 1 43.0133 9.69468 417 62.6259 346.53 533.947
543 0 44.0602 8.73804 385 63.6494 347.605 534.701
544 0 47.0816 9.83399 463 63.3477 345.909 533.106
545 0 46.0862 11.5653 533 61.9137 346.75 531.306
546 0 50.0535 12.4866 625 60.6832 346.334 528.968
547 0 50.0164 13.0357 652 60.9831 346.561 529.084
548 0 50.0194 12.0553 603 62.6302 346.559 527.569
549 0 52.1283 11.9705 624 62.8654 346.381 526.965
550 0 54.1231 12.6563 685 61.892 346.515 526.622
551 0 55.0286 13.2295 728 61.3503 345.716 525.518
552 0 57.0495 12.0597 688 62.3692 345.9 525.515
553 0 61.0778 11.9356 729 62.1824 346.143 524.701
554 0 59.1043 11.1498 659 63.915 346.977 524.546
555 0 63.1076 12.9778 819 61.4786 346.915 520.744
556 0 62.022 11.3992 707 64.1117 347.474 519.365
557 0 65.1086 11.4731 747 62.7122 346.21 521.727
558 0 67.0373 10.9939 737 63.2117 345.294 521.585
559 0 70.06 12.0754 846 62.1939 345.336 518.697
560 0 72.1026 12.4267 896 61.7879 346.273 516.946
561 0 75.0596 12.7366 956 61.2552 346.154 517.093
562 0 80.0872 15.5705 1247 57.3609 346.635 515.129
563 0 81.1698 13.2315 1074 60.8966 346.918 512.244
564 1 42.0531 10.1063 425 62.9224 346.708 534.16
565 0 43.1528 10.4744 452 62.9093 347.104 530.874
566 0 45.0859 11.8441 534 60.7865 346.614 529.873
567 0 45.1028 11.7509 530 61.2811 346.902 528.077
568 0 48.0363 12.5738 604 60.0298 345.859 530.288
569 0 49.0739 11.4317 561 61.8984 345.977 527.226
570 0 51.0973 12.349 631 60.1506 346.626 528.815
571 0 52.1231 11.2618 587 62.7291 346.518 526.075
572 0 54.1085 13.0848 708 59.904 346.243 523.836
573 0 54.1523 11.0799 600 62.54 346.535 526.517
574 0 55.1372 10.356 571 62.951 346.578 526.105
575 0 55.1126 10.5421 581 64.4509 347.059 524.002
576 0 63.0549 13.6389 860 58.7314 346.958 523.826
577 0 63.1112 11.0282 696 62.0115 346.984 521.069
578 0 66.168 13.3297 882 59.2551 347.402 519.705
579 0 67.0654 12.4505 835 60.4754 347.741 520.192
580 0 69.0183 12.3301 851 60.7004 348.228 518.129
581 0 69.1041 11.9385 825 61.7576 348.23 517.527
582 0 73.0736 11.7553 859 60.6298 348.673 517.496
583 0 74.1377 12.6926 941 59.8321 348.438 515.035
584 0 75.1087 10.811 812 61.9889 348.031 516.781
585 0 77.1618 10.8603 838 62.5477 348.087 513.158
586 0 83.1484 12.4596 1036 60.4903 348.136 508.354
587 0 82.1148 10.7411 882 63.5578 347.455 507.768
588 0 86.1029 13.2864 1144 59.7378 346.984 509.865
589 1 46.0514 11.1397 513 60.4191 347.827 528.704
590 0 46.0733 12.7189 586 59.3549 348.046 528.848
591 0 50.0636 10.5865 530 60.1585 346.83 530.653
592 0 50.0773 12.2411 613 59.4241 347.007 527.37
593 0 52.1064 12.129 632 59.9003 346.435 527.861
594 0 51.0681 10.5545 539 62.5083 346.655 526.054
595 0 55.0872 11.6724 643 60.6252 346.387 525.294
596 0 54.1487 12.7612 691 60.3705 346.194 524.427
597 0 56.1283 12.5961 707 60.5997 346.406 524.547
598 0 59.0912 12.0153 710 60.6845 346.71 523.454
599 0 62.1002 13.7681 855 58.8363 347.361 522.188
600 0 63.1613 11.9535 755 61.2702 347.042 522.575
601 0 62.0609 12.665 786 61.0687 346.249 521.111
602 0 66.1029 12.3898 819 61.3578 347.151 518.543
603 0 69.186 12.0834 836 60.6603 347.417 520.951
604 0 71.0878 11.732 834 61.8297 347.042 517.512
605 0 73.0823 12.1644 889 62.0416 347.39 513.885
606 0 76.0867 14.6543 1115 58.7417 347.483 515.062
607 0 79.0682 13.2417 1047 60.0143 346.833 516.422
608 0 82.1687 12.0119 987 61.6667 347.289 514.055
609 0 86.2102 13.4323 1158 59.8273 346.637 511.974
610 1 43.0344 10.6427 458 60.559 346.843 532.504
611 0 46.0313 12.9043 594 58.2694 346.951 531.776
612 0 46.0846 11.3704 524 61.8511 347.323 530.01
613 0 49.0357 10.7473 527 61.9298 347.359 530.066
614 0 49.0424 9.95057 488 62.6127 347.844 531.084
615 0 52.0286 11.1285 579 61.6114 348.439 529.66
616 0 53.2271 11.9488 636 60.7075 348.237 526.934
617 0 54.1061 10.9415 592 62.5997 348.01 525.416
618 0 55.0554 12.6963 699 60.5908 347.867 525.292
619 0 55.0783 12.4913 688 61.1323 347.208 524.324
620 0 55.1141 10.3785 572 63.715 346.864 524.086
621 0 60.0941 12.0311 723 60.4343 347.524 524.591
622 0 60.0998 11.6639 701 61.7989 347.766 522.374
623 0 64.1015 13.2758 851 59.2961 347.713 522.186
624 0 66.0825 13.4983 892 58.907 348.044 521.834
625 0 66.1509 12.0784 799 61.3792 348.029 517.94
626 0 68.069 12.6196 859 60.6403 347.075 518.718
627 0 71.1022 12.3906 881 60.7389 347.443 513.414
628 0 70.184 12.2393 859 61.3783 347.68 518.393
629 0 74.0789 12.1627 901 60.96 347.214 518.971
630 0 76.1254 13.0443 993 61.2397 347.016 513.299
631 0 77.0734 11.7421 905 62.5779 347.219 512.667
632 0 80.1601 12.2879 985 61.7919 347.547 512.556
633 1 42.0578 10.0576 423 61.7943 348.281 531.882
634 0 45.0675 10.9391 493 61.3022 348.235 529.917
635 0 42.0528 10.7246 451 62.8936 347.789 529.064
636 0 43.0154 11.3913 490 62.6653 347.514 527.79
637 0 47.0247 10.4626 492 62.8028 348.049 528.681
638 0 46.1068 11.712 540 61.6981 348.433 526.907
639 0 48.0298 10.6809 513 62.9435 348.064 525.891
640 0 48.2122 11.3664 548 62.9434 347.63 524.093
641 0 52.1343 11.2402 586 62.4625 348.375 526.411
642 0 52.0371 9.49324 494 64.419 347.555 524.648
643 0 55.18 10.0217 553 63.6184 347.741 525.266
644 0 57.0573 12.6014 719 60.5772 347.296 525.668
645 0 58.0772 11.2436 653 62.8254 347.126 523.116
646 0 60.0408 11.6587 700 61.3257 346.69 523.231
647 0 60.1047 11.8793 714 61.8263 346.501 521.431
648 0 63.1086 11.7734 743 61.3836 347.275 521.682
649 0 65.1042 11.3049 736 62.4158 347.452 519.951
650 0 67.0337 12.4713 836 60.8636 347.603 517.177
651 0 71.1236 12.8368 913 60.4403 348.026 515.53
652 0 72.0982 12.9546 934 59.9647 347.247 516.479
653 0 76.0725 11.4496 871 61.2744 348.163 512.503
654 0 75.027 10.996 825 62.3552 347.594 511.885
655 1 41.0536 11.3267 465 58.7935 347.48 533.14
656 0 41.0695 11.2736 463 60.5356 347.546 531.968
657 0 43.1729 11.3729 491 59.7393 347.155 532.538
658 0 42.0239 11.2793 474 60.4895 347.751 532.681
659 0 43.0826 11.211 483 60.7205 346.82 532.178
660 0 42.0314 9.70703 408 63.4387 347.669 530.142
661 0 46.0843 11.8479 546 60.8059 347.462 528.388
662 0 47.0265 11.9295 561 61.7344 347.014 527.292
663 0 49.0222 13.0757 641 59.8066 347.064 527.939
664 0 50.1325 12.7462 639 60.0595 347.11 528.776
665 0 53.1749 12.0546 641 60.7676 347.009 525.591
666 0 53.0243 11.8813 630 61.527 347.657 525.051
667 0 55.0308 11.7207 645 61.6791 346.648 525.155
668 0 58.0456 12.8003 743 59.2732 347.739 526.027
669 0 58.166 12.6534 736 59.9402 347.664 520.514
670 0 60.0462 12.4238 746 60.3123 347.966 524.326
671 0 61.0572 12.5129 764 60.4817 347.808 521.76
672 0 65.0225 14.5642 947 57.095 348.167 524.633
673 0 67.0801 13.5808 911 58.3447 348.146 520.793
674 0 68.1051 14.4483 984 57.2459 347.928 517.248
675 0 68.0708 13.1628 896 59.2891 348.118 517.064
676 0 70.0936 12.198 855 60.3298 347.529 517.11
677 0 73.075 11.3445 829 60.8384 347.341 518.311
678 0 75.0731 12.974 974 59.1766 346.967 513.302
679 1 40.062 10.0344 402 61.6741 347.888 533.132
680 0 43.1026 10.8346 467 60.7366 347.994 532.512
681 0 42.1045 11.2815 475 61.16 347.779 531.985
682 0 44.0318 11.8778 523 60.0402 348.094 531.52
683 0 46.0406 11.555 532 60.8177 348.387 530.758
684 0 46.071 11.8513 546 60.9799 347.665 527.7
685 0 47.0844 11.9785 564 61.2748 347.727 528.121
686 0 50.0481 13.9066 696 58.9397 347.576 528.03
687 0 49.1133 13.4383 660 60.6258 347.897 524.279
688 0 52.0452 11.2979 588 62.9184 347.522 525.895
689 0 56.0751 12.1801 683 61.1201 348.411 526.401
690 0 56.0644 12.557 704 60.8878 347.741 524.554
691 0 56.026 11.4054 639 63.3083 348.321 524.125
692 0 56.0405 11.5095 645 63.6217 348.457 523.18
693 0 62.0501 11.7969 732 62.1475 347.898 525.078
694 0 63.0486 12.1335 765 62.1778 347.537 520.692
695 0 63.141 10.532 665 63.8767 347.762 523.104
696 0 67.0713 11.9872 804 62.6194 347.266 520.817
697 0 70.0639 13.5305 948 60.6846 347.411 518.942
698 0 72.0664 13.5986 980 60.8633 347.796 517.769
699 0 73.0961 13.0103 951 61.9138 347.534 516.169
700 0 74.1014 13.1307 973 61.9311 347.347 514.827
701 0 76.1192 12.4279 946 63.3647 347.978 514.245
702 0 79.1801 11.3539 899 64.6685 347.705 510.573
703 0 84.1473 14.4152 1213 60.5565 346.98 512.422
704 0 84.0966 11.9149 1002 64.3413 346.764 511.341
705 1 44.0763 11.2986 498 63.504 346.739 530.014
706 0 44.0323 11.219 494 63.7814 347.559 531.553
707 0 46.0925 11.9108 549 63.2186 346.863 529.747
708 0 47.0353 9.92871 467 66.97 348.032 528.567
709 0 48.0274 10.7439 516 66.3643 347.895 528.052
710 0 50.019 10.3161 516 67.3798 347.829 527.448
711 0 51.0409 11.2459 574 66.615 348.334 526.732
712 0 53.0781 12.2084 648 64.6605 347.727 528.034
713 0 53.1039 10.9785 583 67.1269 347.969 526.906
714 0 57.0532 12.6198 720 63.9028 347.492 527.653
715 0 59.1084 11.8934 703 65.256 347.543 524.784
716 0 60.0635 12.7199 764 63.0759 347.707 525.535
717 0 60.0633 12.3203 740 65.5284 348.035 520.834
718 0 64.1219 15.0027 962 61.4605 347.37 521.786
719 0 62.0343 12.6059 782 65.5959 347.362 518.267
720 0 67.1128 11.7116 786 64.9924 347.678 521.408
721 0 70.0837 15.0677 1056 61.2983 346.951 516.788
722 0 72.2437 13.8836 1003 62.6999 346.937 517.876
