time division length width area intensity CMx CMy
0 0 45.0623 11.8281 533 71.0188 1181.02 272.075
1 0 48.053 11.3 543 70.8729 1180.53 273.567
2 0 48.1649 12.0627 581 70.062 1180.87 271.282
3 0 51.0947 14.2676 729 66.07 1180.39 272.46
4 0 56.2343 12.1634 684 67.5395 1180.25 272.773
5 0 54.0598 13.892 751 66.4021 1180.29 271.173
6 0 54.0495 12.5256 677 69.3235 1179.79 270.424
7 0 59.0469 12.7695 754 67.2016 1179.67 271.626
8 0 58.0397 12.4914 725 68.7862 1179.1 269.164
9 1 94.7081 12.6916 1202 55.5033 1176.46 283.577
10 1 64.1876 14.2551 915 65.1792 1178.68 266.609
11 0 64.0533 12.7706 818 68.0721 1178.44 265.068
12 0 66.3076 13.0151 863 66.9548 1178.42 266.264
13 0 75.192 13.4722 1013 63.3327 1178.44 268.758
14 0 71.059 12.8766 915 67.3148 1178.85 263.828
15 0 73.0863 13.573 992 66.0756 1177.41 262.325
16 0 74.1499 13.6885 1015 66.4562 1177 261.68
17 0 79.5295 8.14792 648 56.5648 1175 290.363
18 0 76.8979 6.7232 517 61.5126 1175.37 287.143
19 1 41.0553 10.498 431 69.3155 1177.51 277.923
20 0 44.0244 10.426 459 69.9586 1177.88 276.839
21 0 44.1414 11.6897 516 69.1977 1177.2 274.506
22 0 45.1081 12.3481 557 67.4686 1177.64 275.749
23 0 46.1648 12.2604 566 68.1413 1177.11 273.422
24 0 47.1301 11.0333 520 69.9308 1177.26 274.056
25 0 51.0208 12.4263 634 67.3517 1177.91 272.831
26 0 52.0339 13.2606 690 66.429 1178.01 271.864
27 0 52.0764 11.1375 580 71.1017 1178.09 268.507
28 0 53.1071 12.0511 640 69.6266 1177.92 269.169
29 0 57.0363 12.6937 724 67.9544 1177.68 268.997
30 0 57.0464 11.9727 683 69.795 1177.71 268.578
31 0 60.0825 12.2831 738 68.836 1177.75 268.626
32 0 58.1576 12.3286 717 69.6318 1177.84 267.513
33 0 63.1016 14.8966 940 65.1213 1177.63 264.524
34 0 65.1216 13.3135 867 66.0669 1178.25 267.385
35 0 64.0795 11.8134 757 69.8719 1178.18 264.489
36 0 70.1192 13.2917 932 66.9742 1178.14 263.957
37 0 69.1993 12.2689 849 68.5866 1177.68 263.727
38 0 70.2065 13.56 952 67.5011 1176.96 259.529
39 0 75.0635 13.9882 1050 66.259 1177.05 259.103
40 0 75.0735 12.5477 942 67.9915 1177.25 260.649
41 0 78.0807 11.9748 935 69.0086 1177.55 259.226
42 1 40.0197 10.6697 427 68.5222 1177.99 275.909
43 0 42.0925 10.3819 437 68.7483 1177.46 276.073
44 0 45.0435 12.6544 570 64.8246 1177.95 276.026
45 0 46.031 12.3395 568 66.9789 1177.68 274.637
46 0 48.0135 10.8511 521 67.7774 1176.94 276.601
47 0 49.033 13.1136 643 65.6734 1176.78 274.342
48 0 49.0348 13.7657 675 65.197 1177.37 271.027
49 0 50.0189 12.0754 604 66.5513 1176.21 273.442
50 0 55.0395 13.3359 734 64.0095 1176.41 272.068
51 0 55.086 11.709 645 67.1132 1176.72 270.184
52 0 55.1093 11.831 652 67.3834 1176.96 269.624
53 0 58.1098 11.7364 682 66.2097 1177.25 271.909
54 0 63.1239 14.1626 894 62.311 1177.04 269.748
55 0 62.0748 13.7576 854 63.9075 1177.23 266.656
56 0 66.0575 13.1855 871 64.0184 1176.69 268.107
57 0 65.1318 12.4056 808 65.599 1176.83 266.558
58 0 67.1709 14.2026 954 63.1908 1176.94 263.713
59 0 70.1137 13.1073 919 64.0849 1176.9 264.129
60 0 71.1226 13.6525 971 63.7312 1176.37 264.065
61 0 80.0078 15.561 1245 58.5896 1176.95 268.068
62 0 75.3663 12.5255 944 65.3337 1176.63 263.164
63 0 78.1201 12.1608 950 65.0853 1176.81 262.257
64 1 40.1473 11.7318 471 64.051 1176.95 279.172
65 0 40.0081 10.6978 428 65.4766 1176.44 279.547
66 0 42.0094 12.1163 509 63.8919 1176.11 276.692
67 0 41.0383 11.2334 461 65.9132 1176.27 276.551
68 0 44.0754 12.2744 541 63.4418 1176.55 276.579
69 0 45.0482 12.6309 569 62.9033 1177.48 277.513
70 0 45.0652 12.9368 583 63.4065 1176.77 273.998
71 0 54.3541 13.4672 732 59.3429 1176.72 275.504
72 0 50.0941 11.9775 600 63.865 1176.97 273.168
73 0 55.1674 14.3563 792 59.7008 1176.86 273.583
74 0 53.0523 11.9693 635 63.8598 1176.91 273.085
75 0 54.0282 11.7531 635 64.3921 1176.77 272.186
76 0 57.1396 14.3858 822 60.4842 1176.36 272.931
77 0 59.0433 14.2946 844 61.0296 1177.28 271.373
78 0 57.0489 12.3578 705 65.1191 1177.47 270.438
79 0 59.0981 13.4691 796 63.7965 1177.28 267.098
80 0 60.0254 11.9616 718 66.0613 1177.75 267.274
81 0 64.0381 13.1328 841 64.4114 1177.21 266.339
82 0 66.0798 12.1368 802 64.904 1176.73 266.96
83 0 70.0826 12.8277 899 63.7508 1176.53 266.021
84 0 71.1032 14.4438 1027 60.8481 1176.42 266.863
85 0 73.0874 14.7358 1077 61.3398 1177.11 264.22
86 0 75.0595 13.083 982 63.9257 1177.38 264.06
87 0 79.0424 12.8286 1014 63.9024 1177.09 263.239
88 0 81.0581 13.7432 1114 63.6616 1177.49 260.137
89 0 81.1061 12.4652 1011 66.5094 1177.55 257.105
90 1 40.0236 11.2184 449 66.3719 1177.36 278.664
91 0 43.0429 13.2426 570 64.9789 1177.68 276.082
92 0 44.0559 12.121 534 66.4869 1177.62 277.052
93 0 43.0718 12.839 553 67.0199 1177.6 275.465
94 0 47.0438 12.1164 570 66.5684 1177.55 276.604
95 0 47.0438 12.0526 567 157.841 1176.54 276.584
96 0 48.0624 13.6489 656 66.5015 1177.08 273.741
97 0 51.1139 13.2449 677 66.0783 1176.93 273.256
98 0 53.0721 12.9447 687 66.607 1177.26 273.975
99 0 53.0847 13.0358 692 67.2341 1177.47 272.418
100 0 54.0112 11.8494 640 68.8672 1177.15 271.897
101 0 58.0215 13.6501 792 66.0631 1177.23 269.239
102 0 57.035 12.466 711 68.4093 1177.55 270.248
103 0 61.057 13.0534 797 66.8934 1177.71 268.94
104 0 64.0653 14.1106 904 65.0332 1177.7 267.643
105 0 61.0595 13.3804 817 67.4676 1177.54 267.477
106 0 64.0568 12.4265 796 68.2965 1177.26 267.49
107 0 71.039 14.9214 1060 63.9821 1177.02 267.178
108 0 71.1154 13.5976 967 66.7756 1177.33 262.522
109 0 72.1005 12.7322 918 68.0251 1177.11 264.569
110 0 77.079 14.1803 1093 65.4309 1177.75 262.864
111 0 80.1534 14.1479 1134 65.7681 1176.8 259.251
112 0 80.0867 13.7226 1099 67.1092 1176.47 257.492
113 0 83.0671 13.772 1144 66.4414 1176.14 257.257
114 0 86.0991 13.3102 1146 66.9101 1176.44 257.659
115 1 42.0236 10.2085 429 69.9814 1176.73 279.324
116 0 46.0423 11.8152 544 68.204 1176.87 275.23
117 0 46.0484 11.6616 537 69.2849 1177.22 274.777
118 0 49.0534 12.8024 628 66.457 1177.54 275.608
119 0 49.0539 12.4353 610 67.4213 1177.5 272.631
120 0 53.1472 12.3431 656 65.9207 1177.68 274.058
121 0 53.0455 12.9134 685 66.1752 1177.81 271.764
122 0 54.0614 13.7436 743 65.428 1177.08 271.397
123 0 55.2004 13.5687 749 65.5634 1177.61 270.844
124 0 57.029 12.5726 717 66.4491 1177.5 270.026
125 0 60.014 12.0972 726 66.0096 1178.19 271.437
126 0 62.0732 12.9847 806 64.8362 1177.48 269.413
127 0 65.0462 15.7119 1022 61.2877 1177.55 266.14
128 0 65.0407 14.2372 926 63.9795 1177.45 264.487
129 0 68.1079 12.7885 871 65.4765 1177.28 265.367
130 0 69.0403 12.9055 891 66.1515 1177 262.781
131 0 74.2366 13.3492 991 64.6519 1177.76 262.844
132 0 76.0721 13.6712 1040 65.0077 1177.58 262.011
133 0 78.0745 14.3837 1123 64.0721 1177.94 260.271
134 0 80.052 13.3288 1067 65.9644 1177.53 260.377
135 0 83.1622 13.5157 1124 65.6931 1177.35 258.919
136 0 86.0564 12.457 1072 66.9991 1177.55 258.175
137 0 88.1655 14.3367 1264 64.4858 1177.5 255.989
138 1 43.0778 11.4908 495 67.5455 1178.02 278.471
139 0 43.0383 11.9661 515 68.4835 1178.07 276.183
140 0 48.1322 13.5876 654 64.6529 1178.15 276.602
141 0 50.304 13.2793 668 63.8024 1177.58 277.292
142 0 47.0887 12.0199 566 68.5848 1177.91 273.705
143 0 48.0583 12.1935 586 68.5922 1177.67 272.227
144 0 50.0449 11.5696 579 69.6408 1177.71 272.449
145 0 55.0765 13.0364 718 66.2187 1178.23 271.368
146 0 57.0649 13.581 775 64.889 1178.47 270.836
147 0 57.0932 13.8721 792 64.5227 1177.88 272.476
148 0 59.096 12.9958 768 66.7122 1178.03 270.148
149 0 63.0535 14.7811 932 63.3734 1177.79 269.353
150 0 62.0788 14.2722 886 65.2427 1177.6 268.65
151 0 66.0571 13.8365 914 65.1575 1178.26 267.97
152 0 66.1549 14.4358 955 65.4503 1178.4 265.274
153 0 67.0341 12.5011 838 68.2232 1177.12 264.517
154 0 70.1082 12.9799 910 67.2681 1178.17 265.629
155 0 74.0505 13.7879 1021 65.5632 1178.21 265.186
156 1 41.0279 12.0406 494 66.6235 1178.07 279.972
157 0 40.0077 11.1728 447 68.4362 1178.28 281.123
158 0 40.0563 12.1579 487 70.8542 1178.39 277.117
159 0 44.0417 13.0558 575 67.9965 1178.78 278.645
160 0 47.0169 14.314 673 65.3165 1178.1 278.441
161 0 46.0459 12.2052 562 70.5374 1177.94 275.619
162 0 50.0342 14.1104 706 66.3442 1178.26 275.54
163 0 48.0991 12.0584 580 70.9103 1178.03 275.357
164 0 52.105 14.893 776 65.7912 1177.43 275.532
165 0 52.0439 13.5078 703 69.1935 1177.12 273.986
166 0 52.0438 11.9899 624 72.1635 1177.28 272.492
167 0 54.064 12.7072 687 70.984 1177.67 273.54
168 0 56.0506 14.1479 793 69.3405 1177.36 270.806
169 0 56.0747 12.7865 717 71.7322 1177.92 270.817
170 0 59.1141 13.1948 780 70.6244 1177.25 270.914
171 0 61.0359 13.533 826 70.4613 1177.73 269.801
172 0 63.0392 14.8955 939 68.8892 1177.92 266.847
173 1 83.2215 27.7933 2313 47.5564 1177.05 253.042
174 0 88.5752 20.7394 1837 53.1437 1177.45 255.042
175 0 85.819 22.0814 1895 53.6691 1177.55 256.858
176 0 83.0709 19.2125 1596 58.1472 1177.05 256.294
177 0 84.4869 18.4762 1561 60.123 1176.94 257.598
178 0 85.0655 17.3043 1472 62.2113 1177.42 257.022
179 0 88.1115 18.3064 1613 61.2145 1177.13 255.712
180 0 89.0779 18.0628 1609 62.3567 1177.39 256.259
181 0 90.1213 16.1227 1453 65.9656 1177.38 254.542
182 1 45.0674 13.0915 590 72.0373 1177.59 280.271
183 0 45.0772 12.6006 568 74.6919 1178.4 277.775
184 0 53.1918 12.8779 685 70.3314 1178.34 279.295
185 0 48.0384 12.8647 618 75.0841 1178.03 275.113
186 0 52.0492 12.7956 666 73.4264 1177.48 276.264
187 0 52.1436 12.3697 645 75.231 1177.88 273.082
188 0 56.0744 13.9992 785 71.4522 1177.65 274.222
189 0 53.024 13.6919 726 74.6061 1177.5 272.628
190 0 57.0355 13.062 745 74.8268 1177.57 271.906
191 0 57.1057 12.1004 691 77.3242 1177.77 270.861
192 0 59.0978 13.2661 784 75.602 1177.45 270.418
193 0 63.0648 12.3207 777 75.9949 1177.29 270.214
194 0 64.0459 12.9282 828 75.8273 1177.3 267.703
195 0 66.0825 13.3016 879 74.7395 1177.15 268.856
196 0 68.0541 14.4003 980 73.2327 1177.17 266.181
197 0 71.0539 13.4264 954 74.0514 1177.58 266.521
198 0 73.0756 13.0413 953 75.2382 1176.92 265.065
199 0 77.1866 14.0957 1088 72.9761 1176.45 264.243
200 0 78.079 12.6026 984 75.6169 1176.55 263.632
201 0 81.1341 14.778 1199 72.5813 1176.86 261.767
202 1 42.0588 12.3636 520 74.6269 1177.26 280.006
203 0 41.1101 12.576 517 75.3694 1176.85 278.923
204 0 42.0525 12.199 513 76.1053 1176.69 278.179
205 0 45.0837 13.242 597 74.2077 1176.62 277.802
206 0 45.0201 12.5722 566 75.129 1177.4 278.263
207 0 48.0308 14.3033 687 71.9811 1177.43 275.374
208 0 48.041 12.3644 594 74.2037 1177.37 276.776
209 0 50.101 11.7363 588 74.9303 1176.67 275.915
210 0 52.1125 13.1063 683 72.1406 1176.74 276.315
211 0 54.0727 14.0552 760 70.8474 1177.01 275.629
212 0 56.0656 15.8386 888 68.1059 1177.13 274.732
213 0 56.1103 13.42 753 72.5378 1177.47 274.139
214 0 58.0747 13.3965 778 71.9434 1177.59 274.553
215 0 59.0871 13.404 792 72.8144 1177.45 272.26
216 0 62.113 12.9925 807 72.8092 1176.24 273.302
217 0 64.099 13.5104 866 71.9446 1176.04 272.524
218 0 65.1795 13.3478 870 73.1345 1176.02 270.799
219 0 66.0864 12.8619 850 74.3871 1176.2 268.727
220 0 70.0436 13.9485 977 72.1873 1176.54 267.567
221 0 71.1408 14.1269 1005 72.7234 1176.49 265.9
222 0 72.0382 12.5073 901 75.5372 1176.52 265.239
223 0 75.107 13.7537 1033 72.9245 1176.55 263.787
224 0 79.0802 13.5685 1073 73.3541 1176.82 260.144
225 1 40.0403 12.0878 484 74.7273 1176.58 277.996
226 0 43.0384 12.9187 556 71.9676 1177.11 281.424
227 0 44.1695 12.7916 565 71.731 1176.96 282.788
228 0 43.0091 11.3232 487 76.0739 1176.94 280.041
229 0 47.0657 12.7694 601 72.2596 1177.45 280.551
230 0 46.0655 12.6342 582 73.4931 1177.7 279.306
231 0 51.039 14.5771 744 69.7621 1177.56 275.429
232 0 52.0372 12.7409 663 72.2202 1177.73 276.267
233 0 54.0434 14.0443 759 69.7154 1177.46 276.594
234 0 54.0688 12.5766 680 72.8147 1177.7 273.884
235 0 55.0492 13.4244 739 71.4141 1177.93 273.655
236 0 57.0321 12.2563 699 72.8283 1177.35 273.302
237 0 60.0424 14.2233 854 69.1101 1176.99 272.882
238 0 60.0541 12.8051 769 72.3407 1177.15 270.341
239 0 63.0364 13.0083 820 71.7512 1177.82 269.561
240 0 62.1108 12.687 788 72.7728 1177.8 268.614
241 0 66.0863 11.6363 769 73.459 1177.9 267.681
242 1 34.0335 10.5778 360 70.7667 1177.75 285.022
243 0 39.036 11.5278 450 69.5956 1177.61 282.747
244 0 38.0138 11.1012 422 72.3365 1177.29 282.697
245 0 42.0708 13.5961 572 67.8217 1176.85 280.967
246 0 41.0229 12.1396 498 70.4297 1177.11 281.604
247 0 44.027 12.6741 558 68.8656 1176.83 281.253
248 0 46.0407 12.9016 594 68.9276 1177.09 278.365
249 0 47.015 12.9959 611 69.4124 1175.92 276.11
250 0 48.0435 12.9466 622 69.4084 1176.74 276.466
251 0 50.0358 11.8715 594 71.0842 1177.15 276.175
252 0 52.0424 13.2584 690 69.0174 1177.49 276.528
253 0 52.0286 12.5508 653 70.8606 1177.23 275.214
254 0 52.0313 12.4348 647 70.7002 1176.7 276.422
255 0 54.0823 13.2206 715 70.2364 1176.39 273.376
256 0 56.0616 13.3068 746 69.9584 1176.76 274.126
257 0 58.048 13.0754 759 70.6904 1176.45 271.311
258 0 62.1117 14.4739 899 67.8888 1176.69 270.404
259 0 61.0329 12.7964 781 71.2407 1176.86 270.643
260 0 65.0766 13.6608 889 69.5399 1177.01 268.345
261 0 68.0399 13.9771 951 68.3617 1177.46 268.932
262 0 68.0919 13.0706 890 69.4337 1177.42 269.127
263 0 71.06 12.792 909 70.286 1177.31 266.359
264 0 73.0555 13.4692 984 69.5325 1176.93 265.077
265 1 39.0154 10.0986 394 71.7741 1176.73 282.475
266 0 43.0334 12.2231 526 67.3479 1177.15 282.859
267 0 42.0336 11.1577 469 70.8614 1176.74 281.217
268 0 43.0578 11.8445 510 70.1196 1176.8 279.659
269 0 43.0246 12.7834 550 70.0127 1177.1 277.158
270 0 47.0424 13.9449 656 66.6037 1177.09 277.192
271 0 49.0669 13.1657 646 67.9814 1177.1 276.517
272 0 50.0312 11.9525 598 69.3311 1177.47 276.651
273 0 50.0224 11.115 556 70.9119 1177.1 275.901
274 0 52.0552 12.8325 668 68.4057 1177.53 274.069
275 0 51.065 11.6518 595 70.9076 1177.31 274.654
276 0 55.0582 12.7683 703 68.3485 1177.39 272.846
277 0 57.0917 12.2785 701 68.5064 1177.33 273.631
278 0 59.0651 12.7486 753 68.0677 1177.42 271.389
279 0 62.0565 14.1162 876 65.9178 1177.13 270.637
280 0 61.0502 12.8419 784 67.8776 1177.45 266.292
281 0 65.1435 12.4341 810 67.4235 1176.8 268.889
282 0 67.0419 13.678 917 65.6957 1176.66 268.328
283 0 70.0565 12.6898 889 66.6884 1176.27 266.418
284 0 72.1359 12.324 889 66.9944 1176.14 266.469
285 0 73.0994 13.2559 969 66.2807 1176.14 264.001
286 0 76.0375 14.1115 1073 65.0541 1175.95 263.599
287 0 79.0456 13.3467 1055 65.4976 1176.24 262.422
288 1 38.027 11.0711 421 66.3349 1176.26 280.629
289 0 42.0474 13.1994 555 62.3874 1176.51 282.173
290 0 40.0275 11.1923 448 66.5737 1175.87 278.761
291 0 44.0501 10.874 479 65.952 1175.56 279.668
292 0 44.1413 12.6186 557 64.3088 1176.24 278.51
293 0 47.0302 13.1192 617 62.7115 1175.81 278.008
294 0 48.0594 12.9007 620 63.0952 1176.21 278.995
295 0 47.0355 11.0767 521 65.9731 1176.39 278.42
296 0 52.0744 12.2901 640 62.8813 1176.01 278.119
297 0 51.04 13.5384 691 62.8929 1175.86 272.493
298 0 51.0357 12.3835 632 64.5032 1176.55 272.753
299 0 54.1638 11.0037 596 65.6678 1176.55 272.738
300 0 53.0577 11.61 616 65.2289 1176.01 270.008
301 0 58.2383 12.5347 730 62.537 1175.45 273.362
302 0 60.0702 12.6519 760 62.2303 1176.23 270.7
303 0 61.1238 11.6812 714 63.9692 1176.68 267.772
304 0 66.1436 12.5636 831 60.9783 1176.72 270.812
305 0 68.0567 12.1076 824 62.1723 1176.63 266.831
306 0 70.1242 13.0911 918 61.0991 1176.62 266.833
307 0 70.02 11.7109 820 63.1988 1177.02 266.882
308 0 73.1507 11.7155 857 62.5438 1176.61 266.747
309 1 38.0733 10.9788 418 63.4737 1176.53 282.263
310 0 44.0524 12.3262 543 60.0368 1176.87 282.637
311 0 42.0241 11.5886 487 62.7474 1176.36 280.803
312 0 42.0433 11.6309 489 62.8384 1175.98 280.072
313 0 47.0441 11.9037 560 61.975 1176.16 279.871
314 0 46.1166 12.5118 577 62.3241 1176.52 278.808
315 0 49.0603 12.4133 609 62.4187 1176.68 276.361
316 0 51.1071 12.5032 639 62.4038 1176.74 274.98
317 0 48.0633 11.9842 576 65.1424 1176.69 273.618
318 0 52.0659 13.1756 686 63.3397 1176.63 270.324
319 0 55.0996 12.2505 675 64.3763 1176.5 270.413
320 0 56.0517 12.2387 686 65.2464 1176.52 267.732
321 0 60.0967 15.6082 938 59.6215 1176.38 270.529
322 0 58.0423 11.6122 674 66.5994 1176.07 268.163
323 0 63.049 13.7671 868 63.2143 1175.83 266.752
324 0 61.0432 13.0072 794 65.6096 1175.84 266.451
325 0 68.0849 13.7329 935 63.2064 1176.19 265.274
326 0 68.2078 13.5175 922 63.8026 1176.2 262.852
327 0 70.0659 12.8308 899 64.8165 1175.85 264.072
328 0 73.211 12.703 930 64.4946 1176.09 264.716
329 0 72.0723 12.1128 873 66.8855 1176.02 261.796
330 0 77.1362 13.2882 1025 64.3141 1175.2 262.162
331 0 80.1177 12.7188 1019 64.8234 1175.36 259.198
332 1 41.0413 11.9148 489 63.8139 1175.91 279.875
333 0 42.0236 12.255 515 64.2932 1176.3 279.223
334 0 41.0486 12.8872 529 64.2836 1176.26 279.036
335 0 44.0934 11.589 511 66.2642 1176.91 276.984
336 0 48.1633 13.558 653 62 1177.14 276.466
337 0 47.1205 12.0118 566 64.8869 1177.43 276.094
338 0 47.0452 11.7547 553 65.7812 1177.17 275.877
339 0 51.1983 13.3208 682 61.5909 1176.84 277.826
340 0 50.0286 12.5928 630 64.927 1177.22 274.102
341 0 53.1037 13.4266 713 63.5764 1176.91 273.923
342 0 54.1704 13.033 706 63.9958 1176.89 272.486
343 0 55.1333 11.9528 659 65.2185 1176.53 272.671
344 0 58.1035 12.7703 742 63.3908 1176.3 271.602
345 0 58.0609 13.0208 756 64.3571 1175.85 268.849
346 0 64.0285 13.166 843 62.2088 1176 269.408
347 0 64.1007 12.7612 818 62.9303 1176.31 269.159
348 0 67.0431 15.4975 1039 59.1174 1175.66 269.284
349 0 67.1031 12.4286 834 63.5743 1175.8 268.335
350 0 69.1626 13.2442 916 62.9007 1176.06 266.275
351 0 74.1101 15.0182 1113 60.0323 1175.53 263.766
352 0 74.076 13.6616 1012 62.1294 1175.54 263.264
353 0 77.1074 13.1764 1016 62.5049 1176.04 262.927
354 0 77.1296 12.2003 941 64.7832 1175.75 260.002
355 0 83.129 14.4474 1201 61.0525 1175.43 260.782
356 0 85.1008 12.7848 1088 63.8759 1174.95 257.976
357 1 43.079 10.9334 471 63.7304 1176.4 278.924
358 0 44.0845 12.4534 549 62.9253 1176.38 275.698
359 0 45.0222 11.8386 533 64.2064 1176.64 276.818
360 0 47.0545 12.1561 572 64.2413 1176.69 276.453
361 0 49.0684 12.0444 591 64.2487 1177.2 276.166
362 0 50.0617 13.4634 674 62.8605 1176.89 274.915
363 0 51.0485 13.3207 680 63.2853 1177.17 275.184
364 0 51.0362 13.2063 674 64.2329 1176.73 273.15
365 0 52.0648 13.7329 715 63.3231 1176.92 271.678
366 0 56.0606 11.6481 653 64.0904 1177.02 275.202
367 0 61.328 12.7348 781 61.8079 1176.57 273.937
368 0 58.0524 12.7988 743 64.6864 1176.49 270.567
369 0 66.1793 13.9621 924 60.0303 1176.44 273.365
370 0 64.1492 13.796 885 62.2904 1176.68 269.028
371 0 66.1022 12.4807 825 64.497 1176.76 266.382
372 0 68.0866 13.145 895 63.4648 1176.3 265.668
373 0 67.0679 13.0614 876 64.5103 1176.87 264.788
374 0 69.0925 11.3761 786 67.7608 1176.3 262.127
375 0 73.0381 13.5135 987 64.3739 1176.31 262.398
376 0 78.1721 14.1739 1108 63.1516 1176.81 260.958
377 1 40.0294 11.4915 460 65.0043 1176.7 277.635
378 0 40.0217 11.119 445 66.4472 1176.25 277.31
379 0 41.0303 11.1869 459 66.1699 1176.27 278.312
380 0 42.0498 12.4376 523 66.2467 1176.7 274.254
381 0 44.0174 10.7003 471 67.4437 1176.98 274.894
382 0 47.041 11.3943 536 65.7705 1176.33 275.33
383 0 51.0596 11.7118 598 64.1605 1176.18 275.241
384 0 47.0248 10.4626 492 67.9533 1175.79 273.128
385 0 50.0947 12.656 634 64.3896 1176.06 272.626
386 0 50.0426 12.2496 613 66.0163 1176.22 271.078
387 0 55.0214 14.3035 787 62.4053 1176.11 269.479
388 0 54.0439 10.8986 589 67.5959 1176.29 269.428
389 0 56.0232 12.2449 686 66.2012 1175.9 266.894
390 0 60.1013 13.211 794 63.7406 1176.42 265.999
391 0 60.0541 12.4887 750 65.6147 1176.86 264.579
392 0 65.1495 12.3715 806 64.2047 1177.04 266.324
393 0 66.0286 12.4491 822 64.7555 1176.94 264.369
394 0 66.1208 10.7077 708 67.2274 1176.78 263.483
395 0 71.1607 14.2635 1015 62.067 1175.92 261.818
396 1 37.046 10.7974 400 65.4025 1176.37 278.82
397 0 40.0151 10.8209 433 65.6605 1176.79 278.046
398 0 40.0371 11.2895 452 65.5487 1176.9 276.763
399 0 40.0367 11.3895 456 65.9803 1177.3 276.355
400 0 43.0315 11.48 494 65.583 1177.12 276.791
401 0 44.0251 12.4929 550 64.9036 1176.78 276.078
402 0 45.0568 11.6963 527 66.2486 1177.13 274.892
403 0 51.2979 13.9577 716 60.6592 1176.64 276.708
404 0 51.0385 11.7362 599 65.7396 1176.4 274.07
405 0 50.0353 13.4505 673 65.0208 1176.31 271.444
406 0 52.0166 12.8997 671 64.6885 1177.01 273.539
407 0 53.0362 12.0484 639 65.9468 1176.54 273.282
408 0 56.1318 12.5954 707 65.0679 1177.13 271.559
409 0 60.1897 12.0453 725 65.2041 1176.51 270.301
410 0 60.0901 14.0123 842 63.8302 1176.38 266.863
411 0 62.0553 12.3761 768 65.4674 1176.69 268.885
412 0 63.0934 12.7906 807 65.3494 1177.01 267.629
413 0 64.0954 13.1835 845 65.1278 1176.91 265.408
414 0 68.0814 13.9833 952 63.8834 1176.62 264.813
415 0 69.0597 13.2929 918 65.4488 1176.84 264.955
416 0 72.1106 14.0617 1014 63.4398 1177.37 266.215
417 0 73.0592 11.9903 876 67.5685 1177.34 262.384
418 0 79.2081 13.9632 1106 64.3038 1177.27 261.741
419 1 41.1457 10.0861 415 69.0361 1177.26 278.812
420 0 41.0265 14.7709 606 63.5743 1176.79 278.251
421 0 44.0633 12.7998 564 66.3121 1177.22 277.596
422 0 43.0407 11.3613 489 69.6524 1176.59 276.245
423 0 45.089 11.0448 498 69.8353 1176.81 276.661
424 0 48.0555 13.4844 648 65.7346 1176.92 275.673
425 0 49.0456 13.5588 665 65.982 1176.97 275.492
426 0 48.0192 10.8498 521 70.9213 1177.34 275.1
427 0 52.0545 12.4485 648 67.3071 1177.03 275.495
428 0 55.1344 12.932 713 66.6381 1176.84 272.856
429 0 55.0934 12.3245 679 68.2651 1177.01 271.199
430 0 55.1972 13.642 753 67.3227 1177.09 267.624
431 0 58.0282 12.3216 715 67.8909 1177.06 269.064
432 0 65.1621 14.8092 965 62.6404 1176.93 268.74
433 0 63.1385 12.4647 787 66.8056 1176.36 268.825
434 0 66.0594 13.8209 913 65.3308 1176.89 266.438
435 0 68.1447 12.6202 860 66.4267 1176.85 267.269
436 0 72.0578 13.4337 968 64.5754 1176.56 265.227
437 0 73.0324 13.0901 956 64.8473 1176.03 265.421
438 0 74.0903 12.4443 922 66.5087 1176.22 263.362
439 1 40.0162 10.3958 416 66.8149 1175.98 281.002
440 0 41.0231 13.4802 553 63.1808 1176.5 280.378
441 0 40.0197 11.9441 478 66.6109 1176.5 278.787
442 0 43.0385 12.756 549 64.7359 1176.5 277.938
443 0 43.1124 12.2239 527 66.5028 1176.47 277.15
444 0 43.0349 11.0608 476 68.4538 1176.28 277.342
445 0 47.052 11.7955 555 66.0649 1176.35 276.009
446 0 48.0208 14.3063 687 62.8588 1176.37 274.913
447 0 50.1036 13.7315 688 64.2078 1177.1 273.433
448 0 52.0543 12.2564 638 65.2727 1177 273.713
449 0 53.0572 12.7975 679 64.704 1176.99 273.133
450 0 56.134 13.4322 754 63.0875 1177.33 273.793
451 0 55.0626 12.2225 673 66.3091 1177.11 270.527
452 0 57.0644 11.8988 679 66.5847 1176.94 269.43
453 0 61.0674 13.1494 803 63.5741 1176.86 270.12
454 0 62.0578 13.0685 811 63.2515 1176.48 270.392
455 0 63.1569 13.031 823 63.7169 1176.3 268.47
456 0 64.1469 13.89 891 63.7082 1176.26 265.667
457 0 68.0715 12.7219 866 64.3048 1176.24 265.048
458 0 68.1415 12.6502 862 65.2378 1176.36 263.857
459 0 72.1984 13.1028 946 64.2537 1176.31 263.169
460 0 77.0638 13.7419 1059 61.9245 1176.39 264.895
461 0 77.064 13.0022 1002 64.493 1176.01 259.941
462 1 39.0422 10.1172 395 67.4456 1176.39 276.696
463 0 43.0345 11.7348 505 65.4832 1176.86 275.917
464 0 41.0241 11.1642 458 68.5393 1176.07 274.697
465 0 48.0783 11.3565 546 66.2289 1176.64 274.623
466 0 48.1097 12.0974 582 65.043 1176.57 275.337
467 0 52.0411 12.8744 670 62.2582 1176.54 276.503
468 0 52.1093 11.5335 601 66.2047 1176.52 272.927
469 0 54.1524 12.7603 691 64.2446 1176.04 271.757
470 0 54.0265 11.9571 646 66.5 1176.27 270.932
471 0 53.049 11.7062 621 67.5604 1175.91 269.233
472 0 61.1292 13.1034 801 64.4307 1176.25 269.436
473 0 60.1302 12.922 777 65.4363 1176.39 267.423
474 0 62.1636 12.2258 760 65.7671 1176.53 269.504
475 0 64.1876 13.2268 849 65.1319 1176.79 268.181
476 0 66.2188 13.2289 876 65.4372 1176.56 264.539
477 0 67.085 11.7761 790 67.2456 1177.16 265.139
478 0 73.068 13.6996 1001 63.2088 1176.84 263.05
479 0 76.1514 14.4974 1104 61.8931 1176.82 264.932
480 0 74.1428 11.7746 873 67.5384 1176.61 261.345
481 0 79.1334 14.5577 1152 62.8351 1176.66 260.72
482 0 82.1584 13.194 1084 64.9732 1176.69 259.065
483 1 42.0203 11.1851 470 67.5915 1176.54 275.032
484 0 44.0222 11.6759 514 67.751 1176.07 273.245
485 0 48.0368 11.7618 565 67.1646 1176.33 274.087
486 0 50.0498 13.2268 662 64.6073 1176.48 275.728
487 0 48.0242 12.9934 624 66.4087 1176.46 273.67
488 0 52.0242 12.3212 641 66.6895 1176.48 272.513
489 0 54.0742 11.7801 637 66.956 1176.74 272.058
490 0 55.0586 12.4594 686 67.363 1176.87 269.991
491 0 58.1447 12.2797 714 66.8039 1176.59 271.199
492 0 60.0672 14.3339 861 64.7561 1176.63 267.535
493 0 62.048 11.8779 737 67.6608 1176.39 267.775
494 0 62.0428 12.0723 749 67.9479 1176.05 267.463
495 0 65.0888 11.8761 773 68.8137 1175.42 264.401
496 0 69.1426 13.841 957 64.8662 1175.16 265.871
497 0 71.1141 13.7104 975 65.5959 1175.05 261.923
498 0 73.1503 12.3581 904 66.9945 1175.5 262.763
499 0 75.1592 12.8527 966 66.7019 1175.85 262.776
500 0 80.0598 12.9903 1040 65.1808 1175.51 262.791
501 0 82.0667 12.4167 1019 65.8577 1175.37 261.086
502 0 81.0895 11.9621 970 66.8495 1176.26 261.49
503 1 47.0434 10.7773 507 66.8422 1176.77 278.385
504 0 47.0529 11.4977 541 68.0591 1176.29 274.732
505 0 49.0326 11.0743 543 68.8803 1175.86 274.779
506 0 50.0409 11.5705 579 69.418 1175.51 271.489
507 0 57.051 12.9007 736 65.2351 1175.52 273.887
508 0 59.042 14.1594 836 63.2356 1175.97 273.639
509 0 57.0594 11.672 666 68.1186 1176.18 270.995
510 0 58.0855 12.1717 707 67.8755 1176.81 269.092
511 0 61.0525 12.3173 752 67.1144 1176.13 268.66
512 0 66.0538 14.0189 926 63.1523 1176.01 268.306
513 0 66.0337 13.8717 916 63.7413 1176.39 268.122
514 0 68.0704 13.1628 896 65.5257 1176.58 265.225
515 0 71.1225 13.3151 947 64.9356 1176.53 265.114
516 0 75.1238 14.0701 1057 63.4267 1176.3 263.455
517 0 76.1284 12.6103 960 66.501 1176.31 263.895
518 0 78.1754 12.7918 1000 67.226 1176.38 259.39
519 0 83.0916 14.839 1233 63.9157 1175.97 257.932
520 0 83.1246 13.0286 1083 67.1191 1176.35 257.549
521 1 43.0222 11.436 492 69.4289 1176.53 274.961
522 0 49.0469 11.7031 574 66.8014 1175.82 275.568
523 0 46.0405 11.4682 528 70.0871 1176.08 273.665
524 0 49.0649 12.5752 617 68.0697 1176 273.326
525 0 52.0749 12.7701 665 66.5549 1176.31 273.732
526 0 51.0742 11.6106 593 69.2209 1176.13 272.089
527 0 55.0202 12.9225 711 66.6048 1176.18 270.027
528 0 57.102 14.2377 813 64.4686 1175.9 270.037
529 0 59.0425 12.5503 741 66.9703 1175.81 269.56
530 0 61.0824 12.786 781 66.1933 1176.28 267.932
531 0 64.0562 13.9097 891 64.1998 1175.32 267.859
532 0 66.117 13.7786 911 64.8606 1175.36 265.274
533 0 66.1101 11.8893 786 67.9618 1175.52 265.355
534 0 72.1959 13.0894 945 64.5376 1175.99 265.658
535 0 72.044 12.298 886 66.1354 1176.03 263.615
536 0 74.0652 12.5295 928 65.8524 1175.98 260.411
537 0 78.1158 12.9039 1008 64.3859 1176.57 262.213
538 0 79.0961 12.7946 1012 65.1502 1175.92 258.876
539 0 82.1012 14.9084 1224 62.0033 1175.56 256.185
540 1 46.0212 11.2339 517 65.0542 1175.69 277.25
541 0 48.1706 11.7084 564 64.5674 1175.75 275.702
542 0 47.0216 11.5691 544 66.4835 1175.88 275.006
543 0 51.0465 12.7727 652 64.3129 1175.06 273.229
544 0 52.0238 12.2828 639 65.4116 1175.39 272.011
545 0 54.0617 13.762 744 62.2056 1174.66 272.972
546 0 55.1347 13.0589 720 63.5042 1175.37 270.236
547 0 58.0661 12.3652 718 64.4401 1175.01 268.756
548 0 60.0779 14.6976 883 61.2537 1174.59 267.806
549 0 63.0513 14.7657 931 60.8163 1174.95 266.207
550 0 62.0557 13.3751 830 63.4229 1175.38 265.984
551 0 68.0757 13.3822 911 62.1394 1175.88 266.002
552 0 67.0468 12.9313 867 64.3206 1175.1 263.642
553 0 71.2171 15.3896 1096 60.1369 1175.43 264.312
554 0 71.0496 12.4702 886 65.1919 1175.23 261.57
555 0 75.0682 13.2813 997 63.321 1176.13 263.069
556 0 77.0577 13.0941 1009 64.5134 1175.66 259.34
557 0 80.0984 13.1588 1054 63.8226 1175.77 260.4
558 0 81.0513 12.3996 1005 65.8527 1175.18 258.566
559 1 43.2735 10.3296 447 66.1834 1175.49 277.159
560 0 44.0764 12.2741 541 63.4048 1175.75 278.551
561 0 47.0964 11.9967 565 63.4425 1175.22 277.759
562 0 48.0302 12.2423 588 64.0136 1175.46 277.029
563 0 50.0661 12.104 606 64.2228 1175.46 275.15
564 0 51.0519 13.0064 664 63.5256 1175.47 273.786
565 0 51.0351 11.4823 586 64.6058 1175.69 274.206
566 0 54.0572 13.2452 716 62.655 1175.53 271.439
567 0 57.0464 12.9368 738 62.4946 1175.68 270.621
568 0 59.0879 12.6253 746 62.6153 1176.09 270.035
569 0 59.054 13.9364 823 61.2236 1175.88 267.678
570 0 63.0707 14.0636 887 60.4216 1176.1 267.218
571 0 63.0323 12.2318 771 61.7082 1176 269.267
572 0 66.112 11.9192 788 62.2272 1175.86 266.725
573 0 68.041 12.7423 867 61.2964 1175.53 264.532
574 0 72.0411 12.9232 931 60.536 1175.9 263.972
575 0 75.1052 13.1416 987 59.6292 1175.82 263.793
576 0 77.1856 13.2797 1025 59.6478 1175.66 262.917
577 0 78.0964 12.4462 972 61.0442 1175.53 260.606
578 0 82.1107 13.7741 1131 59.1989 1176 259.316
579 0 83.0917 12.8653 1069 60.8756 1175.81 258.244
580 1 45.0642 10.1633 458 60.8821 1175.31 279.116
581 0 47.0434 10.7773 507 61.0927 1175.37 277.039
582 0 49.0431 13.1313 644 59.9798 1175.47 273.55
583 0 53.0933 13.2785 705 58.4809 1174.44 274.597
584 0 51.0519 10.695 546 62.9304 1174.69 273.209
585 0 54.0387 11.6028 627 61.4131 1174.95 271.488
586 0 57.0823 13.0864 747 59.2851 1174.94 271.074
587 0 59.0368 14.7535 871 58.3008 1175.18 268.003
588 0 61.0228 11.8644 724 61.3039 1175.43 268.349
589 0 62.0857 13.0143 808 60.151 1175.55 266.949
590 0 66.1019 13.6002 899 59.3504 1175.2 265.514
591 0 70.0897 14.0249 983 57.9522 1175.48 266.741
592 0 69.088 12.8821 890 60.5742 1175.35 264.457
593 0 71.09 13.0257 926 60.3844 1175.13 263.594
594 0 73.0844 12.6019 921 61.0608 1175.55 259.115
595 0 75.0897 12.5983 946 61.6226 1175.71 258.426
596 0 81.1107 12.7357 1033 60.1239 1175.92 258.706
597 0 81.1475 12.5327 1017 60.6411 1175.3 258.15
598 0 86.1113 13.68 1178 59.3531 1175.25 258.472
599 1 45.0898 10.7785 486 61.5905 1175.41 276.206
600 0 48.0374 12.0531 579 60.525 1175.14 272.915
601 0 49.0525 11.6202 570 61.4333 1175.8 274.663
602 0 48.0585 10.6121 510 63.0941 1175.85 272.376
603 0 55.1241 11.1748 616 60.6071 1175.98 273.172
604 0 57.0739 11.3011 645 60.7426 1175.98 270.586
605 0 55.0571 11.588 638 61.8997 1175.94 269.723
606 0 57.0439 11.7804 672 62.0149 1175.8 268.235
607 0 58.0926 11.2751 655 62.5573 1175.85 267.475
608 0 60.0511 11.9065 715 62.6238 1175.64 264.241
609 0 63.0646 12.5903 794 61.5579 1175.56 261.836
610 0 65.2108 12.8813 840 60.7405 1175.59 264.66
611 0 69.0973 13.8356 956 59.5303 1175.98 263.266
612 0 72.0956 12.6776 914 60.8698 1175.43 262.658
613 0 73.0852 13.4364 982 60.5387 1174.84 259.773
614 0 77.1232 15.1446 1168 57.9221 1175.04 259.228
615 0 78.0726 13.7052 1070 60.3598 1174.7 253.878
616 0 79.1715 12.5424 993 62.0524 1174.4 254.338
617 1 46.026 11.0155 507 62.6647 1174.5 270.68
618 0 49.0221 12.6882 622 60.0241 1174.63 270.65
619 0 47.0334 11.2261 528 63.0265 1174.91 269.576
620 0 52.0207 13.4946 702 59.2251 1174.57 268.154
621 0 53.1741 12.9386 688 59.7994 1174.56 266.866
622 0 55.0496 12.8793 709 59.9817 1175.05 265.324
623 0 55.0398 11.0284 607 62.6573 1175.03 263.903
624 0 59.0639 13.3923 791 59.2946 1174.65 263.016
625 0 58.1077 12.3908 720 61.8986 1174.8 260.025
626 0 61.0784 11.5753 707 62.546 1175.2 260.636
627 0 62.1197 11.832 735 61.3279 1174.61 260.163
628 0 66.0233 11.602 766 61.1606 1174.79 261.364
629 0 68.0576 12.9155 879 60.2469 1174.74 258.56
630 0 73.0496 14.6886 1073 57.0764 1174.32 257.816
631 0 74.0943 12.8485 952 59.5882 1174.6 258.675
632 0 77.0907 13.1144 1011 59.3867 1173.97 256.888
633 0 80.1075 14.5055 1162 57.5766 1174.57 256.561
634 0 81.1368 12.9534 1051 59.6499 1174.61 257.455
635 0 84.2316 13.3442 1124 59.0169 1175.03 257.649
636 1 45.0489 10.2333 461 61.0174 1175.5 275.705
637 0 48.0925 12.2264 588 58.9932 1174.96 274.228
638 0 50.0686 11.8238 592 59.9291 1175.14 273.071
639 0 50.2031 11.7722 591 60.8071 1175.05 271.442
640 0 53.117 12.3501 656 59.8689 1175.07 269.738
641 0 55.1015 14.0831 776 57.5258 1174.74 270.107
642 0 61.1359 17.2076 1052 52.5133 1174.92 270.512
643 0 57.0709 12.1428 693 60.3535 1174.2 268.466
644 0 62.1299 13.0855 813 58.0074 1174.46 269.317
645 0 65.1468 13.6768 891 57.1841 1174.74 266.224
646 0 67.0872 13.2961 892 57.7478 1174.78 265.224
647 0 66.093 13.012 860 59.2174 1174.96 263.156
648 0 70.148 12.7587 895 59.1307 1174.45 262.098
649 0 73.1178 14.2373 1041 57.0682 1175.39 262.266
650 0 76.0817 12.4472 947 58.7434 1175.27 264.033
651 0 78.1336 13.6305 1065 58.0545 1174.99 260.878
652 0 81.1351 12.3991 1006 59.5 1175.03 259.618
653 0 85.1505 13.3059 1133 58.2939 1175.2 257.928
654 0 88.0695 13.5234 1191 57.7901 1174.87 258.796
655 1 45.0762 10.1384 457 60.6389 1174.89 277.107
656 0 48.036 11.8245 568 59.0792 1175.4 276.104
657 0 49.0911 12.2222 600 59.1983 1175.1 274.545
658 0 55.0951 12.4149 684 57.0044 1174.52 275.371
659 0 54.0823 13.0172 704 58.6023 1173.9 269.915
660 0 54.0554 13.3752 723 58.0249 1174.39 270.054
661 0 58.0294 12.2352 710 59.0465 1174.3 269.503
662 0 58.1391 13.1925 767 58.4707 1174.14 268.553
663 0 60.0779 12.6503 760 58.6526 1174.13 269.795
664 0 64.0298 12.7284 815 58.3129 1174.43 268.08
665 0 64.0721 12.8761 825 59.1418 1174.19 264.263
666 0 67.046 13.3192 893 57.9474 1173.93 266.745
667 0 71.044 14.2447 1012 56.3636 1174.33 266.149
668 0 70.1215 13.0916 918 58.9575 1174.45 261.744
669 0 74.079 12.1897 903 59.5759 1174.4 263.601
670 0 79.0743 13.8351 1094 57.4214 1174.54 261.345
671 0 77.1046 12.5544 968 60.4112 1174.08 255.147
672 0 84.0725 13.7381 1155 58.1004 1174.12 255.045
673 0 87.0494 14.3941 1253 57.3559 1174.06 253.505
674 1 47.0346 9.18472 432 61.5394 1174.2 276.391
675 0 47.0297 12.1625 572 60.2867 1174.02 270.601
676 0 50.093 11.5785 580 60.8845 1173.84 272.059
677 0 54.0818 13.9049 752 57.5439 1173.75 273.352
678 0 56.0514 12.6491 709 59.591 1173.71 270.076
679 0 60.079 14.9803 900 55.8 1174.21 271.87
680 0 61.0602 14.5594 889 56.6862 1174.35 270.057
681 0 62.0589 12.8265 796 59.0603 1174.69 267.702
682 0 63.0449 13.1018 826 59.2542 1174.92 266.935
683 0 67.039 13.783 924 58.2413 1174.77 264.685
684 0 70.1662 12.4561 874 59.4085 1174.73 264.097
685 0 70.0643 13.8016 967 58.2937 1174.82 263.21
686 0 72.1248 12.8527 927 59.6753 1174.08 260.475
687 0 75.051 12.3916 930 59.8978 1174.51 259.976
688 0 77.1499 13.2599 1023 59.1085 1174.7 257.303
689 0 81.0855 12.419 1007 59.4042 1174.75 259.312
690 0 84.161 13.391 1127 57.9858 1174.75 257.093
691 0 89.1145 16.7088 1489 54.2411 1174.72 252.289
692 1 46.0795 11.4151 526 59.2034 1174.46 274.025
693 0 49.0473 11.7846 578 58.5467 1174.84 274.031
694 0 51.0477 13.9086 710 55.4113 1175.03 274.042
695 0 49.0386 10.1961 500 60.95 1175.16 271.932
696 0 52.1257 12.2205 637 58.6703 1174.83 268.984
697 0 56.0359 12.8846 722 57.1011 1174.46 269.446
698 0 55.1557 12.3831 683 58.47 1174.8 268.176
699 0 60.192 13.9387 839 55.7914 1175.21 267.474
700 0 61.0846 13.4895 824 56.8167 1175.26 265.295
701 0 63.0613 12.6226 796 57.0779 1175.29 264.967
702 0 65.0261 14.0405 913 56.0515 1175.8 264.52
703 0 67.1074 13.2176 887 56.4882 1175.52 264.485
704 0 70.1132 15.0899 1058 54.3526 1175.5 263.997
705 0 71.0762 14.5056 1031 55.8797 1175.42 262.204
706 0 74.1484 14.8891 1104 56.0426 1174.73 259.106
707 0 75.1679 12.8512 966 58.0362 1175.34 261.631
708 0 80.1506 13.013 1043 58.4631 1174.92 257.477
709 0 81.1397 13.9513 1132 58.0486 1175.34 253.661
710 0 85.1725 14.547 1239 57.3414 1175.07 253.296
711 0 87.1054 14.0405 1223 57.5699 1174.81 250.324
712 0 91.1051 14.4558 1317 56.6948 1174.59 250.692
713 1 47.0527 11.349 534 58.2228 1175.09 273.461
714 0 49.0779 12.8979 633 58.1896 1176.02 269.861
715 0 51.0455 11.5191 588 59.4354 1174.96 270.84
716 0 53.0484 13.7045 727 57.0096 1175.37 269.315
717 0 56.0835 14.4962 813 55.4736 1174.95 268.546
718 0 56.0443 11.5444 647 59.2689 1175.39 268.306
719 0 58.037 14.0428 815 56.7178 1175.5 266.728
720 0 59.0622 12.7154 751 57.5739 1175.36 268.671
721 0 61.1389 13.2485 810 57.5086 1175.34 264.589
722 0 64.0607 11.8638 760 58.3987 1174.88 265.832
723 0 66.0471 11.4161 754 58.9828 1175.22 264.955
724 0 67.0543 12.1394 814 59.2002 1174.84 261.694
725 0 72.1181 13.2422 955 57.3319 1174.71 259.133
726 0 76.1067 14.1906 1080 56.1213 1175.16 257.106
727 0 77.0852 12.9078 995 57.8653 1175.43 256.587
728 0 87.2 25.8027 2250 44.1578 1175.73 243.737
729 0 86.2212 15.3095 1320 54.2205 1175.11 253.056
730 0 86.0977 15.0178 1293 54.5244 1175.44 250.814
731 0 89.1199 15.8214 1410 53.8113 1175.44 249.785
732 1 47.0392 12.6278 594 55.4562 1175.07 271.712
733 0 45.0218 10.7059 482 58.1432 1175.05 271.533
734 0 49.0422 11.5003 564 56.7748 1174.95 269.922
735 0 51.0542 12.5357 640 54.9781 1174.94 270.084
736 0 52.1296 12.7183 663 54.7873 1175.19 269.549
737 0 52.0379 12.2027 635 56.0236 1175.23 267.227
738 0 55.0149 12.0876 665 55.8902 1175.02 266.478
739 0 56.0215 13.5305 758 54.2876 1174.82 264.73
740 0 57.0747 12.3347 704 55.5497 1174.21 265.925
741 0 57.045 11.7977 673 56.7727 1173.9 263.421
742 0 61.0941 13.2255 808 54.7017 1174.32 261.944
743 0 63.0497 14.1 889 54.0832 1175.19 261.237
744 0 66.0616 14.0626 929 53.3014 1174.35 263.649
745 0 66.0655 13.0779 864 55.2025 1174.38 260.584
746 0 70.0581 12.6466 886 55.1535 1174.02 261.669
747 0 70.048 12.2916 861 56.7015 1173.74 259.33
748 0 74.0456 13.4917 999 55.2813 1174.66 256.99
749 0 80.1253 15.0889 1209 52.7237 1174.05 256.478
750 1 40.0298 12.2409 490 54.9714 1174.22 273.486
751 0 41.0072 9.94948 408 57.5172 1175.13 272.956
752 0 44.0666 10.9607 483 56.2153 1174.77 272.337
753 0 46.1096 10.0847 465 57.0172 1174.56 271.009
754 0 50.1324 13.3646 670 51.606 1174.94 272.639
755 0 50.0483 12.6877 635 54.3071 1174.1 267.641
756 0 52.1623 15.3176 799 51.0476 1174.09 268.757
757 0 50.0643 10.6064 531 56.791 1174.41 267.908
758 0 53.0217 12.8438 681 54.5859 1174.3 264.189
759 0 55.0295 13.7199 755 53.3947 1174.12 266.364
760 0 58.0297 12.821 744 54.3656 1174.64 265.903
761 0 60.0344 13.4923 810 53.9951 1175.09 264.823
762 0 63.0254 12.5505 791 54.1353 1174.82 266.272
763 0 65.0878 13.8275 900 52.1289 1175.09 263.739
764 0 66.045 15.0504 994 51.2183 1175.34 263.602
765 0 70.0718 12.8297 899 53.1835 1175.6 263.099
766 0 73.1464 13.1517 962 53.736 1175.3 258.742
767 1 41.051 10.4017 427 55.4286 1175.04 275.333
768 0 39.0917 9.38818 367 57.4332 1175.12 275.67
769 0 39.0114 10.3816 405 56.9778 1174.72 275.637
770 0 41.0493 11.3278 465 56.0753 1174.66 275.114
771 0 44.043 11.9656 527 55.6338 1174.98 274
772 0 44.0477 11.6465 513 56.4659 1174.84 273.914
773 0 47.1024 12.1438 572 55.8794 1175.17 272.131
774 0 51.142 13.2377 677 54.5096 1174.48 270.31
775 0 50.046 12.9281 647 55.6182 1174.37 269.488
776 0 53.0344 12.7841 678 55.1327 1174.67 270.665
777 0 56.0669 12.6813 711 55.3305 1174.29 268.847
778 0 55.028 12.2483 674 57.4421 1173.82 265.815
779 0 56.0275 12.9222 724 56.7403 1174.04 266.301
780 0 58.0434 11.9049 691 57.7959 1174.05 265.48
781 0 58.0289 12.1146 703 57.889 1174.48 264.704
782 0 61.1422 12.659 774 56.8605 1174.68 264.054
783 0 65.0899 11.7069 762 57.5171 1174.34 263.478
784 0 67.0785 13.9985 939 53.934 1175.11 265.804
785 0 70.1255 12.8199 899 56.6218 1174.76 259.754
786 1 37.0103 11.3212 419 55.9427 1174.59 275.962
787 0 36.0283 10.6305 383 57.9817 1174.61 275.846
788 0 40.1107 12.0915 485 55.5856 1174.48 275.561
789 0 41.0241 13.0167 534 55.8839 1174.65 272.114
790 0 46.0742 12.1977 562 55.2509 1175.28 273.128
791 0 44.0666 11.6642 514 57.7588 1174.56 271.504
792 0 44.0546 11.4177 503 58.7197 1175.01 270.175
793 0 48.0686 13.1895 634 56.0584 1175.21 272.213
794 0 50.0647 12.4239 622 58.2074 1174.29 268.936
795 0 50.0384 11.7909 590 59.7831 1174.23 268.942
796 0 54.0631 12.9478 700 57.6286 1173.89 268.109
797 0 53.0255 12.7297 675 59.2489 1174.38 265.904
798 0 55.0636 13.6751 753 58.7039 1174.14 264.908
799 0 58.1244 14.0389 816 57.0919 1174.92 265.876
800 0 60.0436 12.824 770 59.1831 1175.36 265.549
801 0 60.1134 12.859 773 60.4709 1174.8 263.871
802 0 63.078 14.5375 917 57.7884 1175.5 264.508
803 0 63.0387 12.5161 789 60.7896 1175.86 262.798
804 0 66.0708 13.5915 898 59.9844 1175.69 261.018
805 0 71.0808 14.2936 1016 57.876 1175.3 263.198
806 0 70.0996 12.6677 888 60.4223 1175.36 261.842
807 1 39.049 11.524 450 60.5933 1175.56 277.124
808 0 37.0661 11.0074 408 61.4387 1175.28 278.877
809 0 42.0248 12.7306 535 59.8692 1174.89 276.725
810 0 43.0593 13.5627 584 59.2671 1175.32 275.479
811 0 44.0296 11.6058 511 63.229 1175.75 274.344
812 0 44.0852 11.6139 512 64.3418 1175.8 271.801
813 0 48.0475 12.4044 596 61.6158 1175.92 273.154
814 0 48.0421 14.1334 679 60.377 1176.15 270.785
815 0 51.0306 13.4233 685 60.8672 1175.82 270.455
816 0 51.0306 13.2862 678 155.341 1174.82 270.587
817 0 54.1154 13.9517 755 60.4 1175.75 270.436
818 0 53.0441 13.4794 715 62.442 1175.51 268.72
819 0 56.0862 12.4451 698 63.0444 1175.56 269.966
820 0 57.0535 13.9518 796 62.2023 1175.67 265.943
821 0 60.0593 13.2536 796 62.3103 1175.79 266.572
822 0 62.0769 14.0149 870 61.8241 1175.12 265.799
823 0 65.051 14.112 918 61.146 1175.41 266.551
824 0 65.0371 12.7619 830 63.9651 1175.64 264.11
825 0 68.0935 12.8647 876 64.1644 1175.68 263.307
826 0 70.0791 13.7844 966 63.1159 1175.49 260.099
827 0 73.1792 13.8837 1016 63.1545 1175.2 259.263
828 1 41.0722 11.2728 463 64.2894 1175.09 276.754
829 0 40.0291 11.5166 461 66.8829 1175.57 273.271
830 0 44.0277 12.9464 570 63.5 1174.88 274.109
831 0 47.0479 13.6882 644 61.6335 1175.15 272.547
832 0 47.0615 12.6855 597 64.0084 1174.36 271.776
833 0 49.0197 12.7092 623 63.9069 1174.15 270.644
834 0 49.055 13.0874 642 64.7336 1174.64 267.598
835 0 53.0425 13.0273 691 62.9638 1174.64 268.333
836 0 55.103 12.522 690 64.4667 1175.47 265.491
837 0 58.0251 13.4425 780 62.8564 1175.04 264.849
838 0 59.0279 13.2649 783 63.0179 1175.28 265.522
839 0 60.0919 12.3477 742 65.0499 1175.33 264.05
840 0 62.0196 12.7702 792 64.9407 1175.57 263.159
841 0 64.0851 12.3898 794 65.4899 1175.29 261.45
842 0 67.1252 13.1694 884 64.7579 1175.68 260.535
843 0 70.1006 14.2652 1000 62.82 1175.48 260.426
844 1 37.0176 10.4275 386 64.8342 1175.98 275.469
845 0 39.0453 11.6019 453 63.4283 1175.69 275.225
846 0 39.1377 11.9067 466 64.3112 1175.66 273.873
847 0 42.0201 12.1608 511 63.7691 1175.23 273.078
848 0 42.0341 11.6572 490 64.7918 1174.9 271.749
849 0 45.1288 11.3675 513 64.7368 1175.55 272.799
850 0 47.073 12.8524 605 62.2628 1175.36 270.329
851 0 48.029 12.0136 577 64.2496 1175.37 270.213
852 0 49.0554 12.1903 598 64.204 1175 269.51
853 0 50.0167 13.1156 656 62.9055 1175.46 268.069
854 0 54.0947 13.7352 743 60.9489 1176.01 268.226
855 0 56.032 13.2424 742 61.9919 1175.79 267.186
856 0 56.0388 13.4371 753 62.413 1176.13 265.774
857 0 60.1206 12.1755 732 63.5082 1175.42 264.015
858 0 62.1176 12.9593 805 61.9416 1175.42 264.528
859 0 62.0912 11.6925 726 64.1901 1175.53 261.532
860 0 64.0767 11.6735 748 64.607 1175.41 258.981
861 0 68.0733 13.4708 917 57.0774 1174.3 263.299
862 0 77.0814 15.4512 1191 56.0437 1175.22 256.248
863 0 78.057 18.1278 1415 53.3124 1175.62 250.989
864 1 34.0179 9.40683 320 61.9875 1176.28 275.922
865 0 37.0089 10.484 388 60.982 1176.45 274.704
866 0 37.0843 9.84245 365 61.3836 1176.65 275.644
867 0 39.0452 10.9616 428 59.6308 1176.18 273.682
868 0 40.0223 11.8684 475 58.7895 1175.96 271.754
869 0 41.1029 11.5564 475 59.08 1175.52 271.28
870 0 42.1034 11.448 482 59.056 1175.96 271.156
871 0 44.0748 11.5485 509 58.1788 1176.09 270.513
872 0 46.033 10.7097 493 58.2779 1175.93 270.501
873 0 50.0555 14.6038 731 52.658 1175.81 271.382
874 0 49.0386 11.8886 583 56.681 1175.59 269.142
875 0 52.069 12.4642 649 56.245 1175.3 267.525
876 0 53.0759 10.0611 534 58.3352 1175.71 267.479
877 0 55.0936 11.6892 644 56.5171 1176.22 267.27
878 0 53.0234 11.9758 635 57.515 1176.02 262.551
879 0 58.0633 13.0719 759 55.1726 1176.37 263.374
880 0 58.0788 11.295 656 56.8521 1175.4 264.047
881 0 61.146 12.7564 780 55.2859 1175.52 261.495
882 0 61.051 11.6296 710 56.7042 1175.44 261.066
883 0 66.0741 13.6362 901 53.8701 1175.76 262.115
884 0 66.1307 11.2202 742 57.0404 1175.88 260.926
885 0 68.1388 11.7994 804 57.2326 1175.98 256.602
886 0 72.1715 12.4149 896 56.5714 1175.93 256.643
887 0 75.0938 13.5031 1014 55.0533 1176.01 256.038
888 1 39.0121 10.3301 403 56.5409 1175.78 273.221
889 0 41.0401 10.039 412 56.6893 1176.11 273.454
890 0 41.0467 10.549 433 57.4665 1175.38 273.337
891 0 44.1002 13.1745 581 54.7212 1175.61 271.702
892 0 44.0467 11.1246 490 56.5694 1175.1 270.68
893 0 48.0486 12.0295 578 55.5052 1175.06 269.893
894 0 47.0497 12.2849 578 56.5502 1174.78 267.612
895 0 47.0599 11.0922 522 58.6628 1174.57 266.519
896 0 53.0259 12.6919 673 54.838 1174.85 267.798
897 0 54.0415 12.6199 682 56.1144 1174.99 265.849
898 0 54.234 12.0957 656 57.3521 1175.21 263.602
899 0 56.0624 11.5942 650 57.8169 1175.54 264.455
900 0 59.0788 14.8615 878 53.6185 1175.38 264.295
901 0 61.0764 14.2772 872 53.7328 1175.42 266.925
902 0 63.1074 12.0588 761 57.0407 1174.77 263.582
903 0 64.0373 13.2423 848 56.2488 1175.07 262.263
904 0 66.0986 12.3603 817 57.153 1174.9 262.838
905 0 68.1209 13.799 940 56.1426 1175.04 259.124
906 0 69.0381 11.7616 812 59.0628 1174.54 258.509
907 0 73.0681 11.5919 847 59.3955 1175.32 259.558
908 1 42.0132 11.9486 502 58.0319 1175.29 273.679
909 0 40.0296 9.468 379 61.9499 1175.72 274.546
910 0 44.0268 12.2198 538 59.0093 1175.75 271.647
911 0 45.0574 11.1635 503 60.3022 1175.23 273.135
912 0 47.0951 11.9758 564 60.8156 1174.81 269.97
913 0 47.0572 12.0492 567 61.1658 1174.59 269.36
914 0 50.0473 11.3293 567 62.0159 1174.72 269.19
915 0 52.0359 13.9135 724 58.6436 1174.86 268.099
916 0 53.0908 13.185 700 59.7271 1174.53 267.713
917 0 55.0327 13.8645 763 59.7038 1175.18 264.501
918 0 55.0741 11.6207 640 61.7672 1175.65 267.247
919 0 55.0549 12.1515 669 61.8281 1175.72 265.879
920 0 59.0309 11.9598 706 61.9433 1175.83 265.347
921 0 60.0577 13.0874 786 61.8397 1176.16 261.91
922 0 64.0795 13.3584 856 60.1998 1175.6 262.718
923 0 67.0842 12.4172 833 61.9892 1175.81 259.992
924 0 70.1708 15.163 1064 58.2415 1175.79 259.307
925 0 71.0843 13.3503 949 61.5659 1175.56 257.009
926 0 73.0586 12.3189 900 63.0167 1175.5 258.402
927 0 78.0593 12.8236 1001 61.4446 1175.55 259.673
928 1 40.0269 10.8677 435 64.6598 1175.54 273.54
929 0 43.0998 12.7611 550 62.8182 1175.58 273.015
930 0 45.0235 12.0826 544 64.1324 1176.07 271.347
931 0 49.0551 13.1485 645 61.1519 1175.17 271.823
932 0 49.0329 12.7669 626 63.4824 1174.96 269.735
933 0 47.0791 10.6629 502 68.4781 1174.9 266.908
934 0 52.1406 13.502 704 63.5795 1174.88 266.935
935 0 53.0142 13.1852 699 64.7525 1174.68 265.195
936 0 53.0307 11.7291 622 67.537 1175.68 266.333
937 0 56.0568 12.523 702 65.8219 1174.78 265.1
938 0 58.0535 11.5583 671 67.2832 1174.76 262.37
939 0 60.0754 12.6841 762 65.2913 1175 262.361
940 0 66.1014 13.4037 886 54.2269 1173.97 266.135
941 0 65.072 12.9703 844 64.6007 1174.86 259.876
942 0 67.0708 13.6721 917 63.3621 1175.29 258.916
943 0 70.0614 13.0029 911 64.1262 1174.52 258.412
944 0 71.1912 12.7263 906 65.2947 1174.88 256.235
945 0 77.0813 13.0771 1008 63.7619 1174.86 255.702
946 1 38.1366 9.96418 380 66.2895 1175.03 274.811
947 0 42.0694 15.4031 648 58.392 1175.26 274.15
948 0 41.0327 10.7719 442 66.0475 1174.63 272.873
949 0 43.0722 10.6797 460 64.8935 1174.99 273.126
950 0 45.0261 12.1041 545 63.9872 1174.93 269.717
951 0 50.0131 12.9766 649 61.0169 1174.64 269.78
952 0 48.0254 11.2441 540 65.3833 1174.97 267.656
953 0 51.0368 12.7751 652 62.1334 1174.72 267.88
954 0 53.0332 12.8222 680 62.5588 1175.03 266.971
955 0 54.1083 14.0089 758 61.0462 1174.81 266.135
956 0 58.1105 12.0976 703 62.9829 1174.94 265.009
957 0 60.0638 13.7853 828 61.4396 1175.12 262.472
