time division length width area intensity CMx CMy
0 0 48.1523 11.879 572 63.3986 807.086 527.177
1 0 50.0725 13.4805 675 60.637 806.865 527.698
2 0 50.0836 12.3793 620 62.3371 807.124 527.85
3 0 54.11 13.9161 753 59.7078 807.675 527.645
4 0 55.1496 12.457 687 61.4934 807.355 526.358
5 0 56.1178 11.6362 653 62.2312 806.452 527.865
6 0 57.1756 12.8901 737 60.8969 806.877 524.752
7 0 58.0789 12.2764 713 61.7461 806.827 523.952
8 0 61.0799 11.2639 688 63.0785 806.783 521.474
9 0 62.098 14.3161 889 58.865 807.476 521.615
10 0 64.1912 15.4383 991 56.7275 806.739 523.145
11 0 65.2043 12.7292 830 60.5867 806.643 519.492
12 0 68.1347 12.5487 855 60.2129 807.322 521.912
13 0 70.2664 12.6519 889 60.0686 807.319 519.665
14 0 71.116 11.6851 831 60.7268 806.792 521.473
15 0 73.1407 13.3305 975 59.1549 806.237 519.77
16 0 75.1513 12.375 930 60.0957 806.274 520.126
17 0 76.0996 13.2852 1011 60.4965 807.035 516.415
18 0 78.0772 14.0118 1094 58.8729 806.353 518.167
19 0 82.0958 13.9471 1145 58.793 806.287 516.13
20 0 84.047 13.2307 1112 59.9128 806.174 517.396
21 0 85.1038 13.3014 1132 60.6519 806.362 512.245
22 0 87.0955 12.9858 1131 60.5296 806.522 513.658
23 0 90.1115 13.1171 1182 59.4915 805.03 514.53
24 1 47.0587 11.7725 554 60.0126 806.051 533.074
25 0 48.0446 10.8441 521 61.7582 807.084 530.839
26 0 47.0484 12.0727 568 61.4648 807.254 529.34
27 0 50.0529 14.225 712 59.1208 807.374 528.92
28 0 51.065 11.2602 575 62.1896 806.958 529.367
29 0 51.0556 11.6931 597 62.5209 807.229 529.327
30 0 53.0838 13.9779 742 60.2062 806.497 527.337
31 0 53.0992 12.2789 652 62.3374 806.644 527.509
32 0 55.091 12.1798 671 62.468 806.784 526.44
33 0 56.0404 12.7944 717 62.0502 806.413 527.24
34 0 59.1008 10.8966 644 63.868 806.839 528.269
35 0 59.0948 13.7745 814 61.9705 808.012 525.258
36 0 60.0649 11.704 703 64.3883 807.586 525.903
37 0 63.0438 12.8006 807 63.8724 807.403 523.862
38 0 66.0404 12.0684 797 64.7503 807.817 523.685
39 0 68.0966 13.3193 907 63.6946 806.716 522.611
40 0 69.0731 12.5374 866 64.8141 807.718 522.477
41 0 71.103 13.0656 929 63.6868 807.324 523.362
42 0 72.1048 12.7869 922 65.6399 807.923 520.739
43 0 72.0801 12.4306 896 66.9777 807.421 519.459
44 0 77.0906 12.9588 999 65.6066 807.685 520.506
45 0 78.064 12.7331 994 67.3561 807.988 518
46 0 78.0449 12.0828 943 68.8515 807.845 516.183
47 0 83.1177 12.1996 1014 68.429 807.819 518.291
48 0 83.1435 12.1838 1013 70.0869 808.705 515.044
49 0 85.0986 11.7628 1001 71.6653 808.547 512.812
50 0 90.1738 12.3872 1117 70.1003 808.447 512.754
51 0 92.1745 12.715 1172 70.0529 808.592 511.382
52 0 95.0958 12.7135 1209 70.3309 808.49 512.152
53 0 93.228 10.1901 950 71.7505 808.299 517.255
54 0 100.151 12.591 1261 71.4298 807.871 507.707
55 0 103.207 12.5767 1298 71.7982 808.648 505.708
56 0 105.217 12.2129 1285 72.3245 808.107 505.689
57 0 104.162 11.3093 1178 74.5815 808.706 504.211
58 1 54.0331 11.7336 634 70.6877 809.129 526.92
59 0 55.0253 11.7037 644 69.6584 808.73 527.342
60 0 58.0741 11.0376 641 70.6412 809.468 526.721
61 0 60.0383 11.4927 690 69.9522 809.374 525.722
62 0 61.0969 12.6193 771 69.585 808.913 522.486
63 0 65.1499 12.3254 803 68.457 808.081 524.42
64 0 67.0797 12.2243 820 69.7341 808.446 521.62
65 0 69.1132 12.5157 865 70.074 809.437 519.816
66 0 72.0888 11.9991 865 69.9503 808.803 519.618
67 0 71.0965 11.4914 817 72.4333 808.163 517.153
68 0 75.0401 11.7804 884 71.0068 808.386 518.786
69 0 76.0731 10.411 792 73.5657 807.871 516.605
70 0 79.0958 12.9337 1023 70.9961 807.979 512.797
71 0 81.1684 12.357 1003 71.5125 807.535 513.495
72 0 86.0736 13.0702 1125 70.3973 807.899 513.06
73 0 88.0906 12.6915 1118 71.1503 808.143 510.267
74 0 90.1079 11.0867 999 73.8128 807.716 509.188
75 1 46.0369 10.535 485 69.2598 808.548 531.901
76 0 45.0294 9.23842 416 72.1346 809.356 530.962
77 0 47.03 10.6953 503 69.835 808.036 530.068
78 0 50.1595 11.1644 560 69.6714 808.377 528.011
79 0 51.0522 12.1444 620 69.1081 809.165 526.123
80 0 54.0354 12.0107 649 68.5901 808.995 526.143
81 0 56.018 11.8712 665 68.8767 809.232 525.394
82 0 55.0549 11.6248 640 69.875 809.831 524.523
83 0 59.1276 12.6506 748 68.2874 808.211 523.644
84 0 59.0844 11.3397 670 70.7672 809.345 524.309
85 0 62.0246 11.2859 700 70.0729 808.731 524.436
86 0 63.0954 12.5049 789 69.2776 809.719 519.531
87 0 66.0648 12.5029 826 69.569 809.878 517.35
88 0 68.1084 11.0559 753 70.8672 808.837 518.697
89 0 73.0486 12.7586 932 67.5333 809.616 517.299
90 0 73.1511 10.7449 786 70.3219 808.59 517.851
91 0 77.127 13.5102 1042 67.3397 808.573 514.635
92 0 79.0863 12.6697 1002 69.1956 809.451 512.912
93 0 80.1108 11.896 953 70.6946 809.352 513.085
94 0 83.1453 12.0993 1006 70.4105 808.865 509.917
95 0 87.0417 11.6726 1016 70.6122 809.252 508.818
96 1 46.0476 8.55637 394 70.0964 809.404 532.612
97 0 46.0581 9.74855 449 71.118 809.316 527.187
98 0 51.0218 12.2693 626 66.3371 808.922 528.195
99 0 50.0679 10.6455 533 69.7749 809.448 525.377
100 0 52.0343 10.6084 552 69.3442 809.71 526.502
101 0 53.0429 10.0296 532 70.2049 809.483 524.921
102 0 55.0784 11.2385 619 68.1454 809.01 524.785
103 0 56.1329 10.4395 586 68.9983 809.358 522.939
104 0 56.0706 11.111 623 68.8587 809.637 520.31
105 0 58.0844 10.2265 594 69.6852 809.551 521.407
106 0 63.0473 11.42 720 67.0472 808.86 520.893
107 0 63.0907 9.93807 627 69.5183 809.756 520.293
108 0 65.1142 10.5507 687 68.5953 809.049 517.063
109 0 66.1307 10.57 699 69.0916 809.639 517.459
110 0 70.1547 10.6907 750 68.216 809.273 517.027
111 0 72.0678 11.8222 852 63.0763 808.482 516.045
112 0 74.1988 11.0918 823 68.2722 808.657 511.306
113 0 77.2591 10.7172 828 68.6268 808.661 511.245
114 0 82.2281 12.6113 1037 64.8235 808.735 510.951
115 0 83.2141 11.7408 977 67.2293 809.26 506.466
116 1 45.1341 10.7014 483 64.3975 809.333 529.938
117 0 45.0585 8.89955 401 66.2743 810.322 529.756
118 0 47.1863 9.21879 435 65.7586 810.954 528.768
119 0 47.0356 11.7145 551 64.0309 810.336 525.817
120 0 49.0683 10.842 532 64.3515 809.9 528.073
121 0 51.0571 12.7896 653 61.9617 808.881 525.53
122 0 52.0859 11.0395 575 64.5096 809.287 526.757
123 0 53.0484 10.6129 563 65.4796 808.563 524.813
124 0 57.0827 12.8936 736 61.8166 808.971 522.829
125 0 57.1329 11.377 650 64.4446 809.229 522.611
126 0 59.0699 11.1224 657 64.5312 809.597 523.271
127 0 60.1537 10.7392 646 64.8282 809.101 521.839
128 0 64.0914 11.6552 747 63.1285 808.857 521.651
129 0 64.0856 11.2662 722 64.4252 809.288 520.857
130 0 66.1181 12.8104 847 62.7898 809.378 517.488
131 0 66.1475 12.7896 846 63.4693 809.31 515.609
132 0 71.1248 12.3726 880 63.0136 809.812 515.52
133 0 70.1609 10.7467 754 65.9363 809.24 513.812
134 0 74.1612 11.9604 887 64.1826 809.751 512.768
135 0 77.1548 12.0537 930 63.1183 809.463 512.137
136 0 78.2121 10.7912 844 65.2844 809.623 508.002
137 1 39.0831 9.13439 357 64.3978 809.961 530.493
138 0 41.0162 9.48406 389 63.2699 809.589 530.159
139 0 42.0598 11.1983 471 61.4119 809.709 529.913
140 0 42.0681 10.3166 434 63.1912 810.7 528.378
141 0 46.1525 11.202 517 60.971 810.493 527.99
142 0 47.1692 11.4694 541 60.2292 810.56 528.226
143 0 48.1208 12.1153 583 61.2624 811.184 525.693
144 0 49.0933 11.2032 550 63.3036 810.662 523.958
145 0 51.0302 11.503 587 62.1721 811.412 525.615
146 0 52.0626 11.3517 591 63.1574 811.227 523.249
147 0 55.0171 12.2507 674 61.6691 810.899 523.27
148 0 55.0355 10.5387 580 63.7086 809.84 523.853
149 0 56.0401 9.72518 545 65.1505 810.05 521.807
150 0 56.0692 11.1291 624 63.8718 810.377 520.756
151 0 59.0753 11.3584 671 63.07 810.833 521.569
152 0 60.0162 11.3803 683 63.3734 809.739 518.666
153 0 62.24 10.2828 640 64.525 810.295 518.369
154 0 64.0635 12.1598 779 61.7754 810.059 516.913
155 0 66.1699 10.7148 709 63.3286 810.292 517.13
156 0 69.0679 12.5239 865 60.5711 811.77 517.387
157 0 70.0729 11.0171 772 61.5246 811.228 517.517
158 0 73.1442 10.4861 767 62.412 810.782 513.858
159 1 37.0401 9.71918 360 60.8528 812.258 533.294
160 0 39.2085 9.8703 387 60.8579 812.178 530.543
161 0 41.0655 10.2763 422 61.1469 812.339 528.14
162 0 43.0562 10.916 470 59.4213 811.738 529.157
163 0 44.0569 11.7121 516 58.7984 811.331 527.69
164 0 45.2002 12.3008 556 58.2698 811.746 526.822
165 0 45.1409 9.61434 434 62.0714 811.816 526.813
166 0 46.0666 10.9407 504 60.3631 812.778 525.127
167 0 48.0628 9.8829 475 61.5853 812.613 525.297
168 0 50.048 10.9295 547 60.7294 812.832 523.693
169 0 50.0925 11.339 568 60.8327 811.762 521.213
170 0 52.0426 10.1263 527 61.6755 811.423 523.288
171 0 52.1327 9.74436 508 62.5098 811.234 520.437
172 0 54.0419 9.56665 517 62.4275 811.031 520.625
173 0 57.1135 10.2953 588 61.415 810.609 519.26
174 0 61.1336 10.3053 630 60.8032 809.737 519.222
175 0 61.0769 10.8552 663 60.2866 809.472 518.409
176 0 64.2049 10.887 699 59.8283 809.167 517.921
177 0 63.1957 10.6495 673 61.0149 809.282 515.688
178 0 66.1565 11.367 752 60.1449 808.851 514.227
179 0 69.1866 12.2567 848 58.6014 809.66 514.767
180 0 71.2565 11.213 799 59.5707 809.36 513.961
181 0 72.2163 9.73464 703 60.8905 808.758 514.32
182 0 75.1484 12.788 961 58.0749 809.726 509.92
183 0 77.2333 10.5783 817 60.8568 808.876 510.705
184 0 81.3334 13.168 1071 57.3212 808.101 509.475
185 1 44.1194 10.6756 471 58.4289 808.86 528.344
186 0 45.0796 10.4925 473 57.7907 808.727 529.326
187 0 46.1227 11.2526 519 57.9094 807.931 526.99
188 0 49.0616 11.0677 543 58.2228 807.282 525.298
189 0 51.069 11.8271 604 57.8063 807.488 523.74
190 0 51.1509 11.1435 570 59.2737 806.991 522.689
191 0 54.0906 12.8673 696 57.2256 807.052 523.843
192 0 54.0153 13.1444 710 57.5817 806.89 521.738
193 0 56.0768 13.8382 776 57.1366 807.072 522.839
194 0 58.0278 11.8219 686 59.3513 806.937 522.332
195 0 58.0783 10.0898 586 61.8669 807.092 521.232
196 0 64.0481 11.6319 745 59.3879 807.287 522.309
197 0 63.1092 11.5197 727 59.619 806.869 521.118
198 0 65.0609 11.3893 741 60.1579 806.756 520.563
199 0 68.079 12.3092 838 59.0716 806.504 518.185
200 0 70.0707 10.9033 764 59.7343 805.579 521.348
201 0 73.132 10.2964 753 60.9894 805.817 518.899
202 0 75.0942 11.2525 845 59.7692 806.064 518.525
203 0 77.1268 10.5152 811 60.4846 805.293 517.224
204 0 79.0631 9.78965 774 61.4251 805.826 517.094
205 0 81.037 10.4767 849 60.9588 806.118 514.895
206 0 83.0807 10.8328 900 61.1722 806.573 511.786
207 0 88.0491 12.936 1139 58.273 806.145 511.809
208 1 43.0672 9.70576 418 60.4043 805.749 533.222
209 0 44.0308 10.5154 463 60.0022 805.497 532.806
210 0 46.0391 11.7292 540 58.287 804.774 532.698
211 0 47.0763 9.87759 465 60.3527 804.755 531.931
212 0 49.0415 11.6432 571 59.2609 805.489 530.9
213 0 52.0546 12.4677 649 58.4345 804.732 530.487
214 0 53.0558 11.1392 591 60.423 804.294 529.552
215 0 52.022 9.55366 497 63.1569 804.859 528.475
216 0 54.0446 10.2693 555 61.7081 803.564 528.714
217 0 56.0775 11.6089 651 60.8495 803.369 526.214
218 0 61.1674 11.0843 678 60.8304 803.791 525.829
219 0 60.0899 11.3829 684 60.9927 804.13 525.867
220 0 63.1019 9.04886 571 63.5114 803.384 526.625
221 0 64.1129 11.4486 734 60.8106 803.307 524.161
222 0 66.1601 11.9861 793 61.8146 803.845 520.386
223 0 68.2595 12.1155 827 61.5417 804.57 518.557
224 0 70.2532 11.302 794 62.7997 804.301 517.845
225 0 73.2452 13.3934 981 60.3619 804.094 516.226
226 0 74.1169 13.5462 1004 60.4223 803.462 514.205
227 1 41.1344 9.94302 409 62.2445 802.961 532.335
228 0 39.0448 9.27141 362 62.5912 803.417 534.285
229 0 41.0432 9.98948 410 62.1659 803.912 532.92
230 0 41.0189 11.3119 464 60.9547 804.597 531.256
231 0 44.101 10.7254 473 60.7759 803.163 530.774
232 0 45.1098 12.1481 548 59.7536 805.624 528.334
233 0 47.0324 12.3957 583 60.1304 805.573 530.194
234 0 46.0583 10.8992 502 62.8625 804.725 527.777
235 0 47.1009 10.382 489 63.7996 805.217 527.716
236 0 51.0738 11.7085 598 61.194 805.478 528.007
237 0 51.1079 10.3898 531 63.3578 804.563 524.198
238 0 50.1185 10.1958 511 64.0841 804.317 526.127
239 0 53.0877 9.98348 530 64.1491 804.377 525.406
240 0 55.0817 10.1304 558 63.9857 804.5 524.823
241 0 55.0547 9.84475 542 64.928 803.943 521.1
242 0 59.0505 11.0583 653 63.6187 803.695 520.985
243 0 60.0673 10.2385 615 64.3935 803.99 521.494
244 0 62.1081 10.8199 672 64.1369 804.533 517.906
245 0 64.0484 11.0854 710 63.5803 804.455 517.385
246 0 67.0824 12.4474 835 61.2192 804.72 516.116
247 0 66.1031 10.6198 702 64.9544 805.436 517.11
248 0 69.038 10.7477 742 64.1199 804.929 516.73
249 0 71.1432 11.0622 787 64.075 805.377 516.653
250 0 74.0249 10.5235 779 64.6406 805.615 513.628
251 0 75.2142 10.9687 825 64.1758 805.905 513.583
252 0 78.1657 10.4522 817 63.4406 804.798 514.088
253 0 82.0835 11.9147 978 62.1616 804.992 514.191
254 1 42.0106 8.45025 355 63.1662 805.189 533.465
255 0 44.0493 11.5552 509 61.222 805.063 530.917
256 0 46.1055 10.1506 468 63.3269 805.682 531.355
257 0 47.2131 10.1455 479 63.0772 805.762 532.088
258 0 48.2071 10.4134 502 63.1892 805.293 529.41
259 0 50.1311 10.5324 528 61.5777 805.46 529.824
260 0 52.1061 9.92206 517 62.9149 804.443 529.35
261 0 51.0915 10.217 522 62.9157 804.247 530.701
262 0 53.0736 9.68466 514 63.2237 805.399 527.704
263 0 55.096 12.4873 688 60.0349 806.217 527.741
264 0 56.0964 9.82237 551 63.7423 805.757 527.851
265 0 59.098 12.5554 742 59.7385 805.313 523.946
266 0 61.0795 10.7401 656 61.2912 805.23 526.273
267 0 62.1027 11.6903 726 60.5579 805.282 524.978
268 0 63.113 11.2497 710 61.1859 804.745 523.599
269 0 66.1301 10.9481 724 61.6961 805.093 522.264
270 0 67.1964 11.5929 779 60.7882 804.72 521.19
271 0 66.1287 9.82931 650 63.9062 805.269 520.102
272 0 68.28 11.4089 779 62.3261 803.978 516.757
273 0 72.2593 11.777 851 61.2632 804.226 514.456
274 0 74.37 10.9722 816 62.0613 804.564 516.218
275 0 77.3108 10.7747 833 62.1128 804.324 515.507
276 0 76.215 10.3392 788 63.4569 804.745 512.865
277 0 81.5164 11.6786 952 61.5588 805.034 509.831
278 0 83.3664 10.8797 907 62.9923 804.148 509.311
279 1 41.3632 8.41328 348 62.3937 804.569 533.267
280 0 43.3214 9.25639 401 61.0374 804.865 534.142
281 0 46.274 8.86026 410 61.5293 805.249 534.293
282 0 44.2331 9.58558 424 62.6887 804.585 531.25
283 0 44.1205 8.47678 374 63.7032 804.35 529.516
284 0 48.2335 11.5687 558 59.1756 803.303 529.206
285 0 51.1336 12.2229 625 58.5328 803.584 530.658
286 0 52.1162 12.5489 654 58.6422 802.916 530.373
287 0 53.0996 10.791 573 60.5236 802.792 527.859
288 0 54.0821 10.0773 545 61.3064 802.71 526.972
289 0 55.1565 10.6968 590 61.1153 803.185 525.644
290 0 56.0755 11.7342 658 59.8739 802.84 526.866
291 0 57.1471 11.4091 652 60.6028 803.549 524.794
292 0 57.0669 10.6542 608 61.7648 803.669 525.257
293 0 61.1903 11.358 695 60.2662 804.447 522.544
294 0 64.0971 11.4514 734 59.6213 804.563 524.251
295 0 66.1116 10.6335 703 60.3144 803.916 524.38
296 0 65.1229 10.3497 674 60.954 803.366 522.976
297 0 68.2731 12.0692 824 58.8216 802.839 519.177
298 0 72.1203 9.91399 715 60.8252 803.334 520.103
299 1 34.1072 9.85129 336 60.9375 804.018 535.295
300 0 37.0345 10.0987 374 59.3128 804.187 536.249
301 0 37.0413 9.4219 349 59.9198 803.077 533.779
302 0 39.0278 8.96797 350 61.3771 803.549 531.423
303 0 39.0279 9.94162 388 60.6572 803.247 532.129
304 0 41.0249 11.4808 471 57.9342 802.798 533.31
305 0 41.1377 10.793 444 58.7995 803.029 532.212
306 0 44.0647 11.3243 499 57.8958 803.299 532.647
307 0 46.0231 11.7115 539 57.1985 802.479 531.302
308 0 45.0543 9.85477 444 60.1104 802.874 532.858
309 0 44.1286 10.832 478 60.1946 802.46 528.741
310 0 47.0549 12.6873 597 57.7102 802.255 528.476
311 0 49.0881 10.8377 532 60.2237 802.857 529.562
312 0 50.2209 12.5645 631 58.1601 802.759 525.678
313 0 53.0786 12.2272 649 57.9892 802.22 527.086
314 0 55.0294 12.1753 670 57.9448 802.581 527.584
315 0 55.098 13.0132 717 57.5286 802.789 524.538
316 0 57.1284 12.3406 705 57.7759 802.616 528.098
317 0 57.06 11.409 651 59.7558 803.247 527.089
318 0 60.0682 12.619 758 58.223 802.612 524.19
319 0 60.1719 12.4477 749 58.7276 803.322 522.865
320 0 61.0777 10.6258 649 60.7827 803.73 523.678
321 0 64.1661 12.9663 832 58.2344 803.541 520.141
322 0 64.1386 13.3773 858 57.9301 802.946 520.276
323 0 64.0803 11.0642 709 60.7602 802.537 519.896
324 0 67.1715 11.4483 769 60.3147 802.365 519.649
325 0 71.12 12.9359 920 58.9967 803.111 517.411
326 0 74.1107 13.7092 1016 58.0837 803.728 515.326
327 0 75.1208 12.42 933 59.8585 802.787 518.329
328 0 77.1132 12.0732 931 61.5102 802.749 514.786
329 0 80.0761 13.0751 1047 60.3314 802.961 515.087
330 1 38.013 10.8384 412 62.1335 803.24 533.379
331 0 40.0292 11.1668 447 61.396 804.19 532.745
332 0 41.0599 10.3994 427 62.4848 803.808 534.377
333 0 43.0373 10.2702 442 62.1018 804.219 534.353
334 0 43.0373 12.2684 528 60.4943 802.883 531.513
335 0 44.0646 13.049 575 60.4383 801.967 528.984
336 0 47.0771 11.3006 532 61.8947 802.656 530.18
337 0 48.0815 12.562 604 60.6772 802.028 528.361
338 0 48.038 11.9905 576 60.9757 802.321 531.042
339 0 50.0482 12.0484 603 60.8458 803.012 529.534
340 0 50.0537 11.3478 568 62.368 803.597 527.329
341 0 53.0821 12.2829 652 61.4156 804.037 526.054
342 0 54.0805 12.0561 652 61.9356 804.087 526.459
343 0 55.0508 11.7891 649 62.3713 803.883 525.006
344 0 54.0771 10.5035 568 64.5335 804.364 523.998
345 0 57.1469 11.6017 663 62.994 803.866 523.888
346 0 60.0793 11.9342 717 62.9331 803.163 522.965
347 0 62.0545 14.0522 872 60.4415 803.094 521.356
348 0 63.0935 12.3309 778 62.91 803.65 520.634
349 0 64.0678 12.518 802 62.9863 803.466 519.042
350 0 68.0743 12.8389 874 62.4165 803.055 519.086
351 0 68.0441 12.7123 865 63.6647 803.209 516.747
352 0 71.0516 12.4698 886 62.9639 803.45 517.889
353 0 74.1572 12.3252 914 63.4606 804.373 516.807
354 0 74.138 11.1144 824 65.9199 804.479 515.716
355 1 41.0553 11.6672 479 63.929 803.664 531.77
356 0 42.061 12.6721 533 63.5441 804.803 528.557
357 0 43.0825 12.3948 534 64.191 803.706 530.397
358 0 45.0261 10.5939 477 66.0587 804.138 530.182
359 0 45.0598 11.5624 521 65.7274 804.155 529.357
360 0 46.0749 10.8302 499 66.7174 804.04 527.683
361 0 50.0551 12.3464 618 64.8301 804.057 526.917
362 0 52.1135 12.2425 638 64.8809 804.491 527.034
363 0 52.1004 12.2648 639 65.9781 804.401 524.044
364 0 54.0573 12.6347 683 65.0337 804.066 524.032
365 0 56.1356 11.8998 668 65.4132 804.382 524.275
366 0 58.1263 11.8363 688 66.1047 804.789 523.926
367 0 60.0639 12.1038 727 65.6781 804.915 523.103
368 0 59.0772 12.2044 721 66.6033 805.06 520.581
369 0 62.2249 11.8924 740 66.7162 804.904 521.335
370 0 65.0953 12.3665 805 66.2 804.811 519.133
371 0 66.0608 12.5339 828 66.3647 803.859 516.256
372 0 69.1021 13.0532 902 65.4113 803.586 517.665
373 0 72.516 13.4729 977 64.1853 804.01 518.197
374 0 73.1455 12.1812 891 66.6779 803.924 513.918
375 1 38.0382 9.93739 378 65.6376 804.325 533.966
376 0 41.0383 9.91756 407 65.0614 803.968 535.047
377 0 42.0257 13.0396 548 62.5693 804.976 531.697
378 0 43.0403 10.5715 455 66.3253 804.371 529.941
379 0 43.0689 11.0521 476 65.6345 805.153 529.311
380 0 46.0717 11.634 536 64.1791 804.397 529.093
381 0 47.0442 10.4795 493 65.8235 804.081 528.959
382 0 48.0587 10.7577 517 65.7466 803.219 526.95
383 0 48.1473 9.20093 443 66.6569 804.187 527.122
384 0 51.2058 10.2918 527 64.7647 803.721 528.125
385 0 52.1537 10.6416 555 64.4342 802.823 527.944
386 0 52.1376 10.0695 525 65.6781 803.61 522.952
387 0 54.0542 11.6365 629 63.2162 803.695 522.665
388 0 55.1098 9.65345 532 65.8139 803.483 521.494
389 0 58.0895 12.102 703 62.3869 803.36 520.865
390 0 59.1056 10.5235 622 64.254 804.09 519.246
391 0 63.1215 10.3768 655 63.6153 804.397 519.632
392 0 63.1457 11.0221 696 63.0517 803.866 518.195
393 0 65.1167 10.796 703 62.9587 804.38 516.428
394 0 69.0584 11.1934 773 61.9586 804.136 517.136
395 0 70.1083 10.3269 724 62.4669 804.732 515.525
396 0 72.0597 9.76968 704 63.0384 804.545 512.594
397 0 72.0951 9.72326 701 63.1227 804.414 511.793
398 1 37.0376 10.3949 385 60.1403 804.501 529.156
399 0 39.0424 8.96461 350 61.24 804.649 530.257
400 0 38.0185 9.10082 346 60.7803 804.428 529.974
401 0 40.1178 9.72136 390 60.3692 804.387 526.931
402 0 42.0632 9.12912 384 61.2057 804.797 527.099
403 0 43.0393 8.8756 382 61.2801 805.39 528.063
404 0 47.1056 10.3809 489 59.3701 805.241 525.941
405 0 46.0632 8.24954 380 61.4895 804.529 523.121
406 0 47.0715 8.81637 415 61.3855 804.925 523.822
407 0 46.1446 7.5415 348 62.8276 804.721 523.652
408 0 49.1071 8.064 396 61.2854 804.126 519.586
409 0 47.1052 5.51956 260 63.5346 803.773 516.646
410 0 50.1208 4.86824 244 64.2623 804.328 514.225
411 0 55.0566 10.026 552 59.9475 803.986 517.895
412 0 53.0386 10.087 535 59.7963 803.596 514.55
413 0 57.0977 7.30327 417 61.3333 803.964 513.568
414 0 46.1166 8.52188 393 59.9186 803.73 505.237
415 0 51.0737 7.22486 369 60.8509 803.439 504.913
416 0 50.0835 5.13143 257 62.4241 803.377 501.646
417 1 70.1764 9.90361 695 63.3669 803.604 442.574
418 0 75.1463 9.52808 716 62.6047 803.622 443.223
419 1 41.0452 9.81845 403 58.9355 803.258 494.459
420 0 39.0496 8.39957 328 62.8933 803.445 453.524
421 0 41.1855 10.5862 436 58.8555 802.975 490.174
422 0 44.0149 12.2231 538 57.2881 803.171 487.79
423 0 44.0651 8.05626 355 61.8028 803.485 484.868
424 0 46.0843 9.54771 440 56.4614 803.018 530.53
425 0 46.1114 10.6698 492 56.4675 803.518 528.278
426 0 47.0852 10.0456 473 57.8943 802.996 527.655
427 0 49.1947 10.0214 493 58.1481 803.627 526.483
428 0 54.2032 12.5085 678 55.0516 803.824 526.239
429 0 54.0549 12.9128 698 55.0888 803.418 527.026
430 0 54.0739 12.1131 655 56.1756 803.693 527.449
431 0 55.1504 11.6953 645 57.369 803.687 523.825
432 0 58.1458 12.5891 732 56.0273 803.667 524.183
433 0 59.1207 9.77661 578 59.6211 803.843 522.912
434 0 63.0926 11.7922 744 57.5981 803.414 519.519
435 0 63.0866 11.191 706 58.5524 803.537 522.136
436 0 66.1037 10.6953 707 59.1754 804.129 519.983
437 0 70.1525 11.7458 824 57.5704 803.812 520.09
438 0 72.1348 12.0192 867 57.5502 804.606 517.692
439 0 75.1073 12.1959 916 57.3657 804.788 517.21
440 0 74.1301 10.576 784 59.5944 803.078 516.401
441 0 77.2226 11.5769 894 58.2517 803.464 517.826
442 0 81.0836 13.8746 1125 56.3342 803.106 513.648
443 0 83.1109 12.5134 1040 57.9856 803.233 513.58
444 1 44.0554 10.2371 451 58.2151 803.572 532.792
445 0 43.0984 11.8102 509 57.7859 803.267 532.629
446 0 42.0175 8.92485 375 61.12 803.515 533.24
447 0 47.0548 11.8373 557 57.4345 803.95 532.235
448 0 47.0388 11.1823 526 59.1749 804.671 531.819
449 0 50.035 11.3521 568 58.8292 804.489 529.824
450 0 50.1082 11.4153 572 58.7535 804.797 529.61
451 0 51.1725 12.4286 636 58.3239 804.377 526.934
452 0 52.1628 11.0807 578 60.1298 803.856 526.931
453 0 54.0385 11.6583 630 59.6492 803.802 527.129
454 0 55.1139 12.7554 703 58.4054 803.819 526.263
455 0 57.1824 13.1684 753 57.6507 803.793 526.321
456 0 57.0909 11.0175 629 60.7742 804.553 525.623
457 0 59.0787 11.5609 683 60.1523 803.835 526.489
458 0 62.1238 12.0083 746 59.4129 804.271 524.995
459 0 64.1452 13.2979 853 57.9742 803.851 523.304
460 0 66.0781 12.7122 840 59.4655 803.601 520.248
461 0 68.0478 12.7704 869 59.8366 803.209 519.946
462 0 71.1067 13.0508 928 59.0916 802.833 519.47
463 0 71.1553 12.4095 883 60.205 802.504 519.582
464 0 74.1534 13.6878 1015 58.3438 802.621 519.527
465 0 79.1747 12.3145 975 59.9087 803.504 516.803
466 0 80.0804 12.5499 1005 59.9313 804.057 518.182
467 0 80.1235 11.7194 939 61.6539 803.39 513.523
468 1 43.048 11.1503 480 59.9583 803.525 534.273
469 0 42.1556 10.2952 434 61.7512 803.661 533.24
470 0 47.1256 12.1802 574 59.3153 802.645 532.016
471 0 48.1095 11.0581 532 61.3102 803.162 529.959
472 0 49.0956 11.8952 584 59.9812 802.707 530.546
473 0 47.1179 10.8027 509 61.9725 802.686 531.542
474 0 49.0334 11.0333 541 61.7227 802.815 529.861
475 0 53.0457 11.1602 592 61.7095 803.397 528.279
476 0 52.0516 11.3349 590 62.0678 802.988 526.331
477 0 56.1173 12.5273 703 60.192 802.28 527.991
478 0 56.0308 11.4758 643 62.1757 802.501 526.546
479 0 56.0613 12.522 702 61.3333 803.178 526.242
480 0 60.1058 12.2783 738 61.0461 802.679 525.561
481 0 62.0778 11.6467 723 61.5934 802.841 525.654
482 0 63.0792 12.2227 771 61.5694 802.812 523.31
483 0 63.1267 11.0888 700 63.1314 802.929 523.2
484 0 67.1247 12.1863 818 61.8936 802.902 519.599
485 0 68.0512 11.9616 814 62.4263 803.061 520.405
486 0 71.0445 11.8095 839 62.1824 803.554 520.869
487 0 72.0632 11.5177 830 63.8735 802.927 517.502
488 0 76.0636 12.4107 944 62.2076 802.673 518.556
489 1 43.026 10.2264 440 61.4364 803.875 536.168
490 0 41.022 10.9697 450 61.8733 802.936 535.118
491 0 41.0699 9.71515 399 65.0852 803.153 530.742
492 0 45.0829 10.4474 471 63.8726 803.456 530.951
493 0 47.0473 12.243 576 61.2309 802.476 531.05
494 0 49.1109 13.8869 682 59.176 803.218 530.938
495 0 49.0657 12.2897 603 61.932 804.206 530.537
496 0 51.0668 12.748 651 60.9217 803.806 528.829
497 0 53.0209 11.2031 594 62.532 803.608 528.96
498 0 54.0533 13.0242 704 60.7216 803.257 527.416
499 0 55.0859 11.2552 620 62.0581 803.658 529.565
500 0 58.0696 9.98801 580 63.8914 803.564 525.671
501 0 59.1805 11.3551 672 62.0223 803.475 527.034
502 0 59.0998 10.7615 636 63.3711 803.182 525.242
503 0 63.2089 12.4982 790 61.0785 802.819 523.4
504 0 64.0661 12.8305 822 60.8893 803.068 522.241
505 0 67.0966 12.1169 813 61.2915 803.171 523.073
506 0 67.134 11.9761 804 62.0062 803.499 520.547
507 0 70.0569 11.819 828 61.6703 803.464 518.773
508 0 73.083 10.6044 775 63.3755 803.434 517.96
509 0 77.0316 11.2941 870 62.777 802.498 515.182
510 0 77.0577 10.3299 796 63.5641 802.465 516.256
511 0 80.0892 11.2999 905 63.1923 802.428 513.126
512 0 83.068 10.5696 878 63.6891 802.368 513.819
513 1 44.1274 11.2855 498 60.7088 802.452 532.998
514 0 45.0845 11.7779 531 60.322 802.925 533.068
515 0 46.0893 12.1937 562 60.4377 802.959 530.87
516 0 49.045 12.723 624 59.3766 802.821 531.341
517 0 51.0517 11.7332 599 60.6962 803.137 531.431
518 0 51.0848 12.0584 616 60.6429 802.75 529.964
519 0 53.0699 11.6262 617 60.9352 802.418 528.994
520 0 50.0192 10.1561 508 63.9528 802.571 527.098
521 0 54.062 12.8926 697 60.6643 802.607 525.743
522 0 57.1202 12.2374 699 60.9156 802.795 526.791
523 0 57.0555 11.5326 658 62.0562 802.377 526.298
524 0 61.1073 12.9445 791 59.866 802.618 524.904
525 0 62.1197 11.9608 743 60.8412 802.664 522.49
526 0 64.118 11.8531 760 61.1342 802.488 520.63
527 0 66.097 12.3455 816 60.4265 802.694 520.868
528 0 68.1006 12.0998 824 60.2937 802.823 521.519
529 0 68.0811 10.5462 718 62.8092 802.813 519.713
530 0 69.1194 9.53423 659 63.953 802.683 518.915
531 0 74.1216 11.4946 852 61.1479 803.311 517.502
532 0 74.1815 9.80029 727 63.2283 803.018 515.369
533 1 37.0251 10.3714 384 60.9141 803.026 534.542
534 0 39.0931 11.0761 433 60.5404 802.887 530.744
535 0 40.0594 10.1849 408 60.9853 802.375 533.76
536 0 41.0249 10.4083 427 61.3044 802.567 531.304
537 0 44.0916 10.7277 473 59.8816 803.184 533.721
538 0 46.0897 9.98054 460 61.4891 802.261 530.452
539 0 44.1163 9.36162 413 62.9613 802.6 529.412
540 0 46.0406 11.7939 543 60.3186 802.534 528.147
541 0 50.0605 11.2464 563 59.8455 802.664 530.725
542 0 52.1195 11.6271 606 58.8977 802.182 526.911
543 0 54.0626 11.2092 606 59.7921 803.079 526.261
544 0 55.0724 11.4395 630 59.5635 801.783 525.414
545 0 57.3085 10.7663 617 59.7861 802.357 525.128
546 0 59.1949 12.6869 751 57.0213 802.101 526.529
547 0 62.1486 9.67037 601 60.5008 802.103 524.418
548 0 64.283 9.64486 620 60.2839 802.295 522.332
549 0 64.0751 11.6738 748 59.004 802.357 518.699
550 0 67.1521 11.2282 754 59.1313 802.646 520.603
551 0 70.2408 12.8842 905 57.6564 801.77 515.662
552 0 71.1079 12.0802 859 59.0873 802.013 518.405
553 0 76.1215 11.1926 852 59.2981 802.426 517.952
554 0 79.1685 11.1029 879 59.9431 803.177 515.65
555 0 81.155 11.1638 906 60.9194 803.075 512.254
556 1 44.207 12.1022 535 57.3402 804.174 533.884
557 0 42.0448 11.345 477 59.065 802.547 533.396
558 0 44.2214 11.1484 493 59.5842 801.527 532.767
559 0 46.0632 10.529 485 60.5546 801.604 531.301
560 0 47.1634 10.3046 486 60.6193 802.599 529.558
561 0 49.0883 10.9191 536 60.2332 802.666 530.785
562 0 50.1528 12.1429 609 59.2906 803.11 529.493
563 0 49.0826 9.6572 474 63.0359 803.53 529.11
564 0 52.1708 12.0757 630 60.1206 803.119 528.789
565 0 53.1084 11.1658 593 60.8128 803.435 526.636
566 0 57.0991 11.7865 673 59.7652 802.829 525.632
567 0 56.1199 10.4598 587 61.5741 802.973 525.232
568 0 59.0935 12.7087 751 58.1598 802.146 527.198
569 0 59.0829 11.1369 658 60.9757 802.023 523.368
570 0 61.0942 12.3743 756 59.6667 802.771 522.608
571 0 64.1129 10.8714 697 61.3171 802.958 520.373
572 0 66.1002 11.7549 777 60.668 802.91 521.893
573 0 69.172 12.4906 864 60.1933 802.998 519.532
574 0 71.0589 11.9619 850 61.1482 803.172 518.148
575 0 74.1366 13.4616 998 59.4098 803.498 519.157
576 0 75.1647 10.2176 768 63.2617 803.24 516.246
577 0 79.0844 12.6068 997 60.346 803.243 514.152
578 0 78.2452 11.4256 894 62.396 803.657 514.865
579 0 85.0755 12.9532 1102 60.4365 804.025 511.221
580 0 85.1162 10.938 931 63.3867 804.575 512.968
581 1 44.047 10.3753 457 62.3523 804.998 533.379
582 0 45.1468 11.075 500 61.566 805.452 532.882
583 0 47.0535 12.3264 580 59.7431 805.234 532.307
584 0 47.1018 12.7808 602 60.2907 804.659 530.621
585 0 47.1474 10.202 481 64.3015 804.748 528.551
586 0 48.0524 11.1545 536 63.5112 804.823 528.076
587 0 52.1071 9.8451 513 65.6218 804.173 527.078
588 0 53.1086 11.1093 590 63.2119 803.954 529.315
589 0 53.1235 10.8615 577 64.3068 804.194 526.102
590 0 57.2558 12.2258 700 62.7971 804.259 524.374
591 0 59.1946 11.5382 683 63.1347 803.013 525.275
592 0 60.1781 10.6185 639 64.9218 803.263 521.987
593 0 64.1108 13.2739 851 61.53 802.706 523.031
594 0 66.1681 11.8788 786 62.9542 802.92 523.149
595 0 69.1571 12.3053 851 62.8496 802.732 520.12
596 0 68.0664 10.7983 735 65.5959 802.424 519.188
597 0 74.106 12.4821 925 62.8238 802.535 518.159
598 0 76.1779 14.0592 1071 60.8926 803.051 516.574
599 0 79.264 11.9222 945 63.4286 803.59 517.19
600 0 80.1942 12.1829 977 64.0563 803.066 513.107
601 0 84.1462 13.9638 1175 61.6604 802.449 511.192
602 0 85.1783 12.3975 1056 63.75 803.33 511.893
603 1 45.0678 11.9376 538 63.7323 803.688 531.125
604 0 46.1211 10.4941 484 65.7541 803.219 528.171
605 0 45.1301 13.1619 594 62.9798 803.722 530.108
606 0 51.1165 14.3007 731 60.3858 803.93 528.387
607 0 50.1133 11.8731 595 63.9345 803.059 527.861
608 0 50.0702 11.7835 590 64.4932 803.378 525.334
609 0 54.0703 11.3926 616 63.5909 802.951 526.896
610 0 54.0658 12.2813 664 63.1837 802.625 524.241
611 0 56.0522 10.9362 613 64.3214 802.672 525.065
612 0 59.0938 13.504 798 60.8496 803.264 523.365
613 0 62.1025 13.7354 853 59.9566 803.232 521.632
614 0 65.0793 14.3978 937 58.9626 803.682 521.691
615 0 64.2367 11.3798 731 63.0698 804.174 521.382
616 0 66.0571 12.2016 806 62.1104 804.233 519.597
617 0 69.0825 13.2306 914 60.8556 803.996 519.074
618 0 70.1154 11.7806 826 62.4419 803.746 518.295
619 0 72.1061 11.9823 864 62.5498 803.11 514.794
620 0 74.0771 13.216 979 60.9326 802.82 513.86
621 0 76.2165 11.4673 874 63.2735 803.42 511.516
622 0 83.0553 13.8462 1150 59.5896 803.704 512.331
623 1 43.1031 12.5049 539 61.2727 803.929 529.562
624 0 47.0253 8.2934 390 63.0744 804.264 532.926
625 0 45.034 10.0369 452 64.0752 804.027 529.646
626 0 45.0298 10.0822 454 64.6233 803.211 529.383
627 0 49.0917 11.9776 588 62.5867 803.509 525.696
628 0 51.0596 10.5955 541 63.7985 803.667 527.253
629 0 51.0348 11.8546 605 62.924 803.24 526.273
630 0 52.031 13.1652 685 62.7547 803.187 522.498
631 0 54.0544 12.2099 660 63.2424 803.242 521.315
632 0 57.1405 11.463 655 63.713 803.679 523.043
633 0 57.0603 13.144 750 62.388 804.456 521.635
634 0 59.0699 13.9496 824 61.4199 804.183 522.306
635 0 62.1337 13.471 837 61.264 803.611 522.865
636 0 63.0396 13.3091 839 62.2193 803.511 518.385
637 0 65.2308 12.4634 813 62.9668 804.034 520.287
638 0 68.0947 14.4064 981 60.2385 804.485 516.563
639 0 71.111 13.8375 984 60.5112 804.044 517.795
640 0 72.077 13.7492 991 61.5257 803.558 512.691
641 0 75.0439 12.8192 962 62.0863 804.266 514.911
642 0 76.1561 12.3431 940 63.4277 803.589 508.251
643 0 77.0881 11.4155 880 64.4557 803.789 513.011
644 0 81.1613 11.6928 949 63.4763 803.257 512.097
645 0 85.0764 13.3645 1137 61.7995 803.264 510.018
646 1 43.0968 9.88472 426 62.6737 802.969 530.967
647 0 44.1735 12.4283 549 60.1184 802.8 529.481
648 0 47.0351 10.2477 482 62.4772 803.604 530.035
649 0 48.0351 11.6581 560 61.1321 803.662 528.82
650 0 48.15 12.7934 616 59.9756 803.906 529.481
651 0 48.0582 11.0491 531 62.9868 804.362 526.196
652 0 52.0693 12.6754 660 59.9621 803.579 526.933
653 0 53.0919 13.5237 718 59.2841 804.411 524.695
654 0 54.1054 13.0301 705 60.0638 803.906 523.945
655 0 54.1012 12.2178 661 61.4766 803.628 523.849
656 0 56.0619 12.6824 711 60.007 803.876 526.039
657 0 59.0849 12.7275 752 59.9574 803.98 523.811
658 0 60.0675 12.7856 768 60.7018 804.147 520.949
659 0 61.1136 12.2231 747 60.7483 802.945 521.942
660 0 64.0719 12.9542 830 60.1518 803.658 521.755
661 0 68.0471 11.7566 800 61.245 803.509 519.166
662 0 69.1013 12.7205 879 60.8385 803.608 518.027
663 0 72.0552 12.6153 909 60.5677 803.648 518.425
664 0 74.1199 12.7766 947 60.5935 803.675 518.395
665 0 74.2305 12.9462 961 60.6868 803.566 516.793
666 0 76.0889 12.354 940 62.3372 804.241 512.644
667 0 78.1409 11.6456 910 63.0659 803.171 513.589
668 0 81.1402 12.1272 984 62.5864 803.83 515.06
669 0 83.058 14.0504 1167 60.8209 803.715 512.294
670 0 83.0725 10.545 876 65.8756 803.814 509.623
671 1 45.0362 11.7461 529 60.6389 803.977 530.892
672 0 45.0376 10.3469 466 63.0343 804.335 530.395
673 0 45.0781 9.11751 411 64.3041 804.331 528.832
674 0 48.0651 11.6509 560 61.7518 803.98 527.146
675 0 49.0648 9.78299 480 64.1646 804.24 523.237
676 0 51.08 12.3728 632 61.4241 803.6 526.897
677 0 53.1264 12.4044 659 61.0212 803.524 526.432
678 0 53.0871 10.6617 566 63.2049 803.283 524.051
679 0 53.0356 11.2 594 62.8805 803.956 523.207
680 0 56.0286 11.6012 650 62.3754 804.034 523.678
681 0 59.0389 12.2631 724 61.5939 804.026 523.604
682 0 60.1502 9.0939 547 64.4479 804.466 524.205
683 0 61.05 11.0401 674 63.5163 804.909 523.372
684 0 64.3025 10.9793 706 63.6799 804.271 520.613
685 0 65.0408 11.8234 769 63.8179 804.385 518.736
686 0 66.149 10.431 690 65.2623 804.243 517.058
687 0 65.1093 9.89106 644 66.9255 804.224 514.012
688 0 71.1054 10.4633 744 66.3777 804.001 515.956
689 0 72.0452 10.313 743 66.9354 804.766 516.974
690 0 74.1584 11.4754 851 66.3032 804.098 512.994
691 0 78.0566 10.8255 845 67.3077 804.45 513.669
692 0 82.0945 12.3151 1011 65.818 804.446 514.918
693 1 45.0569 11.5188 519 63.8748 804.183 534.975
694 0 44.0575 10.8494 478 65.7573 803.948 532.711
695 0 48.0631 12.0675 580 64.7655 804.119 530.791
696 0 50.0271 12.5732 629 63.8887 803.649 531.9
697 0 50.0551 11.0878 555 65.4973 803.838 532.67
698 0 50.0844 11.7402 588 65.2041 804.311 532.48
699 0 53.038 11.2938 599 66.0301 803.831 530.683
700 0 53.0895 11.264 598 66.5669 803.844 530.102
701 0 58.063 12.9687 753 64.6467 804.312 528.495
702 0 57.256 11.632 666 66.4835 804.159 526.312
703 0 62.2051 13.8895 864 63.9861 803.519 524.793
704 0 62.0996 12.4155 771 65.9287 803.209 523.357
705 0 62.0758 12.3075 764 66.4935 802.784 522.982
706 0 66.1829 13.1303 869 66.0035 803.786 521.177
707 0 69.0393 13.3982 925 65.4995 802.983 519.125
708 0 69.2487 11.697 810 68.1309 804.002 518.386
709 0 73.1433 12.9609 948 65.9821 804.055 520.487
710 0 75.0639 13.8149 1037 66.0964 804.014 519.234
711 0 79.1966 13.4223 1063 66.8928 804.532 517.406
712 1 41.1157 10.9204 449 68.049 803.978 535.176
713 0 42.0571 12.269 516 67.5194 804.074 533.337
714 0 43.1284 11.7092 505 68.5426 803.889 534.178
715 0 44.1344 13.2097 583 67.0703 804.002 533.178
716 0 43.1295 10.3873 448 70.7656 804.121 531.533
717 0 46.0409 11.5984 534 68.8427 804.504 533.242
718 0 49.056 14.3306 703 65.7824 803.942 530.531
719 0 50.075 12.5012 626 67.9169 804.037 529.634
720 0 53.0212 12.7685 677 66.9764 804.322 529.897
721 0 53.0465 12.555 666 67.964 803.722 528.88
722 0 56.0595 13.9316 781 65.6709 803.654 528.562
723 0 58.1132 13.1812 766 66.8681 802.902 527.12
724 0 57.0386 14.3061 816 65.8333 803.652 529.148
725 0 59.1399 13.6118 805 67.9565 802.948 524.253
726 0 62.1133 12.5416 779 68.6059 802.843 524.321
727 0 63.1076 13.2947 839 68.1692 803.968 522.732
728 0 64.027 13.1663 843 68.7853 803.624 522.381
729 0 66.0565 12.7618 843 68.9454 803.056 522.429
730 0 69.0923 12.5774 869 69.8297 803.097 520.534
731 0 70.0881 12.1561 852 70.7488 802.837 519.508
732 0 72.1941 11.2198 810 71.7333 802.635 518.34
733 0 77.0409 12.8633 991 69.6276 803.12 517.985
734 0 78.1144 12.072 943 70.8717 803.579 518.359
735 0 81.0891 12.0238 975 71.2472 803.997 515.403
736 0 83.1782 11.842 985 71.1472 803.369 515.866
737 0 87.1085 12.9264 1126 69.278 803.646 513.547
738 1 44.0526 11.2139 494 70.8441 803.34 531.895
739 0 47.0453 12.0097 565 70.4956 803.329 530.451
740 0 49.054 12.6595 621 69.7842 803.538 531.119
741 0 48.2537 11.4188 551 71.0799 803.624 531.35
742 0 52.0958 12.0931 630 70.2651 803.51 529.875
743 0 53.0395 12.9903 689 70.0116 803.332 529.01
744 0 55.0491 13.5515 746 69.008 802.973 527.367
745 0 57.0434 12.8674 734 69.3583 802.792 527.838
746 0 58.08 12.6205 733 70.0532 803.467 528.023
747 0 61.097 12.7011 776 69.9304 803.046 526.175
748 0 62.0731 12.3886 769 70.5137 802.554 525.466
749 0 67.1225 13.0359 875 69.6629 803.222 523.918
750 0 68.1267 12.9465 882 70.6871 804.117 521.033
751 0 68.1079 12.3921 844 71.218 803.507 522.098
752 0 73.1508 13.4243 982 70.1609 802.851 520.902
753 0 75.1056 11.7035 879 72.8134 803.366 520.537
754 0 76.1294 13.0042 990 72.3313 802.945 517.325
755 0 77.0858 11.7012 902 74.3415 803.145 517.779
756 0 82.2515 12.6077 1037 72.972 803.299 517.278
757 0 87.0601 12.5431 1092 72.5247 802.993 517.579
758 1 44.0881 13.9267 614 70.0081 803.752 535.173
759 0 45.1256 12.2547 553 72.5335 804.02 534.403
760 0 49.1133 12.1352 596 72.4933 803.779 532.93
761 0 49.0984 13.8497 680 71 803.419 532.668
762 0 50.0772 11.3824 570 74.3702 803.444 533.398
763 0 53.1057 13.9345 740 71.2676 803.584 532.024
764 0 53.0534 13.7597 730 72.9219 803.686 529.938
765 0 57.1474 13.9114 795 71.8428 802.679 528.629
766 0 57.1889 13.5866 777 71.9691 802.847 530.958
767 0 59.1335 12.2604 725 74.1393 802.957 528.352
768 0 62.0983 13.688 850 72.4 801.941 526.272
769 0 65.0867 13.121 854 72.596 802.123 524.566
770 0 68.0424 14.2117 967 70.5677 802.835 524.644
771 0 68.0683 12.9723 883 73.5402 803.151 522.706
772 0 70.2716 13.3909 941 73.1945 802.675 522.672
773 0 75.0869 13.8906 1043 71.278 803.015 522.407
774 0 78.146 13.3596 1044 72.1408 803.04 521.475
775 0 79.1238 13.4599 1065 72.7427 803.104 519.175
776 0 81.1807 13.2544 1076 72.8941 803.019 517.773
777 1 40.0741 11.6534 467 73.0385 803.306 536.876
778 0 43.0644 12.2607 528 70.642 803.015 538.987
779 0 44.0489 11.9413 526 72.538 803.46 536.331
780 0 45.166 10.8931 492 73.2134 802.998 537.482
781 0 46.1549 12.8264 592 71.5659 802.699 535.527
782 0 48.0803 13.1031 630 71.4921 803.106 534.983
783 0 50.2148 13.3825 672 70.3289 803.289 532.842
784 0 51.0853 12.5476 641 70.4836 803.081 534.112
785 0 53.0462 12.2723 651 70.7926 803.384 533.194
786 0 54.1201 12.0288 651 71.2289 803.591 531.882
787 0 57.118 13.8135 789 68.5564 803.928 529.446
788 0 57.0795 13.6827 781 69.8963 803.076 527.357
789 0 59.0517 12.8023 756 69.9921 802.876 528.606
790 0 62.1948 12.895 802 69.8379 802.171 526.941
791 0 64.0503 12.1155 776 70.9678 803.197 525.188
792 0 65.1293 13.4655 877 69.4983 802.488 522.602
793 0 68.243 13.1002 894 69.3579 802.85 522.855
794 0 73.1478 13.0284 953 68.4984 803.724 522.038
795 0 71.0496 11.696 831 71.1167 803.826 520.093
796 0 75.3587 13.8405 1043 68.5129 803.002 519.174
797 0 77.2029 12.8493 992 70.0776 803.056 518.97
798 0 80.0756 11.6889 936 70.2895 803.698 519.137
799 0 84.2239 12.9061 1087 68.8454 803.635 516.149
800 0 88.0469 12.8 1127 68.9858 803.781 514.223
801 0 91.1849 13.3465 1217 68.18 803.58 512.2
802 1 49.0454 12.8045 628 66.8408 803.17 532.978
803 0 51.0836 12.8809 658 66.5289 803.976 533.006
804 0 53.2204 12.3261 656 67.2546 803.927 531.559
805 0 52.0951 12.7075 662 68.2205 803.355 527.92
806 0 53.0419 11.4061 605 69.0347 803.727 529.293
807 0 56.1472 13.0193 731 66.0301 803.23 530.419
808 0 57.0863 11.7541 671 67.7377 802.662 529.595
809 0 60.1384 13.5188 813 65.8708 802.798 526.886
810 0 62.124 13.0063 808 65.6547 803.587 526.934
811 0 64.253 13.5091 868 65.1083 803.839 524.801
812 0 67.0948 13.5182 907 64.4796 804.517 525.006
813 0 66.1248 14.3668 950 64.3495 803.541 521.511
814 0 69.2995 12.4099 860 66.3174 803.336 522.517
815 0 72.1684 13.9673 1008 64.629 803.544 518.834
816 0 74.4025 13.3329 992 65.369 803.629 520.003
817 0 75.158 13.4517 1011 64.9505 803.398 521.204
818 0 78.0973 13.8161 1079 65.2688 802.856 517.153
819 0 80.1426 13.1516 1054 65.5607 802.933 517.543
820 0 82.1777 13.702 1126 65.1243 804.259 516.431
821 0 84.0523 13.3131 1119 66.2878 804.046 512.124
822 0 87.1066 13.3055 1159 65.9517 803.655 512.74
823 0 89.1243 13.5092 1204 65.8929 803.461 511.537
824 0 91.1278 12.6745 1155 67.1264 803.473 510.267
825 0 95.1618 12.5786 1197 66.9666 803.141 506.947
826 0 99.2876 14.1307 1403 64.6579 802.705 507.388
827 0 103.143 13.2729 1369 65.4171 802.781 506.709
828 1 55.1236 13.6421 752 64.238 802.875 527.496
829 0 55.2702 13.5154 747 64.2276 803.237 528.625
830 0 56.0941 12.4969 701 66.1541 803.068 526.576
831 0 59.0996 12.8258 758 65.4393 803.42 525.611
832 0 61.0726 13.312 813 64.3911 803.429 525.715
833 0 63.1173 12.9125 815 64.8307 802.874 525.405
834 0 64.0791 13.4989 865 64.4428 802.926 522.686
835 0 65.1318 12.6052 821 65.7004 802.708 521.375
836 0 68.1198 11.2302 765 66.8523 803.153 521.693
837 0 71.0778 8.58215 610 52.6 802.392 525.146
838 0 73.1809 12.2573 897 66.0424 803.008 517.307
839 0 76.1943 13.2162 1007 64.2036 803.421 517.29
840 0 77.0842 12.7004 979 65.4116 802.807 516.559
841 0 81.1036 13.5752 1101 64.1281 803.153 513.508
842 0 81.1078 12.7238 1032 65.6473 803.386 513.006
843 0 84.1616 11.7868 992 66.755 803.056 511.398
844 0 88.0795 12.0913 1065 66.4075 802.714 511.32
845 0 92.1806 13.2566 1222 64.9034 803.289 509.093
846 1 50.0501 11.0689 554 65.4982 804.052 529.422
847 0 49.1371 11.8851 584 64.6233 802.93 530.223
848 0 54.1573 11.7066 634 65.2319 803.374 527.506
849 0 54.1877 11.9215 646 64.8065 803.525 529.277
850 0 56.1889 12.2088 686 64.5277 803.2 525.047
851 0 59.2682 12.0975 717 63.9052 803.283 527.015
852 0 60.1421 12.4538 749 63.8611 803.081 524.147
853 0 61.0442 12.4828 762 63.8898 803.318 522.722
854 0 65.1019 11.8891 774 63.5052 803.052 524.629
855 0 66.1295 10.0409 664 66.1657 802.723 522.958
856 0 68.2312 11.3584 775 64.8503 802.938 521.935
857 0 72.1712 13.7728 994 61.7193 802.924 519.508
858 0 73.1696 10.7285 785 65.7146 803.004 518.785
859 0 75.1976 12.6999 955 63.7162 803.732 518.215
860 0 79.0868 11.5063 910 65.133 803.435 516.284
861 0 81.1206 12.241 993 66.0745 804.13 513.025
862 0 83.1273 11.5726 962 67.4002 803.497 511.258
863 0 88.1117 12.0529 1062 66.0414 803.724 513.221
864 0 93.2889 13.9031 1297 63.7772 802.785 512.22
865 1 45.0982 9.1578 413 67.4213 802.872 533.949
866 0 49.3576 9.62364 475 65.16 803.722 534.777
867 0 52.087 12.8631 670 63.0239 803.6 530.658
868 0 52.129 11.3564 592 64.2348 804.196 532.72
869 0 54.1162 11.9373 646 64.0944 804.211 529.438
870 0 56.0582 12.6476 709 62.9774 804.072 530.021
871 0 57.0896 12.6117 720 63.9403 803.575 527.278
872 0 60.1219 14.0382 844 61.032 803.808 529.972
873 0 61.1893 11.3419 694 64.4957 803.899 527.95
874 0 63.1255 13.386 845 62.2107 804.129 524.74
875 0 65.0912 12.4287 809 63.2596 803.841 526
876 0 69.1278 12.9036 892 62.3442 803.237 524.677
877 0 70.1324 13.0467 915 63.0197 803.701 522.581
878 0 73.3083 13.0135 954 61.4906 803.724 525.296
879 0 74.1009 12.1456 900 63.5967 803.712 521.681
880 0 76.1761 12.6418 963 63.5504 803.024 518.273
881 0 77.0506 11.6547 898 65.1637 802.832 518.709
882 0 83.3688 15.0056 1251 60.255 802.643 520.026
883 0 83.0593 12.2443 1017 64.7424 803.763 517.145
884 0 87.0857 13.3087 1159 63.2338 804.113 517.027
885 0 88.1296 12.7993 1128 64.9246 803.506 514.32
886 0 93.2608 12.8886 1202 63.9567 804.661 515.384
887 1 47.1363 11.3713 536 63.7295 804.97 534.157
888 0 47.0638 10.1564 478 64.9833 804.236 534.079
889 0 49.2009 11.4226 562 63.3737 804.548 535.18
890 0 52.1111 13.3177 694 61.598 804.702 532.699
891 0 52.081 11.7317 611 64.2242 805.115 529.3
892 0 54.2886 12.0099 652 62.9678 804.278 531.212
893 0 53.0634 11.3638 603 64.3798 804.433 531.297
894 0 57.1603 11.7739 673 62.6909 804.111 530.753
895 0 57.0602 13.2842 758 61.7546 804.544 529.43
896 0 60.098 12.047 724 63.5262 804.588 526.268
897 0 63.086 13.1408 829 62.2967 804.253 525.513
898 0 63.13 11.801 745 63.3973 804.211 527.193
899 0 67.105 11.1169 746 63.6099 804.906 527.505
900 0 67.0457 13.4535 902 61.8825 804.503 524.571
901 0 70.056 12.0618 845 62.7858 804.484 523.285
902 0 74.1501 13.648 1012 61.17 804.149 522.32
903 0 77.1653 13.2572 1023 61.2717 804.486 521.499
904 0 78.1742 12.0884 945 63.5365 803.862 516.911
905 1 42.1363 11.0593 466 63.4421 804.689 536.281
906 0 45.0497 11.7648 530 62.0434 804.423 535.187
907 0 46.017 10.3223 475 64.0526 804.352 535.638
908 0 48.0984 12.5992 606 62.0347 804.739 533.269
909 0 49.0755 10.9423 537 63.8343 804.549 534.885
910 0 50.0601 11.9057 596 63.3205 804.728 531.69
911 0 52.113 9.09561 474 65.5506 804.47 533.259
912 0 52.0999 11.3244 590 63.5119 805.537 530.886
913 0 55.0383 11.7918 649 61.7827 805.427 532.508
914 0 55.1111 12.8468 708 62.0932 805.021 528.306
915 0 58.0306 11.1493 647 62.7295 804.379 531.182
916 1 108.07 11.7516 1270 63.5354 804.053 509.026
917 0 112.385 12.1457 1365 63.8637 804.542 504.511
918 0 115.297 11.8563 1367 64.0212 804.484 504.251
919 0 113.17 11.6374 1317 64.8876 804.629 504.451
920 0 122.203 11.4645 1401 65.182 804.285 502.01
921 1 72.0428 9.4666 682 63.2947 803.912 529.375
922 0 72.0852 10.2379 738 64.4729 804.099 522.878
923 0 71.104 12.1653 865 63.3734 804.443 520.736
924 0 75.103 12.1966 916 62.8286 803.798 520.48
925 0 73.1495 10.8271 792 65.7475 803.898 517.664
926 0 78.1066 10.6649 833 65.2485 803.357 520.502
927 0 81.1647 11.0023 893 65.6674 803.711 519.443
928 0 84.1029 11.8189 994 65.3078 804.266 517.633
929 0 86.088 12.6498 1089 65.0156 804.512 517.974
930 1 125.192 12.405 1553 69.0934 803.316 498.158
931 0 129.11 12.5861 1625 69.1397 803.185 496.546
932 0 132.205 11.4973 1520 71.1217 803.235 494.244
933 0 135.192 12.7522 1724 69.3614 803.169 495.936
934 0 138.355 8.95521 1239 74.5513 803.661 495.23
935 0 144.145 13.8888 2002 68.3896 803.619 491.632
936 1 100.301 12.6918 1273 68.0628 803.345 509.075
937 0 103.142 12.5458 1294 68.4977 804.381 506.189
938 0 102.823 9.18087 944 72.7913 805.186 517.965
939 0 103.058 14.584 1503 68.4511 804.79 510.59
940 0 101.666 12.5706 1278 73.3795 805.077 507.433
941 1 48.7027 9.2808 452 82.469 807.695 523.153
942 0 48.7334 8.70039 424 82.3986 806.585 527.564
943 0 52.97 11.0629 586 80.6758 805.939 524.403
944 0 53.0135 11.0726 587 80.1039 806.944 526.366
945 0 55.1524 11.4048 629 78.7615 806.242 527.574
946 0 55.3369 11.9089 659 81.1062 806.124 522.235
947 1 82.8365 12.0599 999 79.4114 805.508 511.87
948 0 83.9012 12.6577 1062 78.7448 805.889 512
949 0 85.5326 13.3867 1145 78.0926 805.639 513.798
950 0 86.2467 13.2063 1139 78.5988 806.275 511.699
951 0 88.2638 14.0148 1237 77.4503 806.597 509.971
952 0 89.0401 13.9488 1242 78.1723 806.458 510.192
953 0 94.2274 14.3801 1355 76.4421 805.432 511.302
954 0 98.2711 14.1445 1390 76.764 805.551 509.721
955 0 98.2019 14.9182 1465 76.0608 805.58 510.13
956 0 98.7726 15.3383 1515 75.7927 804.853 508.836
957 0 101.787 15.6601 1594 75.559 805.238 507.767
958 0 104.636 14.9088 1560 76.2006 804.927 507.751
959 0 106.717 17.2607 1842 73.0977 803.971 508.281
960 0 109.388 15.1753 1660 76.1229 804.063 508.192
961 0 107.43 14.8468 1595 77.4552 804.562 505.782
962 0 110.865 14.7205 1632 77.6906 804.803 506.278
963 0 113.636 16.7025 1898 74.8409 805.428 504.35
964 0 114.54 15.3571 1759 77.6418 805.63 503.136
965 0 116.562 15.4425 1800 77.315 805.139 502.429
966 0 120.924 16.5311 1999 74.3647 805.171 502.759
967 0 125.684 14.6876 1846 76.1538 805.629 499.949
