time division length width area intensity CMx CMy
0 0 51.3731 12.3995 637 43.9372 1340.26 517.358
1 0 51.352 8.47095 435 47.7793 1339.44 517.103
2 0 55.3312 11.6932 647 44.4328 1339.83 519.617
3 0 55.3312 11.6932 647 114.032 1340.83 519.617
4 0 57.4737 9.96978 573 46.3368 1339.75 515.55
5 0 59.2182 10.8582 643 47.1353 1338.94 515.652
6 0 62.195 11.3514 706 45.806 1339.49 518.135
7 0 60.2709 9.39094 566 48.1572 1339.22 512.231
8 0 62.2872 9.56858 596 48.3574 1339.35 511.891
9 0 65.2416 11.5877 756 46.3161 1339.98 511.8
10 0 66.2467 8.81553 584 49.6507 1339.15 510.51
11 0 71.171 12.6596 901 45.97 1339.37 513.911
12 0 72.1393 11.1174 802 47.3117 1339.87 509.714
13 0 75.261 12.6892 955 46.3047 1340.02 508.266
14 0 75.1475 10.7123 805 48.7292 1339.38 508.881
15 0 79.2461 12.1015 959 48.3097 1338.92 509.163
16 0 82.2755 12.604 1037 48.2064 1339.05 508.243
17 0 84.1557 12.5719 1058 47.7278 1339.75 508.774
18 0 82.1772 9.88109 812 51.947 1338.79 505.163
19 1 43.0854 10.1426 437 45.7849 1338.46 530.611
20 0 45.038 9.61411 433 47.5081 1338.31 527.222
21 0 43.1327 7.76673 335 49.1672 1338.19 527.018
22 0 47.2309 10.5863 500 46.87 1338.84 527.22
23 0 46.2473 9.90328 458 51.1288 1336.94 525.063
24 0 48.0729 11.4618 551 48.6552 1338.14 523.804
25 0 50.0563 12.0864 605 46.9752 1339.2 523.349
26 0 48.1006 9.87514 475 48.7474 1339.36 521.973
27 0 50.1096 7.44368 373 51.1957 1338.99 519.767
28 0 55.0566 12.024 662 47.4275 1339.22 521.825
29 0 56.0396 12.0272 674 47.9184 1339.35 521.147
30 0 57.0599 9.32353 532 51.7538 1338.58 517.25
31 0 60.0943 10.3504 622 50.2604 1338.83 518.088
32 0 57.1123 9.80524 560 51.6304 1338.89 514.096
33 0 57.1123 9.84026 562 125.584 1337.87 514.121
34 0 64.0816 10.6271 681 51.6828 1339.09 510.831
35 0 65.0547 10.3912 676 49.9112 1340.12 513.05
36 0 68.0723 7.78584 530 52.3849 1339.49 512.685
37 0 68.1325 8.26332 563 53.3766 1339.51 507.678
38 0 70.2419 8.29988 583 53.0274 1339.87 505.804
39 0 76.1344 9.48323 722 53.108 1338.88 509.579
40 0 73.3142 8.86595 650 52.86 1339.95 505.068
41 0 79.3121 8.18286 649 53.6595 1339.41 506.284
42 0 70.102 9.80001 687 53.8413 1340.36 497.012
43 0 80.1119 9.04984 725 54.5048 1339.78 496.583
44 1 37.0816 9.43863 350 47.2543 1339.51 522.823
45 0 39.0501 9.93595 388 46.4974 1340.07 522.889
46 0 41.073 4.86938 200 50.675 1339.36 519.76
47 0 38.0895 9.18889 350 46.7971 1339.6 524.283
48 0 41.0482 9.69592 398 46.8869 1340.59 517.425
49 0 42.0476 3.282 138 52.8044 1339.64 514.986
50 0 41.0844 9.41964 387 47.8191 1340.29 517.155
51 0 44.0373 7.6299 336 47.8929 1340.11 520.03
52 0 48.2064 10.3721 500 47.638 1340.48 515.538
53 0 52.2607 11.1747 584 47.8082 1340.29 516.115
54 0 53.0933 8.04245 427 50.9813 1339.8 513.246
55 0 54.233 6.85929 372 50.6344 1340.19 515.524
56 0 52.1179 10.1692 530 50.9868 1340.16 511.387
57 0 54.0757 6.19502 335 54.0448 1340.38 506.83
58 0 61.1971 12.8438 786 47.9886 1341 511.188
59 0 63.1243 12.1348 766 49.299 1340.72 511.209
60 0 61.0738 8.15407 498 53.6807 1340.88 503.229
61 0 63.1419 11.5296 728 50.4712 1341.14 505.703
62 0 69.2419 6.71559 465 55.286 1340.34 503.015
63 0 69.0721 10.1054 698 55.1246 1340.18 498.327
64 0 73.1301 10.119 740 54.9135 1340.46 500.072
65 0 73.2064 9.88984 724 53.9323 1341.39 500.336
66 0 74.174 7.85989 583 57.7684 1340.44 497.748
67 0 82.1195 10.1925 837 55.9259 1340.43 500.356
68 0 85.1176 11.3138 963 55.3406 1340.52 498.031
69 0 86.2473 10.2728 886 58.0564 1340.12 492.549
70 0 87.1382 12.3941 1080 56.2259 1340.39 492.841
71 0 93.3986 11.2314 1049 57.6902 1339.84 492.526
72 0 95.1952 10.2631 977 58.436 1340.23 491.558
73 0 96.1772 11.8739 1142 57.225 1340.59 490.485
74 0 101.202 11.1362 1127 59.8004 1340.12 485.851
75 0 100.168 11.0615 1108 59.9801 1340.78 480.897
76 0 108.127 10.1085 1093 59.6725 1341.31 480.257
77 0 111.161 11.4339 1271 60.1951 1340.27 482.215
78 0 112.379 12.4668 1401 59.728 1340.78 476.852
79 0 119.275 12.3747 1476 58.2812 1341.41 483.355
80 0 109.152 8.91417 973 64.6413 1341.1 471.973
81 0 113.215 13.2668 1502 59.9161 1341.62 481.503
82 1 125.759 11.9276 1500 54.8693 1341.87 493.74
83 0 137.582 12.3854 1704 56.4677 1340.23 495.156
84 0 135.785 13.3741 1816 54.9229 1341.1 494.426
85 0 135.066 12.4458 1681 57.0732 1339.79 500.613
86 1 86.2164 15.2523 1315 61.3331 1342.32 380.919
87 0 90.049 14.6476 1319 62.1926 1342.39 379.244
88 1 44.0374 11.6492 513 64.6998 1341.4 399.875
89 0 44.0361 11.4679 505 65.1901 1342.09 399.707
90 0 48.0651 11.9837 576 63.9444 1341.07 401.318
91 0 50.1067 13.6908 686 61.4694 1341.3 402.816
92 0 50.2553 12.9539 651 62.8786 1342.28 402.249
93 0 50.0254 13.1933 660 62.9424 1341.99 404.002
94 0 52.0542 12.8328 668 62.1632 1341.62 405.561
95 0 55.0294 13.9743 769 60.6671 1342.05 406
96 0 56.0727 15.0876 846 59.6123 1341.54 405.306
97 0 59.0841 14.2509 842 60.0487 1341.66 406.285
98 0 58.02 13.1506 763 62.0079 1341.23 406.837
99 0 62.0573 11.6989 726 61.9215 1341.8 410.926
100 0 65.0361 13.7001 891 59.3984 1342.04 412.643
101 0 67.046 13.4982 905 60.0497 1341.93 411.027
102 0 69.0716 14 967 59.3619 1341.55 413.049
103 0 70.1347 14.0016 982 59.0479 1341.88 414.557
104 0 73.0309 12.7754 933 59.9882 1342.19 416.674
105 0 75.0644 13.3219 1000 59.829 1342.35 416.742
106 0 74.0859 12.445 922 61.4436 1341.57 417.068
107 0 78.0715 12.3605 965 60.6186 1342.48 420.837
108 0 80.0733 12.6384 1012 59.9032 1341.85 422.626
109 0 84.0579 13.0624 1098 59.6867 1342.44 420.286
110 0 87.0771 13.7809 1200 58.4492 1342.1 423.489
111 0 92.1992 14.8374 1368 53.2069 1341.04 431.318
112 1 50.0571 12.9652 649 56.6287 1341.29 446.854
113 0 50.0487 11.1691 559 57.9803 1341.3 449.077
114 0 54.0653 13.0768 707 54.6818 1341.37 451.355
115 0 54.0459 11.0832 599 58.0484 1341.9 449.917
116 0 57.0773 13.1751 752 55.0798 1341.86 452.834
117 0 59.0789 12.1871 720 54.8764 1342.77 456.224
118 0 59.0264 10.7918 637 56.4458 1343.3 455.361
119 0 60.097 11.9473 718 55.8746 1342.9 456.394
120 0 62.0782 12.3393 766 54.9739 1342.26 459.243
121 0 64.0924 9.84516 631 57.607 1341.41 460.013
122 0 65.1465 12.4182 809 54.2398 1341.93 462.969
123 0 69.1107 11.894 822 55.0474 1341.11 462.366
124 0 72.0762 11.3907 821 54.6102 1341.61 463.73
125 0 72.0925 11.8459 854 54.678 1341.44 464.45
126 0 75.0699 11.3761 854 54.0831 1341.72 467.144
127 0 77.1664 12 926 53.6609 1341.56 466.679
128 0 78.0943 10.3849 811 55.8705 1341.28 463.504
129 0 82.0572 12.7716 1048 53.5458 1341.85 463.077
130 0 85.2094 10.1984 869 55.5489 1341.97 462.291
131 0 87.0908 10.5752 921 55.3301 1341.62 463.191
132 0 89.1283 11.893 1060 54.3406 1342.38 456.605
133 0 94.156 13.4882 1270 53.0307 1341.9 458.921
134 0 96.1693 11.0014 1058 55.2325 1342.2 458.668
135 1 49.1092 10.0388 493 51.5274 1341.38 483.83
136 0 49.0218 9.34277 458 53.3493 1341.69 481.028
137 0 55.1388 11.861 654 50.7706 1341.65 478.884
138 0 54.1116 11.0882 600 52.8033 1341.1 476.252
139 0 53.0786 10.9083 579 53.6459 1341.43 473.846
140 0 60.0943 11.5818 696 50.6394 1342.29 475.585
141 0 59.1036 12.5035 739 51.8484 1342.18 470.612
142 0 61.1594 12.1322 742 51.9528 1342.41 469.739
143 0 63.0953 12.0453 760 52.9763 1342.41 465.766
144 0 65.0715 13.6619 889 52.1462 1341.86 465.404
145 0 67.0674 12.3756 830 51.8289 1342.81 467.364
146 0 70.0914 11.3566 796 53.6244 1342.69 463.784
147 0 73.1388 12.4421 910 53.1121 1342.43 463.911
148 0 75.1452 13.068 982 52.6568 1341.56 466.649
149 0 76.097 10.6575 811 56.0074 1341.8 462.608
150 0 78.1571 12.2957 961 54.8824 1342.2 457.765
151 0 80.1104 11.3344 908 55.3139 1342.7 461.225
152 0 84.1261 12.4099 1044 54.7347 1341.71 463.826
153 0 86.2182 12.2016 1052 55.134 1342.05 465.624
154 0 88.1756 12.8494 1133 54.4395 1341.89 464.166
155 1 45.1115 7.11571 321 54.1402 1341.39 492.567
156 0 48.0745 9.15246 440 50.1477 1342.84 493.38
157 0 50.0421 8.313 416 51.8966 1342.31 493.724
158 0 51.1 10.6654 545 50.4275 1342.06 494.16
159 0 51.1361 7.2747 372 51.5968 1342.7 496.167
160 0 53.1172 8.60362 457 49.86 1343.23 493.558
161 0 54.0944 7.87513 426 50.2723 1343.12 495.023
162 0 56.1269 10.7792 605 48.6231 1342.94 496.569
163 0 59.0916 7.90299 467 51.863 1342.38 493.889
164 0 59.1315 8.5572 506 51.419 1342.78 490.885
165 0 63.1188 10.9159 689 48.9869 1342.99 492.608
166 0 61.1099 6.84014 418 52.0766 1343.56 487.624
167 0 66.1583 8.55524 566 49.7509 1343.56 492.023
168 0 67.0993 8.31603 558 50.19 1343.87 487.833
169 0 71.1256 10.4744 745 49.5262 1343.21 490.35
170 0 74.1386 9.15852 679 51.0869 1343 488.758
171 0 79.1926 10.4555 828 50.5495 1343.07 487.296
172 0 81.0924 10.5929 859 50.56 1343.02 485.332
173 0 83.1137 11.5264 958 51.2871 1342.93 483.053
174 0 84.1524 9.79176 824 53.9636 1341.99 483.553
175 0 91.1336 13.1016 1194 50.3677 1342.06 486.11
176 1 41.1487 7.12051 293 50.9659 1340.75 507.154
177 0 41.0226 9.50696 390 49.6026 1341.19 506.567
178 0 46.0775 9.44062 435 49.6 1340.81 506.023
179 0 46.1546 9.46818 437 49.0892 1341.48 503.803
180 0 49.0695 9.47636 465 48.7355 1340.97 506.249
181 0 47.0835 8.98404 423 49.9669 1340.44 507.496
182 0 50.103 9.77985 490 48.8367 1341.42 504.443
183 0 51.0716 9.51606 486 50.7202 1340.55 506.508
184 0 54.1164 10.8285 586 49.9283 1340.06 506.688
185 0 54.0892 10.0759 545 50.5486 1340.53 503.787
186 0 59.1365 12.1921 721 48.8391 1340.31 504.094
187 0 62.2258 13.7403 855 47.8058 1339.88 504.434
188 0 61.1874 8.84169 541 53.0961 1339.23 501.739
189 0 63.135 9.97861 630 51.8064 1339.8 501.781
190 0 66.1807 10.1691 673 53.2585 1338.93 498.144
191 0 69.1167 11.8206 817 51.7956 1339 496.433
192 0 71.141 9.78339 696 53.5101 1338.84 498.733
193 1 34.0589 5.87218 200 51.295 1338.12 521.13
194 0 33.082 6.71059 222 50.2252 1337.96 522.099
195 0 34.0292 7.37601 251 48.5976 1338.32 523.163
196 0 36.0802 10.2826 371 46.8976 1338.61 521.124
197 0 35.0584 8.95648 314 49.0478 1338.15 519.662
198 0 39.1038 9.18069 359 48.2535 1338.26 523.577
199 0 37.096 9.38107 348 49.7529 1337.83 520.488
200 0 40.3183 8.20967 331 52.2145 1337.04 520.792
201 0 42.0714 10.0068 421 50.1354 1337.4 520.862
202 0 42.0392 9.32463 392 50.8163 1337.51 521.115
203 0 42.0367 9.11109 383 51.2794 1336.85 522.708
204 0 44.1455 9.83114 434 51.1106 1337.31 521.638
205 0 46.1339 9.81925 453 51.2252 1337.68 519.099
206 0 47.0592 10.1999 480 50.3083 1338.06 518.458
207 0 50.119 11.0138 552 50.4203 1337.83 517.476
208 0 49.0292 8.6683 425 53.3435 1337.37 517.096
209 0 51.1096 11.3677 581 50.8658 1337.36 515.542
210 0 55.0397 11.0829 610 51.9016 1336.75 515.744
211 0 54.1183 9.40532 509 53.8526 1336.67 514.02
212 0 57.0939 11.7526 671 50.0313 1337.79 517.136
213 0 57.0686 9.91789 566 53.2968 1336.85 515.23
214 0 62.0713 13.9195 864 50.0046 1336.83 513.928
215 0 60.0828 9.27053 557 54.6122 1337.01 511.788
216 0 64.1459 10.3046 661 54.7489 1335.76 513.349
217 0 68.1285 12.2562 835 53.4216 1335.68 510.485
218 0 71.1772 13.1643 937 52.0438 1336.04 512.226
219 0 72.0909 11.43 824 54.3629 1335.92 508.165
220 0 76.073 12.7903 973 53.5488 1335.34 509.058
221 0 77.1898 12.7737 986 54.1846 1335.46 506.35
222 0 75.1205 10.1038 759 57.4098 1335.9 504.536
223 0 81.1359 11.5855 940 55.083 1336.93 502.21
224 0 83.1296 12.1617 1011 54.8882 1336.83 503.067
225 0 85.1307 14.93 1271 52.9127 1336.56 500.276
226 1 43.0601 11.3098 487 52.6756 1335.48 523.743
227 0 42.0725 10.577 445 54.791 1335.48 521.276
228 0 45.1239 9.99471 451 55.2328 1335.49 523.009
229 0 47.0772 10.4722 493 54.9412 1335.48 523.114
230 0 49.1504 10.1118 497 54.9376 1335.76 520.847
231 0 50.1079 11.0362 553 55.7776 1335.11 520.59
232 0 48.1752 11.5412 556 54.2662 1336.67 517.926
233 0 51.1474 8.99362 460 54.4761 1336.7 521.32
234 0 55.2282 10.7735 595 54.7345 1336.03 519.218
235 0 55.1799 10.3298 570 54.7684 1336.55 518.902
236 0 59.152 10.566 625 54.496 1336.86 516.245
237 0 61.0861 11.934 729 54.1934 1336.17 515.815
238 0 62.1539 10.0879 627 56.7432 1335.97 514.904
239 0 64.0605 13.2687 850 53.7353 1336.33 512.702
240 0 66.102 10.0753 666 57.0646 1336.35 510.374
241 0 71.1564 12.2547 872 54.3337 1336.82 507.491
242 0 71.2231 12.7908 911 54.6872 1336.56 506.78
243 0 74.243 10.533 782 56.9348 1336.81 505.432
244 0 76.1832 12.4831 951 54.9432 1337.39 503.02
245 1 37.1013 8.51722 316 54.3038 1336.04 524.146
246 0 39.0748 10.3647 405 52.9951 1336.59 522.049
247 0 38.1185 7.9489 303 54.2277 1336.89 524.601
248 0 40.0678 8.98476 360 54.2611 1336.75 521.542
249 0 40.0456 9.78885 392 52.3571 1336.88 526.043
250 0 43.1785 9.17123 396 53.6843 1336.96 522.51
251 0 43.0947 8.81779 380 53.8947 1336.89 523.908
252 0 44.0466 7.62829 336 56.4167 1336.29 521.973
253 0 48.1917 10.064 485 53.365 1336.34 523.184
254 0 47.136 11.6896 551 50.8167 1337.64 522.16
255 0 50.1779 10.0841 506 52.0751 1337.12 522.132
256 0 50.0944 9.42222 472 52.7839 1337.74 519.65
257 0 52.1054 9.97977 520 52.9096 1337.83 517.708
258 0 50.1726 7.73331 388 56.8299 1337.44 513.698
259 0 57.1317 12.1474 694 51.5893 1337.57 516.445
260 0 59.1615 10.9193 646 54.5495 1336.74 513.238
261 0 59.0887 8.64802 511 56.8904 1336.68 513.587
262 0 61.2288 11.1059 680 54.5471 1336.86 511.753
263 0 65.1513 10.1303 660 53.7788 1337.33 514.194
264 0 69.1062 11.4462 791 53.574 1337.07 510.75
265 0 69.136 12.0777 835 53.7964 1336.76 511.79
266 0 71.1279 9.8836 703 56.1607 1336.61 509.802
267 0 74.118 9.68725 718 55.6741 1336.8 510.085
268 0 77.1344 11.4087 880 54.4 1336.55 507.976
269 0 78.1269 10.035 784 55.5446 1337.29 506.607
270 1 38.1924 11.1802 427 50.8337 1336.14 525.155
271 0 39.0543 9.39716 367 50.436 1336.63 526.967
272 0 41.0849 9.93066 408 53.0466 1335.35 524.066
273 0 41.2223 8.99999 371 53.9838 1335.54 523.224
274 0 44.3722 9.4654 420 52.3143 1335.82 523.095
275 0 44.147 9.64957 426 52.4178 1335.67 523.148
276 0 48.0595 10.9656 527 50.575 1336.1 521.831
277 0 47.1061 8.74621 412 53.1529 1336.21 520
278 0 49.0257 9.21966 452 53.2168 1335.53 521.111
279 0 50.055 10.8281 542 51.5941 1335.67 520.712
280 0 52.1459 9.66519 504 51.7282 1335.84 521.026
281 0 54.178 10.1517 550 51.4873 1336.3 517.025
282 0 54.1708 10.393 563 52.3339 1336.09 513.369
283 0 58.1239 11.8884 691 50.9059 1335.97 514.692
284 0 61.3032 10.9619 672 52.7768 1335.2 511.458
285 0 62.1936 11.0783 689 52.09 1335.98 508.568
286 0 64.0864 10.9384 701 52.7347 1335.15 506.459
287 0 66.1806 10.9247 723 52.7925 1335.12 508.367
288 0 68.1148 12.0825 823 51.7084 1335.08 507.341
289 0 70.0914 9.94416 697 53.6758 1335.75 501.359
290 0 75.1068 11.7033 879 51.3754 1335.11 506.512
291 0 74.1626 12.1085 898 51.5479 1335.83 503.244
292 1 38.069 8.01177 305 49.7213 1335.59 524.777
293 0 39.0787 6.90914 270 48.9148 1336.03 525.959
294 0 40.1484 8.11988 326 48.9264 1336.11 523.574
295 0 41.0618 11.227 461 47.961 1336.03 519.306
296 0 43.036 8.01654 345 50.1681 1335.02 523.687
297 0 42.0406 9.84761 414 50.8913 1334.78 516.635
298 0 47.0816 9.45168 445 50.4247 1335.2 516.564
299 0 47.0486 9.6921 456 50.3531 1335.11 517.2
300 0 50.0437 9.57164 479 50.286 1335.25 516.605
301 0 53.1221 11.8218 628 49.3965 1334.43 514.795
302 0 51.0566 8.50036 434 52.6659 1334.67 515.306
303 0 53.0653 10.0254 532 51.2632 1334.48 516.254
304 0 55.0978 10.0548 554 51.4152 1334.4 514.863
305 0 57.0313 10.1699 580 50.0879 1335.28 514.628
306 0 60.0764 8.83875 531 52.2316 1334.96 513.066
307 0 60.0624 10.4225 626 51.6278 1334.28 510.363
308 0 63.0579 11.1643 704 49.429 1334.97 513.95
309 0 66.0932 11.4535 757 49.6988 1335.32 508.991
310 0 68.1176 14.0345 956 47.3033 1335.09 511.513
311 0 67.094 10.0307 673 52.0416 1335.38 505.002
312 0 69.3002 9.97111 691 52.5427 1335.29 501.737
313 0 72.0773 12.4311 896 49.9498 1334.81 506.874
314 0 75.0601 9.84545 739 51.3478 1335.01 508.836
315 1 38.0771 7.79997 297 49.8721 1334.93 522.128
316 0 37.0689 7.68839 285 49.8211 1334.65 523.547
317 0 40.1487 8.4436 339 48.823 1335.25 522.091
318 0 43.0941 12.3915 534 46.1386 1334.67 523.257
319 0 43.1761 8.22214 355 48.1746 1335.08 525.839
320 0 43.1277 10.5732 456 47.7719 1335.53 521.783
321 0 48.112 10.3509 498 47.2369 1335.42 522.253
322 0 49.0575 9.33598 458 48.893 1334.71 522.876
323 0 49.1014 11.5883 569 47.8858 1334.33 522.42
324 0 52.0665 10.1025 526 49.7605 1334.2 518.939
325 0 51.133 9.99354 511 49.8356 1334.78 518.652
326 0 55.102 12.6311 696 45.6853 1335.77 521.165
327 0 55.1296 10.9923 606 48.962 1334.77 517.817
328 0 55.1404 12.1327 669 48.5366 1334.77 518.49
329 0 55.1105 9.29043 512 50.9824 1334.85 517.877
330 0 57.212 11.134 637 50.27 1334.96 513.739
331 0 59.2461 12.1358 719 48.6968 1335.73 512.928
332 0 61.1041 11.6522 712 49.1601 1335.24 516.017
333 0 63.09 11.8561 748 48.6537 1335.98 514.762
334 0 66.3478 9.88729 656 51.7363 1334.53 512.425
335 0 68.2022 12.0671 823 50.3426 1334.29 511.39
336 0 70.2189 10.8091 759 50.4585 1334.62 512.324
337 0 72.1526 12.0301 868 50.2166 1334.22 511.02
338 1 38.0739 8.58855 327 48.7951 1334.16 528.994
339 0 38.0959 9.76484 372 48 1334.84 526.29
340 0 39.0585 9.29376 363 47.584 1335.43 527.016
341 0 40.1192 11.7899 473 45.296 1336.02 525.556
342 0 40.1086 11.419 458 46.5983 1335.98 523.094
343 0 43.0502 9.43086 406 48.8054 1335.71 521.044
344 0 44.0721 11.8896 524 46.7901 1336.05 523.185
345 0 43.0105 7.74229 333 50.4024 1335.54 522.186
346 0 45.067 9.29727 419 50.7279 1334.88 521.804
347 0 50.0476 10.53 527 49.5636 1334.9 520.345
348 0 50.0805 10.8026 541 49.0351 1335.5 521.266
349 0 49.2094 9.57134 471 50.3949 1335.27 519.361
350 0 52.0944 12.0934 630 48.0413 1335.02 521.244
351 0 53.0969 10.5091 558 50.233 1335.28 516.862
352 0 54.0646 7.91645 428 51.7523 1335.45 517.488
353 0 55.0711 8.51626 469 50.8294 1336.13 515.648
354 0 58.136 10.8711 632 48.587 1336.43 514.353
355 0 59.1011 9.30609 550 50.8527 1335.55 511.94
356 0 61.1521 12.2154 747 47.5368 1336.66 512.823
357 0 62.0716 9.76292 606 50.9109 1335.71 513.847
358 0 65.0774 9.83444 640 50.2266 1335.93 513.027
359 0 64.0613 8.77285 562 51.4253 1335.97 513.767
360 0 65.0858 8.71158 567 52.2663 1335.92 506.46
361 0 71.1008 10.6891 760 50.3895 1335.97 510.093
362 1 36.1264 10.6847 386 46.5052 1336.17 527.728
363 0 36.2186 8.11738 294 48.8027 1335.98 526.541
364 0 39.1272 9.76303 382 48.1597 1335.81 524.882
365 0 40.1265 8.72242 350 49.2486 1336.1 523.794
366 0 40.1117 7.87801 316 49.0222 1336.22 524.361
367 0 42.1124 7.83617 330 49.8636 1336.43 521.952
368 0 42.1229 8.68887 366 49.5191 1336.45 520.486
369 0 42.0203 9.18604 386 50.2124 1336.51 519.036
370 0 45.0582 9.41004 424 50.0519 1336.36 517.415
371 0 50.1548 9.98907 501 50.4411 1335.6 519.744
372 0 48.1902 8.50795 410 53.1366 1335.21 517.729
373 0 50.0641 9.08835 455 51.9209 1335.71 517.679
374 0 53.1715 8.08704 430 52.0419 1335.52 519.856
375 0 56.0276 11.0838 621 49.9098 1335.65 517.449
376 0 55.0939 9.49289 523 52.2524 1335.35 515.748
377 0 56.0536 11.2928 633 49.6524 1336.29 517.148
378 0 58.163 9.54216 555 51.8739 1335.92 514.854
379 0 62.1048 11.0619 687 50.4105 1336.71 509.999
380 0 64.2216 11.0555 710 51.3451 1336.07 509.621
381 0 66.1365 11.6123 768 50.7422 1335.93 511.401
382 0 68.0937 11.6164 791 51.981 1335.28 509.785
383 0 66.0442 11.2046 740 52.2108 1336.29 504.931
384 0 70.0722 10.5463 739 53.318 1335.76 505.558
385 0 72.1897 10.4309 753 54.3772 1335.11 505.035
386 1 37.0552 11.2265 416 51.1442 1335.53 521.851
387 0 37.0879 8.49333 315 53.2444 1335.7 522.121
388 0 38.0371 11.1733 425 52.0282 1335.47 521.431
389 0 39.072 8.47153 331 55.3082 1335.23 520.873
390 0 40.045 9.28956 372 53.8333 1335.98 519.946
391 0 41.1782 10.2724 423 52.9645 1336.37 517.475
392 0 41.1146 9.14517 376 55.5426 1335.82 515.074
393 0 44.0409 6.53938 288 57.6146 1336.11 514.743
394 0 46.0387 10.7953 497 54.161 1335.94 517.354
395 0 46.096 9.63208 444 55.0901 1336.65 513.083
396 0 47.2339 7.19821 340 57.3765 1336.24 514.124
397 0 49.0687 8.88549 436 55.8761 1336.52 509.945
398 0 45.0656 8.65405 390 57.6872 1336.02 506.315
399 0 48.1152 7.46126 359 58.7883 1336.33 504.011
400 0 54.0493 8.82528 477 56.9266 1336.02 505.539
401 0 56.0499 8.06424 452 57.9027 1336.24 506.673
402 0 49.0308 8.77 430 58.6721 1336.44 505.281
403 0 50.1125 8.18159 410 58.2366 1337.37 499.261
404 0 55.0636 8.17236 450 58.1622 1337.22 498.231
405 0 58.1006 7.79681 453 58.6932 1337 496
406 0 59.0485 8.62003 509 58.3261 1337.32 498.613
407 0 60.238 10.9565 660 56.3682 1337.14 496.711
408 0 61.1152 7.80493 477 59.9015 1336.61 494.036
409 0 64.0451 7.85384 503 58.837 1336.65 486.469
410 0 59.0463 8.95908 529 58.8147 1337.17 484.715
411 0 65.1056 6.54321 426 60.8005 1336.84 480.901
412 0 74.0857 6.74894 500 60.96 1336.55 482.91
413 1 4 3.5 14 52.7857 1336.57 499.857
414 1 30.055 7.35318 221 55.0498 1336.1 511.932
415 1 49.0769 11.1458 547 49.8537 1335.77 524.647
416 0 47.3662 10.6616 505 51.4218 1335.84 521.802
417 0 48.2481 11.5445 557 51.1544 1335.95 520.707
418 0 52.2372 11.8689 620 50.2065 1336.02 520.697
419 0 55.1542 12.9274 713 48.9677 1335.82 520.907
420 0 56.0876 12.1061 679 50.4006 1335.65 519.595
421 0 54.0673 9.26624 501 53.4631 1335.64 515.321
422 0 56.1583 8.9034 500 54.062 1335.83 513.024
423 0 61.1802 11.932 730 50.6589 1336.1 516.607
424 0 62.1186 10.6248 660 53.253 1335.38 510.956
425 0 65.2958 11.3177 739 51.6184 1335.98 512.624
426 0 66.2095 11.2824 747 52.4511 1335.58 511.93
427 0 67.0896 9.80779 658 53.3936 1336.01 512.152
428 0 71.1616 11.8041 840 51.3488 1335.97 511.446
429 0 74.2775 13.3149 989 50.7503 1335.95 506.67
430 0 76.2494 14.5444 1109 49.7214 1336.08 507.583
431 0 79.1822 16.6073 1315 47.8715 1336.4 508.373
432 0 81.1517 12.6307 1025 51.6146 1336.08 506.067
433 0 84.1442 12.5024 1052 52.3517 1336.23 501.539
434 0 86.1573 10.6781 920 53.8652 1335.82 503.945
435 1 41.0451 8.5272 350 53.0343 1335.33 521.857
436 0 44.1763 7.78699 344 52.2151 1335.82 523.529
437 0 46.069 9.63771 444 52.2185 1335.61 520.207
438 0 47.1585 9.09698 429 51.8392 1336.56 519.713
439 0 48.1397 10.2826 495 51.0283 1336.72 518.22
440 0 50.1573 10.2079 512 52.4844 1335.27 520.381
441 0 49.1473 8.68818 427 54.1241 1335.37 518.461
442 0 55.1807 11.0908 612 51.3856 1335.13 517.69
443 0 57.2635 12.9052 739 49.8078 1335.6 517.361
444 0 57.0975 9.51005 543 53.0774 1335.28 516.908
445 0 61.1806 10.9839 672 51.4449 1335.27 516.521
446 0 61.1099 10.8657 664 52.2154 1335.44 512.227
447 0 63.05 12.1332 765 51.1333 1336.02 510.359
448 0 65.157 9.74568 635 52.8142 1336.48 508.022
449 0 68.1205 10.5255 717 51.8117 1336.4 512.863
450 0 72.144 9.20381 664 53.3961 1336.74 504.727
451 0 73.0874 11.7531 859 51.7043 1336.31 506.7
452 0 76.1956 11.3786 867 52.6955 1335.98 506.143
453 0 79.0957 11.4671 907 52.4851 1335.88 503.872
454 0 81.178 10.8034 877 53.7047 1336.07 501.205
455 0 83.2131 9.86623 821 54.7954 1336.02 501.413
456 0 88.1008 11.1804 985 52.5168 1337.02 503.902
457 1 45.1993 9.97803 451 50.0244 1335.66 523.18
458 0 44.0787 10.2544 452 49.3097 1336.14 524.524
459 0 48.1257 8.91416 429 50.7529 1335.6 522
460 0 50.29 11.2348 565 49.7398 1335.49 521.108
461 0 51.2066 9.88154 506 51.5455 1335.2 520.296
462 0 53.0417 11.3684 603 50.9735 1334.75 518.509
463 0 54.2151 11.3253 614 50.6254 1334.55 520.485
464 0 56.2179 9.78335 550 52.3273 1334.65 517.807
465 0 55.1603 10.4604 577 51.5078 1335.43 516.567
466 0 56.0864 9.52103 534 51.5936 1335.8 516.91
467 0 59.1171 9.38815 555 52.7351 1335.35 514.141
468 0 62.2438 9.54312 594 52.5152 1335.49 512.838
469 0 63.138 8.4735 535 53.5421 1335.54 512.443
470 0 67.105 11.3404 761 51.7832 1334.66 512.986
471 0 67.1468 9.39732 631 53.1315 1334.98 514.537
472 0 73.2473 10.526 771 52.275 1334.77 510.979
473 0 74.1428 11.7071 868 52.0323 1334.97 508.309
474 0 76.2723 10.8558 828 52.7947 1335.03 507.114
475 0 80.1039 11.56 926 51.6555 1335.72 507.361
476 0 79.0931 11.4801 908 52.5463 1335.43 506.622
477 0 85.0941 12.8446 1093 51.312 1334.85 507.331
478 0 88.1209 11.5183 1015 52.3172 1334.83 507.724
479 1 45.2603 8.32959 377 50.3528 1334.94 527.706
480 0 45.2258 8.29174 375 51.9973 1334.53 524.208
481 0 49.1012 10.5293 517 50.1586 1334.77 523.012
482 0 49.158 10.5578 519 50.9711 1334.87 522.326
483 0 49.086 10.94 537 50.7337 1334.77 521.665
484 0 51.1066 8.51162 435 53.2897 1335.01 515.612
485 0 54.1784 10.4654 567 51.3845 1335.04 516.935
486 0 55.1376 11.8975 656 49.9238 1335.4 519.441
487 0 56.0889 12.9972 729 50.0192 1335.06 517.372
488 0 58.11 10.7383 624 51.8446 1334.65 517.764
489 0 61.122 11.5179 704 50.6733 1335.62 512.064
490 0 61.2745 11.9462 732 51.8811 1334.86 513.238
491 0 65.203 12.9902 847 50.6092 1334.93 511.91
492 0 66.2883 9.57937 635 53.8929 1335.17 512.784
493 0 69.1384 11.3106 782 52.9015 1334.44 512.017
494 0 69.1993 11.7487 813 52.4231 1335.12 507.451
495 0 73.0568 11.1968 818 52.2115 1335.84 509.068
496 0 73.1228 9.29942 680 54.3985 1335.53 504.597
497 0 77.0869 9.69036 747 54.253 1335.6 503.576
498 0 77.1108 8.94816 690 55.2768 1335.46 500.252
499 0 80.1405 8.02341 643 56.7107 1335.82 495.355
500 0 84.1052 11.1289 936 53.9412 1335.8 496.908
501 1 39.1291 6.49134 254 54.0158 1335.07 521.728
502 0 43.0705 8.59056 370 52.6946 1335.07 519.038
503 0 42.0157 6.68797 281 55.2064 1334.69 520.918
504 0 46.089 9.43825 435 52.823 1334.94 518.903
505 0 47.0498 9.60684 452 52.531 1335 515.631
506 0 48.0664 9.54929 459 52.6427 1335.59 517.037
507 0 49.0644 9.27354 455 53.6066 1335.41 514.349
508 0 52.1879 7.03229 367 55.515 1335.4 511.365
509 0 49.102 3.97132 195 59.2667 1334.48 512.108
510 0 46.121 5.11698 236 58.4364 1334.54 502.28
511 1 65.1458 12.0806 787 57.6112 1335.36 453.329
512 0 67.1651 9.4692 636 60.1226 1335.4 450.623
513 0 63.0939 10.0168 632 54.5332 1334.47 510.913
514 0 66.1284 12.0372 796 51.8518 1334.73 511.621
515 0 67.0955 9.52374 639 54.5352 1335.05 508.858
516 0 70.1555 9.29364 652 54.8068 1334.91 507.779
517 0 68.1462 9.37689 639 55.1831 1335.43 503.745
518 0 75.1254 10.4492 785 54.3465 1334.9 507.614
519 0 78.2231 10.3806 812 54.4495 1334.72 502.324
520 0 84.4401 11.4637 968 52.2893 1334.95 508.045
521 1 42.0794 10.195 429 50.0047 1334.44 527.263
522 0 43.139 9.27236 400 51.0775 1334.68 525.99
523 0 45.1515 11.3617 513 49.8538 1334.33 525.959
524 0 44.0579 10.4635 461 51.1323 1334.8 522.729
525 0 47.0927 10.8297 510 50.7039 1334.67 523.327
526 0 49.2042 9.65366 475 52.6379 1334.65 520.143
527 0 51.2531 10.614 544 50.6507 1334.8 520.044
528 0 50.1239 9.27701 465 52.0602 1334.86 519.772
529 0 52.1199 9.9578 519 51.7206 1334.94 519.518
530 0 55.1906 11.7411 648 49.463 1334.9 520.282
531 0 54.2966 8.52725 463 51.46 1335.33 520.473
532 0 57.0706 12.4582 711 48.692 1335.57 514.944
533 0 60.1828 10.0195 603 50.927 1334.91 516.131
534 0 61.0913 10.1651 621 51.4122 1334.98 511.126
535 0 63.1701 11.3661 718 50.6156 1334.53 512.954
536 0 66.3177 7.88628 523 52.9082 1334.49 514.648
537 0 68.3134 9.96876 681 51.3348 1335.27 512.145
538 0 67.1253 8.70015 584 53.1524 1335.11 511.089
539 0 72.3078 12.8617 930 49.3634 1335.41 508.818
540 1 38.1969 9.32012 356 48.4382 1334.47 528.177
541 0 37.1086 11.6685 433 46.5658 1334.64 529.411
542 0 39.105 9.69186 379 48.8734 1334.46 527.887
543 0 38.033 10.5698 402 47.2811 1335.38 525.94
544 0 41.0554 8.76865 360 50.5333 1334.04 525.503
545 0 43.117 12.153 524 47.1317 1334.84 524.828
546 0 41.1161 8.58544 353 51.1048 1334.49 521.592
547 0 45.1201 8.11168 366 50.4344 1334.23 525.781
548 0 46.0417 8.68777 400 50.89 1334.58 521.83
549 0 47.0436 9.35302 440 50.1795 1334.75 522.127
550 0 48.05 8.74089 420 50.5119 1334.81 521.74
551 0 47.0553 8.94692 421 52.0689 1334.2 519.703
552 0 51.2737 10.1807 522 50.0996 1334.17 521.67
553 0 53.1046 11.2608 598 49.694 1334.45 518.657
554 0 54.0961 10.888 589 48.9864 1335.39 519.878
555 0 57.047 10.9909 627 48.5104 1335.5 519.592
556 0 57.0993 10.9634 626 49.0288 1335.93 515.387
557 0 58.2973 9.82892 573 50.9389 1334.65 516.028
558 0 62.2427 12.4191 773 49.6843 1333.69 513.404
559 0 63.2503 10.1501 642 51.5919 1333.86 514.575
560 0 66.167 10.8816 720 50.2486 1334.8 513.217
561 0 68.1868 11.2045 764 50.0995 1334.71 513.266
562 0 70.1026 11.583 812 49.7401 1335.15 509.999
563 0 72.0881 9.80745 707 51.5078 1335.53 508.477
564 1 34.0988 9.00325 307 48.7915 1335.15 528.147
565 0 36.133 5.95024 215 51.014 1335.21 524.758
566 0 38.0266 10.4927 399 48.0852 1334.85 526.095
567 0 36.1034 6.84147 247 51.1134 1334.89 525.437
568 0 41.0785 9.88353 406 49.2759 1334 526.828
569 0 42.0833 8.72081 367 50.4142 1333.89 523.665
570 0 42.0309 9.73095 409 49.5623 1334.62 521.729
571 0 44.1498 9.67161 427 49.5246 1334.9 518.742
572 0 46.0373 9.55746 440 49.7159 1334.7 519.425
573 0 48.1691 9.92337 478 49.4247 1335.13 517.728
574 0 49.0425 9.82821 482 49.529 1335.05 518.573
575 0 49.0753 9.47524 465 49.3806 1335.41 512.744
576 0 53.223 8.69924 463 50.6134 1335.03 513.199
577 0 57.2377 11.1116 636 48.0629 1334.97 516.357
578 0 57.1999 9.84268 563 48.7567 1335.44 516.584
579 0 60.1721 11.168 672 47.5253 1335.91 515.49
580 0 58.1458 9.26979 539 49.0705 1336.32 513.13
581 0 61.0432 12.6468 772 46.6347 1336.53 510.317
582 0 63.1088 10.6324 671 47.2638 1337.09 510.247
583 0 66.1704 10.7299 710 47.0169 1336.87 513.137
584 0 66.144 9.28277 614 49.202 1336.38 506.805
585 0 70.1983 10.0002 702 49.0057 1336.48 506.791
586 0 71.0738 9.77858 695 49.4302 1336.57 504.8
587 0 75.1522 10.6051 797 49.4868 1336.07 505.736
588 0 79.2595 11.4308 906 48.6998 1335.81 506.794
589 0 78.1733 11.1803 874 49.5343 1336.24 500.645
590 0 79.1326 10.1981 807 50.347 1336.34 503.302
591 0 85.1935 11.6793 995 50.0663 1335.45 498.091
592 1 44.0939 7.89224 348 50.2816 1335.24 521.445
593 0 46.1909 10.0669 465 50.0366 1334.65 521.742
594 0 48.1993 11.0582 533 49.2964 1334.84 519.28
595 0 50.1532 11.6244 583 48.928 1334.8 519.453
596 0 49.0567 9.27498 455 51.4549 1334.55 517.681
597 0 53.216 10.5607 562 50.2438 1334.87 514.804
598 0 54.134 11.7856 638 48.6285 1335.29 517.776
599 0 55.0911 11 606 49.6551 1335.74 513.078
600 0 58.1766 10.6056 617 49.8298 1335.17 514.88
601 0 59.0873 12.8454 759 48.9539 1334.79 514.179
602 0 61.0974 12.8974 788 47.8464 1335.71 515.079
603 0 63.1464 10.7211 677 49.9055 1335.85 508.007
604 0 66.0934 12.4672 824 48.9624 1335.6 509.881
605 0 68.1195 11.9936 817 49.519 1336.04 509.046
606 0 68.1639 10.2694 700 50.8886 1336.15 505.611
607 0 74.0955 10.4055 771 51.083 1335.42 505.371
608 0 75.1419 9.43548 709 51.8886 1335.88 501.803
609 0 79.2453 13.0102 1031 49.3375 1335.35 505.369
610 0 83.2355 11.089 923 51.5482 1335.11 502.02
611 0 84.1607 13.1653 1108 49.4431 1335.41 503.122
612 1 39.1151 7.79749 305 51.4557 1335.22 522.259
613 0 43.2313 10.2241 442 47.8303 1335.04 526.163
614 0 47.2092 10.4217 492 47.7215 1335.48 523.707
615 0 48.0894 11.3331 545 47.1596 1336.32 522.05
616 0 48.1062 9.52061 458 49.7533 1336.29 518.616
617 0 51.1575 9.24596 473 49.5941 1336.19 519.865
618 0 52.1283 11.8937 620 48.1226 1335.96 519.326
619 0 52.0888 10.6741 556 50.0288 1335.51 516.543
620 0 55.209 14.1644 782 47.6471 1335.21 515.556
621 0 56.1643 10.131 569 50.8893 1335.71 515.32
622 0 60.0861 13.1644 791 47.9734 1336.03 513.331
623 0 61.1008 11.5219 704 49.6122 1336.05 511.842
624 0 63.198 12.2789 776 48.6237 1336.41 509.182
625 0 64.0503 13.0054 833 48.6098 1336.31 510.848
626 0 69.1341 11.8321 818 50.0685 1335.33 508.04
627 0 73.1197 12.9924 950 49.1589 1335.75 507.149
628 0 71.1061 11.1805 795 50.9597 1335.95 506.204
629 0 76.1686 12.9187 984 49.1931 1335.59 507.895
630 0 78.1071 12.7645 997 50.4062 1335.45 503.665
631 0 79.1746 10.8747 861 51.6829 1335.48 505.61
632 1 41.2372 7.08098 292 51 1335.25 523.928
633 0 41.1582 8.52806 351 50.1738 1336.01 522.615
634 0 43.0662 7.43043 320 51.2375 1335.65 521.472
635 0 45.0432 10.057 453 50.2737 1335.45 518.389
636 0 47.0755 12.6393 595 48.437 1335.47 519.654
637 0 49.1267 11.0734 544 48.9706 1335.84 517.778
638 0 51.1357 12.457 637 46.7237 1336.38 520.086
639 0 51.1027 11.6824 597 48.5963 1335.98 515.672
640 0 55.0563 10.7163 590 49.1864 1335.63 518.068
641 0 56.1796 10.146 570 49.9614 1336.39 512.374
642 0 59.2036 11.0466 654 49.6758 1335.57 512.948
643 0 60.1698 7.42897 447 52.094 1335.7 512.908
644 0 62.2438 10.0412 625 50.6 1335.29 512.795
645 0 60.212 9.03475 544 51.7096 1335.46 509.338
646 0 65.2383 11.2051 731 50.5622 1335.16 508.743
647 0 69.2622 11.2904 782 50.0575 1334.92 511.072
648 0 71.1337 12.3148 876 49.2135 1335.76 509.465
649 0 72.1298 12.9627 935 48.7701 1335.92 508.298
650 0 77.2528 12.5432 969 49.1692 1336.01 503.895
651 0 77.2174 11.0856 856 50.4883 1336.47 504.175
652 0 81.1156 12.1185 983 50.0417 1335.75 504.527
653 0 84.16 10.6107 893 50.626 1336.46 503.138
654 1 39.0655 11.084 433 48.1085 1335.58 522.118
655 0 41.1021 9.14795 376 49.7101 1335.33 523.319
656 0 41.0713 8.22958 338 50.4556 1335.31 522.772
657 0 45.0764 11.536 520 48.0904 1335.53 523.375
658 0 44.2188 11.4205 505 48.2416 1335.83 522.164
659 0 46.0725 12.3718 570 49.0491 1335.06 520.747
660 0 49.1964 11.5862 570 48.5298 1335.46 522.675
661 0 51.0636 11.3584 580 49.1345 1335.56 518.957
662 0 50.0441 11.2501 563 50.0373 1335.55 518.808
663 0 53.1078 12.9359 687 48.3726 1335.67 518.336
664 0 52.0576 10.0466 523 51.6444 1335.72 514.66
665 0 56.1321 10.8494 609 50.4269 1335.43 517.315
666 0 58.1903 11.8061 687 49.5779 1336.23 513.658
667 0 60.2089 10.2809 619 51.315 1335.26 515.519
668 0 62.1237 9.60986 597 51.7839 1336.02 512.487
669 0 66.2369 13.029 863 49.029 1335.99 512.79
670 0 67.0727 11.5397 774 50.8243 1336.17 508.722
671 0 68.1628 12.7489 869 50.2865 1336.12 508.84
672 0 71.1512 12.4383 885 49.304 1336.51 511.67
673 0 73.1986 11.5986 849 50.0718 1336.58 510.425
674 0 80.144 13.4757 1080 48.9713 1336.5 507.628
675 0 79.1185 11.0973 878 51.2597 1336.63 506.757
676 0 83.2772 13.5451 1128 49.8041 1336.15 505.002
677 0 87.1387 10.753 937 52.2476 1335.83 505.531
678 1 43.1156 10.2515 442 49.7195 1335.2 523.231
679 0 44.1705 10.4821 463 47.7927 1335.7 526.965
680 0 45.126 8.73111 394 49.7614 1335.74 522.911
681 0 48.1639 10.8172 521 48.6104 1335.91 519.791
682 0 49.0936 7.59773 373 50.6863 1336.11 520.598
683 0 51.0539 9.81316 501 48.2754 1336.69 520.218
684 0 50.085 9.28422 465 49.828 1336 520.11
685 0 53.1749 7.7104 410 51.0366 1336.22 518.707
686 0 55.1577 13.2348 730 47.8014 1336.35 516.626
687 0 58.14 10.3887 604 49.9172 1336.46 515.627
688 0 60.2511 10.672 643 49.9425 1336.11 516.048
689 0 61.1532 11.6919 715 48.9147 1336.8 515.078
690 0 63.0876 11.2225 708 50.1088 1336.44 511.862
691 0 66.0797 11.6375 769 49.3095 1336.86 512.697
692 0 65.1139 7.31027 476 52.8592 1336.52 512.658
693 0 69.1208 11.3425 784 50.2717 1336.32 511.844
694 0 73.1485 11.2101 820 50.9159 1336.04 509.163
695 0 77.0974 12.2053 941 49.8608 1336.35 510.141
696 0 76.0999 13.2852 1011 50.2038 1335.94 509.04
697 0 82.2078 12.6265 1038 50.3892 1336.13 507.469
698 0 82.1422 9.4592 777 53.6486 1336.46 504.555
699 1 41.0498 9.57375 393 49.5776 1335.42 525.987
700 0 43.1218 11.9429 515 47.5068 1335.54 526.478
701 0 43.138 11.3125 488 48.709 1336.11 522.936
702 0 45.1685 9.23211 417 50.7122 1335.65 521.266
703 0 46.0684 12.7636 588 48.6531 1335.41 522.954
704 0 48.2171 13.2318 638 48.1301 1335.03 524.983
705 0 52.123 12.01 626 49.901 1334.89 522.157
706 0 51.0887 8.74948 447 52.3691 1335.52 519.125
707 0 52.3123 10.8579 568 51.662 1335.03 517.273
708 0 55.0422 8.79326 484 51.8533 1335.84 519.986
709 0 56.141 10.4914 589 51.2394 1335.92 516.029
710 0 58.2308 10.4412 608 51.1612 1335.93 517.697
711 0 59.127 12.4309 735 50.3034 1336.62 512.766
712 0 60.2339 9.69554 584 52.8288 1335.81 515.166
713 0 65.0486 10.9764 714 52.2969 1336.24 511.976
714 0 64.0712 11.097 711 52.4473 1335.85 515.197
715 0 70.1115 10.6972 750 53.0827 1336.1 511.652
716 0 69.1103 9.63677 666 54.7432 1336.17 507.83
717 0 75.0549 10.7521 807 53.0025 1336.52 512.545
718 0 78.2525 11.1562 873 54.0321 1336.13 507.282
719 0 79.2842 10.4813 831 55.1191 1336.17 506.165
720 0 81.1942 10.1855 827 55.786 1336.56 501.694
721 0 84.1883 13.0184 1096 53.9608 1336.07 503.797
722 0 87.1685 10.6919 932 55.5118 1335.74 505.986
723 1 41.0784 8.37424 344 54.9273 1334.68 525.18
724 0 43.1098 11.3895 491 51.6578 1335.36 525.694
725 0 44.042 9.83152 433 54.2171 1334.91 524.254
726 0 47.0718 12.1516 572 52.1626 1335.03 522.848
727 0 48.0339 12.97 623 50.0048 1335.92 524.719
728 0 49.0594 11.1905 549 52.2678 1335.34 523.361
729 0 52.1323 11.3174 590 53.1814 1335.11 520.536
730 0 53.0657 12.362 656 52.2729 1335.22 520.886
731 0 53.06 13.6826 726 51.1777 1335.09 522.077
732 0 56.0483 11.4009 639 54.252 1334.77 516.989
733 0 58.1062 11.0659 643 54.3188 1335.12 516.672
734 0 60.1089 11.8285 711 52.3586 1335.58 517.287
735 0 63.1447 13.0177 822 50.8127 1336.15 516.768
736 0 66.1764 12.9956 860 51.4023 1335.79 512.776
737 0 67.1156 11.726 787 52.7421 1335.9 510.687
738 0 73.1392 11.7037 856 51.6554 1335.6 513.168
739 0 74.1401 13.1508 975 51.3395 1335.43 512.239
740 0 75.0604 11.564 868 53.2995 1335.62 507.098
741 0 78.1163 11.5085 899 52.762 1335.75 507.496
742 1 41.017 10.9467 449 49.2739 1335.25 528.49
743 0 39.2086 6.83524 268 53.2873 1334.85 526.705
744 0 42.0931 11.6171 489 50.1902 1334.92 525.628
745 0 44.0464 7.49209 330 52.8303 1334.49 525.321
746 0 42.0341 7.99351 336 52.7351 1334.9 523.878
747 0 48.0569 10.217 491 50.5031 1335.17 523.031
748 0 48.011 11.2266 539 50.692 1334.35 522.85
749 0 50.0961 9.46181 474 51.2869 1335.1 521.639
750 0 52.1494 10.3549 540 49.8667 1336.03 519.435
751 0 52.0977 12.4382 648 49 1335.54 518.813
752 0 54.0408 9.25226 500 52.598 1334.81 518.01
753 0 55.0236 9.77762 538 51.2639 1335.46 517.478
754 0 57.1108 11.3289 647 49.8609 1335.14 520.527
755 0 60.0518 10.6741 641 50.7863 1335.41 516.318
756 0 62.1306 10.2848 639 50.9343 1335.58 513.729
757 0 63.0541 10.372 654 51.6269 1335.25 513.647
758 0 66.1393 12.897 853 48.8382 1335.82 515.753
759 0 68.1478 13.28 905 48.9503 1336.24 513.155
760 0 69.1073 11.0987 767 50.5932 1335.71 513.673
761 0 72.1608 12.5969 909 49.9285 1335.51 512.044
762 0 75.1092 9.93221 746 52.311 1335.51 511.046
763 1 36.1204 9.68983 350 49.2057 1335.24 529.386
764 0 37.0487 9.79793 363 49.1708 1335.37 528.438
765 0 37.025 8.12964 301 52.4053 1334.5 525.89
766 0 41.1155 10.3611 426 49.9836 1334.6 528.408
767 0 43.0482 10.8251 466 49.8348 1334.8 525.7
768 0 45.015 9.48573 427 51.9204 1333.86 525.356
769 0 46.0673 9.68148 446 51.7085 1334.06 523.04
770 0 47.3697 9.98529 473 50.7907 1334.6 523.989
771 0 50.3402 9.65431 486 50.9959 1335.1 519.883
772 0 52.0516 10.8546 565 50.4602 1334.64 522.982
773 0 50.2752 9.448 475 52.3347 1334.94 518.811
774 0 54.0444 10.7689 582 51.0962 1334.97 520.273
775 0 55.2084 11.3026 624 50.6298 1335.21 519.062
776 0 60.0634 13.0529 784 48.9107 1335.3 516.876
777 0 60.0591 11.0891 666 51.1757 1335.25 515.877
778 0 63.105 15.1176 954 47.7966 1335.03 518.303
779 0 64.1705 12.1084 777 49.9949 1335.32 518.496
780 0 67.1118 12.5462 842 50.5629 1335.15 515.732
781 0 69.1757 11.3046 782 52.4233 1334.84 514.109
782 0 71.1381 10.8802 774 52.9367 1335.31 510.619
783 0 72.2137 11.3967 823 52.6306 1335.65 511.584
784 0 76.2159 12.1103 923 52.0618 1335.56 508.138
785 0 76.2792 11.6546 889 53.1968 1335.9 506.415
786 0 82.1664 13.0102 1069 51.3106 1335.89 507.078
787 0 83.1135 13.0905 1088 51.8621 1336.28 505.017
788 0 88.1059 12.1785 1073 53.342 1335.66 502.4
789 0 88.1647 10.6619 940 55.6053 1335.23 502.588
790 0 94.2104 12.1961 1149 54.6597 1334.72 500.896
791 0 95.3079 13.0419 1243 53.7393 1335.82 498.149
792 0 96.1781 12.8824 1239 54.1784 1334.94 502.44
793 0 101.154 12.5552 1270 54.6669 1335.34 496.101
794 0 103.191 10.6404 1098 56.1047 1336.05 494.421
795 1 54.0951 12.2932 665 51.1609 1335.94 519.289
796 0 56.1386 12.0416 676 51.9201 1335.1 521.086
797 0 58.0154 12.6863 736 51.2038 1335.29 521.171
798 0 59.0471 11.9904 708 51.7472 1335.78 516.117
799 0 59.2276 11.7175 694 52.6009 1335.67 515.166
800 0 62.2165 9.94912 619 54.1373 1335.93 514.145
801 0 65.0878 10.9698 714 53.8011 1335.65 513.507
802 0 70.2572 11.7995 829 53.0084 1335.2 514.08
803 0 68.1553 10.4321 711 54.1674 1335.96 509.357
804 0 72.167 10.3787 749 54.3204 1336.19 509.895
805 0 76.0894 12.1305 923 53.1376 1335.64 510.354
806 0 77.2514 10.3299 798 54.5639 1336.12 507.663
807 0 78.149 10.416 814 55.4189 1335.74 502.932
808 0 83.1804 11.8538 986 54.0862 1335.14 507.748
809 0 85.1557 12.1425 1034 54.2447 1335.35 503.576
810 1 37.0399 8.53135 316 51.924 1335.24 529.911
811 0 39.3007 6.61565 260 53.9192 1335.39 527.181
812 0 38.112 8.78988 335 51.8418 1336.16 524.066
813 0 40.0542 9.86163 395 52.2532 1335.49 523.137
814 0 39.0673 9.31726 364 53.7802 1335.15 522.901
815 0 42.0552 10.0106 421 52.2066 1335.44 525.375
816 0 45.1294 11.4781 518 51.3012 1335.66 521.882
817 0 47.0575 9.69027 456 53.3662 1335.23 522.377
818 0 46.0511 9.46775 436 54.6101 1334.71 519.952
819 0 50.0659 10.7858 540 52.5556 1334.97 520.985
820 0 50.1994 9.86068 495 52.903 1336.06 517.778
821 0 54.1579 11.2264 608 51.0839 1335.98 516.664
822 0 57.3434 13.8638 795 49.4038 1335.98 517.408
823 0 57.0595 12.8638 734 50.8379 1335.71 516.741
824 0 59.1887 11.2353 665 52.2421 1335.66 515.565
825 0 62.0694 10.8427 673 51.9316 1335.54 515.397
826 0 64.1338 10.712 687 52.8646 1335.09 511.691
827 0 66.1868 11.0596 732 52.2145 1335.08 512.881
828 0 69.1579 13.1149 907 50.5535 1335.41 509.518
829 0 70.1112 10.954 768 52.1849 1335.74 509.406
830 0 73.208 11.4059 835 52.1748 1335.44 505.332
831 0 75.0713 10.7631 808 52.4394 1335.88 504.056
832 0 78.1604 11.7067 915 51.2164 1335.87 506.791
833 0 81.1633 11.9759 972 51.4383 1335.33 505.368
834 0 84.1607 12.2385 1030 51.067 1335.48 504.725
835 0 88.1717 10.6837 942 52.2431 1335.26 502.858
836 0 90.0928 13.253 1194 49.9632 1335.74 502.632
837 0 91.2111 15.042 1372 40.5707 1334.65 494.466
838 1 48.2318 11.1959 540 48.8444 1335.37 523.493
839 0 48.1061 8.7307 420 50.7024 1335.56 520.179
840 0 49.0652 8.64157 424 51.6061 1334.93 519.333
841 0 54.1218 12.3056 666 48.2928 1335.28 519.296
842 0 51.1092 9.88081 505 50.0752 1335.46 519.79
843 0 55.1563 9.71784 536 50.6996 1335.26 517.715
844 0 60.1248 12.1747 732 48.5123 1335.04 518.995
845 0 60.1948 11.5459 695 48.7122 1335.67 516.078
846 0 62.058 11.2637 699 48.4564 1336.13 518.363
847 0 64.211 10.5589 678 50.7773 1334.93 514.563
848 0 66.271 10.6683 707 50.604 1335.52 513.863
849 0 69.2099 12.7872 885 48.6565 1335.73 512.999
850 0 72.2424 10.8523 784 50.5319 1335.48 509.361
851 0 76.1417 11.2553 857 50.4796 1335.52 507.733
852 0 76.1112 12.7576 971 55.3419 1335.7 432.815
853 1 46.0612 11.0288 508 53.9075 1336.2 487.037
854 0 48.0731 12.5018 601 52.807 1335.66 485.022
855 0 50.1004 12.1556 609 53.6092 1335.34 484.913
856 0 51.0917 9.76675 499 55.8978 1335.7 480.044
857 0 53.0451 9.23743 490 55.9082 1335.84 479.714
858 0 55.1396 9.84774 543 55.7477 1335.88 476.768
859 1 43.2544 9.80248 424 49.2193 1335.55 521.807
860 0 47.1809 10.5975 500 48.49 1335.38 522.942
861 0 47.2265 10.8625 513 48.9747 1335.9 520.891
862 0 50.116 11.5333 578 48.8114 1335.47 523.431
863 0 51.1562 12.6084 645 47.6822 1335.7 521.526
864 0 54.3126 11.4891 624 49.476 1334.64 522.37
865 0 54.3157 10.6783 580 50.9431 1334.64 519.369
866 0 58.2109 12.5234 729 48.4129 1335.6 520.962
867 0 57.0703 11.81 674 50.8872 1335.49 516.325
868 0 60.1701 11.5506 695 50.0734 1336.11 514.682
869 0 62.1509 10.925 679 51.3225 1336 512.782
870 0 64.0789 10.9865 704 51.1719 1336.02 511.635
871 0 67.1843 13.2918 893 49.6585 1335.66 514.574
872 0 68.0912 10.8971 742 51.8989 1335.75 512.875
873 0 70.209 10.8248 760 52.6671 1335.98 510.1
874 0 72.1123 10.4004 750 52.7667 1336.3 509.737
875 0 76.3606 11.4457 874 52.3261 1336.21 508.342
876 1 38.1448 9.67366 369 51.1355 1335.12 525.537
877 0 38.1613 10.0887 385 50.5481 1335.48 526.242
878 0 42.3329 8.45679 358 51.2933 1335.43 527.218
879 0 44.1363 9.17612 405 51.1111 1335.3 526.484
880 0 45.1942 9.20473 416 52.4255 1334.84 525.548
881 0 47.1239 10.8437 511 52.0098 1334.8 522.718
882 0 47.1399 11.0522 521 51.8522 1334.42 524.115
883 0 46.0176 10.2787 473 51.8584 1335.63 521.985
884 0 47.1077 7.30241 344 53.9913 1335.78 521.169
885 0 51.1853 8.67437 444 53.7365 1335.41 519.149
886 0 50.0616 10.547 528 50.6875 1336.41 521.724
887 0 50.116 8.38056 420 52.9333 1336.6 517.571
888 0 56.1833 11.1065 624 50.6026 1335.88 520.704
889 0 54.0673 9.19225 497 52.7545 1336.44 513.499
890 0 61.2194 12.2184 748 49.4412 1336.7 516.549
891 0 63.2638 11.207 709 50.2764 1337.07 513.498
892 0 64.0872 10.7042 686 51.7886 1336.47 510.58
893 0 65.1049 10.6136 691 51.5412 1336.73 508.854
894 0 69.1857 10.5224 728 52.0604 1336.31 509.183
895 0 69.1127 9.05767 626 52.8387 1336.84 510.177
896 0 69.1189 11.2126 775 51.4426 1337.03 508.16
897 1 31.0609 8.37065 260 50.9115 1335.97 524.973
898 0 38.045 8.83165 336 49.2173 1336.08 526.664
899 0 37.1188 7.22007 268 50.5261 1336.48 526.832
900 0 40.3312 8.82691 356 49.5787 1336.12 527.48
901 0 42.1167 11.1832 471 48.3291 1336.41 523.159
902 0 44.1221 8.9751 396 50.0101 1335.8 525.793
903 0 43.2366 11.2867 488 48.6516 1336.39 524.686
904 0 49.203 8.43444 415 50.9398 1335.43 523.877
905 0 48.1198 10.4115 501 48.6547 1336.49 520.744
906 0 52.19 10.4809 547 48.6399 1336.05 522.128
907 0 50.2081 8.20584 412 51.0291 1336.02 520.007
908 0 51.2195 8.70763 446 50.3139 1336.56 514.713
909 0 54.3136 10.5682 574 49.2735 1336.47 519.3
910 0 55.1411 8.46918 467 51.2677 1336.42 514.91
911 0 58.1764 8.26795 481 51.5135 1336.41 513.865
912 0 58.1445 10.6631 620 48.7452 1337.57 513.665
913 0 59.1458 13.1708 779 47.2798 1337.63 512.904
914 0 65.1953 8.835 576 50.5156 1337.05 511.085
915 0 67.2135 10.5187 707 50.3451 1336.53 510.437
916 0 70.1601 8.46635 594 51.766 1336.32 511.049
917 0 72.2193 11.4512 827 49.9408 1336.9 507.054
918 0 73.1855 11.0814 811 50.5586 1337.13 505.337
919 0 76.1327 9.9563 758 51.0303 1337.1 506.414
920 0 78.1343 12.2353 956 50.182 1336.91 503.244
921 0 81.274 11.6519 947 51.6811 1336.41 501.324
922 0 80.1086 8.46351 678 54.6283 1336.78 499.267
923 0 86.1141 8.74421 753 53.6135 1336.86 501.834
924 1 45.1165 9.02109 407 50.0295 1335.61 525.909
925 0 43.0837 7.72914 333 52.8168 1335.67 520.087
926 0 53.213 8.23107 438 51.7055 1335.23 522.961
927 0 49.0746 9.80141 481 51.0125 1335.74 521.696
928 0 52.1693 11.8844 620 49.0758 1336.6 521.995
929 0 52.1211 9.2285 481 52.6466 1336.42 518.484
930 0 58.1905 10.5344 613 52.4649 1335.54 518.313
931 0 59.1058 11.9785 708 51.5551 1335.64 517.373
932 0 63.1172 13.1977 833 51.0084 1335.58 516.613
933 0 65.2364 12.4164 810 52.1296 1335.57 515.769
934 0 62.0578 11.167 693 54.505 1336 513.457
935 0 66.2241 11.4913 761 53.5361 1336.05 514.802
936 0 71.1831 11.5196 820 54.0878 1335.68 514.598
937 0 72.2039 9.88866 714 55.3964 1336.57 512.409
938 0 75.135 13.5356 1017 52.9361 1336.72 510.189
939 1 36.0548 11.8153 426 51.9695 1335.84 528.376
940 0 39.1205 10.0203 392 53.5485 1335.88 527.291
941 0 38.0719 9.69218 369 55.0081 1336.16 525.014
942 0 42.0453 11.3925 479 53.6681 1335.7 526.921
943 0 41.0381 15.7902 648 51.4923 1335.58 524.421
944 0 42.0253 12.5401 527 52.9279 1336.42 525.736
945 0 44.1511 10.9397 483 55.6128 1335.97 522.021
946 0 48.0325 12.3874 595 54.3782 1336.11 521.353
947 0 48.1186 11.3054 544 54.8824 1336.09 521.009
948 0 49.0856 11.3679 558 54.4409 1336.59 520.762
949 0 51.0307 9.60205 490 56.551 1336.39 518.082
950 0 54.0704 9.82053 531 55.1431 1336.91 519.245
951 0 56.0715 11.7529 659 53.2473 1337.56 515.36
952 0 57.0734 10.3025 588 54.2619 1337.44 517.56
953 0 61.2772 12.3374 756 54.5265 1336.67 512.759
954 0 61.1247 10.5195 643 55.5086 1336.72 514.984
955 0 65.199 12.6842 827 53.5236 1336.8 512.261
956 0 67.0948 10.3883 697 57.0789 1336.17 510.783
957 0 67.102 9.15025 614 58.1612 1336.42 508.485
958 0 73.2486 11.7954 864 55.6771 1336.38 507.743
959 1 37.0431 10.5013 389 54.4653 1334.75 526.29
960 0 41.0377 12.7931 525 51.7524 1335.23 527.027
961 0 43.1328 11.198 483 52.53 1335.63 525.108
962 0 44.1226 11.4227 504 51.3214 1335.88 527.002
963 0 45.2125 10.2848 465 52.7742 1336.33 523.682
964 0 46.0262 12.5146 576 51.3455 1336.82 521.479
965 0 49.1468 11.3741 559 52.8247 1336.14 520.875
966 0 48.1554 12.6673 610 51.8082 1336.58 519.105
967 0 50.1182 10.7546 539 53.2282 1336.88 516.757
968 0 50.0862 10.0826 505 55.1901 1336.16 517.348
969 0 52.0958 11.4213 595 54.2857 1336.45 514.782
970 0 54.1102 11.2179 607 54.6491 1336.35 513.049
971 0 55.095 11.0718 610 54.4246 1336.92 512.09
972 0 58.0483 8.7341 507 55.8619 1337.14 511.479
973 0 59.073 11.5958 685 53.2146 1337.32 510.861
974 0 62.1675 10.2626 638 54.3213 1337.08 511.277
975 0 62.1272 10.8004 671 54.3115 1337.66 506.756
976 0 67.2036 13.4963 907 51.3649 1337.22 510.573
977 0 69.1983 11.9656 828 53.3708 1336.89 508.806
978 0 71.1122 11.3764 809 53.2707 1337.51 505.794
979 0 70.2117 9.35742 657 55.2283 1338.43 500.971
980 0 78.1633 11.5399 902 53.204 1337.43 502.345
981 0 78.1676 11.6033 907 53.9934 1337.35 499.494
982 0 83.1966 11.7914 981 53.4169 1336.59 501.253
983 0 85.2445 11.2969 963 54.648 1336.62 496.864
984 0 89.2402 12.2927 1097 53.0693 1337.11 496.522
985 0 93.2736 11.2572 1050 53.1448 1337.58 497.026
986 0 96.21 12.005 1155 53.161 1337.32 490.813
987 1 50.1154 7.30315 366 52.4344 1336.24 519.76
988 0 50.1397 9.75275 489 52.0982 1335.85 516.256
989 0 52.0934 8.96467 467 51.7987 1335.78 519.032
990 0 52.1174 10.1694 530 51.0245 1336.65 514.636
991 0 56.0707 9.77338 548 51.1569 1336.34 514.182
992 0 59.1498 11.5131 681 49.7063 1336.57 512.721
993 0 57.0883 8.75836 500 52.034 1336.97 509.55
994 0 60.2066 8.08881 487 52.039 1337.14 510.936
995 0 65.0797 12.8458 836 48.7847 1336.65 508.574
996 0 67.0656 11.1533 748 50.4505 1336.43 506.753
997 0 66.1464 9.6755 640 51.1453 1337.47 503.081
998 0 69.113 8.99976 622 52.7814 1336.7 502.452
999 0 72.1519 9.89579 714 51.7255 1336.82 504.189
1000 0 77.0951 11.6609 899 50.1023 1336.95 501.026
1001 0 79.0761 11.9379 944 49.804 1337.18 502.185
1002 0 79.1394 9.5654 757 52.6169 1337.1 496.814
1003 0 84.0549 11.8732 998 50.503 1337.19 496.728
1004 0 88.1694 11.6367 1026 50.4444 1337.56 493.787
1005 1 41.0498 6.69918 275 50.1236 1336.79 519.015
1006 0 40.0611 10.3093 413 48.5545 1336.27 519.477
1007 0 44.0817 9.34628 412 49.3471 1336.4 518.689
1008 0 47.0327 8.97247 422 50.0237 1335.91 520.483
1009 0 48.0597 8.75994 421 51.0689 1335.91 516.38
1010 0 49.0984 9.5726 470 50.7787 1335.83 517.664
1011 0 51.1338 8.60488 440 51.6114 1336.02 513.775
1012 0 50.2074 9.54043 479 50.7787 1336.28 515.904
1013 0 48.0957 5.9049 284 54.4084 1336.52 511.391
1014 0 58.2122 9.61997 560 50.5143 1336.14 514.409
1015 0 57.1968 10.2803 588 51.0374 1335.62 511.595
1016 0 60.0847 9.5199 572 50.7902 1335.89 514.967
1017 0 64.1634 10.8317 695 49.9353 1336.12 512.987
1018 0 63.1446 8.66265 547 52.2797 1336.5 509.737
1019 0 65.2404 9.33471 609 51.3202 1336.35 511.808
1020 0 68.245 9.80292 669 52.426 1335.45 510.381
1021 0 71.1735 12.0832 860 50.6349 1335.56 509.476
1022 0 75.1882 11.2385 845 51.4533 1335.47 510.413
1023 0 75.1786 9.05843 681 54.2775 1335.59 505.645
1024 0 78.2847 10.5768 828 53.6691 1335.05 503.168
1025 0 83.3245 11.0532 921 52.684 1334.88 506.807
1026 0 84.1119 10.6406 895 53.6156 1335.68 501.699
1027 1 41.0909 10.3429 425 49.7365 1335.62 522.885
1028 0 43.0984 6.45035 278 53.2914 1334.99 524.683
1029 0 44.1229 8.58964 379 52.6939 1335.29 520.348
1030 0 46.1493 8.75419 404 52.5223 1334.75 522.75
1031 0 46.0355 8.27622 381 53.832 1334.44 522.992
1032 0 51.1182 11.1311 569 51.1195 1334.71 520.882
1033 0 51.121 10.4458 534 51.985 1335.16 517.566
1034 0 51.0644 7.87241 402 55.0746 1334.43 515.52
1035 0 55.0491 10.2454 564 52.6986 1334.4 517.488
1036 0 56.2089 11.1192 625 51.8112 1334.35 517.52
1037 0 57.1227 9.83846 562 53.4893 1334.88 513.13
1038 0 60.1483 11.5381 694 52.3256 1334.08 514.872
1039 0 63.1082 9.90363 625 53.1968 1334.54 514.261
1040 0 65.0916 10.5236 685 53.1723 1334.72 509.028
1041 0 67.0851 10.36 695 53.1367 1334.34 511.768
1042 0 69.1124 10.6349 735 53.3401 1334.52 508.386
1043 0 67.1239 9.46012 635 54.852 1334.99 503.869
1044 0 75.1244 11.1415 837 52.6213 1334.74 506.551
1045 0 79.122 10.0604 796 53.8907 1334.64 501.391
1046 0 81.0658 9.97955 809 53.8554 1334.78 500.564
1047 1 40.1274 9.74398 391 50.5166 1334.02 526.205
1048 0 42.1387 9.37381 395 49.7671 1334.53 526.653
1049 0 46.2022 9.89131 457 48.7637 1334.95 524.431
1050 0 46.0386 9.18793 423 50.9031 1334.24 523.435
1051 0 50.1273 9.99455 501 48.1916 1334.29 525.731
1052 0 48.076 7.40495 356 51.7893 1333.64 521.587
1053 0 52.099 9.76987 509 49.9391 1334.42 517.395
1054 0 53.1579 10.0456 534 49.9888 1334.21 516.927
1055 0 55.1589 8.64775 477 50.7505 1334.25 519.512
1056 0 57.1145 10.085 576 49.7535 1334.69 516.832
1057 0 57.1782 9.32173 533 49.9156 1334.72 516.938
1058 0 60.1561 9.97405 600 49.905 1334.91 514.3
1059 0 60.2916 9.65309 582 50.823 1334.5 511.5
1060 0 64.2974 10.778 693 49.7792 1334.14 511.196
1061 0 67.1221 10.3394 694 49.8574 1334.5 511.337
1062 0 70.1726 10.8304 760 49.4526 1334.69 509.225
1063 0 70.0881 12.9979 911 47.9363 1335.15 508.835
1064 0 74.1052 10.2422 759 50.1014 1334.54 508.8
1065 0 76.2701 11.079 845 48.9503 1335.64 509.387
1066 0 78.0761 12.6543 988 48.1518 1335.93 505.304
1067 0 79.1309 9.40214 744 51.2796 1335.19 502.331
1068 0 83.1268 7.92764 659 53.1335 1335.37 498.185
1069 0 88.1374 9.43981 832 51.5925 1334.73 499.806
1070 1 46.0632 5.77468 266 50.6429 1334.8 525.391
1071 0 49.0662 10.3941 510 49.5588 1334.01 520.396
1072 0 48.0793 6.1981 298 51.5168 1334.99 517.893
1073 0 51.1849 7.38499 378 50.3122 1335.4 518.003
1074 0 54.0263 10.6615 576 48.2378 1334.93 519.273
1075 0 53.1178 8.92356 474 49.8671 1335.01 517.601
1076 0 55.0591 10.5523 581 48.3993 1335.05 518.107
1077 0 59.064 9.83679 581 48.1583 1335.56 514.563
1078 0 62.1041 9.38746 583 48.0789 1335.74 517.606
1079 0 60.0899 9.13631 549 49.2951 1335.8 512.537
1080 0 65.0588 10.7441 699 48.485 1334.78 513.635
1081 0 63.1433 6.82574 431 51.7819 1335.34 505.552
1082 0 70.2557 11.0596 777 48.2819 1334.92 511.598
1083 0 74.2576 10.3828 771 49 1334.66 510.385
1084 0 76.1011 11.4453 871 47.7176 1335.57 508.548
1085 0 76.1173 10.4838 798 48.6454 1335.93 503.144
1086 0 81.2436 11.6686 948 47.2943 1335.43 507.095
1087 0 84.0739 11.1093 934 48.1488 1334.9 504.746
1088 0 88.1858 11.4304 1008 47.6567 1335.43 503.012
1089 0 86.2372 9.05641 781 49.4802 1336.65 499.301
1090 0 92.1938 10.5647 974 48.6489 1336.14 498.454
1091 1 45.1258 10.6148 479 47.0981 1335.25 521.489
1092 0 45.1185 10.7938 487 47.0103 1334.94 521.3
1093 0 42.0702 5.91867 249 51.0161 1335.18 518.39
1094 0 46.0357 8.53685 393 49.3969 1335.08 518.461
1095 0 47.1257 10.4826 494 47.834 1335.32 515.385
1096 0 51.0389 8.85599 452 49.1593 1335.11 516.073
1097 0 53.1812 11.2258 597 47.1591 1335.39 516.189
1098 0 52.0845 11.7501 612 46.7386 1335.68 517.724
1099 0 56.0984 10.1964 572 47.5122 1336.02 513.656
1100 0 56.1261 11.3494 637 46.7253 1336.21 514.138
1101 0 55.109 7.839 432 50.0671 1335.7 510.778
1102 0 58.0605 8.47392 492 49.6707 1335.28 512.776
1103 0 63.0878 11.7297 740 47.3608 1335.01 511.072
1104 0 63.0867 8.65475 546 49.6026 1335.35 512.255
1105 0 67.1147 11.7858 791 47.8534 1335.38 509.358
1106 0 69.2342 11.7716 815 47.1988 1335.46 512.238
1107 0 71.1245 12.1618 865 47.3919 1335.88 505.429
1108 0 75.0492 8.14133 611 50.1718 1335.89 501.021
1109 0 76.1726 11.3427 864 47.8819 1335.93 506.914
1110 0 80.145 11.1423 893 48.5431 1335.92 501.695
1111 0 84.2213 11.4698 966 48.2277 1336.13 498.8
1112 0 86.2243 12.2819 1059 47.7517 1336.28 499.144
1113 0 90.1118 11.6855 1053 48.3124 1336.27 496.953
1114 1 46.0854 10.8494 500 46.516 1335.57 520.816
1115 0 46.1246 10.9486 505 47.4495 1334.99 518.663
1116 0 47.0572 9.37157 441 47.8866 1335.55 520.662
1117 0 50.0721 9.44637 473 48.4144 1335.21 519.093
1118 0 51.076 11.2969 577 46.7036 1335.73 517.289
1119 0 55.0802 10.9658 604 46.4023 1335.55 520.445
1120 0 54.065 9.69203 524 48.8359 1334.97 515.897
1121 0 57.0887 13.3126 760 45.6737 1335.95 515.178
1122 0 57.0769 9.61861 549 48.6576 1335.65 514.098
1123 0 59.0863 8.36065 494 49.5648 1335.5 514.348
1124 0 62.1348 11.459 712 48.1643 1336.04 507.728
1125 0 62.0761 9.47224 588 48.2704 1336.69 512.277
1126 0 67.056 12.1391 814 47.3587 1336.14 507.724
1127 0 68.1623 11.0472 753 48.6946 1335.56 506.972
1128 0 72.21 12.9345 934 47.258 1336.4 503.4
1129 0 76.146 14.1701 1079 46.608 1336.33 504.818
1130 0 74.1528 11.4628 850 49.0871 1336.02 504.367
1131 0 80.0715 13.6253 1091 46.7672 1336.13 507.118
1132 0 82.1442 11.1268 914 49.2856 1336.58 500.937
1133 0 87.1334 12.2571 1068 48.4073 1336.29 502.243
1134 0 88.3063 10.6448 940 50.183 1336.21 499.923
1135 1 40.0735 10.0316 402 48.3881 1335.43 521.746
1136 0 42.0099 8.95027 376 48.2766 1335.83 521.551
1137 0 42.1017 7.29187 307 50.2052 1335.7 516.238
1138 0 40.0525 9.71225 389 48.5193 1336.18 521.47
1139 0 47.0874 13.2307 623 45.7143 1336.22 519.502
1140 0 49.0744 12.532 615 47.239 1335.46 520.751
1141 0 49.0666 10.4348 512 49.0137 1335.54 517.522
1142 0 52.0753 9.54387 497 49.3119 1335.49 517.594
1143 0 51.1459 9.89326 506 49.4723 1335.99 515.526
1144 0 55.0545 10.6258 585 48.6291 1336.27 515.301
1145 0 57.1097 9.3154 532 49.7256 1336.31 511.464
1146 0 57.0415 9.23889 527 50.2296 1336.11 512.455
1147 0 59.1275 9.23428 546 50.0806 1336.62 507.61
1148 0 61.0405 8.9285 545 51.0532 1336.29 509.422
1149 0 66.081 12.1366 802 49.7107 1335.66 509.277
1150 0 72.1633 13.026 940 48.7479 1335.6 507.984
1151 0 74.0874 10.7441 796 51.2789 1335.81 503.312
1152 0 76.0398 11.9674 910 50.1648 1336.22 504.058
1153 0 76.1662 9.33485 711 52.6048 1336.62 500.471
1154 1 35.1426 10.0448 353 48 1336.2 525.388
1155 0 38.044 10.0673 383 48.0026 1336.4 523.901
1156 0 37.0981 10.5127 390 48.9256 1335.81 524.231
1157 0 41.1087 8.90322 366 50.3142 1335.41 523.844
1158 0 41.0719 11.346 466 48.4721 1336.12 522.247
1159 0 42.04 8.65841 364 50.6648 1336.1 518.508
1160 0 42.0585 11.484 483 49.1884 1336.21 521.553
1161 0 45.0538 10.8981 491 50.5295 1335.43 519.635
1162 1 90.1192 9.76484 880 56.7091 1336.24 475.199
1163 0 86.1278 9.95033 857 57.2602 1336.21 471.624
1164 1 60.1098 10.2812 618 59.3819 1336.73 463.288
1165 0 54.0599 9.48947 513 51.5283 1335.59 517.682
1166 0 55.2564 10.7861 596 51.2953 1335.6 515.304
1167 0 58.1564 13.4809 784 48.4069 1336.22 517.124
1168 0 60.1486 12.1699 732 50.0997 1336.14 512.884
1169 0 61.1623 10.7419 657 50.9513 1336.39 515.041
1170 0 63.1115 11.8679 749 50.6288 1336.42 512.503
1171 0 66.0835 12.7869 845 50.3846 1336.24 511.105
1172 0 65.1196 11.763 766 52.2037 1336.31 507.247
1173 0 69.1206 11.2557 778 51.7686 1336.52 510.407
1174 0 70.2055 13.6741 960 51.1948 1335.99 509.008
1175 0 75.1914 11.8365 890 52.7663 1335.46 508.061
1176 0 77.1196 13.5115 1042 51.2284 1336.54 504.729
1177 0 78.1793 12.3946 969 51.935 1336.46 507.442
1178 0 81.3591 9.53796 776 54.6276 1336.7 505.445
1179 0 82.1658 11.9636 983 53.7243 1336.36 501.633
1180 0 85.1049 11.5152 980 53.3847 1337.11 502.354
1181 0 88.1755 11.4204 1007 55.1827 1335.96 499.717
1182 1 45.1135 11.1496 503 52.0577 1335.71 521.382
1183 0 50.126 10.7729 540 52.0278 1335.78 520.152
1184 0 49.0648 12.0249 590 50.717 1336.48 518.92
1185 0 50.2085 11.5717 581 51.4045 1336.44 518.721
1186 0 53.067 10.3077 547 52.5539 1336.09 517.303
1187 0 56.1165 12.4562 699 50.6037 1336.23 515.765
1188 0 56.0572 11.845 664 51.1672 1336.69 513.723
1189 0 57.1579 10.5147 601 52.619 1336.17 515.662
1190 0 61.1127 12.7306 778 50.3882 1336.65 515.059
1191 0 64.1062 12.2609 786 51 1336.34 515.383
1192 0 65.1345 11.8984 775 51.809 1336.94 510.237
1193 0 68.108 12.2746 836 50.8349 1337.19 509.947
1194 0 70.1529 10.9048 765 52.4993 1336.99 510.842
1195 0 74.1334 12.8687 954 51.586 1336.78 507.809
1196 0 76.0973 11.6824 889 52.9595 1336.72 506.985
1197 0 77.0728 11.846 913 53.9726 1336 505.243
1198 0 80.1623 12.4123 995 54.0523 1335.95 501.02
1199 0 80.0741 10.765 862 55.891 1335.99 497.77
1200 0 85.1439 11.3338 965 54.9586 1336.65 499.711
1201 0 90.2296 11.1826 1009 55.0545 1336.54 498.019
1202 0 87.1402 9.06585 790 58.176 1336.48 494.12
1203 0 94.1274 12.7274 1198 54.5876 1336.68 494.236
1204 1 43.0217 8.29814 357 53.0952 1336.32 522.045
1205 0 46.0473 9.72912 448 52.0246 1336.28 519.467
1206 0 50.0652 7.41034 371 53.903 1336.22 518.652
1207 0 49.1334 11.8046 580 50.9155 1336.54 517.743
1208 0 52.1448 11.4489 597 51.727 1336.4 515.127
1209 0 54.0243 11.1802 604 51.5728 1336.3 515.854
1210 0 56.0687 10.3801 582 53.1409 1335.8 516.655
1211 0 58.0986 13.8902 807 50.2912 1336.04 514.028
1212 0 61.1516 11.2671 689 52.0668 1336.14 514.347
1213 0 61.1356 11.5481 706 51.8584 1336.38 515.174
1214 0 62.088 9.14831 568 54.6408 1336.76 506.766
1215 0 66.138 12.3983 820 51.8427 1336.2 512.382
1216 0 69.0964 12.0122 830 50.8 1337.27 512.816
1217 0 70.1544 10.3914 729 53.5967 1337.01 508.012
1218 0 74.0998 9.2038 682 55.0117 1336.45 507.411
1219 0 74.1384 11.2088 831 54.0409 1336.69 502.564
1220 0 78.1281 12.9147 1009 52.1368 1337.38 503.553
1221 0 82.1155 12.3241 1012 52.8192 1337.47 499.639
1222 0 81.0824 9.13885 741 56.637 1337.14 497.623
1223 0 88.1548 13.7712 1214 52.3509 1337.05 497.471
1224 0 92.0989 11.8242 1089 54.0964 1336.42 498.589
1225 1 46.0573 9.72702 448 51.8839 1336.5 519.585
1226 0 48.1239 10.3275 497 52.0584 1336.62 517.471
1227 0 49.0457 10.1742 499 52.3126 1336.64 516.581
1228 0 51.0833 12.1762 622 50.3505 1336.85 517.688
1229 0 52.0227 12.0332 626 51.5 1336.57 513.104
1230 0 55.0831 9.63998 531 53.5913 1336.42 512.934
1231 0 58.052 12.9367 751 50.8136 1336.67 512.687
1232 0 57.1019 11.0329 630 52.1444 1336.76 511.916
1233 0 60.0336 10.9272 656 52.5579 1336.6 511.861
1234 0 65.0752 11.8171 769 51.2133 1336.7 512.212
1235 0 67.0407 12.0822 810 51.5432 1336.17 512.173
1236 0 69.1362 11.7449 812 52.5037 1336.51 506.665
1237 0 72.1037 13.1755 950 51.62 1336.05 504.545
1238 0 73.088 12.6149 922 51.9805 1336.22 502.526
1239 0 75.0548 10.2458 769 53.8505 1336.36 504.09
1240 0 78.0973 11.3832 889 52.5399 1336.87 502.534
1241 0 80.1337 11.643 933 53.2369 1336.06 503.313
1242 0 83.1721 10.881 905 54.4166 1336.3 498.824
1243 1 41.112 8.92683 367 51.3379 1335.8 522.515
1244 0 40.0311 9.69246 388 50.3995 1336.64 519.296
1245 0 44.0663 10.0076 441 49.3719 1336.77 522.073
1246 0 46.196 10.6936 494 49.2146 1336.92 519.077
1247 0 44.0787 10.0729 444 50.8063 1336.71 516.444
1248 0 48.1148 10.3502 498 49.6867 1337.46 514.522
1249 0 47.0599 12.6222 594 48.7222 1337.07 516.633
1250 0 50.0772 12.1812 610 49.7967 1336.97 514.3
1251 0 52.1031 9.42363 491 50.8859 1337.32 513.914
1252 0 54.0941 10.9809 594 50.1313 1337.27 513.451
1253 0 54.032 11.1786 604 50.4139 1336.89 512.864
1254 0 57.1545 9.76301 558 51.7007 1336.53 512.434
1255 0 59.1026 9.71193 574 52.9774 1336.04 510.242
1256 0 61.0605 11.5623 706 51.8839 1335.98 511.186
1257 0 63.0634 10.6401 671 51.6751 1336.46 508.329
1258 0 68.042 11.8015 803 49.9776 1336.92 510.976
1259 0 71.2028 11.9237 849 49.7362 1337.26 507.064
1260 0 70.0884 10.8006 757 51.8653 1337.44 503.536
1261 0 74.1715 12.6733 940 50.3979 1337.01 503.885
1262 0 77.2486 9.39822 726 52.759 1336.23 507.457
1263 0 79.1846 10.9112 864 52.6736 1336.44 500.414
1264 0 82.0786 10.8798 893 52.7424 1336.72 500.775
1265 0 84.0609 12.5861 1058 52.0974 1336.32 496.629
1266 1 42.0142 8.47332 356 50.6292 1336.6 520.716
1267 0 44.0387 9.6506 425 50.1788 1336.96 517.908
1268 0 45.0741 8.65241 390 52.6333 1335.84 517.503
1269 0 45.0629 10.8293 488 50.1578 1336.48 519.443
1270 0 50.0629 10.6466 533 51.4615 1335.57 516.52
1271 0 50.0733 11.4632 574 50.4704 1336.11 516.282
1272 0 51.1728 10.9238 559 51.0948 1335.62 515.526
1273 0 54.0662 11.005 595 51.5882 1334.78 511.874
1274 0 56.0504 10.9366 613 50.2219 1335.94 513.011
1275 0 59.1324 9.58865 567 51.7231 1335.87 510.289
1276 0 60.067 10.8212 650 51.4046 1335.19 511.266
1277 0 64.0714 11.0033 705 50.3333 1336.14 508.132
1278 0 62.0962 10.3871 645 50.8403 1336.68 505.177
1279 0 66.1304 9.66273 639 51.5243 1336.21 506.584
1280 0 69.1198 10.5324 728 51.1044 1336.17 502.912
1281 0 69.1077 9.5069 657 52.4034 1336.22 502.093
1282 0 76.0963 12.3396 939 49.4601 1336.97 502.768
1283 0 76.1845 12.811 976 49.0861 1337.1 500.736
1284 0 80.0788 12.5002 1001 49.1518 1336.79 502.082
1285 1 37.0275 9.26339 343 48.4519 1336.62 519.195
1286 0 40.0434 12.5614 503 46.1392 1337.14 519.958
1287 0 41.069 8.69269 357 49.2969 1336.62 519.042
1288 0 44.0533 9.6928 427 49.1569 1336.3 517.183
1289 0 48.0721 12.3356 593 47.2226 1336.02 521.091
1290 0 48.0956 10.6455 512 49.7578 1335.86 516.754
1291 0 51.0606 9.6552 493 49.4158 1336.43 516.698
1292 0 53.0754 11.0786 588 48.4609 1336.44 516.008
1293 0 54.1083 11.902 644 48.0109 1336.91 514.088
1294 0 56.0857 13.3189 747 46.4391 1336.8 515.557
1295 0 55.0592 12.6773 698 47.4126 1337.12 514.895
1296 0 60.0907 12.4479 748 48.4906 1336.09 512.612
1297 0 58.0659 8.92089 518 51.0618 1336.64 509.43
1298 0 62.1908 10.2266 636 50.0079 1336.32 512.022
1299 0 64.0811 11.5947 743 48.284 1337.12 510.771
1300 0 65.0891 9.07986 591 51.088 1337.17 504.824
1301 0 70.0808 9.83151 689 50.7271 1336.64 508.241
1302 0 71.1608 12.6334 899 48.0167 1337.78 505.313
1303 0 75.193 11.9426 898 49.0367 1337.25 503.758
1304 0 75.1441 9.66143 726 50.9573 1336.98 503.97
1305 1 37.0515 8.31276 308 47.2825 1336.94 522.364
1306 0 36.0468 9.29346 335 47.3015 1337.21 520.684
1307 0 44.0882 10.8419 478 44.4184 1337.22 524.406
1308 0 49.209 10.0388 494 46.5263 1335.79 525.178
1309 0 46.0735 10.0709 464 46.5862 1336.29 525.14
1310 0 52.2104 11.7984 616 45.1542 1336.73 521.484
1311 0 48.0678 10.6308 511 46.5734 1336.84 519.652
1312 0 52.121 12.4902 651 45.381 1337.05 518.436
1313 0 53.1445 11.9674 636 46.7311 1336.3 517.436
1314 0 56.2935 10.0012 563 47.5879 1336.85 515.195
1315 0 55.2003 9.92748 548 47.5712 1337.21 516.117
1316 0 60.1419 14.3826 865 44.4659 1336.49 519.21
1317 0 58.1706 11.0193 641 47.9033 1336.45 513.874
1318 0 60.172 11.6832 703 47.2632 1336.7 513.481
1319 0 60.1503 7.91351 476 50.5294 1336.28 513.958
1320 0 63.1036 10.7759 680 48.3103 1336.34 515.804
1321 0 64.188 11.0924 712 48.1784 1337.2 512.472
1322 0 73.344 11.9301 875 48.0137 1336.71 510.75
1323 0 70.3219 11.4758 807 49.5192 1336.58 510.967
1324 0 77.1544 10.4336 805 50.2273 1336.53 510.971
1325 0 73.1658 13.2302 968 49.2355 1337.05 507.122
1326 0 76.1432 12.6472 963 49.9034 1336.9 505.875
1327 0 80.1508 13.013 1043 49.5638 1337.28 506.544
1328 0 81.2236 11.7577 955 50.7822 1337.23 506.543
1329 0 80.1206 10.5216 843 52.6311 1337.26 500.036
1330 0 85.0678 12.637 1075 50.5795 1337.16 503.343
1331 1 40.1127 8.32654 334 49.8293 1336.58 523.674
1332 0 43.0227 9.48336 408 49.8456 1336.03 522.998
1333 0 46.1005 8.93699 412 49.801 1336.23 526.59
1334 0 46.1125 10.2142 471 49.6178 1336.3 523.981
1335 0 49.2866 13.0056 641 47.2808 1336.68 525.062
1336 0 47.1115 11.4409 539 48.4694 1337.04 523.72
1337 0 47.1304 9.59042 452 51.2456 1336.66 519.277
1338 0 53.1182 11.5779 615 48.9854 1337.26 518.028
1339 0 53.0807 7.8748 418 53.4402 1336.13 517.605
1340 0 61.2562 13.468 825 47.1673 1336.44 522.166
1341 0 60.1436 11.0735 666 50.2042 1336.71 517.965
1342 0 58.0636 10.4541 607 51.168 1336.87 515.395
1343 0 59.0473 9.92424 586 51.9846 1337.01 512.877
1344 0 66.1293 11.6136 768 50.4232 1336.67 514.978
1345 0 65.1287 10.3641 675 51.6919 1337.38 511.2
1346 0 72.1179 12.9094 931 50.4275 1336.4 511.081
1347 0 74.2869 11.9537 888 51.5 1336.1 510.909
1348 0 72.1554 11.1565 805 53.0062 1336.67 504.284
1349 1 37.1059 11.2381 417 46.7074 1336.85 526.549
1350 0 34.0912 8.71194 297 48.4882 1337.08 528.226
1351 0 38.1264 7.8948 301 49.9668 1336.56 526.625
1352 0 40.1143 10.2208 410 49.1049 1336.42 527.298
1353 0 42.0633 9.9374 418 49.6435 1336.28 525.981
1354 0 39.1099 7.36386 288 52.8681 1336.3 520.472
1355 0 43.0715 8.72967 376 51.3617 1336.5 521.247
1356 0 46.1391 10.9885 507 49.2288 1336.49 523.602
1357 0 47.028 8.7182 410 51.5585 1336.28 522.895
1358 0 48.1044 9.50017 457 50.9891 1336.51 522.628
1359 0 51.064 11.4758 586 50.2406 1336.31 519.84
1360 0 51.1259 11.9118 609 50.6946 1336.05 519.594
1361 0 54.0652 10.8203 585 51.6615 1336.27 518.491
1362 0 56.096 12.746 715 50.9259 1336.4 516.235
1363 0 57.149 11.6537 666 51.8529 1336.33 513.47
1364 0 61.1378 10.6971 654 52.5627 1336.37 514.922
1365 0 60.1896 10.5168 633 52.6446 1336.78 513.491
1366 0 63.2614 12.8989 816 49.9118 1337.85 511.151
1367 0 68.1159 9.46916 645 52.5938 1337.24 512.115
1368 0 68.2027 10.9087 744 53.4462 1336.66 506.004
1369 0 71.1717 11.3388 807 53.8538 1336.5 507.14
1370 0 75.1742 13.8345 1040 51.2096 1337.01 507.214
1371 0 74.1648 12.4587 924 52.289 1337.11 508.445
1372 0 77.221 10.5671 816 54.2304 1337.88 501.08
1373 1 38.0219 9.54714 363 52.1708 1336.33 522.788
1374 0 40.0514 11.5352 462 49.803 1336.91 522.955
1375 0 42.0758 10.0058 421 51.4537 1336.34 523.271
1376 0 43.1038 9.76713 421 51.6722 1336.61 523.425
1377 0 47.0834 9.81237 462 51.1515 1336.91 520.874
1378 0 47.0947 11.6998 551 50.6534 1336.52 520.628
1379 0 46.1002 10.3904 479 51.3194 1336.85 520.656
1380 0 51.0405 11.1872 571 51.3853 1336.87 518.109
1381 0 51.1333 7.6858 393 54.486 1336.45 517.158
1382 0 53.1957 10.7716 573 51.8185 1337.13 516.513
1383 0 56.1638 11.8404 665 51.6737 1336.73 515.471
1384 0 61.12 10.0458 614 53.3778 1336.41 512.274
1385 0 60.0767 11.5352 693 53.1284 1336.42 510.791
1386 0 63.1276 9.90058 625 54.3344 1336.76 509.87
1387 0 67.1786 9.55662 642 53.8115 1336.93 511.402
1388 0 69.052 9.94902 687 53.2314 1337.17 511.688
1389 0 69.1267 10.1408 701 52.7161 1337.67 510.669
1390 0 73.1642 10.3056 754 54.447 1337.16 505.038
1391 0 76.3459 10.9502 836 54.8912 1336.74 502.685
1392 1 35.0487 9.04456 317 52.6246 1335.84 524.811
1393 0 35.0989 10.7696 378 51.2407 1336.15 525.54
1394 0 37.0566 10.0657 373 51.815 1336.5 525.743
1395 0 40.0978 12.4695 500 48.748 1337 526.138
1396 0 39.0939 8.10867 317 52.5174 1336.91 523.659
1397 0 41.0441 9.25834 380 51.5789 1337.25 522.195
1398 0 44.077 9.93715 438 50.9726 1337.07 521.687
1399 0 45.0897 12.6415 570 49.8877 1336.98 522.733
1400 0 46.1027 7.87372 363 53.832 1336.47 520.876
1401 0 48.0401 9.38798 451 52.5388 1336.58 522.43
1402 0 46.0928 8.69985 401 53.6633 1337.06 519.581
1403 0 51.1631 12.0986 619 50.9144 1336.87 519.729
1404 0 53.0855 12.7718 678 50.8717 1336.91 518.563
1405 0 53.0849 11.9431 634 52.0662 1337.3 516.237
1406 0 59.0868 10.73 634 53.0804 1336.82 513.437
1407 0 59.1286 10.5364 623 53.6645 1336.34 515.265
1408 0 61.0991 10.8185 661 53.6309 1337.01 512.307
1409 0 64.1807 11.9195 765 52.5111 1337.15 513.099
1410 0 63.1469 10.3568 654 53.7752 1337.98 506.697
1411 0 68.1232 9.82044 669 53.9058 1338.04 507.06
1412 0 69.1632 11.5958 802 53.2893 1338 506.09
1413 0 75.1604 10.9765 825 54.0679 1337.55 506.681
1414 1 36.0736 10.1459 366 49.0382 1337.08 526.896
1415 0 39.0751 10.1087 395 50.7671 1336.21 525.549
1416 0 40.0948 10.2507 411 51.0949 1336.35 524.73
1417 0 41.0606 9.23025 379 51.9261 1336.47 523.235
1418 0 43.0312 8.38925 361 52.4404 1336.61 519.18
1419 0 44.0579 8.57962 378 52.6402 1337.01 520.577
1420 0 45.1588 11.5814 523 50.1358 1337.57 519.866
1421 0 48.0937 10.0429 483 50.0952 1337.93 520.938
1422 0 48.0805 12.3959 596 48.1544 1338.34 520.44
1423 0 51.1014 13.1895 674 49.1217 1337.77 516.168
1424 0 56.1172 8.64263 485 52.435 1337.27 518.54
1425 0 56.1072 9.35709 525 52.1829 1337.33 515.28
1426 0 57.076 12.3344 704 50.027 1338 515.768
1427 0 58.0966 9.72518 565 51.2867 1338.58 514.425
1428 0 60.0515 8.50936 511 54.2759 1337.2 512.955
1429 0 63.102 13.7713 869 50.7733 1337.5 509.891
1430 0 66.2093 9.69652 642 53.243 1337.79 511.91
1431 0 70.0582 11.5333 808 52.7314 1337.31 509.455
1432 0 71.1592 10.5679 752 54.7673 1337.3 506.59
1433 0 71.1287 9.61637 684 55.5439 1337.54 507.158
1434 0 76.2398 9.3783 715 55.8 1337.42 503.98
1435 1 35.072 7.49886 263 51.5551 1336.55 526.54
1436 0 36.0314 10.7129 386 48.6606 1337.36 526.907
1437 0 38.0824 8.71794 332 50.506 1337 525.636
1438 0 39.0837 7.9061 309 51.9515 1336.46 525.78
1439 0 41.06 9.86362 405 51.121 1336.39 524.921
1440 0 45.0712 9.85108 444 51.473 1335.93 524.673
1441 0 45.0763 11.5138 519 49.8709 1336.39 524.522
1442 0 48.0281 9.2654 445 50.9618 1336.69 521.227
1443 0 47.0944 11.6787 550 50.3655 1336.48 520.296
1444 0 50.1398 11.9067 597 49.5595 1336.3 521.968
1445 0 50.0265 10.9342 547 49.1225 1337.41 520.04
1446 0 50.1286 7.34112 368 52.1359 1337.06 518.394
1447 0 48.0537 7.78296 374 53.623 1337.16 511.898
1448 0 59.1032 12.7912 756 48.6825 1336.94 516.81
1449 0 56.2014 8.98554 505 52.0515 1337.09 513.8
1450 0 58.0997 6.78144 394 54.4848 1337.07 511.675
1451 0 61.1122 7.96895 487 53.5298 1336.96 512.497
1452 0 64.1686 11.1114 713 51.3296 1337.17 510.896
1453 0 68.1274 12.6674 863 49.54 1337.6 510.316
1454 0 68.1358 11.7266 799 51.8961 1336.31 509.118
1455 0 73.3278 8.97341 658 54.2812 1336.29 506.505
1456 0 75.154 10.4186 783 52.3282 1336.63 506.96
1457 0 74.1951 9.44806 701 53.1812 1337.29 502.559
1458 0 78.0899 8.96402 700 53.4943 1337.08 503.434
1459 0 82.1117 7.86733 646 55.5991 1336.19 498.353
1460 0 86.1071 10.4869 903 52.8007 1336.98 500.207
1461 1 44.1705 10.7311 474 49.0802 1336.33 522.612
1462 0 45.025 9.6835 436 49.2064 1336.94 519.812
1463 0 45.127 9.48435 428 50.5374 1336.31 522.348
1464 0 44.074 8.59917 379 51.0976 1336.7 520.277
1465 0 48.0326 9.57682 460 50.4522 1336.83 520.013
1466 0 48.0876 8.79645 423 51.7541 1336.39 516.676
1467 0 53.1411 12.0246 639 49.6948 1336.51 519.994
1468 0 51.3806 7.27901 374 54.2406 1336.55 512.139
1469 0 56.0441 10.8307 607 50.2273 1336.88 515.254
1470 0 56.1577 8.70762 489 52.8609 1336.4 514.699
1471 0 57.0577 8.74554 499 53.2565 1337.11 509.519
1472 0 56.0856 7.11412 399 54.3709 1337.6 506.779
1473 0 65.1605 11.9091 776 50.8209 1336.81 511.509
1474 0 64.1433 6.65697 427 55.5012 1336.67 508.443
1475 0 67.1653 9.81162 659 54.0319 1336.57 507.733
1476 0 70.151 12.131 851 52.7262 1336.56 504.76
1477 0 73.1148 11.7897 862 52.471 1336.7 509.137
1478 0 76.1762 11.9985 914 52.7199 1337.01 505.419
1479 0 77.2615 11.4417 884 52.9197 1337.78 503.383
1480 0 79.0955 10.4936 830 54.6036 1336.89 501.648
1481 1 40.1029 10.2486 411 51.0535 1335.86 524.942
1482 0 42.0417 10.4896 441 50.7982 1335.96 526.166
1483 0 42.1607 9.3452 394 52.2183 1335.82 523.261
1484 0 42.0787 10.219 430 51.8628 1336.21 519.407
1485 0 45.1014 8.66935 391 52.1253 1336.18 521.591
1486 0 41.0837 6.74233 277 53.9314 1336.12 519.881
1487 0 45.0469 10.3448 466 51.2983 1336.03 522.513
1488 0 52.1947 11.8786 620 50.3113 1336.57 519.092
1489 0 53.1656 10.8529 577 51.0052 1336.44 517.922
1490 0 53.1584 6.67815 355 54.6535 1335.88 516.932
1491 0 55.127 8.99741 496 53.8528 1336.15 513.119
1492 0 62.1186 13.5225 840 49.7345 1336.24 515.938
1493 0 65.1243 8.93676 582 53.4278 1335.95 513.531
1494 0 67.0873 14.265 957 49.4713 1336.82 512.687
1495 0 69.1886 12.0251 832 51.7031 1336.35 511.615
1496 0 71.1836 12.2922 875 52.9977 1335.27 511.01
1497 0 70.1859 11.4126 801 137.953 1334.25 509.625
1498 0 78.1817 11.0256 862 54.2726 1335.69 506.613
1499 0 80.0823 12.0751 967 52.7115 1336.8 503.984
1500 0 81.209 11.378 924 53.6082 1336.82 502.307
1501 0 84.1433 12.3718 1041 53.3497 1336.87 500.413
1502 0 87.1716 12.5844 1097 53.1249 1336.5 503.538
1503 0 90.2766 10.4789 946 53.3552 1336.68 506.58
1504 0 93.1902 11.2673 1050 54.8914 1336.29 499.732
1505 0 96.2501 14.1506 1362 52.9214 1336.46 497.361
1506 1 48.0887 11.1877 538 52.5279 1334.95 520.602
1507 0 52.1754 11.883 620 51.6516 1335.61 519.403
1508 0 52.1632 8.22419 429 52.8998 1335.85 520.054
1509 0 54.0926 11.1106 601 51.3078 1336.62 517.94
1510 0 57.0975 12.6275 721 50.8724 1336.44 513.19
1511 0 58.1008 11.067 643 51.7823 1336.71 510.519
1512 0 61.1011 13.5349 827 50.0206 1337.07 513.122
1513 0 66.2456 9.05721 600 53.8917 1336.59 510.353
1514 0 64.1485 10.7719 691 53.3415 1336.74 507.722
1515 0 69.0973 11.3608 785 52.5274 1336.84 511.204
1516 0 72.1628 10.2407 739 53.5074 1337 507.773
1517 0 73.11 11.9136 871 52.7773 1337.16 504.355
1518 0 76.1171 11.1407 848 54.4776 1336.4 504.623
1519 0 80.0696 14.5249 1163 52.0791 1336.55 503.326
1520 1 38.081 9.42729 359 53.8607 1335.23 522.15
1521 0 40.0308 10.392 416 52.5505 1335.87 522.548
1522 0 42.0297 11.5157 484 51.938 1335.85 523.256
1523 0 41.09 10.0755 414 54.3647 1335.15 520.85
1524 0 43.0995 9.60568 414 53.7367 1335.87 521.903
1525 0 45.0653 11.916 537 51.7561 1336.35 521.108
1526 0 46.1002 13.1236 605 50.762 1336.41 521.435
1527 0 49.0613 11.2309 551 51.3212 1337.29 516.991
1528 0 49.0769 10.7586 528 53.017 1337.04 515.148
1529 0 53.0982 9.79318 520 54.3212 1336.34 515.254
1530 0 55.0633 12.3857 682 52.6246 1336 516.154
1531 0 55.0695 11.3675 626 54.3546 1336.15 514.219
1532 0 59.1743 11.3225 670 53.4 1336.99 513.864
1533 0 59.1086 9.50792 562 55.6228 1336.33 513.08
1534 0 63.1134 13.04 823 53.0486 1336.53 511.966
1535 0 66.1183 12.3718 818 54.3068 1336.3 511.52
1536 0 67.1341 11.7228 787 54.2872 1336.84 510.564
1537 0 68.1914 9.32669 636 56.728 1336.71 508.256
1538 0 72.1089 12.703 916 54.4771 1336.88 506.646
1539 0 75.0931 11.9319 896 55.1808 1336.79 507.144
1540 0 78.156 13.0252 1018 55.0806 1336.58 506.338
1541 0 82.2235 11.6633 959 55.9479 1336.03 504.822
1542 0 85.0835 12.5641 1069 56.1356 1336.31 501.862
1543 0 87.1558 10.1083 881 58.4211 1336.15 498.664
1544 0 86.2422 9.56608 825 60.1115 1335.66 497.885
1545 0 90.1374 10.251 924 58.1894 1336.18 498.678
1546 0 97.1692 12.5966 1224 55.5654 1337.08 497.297
1547 1 47.1101 11.887 560 52.9375 1335.97 523.229
1548 0 47.0862 9.40828 443 55.8081 1335.46 520.251
1549 0 47.0725 10.367 488 54.6434 1336.34 520.074
1550 0 51.052 14.3579 733 51.9427 1335.82 519.52
1551 0 51.1504 10.1661 520 55.3096 1335.25 520.69
1552 0 54.0653 11.0052 595 54.7798 1335.4 520.18
1553 0 55.1496 9.32011 514 55.4864 1335.9 518.615
1554 0 60.1783 11.8315 712 53.4214 1336.43 516.591
1555 0 62.0933 12.6423 785 54.3185 1335.57 516.454
1556 0 61.081 9.3155 569 57.5202 1335.63 513.508
1557 0 65.1359 11.3455 739 56.0203 1335.19 516.34
1558 0 68.2528 15.7796 1077 52.8292 1335.19 514.12
1559 0 69.0959 13.3293 921 54.2172 1336.27 512.122
1560 0 72.1357 13.1558 949 54.294 1336.71 510.652
1561 0 74.1544 11.6649 865 55.6832 1336.44 510.538
1562 0 77.1722 12.362 954 55.9759 1336.52 505.883
1563 0 77.0917 10.8313 835 58.1281 1336.28 502.81
1564 0 80.0911 11.7491 941 56.9968 1336.53 503.218
1565 0 81.1794 11.5054 934 58.1124 1336.13 503.16
1566 0 87.1675 10.91 951 58.7592 1335.98 501.92
1567 0 87.1458 11.8422 1032 58.7093 1335.74 499.827
1568 0 91.1512 10.6307 969 59.4303 1336.02 497.647
1569 0 96.1527 13.4058 1289 56.789 1336.35 498.339
1570 0 97.0971 11.2156 1089 58.9798 1336.4 495.532
1571 0 104.092 13.6322 1419 56.2833 1336.22 497.808
1572 0 106.256 12.3758 1315 57.7749 1336.74 491.126
1573 0 107.156 12.0011 1286 58.958 1336.41 489.063
1574 0 110.258 11.6817 1288 59.3641 1335.9 487.405
1575 0 117.198 13.0974 1535 58.5739 1335.41 487.515
1576 0 122.272 13.0938 1601 57.3791 1335.74 490.467
1577 0 120.243 9.44755 1136 62.9683 1335.82 475.837
1578 0 131.294 13.1765 1730 58.3809 1335.99 484.276
1579 1 61.1035 9.72121 594 56.1498 1335.91 515.328
1580 0 65.1867 12.3031 802 55.1222 1335.48 513.708
1581 0 64.1549 10.5838 679 57.3623 1335.48 510.54
1582 0 67.142 11.6321 781 55.5032 1336.23 510.743
1583 0 69.0598 10.0203 692 57.3988 1335.57 511.656
1584 0 74.1115 10.889 807 57.5576 1335.49 507.561
1585 0 73.1421 8.95517 655 58.1542 1336.35 504.896
1586 0 75.1052 8.41486 632 58.6392 1336.63 504.983
1587 0 78.2479 10.9779 859 57.4936 1336.3 500.444
1588 1 39.1502 10.5491 413 54.1501 1335.37 522.223
1589 0 41.0857 10.9771 451 53.2772 1335.01 525.845
1590 0 43.1397 12.1002 522 53.4751 1335.09 523.343
1591 0 44.0759 10.2097 450 54.2756 1335.38 521.638
1592 0 46.0737 12.9141 595 52.5832 1335.55 517.798
1593 0 47.1225 10.4621 493 53.5984 1335.6 521.509
1594 0 50.0493 12.3678 619 52.4039 1335.83 520.69
1595 0 50.1246 13.0674 655 51.8565 1336.05 519.005
1596 0 52.0836 11.7695 613 53.7781 1335.83 518.458
1597 0 55.0623 10.1158 557 55.526 1335.64 515.372
1598 0 58.1049 11.3415 659 54.607 1335.5 515.531
1599 0 62.0951 13.0445 810 54.0877 1335.21 515.052
1600 0 63.1456 12.78 807 54.5936 1334.99 513.944
1601 0 63.1247 10.3921 656 56.1844 1335.58 512.3
1602 0 66.1257 11.4328 756 56.8148 1334.71 510.464
1603 0 71.1362 11.1055 790 56.176 1335.6 509.911
1604 0 72.115 12.4523 898 55.6381 1335.41 507.954
1605 0 73.1211 9.92873 726 58.3581 1335.46 505.755
1606 0 77.1517 11.0043 849 57.1955 1336.22 503.09
1607 0 81.1312 12.8681 1044 56.1561 1335.9 503.979
1608 0 85.0885 13.4566 1145 55.8865 1335.71 501.504
1609 0 83.1768 9.35357 778 58.5411 1336.18 505.12
1610 1 40.1256 12.411 498 52.753 1335.52 524.606
1611 0 43.1004 13.9674 602 52.3704 1335.23 523.733
1612 0 45.1499 9.78961 442 54.6267 1335.4 523.324
1613 0 46.1128 10.496 484 53.9835 1335.71 523.227
1614 0 46.0526 11.0092 507 53.7318 1335.91 522.635
1615 0 48.1255 11.5531 556 53.5827 1336.07 518.205
1616 0 53.1088 13.0487 693 53.2179 1335.42 520.014
1617 0 53.1619 14.6533 779 52.0334 1335.9 518.245
1618 0 54.0956 11.9603 647 53.8053 1335.91 519.787
1619 0 58.1139 12.6132 733 53.3179 1336.23 517.349
1620 0 57.0987 12.2945 702 54.5328 1336.64 512.681
1621 0 62.1867 10.6936 665 56.7218 1335.77 510.952
1622 0 63.1135 8.68276 548 58.2318 1335.68 513.301
1623 0 67.1764 13.1892 886 55.1986 1335.68 510.335
1624 0 73.1847 12.202 893 54.785 1336.22 510.985
1625 0 72.1606 13.9688 1008 54.63 1336.47 506.368
1626 0 74.1349 11.8028 875 56.1771 1336.89 504.509
1627 0 77.1513 11.8728 916 56.0469 1336.82 503.865
1628 0 79.207 12.6883 1005 54.6109 1336.96 506.929
1629 0 84.1401 14.6185 1230 54.0724 1336.62 502.06
1630 0 85.2749 12.3718 1055 56.8701 1335.91 503.051
1631 1 35.0932 8.86211 311 54.7492 1334.89 526.035
1632 0 35.0999 10.4274 366 53.5219 1335.56 524.59
1633 0 40.126 11.9623 480 51.9708 1334.98 527.019
1634 0 38.1307 12.2998 469 51.6716 1335.58 527.881
1635 0 38.0536 11.6415 443 53.1874 1335.52 526.228
1636 0 40.0233 11.0935 444 54.3874 1335.1 524.77
1637 0 41.1447 7.80173 321 57.405 1335.07 522.769
1638 0 45.1343 10.1918 460 55.7609 1335.18 522.511
1639 0 46.0906 10.2841 474 55.8945 1335.4 521.816
1640 0 46.062 8.94447 412 55.9248 1335.43 523.956
1641 0 47.1688 10.6426 502 54.6374 1335.87 523.456
1642 0 49.051 13.2107 648 53.5633 1335.95 519.931
1643 0 49.1811 12.3828 609 55.2496 1335.22 522.383
1644 0 54.119 13.9692 756 52.0992 1336.01 522.901
1645 0 50.2398 10.1513 510 58.0137 1335.57 517.427
1646 0 55.1348 11.0094 607 55.5865 1335.83 520.787
1647 0 58.1339 13.0217 757 55.7622 1335.58 514.037
1648 0 58.1838 12.1683 708 54.5876 1336.2 517.403
1649 0 60.104 9.99934 601 57.8586 1335.94 512.925
1650 0 65.1028 11.4434 745 56.0174 1336.51 511.732
1651 0 64.1163 11.947 766 56.8982 1335.79 510.681
1652 0 69.0815 12.8254 886 55.9819 1336.06 507.076
1653 0 71.1401 9.53048 678 58.8938 1335.62 508.097
1654 0 75.0817 11.4808 862 57.1659 1335.78 508.608
1655 0 79.229 13.6187 1079 55.228 1335.56 507.918
1656 0 80.1267 12.2556 982 56.3697 1336.12 505.231
1657 0 82.0911 12.3887 1017 56.9813 1336.32 501.215
1658 0 84.1854 12.5675 1058 57.0529 1336.23 504.519
1659 0 90.2074 11.0745 999 58.4404 1335.32 500.597
1660 0 94.0847 13.9024 1308 56.5894 1335.45 501.196
1661 0 97.1413 13.7532 1336 56.1909 1335.2 500.844
1662 0 100.27 12.4862 1252 58.1773 1335.09 494.381
1663 1 47.0745 13.7229 646 54.4149 1335.19 520.175
1664 0 49.1159 13.1933 648 54.7531 1335.13 521.071
1665 0 52.1247 12.1439 633 55.0727 1335.55 517.223
1666 0 54.1354 12.8382 695 53.4964 1335.57 522.967
1667 0 50.0923 10.1413 508 58.3996 1335.39 514.406
1668 0 55.0967 12.2875 677 55.4564 1336.3 515.902
1669 0 55.2139 12.4787 689 56.3977 1336 515.723
1670 0 61.2324 13.1956 808 55.8255 1335.99 514.035
1671 0 60.117 12.0432 724 57.3094 1335.98 512.21
1672 0 64.1272 11.945 766 58.423 1335.67 510.791
1673 0 64.1597 14.573 935 55.3155 1336.03 513.996
1674 1 0 0 0 -nan -nan -nan
1675 1 69.2256 12.2065 845 57.5373 1336.21 513.556
1676 0 72.1042 12.3155 888 59.2286 1335.61 505.848
1677 0 73.1842 12.448 911 59.0187 1336.37 504.164
1678 0 77.0982 14.2545 1099 56.858 1336.49 506.256
1679 0 78.1711 13.0355 1019 58.9549 1336.78 500.923
1680 0 82.1195 14.3815 1181 58.8899 1335.81 500.978
1681 0 82.2124 12.0906 994 61.6891 1335.06 500.238
1682 0 87.1359 12.6928 1106 60.8951 1335.21 501.436
1683 0 92.1642 15.5483 1433 57.6322 1335.89 499.42
1684 0 94.3731 13.5526 1279 59.7365 1335.91 496.364
1685 1 42.1124 9.78334 412 59.5801 1334.59 524.934
1686 0 39.0238 9.19952 359 60.5599 1334.72 523.373
1687 0 43.0855 10.8389 467 58.0664 1335.42 524.163
1688 0 45.0645 11.3615 512 57.4414 1335.06 525.455
1689 0 47.1617 12.0013 566 57.7314 1335.41 519.852
1690 0 47.0507 13.0072 612 57.3905 1335.3 519.039
1691 0 54.1577 13.3684 724 55.9213 1335.36 520.363
1692 0 52.197 13.1042 684 57.6974 1335.4 518.208
1693 0 51.0728 10.5536 539 59.3822 1335.84 516.497
1694 0 54.0859 12.1473 657 59.6514 1335.45 512.986
1695 0 56.0631 10.9519 614 59.8844 1335.53 514.787
1696 0 60.1388 9.69424 583 60.7873 1335.45 514.382
1697 0 62.1647 11.5982 721 59.9223 1335.59 512.024
1698 0 67.2092 13.6291 916 58.2675 1334.82 514.917
1699 0 68.2151 13.047 890 58.3562 1335.38 512.813
1700 0 70.1017 13.7942 967 57.6329 1336.54 509.885
1701 0 72.2384 12.4034 896 59.7433 1335.99 508.311
1702 0 75.3644 12.2206 921 59.2356 1336.64 506.553
1703 0 85.1901 11.2572 959 59.6486 1335.85 507.576
1704 0 82.1348 12.4673 1024 59.9023 1335.54 504.108
1705 0 85.1352 11.4054 971 61.2554 1335.7 502.479
1706 0 88.2445 12.5334 1106 59.6474 1335.54 505.031
1707 0 91.2371 14.4349 1317 58.6894 1336.03 498.444
1708 0 95.1979 11.8805 1131 61.046 1335.87 496.07
1709 0 104.286 10.9411 1141 61.9413 1335.15 495.459
1710 0 108.225 14.4422 1563 57.8074 1335.62 498.69
1711 0 111.262 13.6794 1522 58.6334 1335.95 495.963
1712 1 122.194 10.3851 1269 47.4917 1335.01 502.711
1713 0 113.128 11.9157 1348 62.0942 1335.47 490.249
1714 0 119.175 14.3822 1714 59.7841 1335.84 487.607
1715 1 56.1469 11.7193 658 58.5912 1335.39 517.447
1716 0 56.0383 10.0646 564 61.8386 1335.19 511.113
1717 0 60.0611 11.9378 717 58.6444 1335.98 514.202
1718 0 63.1499 10.5622 667 60.4828 1335.17 513.808
1719 0 71.2066 11.4175 813 59.0492 1335.51 512.538
1720 0 70.1524 11.7031 821 59.5615 1335.82 507.208
1721 0 69.1362 10.8626 751 61.1225 1334.92 509.136
1722 0 72.1056 11.9408 861 59.9048 1335.37 505.431
1723 0 76.2593 12.5624 958 58.9071 1335.42 505.936
1724 0 85.306 12.6486 1079 57.2799 1335.46 507.531
1725 0 81.156 11.2746 915 60.5661 1334.83 500.513
1726 0 83.094 11.4449 951 58.4858 1335.58 505.975
1727 0 88.2307 13.2834 1172 57.2398 1335.73 501.222
1728 0 88.1725 14.4263 1272 55.3373 1336.14 504.425
1729 0 90.2746 11.3099 1021 59.7277 1335.75 496.483
1730 0 101.288 13.4073 1358 55.7401 1336.62 498.158
1731 1 48.1445 8.95222 431 54.29 1336 523.891
1732 0 47.1681 9.49795 448 54.8817 1336.33 520.58
1733 0 45.3304 6.9931 317 58.0221 1335.54 519.23
1734 0 50.1652 9.34911 469 55.9062 1335.33 521.128
1735 0 53.2338 11.9661 637 53.7504 1336.13 516.895
1736 0 53.1423 11.1399 592 55.3936 1335.23 519.65
1737 0 55.1116 11.2318 619 55.3102 1335.18 519.032
1738 0 57.1125 9.92777 567 57.231 1335.22 513.042
1739 0 60.2584 14.1391 852 52.6115 1335.76 514.597
1740 0 61.1139 11.814 722 55.8421 1335.57 512
1741 0 62.1318 12.8597 799 55.2015 1335.93 512.222
1742 0 69.2501 10.2238 708 56.3602 1336.27 511.048
1743 0 73.3304 12.6687 929 53.6082 1336.07 514.433
1744 0 69.1543 11.6262 804 56.3483 1336.27 509.915
1745 0 78.3148 13.7011 1073 53.3933 1336.63 509.709
1746 0 76.1907 13.4006 1021 55.574 1335.99 507.033
1747 0 76.1928 12.5209 954 57.4864 1335.35 505.272
1748 0 85.1938 13.8977 1184 54.9265 1335.89 506.657
1749 1 37.0343 13.285 492 52.9898 1335.08 526.791
1750 0 36.0656 9.455 341 57.1642 1334.92 524.217
1751 0 41.1033 10.5344 433 55.6051 1335.2 523.748
1752 0 40.0805 11.7014 469 54.548 1335.84 522.913
1753 0 42.0591 10.937 460 54.1217 1336.43 522.461
1754 0 44.1659 10.8228 478 55.1402 1336.4 520.502
1755 0 46.1535 10.0101 462 56.2987 1336.13 519.266
1756 0 46.0459 13.8992 640 53.2125 1335.87 521.93
1757 0 49.0558 12.0883 593 56.3137 1335.25 516.798
1758 0 53.0347 10.9739 582 56.5979 1335.06 517.314
1759 0 54.0549 12.2098 660 56.3667 1335.13 514.894
1760 0 55.2112 10.0704 556 57.8327 1335.27 515.574
1761 0 58.0697 11.5379 670 56.6582 1335.96 512.019
1762 0 62.097 12.9958 807 54.8897 1335.8 514.087
1763 0 62.0532 11.9253 740 55.5054 1335.99 513.959
1764 0 66.1519 9.37237 620 58.1661 1335.52 513.048
1765 0 70.173 13.2245 928 55.2284 1335.85 510.121
1766 0 69.2185 10.7919 747 58.4859 1335.6 507.74
1767 0 75.2566 15.4671 1164 53.707 1335.69 507.936
1768 0 77.1107 11.6975 902 57.5654 1335.29 506.409
1769 0 80.2006 14.4263 1157 54.5151 1336.45 504.474
1770 0 81.0628 11.5466 936 58.2607 1335.56 500.632
1771 0 87.1345 12.2454 1067 57.1003 1335.67 503.071
1772 1 45.0811 13.4646 607 52.8814 1334.9 521.638
1773 0 44.1055 12.8329 566 54.3198 1334.51 522.873
1774 0 46.0435 13.2049 608 53.7812 1335.06 520.332
1775 0 46.2555 12.0851 559 53.5152 1335.19 523.476
1776 0 51.0617 13.6502 697 52.0244 1335.69 521.77
1777 0 50.1515 10.907 547 54.7495 1336.29 518.585
1778 0 53.0531 10.9136 579 55.5838 1335.41 515.34
1779 0 56.2006 13.007 731 53.2312 1335.84 518.022
1780 0 56.0761 13.232 742 52.965 1336.5 514.104
1781 0 58.1627 11.6054 675 55.0044 1336.41 511.437
1782 0 61.1695 13.8958 850 52.5529 1336.21 513.227
1783 0 64.102 10.6549 683 55.4583 1335.55 513.133
1784 0 66.1127 11.9644 791 54.6258 1335.68 508.542
1785 0 67.2229 11.99 806 54.2841 1336.58 508.408
1786 0 71.1377 11.8924 846 55.0697 1336.2 505.955
1787 0 73.1553 10.4025 761 56.6452 1336.19 502.396
1788 0 77.0847 11.9479 921 54.5679 1336.39 504.303
1789 0 78.1335 12.5426 980 54.3388 1336.41 498.391
1790 0 80.1708 8.98083 720 57.9417 1335.82 495.992
1791 0 84.145 11.8605 998 55.502 1335.73 497.975
1792 1 36.0424 5.65999 204 56.6226 1335 518.373
1793 0 36.0814 8.64711 312 54.3558 1335.11 520.218
1794 0 38.0213 8.15331 310 54.3387 1335.25 520.858
1795 0 42.138 14.2627 601 49.1098 1336.27 520.985
1796 0 45.0999 13.5034 609 49.6946 1335.96 517.995
1797 0 48.0358 12.345 593 50.2664 1335.73 518.046
1798 0 45.0993 9.1354 412 53.7063 1335.11 517.289
1799 0 50.0673 11.4446 573 51.0803 1335.6 517.021
1800 0 52.0918 12.9195 673 50.3596 1335.91 512.328
1801 0 54.0872 11.0007 595 51.9815 1335.93 510.755
1802 0 54.0776 10.0596 544 53.8732 1335.35 509.384
1803 0 56.048 12.3644 693 51.5267 1335.73 507.179
1804 0 61.1552 9.25514 566 52.3852 1336.39 509.868
1805 0 61.1738 12.1457 743 51.1669 1336.28 505.704
1806 0 64.2498 9.36968 602 53.6096 1335.58 507.372
1807 0 66.1972 10.9975 728 53.1058 1335.38 504.962
1808 0 66.0924 9.63802 637 54.5353 1335.44 501.075
1809 0 71.2008 12.8088 912 50.9956 1336.06 506.814
1810 0 74.1006 9.46012 701 54.3994 1335.85 500.469
1811 0 77.1132 11.7619 907 53.0022 1335.65 499.679
1812 0 80.1477 11.5786 928 52.8675 1336.16 497.909
1813 0 84.1215 11.1386 937 54.2327 1335.32 497.476
1814 0 88.2253 11.8787 1048 53.0592 1335.38 500.106
1815 0 91.1846 12.6118 1150 52.8565 1335.78 493.312
1816 0 94.2355 12.9675 1222 52.4959 1336.2 490.446
1817 0 96.2944 15.193 1463 51.3896 1336.35 489.104
1818 0 101.138 13.1504 1330 52.3594 1336.26 492.36
1819 0 101.173 11.4161 1155 54.1628 1336.7 485.261
1820 0 107.199 12.5747 1348 54.0452 1335.5 486.107
1821 1 58.1078 12.7349 740 52.3351 1334.67 512.527
1822 0 59.073 13.3394 788 51.217 1335.81 510.547
1823 0 60.0585 11.6387 699 52.7053 1335.89 510.014
1824 0 63.1377 12.4015 783 52.1086 1336.17 509.949
1825 0 67.1474 12.0481 809 52.1866 1335.93 510.917
1826 0 70.1094 12.9227 906 52.3731 1335.96 507.694
1827 0 72.1365 12.0605 870 53.4345 1335.74 506.633
1828 0 74.2355 11.9619 888 53.2196 1336.46 502.358
1829 0 76.201 12.2046 930 53.6806 1335.64 502.292
1830 0 78.0903 12.3831 967 54.031 1335.79 501.253
1831 0 80.1305 12.0678 967 54.0548 1336.13 500.99
1832 0 86.0923 14.1941 1222 51.5532 1336.74 501.579
1833 0 90.3563 12.5724 1136 54.0423 1336.1 496.772
1834 0 93.1301 12.3591 1151 54.4049 1335.83 496.4
1835 0 94.2248 11.3983 1074 56.405 1335.34 491.625
1836 1 47.063 13.9813 658 51.3815 1335.16 520.085
1837 0 48.1385 12.1109 583 53.3688 1334.89 519.925
1838 0 49.1331 11.418 561 52.9412 1335.94 518.927
1839 0 53.2193 11.1426 593 53.6408 1335.49 516.983
1840 0 51.2534 10.0091 513 55.7154 1334.87 517.355
1841 0 57.05 11.709 668 53.8278 1334.92 516.964
1842 0 57.1848 11.1043 635 54.7622 1334.96 513.78
1843 0 59.1524 12.5439 742 54.5809 1334.49 513.69
1844 0 62.0614 13.1483 816 54.1716 1334.46 512.153
1845 0 61.134 13.2005 807 54.0657 1335.12 511.359
1846 0 65.1862 12.8095 835 54.3868 1335.48 509.435
1847 0 69.0802 14.2443 984 52.8171 1335.4 511.535
1848 0 73.195 15.7114 1150 52.5513 1334.67 508.181
1849 0 75.1011 13.9412 1047 53.8959 1334.56 510.109
1850 0 75.1835 12.3697 930 55.471 1335.5 504.456
1851 0 80.1026 13.9446 1117 53.9902 1335.68 504.558
1852 0 82.2504 14.0668 1157 54.2748 1335.32 503.398
1853 0 86.1753 12.1497 1047 56.7641 1335.07 498.999
1854 0 88.0841 13.6688 1204 54.2384 1335.66 503.947
1855 0 90.119 11.4404 1031 57.7439 1335.04 496.678
1856 0 95.0685 15.999 1521 53.1933 1334.84 498.688
1857 0 98.1506 14.3147 1405 55.2975 1334.27 497.658
1858 1 44.0731 12.2751 541 54.1571 1334.09 521.712
1859 0 49.1964 11.139 548 53.4416 1334.49 521.903
1860 0 51.1237 13.2228 676 52.7811 1334.73 519.683
1861 0 49.1388 11.498 565 55.2708 1334.2 516.802
1862 0 54.1293 12.9874 703 53.7696 1334.44 516.252
1863 0 53.2142 8.81344 469 56.6503 1334.76 517.889
1864 0 53.025 10.6176 563 55.5027 1335.26 516.757
1865 0 55.0873 13.1246 723 53.1452 1335.4 518.091
1866 0 61.2063 11.5021 704 54.4943 1335.37 515.962
1867 0 60.1888 12.1783 733 54.7667 1334.65 516.296
1868 0 63.0904 14.2652 900 53.2044 1334.87 514.6
1869 0 64.1103 11.5114 738 55.8144 1334.79 509.954
1870 0 67.1227 12.9464 869 54.9171 1335.56 507.585
1871 0 71.4387 13.7181 980 54.2622 1335.1 509.231
1872 0 73.1141 13.1575 962 55.5852 1334.52 507.044
1873 0 78.2574 14.9251 1168 53.0753 1335 507.495
1874 0 76.1975 11.6408 887 57.4758 1335.14 500.986
1875 0 84.1926 11.2718 949 56.2402 1335.29 505.453
1876 0 84.308 13.6405 1150 54.6122 1335.69 502.86
1877 0 90.1313 12.4374 1121 55.8849 1335.06 501.564
1878 0 88.1416 12.253 1080 56.5824 1335.32 499.637
1879 0 95.3468 13.6659 1303 55.5572 1335.06 497.928
1880 0 97.1802 12.2762 1193 57.0595 1335.42 495.329
1881 0 100.32 11.4234 1146 57.9188 1335.01 493.522
1882 0 104.275 13.5219 1410 56.0638 1335.54 493.194
1883 0 107.2 12.2668 1315 56.4836 1335.53 495.332
1884 0 111.386 11.5814 1290 57.6822 1335.51 490.674
1885 0 114.134 12.1173 1383 58.0998 1334.83 486.423
1886 0 119.225 12.8497 1532 57.7552 1334.46 486.52
1887 1 57.0401 11.9565 682 55.0601 1334.25 519.095
1888 0 60.2102 13.4861 812 54.6022 1334.47 515.211
1889 0 62.2177 11.9259 742 55.7628 1334.83 513.776
1890 0 65.1398 12.3734 806 54.2419 1335.42 514.192
1891 0 67.189 12.13 815 55.5055 1334.94 512.33
1892 0 69.1606 12.5794 870 56.2333 1334.48 509.414
1893 0 70.1198 11.3092 793 55.5687 1335.09 512.889
1894 0 73.1668 13.025 953 56.7167 1335.46 506.289
1895 0 75.2105 11.2085 843 58.191 1335.45 506.005
1896 0 78.1206 10.5606 825 58.0958 1335.2 507.844
1897 0 79.1243 10.7426 850 59.0965 1335.74 499.836
1898 0 85.102 10.9868 935 58.0428 1335.48 501.341
1899 0 88.3414 13.3346 1178 56.1129 1335.94 499.787
1900 0 91.2227 13.2423 1208 56.75 1336.14 495.026
1901 0 94.2578 13.5904 1281 56.2272 1336.36 493.398
1902 0 98.2458 12.9166 1269 57.5477 1335.91 494.08
1903 0 103.157 13.019 1343 57.723 1335.51 492.395
1904 0 104.098 12.517 1303 57.5058 1335.09 496.413
1905 0 110.18 11.1182 1225 59.2318 1334.88 494.241
1906 1 49.1742 11.5101 566 56.0671 1335.38 516.249
1907 0 55.2292 11.751 649 56.2388 1335.03 516.851
1908 0 52.0778 13.7679 717 56.0014 1334.89 516.086
1909 0 56.1475 10.9889 617 57.1086 1335.31 514.9
1910 0 57.1237 12.4117 709 56.9492 1335.2 513.481
1911 0 64.1489 10.5692 678 57.8628 1335.73 512.077
1912 0 66.0921 12.649 836 56.0766 1335.88 513.33
1913 0 66.29 13.1392 871 57.0551 1334.87 513.03
1914 0 67.1948 13.8404 930 57.2258 1335.38 508.495
1915 0 69.4062 12.5493 871 57.4501 1335.98 508.844
1916 0 75.3223 12.6921 956 57.3724 1336.07 506.569
1917 0 73.1426 10.9922 804 60.1182 1335.45 505.601
1918 0 80.1886 13.8174 1108 57.8556 1335.26 503.314
1919 0 82.2263 13.1588 1082 56.9824 1335.6 506.648
1920 0 85.2323 13.4808 1149 57.8024 1335.91 500.182
1921 0 91.1972 15.6364 1426 55.8689 1335.29 502.142
1922 0 91.1805 14.3013 1304 57.5529 1335.18 502.133
1923 0 94.2724 13.0367 1229 59.2848 1335.54 495.668
1924 0 99.1831 14.3976 1428 57.7941 1335.49 496.042
1925 1 49.124 11.3997 560 56.7393 1335.38 519.823
1926 0 49.2227 10.483 516 57.2248 1335.53 520.349
1927 0 53.135 14.6419 778 53.0784 1336.36 518.762
1928 0 54.25 11.6498 632 55.9668 1336.27 517.93
1929 0 54.1989 11.7715 638 57.2304 1335.55 518.429
1930 0 60.1051 12.6112 758 57.0132 1334.64 519.332
1931 0 61.2146 12.7911 783 57.9412 1334.64 515.783
1932 0 62.2417 13.6082 847 57.2279 1334.34 517.685
1933 0 61.3074 10.9775 673 59.9391 1335.22 514.826
1934 0 68.1312 13.1071 893 57.5028 1335.17 514.303
1935 0 69.2278 12.5817 871 58.0195 1335.19 513.535
1936 0 71.1457 12.7766 909 58.4048 1335.22 511.167
1937 0 74.1557 13.4042 994 58 1335.33 509.793
1938 0 75.2391 12.427 935 60.0353 1334.42 508.745
1939 0 79.1222 15.2928 1210 56.6132 1335.02 509.46
1940 0 81.1301 12.2396 993 60.5186 1333.89 509.413
1941 0 85.2945 13.131 1120 59.8964 1333.97 505.411
1942 0 88.1834 14.209 1253 58.162 1334.28 506.894
1943 0 91.2692 14.3312 1308 57.8456 1334.56 507.757
1944 0 91.2289 13.1208 1197 60.2874 1334.18 499.905
1945 0 95.0846 13.3565 1270 60.1252 1334.13 498.066
1946 0 100.242 14.9238 1496 58.373 1334.08 500.691
1947 0 105.198 15.0953 1588 58.4257 1334.07 496.852
1948 1 52.1039 13.7418 716 57.3575 1332.84 520.933
1949 0 55.148 12.1673 671 58.231 1332.9 523.954
1950 0 56.2016 14.5014 815 57.1963 1332.59 521.075
1951 0 57.1509 13.5606 775 58.28 1332.27 521.924
1952 0 60.2506 13.1783 794 59.1272 1332.17 520.583
1953 0 63.2406 13.6463 863 58.4751 1332.41 519.287
1954 0 64.4173 14.375 926 58.7365 1332.29 517.295
1955 0 64.4952 12.249 790 61.2709 1332.54 515.847
1956 0 66.2266 15.2658 1011 58.8022 1332.74 514.779
1957 0 67.1596 13.4307 902 59.9878 1333.09 515.796
1958 0 72.2789 13.268 959 60.6038 1332.8 512.282
1959 0 74.1804 13.9255 1033 59.3224 1333.32 513.919
1960 0 76.2259 14.2865 1089 60.0321 1333.34 507.476
1961 0 80.2152 15.3712 1233 58.0057 1333.34 509.464
1962 0 84.2231 15.542 1309 58.0153 1333.17 507.099
1963 0 86.1647 12.8359 1106 60.5515 1333.17 506.955
1964 0 90.2328 16.0696 1450 58.1214 1333.25 503.608
1965 0 93.1726 14.9722 1395 58.8108 1333.19 504.205
1966 0 95.0965 12.9237 1229 60.5053 1334.65 495.958
1967 0 98.3257 14.7062 1446 58.5221 1334.71 496.953
1968 1 47.196 12.2256 577 58.9515 1333.78 520.258
1969 0 49.2474 11.1275 548 59.6478 1333.51 521.577
1970 0 52.1313 14.1757 739 56.9648 1333.65 521.181
1971 0 54.2172 11.583 628 58.3646 1334.05 521.041
1972 0 57.3831 14.4816 831 56.556 1334.32 517.303
1973 0 56.1826 13.5807 763 58.2556 1334.21 516.958
1974 0 59.1975 13.1087 776 57.7552 1334.48 517.311
1975 0 60.2631 11.6655 703 59.7368 1334.55 514.627
1976 0 60.1893 11.2811 679 60.2577 1334.55 512.281
1977 0 66.279 13.7148 909 57.9538 1334.59 512.779
1978 0 69.4848 13.1684 915 58.8842 1334.07 512.382
1979 0 69.13 12.9032 892 59.7971 1334.19 510.302
1980 0 70.2096 12.0211 844 60.2441 1334.02 511.954
1981 0 73.2218 12.1002 886 60.6727 1334.56 507.933
1982 0 74.2437 11.9875 890 60.2506 1334.8 507.4
1983 0 77.2253 13.8685 1071 58.8133 1335.11 504.712
1984 0 81.1787 14.0431 1140 58.7719 1335.01 504.019
1985 0 82.3317 14.5509 1198 58.9374 1334.67 501.751
1986 0 85.0802 12.3413 1050 61.0276 1334.47 500.684
1987 0 87.3114 13.6866 1195 60.0301 1334.78 497.808
1988 0 93.4125 13.4993 1261 59.0952 1334.92 498.353
1989 0 94.4782 14.9558 1413 58.4296 1334.59 498.812
1990 0 96.3443 14.7907 1425 58.8674 1335.24 495.481
1991 0 100.229 14.1475 1418 59.7567 1334.95 494.148
1992 0 104.159 11.3384 1181 62.6173 1334.5 493.163
1993 0 107.304 12.842 1378 61.09 1334.41 491.991
1994 0 112.139 16.0515 1800 58.0961 1335.22 488.158
1995 0 116.264 13.2027 1535 59.8984 1335.3 488.257
1996 0 118.316 13.0498 1544 60.5356 1335.6 484.139
1997 0 122.265 10.42 1274 62.5275 1335.62 482.916
1998 0 128.219 13.5471 1737 60.9177 1334.74 478.541
1999 0 133.398 12.6164 1683 60.8039 1335.49 480.075
2000 1 46.2426 10.4233 482 58.2178 1334.51 518.784
2001 0 46.2724 10.006 463 58.1577 1334.29 520.281
2002 0 50.3072 11.9267 600 56.3767 1334.68 519.73
2003 0 51.119 11.2483 575 58.273 1334.21 517.461
2004 0 51.1077 10.3702 530 59.2151 1333.97 516.498
2005 0 55.3241 11.6586 645 56.8186 1335.09 516.716
2006 0 55.1695 11.1656 616 58.6721 1334.88 513.42
2007 0 58.1019 12.8223 745 57.0389 1334.76 511.745
2008 0 59.0969 10.7112 633 57.316 1334.98 515.752
2009 0 62.2556 11.6937 728 57.3159 1335 510.596
2010 0 63.2603 11.5238 729 58.037 1334.4 512.993
2011 0 66.1542 12.7732 845 58.1266 1334.28 507.33
2012 0 69.1762 9.94561 688 60.7238 1333.95 507.84
2013 0 71.2552 12.5885 897 57.3144 1334.8 507.857
2014 0 75.2713 12.5014 941 57.3815 1334.09 508.627
2015 0 76.2545 13.0615 996 57.5261 1334.53 502.412
2016 0 80.2714 11.8598 952 57.9811 1334.61 503.671
2017 0 82.2401 12.1717 1001 58.6783 1334.23 500.37
2018 1 39.0658 10.8791 425 57.0353 1333.47 522.932
2019 0 42.0838 11.3108 476 54.9874 1334.24 523.662
2020 0 42.1819 9.55387 403 57.2481 1333.8 522.471
2021 0 44.2735 9.17027 406 57.9236 1333.91 520.591
2022 0 45.1093 12.3921 559 55.9606 1334.36 519.76
2023 0 46.1883 12.0377 556 56.1223 1334.06 517.345
2024 0 48.1955 11.4119 550 56.5345 1334.15 518.569
2025 0 49.2962 11.5425 569 56.4148 1334.54 516.951
2026 0 52.2408 12.2127 638 55.1536 1334.82 517.02
2027 0 55.3751 12.6049 698 56.1519 1333.95 516.284
2028 0 57.1485 13.4912 771 55.2179 1333.27 518.307
2029 0 58.3524 12.3045 718 55.9262 1333.21 517.66
2030 0 61.3692 13.4106 823 55.4933 1333.78 512.848
2031 0 62.283 12.5877 784 55.7143 1334.9 510.186
2032 0 66.1924 16.8751 1117 52.1423 1334.24 513.365
2033 0 67.3477 12.4726 840 56.3393 1334.5 509.861
2034 0 68.2085 13.9572 952 54.5546 1334.94 510.064
2035 0 72.1328 13.5306 976 55.1312 1334.47 510.925
2036 0 76.2715 13.5175 1031 55.3288 1333.93 507.541
2037 0 80.3142 14.0075 1125 55.1716 1333.47 507.314
2038 0 80.2074 14.475 1161 54.7321 1333.68 507.848
2039 0 86.2 15.2436 1314 53.137 1334.56 505.881
2040 0 82.2066 9.85322 810 58.737 1334.52 499.894
2041 0 91.2229 14.5029 1323 54.0265 1334.04 503.56
2042 0 92.3482 13.7848 1273 54.7031 1334.51 499.221
2043 0 101.274 18.8598 1910 49.9487 1333.94 501.014
2044 1 50.2692 11.518 579 54.6287 1333.57 518.611
2045 0 49.2371 9.11915 449 56.5969 1333.47 519.579
2046 0 54.2809 14.0012 760 52.721 1332.96 519.958
2047 0 57.3706 15.3389 880 50.4625 1333.81 520.693
2048 0 59.223 13.407 794 52.7229 1333.43 518.234
2049 0 60.2123 14.1998 855 52.3275 1334.36 514.034
2050 0 61.2571 12.0476 738 53.8713 1333.86 515.123
2051 0 63.3629 15.1035 957 50.6917 1334.53 516.145
2052 0 64.2052 11.619 746 55.2587 1333.51 511.727
2053 0 68.3239 12.3968 847 54.3353 1333.7 511.313
2054 0 69.118 10.9812 759 55.8999 1333.52 511.1
2055 0 73.2553 12.5452 919 54.4984 1333.52 508.674
2056 0 77.1711 14.2929 1103 52.369 1334.07 508.393
2057 0 82.3388 12.2421 1008 54.4286 1333.18 508.04
2058 0 79.2802 11.7306 930 55.1237 1334.22 505.266
2059 0 82.4166 14.3418 1182 53.9678 1333.26 501.844
2060 0 88.3152 12.931 1142 55.8082 1333.17 505.949
2061 0 89.2143 13.2266 1180 56.6729 1332.71 502.82
2062 0 94.3306 15.3185 1445 54.519 1333.16 501.291
2063 0 97.2808 15.3576 1494 54.0361 1334.11 498.08
2064 0 100.344 13.1248 1317 56.5247 1333.25 498.101
2065 1 46.1455 9.23166 426 57.7793 1332.71 523.026
2066 0 45.1178 10.1512 458 56.9148 1333.18 520.43
2067 0 51.1079 11.4659 586 54.8754 1334.06 518.362
2068 0 50.1598 12.6795 636 55.4969 1333 518.939
2069 0 53.2508 13.3331 710 54.5437 1333.26 518.662
2070 0 57.1055 13.6589 780 54.0603 1332.85 519.431
2071 0 59.2195 11.3138 670 56.4866 1332.73 517.367
2072 0 61.1463 13.4268 821 55.2619 1332.77 515.736
2073 0 63.3133 13.9623 884 54.7025 1332.71 514.627
2074 0 64.4847 12.2044 787 56.7421 1332.67 514.362
2075 0 67.32 14.5425 979 55.3524 1332.06 512.471
2076 0 68.2316 12.9559 884 57.0634 1332.55 508.621
2077 0 72.1992 13.2411 956 56.2699 1332.41 511.935
2078 0 74.3843 14.4251 1073 55.7372 1332.94 507.687
2079 0 73.2469 12.6695 928 57.7694 1333.22 507.695
2080 0 77.2846 12.3181 952 57.9118 1333.44 503.654
2081 0 82.3287 15.6325 1287 54.4118 1333.13 506.412
2082 0 80.1169 11.0089 882 59.1508 1333.62 500.888
2083 0 86.1987 12.8192 1105 57.4262 1333.27 502.092
2084 0 93.388 13.5563 1266 56.2212 1333.19 500.34
2085 0 96.3119 13.7885 1328 56.3426 1333.35 495.352
2086 0 98.3454 13.0154 1280 57.1203 1333.22 494.289
2087 0 103.126 15.1077 1558 55.7311 1332.92 492.703
2088 0 103.145 10.6161 1095 59.8776 1332.7 490.994
2089 0 110.29 14.0539 1550 56.2536 1333.01 491.883
2090 0 114.379 16.83 1925 53.947 1333.41 487.557
2091 0 114.287 15.3824 1758 55.2105 1333.79 488.952
2092 1 44.1124 13.3749 590 52.8966 1332.43 524.146
2093 0 44.1994 11.7422 519 54.0944 1332.87 522.748
2094 0 43.1174 8.55803 369 57.8997 1332.47 520.789
2095 0 47.1108 11.3774 536 54.1269 1333.21 523.424
2096 0 51.2371 12.3153 631 53.4913 1332.74 522.906
2097 0 49.2133 11.9277 587 54.8109 1332.94 521.68
2098 0 52.1341 12.1801 635 55.2567 1332.75 519.282
2099 0 55.3108 11.8241 654 55.0306 1332.79 519.751
2100 0 54.3952 13.1078 713 54.3492 1333.02 519.777
2101 0 57.2012 14.1605 810 53.063 1333.61 517.66
2102 0 58.2076 13.3316 776 54.7951 1333.43 514.344
2103 0 60.2772 13.4877 813 54.9324 1333.17 515.648
2104 0 61.233 13.7018 839 55.9952 1332.32 513.193
2105 0 65.2356 12.018 784 56.4273 1332.98 513.853
2106 0 63.3757 12.0078 761 57.8791 1332.79 510.415
2107 0 69.4154 14.6221 1015 54.0246 1333.99 511.897
2108 0 76.3252 13.4032 1023 54.3871 1333.99 510.726
2109 0 77.3262 10.8113 836 57.6627 1333.13 510.44
2110 0 76.258 10.8054 824 58.1384 1333.22 508.417
2111 0 82.4706 14.7204 1214 54.8163 1332.83 505.914
2112 0 87.429 13.0392 1140 55.7351 1333.38 505.341
2113 0 89.4763 13.4114 1200 56.07 1332.78 503.107
2114 0 92.2454 16.0116 1477 53.3304 1332.75 502.881
2115 0 96.3808 14.7436 1421 54.4391 1333.44 502.401
2116 0 97.3908 16.901 1646 52.8876 1333.6 499.816
2117 1 45.1861 11.0211 498 54.99 1333.11 523.524
2118 0 49.1994 13.6181 670 52.1657 1332.94 524.036
2119 0 50.1862 11.8359 594 54.0471 1333.01 522.961
2120 0 50.2265 10.8309 544 55.5368 1333.1 519.735
2121 0 50.096 12.4361 623 54.2536 1333.53 518.404
2122 0 55.294 15.083 834 51.3897 1333.58 519.632
2123 0 55.226 13.5987 751 53.5513 1332.87 518.206
2124 0 52.2034 11.1487 582 56.5808 1333.38 515.459
2125 0 60.449 13.7306 830 53.1229 1332.97 518.798
2126 0 62.3721 13.0026 811 53.7645 1333.46 515.359
2127 0 63.3626 12.9098 818 53.5513 1333.69 514.389
2128 0 62.1634 11.8398 736 55.2486 1333.58 513.276
2129 0 66.2301 12.366 819 54.2845 1333.58 513.161
2130 0 70.1992 10.9688 770 56.4273 1332.98 509.004
2131 0 72.1939 14.7519 1065 52.2216 1334.49 508.798
2132 0 76.1844 14.163 1079 53.3244 1333.4 509.479
2133 0 76.3609 11.8516 905 55.0508 1333.49 508.954
2134 0 82.3468 13.091 1078 54.256 1333.97 503.288
2135 0 83.3802 13.5044 1126 54.254 1333.6 501.571
2136 0 86.2029 13.0738 1127 54.3629 1334.15 501.142
2137 0 88.3655 14.1911 1254 53.736 1333.81 499.857
2138 0 90.1403 10.0732 908 56.8976 1333.77 500.335
2139 0 96.1925 13.7433 1322 53.4047 1333.82 500.638
2140 0 97.1904 12.0176 1168 55.7774 1333.42 495.423
2141 0 106.402 13.1576 1400 54.1286 1333.22 496.201
2142 1 54.3367 9.86443 536 54.7631 1333.27 518.662
2143 0 57.2575 9.79785 561 54.2282 1333.67 515.324
2144 0 60.1586 11.9351 718 52.7201 1334.16 514.848
2145 0 60.1959 11.0473 665 53.1308 1333.69 517.504
2146 0 65.3177 11.5436 754 53.7387 1333.21 513.886
2147 0 63.1759 11.2543 711 54.1814 1333.08 512.809
2148 0 68.2333 13.9521 952 52.2164 1332.62 512.367
2149 0 71.2275 13.7447 979 52.5312 1332.29 512.645
2150 0 74.276 11.6996 869 53.9666 1332.74 509.443
2151 0 74.2021 12.0212 892 54.4372 1332.7 504.536
2152 0 78.1858 11.3576 888 55.2601 1332.59 504.649
2153 0 82.3859 13.194 1087 52.9834 1332.88 506.272
2154 0 83.1236 15.4228 1282 51.5967 1333 505.242
2155 0 88.2961 11.1217 982 55.2413 1332.85 501.98
2156 0 88.2178 10.9842 969 55.6687 1332.85 499.463
2157 0 96.3057 13.2599 1277 53.6985 1333.1 497.19
2158 0 99.3505 14.0613 1397 53.3665 1332.22 497.62
2159 0 101.343 13.1632 1334 53.4445 1333.21 498.403
2160 0 105.448 14.1397 1491 52.6465 1333.07 497.506
2161 0 108.222 12.576 1361 54.4754 1332.9 496.525
2162 1 57.3576 10.5827 607 53.3723 1332.42 520.128
2163 0 61.3631 14.4223 885 50.2181 1332.85 519.864
2164 0 61.3887 12.8525 789 52.0811 1333.03 516.084
2165 0 62.402 11.9067 743 52.2234 1333.26 516.367
2166 0 63.2986 12.8439 813 51.8315 1333.61 514.263
2167 0 66.2668 10.7444 712 54.1826 1333.27 511.99
2168 0 70.3202 11.4903 808 53.7005 1333.93 510.215
2169 0 73.2465 14.3351 1050 51.341 1333.57 512.316
2170 0 75.1127 12.5944 946 54.1247 1332.64 508.153
2171 0 78.1826 13.5196 1057 53.5847 1332.26 505.78
2172 0 78.3083 15.6305 1224 51.3448 1332.97 509.659
2173 0 84.3286 13.0086 1097 53.8678 1332.62 507.385
2174 0 87.3217 12.8834 1125 54.3316 1332.98 504.02
2175 0 87.1916 13.0402 1137 54.3527 1333.11 502.546
2176 0 90.2155 12.6475 1141 55.3208 1333.12 498.061
2177 0 95.2618 13.1532 1253 54.6768 1333.14 499.85
2178 0 98.2826 13.4103 1318 54.4021 1333.75 498.165
2179 0 99.236 12.435 1234 55.9708 1333.6 490.764
2180 0 106.278 13.5211 1437 55.3556 1332.81 493.495
2181 1 54.1935 12.5845 682 54.522 1331.78 516.572
2182 0 55.4131 11.4955 637 55.0785 1332.21 517.75
2183 0 58.1948 12.2348 712 54.1433 1333.43 516.291
2184 0 58.2909 7.11947 415 58.3036 1332.74 518.067
2185 0 62.2227 11.1696 695 55.6345 1332.73 515.473
2186 0 64.1283 13.7381 881 54.6947 1332.45 512.466
2187 0 67.2451 13.027 876 54.1084 1332.74 516.791
2188 0 69.3532 15.5148 1076 52.5623 1333.39 512.83
2189 0 72.0845 12.8877 929 55.6598 1333.03 508.606
2190 0 68.0781 11.1343 758 57.223 1333.97 506.768
2191 0 75.1201 12.4334 934 55.666 1333.93 509.1
2192 0 77.3362 13.8874 1074 55.1276 1333.27 506.662
2193 0 80.2012 14.127 1133 55.2295 1333.08 505.923
2194 0 81.2818 12.3767 1006 57.2962 1332.96 504.17
2195 0 85.1657 13.9962 1192 55.7005 1332.72 505.455
2196 0 90.3881 12.6344 1142 57.134 1332.41 502.612
2197 0 91.2254 12.0032 1095 57.0904 1332.69 502.161
2198 0 91.3513 12.6544 1156 57.5856 1332.72 498.016
2199 0 97.2583 11.454 1114 57.421 1333.29 498.671
2200 0 101.361 14.5519 1475 55.1729 1333.67 492.763
2201 0 105.271 12.1496 1279 57.1415 1333.41 496.38
2202 0 109.253 13.5465 1480 56.623 1332.88 490.957
2203 0 112.249 16.98 1906 53.3809 1333.08 493.089
2204 0 115.282 13.558 1563 56.9213 1333.19 484.203
2205 0 122.401 11.6992 1432 57.5412 1333.03 490.121
2206 1 62.0744 13.9188 864 54.6505 1331.92 516.167
2207 0 60.1437 11.4559 689 56.7112 1332.82 515.968
2208 0 62.1733 9.13575 568 58.3327 1332.6 517.606
2209 0 68.1879 12.7149 867 55.8893 1332.27 515.239
2210 0 69.2518 12.2307 847 56.9811 1332.29 513.246
2211 0 68.2396 11.5622 789 56.872 1332.35 514.804
2212 0 71.155 13.056 929 58.0151 1332.42 512.378
2213 0 73.4437 13.0304 957 58.2017 1332.92 506.874
2214 0 78.3663 12.3267 966 57.6563 1333.09 510.57
2215 0 79.2016 13.5982 1077 55.9536 1332.96 512.385
2216 0 84.3231 13.7092 1156 56.1453 1333.38 506.391
2217 0 84.1435 14.0474 1182 56.8756 1332.89 505.388
2218 0 89.2426 12.2923 1097 58.6098 1332.69 503.065
2219 0 91.3713 13.3849 1223 58.5715 1332.51 499.155
2220 0 96.2054 16.4544 1583 55.4258 1332.03 502.52
2221 0 100.28 13.3426 1338 57.938 1332.66 499.363
2222 0 104.217 14.4026 1501 56.8414 1332.91 500.15
2223 0 105.376 13.6938 1443 58.3458 1332.38 496.611
2224 0 109.182 15.3322 1674 56.6296 1333.4 494.136
2225 0 112.383 15.6518 1759 56.2462 1333.86 490.279
2226 0 119.473 14.9573 1787 57.0739 1333.75 487.469
2227 0 122.28 12.3896 1515 59.7439 1333.11 487.288
2228 0 129.162 12.3101 1590 59.4686 1333.3 489.378
2229 1 47.3824 10.7002 507 57.6391 1331.83 523.402
2230 0 48.0945 12.5378 603 56.2537 1332.27 523.708
2231 0 49.2065 9.06384 446 59.1614 1332.13 524.536
2232 0 53.1651 11.1163 591 57.1861 1332.98 521.724
2233 0 55.062 11.3327 624 57.1362 1332.75 523.192
2234 0 54.269 12.438 675 56.5852 1332.76 523.919
2235 0 56.1343 12.7373 715 56.6979 1333.23 521.976
2236 0 61.214 11.1739 684 59.2909 1332.04 518.699
2237 0 59.1202 13.1089 775 58.3961 1332.76 517.36
2238 0 64.2427 13.9471 896 55.9029 1333.72 518.353
2239 0 66.2981 13.1376 871 57.5924 1333.2 515.243
2240 0 67.3454 11.7157 789 59.4487 1332.93 515.93
2241 0 68.2807 12.5511 857 58.259 1334.15 513.943
2242 0 73.395 12.7665 937 58.3223 1333.66 512.173
2243 0 74.2575 13.9515 1036 57.1651 1333.73 512.136
2244 0 78.2579 12.1266 949 59.2993 1333.3 509.89
2245 0 79.1842 12.7172 1007 59.8749 1333.7 503.313
2246 0 80.1933 9.15288 734 62.8147 1333.5 504.493
2247 0 85.2088 13.684 1166 58.476 1333.47 504.991
2248 0 89.0913 12.0775 1076 60.1729 1333.58 502.076
2249 0 94.2623 13.42 1265 58.6443 1333.82 500.774
2250 0 97.3968 12.1462 1183 60.2916 1334.05 497.511
2251 0 100.343 12.1584 1220 60.35 1333.94 497.904
2252 0 105.443 11.5703 1220 60.9402 1334.05 496.519
2253 0 107.488 14.1411 1520 58.9184 1333.89 491.801
2254 1 52.32 11.2194 587 56.9608 1333.37 522.816
2255 0 52.309 10.8586 568 58.7166 1333.31 519.579
2256 0 53.1933 10.4148 554 58.0271 1333.61 521.646
2257 0 56.2555 14.2919 804 54.4204 1333.89 522.618
2258 0 57.1592 12.334 705 57.3929 1333.73 517.63
2259 0 54.1853 10.501 569 60.4253 1333.88 514.077
2260 0 61.2974 11.4361 701 58.6976 1333.9 511.922
2261 0 61.2839 13.103 803 56.6874 1334 517.171
2262 0 62.3295 13.1559 820 56.7061 1334.58 514.532
2263 0 64.1868 10.8745 698 60.0072 1334.13 509.338
2264 0 67.2858 12.7516 858 57.6014 1333.84 513.411
2265 0 70.3018 11.9627 841 58.566 1334.16 511.121
2266 0 72.4187 11.4059 826 59.3608 1333.81 509.593
2267 0 75.3585 12.2083 920 58.7554 1334.18 509.553
2268 0 79.2419 14.5882 1156 56.833 1333.85 507.613
2269 0 80.3208 13.0601 1049 57.9828 1334.1 505.889
2270 0 85.2706 12.2551 1045 58.134 1333.96 505.957
2271 0 86.4196 12.1732 1052 58.9363 1334.21 504.437
2272 0 89.2617 14.9336 1333 56.4336 1334.43 500.054
2273 0 94.1852 12.7939 1205 58.2896 1334.25 497.125
2274 0 100.516 12.3762 1244 58.2532 1334.01 501.005
2275 0 102.359 14.2733 1461 56.7303 1334.17 497.292
2276 0 105.415 13.518 1425 57.626 1333.19 497.57
2277 0 109.356 14.183 1551 57.1786 1333.65 494.135
2278 0 112.137 13.3675 1499 58.2435 1334.04 485.214
2279 0 118.361 12.9265 1530 58.2458 1334.07 488.182
2280 1 68.4981 12.5551 860 56.4407 1333.35 514.329
2281 0 67.1599 10.8696 730 59.063 1333.31 510.671
2282 0 67.1902 12.1446 816 58.1924 1333.24 510.395
2283 0 73.2728 10.7407 787 58.7395 1333.76 507.496
2284 0 77.388 13.9815 1082 55.2357 1334.16 507.563
2285 0 79.5491 14.9719 1191 54.0571 1334.22 511.05
2286 0 81.2523 12.5289 1018 56.2132 1334.73 506.033
2287 0 85.2507 12.1524 1036 56.9508 1334.32 505.234
2288 0 89.4088 12.7504 1140 56.6588 1333.99 504.289
2289 0 90.3033 12.7902 1155 57.3108 1334 501.282
2290 0 95.4721 13.6375 1302 56.2765 1334.15 501.803
2291 0 99.4505 12.9411 1287 56.4025 1334.25 502.198
2292 0 102.353 12.7598 1306 57.2236 1334.06 497.621
2293 0 106.375 13.8472 1473 56.095 1334.92 490.842
2294 0 107.205 13.3295 1429 57.471 1334.51 488.474
2295 0 112.254 14.4583 1623 55.833 1334.53 494.779
2296 0 117.289 12.6866 1488 57.6116 1334.56 490.323
2297 0 124.475 13.6413 1698 56.7956 1334.43 487.249
2298 0 125.325 14.1712 1776 56.4764 1334.31 488.376
2299 1 61.168 11.2314 687 56.7424 1334.11 513.93
2300 0 64.3053 11.1966 720 55.6917 1333.98 515.182
2301 0 65.2271 11.0384 720 56.2917 1334.17 513.668
2302 0 72.3275 13.7707 996 53.3966 1334.07 514.444
2303 0 73.321 11.211 822 56.2214 1333.91 510.568
2304 0 75.4015 12.0289 907 55.9746 1334.32 509.9
2305 0 77.2561 12.7627 986 55.3398 1334.52 506.216
2306 0 81.1995 14.8277 1204 53.3663 1334.12 510.229
2307 0 80.2678 11.798 947 56.4636 1335.02 504.144
2308 0 85.2536 12.2576 1045 55.5962 1335.37 502.569
2309 0 88.3017 12.3667 1092 56.0751 1334.71 501.659
2310 0 93.2859 12.6814 1183 55.0828 1335.39 499.659
2311 0 96.378 12.1605 1172 56.5939 1334.67 496.492
2312 0 96.2481 12.3327 1187 56.5375 1334.04 497.473
2313 0 100.276 11.7874 1182 57.3122 1334.29 491.127
2314 0 105.311 13.1136 1381 55.9124 1334.45 491.958
2315 0 108.311 12.9626 1404 56.0506 1333.73 491.572
2316 0 113.257 12.22 1384 56.4364 1334.2 490.327
2317 1 55.2351 12.1662 672 54.7113 1334.25 513.257
2318 0 56.1646 11.6265 653 55.0444 1334.23 513.317
2319 0 59.2731 9.11037 540 57.1982 1334.21 511.187
2320 0 64.1852 12.1679 781 53.9232 1334.45 511.337
2321 0 65.1878 11.2598 734 54.7902 1334.84 507.211
2322 0 64.1457 9.91493 636 56.75 1334.83 506.129
2323 0 73.1208 12.4315 909 52.9406 1334.95 508.295
2324 0 73.1708 11.3707 832 54.8786 1334.6 506.136
2325 0 73.1516 8.91299 652 57.6702 1334.55 503.94
2326 0 80.2109 11.4324 917 55.4635 1334.46 501.461
2327 0 82.4385 11.3175 933 55.12 1334.77 502.744
2328 0 88.3305 12.3853 1094 54.3528 1334.86 498.979
2329 0 87.2991 11.8787 1037 55.6133 1334.7 497.511
2330 0 95.4 12.327 1176 54.4362 1334.99 495.449
2331 0 97.2369 13.6779 1330 54.3105 1334.15 495.42
2332 0 101.551 13.6582 1387 52.8133 1334.41 503.042
2333 0 104.228 13.4417 1401 53.9072 1335.57 491.888
2334 0 104.254 13.5918 1417 54.6457 1335.22 488.515
2335 0 109.468 12.5424 1373 55.5047 1334.88 486.923
2336 0 112.374 13.1703 1480 55.1845 1334.85 482.715
2337 0 118.309 15.5187 1836 53.274 1334.46 486.935
2338 0 124.185 15.0099 1864 53.5563 1334.87 483.528
2339 0 126.364 12.3927 1566 56.44 1334.81 478.392
2340 1 66.263 11.2733 747 54.158 1333.8 513.442
2341 0 66.2688 11.1214 737 55.0407 1334.54 509.404
2342 0 66.4095 12.3326 819 54.4103 1334.55 509.557
2343 0 72.2475 11.516 832 54.8726 1335.26 505.182
2344 0 73.1783 9.56567 700 55.8643 1335.08 509.389
2345 0 77.2858 12.3309 953 54.2246 1334.57 508.683
2346 0 79.3036 13.4798 1069 54.1338 1334.55 504.292
2347 0 81.3918 14.8049 1205 53.1427 1334.38 505.451
2348 0 85.306 13.9029 1186 53.828 1334.85 501.477
2349 0 87.4608 14.5208 1270 53.2047 1335.31 497.506
2350 0 91.4203 13.0277 1191 49.8178 1335.21 496.166
2351 0 95.3383 13.6357 1300 49.2615 1334.85 496.512
2352 0 98.5947 13.2664 1308 48.7469 1334.95 499.234
2353 0 102.252 16.5572 1693 46.5741 1334.89 494.833
2354 0 112.514 15.3314 1725 46.7501 1334.74 495.512
2355 0 111.454 14.2659 1590 48.4975 1334.83 487.118
2356 0 113.332 15.0972 1711 47.564 1334.9 491.889
2357 0 117.362 16.0444 1883 46.8938 1335.47 487.246
2358 1 53.3467 10.2724 548 48.8631 1335.06 514.825
2359 0 57.1304 13.8105 789 47.1825 1334.56 515.37
2360 0 58.3522 12.8873 752 48.0093 1334.21 515.919
2361 0 63.2538 14.0387 888 46.8727 1334.81 514.288
2362 0 61.319 12.1985 748 48.8864 1334.14 513.623
2363 0 63.216 9.82346 621 50.3623 1334.63 511.332
2364 0 66.3958 12.4707 828 49.006 1335.13 506.477
2365 0 68.4519 9.86093 675 50.9052 1334.76 508.615
2366 0 74.3949 12.4336 925 49.5384 1334.45 506.411
2367 0 74.4081 12.6062 938 49.355 1334.83 506.256
2368 0 79.3258 14.4846 1149 48.1784 1334.08 507.708
2369 0 83.4831 14.3023 1194 48.0067 1334.47 506.021
2370 0 86.4857 13.6323 1179 48.4317 1334.76 502.923
2371 0 81.3482 11.4323 930 50.7806 1335.19 499.261
2372 0 86.2543 12.6023 1087 50.1012 1335.72 495.978
2373 0 91.2817 14.2745 1303 49.1704 1334.45 497.361
2374 0 99.2901 14.372 1427 48.0014 1334.83 498.804
2375 0 99.3203 14.71 1461 48.5332 1334.61 496.188
2376 0 103.445 11.9968 1241 50.6809 1334.19 495.803
2377 0 107.388 11.9753 1286 51.1407 1334.06 487.904
2378 0 110.523 14.5581 1609 48.5357 1334.12 494.754
2379 0 113.329 14.6917 1665 49.2162 1334.2 489.196
2380 0 118.395 15.3046 1812 48.8968 1334.36 484.817
2381 0 124.491 13.4226 1671 49.7181 1334.76 481.364
2382 0 125.398 13.5568 1700 49.5665 1335.55 481.308
2383 1 63.2184 11.8636 750 48.6493 1334.84 512.729
2384 0 65.2122 10.8875 710 50.1113 1334.63 509.718
2385 0 70.3726 12.4764 878 48.7768 1334.52 509.006
2386 0 72.304 12.0049 868 48.9666 1334.57 510.23
2387 0 73.363 13.7126 1006 47.8419 1335.37 508.928
2388 0 76.2468 15.581 1188 47.1035 1335.74 506.465
2389 0 81.408 16.7551 1364 45.8878 1335.44 504.973
2390 0 80.1479 14.074 1128 48.5479 1335.93 501.79
2391 0 82.2284 11.7113 963 50.1329 1336.03 501.643
2392 0 86.3025 13.163 1136 49.4208 1336.13 499.418
2393 0 90.1957 12.2733 1107 49.0244 1336.8 500.835
2394 0 92.3349 11.9998 1108 50.296 1337.24 491.901
2395 0 96.289 11.1124 1070 50.8252 1337.18 493.787
2396 0 99.2678 13.8917 1379 49.4569 1337.18 490.595
2397 0 105.399 16.3284 1721 47.3858 1336.84 488.795
2398 0 106.393 13.9013 1479 49.3793 1336.29 491.111
2399 0 109.418 13.9556 1527 50.5259 1336.22 481.915
2400 0 114.526 10.3732 1188 52.5118 1335.78 487.063
2401 0 119.575 13.3222 1593 50.8198 1336.09 483.073
2402 0 124.352 13.4698 1675 50.7146 1336.62 479.133
2403 0 127.398 11.884 1514 51.5548 1335.86 484.159
2404 0 131.466 12.8474 1689 51.1782 1336.4 480.485
2405 0 136.279 15.3362 2090 49.3766 1336.16 477.336
2406 0 140.438 13.4365 1887 51.3545 1335.69 472.62
2407 0 144.287 12.7662 1842 52.107 1336.22 468.736
2408 0 150.34 11.3941 1713 52.8436 1335.93 471.661
2409 1 60.2819 10.3514 624 49.5865 1334.81 512.792
2410 0 57.2333 8.85847 507 50.2032 1334.71 517.41
2411 0 59.2619 15.3556 910 46.5989 1335.11 515.051
2412 0 58.1855 9.05724 527 52.2068 1335.34 508.577
2413 0 62.169 9.8763 614 51.1922 1335.69 509
2414 1 204.321 6.9058 1411 63.168 1335.24 388.476
2415 1 269.514 7.99958 2156 57.9805 1335.4 437.262
2416 1 200.241 6.74188 1350 61.7718 1335.81 395.731
2417 1 72.3434 11.9569 865 50.859 1336.1 500.318
2418 0 73.2873 13.9451 1022 49.1204 1336.2 501.907
2419 0 77.2788 12.6166 975 50.5559 1335.76 501.563
2420 0 78.2252 12.0933 946 50.741 1336.8 497.867
2421 0 84.4121 13.1853 1113 49.1842 1337 500.693
2422 0 85.2054 12.4757 1063 51.0564 1336.29 498.265
2423 0 89.2983 13.7069 1224 50.3881 1336.16 496.143
2424 0 93.5529 13.4256 1256 50.7508 1335.41 493.072
2425 0 95.3098 12.3912 1181 51.7773 1336.08 492.76
2426 0 101.45 13.0508 1324 50.1873 1336.2 496.412
2427 0 103.259 11.321 1169 52.2378 1335.97 493.365
2428 1 53.3743 11.5037 614 48.9072 1334.88 518.541
2429 0 55.2278 14.7933 817 45.8629 1335.08 520.6
2430 0 50.2237 12.8426 645 49.5814 1335.18 514.629
2431 0 53.1177 9.50718 505 52.5248 1335.37 513.168
2432 0 54.2545 10.5798 574 51.6568 1334.9 515.693
2433 0 57.2099 13.0572 747 50.17 1335.36 512.418
2434 0 61.187 8.89078 544 52.5607 1335.19 515.182
2435 0 61.4131 11.8541 728 51.397 1335.17 510.321
2436 0 61.2669 12.1762 746 52.4558 1335.36 509.566
2437 0 62.1532 12.7749 794 52.2783 1335.19 507.083
2438 0 65.1247 11.8695 773 51.7594 1335.73 509.137
2439 1 215.317 8.68488 1870 61.4861 1336.42 378.437
2440 0 214.218 5.75583 1233 62.3098 1336.28 396.654
2441 1 73.3704 12.212 896 52.6775 1335.27 505.241
2442 0 75.373 12.7366 960 51.8833 1335.65 506.396
2443 1 85.3026 11.6175 991 52.8073 1334.79 503.512
2444 0 91.271 10.9126 996 52.7902 1335.15 503.568
2445 0 92.3212 15.6519 1445 48.9979 1335.43 505.733
2446 0 93.2592 10.6799 996 54.504 1334.93 499.653
2447 0 89.2785 12.9818 1159 53.006 1335.52 499.115
2448 0 92.3898 14.2332 1315 52.0327 1335.83 495.408
2449 0 96.482 14.0752 1358 52.5339 1335.77 490.3
2450 1 93.218 10.4272 972 56.466 1334.98 492.294
2451 1 58.0709 9.86726 573 60.377 1335.51 414.66
2452 1 242.444 14.0692 3411 55.1595 1335.54 422.651
2453 1 216.593 9.04001 1958 57.2252 1335.03 460.956
2454 1 206.395 10.8481 2239 55.0683 1335.04 466.717
2455 0 206.61 10.4738 2164 57.207 1335.42 450.594
2456 0 215.726 14.3144 3088 53.672 1335.84 449.557
2457 0 212.453 14.4926 3079 54.5343 1335.97 439.506
2458 1 152.447 6.38253 973 57.0031 1335.19 486.888
2459 1 70.3156 13.5247 951 50.5436 1335.27 509.474
2460 0 78.3593 9.4692 742 54.6685 1334.47 507.206
2461 0 69.1964 11.4746 794 54.1587 1335.01 503.028
2462 0 84.3426 11.0027 928 53.1843 1334.12 507.356
2463 0 83.2597 9.40431 783 55.3563 1334.64 501.826
2464 0 88.2514 10.5834 934 53.4433 1334.75 505.246
2465 0 90.344 10.0283 906 54.7748 1334.92 500.896
2466 0 91.4304 13.1576 1203 51.5993 1334.78 504.989
2467 0 99.2497 13.864 1376 51.4092 1334.49 500.103
2468 0 100.376 10.7994 1084 53.3635 1334.64 502.854
2469 0 93.1011 13.9418 1298 58.5092 1335.63 401.33
2470 0 96.0634 13.3766 1285 59.7782 1335.08 398.331
2471 1 112.469 13.8527 1558 51.3992 1334.75 494.156
2472 0 115.431 13.1507 1518 51.9407 1335.45 494.513
2473 0 119.54 12.523 1497 52.9385 1334.67 491.331
2474 0 120.418 11.7259 1412 53.4773 1336.02 488.079
2475 0 123.482 13.419 1657 52.6844 1335.89 482.521
2476 0 130.319 11.7097 1526 54.348 1335.5 484.435
2477 0 132.431 10.8207 1433 55.0105 1335.42 483.923
2478 1 72.3271 10.0792 729 51.4856 1334.53 516.358
2479 0 75.3285 9.50503 716 53.4707 1335.09 508.718
2480 0 80.2839 10.8864 874 52.873 1334.18 508.306
2481 0 79.2036 10.1763 806 53.7519 1334.26 508.878
2482 0 78.2455 9.4702 741 55.0823 1335.18 503.841
2483 0 83.3053 9.5192 793 54.4401 1335.12 503.518
2484 0 85.324 9.70418 828 54.1498 1334.22 508.995
2485 0 88.4902 14.883 1317 50.1314 1334.01 510.689
2486 0 93.2839 13.4214 1252 51.722 1334.19 506.156
2487 0 89.3362 9.87282 882 56.1633 1335.44 497.261
2488 0 95.4126 10.6485 1016 54.0187 1335.44 502.089
2489 0 98.2787 11.5997 1140 53.5623 1335.92 498.957
2490 0 101.38 11.1166 1127 54.4605 1335.88 494.434
2491 0 105.415 13.6224 1436 52.087 1335.85 495.496
2492 0 103.352 11.3399 1172 55.8362 1334.94 489.413
2493 0 112.428 12.7192 1430 53.9007 1335.2 490.541
2494 0 117.371 12.4648 1463 54.4921 1334.81 484.929
2495 1 13.0013 2.15364 28 42.0357 1331.82 543.536
2496 0 15.0228 8.05441 121 39.0083 1332.13 545.397
2497 0 12.0027 6.2486 75 40.4 1332.19 544.347
2498 0 12.0091 2.33156 28 40.1071 1332.75 540.964
2499 0 13.0075 8.226 107 38.2056 1333.05 543.953
2500 0 15.0047 8.73061 131 38 1334.01 544.924
2501 0 11.0017 2.99954 33 39.7879 1333.7 543.121
2502 0 12.0045 4.58163 55 40 1333.31 542.891
2503 0 14.0162 3.42462 48 41.4792 1332.85 543.542
2504 0 16.0072 4.18562 67 41.194 1332.9 543.657
2505 0 13.0056 3.84449 50 41.98 1332.44 543.46
2506 0 14.0186 7.70408 108 39.0463 1333.38 540.861
2507 0 15.0075 7.99602 120 38.9667 1333.22 542.308
2508 0 14.0374 5.98402 84 40.4524 1333.62 542.798
2509 0 15.0294 3.32681 50 42.5 1332.9 543.62
2510 0 15.0113 11.5912 174 38.7414 1334.18 542.23
2511 0 16.0313 6.54969 105 40.8 1333.64 542.724
2512 0 16.0172 12.4866 200 38.95 1334.08 541.42
2513 0 16.0034 9.12305 146 40.6644 1332.69 540.377
2514 0 17.0315 5.57789 95 41.7263 1332.98 540.19
2515 0 15.0051 5.86466 88 42.6364 1332.7 541.784
2516 0 16.0046 9.62221 154 40.6169 1333.2 540.266
2517 0 18.0178 6.32706 114 41.6316 1333.37 541.544
2518 0 17.026 4.11135 70 43.3857 1332.77 542.157
2519 0 18.0408 6.20816 112 42.1161 1332.21 540.196
2520 0 17.0162 5.87674 100 43.05 1332.71 540.03
2521 0 17.0752 9.01891 154 40.4221 1333.32 541.857
2522 0 21.0217 11.5119 242 39.657 1333.59 537.893
2523 0 18.019 4.38427 79 43.443 1333.38 541.835
2524 0 19.0212 5.99331 114 41.7368 1333.22 539
2525 0 17.0114 8.93517 152 41.2039 1333.56 540.395
2526 0 16.0205 5.61779 90 42.2333 1333.96 539.978
2527 0 16.0129 7.74374 124 41.2742 1334.24 538.202
2528 0 22.156 7.718 171 40.6725 1333.68 541.427
2529 0 21.0067 6.33133 133 43.1053 1333.14 539.038
2530 0 20.0069 6.04793 121 41.9008 1333.07 539.124
2531 0 20.0068 4.0986 82 43.4024 1332.89 539.78
2532 0 19.0415 4.98909 95 43.0316 1333.45 541.842
2533 0 19.1086 8.58252 164 39.7439 1334.1 537.14
2534 0 20.1147 12.5281 252 38.6984 1334.8 539.583
2535 0 17.013 2.70381 46 44.1087 1334.28 539.522
2536 0 17.0228 3.17222 54 43.1296 1334.17 537.111
2537 0 19.0579 6.8738 131 40.2214 1334.98 537.481
2538 0 20.0682 7.52432 151 39.8742 1335.17 539.709
2539 0 20.1021 8.40708 169 39.2722 1335.24 539.077
2540 0 15.0131 2.66433 40 43.5 1334.4 540.85
2541 0 20.1418 3.525 71 43.5352 1333.58 540.423
2542 0 21.0672 5.36378 113 43.3805 1333.1 538.602
2543 0 22.0296 7.80766 172 42.0233 1333.59 538.924
2544 0 21.0381 7.41512 156 41.4872 1334.37 537.712
2545 0 21.0191 4.75757 100 42.92 1334.1 536.59
2546 0 21.0036 3.76126 79 43.1013 1334.14 538.709
2547 0 21.1553 5.95594 126 42.127 1334.83 535.905
2548 0 24.0404 8.23613 198 41.3182 1334.63 536.985
2549 0 23.0079 10.4312 240 40.775 1334.68 539.112
2550 0 24.0439 7.98539 192 42.2448 1334.04 536.167
2551 0 23.0558 8.11074 187 42.4652 1334.74 537.684
2552 0 24.0728 7.97581 192 43.1562 1333.84 534.505
2553 0 25.0319 8.18955 205 42.722 1334.08 536.917
2554 0 24.0092 8.24684 198 41.8384 1334.3 536.419
2555 0 25.0537 8.86096 222 41.9009 1334.42 538.054
2556 0 23.0168 5.90872 136 44.1324 1334.33 533.779
2557 0 25.1328 8.95243 225 43.3778 1334.19 534.258
2558 0 28.0432 7.70239 216 43.3519 1334.67 531.69
2559 0 28.0404 5.74172 161 45.5466 1333.86 534.658
2560 0 27.025 8.39964 227 44.2731 1334.27 535.278
2561 0 27.069 8.86623 240 43.6583 1334.61 536.738
2562 0 28.0969 6.54877 184 41.75 1334.65 534.109
2563 1 65.1365 12.8653 838 66.1742 1336.68 273.527
2564 0 67.0536 15.674 1051 63.1161 1336.98 272.072
2565 0 69.0291 15.3993 1063 63.6294 1336.98 271.979
2566 0 70.0824 13.6839 959 65.6903 1336.44 275.116
2567 0 74.0758 13.9992 1037 65.2613 1337 274.215
2568 0 75.0718 13.5204 1015 66.4867 1336.45 273.652
2569 1 41.063 11.0562 454 66.7401 1336.1 293.2
2570 0 39.0854 11.897 465 67.0753 1336.68 293.959
2571 0 42.0708 12.2888 517 65.8878 1336.79 294.516
2572 0 44.1838 11.6785 516 66.2171 1336.81 297.196
2573 0 46.0525 12.5292 577 64.8978 1336.81 298.315
2574 0 44.0791 13.0901 577 65.4974 1337.06 296.404
2575 0 49.0634 13.9819 686 62.8776 1336.56 298.997
2576 0 49.104 12.4022 609 65.0148 1335.44 298.297
2577 0 53.1553 13.6017 723 61.9889 1335.27 299.809
2578 0 52.1367 13.9825 729 63.0466 1335.72 297.735
2579 0 55.0755 13.1819 726 62.8719 1336.13 298.672
2580 0 58.0963 13.512 785 61.5146 1336.12 301.159
2581 0 57.1794 13.204 755 62.2861 1336.15 300.37
2582 0 60.2031 13.6372 821 61.8319 1336.15 301.027
2583 0 63.1074 15.5766 983 58.8077 1336.55 301.698
2584 0 64.2287 13.6076 874 61.9954 1336.34 299.265
2585 0 65.0752 13.4921 878 61.2973 1335.2 299.802
2586 0 69.1579 14.156 979 60.4014 1334.61 300.669
2587 0 72.0666 16.1656 1165 57.2077 1334.55 300.918
2588 0 73.1922 13.3211 975 61.1118 1335.05 299.721
2589 0 74.1871 13.0346 967 61.4705 1334.62 298.406
2590 0 78.1736 13.5596 1060 61.0094 1334.62 296.045
2591 0 80.1559 14.2098 1139 59.7875 1335.6 296.81
2592 0 83.1027 14.6445 1217 58.7658 1336.14 300.104
2593 0 84.11 12.983 1092 61.152 1335.89 297.457
2594 0 90.0721 14.7326 1327 58.3466 1336.46 297.182
2595 1 48.0432 12.0517 579 59.4594 1335.94 320.473
2596 0 51.045 12.6163 644 58.5854 1335.07 317.276
2597 0 51.0941 12.8978 659 58.1988 1335.77 318.584
2598 0 53.0256 12.2205 648 58.0123 1336.04 319.894
2599 0 53.0394 13.0092 690 58.3188 1336.23 318.129
2600 0 58.1145 12.4582 724 57.3163 1336.74 320.956
2601 0 58.0482 13.4543 781 56.9001 1336.44 321.807
2602 0 61.0423 12.8927 787 57.0102 1335.69 320.611
2603 0 65.1073 14.2688 929 54.9989 1335.16 324.192
2604 0 63.0317 12.6444 797 57.5809 1335.48 323.945
2605 0 70.223 13.9555 980 53.1939 1334.85 331.865
2606 0 71.0808 13.6324 969 55.2436 1335.21 327.74
2607 0 73.0407 11.8975 869 56.6087 1335.41 331.082
2608 0 76.0587 12.9637 986 55.8134 1335.06 330.675
2609 0 79.0919 11.3665 899 57.0245 1335.2 332.675
2610 0 82.0575 14.8554 1219 53.1756 1335.74 334.567
2611 0 83.1586 12.1936 1014 55.5927 1335.62 336.83
2612 1 45.1074 11.1512 503 54.8211 1336.11 357.32
2613 0 44.0264 11.584 510 55.0588 1335.7 358.2
2614 0 49.0934 11.3865 559 54.3918 1335.78 358.835
2615 0 48.0317 10.8262 520 55.1788 1335.76 362.038
2616 0 48.14 11.9236 574 54.676 1335.35 361.871
2617 0 51.028 10.6216 542 54.8561 1335.3 364.609
2618 0 55.0781 11.8559 653 53.9066 1336.23 364.732
2619 0 59.3213 13.1487 780 51.2013 1336.47 365.605
2620 0 56.0818 13.8013 774 52.0375 1336.82 363.599
2621 0 54.0967 10.9988 595 55.2538 1335.75 363.634
2622 0 58.0207 12.3232 715 52.8587 1335.69 365.165
2623 0 61.0533 12.6611 773 52.5822 1336.23 361.502
2624 0 62.0883 11.0971 689 53.7213 1335.99 363.522
2625 0 66.1537 12.3349 816 52.7524 1335.91 361.237
2626 0 67.056 14.2567 956 51.4916 1335.35 358.229
2627 0 69.0711 12.422 858 52.662 1335.86 361.308
2628 0 73.1656 14.679 1074 50.4656 1335.92 360.186
2629 0 77.1657 14.5661 1124 50.3203 1336.15 359.562
