time division length width area intensity CMx CMy
0 0 41.0169 11.605 476 60.8487 427.128 528.353
1 0 39.0533 10.3704 405 62.4691 426.388 530.257
2 0 42.1375 12.7677 538 58.7398 426.571 530.106
3 0 43.0989 10.3019 444 61.3941 427.072 530.662
4 0 44.1563 11.3914 503 60.2127 426.779 528.839
5 0 44.1464 11.3713 502 61.4363 425.793 529.219
6 0 44.1033 10.158 448 62.971 426.464 529.701
7 0 49.0657 11.3725 558 60.6864 426.355 528.788
8 0 47.1679 10.9821 518 62.2973 426.515 529.126
9 0 52.1586 12.2128 637 60.1334 426.987 527.637
10 0 51.134 12.6921 649 60.5162 426.239 527.18
11 0 53.0917 12.1488 645 61.3008 426.194 526.312
12 0 53.2517 11.3799 606 62.8399 426.946 527.614
13 0 54.0698 12.2989 665 62.2196 426.947 524.347
14 0 56.1005 12.9232 725 61.0166 426.459 525.353
15 0 55.1319 12.062 665 63.2511 425.878 525.084
16 0 58.0872 12.6017 732 61.5382 425.997 527.667
17 0 61.0915 13.6844 836 61.3959 426.736 525.19
18 0 61.0459 13.7274 838 61.4308 425.913 525.007
19 0 64.0777 12.9062 827 62.2914 425.918 524.501
20 0 65.1601 13.8121 900 61.82 425.772 523.823
21 0 63.1002 13.011 821 64.1084 425.974 521.804
22 0 66.0701 13.077 864 64.037 426.016 521.429
23 0 69.0385 12.5148 864 65.0521 424.418 521.093
24 0 71.0688 13.9442 991 64.0161 425.474 519.85
25 0 72.0632 12.6139 909 67.0187 426.388 516.468
26 0 75.1556 13.0263 979 66.2993 426.646 516.177
27 0 74.2071 11.4275 848 70.612 426.639 515.757
28 0 78.0939 13.4326 1049 67.632 426.362 515.435
29 1 37.0498 10.1755 377 73.2042 426.894 533.056
30 0 41.0437 10.1843 418 72.4689 426.189 533.266
31 0 44.0197 12.8579 566 68.424 426.313 532.193
32 0 45.0256 12.1931 549 69.6484 426.541 531.641
33 0 46.0515 11.6392 536 71.3937 425.918 530.715
34 0 47.0546 11.1572 525 72.6324 426.44 531.318
35 0 47.0185 11.6975 550 71.4291 427.695 532.113
36 0 47.0335 12.5442 590 72.3288 427.302 528.192
37 0 49.0555 11.4768 563 73.5542 427.009 529.179
38 0 50.0727 12.7215 637 72.0644 427.422 528.794
39 0 53.0233 11.3724 603 72.6186 426.347 528.978
40 0 55.0354 13.3914 737 70.1058 427.387 526.829
41 0 57.0334 13.7463 784 69.7551 427.111 526.929
42 0 57.0604 13.3192 760 71.5882 427.655 525.224
43 0 59.0558 13.0893 773 71.7335 427.137 524.157
44 0 59.1089 13.0776 773 72.5666 427.43 523.59
45 0 62.0955 11.4501 711 73.0703 427.734 525.842
46 0 63.0601 11.386 718 74.5641 427.745 521.617
47 0 65.0384 11.5624 752 74.6543 427.499 521.892
48 0 69.1212 12.8181 886 72.0643 428.551 520.823
49 0 70.1268 13.718 962 72.4137 428.249 517.462
50 0 72.1057 12.2459 883 73.863 428.1 516.921
51 0 74.0762 12.4062 919 72.9706 428.267 517.506
52 0 79.1029 13.7416 1087 71.3367 428.098 515.42
53 0 80.0756 11.8763 951 74.5752 427.74 513.008
54 0 83.0692 13.1216 1090 72.2505 427.495 512.157
55 0 85.061 12.7908 1088 73.2574 428.237 511.754
56 1 43.0583 11.4961 495 72.4586 427.97 529.911
57 0 45.0683 12.004 541 71.2421 428.532 530.904
58 0 44.0152 10.5418 464 74.1961 428.597 529.886
59 0 45.0552 11.0753 499 72.6293 428.331 530.026
60 0 47.1028 12.2286 576 71.3767 429.036 529.208
61 0 47.0519 12.3906 583 71.4494 428.931 527.487
62 0 49.0456 10.6432 522 73.1571 428.527 527.351
63 0 51.0298 11.1699 570 72.8281 427.754 525.31
64 0 52.0436 11.8747 618 71.7735 428.029 525.327
65 0 56.0739 11.7345 658 71.7538 429.132 524.967
66 0 55.0283 12.0302 662 72.2961 428.363 521.594
67 0 58.0431 11.3364 658 71.6793 427.786 523.492
68 0 60.0465 12.6902 762 70.6929 428.06 521.639
69 0 63.0244 12.281 774 70.9884 427.435 519.437
70 0 64.0556 11.49 736 71.4552 427.671 520.523
71 0 66.1818 12.3297 816 70.1593 427.191 521.509
72 0 67.054 12.8404 861 70.8153 427.388 517.704
73 0 70.0437 12.3637 866 70.6767 427.734 518.1
74 0 72.0831 11.5284 831 72.858 427.173 515.375
75 0 75.1486 12.136 912 71.796 427.977 515.056
76 0 77.0524 10.3566 798 73.802 428.679 515.113
77 0 79.2286 12.3062 975 71.879 427.286 511.106
78 0 84.0581 13.3598 1123 69.4381 427.705 511.66
79 0 84.0838 13.3081 1119 71.2886 428.496 508.964
80 1 42.056 9.93912 418 71.2823 428.792 530.833
81 0 42.0718 9.48379 399 72.7268 429.04 530.01
82 0 44.0177 10.8138 476 70.8718 429.622 528.059
83 0 45.0233 10.8833 490 70.9816 427.953 527.931
84 0 47.1155 10.1665 479 71.6054 428.969 529.015
85 0 50.0412 12.4498 623 68.1685 428.169 528.554
86 0 47.0609 10.5395 496 71.7117 429.468 528.157
87 0 51.0608 12.1228 619 69.8821 429.527 525.032
88 0 54.0587 12.098 654 69.055 428.572 525.138
89 0 52.0923 10.0975 526 72.6293 429.31 523.133
90 0 54.0584 11.1731 604 69.7483 428.303 524.568
91 0 57.1199 11.3621 649 69.5208 428.441 524.361
92 0 59.0535 12.3109 727 69.0069 429.351 523.111
93 0 62.0742 12.2112 758 68.8404 429.079 521.691
94 0 63.0877 11.3176 714 69.451 428.791 521.874
95 0 65.072 13.3544 869 66.2911 429.153 522.24
96 0 66.1767 12.7235 842 68.6378 428.512 518.343
97 0 70.0957 13.1392 921 67.798 428.659 516.903
98 0 71.0644 12.3409 877 69.1722 428.296 516.68
99 0 73.1382 12.8934 943 68.8674 428.746 513.593
100 0 74.0712 12.218 905 69.8796 429.096 515.552
101 0 76.1035 10.0127 762 73.5354 428.892 512.646
102 0 79.0633 11.826 935 71.6225 428.548 510.296
103 0 81.1266 10.5637 857 73.2882 428.755 507.217
104 1 40.0547 10.0862 404 69.8639 429.507 529.069
105 0 42.0277 10.731 451 68.2306 429.612 529.71
106 0 41.0231 9.79936 402 70.2214 428.975 528.868
107 0 39.0793 9.05851 354 72.4774 429.833 527.613
108 0 42.0464 11.8916 500 68.234 429.076 528.448
109 0 44.188 10.7269 474 70.1118 429.681 526.262
110 0 46.0291 10.0589 463 70.9438 429.408 526.253
111 0 47.0584 10.6251 500 65.164 428.518 525.882
112 0 49.0353 10.9105 535 69.3196 428.572 524.363
113 0 49.0114 9.46718 464 70.8728 428.614 523.578
114 0 51.0811 9.86667 504 70.119 428.589 521.891
115 0 52.0404 10.2997 536 70.0019 429.235 519.771
116 0 53.0889 9.45583 502 71.2908 429.149 520.042
117 0 55.0734 11.0761 610 68.8885 430.07 518.82
118 0 58.0768 8.4371 490 71.9633 430.818 515.812
119 0 58.0299 8.32329 483 72.3085 430.333 518.478
120 0 62.1178 8.99903 559 70.8426 429.674 515.637
121 0 62.0491 9.1218 566 70.9912 428.761 511.991
122 0 65.0219 9.95049 647 70.3849 429.226 512.04
123 0 67.0374 9.86017 661 70.4932 428.185 512.002
124 0 67.0442 9.4117 631 71.401 428.675 511.718
125 1 32.0256 7.58769 243 70.7531 428.453 530.255
126 0 31.0154 7.41567 230 72.6044 428.643 527.683
127 0 38.057 9.35439 356 67.6404 428.573 530.084
128 0 39.1366 11.2171 439 65.6674 428.132 529.198
129 0 40.1321 10.2661 412 67.4612 428.808 529.148
130 0 41.0625 11.3486 466 66.8069 428.968 527.268
131 0 42.038 10.0623 423 67.5863 428.913 530.078
132 0 44.0824 10.0267 442 67.8281 429.414 526.887
133 0 45.0745 11.1593 503 66.4135 429.579 526.187
134 0 46.0309 10.3843 478 67.1987 430.044 526.613
135 0 47.03 12.1625 572 65.6836 429.545 523.767
136 0 49.0703 11.1065 545 66.4202 429.582 523.98
137 0 50.0307 11.413 571 66.5044 429.424 522.587
138 0 53.0331 10.7669 571 66.9229 428.949 522.378
139 0 52.0719 10.6007 552 67.6649 429.072 523.241
140 0 55.0833 11.5098 634 66.3833 429.83 521.202
141 0 56.106 10.0524 564 69.0674 429.92 520.245
142 0 61.0674 12.6254 771 64.0999 430.088 520.558
143 0 61.097 12.0628 737 65.6499 430.015 517.513
144 0 62.0415 12.0887 750 66.072 429.383 516.367
145 0 64.0741 11.8144 757 66.2986 430.44 517.83
146 0 67.0396 11.4857 770 67.0571 430.266 514.978
147 0 69.1093 12.0678 834 66.4388 430.049 515.008
148 0 70.0394 11.4364 801 66.7391 429.16 517.205
149 1 37.0079 10.5653 391 66.4552 429.491 529.499
150 0 36.0421 9.10046 328 68.311 430.091 531.284
151 0 39.0317 10.2481 400 66.6775 430.768 531.658
152 0 36.0147 10.2181 368 68.7228 429.247 529.734
153 0 42.0532 11.4379 481 65.973 429.586 528.387
154 0 42.0742 11.1945 471 66.6327 429.006 528.677
155 0 41.0738 11.1507 458 67.9258 429.434 526.135
156 0 44.0699 11.4364 504 66.9008 430.74 528.22
157 0 44.0688 10.3928 458 68.0131 430.349 527.847
158 0 47.0641 12.3024 579 64.8808 429.788 526.62
159 0 46.0882 10.0894 465 70.1032 430.837 524.525
160 0 49.0299 10.8709 533 68.272 431.124 523.371
161 0 49.0552 10.8857 534 68.6685 431.062 523.333
162 0 52.0101 11.2478 585 67.6171 431.195 521.969
163 0 53.0821 11.4163 606 67.6502 430.842 522.086
164 0 55.052 12.3883 682 65.7815 431.097 521.811
165 0 55.0472 11.8626 653 67.5283 431.122 518.737
166 0 58.096 10.8786 632 68.7832 432.019 519.003
167 0 58.1433 11.1449 648 68.7562 431.878 517.711
168 0 61.1479 11.971 732 67.7227 432.153 516.316
169 0 63.0739 12.303 776 67.1044 431.156 515.842
170 0 64.1479 12.1438 779 67.199 430.91 517.325
171 0 68.1418 12.7528 869 65.9402 430.719 513.765
172 0 67.2475 11.7179 788 67.7563 430.548 514.261
173 0 71.101 11.983 852 67.5892 430.393 511.993
174 0 74.1185 13.8427 1026 64.7992 429.33 511.299
175 0 77.1336 12.1866 940 66.4128 429.242 510.814
176 1 41.0665 11.6153 477 65.9581 429.411 526.126
177 0 42.0077 10.8789 457 67.5164 429.387 526.438
178 0 42.0273 10.6359 447 67.6398 429.141 527.369
179 0 44.0369 11.7175 516 65.3081 429.686 526.678
180 0 46.0107 12.8666 592 63.7905 429.468 525.432
181 0 45.0224 12.1051 545 64.967 428.719 525.385
182 0 48.0209 11.8074 567 64.582 429.51 525.005
183 0 49.0386 12.1333 595 64.2521 428.523 524.417
184 0 49.0522 11.6407 571 64.8179 428.004 524.75
185 0 53.0822 12.0756 641 63.2824 428.286 523.437
186 0 53.0404 12.3679 656 62.75 428.021 523.378
187 0 54.08 12.8513 695 61.9252 427.486 521.079
188 0 56.0969 13.7441 771 60.3956 427.114 520.704
189 0 56.0278 10.2806 576 64.6667 427.665 521.424
190 0 59.0257 12.6216 745 61.106 426.608 520.272
191 0 61.0634 13.0029 794 60.262 426.54 518.904
192 0 62.0335 12.0258 746 61.7011 426.316 518.728
193 0 63.1472 12.6213 797 60.813 426.524 518.261
194 0 64.1216 9.88746 634 63.5994 426.423 518.847
195 0 66.1317 11.0083 728 62.0824 426.587 516.97
196 0 69.1041 11.4176 789 60.9708 426.947 519.639
197 0 72.2251 12.558 907 59.7155 426.412 516.797
198 0 72.1159 11.6479 840 60.775 426.549 518.61
199 0 73.097 10.8896 796 61.7864 425.98 514.803
200 0 76.1425 11.3865 867 60.8074 425.135 511.497
201 0 81.0426 11.858 961 59.9251 425.412 514.12
202 0 84.148 13.5713 1142 57.9912 425.576 511.205
203 0 86.083 12.6622 1090 58.8972 424.872 511.492
204 0 88.1311 11.4148 1006 60.5467 425.431 509.55
205 1 47.0746 10.7701 507 58.5897 426.083 531.079
206 0 47.0258 11.0152 518 59.0753 426.365 530.423
207 0 48.0353 11.4291 549 58.9454 425.858 527.335
208 0 50.0496 11.8083 591 58.7665 425.44 527.64
209 0 53.0561 12.8355 681 57.1043 425.461 527.915
210 0 54.0552 11.7657 636 58.2783 424.912 527.115
211 0 55.0529 10.4627 576 59.7483 424.812 525.483
212 0 58.0493 11.1457 647 59.1793 425.825 525.38
213 0 58.0741 11.8814 690 58.5362 424.787 526.435
214 0 62.0602 12.0689 749 58.2804 424.36 523.781
215 0 61.0322 10.4371 637 60.606 424.879 523.306
216 0 64.0663 12.1125 776 58.5026 423.483 520.657
217 0 66.0524 13.6407 901 56.7636 423.249 520.391
218 0 69.1152 12.443 860 58.1128 423.551 519.864
219 0 70.0773 12.529 878 58.0456 423.465 519.618
220 0 73.2014 13.3604 978 56.9018 422.63 519.663
221 0 74.0606 13.0299 965 57.7979 422.783 516.949
222 0 74.0639 10.0589 745 61.6 423.45 517.854
223 0 78.0477 11.8902 928 59.2543 424.414 516.902
224 0 81.0362 12.4265 1007 59.423 424.13 512.517
225 1 40.0188 10.4201 417 59.6187 424.065 532.66
226 0 41.0143 11.8252 485 57.0866 423.718 534.264
227 0 42.043 11.6309 489 58.1677 423.364 532.397
228 0 44.0327 10.7647 474 60.0084 423.574 529.795
229 0 47.0401 9.67261 455 60.6857 423.67 529.804
230 0 45.0544 10.787 486 60.1482 423.949 528.79
231 0 47.0599 11.9635 563 58.8348 423.188 528.007
232 0 49.0428 11.439 561 60.2709 424.373 525.756
233 0 48.031 10.2434 492 62.1809 424.61 525.841
234 0 52.1024 12.7057 662 58.6888 423.721 525.5
235 0 55.0824 12.8716 709 58.2948 424.451 525.584
236 0 56.2127 11.3675 639 59.6995 424.502 526.272
237 0 56.0822 10.342 580 61.2448 423.728 522.838
238 0 57.0655 10.8121 617 61.3079 423.747 524.849
239 0 59.047 12.4138 733 59.6248 423.671 521.465
240 0 61.1052 10.621 649 61.4946 423.977 522.374
241 0 63.0938 12.3784 781 59.6773 424.161 519.223
242 0 63.1244 9.69514 612 63.2435 423.902 517.016
243 0 67.0775 12.5974 845 60.342 424.052 515.354
244 0 68.1022 11.6589 794 61.1385 424.665 518.525
245 0 69.1374 11.8026 816 61.7414 424.278 515.594
246 0 73.1056 11.8048 863 61.9142 424.351 513.116
247 0 74.1069 13.3726 991 61.1393 424.976 512.966
248 0 76.0705 12.0283 915 62.9126 424.663 513.704
249 0 79.2185 12.4718 988 62.7935 425 511.817
250 1 44.0292 11.129 490 62.6714 425.251 530.463
251 0 44.1035 10.9742 484 63.5062 425.397 529.944
252 0 45.0886 10.5348 475 64.4253 424.653 529.105
253 0 48.0345 11.0337 530 63.7679 424.611 529.776
254 0 49.0692 12.4926 613 62.5367 425.876 528.726
255 0 46.0544 10.5527 486 66.2099 425.595 527.36
256 0 51.0906 11.7047 598 64.4114 426.018 524.958
257 0 52.0309 12.7809 665 63.3023 425.88 525.307
258 0 53.1742 12.6001 670 63.6672 425.709 524.188
259 0 54.1308 11.9525 647 64.4668 425.595 524.046
260 0 58.1632 14.9579 870 59.9942 424.63 524.915
261 0 61.0598 13.5277 826 61.8063 424.522 523.69
262 0 62.0858 12.8693 799 62.5257 424.692 522.836
263 0 61.0917 11.6873 714 64.9916 425.245 521.574
264 0 64.0623 11.9103 763 64.6225 424.828 520.468
265 0 67.0471 11.8275 793 64.652 424.383 519.419
266 0 69.1058 11.6343 804 64.7276 424.22 520.062
267 0 73.171 11.9583 875 64.2926 424.405 517.005
268 0 75.0446 11.3932 855 65.1637 424.139 516.975
269 1 36.0858 9.03402 326 65.5184 425.184 535.997
270 0 37.0956 10.1629 377 63.931 424.369 535.859
271 0 39.0736 10.8001 422 64.1303 424.934 532.671
272 0 39.0297 10.6842 417 63.4724 423.448 534.66
273 0 43.0759 11.3056 487 62.5606 423.433 532.54
274 0 44.0094 10.5432 464 63.7392 423.696 534.353
275 0 44.0484 11.3512 500 63.606 423.638 532.306
276 0 48.0702 11.9201 573 61.9494 424.026 532.41
277 0 47.0538 11.5825 545 63.9633 424.332 530.47
278 0 50.0926 11.2392 563 63.6874 423.403 530.892
279 0 49.1204 10.5455 518 64.8224 423.483 530.096
280 0 51.1086 12.3463 631 62.4263 423.838 530.906
281 0 53.1423 11.5163 612 63.6536 424.062 529.042
282 0 56.117 13.4362 754 61.2546 423.699 526.703
283 0 56.0527 12.4169 696 63.0316 423.662 525.001
284 0 59.0582 11.7342 693 62.7201 422.605 525.426
285 0 60.0506 10.9907 660 64.1758 423.335 524.033
286 0 62.1906 12.0275 748 62.8636 422.501 523.465
287 0 62.111 11.4311 710 63.5831 422.542 522.154
288 0 65.0614 11.9118 775 62.7406 422.323 519.116
289 0 68.1428 11.1677 761 63.3114 422.936 520.962
290 0 71.063 11.8627 843 62.4128 422.461 518.199
291 0 75.1432 12.057 906 61.723 423.196 517.942
292 0 76.1709 10.9228 832 63.595 423.471 516.101
293 0 79.1761 11.2408 890 62.9112 424.045 514.158
294 0 78.0672 10.2092 797 65.0339 423.811 512.437
295 0 82.0913 11.6212 954 63.586 423.514 510.487
296 1 43.0315 10.3645 446 61.5269 423.132 533.35
297 0 45.011 12.6858 571 58.6375 422.613 530.876
298 0 44.0124 9.13378 402 63.5746 423.234 529.856
299 0 48.0475 11.5719 556 60.4946 423.234 529.137
300 0 50.055 12.0467 603 59.4992 422.7 529.859
301 0 48.0355 10.6796 513 62.5049 421.624 526.497
302 0 51.0886 12.3511 631 60.2282 422.081 527.434
303 0 51.1109 10.5261 538 63.2193 422.056 527.48
304 0 55.0366 10.0842 555 63.3459 421.659 526.164
305 0 54.0516 10.934 591 62.7411 422.633 523.548
306 0 57.0428 10.7113 611 62.9574 422.311 523.858
307 0 59.1349 12.0403 712 61.264 421.588 521.458
308 0 61.1949 11.9945 734 60.9932 422.377 521.452
309 0 62.0941 9.79159 608 64.3734 422.865 520.618
310 0 67.183 12.3246 828 60.1449 422.542 520.275
311 0 67.0647 10.8701 729 63.6955 422.82 517.49
312 0 70.0919 11.4564 803 62.1905 422.877 518.196
313 0 71.2273 10.8526 773 63.022 422.392 516.652
314 0 76.0925 12.3928 943 61.8028 422.569 514.264
315 0 79.2125 12.7758 1012 60.4773 422.638 514.052
316 0 80.1259 12.5428 1005 61.3174 422.436 512.994
317 1 43.0242 9.36683 403 62.1315 423.816 531.035
318 0 45.0869 10.0473 453 60.3951 423.214 532.093
319 0 47.0227 10.9309 514 60.3385 423.94 529.3
320 0 47.1371 10.2679 484 61.2831 424.163 530.07
321 0 49.0494 11.5598 567 59.5802 424.046 529.601
322 0 48.1347 9.66039 465 60.9849 422.546 529.718
323 0 51.07 11.2982 577 58.9653 421.891 526.763
324 0 52.1126 11.6287 606 59.0858 421.855 526.287
325 0 54.0822 10.2067 552 60.1938 422.64 527.83
326 0 56.0515 11.0791 621 59.7375 423.246 523.454
327 0 57.0868 10.195 582 60.6942 422.481 524.526
328 0 58.1077 10.687 621 60.2882 422.279 524.388
329 0 60.176 12.3804 745 58.7128 422.322 521.14
330 0 62.0859 11.5968 720 59.1208 422.433 523.14
331 0 64.053 12.9424 829 57.4439 423.088 520.192
332 0 66.1671 11.6372 770 58.9351 423.466 519.639
333 0 69.0812 11.899 822 58.0925 423.903 519.998
334 0 71.1067 13.6555 971 56.1998 422.54 517.218
335 0 70.0606 11.2902 791 59.9836 422.231 515.788
336 0 74.0494 11.4383 847 59.3436 422.669 514.947
337 0 74.0631 11.0041 815 60.3656 421.973 515.269
338 1 39.0679 9.03556 353 59.6232 422.385 532.793
339 0 39.0853 9.90142 387 58.4496 422.995 533.419
340 0 41.0377 8.82116 362 58.6657 423.707 533.644
341 0 42.069 10.0787 424 59.1085 423.892 529.599
342 0 42.0659 10.6737 449 59.2428 424.091 530.599
343 0 43.1095 11.2504 485 58.365 423.14 530.33
344 0 44.0643 10.1443 447 60.0626 423.472 528.092
345 0 47.0724 11.7054 551 58.0417 423.114 527.702
346 0 48.0454 10.4693 503 59.9523 422.473 528.994
347 0 47.0278 10.3556 487 61.0144 422.234 526.388
348 0 50.1076 10.4176 522 61.1303 422.862 525.887
349 0 52.1451 10.6434 555 60.2721 422.737 526.744
350 0 53.1025 13.0314 692 58.0361 422.306 524.64
351 0 53.0685 12.2106 648 59.4954 422.367 521.509
352 0 53.1631 11.7375 624 59.6635 422.981 525.503
353 0 56.1376 12.3625 694 59.438 423.784 522.63
354 0 56.1239 9.8532 553 62.792 424.172 522.219
355 0 58.2068 11.1327 648 60.4028 423.188 523.733
356 0 62.2341 11.3925 709 59.6841 424.351 522.159
357 0 61.0953 11.6376 711 60.8143 423.11 520.938
358 0 63.1167 11.2648 711 61.4684 423.584 519.447
359 0 64.0469 10.9295 700 61.7943 423.607 519.549
360 0 67.0409 11.2916 757 60.8098 423.511 519.036
361 0 69.2135 12.9021 893 59.4815 423.376 513.989
362 0 69.1047 10.2743 710 62.0254 424.121 520.079
363 0 74.1181 12.1563 901 59.4928 423.971 517.741
364 0 74.0969 11.1476 826 62.1308 423.518 512.759
365 0 75.1711 12.2254 919 61.1893 423.62 510.344
366 1 37.0441 8.66536 321 62.7819 424.623 532.875
367 0 36.0238 10.2155 368 62.3668 424.72 530.459
368 0 40.0401 11.3386 454 60.0308 424.934 531.98
369 0 40.08 12.6747 508 59.124 424.963 531.12
370 0 40.0514 10.3867 416 62.5938 424.808 530.526
371 0 42.049 13.1751 554 59.5415 423.671 530.139
372 0 41.0254 10.8713 446 63.1368 423.361 529.13
373 0 43.0181 10.4607 450 63.3178 423.898 530.84
374 0 46.0549 12.5937 580 59.9397 423.721 529.709
375 0 45.0496 11.898 536 61.403 423.737 528.119
376 0 46.0958 12.2788 566 60.5389 423.383 530.048
377 0 50.1173 11.7923 591 61.1574 424.271 526.538
378 0 49.0421 11.3576 557 62.0898 423.901 527.704
379 0 49.0687 9.92485 487 64.1869 424.55 525.649
380 0 53.0905 13.2039 701 59.8688 423.829 523.311
381 0 52.0284 12.301 640 61.2922 423.431 525.127
382 0 55.0766 11.2934 622 61.7572 422.884 524.646
383 0 59.1361 12.1077 716 60.4623 423.737 521.964
384 0 56.029 11.8153 662 61.6677 423.151 522.989
385 0 59.0349 11.6372 687 62.3683 422.182 520.344
386 0 60.0913 11.6157 698 62.3023 422.943 520.496
387 0 65.1204 13.0834 852 59.858 423.166 518.223
388 0 68.0535 12.1816 829 60.9216 422.93 518.104
389 0 69.1055 13.284 918 60.439 422.79 516.431
390 0 66.3293 9.22669 612 65.5703 423.503 513.971
391 0 71.1129 11.545 821 62.9038 423.786 512.873
392 0 75.1318 12.7243 956 61.6203 423.269 514.409
393 0 77.1096 12.9945 1002 61.7325 423.773 510.242
394 0 79.1577 13.53 1071 61.4594 423.4 510.703
395 1 38.0248 9.25713 352 65.4034 424.426 530.366
396 0 42.0287 11.5159 484 61.9256 424.331 530.353
397 0 41.0206 11.8233 485 63.1588 424.285 530.054
398 0 42.0509 11.9855 504 63.0575 423.827 527.742
399 0 44.0351 12.3538 544 62.7702 424.074 528.664
400 0 46.0586 12.5492 578 61.6713 423.696 528.593
401 0 51.0647 11.8673 606 61.7376 423.741 527.873
402 0 49.0537 11.8034 579 62.5561 423.957 527.86
403 0 52.0843 13.0942 682 61.0088 424.827 526.085
404 0 54.2108 11.6397 631 62.8304 424.578 525.097
405 0 52.0714 11.5803 603 63.7098 424.269 526.259
406 0 56.1159 13.8107 775 60.9742 424.653 524.317
407 0 58.0828 12.5338 728 62.7912 424.415 525.364
408 0 56.0554 11.3102 634 65.4054 423.763 522.071
409 0 59.0606 13.1052 774 63.053 423.518 520.242
410 0 61.0679 12.0194 734 64.549 424.219 520.973
411 0 64.0796 13.9202 892 62.6401 423.794 519.77
412 0 65.0546 12.2205 795 64.2478 423.486 521.989
413 0 68.0777 13.6902 932 62.7886 423.771 519.717
414 0 68.0979 12.7023 865 64.8659 423.792 516.401
415 0 70.1178 13.6627 958 63.7328 423.472 518.151
416 0 74.1041 12.4285 921 64.6124 423.744 518.364
417 0 75.0619 13.0825 982 64 423.564 517.663
418 0 79.1715 13.7928 1092 63.5806 423.594 515.402
419 0 81.0901 13.2445 1074 64.6769 423.325 513.156
420 0 83.1129 12.7898 1063 65.318 423.057 511.832
421 0 86.2138 15.3456 1323 62.2502 422.986 510.721
422 0 88.113 13.7891 1215 65.023 423.246 509.958
423 1 45.0676 14.2231 641 63.8627 423.615 530.754
424 0 47.0723 12.9163 608 65.2895 423.012 528.643
425 0 49.0536 12.945 635 65.4598 423.441 529.244
426 0 50.0965 13.7335 688 64.8576 423.299 529.368
427 0 50.067 12.4833 625 66.7968 423.597 529.435
428 0 55.0418 13.953 768 64.5404 423.47 527.725
429 0 54.0831 13.8491 749 64.6702 423.069 529.021
430 0 58.0497 13.4884 783 64.9796 423.248 528.367
431 0 58.0406 13.0943 760 66.6947 423.509 526.05
432 0 59.0757 13.4234 793 67.3884 423.308 523.407
433 0 62.0683 14.1779 880 65.7727 423.432 524.139
434 0 63.0374 12.9764 818 68.1394 422.989 522.037
435 0 65.0597 12.6345 822 68.9842 423.102 521.901
436 0 68.049 15.2831 1040 65.5596 423.643 520.793
437 0 70.0738 13.1576 922 67.9219 423.241 520.33
438 0 72.0867 15.3981 1110 66.7198 424.159 517.713
439 0 74.0784 14.2957 1059 68.5921 424.392 515.924
440 0 76.2551 13.1663 1004 69.2281 422.716 517.565
441 0 78.0584 13.3618 1043 70.0479 423.001 515.693
442 0 79.2028 12.9415 1025 70.9512 422.7 514.385
443 0 82.1148 12.4095 1019 71.261 422.883 516.254
444 0 87.1716 13.9036 1212 69.5652 422.835 512.168
445 0 87.1447 13.644 1189 70.2935 422.609 512.336
446 0 89.0777 12.8652 1146 71.9485 422.862 508.898
447 1 48.0956 12.0177 578 69.9429 423.484 530.659
448 0 50.0169 12.1359 607 70.0527 424.125 529.914
449 0 50.1207 11.8514 594 71.399 423.692 527.274
450 0 52.106 12.2443 638 70.5862 424.279 525.765
451 0 55.053 12.7695 703 69.7155 423.765 524.932
452 0 55.0594 12.986 715 70.2224 423.235 525.422
453 0 57.053 11.4805 655 71.5084 423.249 526.008
454 0 59.1312 12.0579 713 70.7588 423.29 524.794
455 0 62.1885 12.6551 787 70.08 423.334 523.671
456 0 63.0915 13.1238 828 69.2331 424.279 524.911
457 0 62.1539 11.8416 736 72.1033 423.442 522.355
458 0 66.1458 12.3817 819 71.2039 423.745 520.816
459 0 70.1459 12.6023 884 70.2613 423.385 519.721
460 0 72.0782 13.4992 973 69.7811 423.211 516.733
461 0 74.0942 15.2914 1133 68.2789 422.822 514.64
462 0 77.0517 14.0166 1080 69.4287 422.331 517.27
463 0 77.1166 11.4113 880 73.0614 422.009 515.514
464 0 81.0846 12.2465 993 72.2145 422.05 515.333
465 0 86.2206 14.2773 1231 69.0114 423.001 515.346
466 0 86.073 12.3035 1059 73.2531 423.537 513.344
467 0 88.1162 13.5276 1192 71.8926 422.94 510.64
468 0 89.0639 14.4166 1284 71.7407 422.965 508.196
469 1 45.1116 11.8817 536 71.6828 423.343 531.944
470 0 46.1165 11.9697 552 72.0598 422.178 531.071
471 0 45.0647 11.4058 514 74.5233 422.683 529.644
472 0 47.0904 12.9113 608 71.773 422.487 528.798
473 0 49.0726 13.1846 647 71.578 422.439 529.587
474 0 51.0945 12.6628 647 72.1128 422.529 529.238
475 0 50.0975 11.1782 560 74.5143 423.132 529.58
476 0 52.1084 12.5508 654 72.5856 422.783 528.382
477 0 55.1155 12.1926 672 72.119 422.098 529.647
478 0 56.0587 12.8258 719 73.0431 422.367 526.964
479 0 59.2324 13.0334 772 72.3938 422.858 526.148
480 0 62.2722 12.3972 772 72.4326 422.38 525.71
481 0 62.1232 12.6362 785 73.2841 422.572 522.712
482 0 64.1106 12.4784 800 73.09 422.59 523.808
483 0 68.1637 12.2206 833 73.2281 422.597 522.132
484 0 66.164 12.9829 859 73.3562 422.515 518.733
485 0 69.1127 11.72 810 74.7988 422.748 519.23
486 0 74.082 14.106 1045 70.9005 423.086 517.416
487 0 74.1173 13.4247 995 72.8392 422.477 514.966
488 0 77.1126 13.811 1065 72.1709 422.106 514.967
489 0 78.1129 11.7522 918 75.4935 423.124 513.115
490 0 83.0776 12.7712 1061 73.0141 422.215 514.123
491 0 82.1104 11.2288 922 75.9642 422.265 512.704
492 0 87.1377 12.486 1088 74.4586 422.485 509.152
493 0 88.1461 11.583 1021 75.9922 421.613 505.78
494 0 91.3111 12.3424 1127 74.6034 422.28 506.857
495 1 47.1062 10.3808 489 74.0164 423.697 530.93
496 0 47.1076 10.8687 512 74.4824 423.221 528.023
497 0 49.096 11.8543 582 72.4897 423.127 529.883
498 0 51.0673 10.9855 561 73.6185 422.938 527.665
499 0 52.1509 11.5434 602 73.2874 423.321 527.367
500 0 52.0852 10.6748 556 75.0576 423.277 527.477
501 0 53.0876 10.2095 542 75.69 423.212 527.236
502 0 59.0882 10.9159 645 73.5535 422.839 524.657
503 0 60.1 11.3977 685 73.0029 422.521 525.439
504 0 62.0654 10.6984 664 74.1416 422.786 524.67
505 0 64.1357 12.1617 780 71.3808 422.941 524.269
506 0 65.1324 13.2039 860 70.136 423.436 522.892
507 0 68.1537 11.7822 803 71.2702 423.217 522.392
508 0 68.1676 8.87519 605 75.9041 423.256 521.668
509 0 71.1142 12.501 889 72.1654 422.193 518.33
510 0 74.155 12.5143 928 71.2942 422.264 519.076
511 0 77.1251 12.6418 975 72.0656 422.199 515.797
512 0 76.2057 12.112 923 73.4713 422.169 514.171
513 0 81.1276 12.5481 1018 71.5619 422.071 516.133
514 0 82.1106 13.1773 1082 71.3161 422.368 513.677
515 0 87.0936 11.9986 1045 71.6306 422.521 516.577
516 1 46.0633 12.0921 557 68.7612 422.756 534.436
517 0 46.075 10.0705 464 72.8836 423.213 531.431
518 0 50.0459 12.1688 609 69.3103 422.57 531.824
519 0 51.0361 11.8348 604 69.2947 422.293 532.528
520 0 52.0586 11.8904 619 69.5574 422.67 531.365
521 0 54.1115 12.3264 667 69.3058 422.55 530.288
522 0 56.1118 11.7088 657 70.0152 422.621 528.006
523 0 58.1563 12.0021 698 69.8224 422.073 527.185
524 0 59.0706 11.3762 672 70.2545 422.232 526.952
525 0 61.1734 11.8189 723 69.7344 422.342 526.19
526 0 65.2762 13.3893 874 67.3833 422.126 524.208
527 0 67.1892 12.4871 839 67.8021 422.465 525.71
528 0 69.2322 12.4653 863 69.0521 422.491 522.423
529 0 70.2478 12.7691 897 69.2988 422.426 520.752
530 0 73.1498 12.0985 885 70.2915 422.451 521.005
531 0 74.1721 11.8508 879 70.7281 422.957 520.167
532 0 77.2739 11.181 864 70.9097 422.662 519.828
533 1 38.0586 10.9042 415 69.0265 422.386 536.354
534 0 41.2222 11.9111 491 67.7739 422.306 534.955
535 0 43.2398 12.2572 530 66.8453 421.717 534.421
536 0 41.2293 11.1571 460 70.1978 421.904 532.622
537 0 46.1672 12.2381 565 66.8814 422.421 533.094
538 0 45.0766 13.6212 614 65.9577 422.01 531.002
539 0 46.0512 12.0518 555 68.3369 422.209 531.402
540 0 47.0593 13.0049 612 66.9461 422.288 531.426
541 0 47.0867 11.5956 546 69.7454 422.848 527.784
542 0 51.1623 12.3919 634 67.1782 422.475 528.256
543 0 51.0669 12.0822 617 67.5786 423.303 529.384
544 0 52.0401 11.2606 586 69.43 421.95 526.565
545 0 55.0329 12.7742 703 66.7653 422.538 526.186
546 0 58.1221 12.9383 752 65.1609 422.178 526.048
547 0 59.0952 12.7083 751 66.1931 422.324 524.511
548 0 61.0604 11.7588 718 67.2939 422.394 523.617
549 0 63.0491 12.2286 771 66.0713 422.511 524.434
550 0 62.1048 12.7365 791 66.8344 422.71 522.487
551 0 65.2019 12.9751 846 66.1265 421.836 520.228
552 0 68.1077 13.0822 891 65.5769 422.019 520.836
553 0 71.1381 12.4406 885 66.4023 422.139 518.384
554 0 71.1372 12.4126 883 67.4394 423.041 517.4
555 0 74.072 12.2178 905 67.3934 423.004 514.59
556 0 77.0609 12.86 991 66.3966 423.737 513.13
557 0 79.0885 12.5682 994 65.7525 422.428 514.606
558 0 82.0893 12.0113 986 66.9452 421.263 511.658
559 1 45.0731 10.361 467 67.439 421.512 531.66
560 0 45.0085 10.3758 467 67.6574 422.627 531.276
561 0 46.2778 12.2305 566 65.9647 422.583 530.433
562 0 49.1683 11.9589 588 66.3776 422.861 527.826
563 0 50.1691 12.119 608 66.2845 423.331 527.548
564 0 53.0919 12.0734 641 65.7629 423.041 529.802
565 0 52.05 11.3929 593 67.0776 423.39 527.445
566 0 54.0812 14.4598 782 63.22 422.733 522.824
567 0 57.1653 11.7029 669 65.7399 422.892 526.109
568 0 57.0912 14.2229 812 63.2094 421.959 525.618
569 0 60.0472 13.556 814 64.0418 421.866 523.459
570 0 61.0629 15.263 932 61.9024 422.704 523.547
571 0 65.0991 13.3335 868 64.023 422.876 521.75
572 0 64.1586 13.1081 841 64.5684 422.757 519.391
573 0 66.0837 14.1487 935 63.6192 422.861 520.339
574 0 67.0555 11.2892 757 67.2893 422.93 519.289
575 0 71.0964 13.3621 950 65.1958 423.272 517.653
576 0 74.122 12.7627 946 65.3647 422.906 516.487
577 0 76.1669 12.7221 969 65.2456 422.771 516.229
578 0 79.1881 13.348 1057 64.2138 423.32 515.822
579 0 81.2134 12.2886 998 65.8637 423.588 515.609
580 1 41.1037 11.9211 490 65.7306 424.457 534.608
581 0 42.1554 14.1382 596 64.7886 424.557 532.206
582 0 43.1336 13.5161 583 65.6587 424.95 530.636
583 0 45.1521 14.0193 633 64.5213 424.897 531.253
584 0 47.1581 12.1294 572 66.3479 424.295 531.621
585 0 48.088 12.3108 592 66.9814 424.368 529.235
586 0 52.2515 13.8943 726 64.4215 424.321 527.358
587 0 50.0821 12.9987 651 66.5376 423.699 528.667
588 0 51.0961 13.1321 671 66.4471 423.38 528.411
589 0 55.0457 11.8629 653 67.1225 423.599 527.787
590 0 56.0709 12.2345 686 67.7755 423.755 524.679
591 0 56.1939 13.7737 774 66.0336 422.625 523.957
592 0 58.1309 13.7793 801 65.9276 422.82 523.242
593 0 61.1072 13.3699 817 66.3427 422.126 523.284
594 0 63.172 14.8009 935 64.692 422.437 521.481
595 0 63.2177 13.0818 827 67.2769 422.276 520.929
596 0 66.0862 13.664 903 66.6224 422.038 520.025
597 0 69.1192 12.8618 889 67.7278 422.172 520.13
598 0 71.1974 13.1044 933 67.6195 422.527 517.894
599 0 74.0644 13.4748 998 67.6172 423.266 515.279
600 0 75.0985 12.9563 973 68.556 422.793 515.887
601 0 77.0797 14.2969 1102 67.5771 422.064 513.912
602 0 82.1078 13.7015 1125 67.2951 422.926 514.98
603 0 82.1669 13.862 1139 68.0738 423.224 512.77
604 0 84.1587 15.0074 1263 66.92 422.804 511.926
605 0 86.0406 13.8074 1188 69.4815 423.099 511.156
606 0 91.1567 14.2831 1302 68.4224 423.33 509.066
607 1 47.0921 11.9128 561 70.2246 422.768 530.134
608 0 47.0178 13.1227 617 69.9449 423.125 528.447
609 0 48.0753 12.3556 594 69.8923 422.588 529.68
610 0 49.0427 12.8256 629 70.6025 422.321 525.471
611 0 50.0502 13.3866 670 69.7597 422.54 526.427
612 0 53.1039 13.483 716 69.5237 422.947 524.93
613 0 53.1861 12.5033 665 71.3203 422.88 525.075
614 0 55.2583 13.1926 729 70.0178 423.328 526.364
615 0 56.0512 13.3985 751 70.8043 423.991 524.911
616 0 61.0742 14.5397 888 68.893 424.03 520.779
617 0 62.1271 13.6494 848 70.184 423.857 522.443
618 0 64.0838 13.8257 886 69.7077 423.654 523.105
619 0 67.0882 15.7852 1059 67.509 422.896 519.896
620 0 68.0714 14.5289 989 69.7958 422.6 517.438
621 0 72.0991 14.272 1029 69.4956 423.227 518.523
622 0 73.3866 13.2994 976 71.3115 423.473 517.324
623 0 75.094 14.089 1058 70.0822 423.434 517.342
624 0 79.1686 14.1091 1117 69.9069 423.87 515.61
625 0 82.0783 15.7045 1289 68.2079 423.662 513.391
626 0 83.297 13.4219 1118 71.4088 422.621 513.709
627 0 86.0931 14.3914 1239 70.7175 422.935 508.367
628 0 89.1462 17.1067 1525 66.8787 423.158 510.209
629 0 91.1448 13.8132 1259 70.9841 422.757 510.102
630 0 94.1692 14.3678 1353 71.1463 422.575 507.851
631 1 51.1875 12.8547 658 69.1337 423.017 528.533
632 0 51.1241 12.7728 653 70.4854 423.404 526.579
633 0 55.0534 12.7149 700 69.7114 424.094 527.576
634 0 53.2005 11.654 620 72.6403 423.945 527.021
635 0 55.192 13.4983 745 71.2456 423.408 523.29
636 0 59.1012 13.4515 795 69.6931 423.272 523.833
637 0 61.1282 12.8419 785 69.1287 423.665 525.957
638 0 62.1258 12.1045 752 71.5665 424.213 521.996
639 0 64.1443 13.2981 853 69.803 423.675 521.667
640 0 67.1142 12.0392 808 71.9418 423.302 519.611
641 0 67.0798 13.1187 880 71.9216 423.942 517.862
642 0 70.1001 12.1683 853 73.2192 423.374 515.32
643 0 74.175 13.2524 983 71.0427 423.373 518.203
644 0 74.1928 11.1197 825 75.0242 422.905 514.219
645 0 78.1123 12.6741 990 71.8697 422.778 517.002
646 0 78.0682 11.016 860 74.5384 422.49 514.476
647 0 83.1938 11.7196 975 73.7415 422.176 511.931
648 1 44.1139 11.5837 511 71.1585 423.288 531.773
649 0 44.0434 10.9665 483 73.0124 423.373 530.037
650 0 47.0734 12.4699 587 70.5162 423.513 530.716
651 0 48.1328 13.0265 627 70.4944 424.01 527.931
652 0 50.083 12.02 602 71.4767 423.196 526.816
653 0 48.0839 12.083 581 71.9535 423.909 525.091
654 0 52.0623 11.6591 607 71.3954 423.372 525.659
655 0 55.1736 12.5604 693 69.5685 423.447 526.449
656 0 58.1035 13.5964 790 68.4722 423.381 524.386
657 0 58.1459 12.675 737 69.8209 423.463 524.271
658 0 60.0752 12.7174 764 68.4319 423.834 526.335
659 0 62.1742 11.2426 699 71.2032 422.444 522.282
660 0 66.1699 12.5737 832 69.0228 423.125 521.541
661 0 67.0745 11.927 800 69.645 422.994 520.309
662 0 69.1192 13.1946 912 68.2511 423.114 519.058
663 0 72.1326 12.1997 880 68.6489 423.235 519.632
664 0 73.1383 11.7039 856 71.132 423.072 513.319
665 1 36.1445 9.93235 359 68.883 423.304 534.532
666 0 38.1297 10.8839 415 68.6048 423.783 531.961
667 0 41.1264 10.5771 435 68.5034 422.791 534.223
668 0 41.0883 12.1202 498 67.6024 423.49 531.926
669 0 42.119 10.9927 463 69.3888 423.296 530.233
670 0 44.055 11.3494 500 68.88 423.464 530.45
671 0 46.1793 11.3471 524 67.8435 423.353 529.282
672 0 47.058 12.219 575 67.1217 423.904 529.604
673 0 50.1349 11.5289 578 67.3132 423.696 527.735
674 0 51.1239 11.521 589 66.8947 423.682 525.941
675 0 50.1137 10.7755 540 68.5296 423.93 526.811
676 0 53.1499 11.9662 636 66.7814 423.307 525.612
677 0 56.0839 11.6254 652 67.4709 423.222 524.952
678 0 57.0624 12.5652 717 66.1269 422.848 524.05
679 0 58.068 11.4177 663 67.4329 423.79 524.643
680 0 60.1822 12.4455 749 65.9359 423.848 523.872
681 0 63.0839 12.523 790 65.8835 423.585 521.905
682 0 65.1256 13.2974 866 65.0196 424.103 518.731
683 0 66.0742 11.3357 749 67.8478 424.557 519.551
684 0 69.097 12.7936 884 65.9559 423.893 517.255
685 0 72.1051 11.7745 849 67.1472 424.101 518.666
686 0 71.1785 12.4757 888 66.5169 423.854 517.266
687 1 38.0425 11.2243 427 66.2201 424.445 532.056
688 0 40.0729 10.5308 422 67.1588 424.085 533.149
689 0 40.0492 12.21 489 65.8487 424.892 532.074
690 0 40.0548 11.5342 462 67.1645 424.405 530.608
691 0 42.061 11.7686 495 66.5717 424.727 531.846
692 0 47.0943 13.0164 613 64.2235 424.659 531.188
693 0 47.028 12.0992 569 65.645 424.149 531.028
694 0 48.0536 12.0074 577 65.3206 423.718 530.031
695 0 49.0989 11.1815 549 66.2696 424.055 531.148
696 0 52.1184 12.3757 645 64.9519 423.498 529.857
697 0 53.1036 11.8824 631 66.2932 423.502 527.865
698 0 54.046 11.6567 630 66.6397 424.062 527.946
699 0 57.1338 13.0746 747 64.4578 423.426 526.128
700 0 58.1201 12.6118 733 64.4516 423.286 525.454
701 0 59.1443 11.3451 671 66.9091 423.735 522.344
702 0 61.0502 12.9402 790 63.8468 423.567 523.622
703 0 61.079 11.8699 725 66.2303 422.95 521.574
704 0 67.1089 14.3796 965 61.8694 422.783 519.59
705 0 68.0987 12.5406 854 64.2482 422.234 517.41
706 0 72.0981 12.8159 924 62.9794 423.413 520.206
707 0 71.0473 12.4283 883 65.3307 422.539 514.091
708 0 74.063 11.6657 864 65.831 423.49 516.052
709 0 77.1169 12.1504 937 65.3757 423.636 515.358
710 0 79.1243 12.474 987 65.7052 423.589 513.991
711 1 41.0277 11.0413 453 66.0132 424.51 532.355
712 0 42.0728 11.5514 486 66.8539 423.84 530.212
713 0 45.0461 13.4307 605 62.4826 424.099 532.37
714 0 45.1658 10.2733 464 67.1401 423.707 531.218
715 0 46.1058 11.6688 538 65.2993 423.842 531.507
716 0 46.0339 11.7088 539 65.5974 424.004 529.683
717 0 51.0233 11.289 576 65.7639 424.398 528.128
718 0 51.1022 12.6413 646 64.2322 423.669 527.444
719 0 52.0491 13.2375 689 63.3382 423.819 527.24
720 0 54.1838 12.5314 679 63.7423 424.001 527.175
721 0 57.1136 12.2913 702 63.7593 423.251 525.197
722 0 59.0474 13.2605 783 62.4738 423.038 523.692
723 0 60.2018 12.0428 725 63.9503 422.488 524.539
724 0 63.0945 13.979 882 60.7744 423.08 523.15
725 0 64.1321 11.8505 760 63.4368 422.505 521.334
726 0 65.1686 13.0431 850 61.7035 422.514 522.718
727 0 66.1274 10.9939 727 64.6644 423.417 519.607
728 0 70.2081 12.9472 909 61.7008 423.052 518.985
729 0 70.2145 9.96945 700 65.5157 422.493 518.421
730 0 75.1541 12.6673 952 61.9002 422.755 518.158
731 0 77.1914 12.1646 939 62.2109 422.429 517.289
732 0 78.1103 12.8408 1003 62.326 422.191 513.617
733 0 80.0548 11.8419 948 63.5665 422.607 512.662
734 0 83.0533 12.3535 1026 62.8168 422.966 512.662
735 0 87.2206 11.19 976 64.0389 423.497 510.973
736 1 44.0652 12.1184 534 62.339 423.26 530.494
737 0 48.0652 10.9643 527 62.7628 423.474 530.374
738 0 48.0567 11.8194 568 62.3908 423.178 530.5
739 0 50.0908 13.8748 695 60.4676 422.944 529.396
740 0 50.0807 11.8209 592 63.223 423.066 530.402
741 0 52.1195 12.3946 646 62.8529 423.059 526.95
742 0 54.0352 14.1389 764 60.6518 423.072 526.817
743 0 56.0436 14.4352 809 59.754 422.865 527.728
744 0 59.0935 13.7748 814 60.4656 422.511 523.975
745 0 60.1621 13.2309 796 60.6533 422.352 525.01
746 0 61.0419 12.7945 781 62.146 422.821 523.224
747 0 64.0616 13.0812 838 61.4129 422.501 522.088
748 0 64.2085 12.4283 798 62.1704 421.909 522.635
749 0 68.0935 13.6724 931 60.2556 422.834 521.126
750 0 65.1854 11.3369 739 64.2571 423.425 518.821
751 0 71.0784 12.7887 909 61.4191 422.931 519.644
752 0 74.1339 11.9244 884 62.448 422.198 518.893
753 0 79.1153 13.2844 1051 60.6489 422.827 517.756
754 0 79.1391 13.0782 1035 61.5565 422.418 514.555
755 0 80.1754 11.5621 927 63.3474 422.672 515.562
756 0 84.185 13.2803 1118 60.4848 422.792 515.861
757 0 88.0717 12.3876 1091 61.8378 422.449 512.589
758 1 45.0769 11.7355 529 61.2098 423.388 533.809
759 0 47.0136 12.7835 601 60.4792 423.745 532.552
760 0 49.0694 13.165 646 60.8282 423.211 530.116
761 0 50.0727 13.5403 678 59.997 422.785 528.578
762 0 52.0902 13.5918 708 59.6582 422.976 529.483
763 0 54.1652 13.865 751 59.2011 423.13 530.381
764 0 54.0515 12.2476 662 61.4955 423.335 528.263
765 0 57.0803 15.9425 910 57.144 422.401 525.931
766 0 58.0515 14.5905 847 58.5868 422.269 523.929
767 0 60.0331 14.9251 896 58.0692 422.605 524.938
768 0 63.1064 14.8638 938 57.6546 421.494 524.371
769 0 61.1462 12.4946 764 60.8024 421.478 521.889
770 0 66.0678 15.2873 1010 58.2059 422.395 520.605
771 0 69.0631 14.2623 985 58.8741 422.674 521.49
772 0 70.0456 14.5905 1022 58.9834 422.25 519.74
773 0 74.0486 12.8294 950 60.3737 422.427 519.277
774 0 76.1119 13.3094 1013 60.2014 422.492 519.12
775 0 80.1512 13.0379 1045 60.7722 422.651 516.313
776 0 79.0388 12.7026 1004 61.6544 422.495 514.794
777 0 86.0709 14.5578 1253 58.8691 422.762 516.341
778 0 87.0772 13.1607 1146 60.8665 422.214 515.366
779 0 90.1218 13.6704 1232 60.7021 422.603 511.571
780 0 92.0968 13.8767 1278 61.2019 422.322 509.645
781 1 45.1248 11.856 535 61.9215 422.176 534.968
782 0 47.0581 11.3264 533 62.9043 422.557 533.679
783 0 48.0426 13.2799 638 61.71 422.967 532.337
784 0 49.0644 12.8403 630 62.6159 422.589 529.349
785 0 50.0561 12.446 623 63.0064 422.95 528.31
786 0 54.055 14.6518 792 60.0038 422.92 526.6
787 0 54.091 12.3126 666 62.8754 423.324 528.051
788 0 55.0348 13.7731 758 61.3747 422.608 527.471
789 0 57.0798 13.0694 746 61.7547 422.284 527.332
790 0 59.094 13.5885 803 61.9153 421.615 525.522
791 0 60.1442 14.8975 896 60.8058 422.613 523.78
792 0 64.0514 15.0504 964 59.805 422.01 522.456
793 0 63.0953 13.9313 879 61.6826 422.379 523.018
794 0 68.1128 14.0796 959 61.146 423.178 518.702
795 0 69.0522 13.6274 941 62.1254 423.262 518.346
796 0 71.1977 13.0763 931 62.9098 422.444 520.307
797 0 72.1792 13.1755 951 62.674 422.539 519.141
798 0 74.1846 13.736 1019 62.265 423.203 517.855
799 0 78.1305 14.5654 1138 61.1046 423.063 515.652
800 0 82.1026 12.6549 1039 62.8681 423.152 513.794
801 0 85.122 14.1796 1207 61.6181 423.075 511.291
802 0 90.1372 14.4779 1305 60.9318 422.451 512.559
803 0 91.0678 14.7033 1339 60.8581 423.229 511.667
804 0 94.2038 13.7362 1294 62.2937 423.22 508.342
805 0 96.2004 11.7983 1135 63.4203 422.75 511.685
806 1 51.0393 12.1671 621 62.3011 423.158 529.411
807 0 52.0657 12.8684 670 62.3134 422.769 528.713
808 0 51.0796 14.6634 749 61.6782 422.172 527.182
809 0 55.133 13.6397 752 62.004 422.368 527.455
810 0 56.0387 13.223 741 62.5803 423.169 525.34
811 0 58.0915 12.618 733 62.8595 423.356 526.858
812 0 59.0744 11.9849 708 63.1864 423.85 526.98
813 0 62.1449 13.8708 862 61.2378 423.092 523.734
814 0 65.131 13.588 885 61.4689 422.83 523.468
815 0 66.0415 12.2196 807 63.0099 423.13 522.766
816 0 67.0276 11.1745 749 64.1696 423.111 522.909
817 0 71.0587 12.9048 917 62.3501 422.87 521.874
818 0 74.1499 13.7424 1019 61.8989 422.331 519.482
819 0 76.0766 12.632 961 63.1623 422.344 517.528
820 0 77.1092 13.3188 1027 62.8286 423.706 516.677
821 0 81.1674 12.7268 1033 63.1733 423.46 516.214
822 0 84.1199 14.6814 1235 61.298 423.189 511.846
823 0 86.1687 12.3131 1061 64.1301 422.846 511.585
824 1 46.0691 12.5247 577 62.2565 423.036 533.094
825 0 48.3027 12.9807 627 61.9171 422.911 530.517
826 0 48.1187 10.1416 488 64.4693 422.35 530.656
827 0 50.0344 11.3522 568 63.2658 422.384 530.438
828 0 53.056 12.7224 675 61.6978 422.561 528.256
829 0 55.0265 12.5576 691 61.7207 422.857 528.347
830 0 57.1171 13.8137 789 60.2395 422.655 526.228
831 0 57.0322 13.6064 776 61.2461 423.183 526.381
832 0 60.2129 13.0703 787 61.0483 423.168 527.05
833 0 59.1383 10.467 619 64.0711 422.499 525.821
834 0 64.1056 13.1658 844 61.2192 422.495 524.797
835 0 66.1772 13.7056 907 60.8214 422.289 521.66
836 0 67.1803 12.9353 869 61.4108 422.746 522.581
837 0 79.3061 13.7947 1094 45.8949 422.275 529.038
838 0 73.1043 13.6107 995 61.1568 422.64 519.783
839 0 76.0703 13.5664 1032 61.0329 423.035 518.28
840 0 80.0559 13.653 1093 61.1427 422.544 518.056
841 0 83.0764 14.4205 1198 60.4457 422.669 515.375
842 0 83.0863 14.2984 1188 61.6742 422.962 512.919
843 0 86.0973 13.1363 1131 62.5464 422.722 514.725
844 1 46.0308 12.2744 565 62.0372 422.533 533.68
845 0 48.0238 13.0977 629 61.5803 423.219 531.437
846 0 48.0702 12.981 624 62.0256 423.43 533.474
847 0 49.1516 12.0851 594 63.1734 422.293 531.852
848 0 52.033 12.9149 672 62.503 422.781 530.262
849 0 54.016 12.6999 686 63.363 422.985 527.793
850 0 58.0756 13.4135 779 61.4082 422.644 529.701
851 0 59.0885 14.0129 828 61.3647 422.656 527.097
852 0 60.1071 12.511 752 63.2646 422.569 524.512
853 0 61.1554 15.5342 950 60.2947 422.908 522.983
854 0 63.1409 12.6384 798 63.2055 422.214 522.185
855 0 66.0902 12.6796 838 62.8699 421.981 523.922
856 0 68.0755 13.1031 892 62.1895 422.288 523.863
857 0 70.0662 12.3026 862 63.5371 422.311 520.947
858 0 72.1215 14.0457 1013 62.4877 422.425 518.447
859 0 74.0567 13.2871 984 63.4177 423.159 517.882
860 0 78.1752 13.0476 1020 62.8451 423.024 520.21
861 0 79.0892 11.9233 943 66.3139 423.484 517.081
862 0 83.0815 12.9993 1080 65.4861 422.899 514.981
863 1 44.0192 11.5404 508 63.876 423.264 537.571
864 0 47.1435 13.1725 621 62.4525 422.465 535.382
865 0 44.0208 13.1074 577 64.5251 422.315 535.102
866 0 47.0738 13.0646 615 64.4602 423.05 531.797
867 0 48.0906 13.8489 666 63.5796 423.02 532.318
868 0 47.1223 12.4782 588 65.5935 423.702 532.352
869 0 51.0656 13.5708 693 64.3276 423.557 528.074
870 0 52.0596 10.8721 566 66.8428 423.525 531.318
871 0 55.0418 13.2263 728 64.2102 422.955 529.529
872 0 56.0745 12.7152 713 65.1837 423.16 528.386
873 0 58.0526 14.1424 821 63.665 423.37 526.868
874 0 59.0624 15.3228 905 62.1315 423.618 526.125
875 0 62.1531 13.7403 854 63.856 423.351 523.687
876 0 63.0597 15.3822 970 62.3773 422.807 523.487
877 0 66.1162 12.4175 821 65.2278 423.06 523.029
878 0 68.07 13.0601 889 63.9325 423.216 524.505
879 0 70.0755 12.4437 872 64.5505 423.139 521.987
880 0 74.0974 13.0774 969 64.2735 422.487 521.477
881 0 76.2319 13.3933 1021 63.9922 422.265 519.578
882 0 79.108 13.4879 1067 64.0881 422.023 518.842
883 0 82.1834 13.2995 1093 64.1921 423.201 517.994
884 0 82.1492 13.9259 1144 64.2946 423.552 517.038
885 0 85.16 14.9248 1271 63.5728 422.982 514.661
886 0 88.1107 12.5864 1109 66.7827 423.995 511.641
887 1 44.0358 12.9894 572 64.2535 424.341 534.259
888 0 43.0305 10.9225 470 67.4511 423.57 533.851
889 0 48.1938 13.4457 648 63.1034 424.063 534.756
890 0 47.01 11.3806 535 65.4953 424.189 535.559
891 0 51.1215 13.6733 699 63.3519 424.634 532.369
892 0 48.1386 10.6775 514 67.2549 423.895 532.883
893 0 53.0737 12.1152 643 65.7387 424.034 531.648
894 0 53.0816 14.3552 762 63.2756 423.518 530.18
895 0 55.1685 13.5947 750 64.3267 424.081 527.899
896 0 58.0275 12.5975 731 65.6635 424.245 526.628
897 0 60.1628 12.3498 743 66.0377 423.813 526.05
898 0 62.034 14.5404 902 63.4723 423.914 526.749
899 0 62.105 15.0068 932 63.765 424.535 525.236
900 0 63.0681 11.4797 724 67.6754 424.163 525.221
901 0 67.0673 12.0029 805 67.6745 424.06 522.125
902 0 70.0848 13.1555 922 66.2408 423.475 521.899
903 0 73.2015 12.7593 934 66.0225 423.95 523.758
904 0 74.1132 14.7477 1093 64.8783 423.471 522.431
905 0 73.231 12.0441 882 69.3923 424.211 520.268
906 1 38.0402 12.7497 485 67.3608 423.909 535.15
907 0 42.0988 13.3971 564 65.4114 423.959 536.044
908 0 42.0424 13.7005 576 65.2951 424.483 536.88
909 0 42.0327 13.9891 588 66.7398 424.372 536.119
910 0 44.1398 13.276 586 67.3345 424.502 536.253
911 0 43.0458 12.6145 543 69.1731 424.19 535.11
912 0 46.0483 13.0081 599 69.7496 425.282 532.436
913 0 48.0657 12.1916 586 68.8345 425.048 535.324
914 0 47.0535 12.6877 597 69.0302 424.749 534.464
915 0 51.0492 13.8494 707 66.8826 424.05 533.171
916 0 53.0229 12.5983 668 67.4416 423.766 533.169
917 0 53.1034 13.1253 697 67.8809 424.231 531.789
918 0 53.0754 14.7149 781 65.9398 424.262 531.969
919 0 57.1668 14.4315 825 66.0836 424.41 529.482
920 0 56.105 12.9757 728 68.842 424.06 528.846
921 0 58.0514 12.7301 739 68.4682 423.616 529.252
922 0 62.0901 14.1891 881 66.2191 424.018 529.121
923 0 61.1867 12.47 763 68.9934 424.266 527.291
924 0 63.0748 10.9552 691 70.9349 423.449 527.067
925 0 66.1805 12.7228 842 69.3729 423.7 525.34
926 0 68.087 11.3678 774 70.9173 423.233 526.808
927 0 71.2239 13.4225 956 69.6496 423.482 522.694
928 0 70.133 11.578 812 73.1084 423.974 521.948
929 0 76.1228 13.1629 1002 70.9461 424.189 522.116
930 0 76.2598 11.828 902 73.7073 423.021 519.687
931 1 45.2368 12.0698 546 71.2637 422.941 536.454
932 0 44.037 12.2851 541 72.9002 423.118 534.248
933 0 46.0887 12.5627 579 71.8307 423.088 534.516
934 0 45.2043 12.6537 572 73.2203 423.575 534.206
935 0 50.1729 12.6164 633 72.2338 423.608 533.221
936 0 49.1986 12.0532 593 74.8988 423.322 531.885
937 0 52.0823 12.6146 657 74.032 424.129 530.104
938 0 55.1472 12.8202 707 73.8345 424.089 529.639
939 0 56.1448 14.3735 807 71.1809 423.544 528.569
940 0 55.1318 11.3546 626 76.6534 423.682 527.126
941 0 59.1145 12.6365 747 74.5114 424.199 527.055
942 0 62.119 13.0234 809 73.958 423.325 525.892
943 0 63.0793 13.7129 865 74.0775 423.095 521.465
944 0 67.1087 14.022 941 72.7205 423.968 523.453
945 0 69.1956 13.2812 919 74.1643 423.624 522.739
946 0 69.0767 12.4934 863 75.2236 423.629 522.2
947 0 72.091 13.5662 978 73.9642 423.742 520.408
948 0 74.1426 13.3257 988 74.8198 424.023 518.954
949 0 76.1168 13.8471 1054 74.3776 423.912 518.356
950 0 77.1038 13.216 1019 75.9127 424.516 516.089
951 1 42.1138 12.0151 506 74.5376 425.328 534.093
952 0 42.0932 12.8999 543 74.6427 425.007 533.499
953 0 43.1326 12.6355 545 74.6606 424.072 532.593
954 0 46.0261 12.406 571 74.1296 424.289 533.317
955 0 45.2138 11.6115 525 75.7181 424.12 531.943
956 0 49.2878 12.214 602 74.2658 423.429 530.978
957 0 51.1316 12.9079 660 73.4833 423.879 529.289
958 0 51.1489 12.7471 652 73.9003 423.629 528.781
959 0 54.1173 13.4707 729 72.8903 422.605 526.812
960 0 56.0509 13.4878 756 72.2222 422.75 526.639
961 0 57.0741 11.4062 651 74.404 423.184 524.607
962 0 59.1863 14.2601 844 69.9431 423.505 525.842
963 0 63.2406 11.7488 743 72.3607 424.063 524.096
964 0 64.1108 13.4767 864 70.1678 424.4 524.122
965 0 67.1798 12.3549 830 70.1253 423.993 524.322
966 0 68.1084 13.4638 917 69.8964 423.876 518.505
967 0 72.0706 13.4313 968 67.9008 424.449 521.843
968 0 74.0735 12.8791 954 68.956 423.735 520.4
969 0 75.0925 11.5857 870 71.7172 423.891 516.421
970 0 76.0802 11.2119 853 71.544 423.601 517.016
971 0 80.1328 13.4776 1080 68.7472 424.302 514.536
972 0 84.1024 13.6381 1147 68.6277 424.63 513.721
973 1 46.2312 14.2545 659 65.0759 424.859 532.892
974 0 46.0589 12.7446 587 67.4429 424.613 533
975 0 45.1065 10.2646 463 71.6847 424.981 531.063
976 0 50.0559 12.6658 634 67.2366 424.573 531.069
977 0 50.1932 11.7944 592 69.3024 424.198 528.49
978 0 53.2465 12.0571 642 67.9922 424.953 529.956
979 0 53.0543 13.0244 691 67.9074 425.965 529.269
980 0 55.0945 14.5387 801 65.8077 424.677 526.7
981 0 57.1853 12.8005 732 67.776 424.41 527.475
982 0 57.0721 13.0011 742 67.4569 423.708 526.276
983 0 60.1049 14.092 847 66.2834 423.838 524.705
984 0 61.1338 12.0719 738 69.6504 424.21 524.744
985 0 65.0905 14.0266 913 67.3198 424.793 521.724
986 0 65.1686 14.0405 915 67.3355 424.322 521.237
987 0 68.0708 13.5594 923 68.6306 423.901 520.261
988 0 72.1414 12.7389 919 68.4015 423.455 521.524
989 0 73.1482 13.4658 985 68.269 423.576 519.375
990 0 76.0806 13.7223 1044 68.0795 424.09 517.884
991 0 80.0519 13.8285 1107 67.4697 423.868 517.099
992 0 82.1702 13.8371 1137 68.2762 424.02 515.477
993 0 85.0987 12.8557 1094 69.3126 424.593 514.479
994 1 42.0552 11.794 496 69.8246 425.008 533.504
995 0 44.193 12.8753 569 68.5395 424.069 530.654
996 0 44.1179 12.4666 550 69.6636 423.871 532.096
997 0 47.055 13.1336 618 68.856 424.856 530.612
998 0 49.1902 12.0553 593 70.0051 423.951 529.806
999 0 53.1193 12.5755 668 69.3698 423.99 529.299
1000 0 52.0585 12.5628 654 70 424.075 527.612
1001 0 56.084 14.1217 792 66.9331 424.441 527.206
1002 0 55.1765 13.484 744 68.8159 424.25 527.465
1003 0 57.1586 13.3838 765 68.4536 424.417 528.461
1004 0 59.1321 13.7996 816 68.3971 424.732 526.092
1005 0 62.0866 12.9497 804 69.2649 424.555 525.762
1006 0 63.0751 14.0943 889 67.91 423.834 524.75
1007 0 65.1606 14.8249 966 67.2267 424.15 522.577
1008 0 66.1499 13.4392 889 68.9989 423.537 521.18
1009 0 69.1384 14.782 1022 67.2857 423.428 522.433
1010 0 68.1201 12.8303 874 71.1407 423.333 519.667
1011 0 73.1542 14.0115 1025 68.4195 423.671 520.633
1012 0 73.1792 12.9135 945 69.8614 423.775 520.433
1013 0 77.1303 13.0947 1010 70.2307 424.069 515.959
1014 0 79.3904 15.2537 1211 66.237 423.474 518.489
1015 0 81.0425 13.8199 1120 68.7964 422.725 512.323
1016 0 83.2254 14.7191 1225 67.3176 422.995 514.205
1017 0 86.1405 14.2326 1226 68.2374 423.23 510.892
1018 1 45.1059 13.5459 611 67.018 423.877 532.288
1019 0 49.2283 11.274 555 69.0721 423.681 530.946
1020 0 50.3007 11.9481 601 68.569 422.521 531.712
1021 0 49.1346 11.2345 552 69.6775 422.601 529.85
1022 0 52.1474 11.6976 610 68.7607 422.667 529.115
1023 0 54.087 14.0884 762 66.0761 422.828 528.52
1024 0 55.0391 11.7008 644 69.1429 422.162 526.792
1025 0 58.0466 11.4046 662 68.7326 422.02 525.909
1026 0 60.1862 11.5641 696 67.7299 422.838 527.53
1027 0 63.0685 13.0334 822 66.5535 423.198 525.467
1028 0 64.1663 11.4546 735 69.0231 422.944 522.882
1029 0 66.0728 11.9565 790 68.2051 422.76 524.384
1030 0 67.3268 13.9766 941 66.3592 422.459 520.826
1031 0 69.0643 12.93 893 67.776 422.084 521.522
1032 0 71.2222 12.3276 878 68.1014 422.336 520.821
1033 0 76.2214 11.5322 879 68.8282 422.556 519.495
1034 0 76.2733 14.3825 1097 66.2461 421.886 516.646
1035 0 79.0557 13.1679 1041 67.1787 421.837 516.462
1036 0 83.1184 11.9348 992 68.3538 421.846 517.222
1037 1 45.1024 11.8176 533 66.1144 422.548 535.326
1038 0 44.0765 12.3649 545 67.3927 421.585 532.161
1039 0 47.2369 10.7755 509 68.7642 422.108 533.153
1040 0 47.0761 11.8319 557 67.4632 422.092 533.149
1041 0 47.0629 12.9401 609 67.1954 421.814 529.765
1042 0 50.0684 11.5442 578 68.2457 421.881 529.379
1043 0 51.0426 11.4218 583 68.5506 422.372 528.161
1044 0 54.0747 12.3533 668 66.9162 422.009 527.478
1045 0 55.0433 12.7173 700 66.4943 421.67 527.044
1046 0 55.0298 11.1758 615 68.6911 421.88 525.423
1047 0 60.1757 13.1947 794 65.1675 421.426 527.406
1048 0 60.0655 11.6706 701 67.8046 421.964 523.156
1049 0 66.1114 13.2806 878 64.4271 422.318 524.757
1050 0 67.194 12.8434 863 65.5075 421.634 523.181
1051 0 68.1606 12.0011 818 66.8765 421.703 521.877
1052 0 71.0968 12.1243 862 65.9594 421.042 521.188
1053 0 73.1576 12.2339 895 66.2872 421.391 519.85
1054 0 75.2433 12.0808 909 66.8999 421.448 518.163
1055 0 79.1351 13.5338 1071 64.648 421.387 518.558
1056 0 80.0749 12.5383 1004 66.7151 421.919 513.287
1057 0 82.2316 10.8717 894 68.3344 421.888 513.33
1058 0 85.0588 13.4613 1145 65.5773 422.099 509.587
1059 1 42.0946 12.7095 535 63.4355 421.841 534.437
1060 0 46.1041 11.5608 533 65.1707 421.259 532.884
1061 0 46.0349 10.2097 470 67.166 421.56 533.566
1062 0 48.1263 11.6776 562 65.5445 421.738 531.356
1063 0 50.1137 11.3143 567 65.5256 422.166 530.004
1064 0 52.0935 12.4776 650 63.8338 421.697 532.212
1065 0 54.1737 12.22 662 64.2553 422.846 530.856
1066 0 54.1559 12.741 690 64.2623 422.788 527.172
1067 0 54.1312 10.7886 584 66.2038 422.358 528.682
1068 0 58.2966 11.047 644 65.1786 422.505 527.216
1069 0 59.1246 13.6491 807 61.9145 422.188 527.25
1070 0 61.1129 11.9451 730 64.4397 422.167 524.164
1071 0 65.2046 12.7292 830 62.4241 421.093 525.099
1072 0 62.1185 11.4459 711 65.256 422.43 521.872
1073 0 69.1298 12.1944 843 63.4069 422.747 522.165
1074 0 70.204 11.2102 787 64.3164 422.203 521.342
1075 0 72.1763 11.943 862 63.4838 422.346 518.658
1076 0 77.0843 12.4409 959 62.2419 422.492 519.366
1077 0 79.1622 12.7839 1012 62.1186 423.199 518.189
1078 0 83.1805 12.5751 1046 61.7782 423.15 516.503
1079 0 85.1183 12.7705 1087 62.126 423.359 515.075
1080 1 42.0735 11.2422 473 61.26 422.188 536.524
1081 0 43.159 10.9131 471 62.9894 423.006 533.626
1082 0 44.073 10.891 480 62.6083 422.431 535.119
1083 0 46.0818 12.391 571 61.352 422.208 533.881
1084 0 50.0896 13.0566 654 59.9327 423.003 531.038
1085 0 51.0545 13.1232 670 60.3851 423.442 532.012
1086 0 51.0543 11.2038 572 62.5297 422.907 531.946
1087 0 52.1008 12.3798 645 61.831 422.38 531.619
1088 0 55.0572 13.15 724 60.7859 422.689 528.54
1089 0 55.148 12.0947 667 62.6972 423.778 528.204
1090 0 58.0812 13.1368 763 61.1062 423.139 527.325
1091 0 60.1282 12.939 778 61.7134 422.542 524.185
1092 0 63.0539 12.7351 803 61.3624 422.359 526.922
1093 0 61.1318 11.5979 709 63.7475 422.676 523.274
1094 0 65.1402 13.847 902 60.7439 422.279 522.263
1095 0 68.2321 12.8092 874 61.6545 422.609 521.333
1096 0 71.1556 13.1121 933 61.0279 422.506 521.358
1097 0 72.0538 14.0451 1012 60.5494 422.854 520.171
1098 0 75.0976 14.6609 1101 59.792 423.081 517.213
1099 0 78.2065 15.2929 1196 58.8252 423.441 516.114
1100 0 82.1192 12.8837 1058 61.0246 423.394 518.008
1101 1 40.036 12.9883 520 60.3423 423.383 536.729
1102 0 41.0467 11.7427 482 61.9792 422.662 533.087
1103 0 44.035 10.4917 462 63.3398 422.377 534.184
1104 0 44.0625 15.2284 671 59.3607 422.994 532.714
1105 0 47.1135 12.6078 594 61.1784 422.832 534.056
1106 0 49.1419 12.6776 623 61.0401 422.856 533.308
1107 0 48.0242 12.4312 597 62.5092 423.079 530.09
1108 0 51.075 13.6466 697 61.2984 423.113 530.445
1109 0 53.2387 13.6179 725 60.8772 423.171 528.513
1110 0 55.1092 14.6618 808 59.5606 423.137 528.692
1111 0 56.0612 13.5031 757 60.7807 423.346 529.384
1112 0 58.1156 13.2667 771 61.1414 423.34 525.904
1113 0 61.0818 13.7848 842 60.823 423.476 525.929
1114 0 64.1198 14.3325 919 59.8596 423.195 524.933
1115 0 65.0432 12.7761 831 61.5487 422.671 524.88
1116 0 66.1872 13.069 865 61.6925 422.823 521.914
1117 0 70.113 13.2073 926 61.824 422.624 520.436
1118 0 72.0735 15.6923 1131 59.5128 423.403 517.053
1119 0 74.1353 13.3405 989 61.5046 422.787 518.641
1120 0 80.2575 14.8148 1189 59.3675 422.336 517.613
1121 0 82.2241 13.451 1106 61.1401 423 515.852
1122 0 82.1719 12.6199 1037 62.9653 422.997 513.332
1123 0 85.184 12.0093 1023 63.1828 422.734 512.546
1124 1 48.1573 12.6045 607 61.57 423.234 530.498
1125 0 49.153 12.4306 611 62.8314 424.036 529.267
1126 0 52.0957 12.2467 638 62.4655 423.494 530.903
1127 0 52.0822 12.7299 663 63.4691 422.721 526.201
1128 0 54.1415 13.594 736 62.9864 423.435 525.052
1129 0 57.0298 13.7121 782 62.289 423.357 524.366
1130 0 60.0869 14.2627 857 61.3512 423.244 523.762
1131 0 60.0861 13.3309 801 62.7416 423.205 521.928
1132 0 64.1876 13.7254 881 61.4756 423.595 523.718
1133 0 66.05 12.8993 852 62.5399 423.217 520.404
1134 0 68.2096 12.7401 869 62.4511 423.091 521.328
1135 0 69.12 12.9919 898 61.4788 422.846 521.437
1136 0 72.0758 13.9298 1004 61.2271 423.192 519.483
1137 0 75.1417 12.0306 904 62.4602 423.173 517.202
1138 0 79.0722 13.1273 1038 60.9181 423.631 517.381
1139 0 81.1342 13.6564 1108 61.1155 423.406 512.862
1140 0 83.132 14.7717 1228 60.2638 422.581 512.688
1141 0 88.0708 13.4778 1187 61.3168 422.835 510.2
1142 1 43.0953 10.8828 469 60.7612 423.32 534.286
1143 0 47.0317 12.7148 598 59.3646 423.742 531.4
1144 0 48.0708 14.4162 693 58.5628 423.876 529.818
1145 0 48.068 12.5239 602 60.8322 423.684 529.5
1146 0 49.1415 13.6951 673 59.9911 423.419 526.022
1147 0 51.083 14.2513 728 59.4904 424.066 525.444
1148 0 53.0669 14.5288 771 59.9326 423.817 525.165
1149 0 54.0828 11.7598 636 62.827 422.772 522.096
1150 0 58.1012 12.7192 739 60.7442 422.774 524.479
1151 0 58.1318 13.6586 794 60.8715 422.793 521.387
1152 0 59.0301 11.2824 666 62.9459 423.159 522.767
1153 0 63.0272 13.994 882 59.4546 423.77 522.795
1154 0 66.1025 14.5985 965 58.9181 423.968 519.306
1155 0 67.0796 13.9834 938 59.2154 424.081 519.922
1156 0 67.0816 13.2227 887 60.5502 423.193 516.802
1157 0 70.3495 13.5609 954 60.1981 422.777 514.16
1158 0 75.1645 15.3264 1152 57.7509 423.565 514.935
1159 0 75.0989 14.7672 1109 58.633 423.619 513.202
1160 0 78.1286 15.6665 1224 57.5948 423.467 511.257
1161 0 80.1329 13.2655 1063 60.3048 422.711 509.482
1162 0 84.1809 13.079 1101 59.7393 423.155 509.644
1163 0 90.0907 13.2866 1197 59.3041 423.043 505.919
1164 0 89.2486 13.8041 1232 59.5203 423.39 508.364
1165 1 48.132 12.1125 583 58.7427 423.16 528.832
1166 0 48.0188 11.8079 567 59.3739 422.892 528.499
1167 0 51.197 12.9109 661 58.6172 423.287 526.248
1168 0 51.1158 12.0902 618 59.754 423.403 525.72
1169 0 53.0415 12.7636 677 59.2201 423.743 523.558
1170 0 55.0975 12.7411 702 58.6168 423.711 524.933
1171 0 57.0317 11.4147 651 60.2811 423.296 524.737
1172 0 60.0698 13.0681 785 58.5274 423.4 525.261
1173 0 63.031 13.6124 858 58.4464 423.6 520.921
1174 0 61.1178 10.8152 661 61.9123 422.835 519.703
1175 0 64.1012 10.109 648 62.1127 422.431 520.571
1176 0 67.0764 13.2386 888 59.4189 423.516 517.709
1177 0 70.0742 12.287 861 60.4913 423.42 517.117
1178 0 73.0711 13.8906 1015 58.8414 423.817 517.663
1179 0 76.1891 13.5321 1031 59.3928 423.439 516.666
1180 0 79.1357 14.6078 1156 58.237 424.208 515.034
1181 0 81.1576 12.7037 1031 60.8312 422.839 514.344
1182 0 84.1369 13.0858 1101 60.9001 422.966 511.884
1183 1 42.0198 9.97149 419 61.4415 423.227 533.73
1184 0 46.0566 12.1155 558 59.3548 423.909 532.106
1185 0 45.223 12.4494 563 59.913 424.004 531.032
1186 0 48.0908 12.2477 589 59.3922 423.839 532.548
1187 0 49.086 12.6716 622 59.9518 423.625 529.251
1188 0 49.0936 10.9179 536 62.0056 424.052 528.569
1189 0 51.0824 11.7457 600 61.1067 423.677 528.408
1190 0 51.1491 11.2025 573 62.5218 423.806 527.316
1191 0 52.0319 12.5116 651 61.9232 423.644 526.091
1192 0 56.0774 12.8572 721 60.491 424.24 527.437
1193 0 60.0854 14.5792 876 58.3687 424.526 526.503
1194 0 60.1455 13.7167 825 60.1806 424.284 526.092
1195 0 62.0932 14.0917 875 59.5509 423.918 524.861
1196 0 65.2387 13.1824 860 60.6023 423.784 522.699
1197 0 66.043 11.977 791 62.3161 423.152 522.19
1198 0 70.0809 13.0706 916 60.643 423.044 522.805
1199 0 70.0926 13.7532 964 61.0954 423.043 519.626
1200 0 71.181 12.2645 873 63.1146 423.638 517.061
1201 1 36.061 12.562 453 61.0397 423.85 536.077
1202 0 35.1903 10.7132 377 63.9363 423.711 534.011
1203 0 40.27 10.6283 428 62.6706 423.682 534.811
1204 0 41.2869 12.1104 500 61.308 424.45 533.184
1205 0 43.2268 12.7236 550 60.0018 424.167 534.847
1206 0 44.171 12.5195 553 61.2278 424.288 530.823
1207 0 44.0538 11.2136 494 62.3522 424.085 533.231
1208 0 45.0666 10.2959 464 63.6034 424.078 531.185
1209 0 46.0565 12.9623 597 61.0904 423.935 530.405
1210 0 47.0527 13.793 649 61.1556 423.712 530.427
1211 0 51.1371 12.2612 627 61.7927 423.439 529.429
1212 0 53.1136 13.65 725 61.2497 423.818 525.044
1213 0 54.0784 12.26 663 62.4404 423.834 527.801
1214 0 57.1424 11.8476 677 63.0901 424.331 525.434
1215 0 57.1593 11.7741 673 62.8247 423.58 523.945
1216 0 59.1325 11.4996 680 63.3676 424.615 523.775
1217 0 62.0417 13.1041 813 61.5178 424.197 521.012
1218 0 64.1044 11.9648 767 62.9244 423.708 520.199
1219 0 69.0782 12.0298 831 61.5909 423.86 521.005
1220 0 70.0914 12.2982 862 61.7773 424.41 518.933
1221 0 73.1395 15.2448 1115 57.4592 424.601 518.998
1222 1 33.041 11.3193 374 60.3396 424.104 535.773
1223 0 38.0489 12.0109 457 58.7899 423.853 536.153
1224 0 38.0954 10.9724 418 60.2608 423.249 533.409
1225 0 39.0155 11.9183 465 59.3097 423.931 533.015
1226 0 40.0206 10.7944 432 60.5926 423.859 532.25
1227 0 42.0289 12.3487 519 58.6532 423.904 531.863
1228 0 42.0325 11.4197 480 60.2688 423.883 529.177
1229 0 43.05 10.8943 469 60.9488 423.414 528.974
1230 0 47.1237 11.0348 520 59.6385 423.69 528.827
1231 0 47.0464 11.4568 539 59.7755 423.529 526.104
1232 0 49.0413 12.1938 598 59.01 423.86 526.798
1233 0 50.0423 9.77174 489 60.6994 423.663 527.129
1234 0 51.067 9.10568 465 62.2667 423.68 524.452
1235 0 55.0606 12.5498 691 58.1997 423.385 522.638
1236 0 56.1346 11.4368 642 58.757 423.974 524.763
1237 0 59.0936 11.8456 700 58.71 423.33 521.817
1238 0 60.1092 11.9782 720 58.0806 423.347 521.868
1239 0 63.0906 11.6658 736 57.966 423.787 520.822
1240 0 66.0458 12.1128 800 57.7425 424.17 519.014
1241 0 68.0806 11.7655 801 57.8427 423.311 521.257
1242 0 68.0678 8.24178 561 61.7219 423.387 517.963
1243 0 71.1789 11.9136 848 58.5625 423.579 512.778
1244 0 75.1745 11.2937 849 58.8598 424.621 516.79
1245 0 76.1685 10.4111 793 60.1236 424.339 512.825
1246 0 80.1229 9.19837 737 60.6214 424.605 511.394
1247 1 39.0571 9.49892 371 57.4582 424.42 532.067
1248 0 38.0788 10.0318 382 57.9817 424.623 528.702
1249 0 41.0397 11.6716 479 56.0084 424.127 529.407
1250 0 45.103 11.2188 506 55.3182 424.265 530.68
1251 0 44.038 11.3084 498 56.2128 424.683 528.528
1252 0 45.1194 9.46378 427 58.2014 424.239 528.691
1253 0 48.0973 10.4788 504 57.121 423.724 527.686
1254 0 48.0261 11.8685 570 55.8123 423.632 528.767
1255 0 50.0627 11.5455 578 56.7612 422.933 525.033
1256 0 52.1679 11.3288 591 55.7276 422.77 526.58
1257 0 52.0426 10.7988 562 56.8381 423.198 525.575
1258 0 53.0309 11.333 601 56.7504 423.473 523.616
1259 0 54.0937 10.223 553 57.4864 424.123 524.978
1260 0 57.1682 12.0172 687 55.7394 424.229 523.202
1261 0 58.1102 11.9772 696 55.7529 423.681 520.057
1262 0 61.1358 10.5176 643 56.451 422.924 521.112
1263 0 63.1632 10.9399 691 55.8191 422.904 518.916
1264 0 65.1026 11.4435 745 55.5638 423.085 518.999
1265 0 67.2629 12.4586 838 54.6241 422.698 518.406
1266 0 68.2641 9.59509 655 57.5832 423.51 515.037
1267 0 71.1668 11.4941 818 55.9364 424.264 514.148
1268 0 74.0868 11.8645 879 55.1866 423.059 514.221
1269 1 33.0187 8.32863 275 56.4873 423.487 533.56
1270 0 37.0781 11.4353 424 53.1038 422.578 531.392
1271 0 37.0428 9.6105 356 55.118 423.298 531.587
1272 0 39.1237 10.4796 410 53.8976 422.627 528.88
1273 0 39.0648 9.11306 356 55.4551 421.924 529.36
1274 0 42.0693 10.554 444 53.6194 422.937 530.586
1275 0 41.1285 9.89582 407 54.4398 422.698 532.494
1276 0 43.0173 9.92623 427 55.2061 422.019 528.105
1277 0 47.0597 11.0073 518 53.6853 423.035 527.981
1278 0 47.0452 9.45899 445 55.573 423.506 525.562
1279 0 48.1279 9.78643 471 55.2314 423.151 527.187
1280 0 50.0378 9.61273 481 54.5031 423.052 528.443
1281 0 49.0891 9.24848 454 55.5683 422.925 525.211
1282 0 52.0833 10.5024 547 54.9086 423.536 521.168
1283 0 54.0997 10.4437 565 54.7451 423.699 521.71
1284 0 56.1042 12.5124 702 52.9216 423.427 520
1285 0 58.097 12.5308 728 52.7706 424.151 521.051
1286 0 62.1123 11.4631 712 53.2584 424.216 521.5
1287 0 63.1628 11.9374 754 53.2281 423.927 517.011
1288 0 64.0911 10.8907 698 53.8224 423.58 520.328
1289 0 65.1446 8.73442 569 56.2162 422.928 518.346
1290 1 30.0569 8.25102 248 54.8548 423.419 532.601
1291 0 34.0526 11.2767 384 51.7943 423.828 531.727
1292 0 33.0477 8.32132 275 54.8 423.804 532.433
1293 0 36.036 10.323 372 52.5027 424.685 530.554
1294 0 36.0164 7.02458 253 55.4427 424.107 530.364
1295 0 38.0764 10.8204 412 51.9903 424.078 531.274
1296 0 37.0725 9.68372 359 53.7159 423.176 529.27
1297 0 40.0798 9.50604 381 53.3963 423.719 530.331
1298 0 40.0576 8.81231 353 54.1841 423.572 529.858
1299 0 42.0478 9.53676 401 53.379 424.227 528.803
1300 0 44.0209 9.5182 419 54.0907 423.955 527.699
1301 0 46.0999 10.1302 467 53.0321 423.574 526.546
1302 0 47.0466 10.0114 471 53.5223 424.667 527.093
1303 0 47.0865 10.4913 494 53.6215 424.164 525.061
1304 0 49.0451 10.7248 526 53.5133 423.987 524.646
1305 0 51.109 9.56779 489 54.09 424.376 524.464
1306 0 54.0836 12.0739 653 51.6953 424.816 524.152
1307 0 57.0812 11.1245 635 52.6173 424.556 522.124
1308 0 58.0875 11.3277 658 52.8678 423.202 521.66
1309 0 61.2189 10.4543 640 53.1344 423.4 522.927
1310 0 58.145 9.6311 560 55.025 423.589 518.929
1311 0 64.0885 10.782 691 53.958 423.829 520.08
1312 0 68.055 12.8572 875 51.8537 423.832 517.589
1313 0 70.1652 13.1689 924 51.8387 423.262 515.777
1314 0 72.1443 11.879 857 52.9463 424.522 517.244
1315 0 74.2154 12.1403 901 52.8835 424.782 515.912
1316 0 75.1011 10.9985 826 54.5351 423.774 511.893
1317 0 78.1418 11.3895 890 53.2966 423.676 517.551
1318 1 41.104 11.921 490 52.0633 423.741 533.461
1319 0 43.103 12.4585 537 51.4618 423.456 531.931
1320 0 40.2372 9.17062 369 55.5583 423.312 530.574
1321 0 44.0583 9.78249 431 54.7819 423.903 528.302
1322 0 44.1723 11.2061 495 53.4202 423.509 528.988
1323 0 47.0607 10.7096 504 54.0516 423.456 527.74
1324 0 48.038 11.7407 564 53.0745 423.573 529.275
1325 0 49.0999 11.1609 548 54.042 423.834 527.237
1326 0 52.0583 10.0848 525 54.4629 424.011 527.67
1327 0 53.0867 12.0746 641 52.9111 424.335 525.253
1328 0 53.1244 9.92012 527 54.9696 424.072 526.691
1329 0 56.1267 12.3293 692 52.5578 424.23 525.906
1330 0 57.1021 10.8402 619 54.0452 424.081 522.997
1331 0 61.0653 12.7241 777 52.3887 424.142 523.313
1332 0 62.091 12.1596 755 52.8503 423.372 523.776
1333 0 63.0463 11.4202 720 54.4514 423.704 521.846
1334 0 64.1141 12.3062 789 54.3219 423.575 518.796
1335 0 67.0682 11.1976 751 54.5606 423.803 521.531
1336 0 67.1023 10.6554 715 55.9343 424.283 516.688
1337 0 71.178 12.2229 870 54.1103 423.854 517.86
1338 0 72.1949 13.1173 947 53.4435 424.447 517.228
1339 0 77.1749 12.6984 980 53.8347 423.722 513.706
1340 0 79.3334 13.626 1081 52.8261 423.554 514.158
1341 0 81.1276 11.8579 962 55.3254 423.763 510.051
1342 0 83.2635 11.3375 944 55.8273 423.921 509.173
1343 0 86.1691 13.0093 1121 54.6967 424.197 508.271
1344 0 88.1054 12.1218 1068 55.5253 423.763 507.081
1345 1 42.0722 9.00831 379 58.3061 424.776 527.573
1346 0 47.0381 10.9273 514 55.5448 423.484 527.838
1347 0 47.0713 11.5569 544 55.7206 423.057 527.599
1348 0 50.1635 11.4625 575 55.1235 423.697 527.452
1349 0 52.0704 12.5791 655 54.745 424.521 523.966
1350 0 55.0544 12.5512 691 54.2069 424.942 525.287
1351 0 56.1329 11.5084 646 56.0155 424.537 521.802
1352 0 58.0327 12.9927 754 53.748 424.101 525.004
1353 0 59.1556 12.7291 753 54.5471 424.02 520.952
1354 0 63.0464 13.038 822 54.3613 424.404 521.339
1355 0 62.0749 10.2296 635 57.3118 424.235 519.901
1356 0 66.1311 12.5357 829 54.6574 423.999 518.924
1357 0 67.1774 11.9088 800 56.1688 423.955 519.361
1358 0 72.1342 12.047 869 55.3107 423.854 518.488
1359 0 73.1171 13.4852 986 54.2495 423.632 515.252
1360 0 75.0898 12.9845 975 54.9538 423.447 514.682
1361 0 80.1981 11.8457 950 55.9853 423.54 513.555
1362 0 84.0882 15.4837 1302 52.3088 423.416 513.889
1363 0 87.1178 13.3383 1162 54.7048 423.64 512.889
1364 1 41.1506 8.01932 330 58.8606 423.809 534.645
1365 0 46.1421 11.9631 552 54.9094 424.264 532.424
1366 0 48.0672 12.4201 597 55.1943 424.985 531.144
1367 0 46.2485 11.9788 554 56.8538 424.825 529.919
1368 0 50.1523 11.2258 563 56.6199 423.872 529.748
1369 0 51.0852 12.0387 615 56.8504 423.655 527.816
1370 0 54.141 11.821 640 56.8219 424.009 528.25
1371 0 56.1602 11.1111 624 57.8926 424.269 527.95
1372 0 56.1484 12.7697 717 57.2678 425.201 524.181
1373 0 60.1147 13.2247 795 56.0478 424.243 524.421
1374 0 59.0848 10.578 625 58.6 424.765 527.653
1375 0 64.0893 13.4188 860 55.736 424.274 524.755
1376 0 64.2223 12.192 783 57.5224 424.245 521.971
1377 0 66.031 13.0545 862 56.4861 424.731 522.231
1378 0 67.2763 12.3372 830 57.1976 424.289 522.208
1379 0 72.1183 13.3947 966 55.8727 424.754 522.385
1380 0 74.1376 11.9373 885 57.6768 424.493 520.468
1381 0 75.1797 15.0706 1133 55.0653 424.342 518.443
1382 0 79.1437 13.8482 1096 55.9471 424.612 518.864
1383 0 82.1617 13.3639 1098 56.5237 424.085 519.378
1384 0 83.1174 12.6327 1050 57.0448 423.65 519.18
1385 1 43.0765 11.8858 512 58.1484 423.576 535.686
1386 0 43.0747 11.422 492 59.187 424.242 535.447
1387 0 45.075 10.9151 492 59.2276 424.276 534.933
1388 0 45.1159 14.5181 655 56.7405 424.411 534.154
1389 0 47.0638 13.7685 648 57.4444 425.032 533.259
1390 0 49.0312 13.8687 680 57.3574 424.496 531.762
1391 0 50.1134 12.2123 612 59.2827 423.881 530.578
1392 0 51.0714 12.042 615 59.7301 423.476 531.176
1393 0 53.0593 14.2482 756 57.4934 423.968 530.029
1394 0 55.0752 13.6904 754 58.4019 424.31 529.92
1395 0 57.0918 13.3294 761 58.636 424.53 528.708
1396 0 57.0733 13.1585 751 59.5819 425.097 525.969
1397 0 61.0729 13.754 840 58.5976 425.214 525.957
1398 0 63.0907 14.2493 899 57.574 425.138 526.696
1399 0 64.2337 13.8245 888 58.4561 424.413 523.919
1400 0 66.1085 12.7366 842 59.3361 424.385 524.823
1401 0 66.0992 11.9669 791 60.938 424.551 522.875
1402 0 69.1654 11.7978 816 61.5172 425.018 520.321
1403 0 70.1304 13.3323 935 60.0727 424.425 522.018
1404 0 74.1813 12.456 924 60.9015 424.149 517.206
1405 0 78.2505 13.9807 1094 59.032 424.61 518.547
1406 0 80.1213 14.5155 1163 58.4798 424.16 514.602
1407 0 85.1291 14.6953 1251 58.064 423.715 513.393
1408 0 89.0901 15.2654 1360 57.7684 424.326 513.896
1409 0 92.1897 12.8322 1183 59.7413 424.286 515.642
1410 0 93.1734 14.1993 1323 58.876 425.206 511.956
1411 1 47.0528 13.2404 623 59.6597 425.464 534.514
1412 0 47.0674 15.191 715 58.2028 425.269 532.392
1413 0 50.0134 13.6163 681 59.9104 424.868 531.367
1414 0 50.163 14.0143 703 59.8208 424.993 528.478
1415 0 53.0354 13.689 726 59.6198 424.041 530.387
1416 0 56.0355 11.6712 654 61.0979 423.989 530.159
1417 0 58.0556 11.9541 694 60.9885 424.385 527.506
1418 0 58.154 15.3902 895 57.9866 424.527 526.697
1419 0 61.1196 15.0688 921 58.6048 424.871 525.896
1420 0 62.1682 15.5868 969 57.9577 425.273 523.273
1421 0 66.1297 16.2711 1076 56.9089 425.62 523.494
1422 0 66.0817 13.0142 860 60.6 425.767 523.662
1423 0 68.0922 14.3923 980 59.748 425.103 520.877
1424 0 72.0617 15.4867 1116 58.2437 424.93 519.849
1425 0 75.1961 14.2561 1072 59.3778 425.023 522.035
1426 0 76.1349 14.7107 1120 59.3348 425.358 518.823
1427 0 78.0972 14.3283 1119 60.1564 426.21 520.933
1428 0 81.168 14.1928 1152 60.5694 424.985 517.556
1429 1 39.0498 12.4713 487 61.7146 424.768 536.704
1430 0 43.0767 10.8643 468 62.8846 425.365 535.421
1431 0 47.0242 11.9938 564 61.4167 424.713 534.713
1432 0 44.157 10.5533 466 63.1459 424.73 536.049
1433 0 45.0443 11.8994 536 63.3116 424.849 533.034
1434 0 46.1406 12.0284 555 63.6595 425.007 532.274
1435 0 48.1064 13.4909 649 61.9445 424.69 531.891
1436 0 52.0522 13.1214 683 60.9444 425.089 533.416
1437 0 51.0619 13.3955 684 61.7602 424.654 531.216
1438 0 54.2365 13.2383 718 60.8148 424.425 532.365
1439 0 56.1072 13.599 763 61.232 424.081 527.531
1440 0 59.3057 14.029 832 60.2788 423.502 528.21
1441 0 59.117 13.1265 776 62.0954 423.816 524.72
1442 0 62.0743 13.4355 834 60.9556 424.396 526.462
1443 0 63.1364 12.6868 801 61.7566 424.031 525.921
1444 0 70.0994 11.4266 801 62.4132 423.875 525.461
1445 0 68.1115 13.1989 899 61.4427 425.107 522.973
1446 0 74.1424 13.9057 1031 60.162 425.021 522.483
1447 0 73.1122 14.7445 1078 60.2291 424.809 520.364
1448 0 79.1888 14.9264 1182 58.6261 424.278 522.398
1449 0 80.1505 13.849 1110 61.3559 424.677 518.102
1450 1 41.0299 11.7963 484 60.7562 425.091 539.874
1451 0 42.0351 12.5371 527 60.7476 424.784 538.484
1452 0 42.047 12.1531 511 61.4344 424.677 537.303
1453 0 44.042 13.1238 578 60.1938 424.87 537.978
1454 0 44.0496 13.8026 608 59.9836 423.84 535.105
1455 0 46.0452 13.313 613 60.6607 423.525 535.13
1456 0 45.019 13.8386 623 60.0321 423.941 536.422
1457 0 45.1126 12.8789 581 61.9019 424.804 532.554
1458 0 49.0463 12.8042 628 60.6768 424.51 534.062
1459 0 49.0588 11.9449 586 62.4113 423.737 532.826
1460 0 49.1185 11.4214 561 63.7469 424.34 531.018
1461 0 52.2103 13.8478 723 61.3568 424 530.934
1462 0 56.0578 13.5039 757 61.3263 424.828 529.088
1463 0 56.0308 13.1713 738 62.2656 424.145 530.346
1464 0 58.0381 14.9212 866 60.9758 424.783 527.562
1465 0 59.125 13.5307 800 62.5525 424.458 525.974
1466 0 63.122 13.8462 874 61.3879 424.326 526.116
1467 0 65.2007 13.2361 863 61.7323 424.115 525.418
1468 0 64.1948 11.9792 769 63.8869 424.2 524.398
1469 0 70.1487 13.1007 919 61.5495 424.257 524.121
1470 0 69.1622 13.2587 917 62.5158 424.269 522.915
1471 0 73.151 15.5705 1139 60.3793 424.595 519.633
1472 0 75.1016 12.4099 932 63.574 425.208 522.53
1473 0 75.2343 13.4513 1012 62.9911 424 519.193
1474 0 79.0703 15.7328 1244 61.0289 424.17 517.334
1475 1 39.0537 12.6492 494 64.0729 424.166 535.923
1476 0 41.044 13.8388 568 62.7711 423.961 535.931
1477 0 44.2353 12.6144 558 62.9122 423.998 537.504
1478 0 43.0424 12.7084 547 64.2285 424.455 534.035
1479 0 44.0496 13.8253 609 63.9704 425.187 531.369
1480 0 47.1112 13.3302 628 63.7787 424.288 532.702
1481 0 49.0441 13.6612 670 63.2418 423.863 531.539
1482 0 51.1341 13.8851 710 62.8718 423.927 532.176
1483 0 50.0643 12.5838 630 65.4603 423.856 530.265
1484 0 54.0626 14.8346 802 62.1334 424.061 531.258
1485 0 55.1397 14.8532 819 62.5617 424.222 530.151
1486 0 58.1174 15.7096 913 61.7667 424.547 527.166
1487 0 59.1152 14.9369 883 62.3556 423.804 527.507
1488 0 61.1938 13.4818 825 64.7333 424.181 526.977
1489 0 63.0902 14.9469 943 63.6935 424.14 524.403
1490 0 66.183 14.6563 970 63.5381 423.875 525.037
1491 0 68.0376 14.1392 962 64.7328 423.793 523.051
1492 0 69.1334 14.6673 1014 64.5404 423.46 522.543
1493 0 71.1262 15.0718 1072 64.4524 423.462 519.935
1494 0 76.2022 15.262 1163 63.7378 423.749 519.603
1495 0 77.1178 12.228 943 67.1304 423.545 522.089
1496 0 79.1061 14.5374 1150 65.4504 422.388 516.197
1497 0 83.0848 15.3217 1273 64.0322 422.91 517.596
1498 1 44.1288 12.8034 565 65.1398 422.947 535.074
1499 0 43.1577 12.8135 553 66.5949 424.141 534.967
1500 0 45.0518 13.5622 611 65.3159 424.097 534.612
1501 0 48.1955 12.1381 585 66.4017 424.209 534.267
1502 0 50.1416 14.7981 742 64.0094 423.685 531.814
1503 0 51.0396 15.1059 771 62.7315 424.056 533.18
1504 0 53.0823 13.8841 737 64.403 423.552 530.037
1505 0 54.0591 12.7823 691 65.2909 423.544 529.684
1506 0 57.052 13.0583 745 64.5302 422.765 528.648
1507 0 59.0908 14.3846 850 63.6765 423.241 526.261
1508 0 59.0657 13.3411 788 65.1383 423.718 525.867
1509 0 60.104 13.9092 836 64.5885 424.36 525.226
1510 0 62.0616 13.2771 824 65.6396 423.789 521.693
1511 0 67.0792 14.8034 993 62.2145 424.394 525.805
1512 0 69.1148 13.9044 961 63.743 424.421 523.605
1513 0 70.1753 13.053 916 65.2707 424.133 520.252
1514 0 74.0933 14.0633 1042 64.2409 424.1 519.175
1515 0 76.3729 13.565 1036 65.0145 424.031 517.862
1516 0 78.1884 14.836 1160 64.3371 424.42 516.548
1517 0 82.1445 14.1945 1166 64.8096 424.551 515.346
1518 1 41.2286 10.939 451 66.1286 423.745 536.315
1519 0 41.0563 11.3015 464 68.306 423.996 532.539
1520 0 45.0451 12.876 580 65.5 423.129 532.041
1521 0 44.0665 13.6158 600 65.92 423.877 529.548
1522 0 48.0262 13.5968 653 64.902 423.542 531.498
1523 0 48.0798 14.8711 715 64.3902 423.064 529.357
1524 0 50.0171 14.0552 703 65.643 423.821 528.024
1525 0 49.2935 12.5777 620 67.5613 424.206 528.613
1526 0 54.092 13.3661 723 64.6971 423.96 529.831
1527 0 54.1714 13.0512 707 65.8854 425.085 528.542
1528 0 57.0299 13.1159 748 65.5214 424.799 526.297
1529 0 59.1617 13.5223 800 65.2738 423.988 523.965
1530 0 63.1447 13.3186 841 64.9976 423.51 523.932
1531 0 64.1774 14.0548 902 63.8991 423.663 523.82
1532 0 66.1779 13.509 894 65.1812 424.421 520.172
1533 0 69.0994 15.1666 1048 62.6021 423.952 521.948
1534 0 69.0817 12.4346 859 65.7357 423.779 521.208
1535 0 73.2759 12.6235 925 65.8216 423.366 516.777
1536 0 75.2351 15.2987 1151 62.5447 424.343 517.153
1537 0 80.1706 13.7706 1104 63.5154 424.145 517.551
1538 0 82.2652 13.8455 1139 63.5145 424.222 517.03
1539 0 82.1841 12.0826 993 65.6546 424.025 517.093
1540 0 85.2068 13.0506 1112 65.1817 423.764 512.953
1541 1 45.0462 10.7445 484 65.6922 423.357 531.585
1542 0 47.2001 10.7415 507 65.7337 423.542 532.467
1543 0 48.0454 14.3822 691 62.3444 423.463 530.476
1544 0 53.1304 12.9116 686 63.5641 422.921 529.847
1545 0 53.0682 12.7572 677 63.2836 423.51 528.198
1546 0 53.0408 12.3113 653 64.6187 424.294 524.567
1547 0 56.1136 12.9381 726 63.5744 423.514 524.186
1548 0 58.1069 12.4942 726 62.7507 423.293 524.657
1549 0 63.1153 14.2121 897 60.7258 424.222 522.805
1550 0 63.0619 14.018 884 61.3337 423.387 521.726
1551 0 64.0688 12.2681 786 62.6743 423.178 522.071
1552 0 66.0496 13.5353 894 61.5671 423.136 520.867
1553 0 71.0547 13.3841 951 61.6236 423.957 518.857
1554 0 76.1168 13.7814 1049 60.3222 423.902 519.763
1555 0 76.176 13.8495 1055 60.9744 423.153 516.494
1556 0 79.2548 14.1569 1122 60.402 423.321 515.745
1557 0 81.0861 14.1455 1147 60.6922 422.735 514.424
1558 0 82.0785 11.9642 982 62.4582 422.311 515.83
1559 1 39.1248 12.0129 470 61.1106 423.719 535.883
1560 0 41.1313 13.3961 551 60.176 424.319 534.445
1561 0 41.2028 12.1108 499 61.3928 423.994 536.273
1562 0 43.1046 11.4373 493 62.8337 423.998 533.817
1563 0 46.1355 13.5037 623 60.634 423.777 532.21
1564 0 47.2354 14.7347 696 59.8405 423.971 531.431
1565 0 48.0767 14.3105 688 60.2631 423.628 532.093
1566 0 49.1268 13.2311 650 61.7046 423.283 529.897
1567 0 53.2402 12.5093 666 61.8438 422.908 530.29
1568 0 52.1965 12.4146 648 62.9954 423.29 527.744
1569 0 55.0524 13.1874 726 61.9601 423.649 525.952
1570 0 57.1214 12.8498 734 61.8665 423.601 527.132
1571 0 60.1221 13.5724 816 61.1103 423.35 523.597
1572 0 61.209 11.7793 721 62.8183 424.083 524.358
1573 0 61.1962 12.2883 752 63.5093 423.666 523.344
1574 0 65.191 13.8976 906 60.4713 423.219 523.339
1575 0 71.29 14.0553 1002 59.3453 422.629 523.464
1576 0 70.2689 11.4133 802 63.3604 422.852 518.655
1577 0 73.2391 13.1897 966 61.4534 423.016 517.903
1578 0 75.3558 12.4874 941 62.5579 423.135 516.887
1579 0 78.1325 14.8466 1160 60.2922 423.616 515.466
1580 0 80.1004 12.9462 1037 62.2314 422.794 513.706
1581 0 83.1855 11.7328 976 63.5871 423.017 515.026
1582 1 43.137 12.2864 530 62.6264 423.74 533.555
1583 0 44.215 13.4344 594 62.5387 423.037 531.015
1584 0 45.15 14.2414 643 61.8305 422.886 530.499
1585 0 48.0914 13.204 635 62.285 423.761 529.446
1586 0 49.3001 13.5902 670 62.0015 424.294 529.787
1587 0 52.2305 12.1768 636 63.3113 423.63 528.711
1588 0 53.1438 14.0186 745 61.8242 423.134 526.415
1589 0 55.1034 13.3204 734 62.158 422.747 527.518
1590 0 57.117 13.1309 750 62.48 422.563 525.319
1591 0 59.1513 14.9954 887 61.0631 423.34 523.595
1592 0 61.0735 12.313 752 63.6104 423.117 522.461
1593 0 63.1469 14.9968 947 60.4013 423.506 522.88
1594 0 67.2597 12.8606 865 62.6879 423.274 520.605
1595 0 70.2297 13.7549 966 61.4886 423.621 520.861
1596 0 71.2468 11.7479 837 63.8757 423.239 519.577
1597 0 72.2728 12.1484 878 63.7426 423.123 518.669
1598 0 75.3131 12.0431 907 63.9493 422.805 517.082
1599 0 79.3277 14.2069 1127 61.4481 422.393 516.282
1600 0 79.2873 13.0286 1033 63.1646 422.117 517.178
1601 0 82.1787 13.3611 1098 63.2395 423.018 514.516
1602 0 86.3844 12.8032 1106 63.6022 421.766 510.482
1603 0 88.1884 14.5597 1284 62.0935 422.759 510.572
1604 1 44.3519 12.8067 568 62.4243 422.722 534.699
1605 0 45.1258 11.9665 540 64.6259 422.656 532
1606 0 48.1745 12.8491 619 64.042 423.257 530.011
1607 0 50.3108 12.9595 652 63.6166 422.939 529.413
1608 0 51.2551 13.306 682 63.0572 422.787 530.48
1609 0 53.2449 15.0249 800 61.6025 423.525 527.616
1610 0 53.1787 10.8502 577 65.7452 423.054 528.653
1611 0 56.2431 12.9972 731 63.3885 422.787 527.605
1612 0 55.1961 12.6639 699 64.4864 423.226 523.777
1613 0 60.1314 14.5016 872 62.039 423.669 523.739
1614 0 62.4083 14.1808 885 62.1107 423.647 524.546
1615 0 65.2192 15.9616 1041 59.8809 423.788 522.611
1616 0 64.2536 14.0537 903 62.9601 422.773 522.446
1617 0 68.1886 13.36 911 63.1668 423.169 522.217
1618 0 69.2658 14.6392 1014 62.427 423.573 520.784
1619 0 73.3551 14.7638 1083 62.4247 423.667 518.681
1620 0 74.3389 15.4831 1151 61.7628 424.095 517.48
1621 0 77.2546 13.9539 1078 63.0399 423.086 517.734
1622 0 80.2297 16.004 1284 61.1612 423.261 514.404
1623 0 81.272 13.5348 1100 64.1527 422.755 513.243
1624 0 85.2763 13.9898 1193 63.1123 423.234 513.656
1625 0 87.2431 13.7317 1198 64.2788 423.475 509.861
1626 1 46.2145 12.3554 571 65.2067 424.051 529.718
1627 0 48.1946 10.7688 519 66.2948 424.081 530.503
1628 0 50.0861 12.2789 615 64.9789 424.112 529.99
1629 0 50.2052 13.6838 687 63.9898 423.528 528.211
1630 0 52.1412 14.2689 744 63.0833 422.952 527.433
1631 0 53.1996 14.737 784 62.7526 422.835 526.134
1632 0 55.2064 14.2375 786 63.5903 423.402 525.415
1633 0 56.1978 12.6517 711 64.9578 422.75 523.096
1634 0 59.1026 14.6694 867 62.6978 423.09 523.308
1635 0 61.432 14.9759 920 62.0609 423.035 522.775
1636 0 62.3533 12.9424 807 64.2751 422.765 520.642
1637 0 63.1433 11.3551 717 66.6722 423.117 519.813
1638 0 68.3391 13.0379 891 63.5152 422.88 522.562
1639 0 71.2134 14.281 1017 62.4425 423.184 519.259
1640 0 70.0964 12.6825 889 65.0056 423.363 518.139
1641 0 73.2203 12.6604 927 64.5717 423.462 514.986
1642 0 78.2106 15.3432 1200 61.0442 423.429 515.398
1643 0 79.1551 13.5178 1070 63.7392 422.634 512.457
1644 0 83.1587 12.6505 1052 63.385 423.336 514.432
1645 1 43.0939 12.4844 538 63.5539 423.281 531.526
1646 0 44.2429 14.6464 648 61.0478 423.412 532.301
1647 0 46.2573 15.1544 701 60.5164 423.084 531.591
1648 0 48.1249 13.3195 641 62.8799 423.899 530.19
1649 0 48.2673 12.4101 599 63.9316 423.486 529.998
1650 0 51.1926 14.2794 731 61.0834 423.933 530.316
1651 0 54.2496 11.9079 646 63.452 423.107 528.085
1652 0 52.0409 12.8168 667 63.2534 423.225 527.432
1653 0 57.1142 12.4663 712 63.4761 422.815 526.044
1654 0 56.1809 12.4775 701 63.8873 423.114 524.936
1655 0 57.2327 13.8907 795 62.2943 422.891 525.283
1656 0 59.0634 12.1226 716 64.5419 423.342 524.395
1657 0 64.1817 14.4278 926 60.7397 423.542 523.023
1658 0 65.0877 12.1682 792 64.2311 423.409 521.299
1659 0 69.2003 12.9335 895 62.3497 422.565 519.912
1660 0 70.1608 12.7564 895 63.1263 422.515 520.551
1661 0 73.2889 13.9994 1026 61.8216 422.341 516.978
1662 0 76.2781 13.9358 1063 61.8307 422.194 516.792
1663 0 78.2041 13.5287 1058 62.4178 422.6 515.675
1664 0 79.2376 11.232 890 64.6101 422.419 517.524
1665 0 82.3753 11.7268 966 64.2391 422.96 514.848
1666 0 85.1503 13.024 1109 64.0496 423.033 509.372
1667 1 43.1633 12.7423 550 62.8909 423.035 531.976
1668 0 45.2139 12.7394 576 62.9097 423.904 532.005
1669 0 48.2272 14.3073 690 61.1754 423.468 531.029
1670 0 48.1895 11.2888 544 64.2243 423.364 531.285
1671 0 53.4886 12.1147 648 63.1929 423.389 528.343
1672 0 51.161 12.4704 638 63.6991 422.832 527.906
1673 0 53.194 14.3249 762 61.2861 423.34 529.71
1674 0 56.4315 13.0246 735 62.9361 423.412 527.356
1675 0 59.3264 12.3385 732 63.321 423.545 528.646
1676 0 59.176 13.9753 827 61.8706 423.034 527.512
1677 0 60.187 12.3282 742 64.0916 423.398 524.557
1678 0 65.1279 13.2201 861 63.0372 423.578 520.775
1679 0 68.273 15.98 1091 59.9322 423.961 520.989
1680 0 69.2358 14.5301 1006 61.4891 422.669 519.862
1681 0 72.2848 14.6642 1060 61.2509 422.108 517.992
1682 0 72.2698 13.2421 957 63.2487 422.158 516.785
1683 0 75.3119 13.0126 980 63.4612 422.78 519.007
1684 0 78.162 14.7002 1149 62.3107 422.738 514.225
1685 1 37.105 12.0739 448 62.9509 422.344 534.96
1686 0 40.3 11.7121 472 62.572 422.324 535.794
1687 0 40.1676 12.4727 501 64.2355 423.114 533.034
1688 0 43.0974 13.7363 592 62.0642 422.618 533.541
1689 0 43.245 13.6894 592 62.2584 423.056 533.052
1690 0 43.1531 13.51 583 63.1921 422.798 533.045
1691 0 45.2901 12.431 563 64.5968 422.7 531.583
1692 0 47.1465 13.6808 645 63.6527 422.646 529.862
1693 0 49.0267 13.462 660 62.9682 423.441 531.582
1694 0 48.1954 12.7191 613 65.3051 422.576 528.108
1695 0 52.1926 15.1746 792 61.6768 423.114 528.771
1696 0 54.1045 15.6734 848 61.1285 423.006 527.275
1697 0 55.1478 13.7993 761 63.7871 422.888 524.9
1698 0 57.1508 13.2457 757 64.6328 421.9 524.441
1699 0 61.2826 14.0007 858 62.2378 422.556 525.111
1700 0 62.2395 13.6087 847 63.8465 423.623 524.259
1701 0 64.0732 14.6239 937 63.2444 423.083 521.885
1702 0 66.1726 14.7795 978 63.0245 423.663 521.741
1703 0 67.2105 13.0783 879 65.4562 423.083 519.772
1704 0 69.1941 13.6572 945 64.419 422.603 517.52
1705 0 70.2069 12.7195 893 65.3427 422.931 519.849
1706 0 74.3289 13.8708 1031 63.9709 422.575 518.335
1707 0 77.1475 14.9843 1156 62.7889 423.02 515.436
1708 0 80.2394 14.7309 1182 62.5787 423.025 513.779
1709 0 81.1134 13.3394 1082 64.28 422.127 511.897
1710 0 85.1707 16.2615 1385 61.1134 422.707 510.747
1711 0 88.2473 13.6435 1204 63.4319 422.939 509.56
1712 0 93.1971 14.8717 1386 50.0887 422.296 511.46
1713 1 43.0799 12.883 555 63.7478 422.438 529.218
1714 0 44.0845 13.701 604 63.1391 422.828 528.128
1715 0 46.1999 13.355 617 62.8039 422.773 528.36
1716 0 47.102 12.6746 597 63.8459 422.625 527.41
1717 0 50.2195 13.7397 690 62.342 423.316 527.949
1718 0 51.2036 12.9092 661 62.9728 422.579 527.201
1719 0 53.2047 12.0666 642 63.9128 422.544 526.098
1720 0 56.1168 14.2025 797 61.256 422.945 523.779
1721 0 57.098 13.2404 756 62.1878 422.004 523.552
1722 0 58.1228 13.5747 789 61.8302 422.554 523.778
1723 0 58.0871 12.464 724 63.9434 422.551 521.293
1724 0 62.1965 12.0103 747 63.9839 422.473 523.028
1725 0 65.0375 13.054 849 62.8327 421.846 520.821
1726 0 66.2476 12.1212 803 64.2404 422.504 518.306
1727 0 70.2435 13.7237 964 62.5799 422.614 518.467
1728 0 72.0658 12.7384 918 64.0545 423.097 518.419
1729 0 76.0444 14.7545 1122 62.0205 422.926 516.941
1730 0 78.1093 14.3773 1123 62.9092 423.703 515.487
1731 0 80.2781 12.3944 995 65.209 423.706 515.67
1732 0 84.2262 13.7368 1157 64.0588 423.941 510.577
1733 1 43.1907 13.1973 570 63.9 423.356 530.933
1734 0 44.1092 13.1492 580 64.831 422.976 532.129
1735 0 47.0644 13.1734 620 64.0581 423.527 532.523
1736 0 47.114 13.0747 616 65.4643 422.661 529.292
1737 0 51.1986 14.9223 764 62.3835 422.547 529.712
1738 0 50.1135 13.1701 660 65.7106 422.555 526.671
1739 0 53.1052 13.8781 737 64.1099 423.099 528.266
1740 0 52.1482 12.2727 640 67.3766 422.859 525.708
1741 0 58.2605 14.1091 822 64.2749 423.099 525.41
1742 0 57.1754 13.3624 764 66.4215 423.505 524.157
1743 0 62.1101 13.7176 852 64.6185 423.419 524.613
1744 0 61.1161 13.5643 829 66.7744 423.509 521.551
1745 0 63.1479 13.1754 832 67.2728 423.778 522.679
1746 0 67.1457 14.0441 943 66.3012 422.978 519.191
1747 0 71.1146 13.2884 945 66.5429 422.443 520.613
1748 0 72.2616 13.2851 960 67.8271 422.918 517.995
1749 0 74.1274 14.7719 1095 65.9607 422.558 517.12
1750 0 75.1472 13.3205 1001 67.9381 422.541 516.436
1751 0 81.1935 14.2992 1161 66.7554 422.992 515.737
1752 0 84.2367 13.0941 1103 67.9057 423.393 515.092
1753 0 85.1533 13.0705 1113 68.7511 424.225 514.811
1754 0 90.1701 13.4634 1214 68.3731 423.97 511.486
1755 0 91.4006 14.4857 1324 67.7606 423.743 509.329
1756 1 46.0633 14.0676 648 65.3086 423.466 533.153
1757 0 46.1193 12.7279 587 68.0392 422.71 531.068
1758 0 48.2623 12.142 586 67.5375 422.766 531.753
1759 0 53.1195 13.0084 691 66.3864 422.501 527.974
1760 0 53.3071 13.638 727 66.0949 422.872 528.191
1761 0 52.2222 13.7106 716 66.2179 423.427 528.466
1762 0 59.2496 13.1309 778 65.856 423.009 528.524
1763 0 59.2908 14.4036 854 65.0492 423.386 526.167
1764 0 58.1898 12.8545 748 67.6337 422.929 525.881
1765 0 60.1932 14.0381 845 65.6343 422.96 524.625
1766 0 63.1325 15.2061 960 64.6708 422.875 520.802
1767 0 63.1722 12.3155 778 68.6825 422.722 520.298
1768 0 68.2622 13.6679 933 65.9625 422.386 517.264
1769 0 71.2809 14.5761 1039 65.0375 423.497 517.328
1770 0 76.3688 15.1633 1158 63.0976 422.845 519.493
1771 0 76.3641 13.344 1019 66.4917 422.652 516.104
1772 0 77.1811 12.2439 945 67.8508 422.226 515.458
1773 0 80.3694 13.8734 1115 65.9166 421.78 511.445
1774 0 84.2995 13.369 1127 66.0701 422.325 512.627
1775 0 86.4618 13.5436 1171 66.1238 422.64 509.008
1776 1 43.2319 12.2363 529 67.2514 423.002 531.342
1777 0 43.2884 12.9827 562 66.831 423.735 530.77
1778 0 45.0372 12.523 564 67.1152 422.73 528.844
1779 0 48.2554 14.2782 689 64.9637 422.99 527.747
1780 0 47.1052 12.9285 609 67.0082 423.537 527.074
1781 0 50.339 12.6343 636 66.184 423.465 529.458
1782 0 52.3348 12.8977 675 65.6607 423.326 525.461
1783 0 51.0902 11.7635 601 67.9368 422.571 525.3
1784 0 56.1388 13.9119 781 64.8412 422.951 523.652
1785 0 58.2292 13.3095 775 66.5097 423.787 521.299
1786 0 59.054 14.0041 827 66.6179 423.293 520.11
1787 0 61.1536 14.995 917 64.8332 423.093 521.773
1788 0 63.202 14.4932 916 66.0142 423.462 519.009
1789 0 68.2862 13.502 922 66.5011 423.49 519.554
1790 0 68.5231 14.0245 961 66.4589 422.709 517.73
1791 0 71.2988 13.3523 952 67.9223 422.717 514.839
1792 0 72.246 13.5648 980 68.3959 422.517 513.967
1793 0 74.1264 12.047 893 70.5398 422.489 512.34
1794 0 78.1619 12.8707 1006 69.7068 422.857 511.479
1795 0 82.3818 14.712 1212 67.3333 423.279 509.715
1796 0 82.163 14.6781 1206 68.2098 423.075 507.678
1797 1 43.2955 11.8719 514 69.9942 423.051 529.488
1798 0 42.1408 12.2447 516 70.8333 422.692 526.965
1799 0 47.2768 12.945 612 68.6422 423.003 526.673
1800 0 48.213 13.5233 652 68.7991 423.239 523.344
1801 0 50.1829 11.9762 601 71.6423 423.376 523.819
1802 0 50.1575 13.3978 672 70.253 422.812 522.424
1803 0 53.1002 15.0658 800 66.745 423.012 524.099
1804 0 54.2169 12.4869 677 70.6809 423.894 522.371
1805 0 56.1934 12.4214 698 70.6433 423.398 521.152
1806 0 57.1887 12.7823 731 70.762 423.023 517.776
1807 0 57.1569 12.9468 740 69.727 422.704 520.974
1808 0 62.2994 15.0082 935 66.5123 422.572 519.174
1809 0 61.0976 12.4719 762 70.6181 423.085 517.567
1810 0 66.1664 12.801 847 69.8536 422.989 515.829
1811 0 68.325 13.2455 905 69.1138 422.698 512.76
1812 0 71.2452 13.7272 978 68.2168 423.163 512.773
1813 0 74.1907 12.7105 943 69.4422 422.3 512.828
1814 0 77.1225 12.8756 993 68.7492 422.446 513.483
1815 0 77.1503 13.0524 1007 70.0874 422.692 508.375
1816 0 79.2144 13.5076 1070 68.9495 423.173 510.454
1817 0 84.1495 13.6899 1152 67.7127 423.111 510.863
1818 0 88.0863 13.9068 1225 68.0474 423.048 504.598
1819 1 48.0832 12.104 582 67.6426 423.906 527.99
1820 0 47.2045 12.5835 594 68.7492 422.54 525.493
1821 0 52.1581 13.4591 702 66.7151 421.919 526.362
1822 0 50.1764 14.3892 722 66.759 423.018 525.107
1823 0 56.3455 13.7722 776 66.2242 422.97 523.246
1824 0 54.3154 13.4952 733 67.3179 423.297 523.332
1825 0 56.1882 13.3302 749 67.757 423.122 521.595
1826 0 61.2586 14.1858 869 65.3648 422.881 518.579
1827 0 61.075 11.9198 728 67.9739 422.662 521.033
1828 0 63.1707 13.5189 854 66.1405 423.388 518.335
1829 0 65.4481 13.95 913 65.1939 422.59 518.551
1830 0 67.1214 13.4532 903 65.6401 422.744 517.151
1831 0 70.1062 13.451 943 64.9724 423.161 515.859
1832 0 70.3315 13.2942 935 64.9882 423.725 516.831
1833 0 74.1272 14.8529 1101 63.0599 423.027 514.154
1834 0 77.3418 13.3304 1031 64.8138 422.714 510.543
1835 0 79.2274 14.288 1132 63.4505 422.249 511.415
1836 0 81.2189 14.5902 1185 63.6591 422.376 506.473
1837 0 85.2072 13.1796 1123 64.4114 422.103 506.377
1838 0 87.1814 13.1909 1150 64.9644 423.223 506.213
1839 1 45.1186 12.2123 551 64.3122 423.022 525.412
1840 0 43.166 11.0504 477 66.7484 422.147 523.054
1841 0 48.0726 12.9804 624 62.9343 422.247 524.394
1842 0 48.0845 12.7484 613 63.3246 422.292 523.282
1843 0 51.0673 12.0821 617 63.2334 421.572 524.413
1844 0 51.0853 11.5885 592 64.3632 421.547 521.301
1845 0 53.0905 13.3734 710 61.8296 422.3 520.532
1846 0 57.099 13.6605 780 60.4 422.658 518.103
1847 0 58.1007 11.6522 677 62.5938 422.501 517.601
1848 0 60.1092 13.8914 835 59.794 421.684 517.732
1849 0 62.2302 10.895 678 62.5457 421.528 517.481
1850 0 63.0505 13.624 859 59.7648 422.761 515.863
1851 0 67.1852 14.274 959 58.8957 422.693 515.537
1852 0 69.1374 12.4969 864 60.7315 422.348 510.618
1853 0 71.1836 12.6153 898 61.0523 422.07 511.3
1854 0 75.1808 15.5625 1170 57.2162 422.668 510.73
1855 0 77.2161 14.181 1095 57.9954 422.026 510.437
1856 0 77.0499 13.0435 1005 59.4806 421.617 509.086
1857 0 82.1485 13.0495 1072 59.4804 421.071 507.61
1858 0 85.2419 12.3531 1053 60.1605 421.379 507.04
1859 0 86.181 13.8197 1191 58.8892 421.808 505.688
1860 0 93.236 13.0529 1217 59.1997 421.965 502.049
1861 0 93.082 13.1175 1221 59.412 421.505 502.056
1862 0 94.0974 11.8069 1111 61.2934 421.464 496.953
1863 1 47.1418 13.173 621 58.8728 422.403 523.155
1864 0 49.0773 9.20997 452 62.4159 422.858 522.354
1865 0 49.0234 10.7704 528 62.0814 422.776 520.852
1866 0 52.1224 11.0893 578 61.0225 422.585 522.735
1867 0 55.2026 11.7567 649 60.2974 421.948 520.085
1868 0 55.0613 12.586 693 59.7403 421.825 518.931
1869 0 58.0441 11.5602 671 59.8674 422.23 520.428
1870 0 59.0476 13.7855 814 58.8956 422.612 515.818
1871 0 63.1272 13.75 868 57.9885 422.119 515.614
1872 0 64.1309 13.6128 873 58.8018 421.554 513.466
1873 0 65.0784 11.3402 738 60.874 422.024 512.665
1874 0 71.073 14.3233 1018 57.6778 422.211 509.493
1875 0 74.1483 14.7812 1096 56.8412 422.432 510.709
1876 0 73.0451 11.9515 873 60.5441 422.719 506.534
1877 0 78.1872 13.3014 1040 58.9413 421.983 505.823
1878 0 80.0594 14.9139 1194 57.6524 422.33 505.509
1879 0 85.111 14.4635 1231 58.2786 421.95 501.76
1880 0 87.1057 13.7534 1198 59.2604 422.449 504.045
1881 0 91.0855 14.3492 1307 58.2946 422.034 501.148
1882 0 93.255 15.538 1449 57.1297 422.453 501.306
1883 1 45.0431 9.99043 450 61.5556 422.611 523.438
1884 0 48.0582 11.6734 561 60.6168 422.565 520.64
1885 0 52.064 11.8508 617 59.7893 421.833 521.368
1886 0 53.1018 11.1107 590 60.1407 421.317 522.459
1887 0 57.293 13.6666 783 58.5888 421.432 516.868
1888 0 58.0561 12.2123 709 60.33 421.598 517.171
1889 0 60.0875 12.3986 745 59.9785 422.238 513.564
1890 0 61.0524 12.7104 776 60.0052 422.728 513.76
1891 0 66.1444 12.1552 804 59.3744 422.203 515.586
1892 0 67.0578 12.7651 856 59.9533 421.561 510.354
1893 0 72.0614 12.0175 866 59.9018 422.286 511.883
1894 0 74.103 12.6446 937 60.5955 422.492 508.768
1895 0 76.0972 12.4315 946 60.7072 422.503 508.767
1896 0 78.1432 12.7714 998 60.6152 422.431 506.387
1897 0 83.075 11.7123 973 61.6166 422.86 502.619
1898 0 84.1015 13.02 1095 60.2767 422.606 502.916
1899 0 91.2908 13.9444 1273 58.6567 422.817 502.888
1900 0 92.115 13.3529 1230 59.9472 423.132 498.506
1901 0 96.2222 13.1155 1262 60.2789 423.336 497.502
1902 1 51.0341 10.0717 514 64.9144 422.642 469.123
1903 0 54.3818 9.69074 527 61.0569 422.533 519.378
1904 0 55.1237 11.1023 612 59.8219 422.368 520.538
1905 0 57.2015 11.1011 635 60.5213 422.08 519.276
1906 0 58.0574 12.3154 715 59.3189 422.978 514.601
1907 0 60.0593 11.5219 692 59.7471 422.558 516.782
1908 0 65.1043 13.9622 909 57.2112 422.222 513.296
1909 0 65.2036 12.4533 812 59.4704 422.95 513.601
1910 0 68.1326 11.8299 806 60.335 422.56 510.383
1911 0 70.1911 12.0386 845 60.1136 422.986 509.925
1912 0 78.2237 14.5097 1135 55.6749 423.131 514.354
1913 0 77.1292 12.2133 942 59.3302 421.914 509.855
1914 0 78.2318 12.6547 990 58.9404 422.462 508.262
1915 0 83.2085 12.4867 1039 58.538 423.026 508.048
1916 0 87.196 13.3263 1162 57.8778 423.071 503.584
1917 0 88.1188 13.9017 1225 57.4302 422.562 504.647
1918 0 91.1783 11.9985 1094 59.5567 422.146 501.775
1919 0 92.116 11.3661 1047 60.1767 422.536 499.947
1920 0 98.1454 13.7143 1346 57.5327 422.904 501.195
1921 1 48.0808 10.0248 482 60.334 422.311 523.562
1922 0 49.1511 11.719 576 58.9948 422.102 522.78
1923 0 52.0176 10.7656 560 60.0768 422.68 519.638
1924 0 53.1204 10.7492 571 60.5412 422.627 518.392
1925 0 55.1206 11.756 648 59.6543 423.417 519.181
1926 0 54.0563 10.2671 555 61.8955 423.296 516.204
1927 0 58.0768 10.5722 614 60.3274 423.866 518.199
1928 0 60.1849 10.3016 620 60.9177 424.123 517.161
1929 0 66.0513 9.99224 660 63.5621 422.417 451.191
1930 0 67.1815 12.563 844 57.9443 422.002 513.508
1931 0 75.1934 13.6847 1029 55.5967 422.073 517.896
1932 0 71.2482 12.0705 860 58.7512 421.886 512.508
1933 0 79.1117 15.0294 1189 54.619 422.851 515.072
1934 0 77.1312 11.5906 894 58.9239 422.492 512.487
1935 0 76.102 11.1035 845 60.3598 422.592 509.662
1936 0 82.2851 12.6997 1045 57.6096 422.39 511.636
1937 0 87.2412 14.2593 1244 56.7098 422.47 506.683
1938 0 91.1973 13.3666 1219 57.831 421.418 506.078
1939 0 92.1147 12.3107 1134 59.47 421.903 505.623
1940 0 94.0804 13.7755 1296 58.3125 420.801 505.935
1941 0 99.1796 14.146 1403 58.0506 420.838 503.469
1942 0 100.088 12.499 1251 60.1199 421.118 503.396
1943 0 105.143 12.8017 1346 59.7155 421.204 502.685
1944 0 109.229 13.1009 1431 59.7736 420.937 502.361
1945 1 57.0922 11.7354 670 61.0761 421.009 526.655
1946 0 59.1913 12.3836 733 60.9332 420.928 524.954
1947 0 58.1743 11.9984 698 62.3725 420.85 521.722
1948 0 62.1417 12.5037 777 60.9472 420.057 521.073
1949 0 64.1414 13.7353 881 60.4098 420.166 518.916
1950 0 70.1663 13.2685 931 59.5177 419.749 520.444
1951 0 70.1022 13.3377 935 60.0909 419.544 517.798
1952 0 73.1908 13.0891 958 60.4175 419.219 516.425
1953 0 76.2217 13.3295 1016 60.2274 419.454 514.186
1954 0 78.079 14.2036 1109 59.6042 419.097 514.095
1955 0 79.1933 11.996 950 62.6347 419.528 513.896
1956 0 83.1203 13.7872 1146 60.4145 419.716 511.787
1957 0 84.2166 14.0352 1182 60.654 420.212 508.103
1958 0 89.305 12.7093 1135 61.467 419.916 511.33
1959 1 43.218 12.8419 555 60.9946 420.586 533.409
1960 0 46.1221 12.6837 585 61.2923 420.562 530.65
1961 0 49.0908 15.0945 741 57.6721 420.505 532
1962 0 47.0748 13.383 630 61.4111 420.298 527.159
1963 0 51.2279 13.1959 676 61.1213 420.376 526.084
1964 0 51.1068 12.8163 655 61.6168 420.043 526.46
1965 0 55.4428 14.6096 810 59.3148 420.151 525.093
1966 0 54.2103 13.7612 746 60.9115 421.92 524.146
1967 0 58.2887 14.4797 844 59.4336 421.829 524.075
1968 0 59.0777 14.811 875 59.632 421.448 521.687
1969 0 62.3441 13.9067 867 60.0704 421.358 521.176
1970 0 64.2639 14.0203 901 60.4506 421.183 518.329
1971 0 66.456 14.4607 961 59.6056 421.474 518.562
1972 0 67.0762 13.2983 892 61.3778 421.639 517.968
1973 0 70.0679 15.2138 1066 59.1754 421.666 516.772
1974 0 75.817 15.8144 1199 58.0434 422.043 515.854
1975 0 77.0965 14.5402 1121 59.8243 422.037 516.042
1976 0 76.2407 14.769 1126 60.2309 422.112 513.278
1977 0 84.3568 14.2727 1204 60.2359 421.951 512.736
1978 0 89.1758 14.8695 1326 59.0354 421.321 514.897
1979 0 89.4257 14.8503 1328 60.0693 421.374 509.672
1980 1 45.147 13.1349 593 61.1686 421.728 531.035
1981 0 46.254 10.8099 500 63.83 422.128 529.842
1982 0 50.4544 12.8036 646 61.1796 422.24 530.554
1983 0 48.059 12.2766 590 63.1119 422.536 529.17
1984 0 50.5815 14.9066 754 60.7096 422.326 527.18
1985 0 51.3084 15.1047 775 60.8361 422.204 526.214
1986 0 52.083 14.0737 733 62.6098 421.932 524.029
1987 0 55.3383 13.1735 729 62.8669 422.04 526.778
1988 0 56.5948 13.8529 784 62.3941 422.347 523.26
1989 0 58.1502 11.7282 682 65.0029 421.905 522.371
1990 0 61.2631 13.793 845 62.1432 422.484 523.392
1991 0 64.4932 13.1487 848 63.2441 422.137 519.472
1992 0 66.3171 13.7823 914 63.0974 421.916 518.445
1993 0 70.5609 14.3706 1014 61.6992 421.583 519.411
1994 0 72.5496 14.1834 1029 62.3168 422.303 517.437
1995 0 69.1834 13.8328 957 64.5016 422.393 512.701
1996 0 70.15 14.1696 994 64.7746 422.709 510.985
1997 0 72.1346 12.7539 920 66.3304 422.785 504.267
1998 0 73.1279 10.8987 797 68.8557 421.686 505.897
1999 0 70.273 8.78004 617 72.0113 422.462 504.992
2000 0 77.0799 11.1573 860 68.7977 422.13 500.637
2001 0 78.0469 6.45765 504 72.4544 421.968 493.141
2002 0 69.0286 6.60596 456 73.011 421.972 486.636
2003 1 49.1204 9.18152 451 69.9734 421.275 478.871
2004 0 55.3004 14.4484 799 62.1627 422.048 530.284
2005 0 58.4053 14.8959 870 60.4356 422.94 531.466
2006 0 54.452 14.6918 800 63.0162 422.724 527.414
2007 0 59.8864 14.5943 874 62.6064 422.424 525.1
2008 0 58.3872 12.7425 744 65.4798 422.941 524.276
2009 0 60.4225 13.9518 843 63.5706 422.683 526.605
2010 0 62.1785 16.0666 999 61.001 421.736 523.603
2011 0 67.2106 14.2091 955 62.867 421.586 521.271
2012 0 68.3816 12.752 872 64.7959 421.486 521.432
2013 0 71.422 14.7854 1056 61.911 422.28 520.562
2014 0 70.5964 14.9724 1057 62.6717 421.454 518.497
2015 0 73.848 14.1778 1047 62.9198 421.914 519.84
2016 0 78.7162 14.673 1155 62.5628 421.908 515.865
2017 0 80.4561 14.7037 1183 62.8614 421.413 516.566
2018 0 82.5933 14.2869 1180 63.5339 421.27 513.221
2019 0 82.5074 14.7502 1217 63.7535 422.07 508.827
2020 0 88.377 13.8045 1220 64.1139 421.819 510.97
2021 0 86.7819 16.4896 1431 61.9441 421.792 509.584
2022 0 92.6271 13.5382 1254 64.8246 421.91 507.851
2023 0 91.3934 13.7319 1255 65.1665 421.535 506.932
2024 0 93.4282 13.8181 1291 65.8079 421.781 503.926
2025 0 98.449 13.4587 1325 66.0853 422.123 502.428
2026 0 102.308 15.688 1605 63.1171 422.316 504.914
2027 0 104.429 13.7797 1439 65.6435 421.115 503.244
2028 0 110.61 14.8178 1639 64.1995 420.55 497.965
2029 0 113.571 13.7887 1566 65.2273 420.642 499.143
2030 0 116.644 16.9405 1976 61.7343 420.877 496.6
2031 1 57.6866 12.1692 702 66.5214 422.506 525.006
2032 0 61.4649 13.4386 826 65.5496 421.654 523.649
2033 0 64.5793 13.3789 864 65.8773 421.939 521.394
2034 0 66.6397 12.1399 809 66.5278 422.45 519.743
2035 0 67.3801 13.6836 922 65.5933 421.741 520.039
2036 0 70.3835 14.3358 1009 64.3558 421.174 518.93
2037 0 72.4703 13.7298 995 65.592 420.675 516.553
2038 0 75.6605 12.9526 980 66.3776 420.812 514.394
2039 0 80.3574 14.6346 1176 63.8027 421.703 515.723
2040 0 78.4359 11.9971 941 67.3613 421.767 514.465
2041 0 88.3444 14.0586 1242 63.9034 421.303 513.562
2042 0 92.436 14.3883 1330 63.2293 421.708 513.744
2043 0 92.7698 14.606 1355 63.7137 421.065 509.44
2044 0 98.9275 15.4659 1530 61.8444 421.265 513.132
2045 0 98.6171 14.0848 1389 64.2664 421.101 509.037
2046 1 47.2851 13.5138 639 63.5947 420.448 532.645
2047 0 48.7697 14.0456 685 63.7358 421.178 531.038
2048 0 53.2978 13.0212 694 63.7507 420.922 530.909
2049 0 50.4483 13.8954 701 64.5221 421.532 528.409
2050 0 52.7075 13.205 696 64.5345 421.524 530.05
2051 0 57.4955 14.1229 812 63.4668 421.861 529.413
2052 0 54.4879 12.3881 675 66.0089 421.039 529.708
2053 0 59.4466 13.3061 791 64.6612 420.963 527.807
2054 0 61.3324 13.7937 846 64.5662 420.862 527.091
2055 0 62.7089 11.7049 734 67.5409 420.982 524.82
2056 0 63.3699 12.7348 807 66.0781 421.338 526.481
2057 0 69.305 14.9773 1038 63.2746 420.468 524.616
2058 0 68.4466 13.6603 935 65.3914 421.378 523.745
2059 0 73.2812 14.4785 1061 63.7106 420.359 524.084
2060 0 74.6687 12.522 935 67.631 420.347 524.975
2061 0 73.3902 14.566 1069 67.405 419.723 518.171
2062 0 77.2854 14.1424 1093 67.129 420.22 519.8
2063 0 81.2424 16.1738 1314 64.6043 421.238 517.593
2064 0 81.6424 14.0491 1147 68.0035 420.252 514.483
2065 0 86.2176 14.4634 1247 66.7402 420.356 516.155
2066 0 89.8449 15.0815 1355 65.4096 420.925 515.99
2067 0 90.6864 13.6184 1235 67.4964 421.528 514.751
2068 0 92.2999 15.5471 1435 65.5902 420.209 510.405
2069 0 95.5772 15.4116 1473 65.8065 420.517 508.842
2070 0 102.687 14.5685 1496 65.7841 419.913 509.928
2071 0 102.679 15.6897 1611 65.229 420.026 505.356
2072 1 56.4167 9.76662 551 69.2232 420.254 529.162
2073 0 57.2014 13.0067 744 66.7903 420.032 527.277
2074 0 59.0897 15.3157 905 65.2994 420.031 523.775
2075 0 64.2282 15.2425 979 63.8315 419.245 524.67
2076 0 66.278 13.3227 883 65.7214 419.771 523.758
2077 0 66.5382 12.1885 811 67.6523 419.596 520.989
2078 0 67.2529 13.0106 875 67.304 419.997 520.205
2079 0 71.4252 13.9587 997 65.3059 420.373 520.781
2080 0 73.2933 13.4528 986 66.3053 420.618 517.911
2081 0 75.2513 15.2423 1147 64.1622 420.174 516.792
2082 0 76.4244 13.8437 1058 66.4716 420.604 514.47
2083 0 78.127 13.6572 1067 66.5754 420.234 513.408
2084 0 82.3201 14.8323 1221 64.7215 420.159 513.914
2085 0 85.2021 14.7649 1258 65.4205 420.165 509.087
2086 0 85.1853 12.5256 1067 68.1443 420.136 506.64
2087 0 92.594 15.919 1474 64.0298 419.79 507.068
2088 0 92.1372 13.9792 1288 66.6786 419.63 503.328
2089 0 96.5896 14.8774 1437 65.1774 419.798 504.257
2090 0 103.23 14.6857 1516 64.6009 420.07 503.931
2091 0 106.168 14.7408 1565 64.8185 420.445 500.762
2092 0 107.362 15.2848 1641 64.7636 419.745 499.029
2093 0 117.141 12.9673 1519 66.4714 420.29 499.304
2094 0 114.183 14.0827 1608 65.7892 420.006 497.164
2095 0 118.367 14.3874 1703 66.0769 420.672 495.457
2096 1 58.5951 13.0728 766 66.4909 420.304 524.97
2097 0 64.3775 13.8558 892 64.1928 420.507 526.644
2098 0 64.3741 15.3167 986 64.5 420.157 521.852
2099 0 70.1326 11.5781 812 68.0603 420.268 520.616
2100 0 65.293 14.0444 917 67.084 420.354 518.326
2101 0 74.2022 14.4335 1071 65.1046 420.822 520.697
2102 0 76.3161 13.5489 1034 66.4458 420.692 519.299
2103 0 77.3588 16.0551 1242 64.0837 420.258 518.541
2104 0 81.4169 13.3142 1084 66.9603 419.232 518.344
2105 0 81.3088 14.6602 1192 66.1401 420.188 516.792
2106 0 86.4844 14.465 1251 65.8034 419.865 515.213
2107 0 89.5 14.9385 1337 65.828 420.988 513.921
2108 0 93.6339 14.247 1334 66.2174 421.067 511.711
2109 0 97.331 12.7914 1245 67.2313 420.202 515.07
2110 0 99.4521 14.7609 1468 65.2997 420.347 512.599
2111 0 103.523 15.0305 1556 65.0611 419.694 510.643
2112 1 51.2061 12.518 641 66.2636 420.493 530.214
2113 0 55.3972 12.9971 720 65.275 419.771 532.097
2114 0 58.2718 13.0595 761 65.1275 419.482 530.323
2115 0 58.5725 13.8632 812 65.2352 420.337 529.383
2116 0 60.3147 13.5622 818 65.39 420.454 529.336
2117 0 61.1121 15.1034 923 64.7757 420.767 527.587
2118 0 64.2683 14.9529 961 65.0125 420.458 526.305
2119 0 64.1782 13.8832 891 66.4961 420.431 526.814
2120 0 66.2006 13.3534 884 67.0894 420.552 525.161
2121 0 69.1763 14.6871 1016 65.8642 420.941 524.236
2122 0 70.3528 13.4039 943 67.4645 420.803 523.521
2123 0 73.2586 14.6468 1073 66.5266 420.289 523.897
2124 0 76.1178 13.8207 1052 66.384 420.885 525.849
2125 0 77.5255 14.9499 1159 66.7351 420.208 521.801
2126 0 82.2001 15.2433 1253 66.1804 420.718 521.231
2127 0 82.4783 16.4892 1360 65.2096 421.05 519.096
2128 0 85.2068 14.3533 1223 67.9648 420.811 517.682
2129 0 86.5421 14.3398 1241 67.9774 420.696 517.463
2130 0 89.6856 13.8595 1243 68.8576 420.128 515.527
2131 0 93.7098 16.231 1521 65.524 421.667 516.588
2132 0 93.1453 13.6668 1273 70.2325 420.351 510.448
2133 0 96.1652 14.9014 1433 67.6448 420.576 512.881
2134 0 100.533 14.8509 1493 68.0234 420.97 509.311
2135 0 103.478 15.3269 1586 67.2654 420.62 507.412
2136 0 107.239 14.4443 1549 67.8528 421.155 508.073
2137 0 111.591 14.589 1628 67.5221 420.853 508.214
2138 0 117.492 18.8353 2213 61.7528 421.018 508.265
2139 0 116.945 16.2128 1896 66.4077 420.765 500.797
2140 1 56.4617 15.1076 853 63.7245 420.79 532.104
2141 0 59.2936 15.2799 906 62.8388 420.719 532.341
2142 0 56.8272 14.3945 818 65.9768 421.359 528.445
2143 0 60.2474 10.5897 638 70.29 421.661 526.657
2144 0 63.7858 13.8118 881 66.2985 421.737 526.85
2145 0 64.6319 13.4608 870 66.8126 421.248 528.184
2146 0 65.2747 13.5121 882 67.9546 420.59 524.591
2147 0 69.5102 16.5875 1153 63.4553 420.657 527.795
2148 0 71.7317 15.2513 1094 65.3026 419.944 526.224
2149 0 71.4587 13.3504 954 68.7977 419.519 523.016
2150 0 77.6492 13.561 1053 66.9734 420.026 526.668
2151 0 77.6191 14.3135 1111 67.1089 419.94 523.744
2152 0 80.6767 14.0685 1135 67.9445 419.806 521.958
2153 0 80.3609 12.7674 1026 70.3782 420.003 516.945
2154 0 81.3508 13.1529 1070 70.0364 420.004 517.949
2155 0 87.6349 14.2181 1246 68.248 419.865 516.087
2156 0 89.6326 12.9975 1165 69.9193 420.028 514.024
2157 0 92.4496 14.4728 1338 68.5172 420.064 511.322
2158 0 96.4449 15.7188 1516 66.5224 419.332 512.003
2159 0 96.6656 15.4347 1492 67.5087 420.228 509.794
2160 0 99.2215 13.0818 1298 70.4106 420.082 508.331
2161 1 44.5351 10.4187 464 70.0388 420.487 535.494
2162 0 45.225 12.0288 544 67.9963 420.261 535.469
2163 0 46.3607 12.338 572 67.8427 420.533 536.687
2164 0 46.6052 13.1101 611 67.4386 420.774 534.82
2165 0 45.8677 14.6726 673 66.6716 420.941 534.368
2166 0 50.3511 12.532 631 68.5578 421.331 534.233
2167 0 47.757 14.0084 669 68.1809 421.099 532.457
2168 0 50.7222 15.2399 773 66.1591 421.502 531.604
2169 0 54.2059 16.751 908 62.6839 420.946 529.892
2170 1 216.445 10.654 2306 70.4128 419.446 446.137
2171 0 211.509 10.2832 2175 72.5858 418.919 436.784
2172 0 218.587 9.5797 2094 74.0626 419.459 442
2173 0 219.449 10.2393 2247 73.7913 419.376 446.271
2174 0 219.164 10.2936 2256 75.0368 419.68 438.935
2175 0 219.979 9.5691 2105 76.7563 419.837 437.394
2176 0 230.668 11.2109 2586 73.2243 419.804 442.898
2177 0 232.377 10.2549 2383 75.3177 419.938 446.141
2178 1 98.5025 15.492 1526 57.4017 420.993 516.1
2179 0 93.3009 16.7951 1567 57.0696 420.726 514.093
2180 0 99.5216 15.2228 1515 58.2772 420.015 510.737
2181 0 101.988 18.306 1867 54.3733 418.995 505
2182 0 94.4429 16.4332 1552 59.7693 419.818 510.652
2183 0 92.7478 16.5179 1532 61.1854 421.105 512.24
2184 0 102.673 19.5961 2012 55.7058 420.473 505.482
2185 0 93.7663 17.405 1632 60.9743 420.124 507.531
2186 0 93.5793 21.0944 1974 57.5806 419.439 504.301
2187 1 104.45 22.9296 2395 54.405 419.408 501.338
2188 1 48.4457 11.4768 556 70.4083 420.811 532.308
2189 0 54.4538 14.8934 811 65.7892 420.382 532.223
2190 0 48.5984 11.6259 565 72.4407 421.388 528.796
2191 0 55.4574 13.3436 740 69.2595 421.278 529.266
2192 0 52.3061 13.4592 704 70.6847 420.58 526.508
2193 0 53.4301 13.8873 742 70.2763 420.257 526.985
2194 0 61.4435 12.6946 780 69.168 420.177 530.772
2195 0 61.1313 12.5631 768 70.2435 419.84 527.298
2196 0 67.2873 13.1674 886 68.5643 419.603 525.44
2197 0 68.3322 13.6246 931 68.2857 420.147 522.291
2198 0 70.6842 12.5488 887 69.8873 419.867 522.213
2199 0 72.2844 14.7058 1063 67.2258 420.581 520.005
2200 0 76.3748 13.8265 1056 67.7907 420.705 519.243
2201 0 76.4801 13.1276 1004 69.0368 420.541 519.893
2202 0 77.3718 13.1702 1019 69.7762 419.808 517.689
2203 0 82.5144 11.9737 988 70.4555 420.121 516.5
2204 0 88.4112 15.6089 1380 65.1072 420.133 519.829
2205 0 90.2775 14.5773 1316 66.5433 420.156 519.301
2206 0 92.6607 15.9723 1480 65.3601 419.111 515.013
2207 0 96.355 15.7231 1515 65.3122 420.127 516.226
2208 0 99.6142 16.1925 1613 65.1556 420.235 513.752
2209 0 103.46 15.6195 1616 65.8181 419.421 513.249
2210 0 107.492 16.8571 1812 63.9492 419.64 512.327
2211 0 110.544 15.9756 1766 65.59 419.578 510.365
2212 1 60.3624 11.9777 723 66.7317 419.705 534.497
2213 0 63.2289 14.661 927 64.5847 420.249 533.836
2214 0 63.5143 13.1781 837 68.0968 420.493 529.992
2215 0 66.4492 13.9505 927 65.0798 420.2 534.23
2216 0 70.1618 15.1222 1061 64.7502 420.746 530.696
2217 0 71.3238 14.1608 1010 66.3881 420.128 528.876
2218 0 73.7592 14.1813 1046 66.5841 420.025 528.045
2219 0 73.3011 13.2467 971 68.7806 419.61 524.815
2220 0 78.7021 15.1711 1194 65.7982 419.049 525.691
2221 0 80.124 14.5774 1168 66.708 419.704 524.171
2222 0 80.5956 14.5541 1173 67.5865 420.057 522.194
2223 0 86.335 15.0229 1297 65.8281 419.54 523.612
2224 0 84.3544 14.1309 1192 68.5327 420.474 520.072
2225 0 90.3814 14.7044 1329 66.7961 420.929 520.918
2226 0 92.8007 14.3533 1332 67.4039 420.796 519.821
2227 0 97.184 15.5478 1511 65.3898 420.287 520.329
2228 0 94.6439 13.6617 1293 69.7177 420.27 515.974
2229 1 13.3069 12.8505 171 50.2047 418.988 554.655
2230 0 12.012 13.7362 165 49.2485 419.491 553.77
2231 0 13.0856 8.86473 116 51.9052 419.388 554.784
2232 0 13.2054 7.87558 104 51.2885 420.038 555.183
2233 0 13.0045 4.1524 54 52.8148 419.685 555.852
2234 0 13.0609 6.73764 88 52.7841 420 554.773
2235 0 14.2692 10.2319 146 50.5137 420.178 555.13
2236 0 14.0802 13.4231 189 48.4127 419.328 553.672
2237 0 12.02 10.8985 131 50.2672 419.855 554.527
2238 0 13.0581 5.36067 70 53.0714 419.571 554.786
2239 0 15.1249 12.8926 195 47.8667 420.246 555.667
2240 1 56.3081 15.2021 856 63.486 420.317 535.996
2241 0 56.4806 11.4021 644 68.7764 421.463 530.578
2242 0 60.68 14.3375 870 64.4391 421.116 534.076
2243 0 61.4472 15.3628 944 62.7744 420.834 534.94
2244 0 63.2828 15.0752 954 63.9256 420.547 531.21
2245 0 64.2099 12.5993 809 67.4833 420.889 525.805
2246 0 66.631 13.9274 928 65.4968 420.773 526.259
2247 0 66.5974 11.6371 775 68.6568 420.577 525.591
2248 0 72.3083 15.0605 1089 63.36 420.736 528.484
2249 0 73.0946 14.5975 1067 64.2512 420.876 526.149
2250 0 76.51 13.7237 1050 65.2419 421.231 524.994
2251 0 79.3793 16.8432 1337 61.7973 421.087 523.025
2252 0 81.347 12.8831 1048 66.3387 421.154 522.126
2253 0 83.6707 13.9714 1169 64.7348 420.887 521.956
2254 0 85.3475 11.9511 1020 67.8088 420.905 516.708
2255 0 89.5539 15.1752 1359 63.3157 420.697 519.414
2256 0 91.3828 12.9674 1185 66.1865 421.418 518.028
2257 0 96.7535 14.4181 1395 63.9104 421.158 519.621
2258 0 98.8784 13.9464 1379 65.2509 421.012 510.729
2259 1 12.0234 10.3964 125 48.864 421.096 554.56
2260 0 13.0157 12.9075 168 49.4048 421.161 553.792
2261 0 13.1431 10.4237 137 49.8467 421.416 554.234
2262 0 13.0094 14.3742 187 47.9412 422 554.727
2263 0 12.0625 13.2642 160 47.8312 421.562 554.912
2264 0 11.0104 7.71996 85 50.4941 421.024 556.224
2265 0 14.0909 9.50965 134 50.0298 421.672 554.216
2266 0 12.0104 10.2412 123 49.0488 421.382 557.098
2267 0 13.0503 11.3407 148 48.7973 421.189 555.439
2268 0 13.0144 10.6805 139 48.5252 420.561 553.388
2269 0 14.1098 13.0406 184 46.962 421.179 554.587
2270 0 14.1286 7.64408 108 48.8426 420.917 555.843
2271 0 14.0081 14.3488 201 47.2388 421.139 553.93
2272 0 13.0256 8.29134 108 50.1019 421.139 554.315
2273 0 13.0189 10.3695 135 48.9778 421 555.578
2274 0 12.013 8.74054 105 49.1048 421.124 555.524
2275 0 14.034 10.047 141 49.1206 421.021 555.043
2276 0 14.2876 11.8284 169 47.2722 419.716 553.568
2277 0 12.0113 5.07855 61 51.082 420.098 554.951
2278 0 15.0423 13.6282 205 46.5415 420.844 553.966
2279 0 15.3628 9.17801 141 48.695 420.752 555.156
2280 0 15.0926 12.7215 192 47.599 420.464 553.771
2281 0 12.0097 4.99595 60 51.8333 419.833 553.983
2282 0 13.1963 5.38029 71 51.8451 419.465 553.014
2283 0 13.0246 7.44744 97 51.2784 420.186 553.918
2284 0 13.1772 11.9145 157 48.1656 421.102 554.58
2285 0 13.0541 5.28568 69 51.6667 419.522 553.768
2286 0 13.1454 6.54223 86 51.3256 421.244 552.965
2287 0 15.2995 8.62774 132 49.6667 420.841 553.705
2288 0 15.1099 8.73598 132 49.2652 420.576 553.311
2289 0 14.0461 6.90582 97 49.7113 420.144 552.65
2290 0 12.0532 9.45807 114 48.7719 419.851 553.447
2291 0 14.1402 8.06209 114 49.7281 420.895 554.509
2292 0 13.1254 4.72366 62 51.6935 419.484 553.903
2293 0 13.0618 8.95742 117 48.8291 421.436 554.419
2294 0 13.0341 1.7646 23 53.2609 419.391 551.217
2295 0 11.0139 3.45018 38 53.0263 420.263 552.237
2296 0 13.0906 9.47248 124 49.5484 421.097 553.726
2297 0 16.0673 7.9665 128 48.7188 420.945 555.32
2298 0 14.0697 7.53392 106 50.0755 420.538 553.755
2299 0 13.0549 9.65157 126 47.8492 421.056 554.317
2300 0 13.0065 8.22666 107 47.4299 421.196 555.402
2301 0 12.0779 9.85272 119 46.1008 420.941 551.992
2302 0 13.0042 8.2281 107 47.5607 421.084 554.29
2303 0 13.0717 9.40967 123 46.4634 420.707 553.756
2304 0 15.2314 8.33805 127 47.0709 420.906 552.063
2305 0 14.2452 7.09011 101 47.5743 420.248 552.158
2306 0 14.0935 11.1399 157 46.6369 420.382 552.344
2307 0 14.1988 13.0293 185 44.627 422.341 552.838
2308 0 17.1231 13.4905 231 43.8312 422.636 552.939
2309 0 13.038 7.6699 100 47.57 421.45 551.49
2310 0 14.2991 12.798 183 45.1421 422.787 552.896
2311 0 13.0059 4.38264 57 48.4386 421.263 554.79
2312 0 14.0903 11.9231 168 46.0536 421.155 552.036
2313 0 14.0916 6.88354 97 47.8144 421.196 553.309
2314 0 13.0459 12.7243 166 45.2952 421.169 553.988
2315 0 12.0384 2.90737 35 50.7714 419.857 554.714
2316 0 13.0247 9.90426 129 47.0078 420.581 552.667
2317 0 15.1089 7.67758 116 47.8707 420.431 552.31
2318 0 13.1331 7.91892 104 47.8942 420.933 553.827
2319 0 12.2305 10.0568 123 47.6748 420.528 552.171
2320 0 13.2449 8.8336 117 47.8803 421.231 552.872
2321 0 15.1434 9.24494 140 47.3857 421.707 552.543
2322 0 14.1725 10.9367 155 46.9742 422.026 553.336
2323 0 14.096 9.50628 134 46.9552 421.694 552.702
2324 0 15.0417 9.90578 149 46.9866 421.302 552.396
2325 0 14.1742 7.69005 109 47.6606 420.853 552.339
2326 0 13.1291 7.54048 99 48.2525 421.424 552.859
2327 0 15.2682 12.2477 187 45.9572 422.091 551.674
2328 0 15.4533 6.60053 102 47.0392 421.471 554.363
2329 0 14.2464 11.0204 157 46.2293 421.592 552.86
2330 0 14.125 3.82301 54 49.4815 422.167 554.074
2331 0 16.0513 12.7092 204 45.3578 421.397 553.137
2332 0 15.1657 13.7152 208 44.976 421.312 552.904
2333 0 14.0766 14.2079 200 45.725 422.495 552.215
2334 0 12.0378 9.22096 111 46.2432 422.378 554.306
2335 0 12.0431 7.05798 85 48.3412 422.106 553.176
2336 0 14.299 11.7491 168 45.9821 421.887 552.482
2337 0 15.2275 13.5938 207 44.4251 421.609 552.188
2338 0 14.4106 10.9642 158 46.0949 421.582 552.171
2339 0 12.0066 2.6652 32 50.7188 421.906 552.281
2340 0 13.0471 5.05861 66 48.7121 421.121 550.182
2341 0 14.2278 11.105 158 47.0886 421.975 551.747
2342 0 12.027 14.5506 175 45.76 421.954 552.989
2343 0 15.3377 11.2142 172 46.6802 422.285 551.279
2344 0 16.4354 12.6556 208 45.9183 422.38 552.755
2345 0 14.4889 13.3895 194 45.4124 421.985 553.124
2346 0 11.1032 7.92561 88 48.7614 420.841 552.761
2347 0 12.0439 13.0357 157 46.7516 421.229 551.318
2348 0 14.1131 9.06956 128 48.4062 421.578 551.406
2349 0 14.131 11.6057 164 46.939 422.561 551.506
2350 0 14.1073 9.56953 135 44.6148 422.119 551.733
2351 0 14.1569 15.0456 213 42.2676 421.826 551.08
2352 0 15.1569 14.5148 220 42.0682 422.191 552.618
2353 0 14.005 11.6387 163 42.8773 421.957 552.54
2354 0 13.0651 3.59738 47 47.6383 421.596 552.362
2355 0 15.05 11.0299 166 43.0482 422.295 552.512
2356 0 14.0561 10.8849 153 43.2484 421.935 552.817
2357 0 15.0153 10.123 152 44.7368 422.796 550.816
2358 0 15.0745 14.5278 219 43.0046 423.046 551.114
2359 0 16.2234 10.2321 166 44.506 422.169 549.675
2360 0 15.02 12.5167 188 43.7553 421.638 550.234
2361 0 13.0172 10.9855 143 43.9231 422.531 552.147
2362 0 13.0902 5.57668 73 46.7808 421.822 551.822
2363 0 16.3759 12.3352 202 43.4554 422.297 551.233
2364 0 15.1175 11.1791 169 44.8106 422.722 552.095
2365 0 15.1221 13.1595 199 43.9296 422.688 551.397
2366 0 16.0188 12.4853 200 43.395 422.04 551.4
2367 0 15.0138 13.2545 199 43.397 422.307 551.266
2368 0 13.1283 5.86521 77 47.7273 421.156 552.494
2369 0 14.0109 4.35375 61 48.1639 421.361 552.721
2370 0 15.0624 15.2699 230 43.1261 421.861 550.652
2371 0 14.0726 15.2779 215 42.7535 422.242 551.535
2372 0 13.0837 10.3182 135 46.5926 423.237 549.859
2373 0 14.0559 8.82194 124 45.9435 422.581 552.25
2374 0 14.0118 14.8447 208 43.1154 422.731 551.577
2375 1 68.2122 14.0297 957 60.1191 421.781 526.903
2376 0 69.2093 13.4086 928 60.806 421.508 525.524
2377 0 70.1539 11.3607 797 63.6449 421.238 522.585
2378 0 70.1214 12.2217 857 62.5449 421.513 523.441
2379 0 73.1192 10.394 760 65.4066 421.201 519.492
2380 0 75.143 11.365 854 64.0433 421.488 520.526
2381 0 77.0827 13.2066 1018 62.0413 422.004 519.345
2382 0 82.1394 13.4893 1108 61.1146 422.754 521.981
2383 0 84.1308 13.7881 1160 61.9448 422.428 516.479
2384 0 84.1164 11.0204 927 65.7789 422.123 512.529
2385 0 90.1928 13.7594 1241 62.0991 421.917 513.062
2386 0 90.1529 11.2365 1013 65.9437 422.037 509.373
2387 1 14.0722 7.74577 109 46.6147 423.945 551.688
2388 0 14.3735 11.6186 167 45.6826 423.126 550.832
2389 0 12.0039 7.91407 95 46.3368 423.253 551.305
2390 0 14.0019 7.78468 109 46.9358 423.917 550.532
2391 0 13.0206 5.83692 76 47.6974 424.355 550.632
2392 0 14.01 7.20915 101 47.5842 424.594 549.792
2393 0 13.0038 9.07428 118 46.2712 425.61 551.797
2394 0 15.0628 15.0703 227 44.1498 425.198 549.485
2395 0 13.2423 10.3457 137 46.8686 425.328 550.299
2396 0 14.0056 8.63943 121 47.3058 425.281 550
2397 0 14.0205 12.9097 181 44.7293 424.74 549.282
2398 0 14.0128 14.2013 199 44.3869 424.291 550.085
2399 0 13.1792 8.11884 107 47.8972 423.393 550.776
2400 0 15.0341 12.3719 186 45.6828 423.317 549.839
2401 0 14.0043 12.9246 181 45.4862 423.674 551.354
2402 0 15.0296 12.0429 181 46.3757 423.994 549.768
2403 0 15.0042 11.5968 174 45.592 423.695 551.213
2404 0 14.0089 11.2072 157 46.1656 424.223 550.427
2405 0 14.0166 8.77531 123 47.1626 424.138 549.496
2406 0 14.0056 8.63939 121 46.686 423.19 551.678
2407 0 13.0062 8.07306 105 48.3048 424.219 551.162
2408 0 14.006 9.35311 131 46.9847 424.191 551.13
2409 0 13.0087 5.53475 72 49.0694 423.736 552.306
2410 0 14.0328 6.98365 98 47.602 423.888 553.296
2411 0 12.0241 14.8868 179 45.8603 422.922 549.497
2412 0 14.0251 8.48477 119 48.1597 423.689 550.58
2413 0 15.0084 10.3276 155 46.9806 423.723 550.136
2414 0 15.109 12.2444 185 46.8649 422.384 549.465
2415 0 14.0158 13.6275 191 46.623 422.916 549.429
2416 0 14.0074 9.4236 132 47.6742 423.379 549.091
2417 0 16.0034 8.12327 130 46.3462 424.492 550.723
2418 0 15.019 12.1846 183 45.3388 424.35 550.153
2419 0 16.0336 9.35535 150 44.6 424.227 553.227
2420 0 14.0043 8.42598 118 47.1356 425.305 550.28
2421 0 14.0182 9.13102 128 46.6484 425.375 550.938
2422 0 14.0363 9.04797 127 46.6535 424.858 550.236
2423 0 16.0179 8.42806 135 46.0815 424.081 552.356
2424 0 16.0081 11.0569 177 44.0904 423.746 551.893
2425 0 13.0115 11.2977 147 45.7415 423.748 549.993
2426 0 13.0052 11.0725 144 46.1597 424.403 551.264
2427 0 14.0181 6.34896 89 48.1236 425.079 549.236
2428 0 15.0037 10.5974 159 46.2893 423.403 548.34
2429 0 15.0432 8.90768 134 46.7761 424.082 547.373
2430 0 15.0118 10.192 153 45.9804 424.131 549.105
2431 0 14.0121 7.4935 105 48.1619 424.248 550.229
2432 0 16.0142 6.3069 101 48.4653 424.594 551.01
2433 0 16.0303 8.23442 132 45.6667 423.992 552.015
2434 0 14.0141 9.20501 129 46.8217 424.078 549.837
2435 0 15.0494 15.4159 232 44.9224 423.728 549.444
2436 0 14.0033 7.14116 100 48.59 423.39 552.11
2437 0 16.1415 7.55817 122 48.1967 423.779 552
2438 0 16.0503 9.0341 145 46.7931 424.572 551.703
2439 0 14.0183 5.92083 83 49.3133 424.482 550.096
2440 0 15.0264 10.049 151 47.2252 423.967 549.53
2441 0 16.1359 7.49881 121 48.4298 423.926 552.124
2442 0 16.0358 11.8485 190 46.3526 424.011 550.179
2443 0 16.013 9.2425 148 47.4054 423.081 551.365
2444 0 17.041 9.91729 169 46.7988 423.438 549.284
2445 0 16.0061 8.49678 136 48.2941 424.162 549.757
2446 0 16.1774 9.3958 152 48.2566 423.211 550.697
2447 0 17.0175 9.16706 156 47.4551 423.827 552.731
2448 0 17.0302 10.452 178 47.2753 423.933 550.286
2449 0 17.0173 12.4579 212 46.6415 423.835 550.561
2450 0 17.0056 11.4668 195 47.0872 423.01 550.938
2451 0 18.0356 11.5327 208 47.2885 423.361 549.606
2452 0 17.0408 10.6803 182 47.9506 423.187 550.907
2453 0 17.0187 6.11092 104 51.2308 423.192 551.702
2454 0 16.0189 10.113 162 49.2346 422.753 549.784
2455 0 19.0908 11.1048 212 47.3821 423.335 549.939
2456 0 16.0224 8.42569 135 50.6741 423.911 550.237
2457 0 20.0065 12.0961 242 47.2025 423.95 549.128
2458 0 17.0112 13.932 237 47.9114 423.346 548.932
2459 0 19.1176 14.6985 281 46.7011 423.907 548.662
2460 0 19.0248 9.7767 186 48.9839 422.984 548.737
2461 0 18.0122 8.16113 147 50.3673 423.456 549.361
2462 0 18.0802 10.2322 185 49.7892 422.768 549.092
2463 0 18.0099 7.77349 140 51.0357 423.243 549.25
2464 0 16.0333 7.23496 116 52.0086 423.724 550.44
2465 0 20.0056 11.2469 225 48.7422 423.489 547.493
2466 0 19.0433 8.03431 153 50.7908 423.739 548.229
2467 0 19.0637 8.18308 156 49.5705 422.878 550.776
2468 0 20.0218 10.1889 204 49.152 423.328 549.51
2469 0 19.018 8.99147 171 50.3567 423.281 548.123
2470 0 21.0249 14.0786 296 47.2432 422.615 547.757
2471 0 22.0033 10.3166 227 49.4978 422.855 547.256
2472 0 21.0493 12.0669 254 48.0827 423.748 549.047
2473 0 20.0372 7.7356 155 51.8258 422.819 548.148
2474 0 22.0102 8.90495 196 51.4847 424.214 548.765
2475 0 21.037 9.64965 203 52.0542 423.813 547.478
2476 0 23.0325 11.5055 265 49.9245 423.389 546.804
2477 0 27.0331 14.6857 397 47.1864 423.003 545.267
2478 0 22.0402 13.1578 290 50.3552 423.438 546.848
2479 0 27.0506 10.9794 297 50.1481 423.364 546.121
2480 0 26.0146 13.1849 343 49.2128 422.114 545.65
2481 0 27.1015 10.9219 296 50.8243 422.75 545.655
2482 0 26.0252 14.9855 390 48.8923 422.933 544.482
2483 0 28.0367 11.5206 323 50.678 423.3 544.291
2484 0 25.1676 12.1187 305 51.8852 422.387 544.597
2485 0 29.0893 13.682 398 49.7789 421.912 544.487
2486 0 30.0414 15.2789 459 48.939 422.146 542.776
2487 0 27.1104 10.0331 272 54.3419 423.46 544.302
2488 0 29.0691 9.90742 288 54.1319 423.719 543.573
2489 0 28.0204 9.92135 278 54.7914 423.878 543.45
2490 0 29.2301 11.1187 325 53.9508 423.732 541.711
2491 0 31.0139 13.5745 421 52.0784 423.684 539.786
2492 0 32.0927 11.8407 380 53.2263 422.768 541.587
2493 0 33.0334 8.93036 295 55.6644 422.885 541.803
2494 0 30.0134 10.8951 327 55.4648 422.404 540.474
2495 0 35.0371 11.9873 420 53.7286 422.795 538.117
2496 0 34.0753 12.3256 420 53.4905 422.212 540.379
2497 0 36.0239 12.7416 459 53.2723 422.089 538.107
2498 0 36.0487 12.7883 461 52.9197 423.195 539.727
2499 0 37.0642 9.17327 340 56.2 423.524 536.944
2500 0 38.0322 8.72943 332 56.0181 423.503 538.997
2501 0 38.0505 11.7738 448 54.0402 424.429 535.966
2502 1 0 0 5 45.6 428 513
2503 1 43.2154 14.393 622 51.9598 423.127 533.09
2504 0 45.0435 13.0319 587 53.2913 422.879 532.649
2505 0 42.0437 12.2492 515 54.1398 422.557 533.049
2506 0 46.2288 11.8757 549 54.5464 423.178 533.253
2507 0 46.0766 12.6311 582 54.5137 423.359 531.4
2508 0 47.0307 14.1822 667 52.9295 423.594 531.979
2509 0 48.1834 15.1089 728 52.5096 423.293 529.098
2510 0 52.0749 9.83199 512 56.5098 423.316 529.121
2511 0 53.0476 14.553 772 52.9041 423.122 527.605
2512 0 54.1612 13.0352 706 54.432 422.506 523.768
2513 0 56.1657 12.9795 729 54.6022 422.2 526.564
2514 0 56.1539 14.2822 802 53.4738 422.964 527.008
2515 0 58.0891 12.0849 702 55.9387 422.365 525.024
2516 0 60.0978 13.3283 801 55.2959 422.933 525.508
2517 0 63.1364 13.9856 883 54.4541 422.682 523.659
2518 0 63.1161 12.5641 793 56.4956 422.291 522.806
2519 0 63.1031 12.4558 786 56.5522 421.983 523.589
2520 0 65.1263 12.1763 793 56.9407 421.916 522.613
2521 0 67.236 11.8835 799 56.4393 422.208 523.788
2522 0 69.1263 15.2474 1054 53.6831 421.759 518.002
2523 0 70.3798 14.3081 1007 55.282 422.658 519.533
2524 0 70.0778 11.5729 811 57.7546 422.674 517.827
2525 0 73.1305 13.346 976 55.7746 422.24 519.281
2526 0 75.181 14.7245 1107 55.1861 423.279 518.045
2527 0 76.0523 14.5163 1104 56.4629 423.503 514.364
2528 0 77.0832 13.8552 1068 57.088 422.545 517.916
2529 0 79.4172 13.8887 1103 57.4551 421.971 514.544
2530 0 81.1991 13.4115 1089 58.0165 422.677 518.027
2531 0 82.2821 15.2889 1258 57.0652 422.953 512.551
2532 0 82.3029 14.556 1198 58.1836 422.677 514.132
2533 0 86.2961 16.4781 1422 56.5239 422.902 512.692
2534 0 86.1419 14.3368 1235 59.1846 422.973 512.547
2535 0 89.1206 14.4074 1284 58.8084 423.523 513.49
2536 0 90.162 15.6496 1411 58.0276 423.345 508.676
2537 1 55.1432 11.3341 625 64.3264 424.307 527.368
2538 0 57.179 11.2279 642 64.2866 424.322 527.933
2539 0 58.0608 11.9702 695 63.754 424.288 526.378
2540 0 60.0427 13.4571 808 61.7153 423.852 526.897
2541 0 59.1815 12.166 720 64.2264 423.199 525.153
2542 0 60.0493 13.9052 835 61.7006 421.831 525.926
2543 0 60.0629 12.437 747 63.253 422.501 525.102
2545 0 60.0577 11.5722 695 64.2921 423.439 524.842
2546 0 62.0806 13.4342 834 61.8034 423.526 524.887
2547 0 62.1316 12.1999 758 63.4208 423.61 524.551
2548 0 61.052 11.7441 717 64.59 424.015 525.437
2549 0 62.0503 11.2328 697 65.0732 423.58 523.422
2550 0 65.0377 11.4857 747 63.8594 423.139 523.811
2551 0 66.0666 13.0626 863 62.3395 423.552 522.19
2552 0 65.0779 14.7823 962 60.5509 422.79 522.428
2553 0 64.053 12.2243 783 63.3155 423.037 523.771
2554 0 63.0662 11.7337 740 63.7878 423.403 524.949
2555 0 63.1544 11.369 718 64.7368 423.391 523.82
2556 0 66.2404 11.7149 776 63.4807 423.406 521.908
2557 0 64.1156 11.916 764 63.627 422.902 521.993
2558 0 66.0608 12.4582 823 62.9587 423.488 520.314
2559 0 67.0548 12.0797 810 62.4975 422.854 524.015
2560 0 66.077 13.0151 860 62.4372 422.909 521.88
2561 0 69.0422 11.7175 809 63.2386 423.042 520.831
2562 0 66.1205 12.7041 840 62.6929 423.208 521.729
2563 0 68.029 12.6417 860 62.1256 423.309 521.265
2564 0 68.1048 11.8934 810 62.9741 423.64 520.752
2565 0 69.0735 13.3336 921 60.899 423.687 519.892
2566 0 69.0631 12.9157 892 61.2108 423.24 522.192
2567 0 67.1513 12.2857 825 62.4133 423.736 519.847
2568 0 69.2016 11.5315 798 62.2694 423.095 522.769
2569 0 70.0763 12.415 870 61.069 422.829 521.422
2570 0 69.1028 11.8374 818 62.2005 423.346 521.176
2571 0 72.087 13.1369 947 59.9113 423.419 521.753
2572 0 70.095 12.5401 879 60.8316 423.399 520.296
2573 0 70.2877 12.2781 863 60.9258 423.435 523.057
2574 0 70.0954 11.5129 807 61.9529 423.736 519.969
2575 0 69.1976 12.3704 856 61.59 423.202 520.967
2576 0 70.0825 12.1143 849 61.0012 422.128 522.27
2577 0 71.0413 11.81 839 61.3945 421.866 521.462
2578 0 68.2983 10.7177 732 63.235 422.37 520.141
2579 0 70.2786 11.4259 803 61.9664 422.776 519.178
2580 0 70.094 12.4832 875 60.4503 422.786 522.029
2581 0 71.0602 11.2018 796 61.5239 422.893 520.91
2582 0 69.0679 10.9892 759 62.7905 422.813 520.752
2583 0 71.0652 13.171 936 59.8526 423.177 519.59
2584 1 133.17 13.4565 1792 61.7355 422.824 490.664
2585 0 135.188 12.8487 1737 61.9194 421.634 490.307
2586 0 134.223 13.0603 1753 62.4455 420.983 490.048
2587 0 136.179 12.4248 1692 62.7884 420.997 489.349
2588 0 139.1 12.6959 1766 62.1376 421.447 490.613
2589 0 140.228 12.7863 1793 62.2711 421.17 486.331
2590 0 141.224 14.1265 1995 60.811 421.23 485.772
2591 0 143.175 15.5963 2233 58.4528 422.212 488.778
2592 0 142.133 12.9738 1844 61.8791 422.55 485.886
2593 1 74.1534 12.4607 924 59.4957 422.527 518.694
2594 0 73.0713 13.1378 960 58.8302 423.133 519.371
2595 0 75.0472 12.9518 972 58.713 422.62 519.924
2596 0 74.097 12.1327 899 58.9177 421.727 518.245
2597 0 69.2673 10.0769 698 56.6318 422.345 517.65
2598 0 70.2356 9.25456 650 55.1338 422.871 521.446
2599 0 69.2475 7.79812 540 51.3907 423.08 522.8
2600 0 67.1316 9.45903 635 52.3669 423.669 520.287
2601 0 68.0639 8.97686 611 53.1735 423.224 522.807
2602 0 68.052 11.7116 797 51.9586 422.632 516.38
2603 0 68.1196 8.11807 553 54.1429 421.928 521.577
2604 0 69.1859 9.01918 624 53.6554 422.316 518.077
2605 0 70.0568 11.9332 836 51.3469 421.636 518.495
2606 0 68.122 11.2739 768 52.3945 421.991 517.449
2607 0 69.0998 10.9986 760 52.1513 422.097 517.65
2608 0 68.1172 10.6728 727 52.9587 422.122 516.73
2609 0 70.0512 11.8199 828 50.8925 422.06 520.934
2610 0 71.0626 12.3553 878 50.6355 422.677 521.219
2611 0 68.0832 10.9278 744 52.9436 422.411 515.286
2612 0 69.1318 12.6281 873 51.2932 422.722 517.502
2613 0 69.0794 10.6978 739 52.3139 422.475 517.211
2614 0 70.1759 11.2717 791 52.0367 422.432 517.362
2615 0 68.0855 9.98744 680 53.2 422.487 518.331
2616 0 66.191 10.5301 697 54.5925 421.984 517.376
2617 0 71.1281 11.1067 790 51.2962 422.106 520.068
2618 0 69.1199 11.603 802 51.4638 422.716 519.481
2619 0 72.2496 11.0312 797 51.0414 423.058 519.695
2620 0 71.2161 10.6577 759 52.2899 423.389 519.055
2621 0 70.1888 11.5118 808 51.9035 422.224 516.699
2622 0 70.1019 10.014 702 52.3989 422.235 519.744
2623 0 70.1613 12.7991 898 50.0612 422.72 517.874
2624 0 69.1206 10.6336 735 52.332 422.533 517.412
2625 0 71.0931 11.3935 810 51.5148 422.446 516.759
2626 0 69.0746 9.64175 666 52.8273 422.122 516.904
2627 0 69.1041 12.691 877 50.3261 422.651 518.383
2628 0 71.2844 12.1906 869 50.4764 422.856 518.353
2629 0 68.0521 10.3891 707 52.1103 422.909 519.547
