time division length width area intensity CMx CMy
0 0 51.1181 11.6788 597 58.8626 1189.16 528.322
1 0 49.1201 11.5024 565 60.3912 1188.55 527.255
2 0 51.0958 12.8778 658 57.8769 1188.87 528.479
3 0 51.0958 12.8973 659 147.744 1188.86 528.449
4 0 54.0614 13.1887 713 56.9579 1188.92 525.985
5 0 56.0693 14.2859 801 55.834 1187.86 525.692
6 0 56.0421 13.1508 737 57.6174 1188.19 524.555
7 0 59.1546 13.6084 805 56.5118 1188.26 524.062
8 0 58.0655 12.1415 705 59.095 1188.14 522.736
9 0 61.0647 12.9698 792 57.4104 1188.65 524.053
10 0 63.0392 14.4355 910 55.4407 1187.9 523.056
11 0 64.1103 15.0366 964 54.7542 1187.91 521.484
12 0 65.0933 12.7202 828 57.4891 1188.4 522.522
13 0 66.161 12.1068 801 58.4519 1188.59 522.24
14 0 68.1125 14.2118 968 56.2572 1188.07 520.566
15 0 72.1943 13.9208 1005 56.191 1187.5 520.111
16 0 72.1496 12.0167 867 59.4187 1187.73 520.33
17 0 75.2098 13.2961 1000 58.053 1188.5 519.879
18 0 76.1476 13.1587 1002 58.3882 1187.6 517.744
19 1 37.0426 10.7714 399 60.2331 1187.58 535.629
20 0 41.0165 9.2158 378 61.3624 1187.48 536.503
21 0 41.0411 11.6225 477 59.1132 1187.78 534.574
22 0 43.0203 13.1333 565 57.6673 1187.87 533.428
23 0 44.013 13.3597 588 58.0187 1186.2 530.968
24 0 45.0597 11.1186 501 60.8363 1187.23 533.058
25 0 45.0396 11.3234 510 61.5373 1188.39 531.7
26 0 49.0874 13.5065 663 57.6063 1188.63 531.29
27 0 48.0492 12.7161 611 60.9722 1188.52 529.89
28 0 50.1141 12.9305 648 60.6574 1188.27 529.322
29 0 52.1577 13.4017 699 59.3691 1188.35 531.229
30 0 52.0593 12.044 627 62.3317 1187.29 529.164
31 0 54.1262 13.8196 748 58.8757 1187.57 529.457
32 0 55.1019 12.5767 693 61.2366 1187.61 526.392
33 0 55.1019 12.6493 697 160.826 1187.62 526.331
34 0 57.077 11.4232 652 62.8497 1187.72 527.439
35 0 60.0665 12.7525 766 61.0091 1188.86 525.227
36 0 60.0935 12.3308 741 62.6586 1188.43 523.039
37 0 62.1286 12.6512 786 61.5331 1188.36 523.738
38 0 63.1299 13.0049 821 61.4397 1188.8 523.395
39 0 65.1044 13.7318 894 61.0212 1187.67 519.789
40 0 68.2052 12.7996 873 61.8591 1188.87 520.835
41 0 70.1 13.3238 934 60.97 1188.42 520.499
42 0 73.0997 13.7483 1005 60.2607 1189.18 522.038
43 0 73.0842 12.6293 923 62.6966 1188.59 518.673
44 0 76.0597 13.7261 1044 61.455 1188.68 517.546
45 0 75.1095 11.5432 867 64.8674 1189.07 516.956
46 0 78.1705 12.3448 965 63.2622 1189.11 517.593
47 0 81.1066 13.5871 1102 63.0898 1188.84 513.351
48 0 81.1367 11.9182 967 65.0383 1189.76 515.62
49 1 41.0138 12.0691 495 63.396 1190 534.154
50 0 41.0206 10.2144 419 66.4797 1189.88 533.332
51 0 44.0202 10.4725 461 65.2234 1189.93 533.449
52 0 46.0506 12.204 562 63.6886 1189.65 531.712
53 0 47.0796 12.2134 575 63.8974 1189.31 532.08
54 0 48.046 12.2383 588 64.568 1189.01 529.898
55 0 49.0324 13.1546 645 64.2326 1189.94 527.293
56 0 50.0247 12.5338 627 64.512 1189.26 528.847
57 0 54.0378 12.6763 685 64.1197 1189.86 526.442
58 0 51.1179 10.9942 562 66.6014 1189.9 526.504
59 0 58.0684 13.6391 792 62.0669 1189.63 527.164
60 0 58.0275 14.2002 824 61.8653 1190.2 526.979
61 0 59.1339 12.5478 742 63.841 1190.2 525.284
62 0 62.053 13.0534 810 63.0741 1189.87 523.904
63 0 63.0461 12.8795 812 63.4704 1189 523.262
64 0 66.0515 12.1118 800 64.295 1189.34 523.146
65 0 68.2466 12.7332 869 64.8746 1190.32 520.352
66 0 69.1295 10.9794 759 67.5204 1189.66 520.018
67 0 72.1238 13.1163 946 65.352 1189.22 518.192
68 0 73.091 14.2972 1045 64.8421 1189.24 515.886
69 0 75.0847 12.5192 940 67.1234 1188.83 516.284
70 0 80.0442 11.7935 944 67.4258 1188.93 516.359
71 0 82.2174 12.1142 996 67.498 1188.46 514.304
72 1 45.0357 11.1911 504 67.7956 1188.93 531.954
73 0 46.1498 11.831 546 67.5879 1189.26 530.348
74 0 46.0074 11.5416 531 68.8719 1188.95 529.143
75 0 48.1198 12.0117 578 68.7093 1189.66 528.247
76 0 49.0815 10.5335 517 71.0445 1190.39 528.398
77 0 52.0874 12.479 650 67.7046 1189.14 527.055
78 0 51.037 11.7562 600 69.6083 1189.51 525.182
79 0 54.0504 12.3218 666 67.988 1190.21 526.574
80 0 56.0944 13.0673 733 67.5648 1190.12 523.91
81 0 58.023 13.2361 768 66.9336 1190.46 524.613
82 0 59.0575 11.1586 659 69.4886 1191.01 523.384
83 0 60.0909 11.6989 703 69.4424 1189.42 522.078
84 0 62.0576 11.3926 707 69.5997 1190.53 523.494
85 0 65.0566 12.051 784 68.514 1189.8 523.096
86 0 65.1043 12.8717 838 67.3461 1190.99 521.027
87 0 67.0659 12.525 840 68.1595 1190.99 519.565
88 0 68.1043 11.6292 792 69.1932 1190 518.283
89 0 71.0565 11.3009 803 68.9714 1190.77 516.803
90 0 74.0317 12.5217 927 67.397 1189.59 514.166
91 0 74.0846 12.0268 891 68.3389 1189.73 514.932
92 0 78.1207 12.2119 954 67.5346 1190.76 515.285
93 0 81.1426 12.5458 1018 67.5874 1190.66 512.584
94 0 81.0682 10.9537 888 69.3941 1190.25 512.792
95 1 33.0181 10.4185 344 63.4331 1191.15 536.407
96 0 33.0133 9.99598 330 63.3727 1190.63 536.145
97 0 35.064 11.4647 402 62.6343 1190.67 533.808
98 0 35.0616 10.9522 384 63.4219 1190.38 534.646
99 0 37.0355 11.0975 411 63.2628 1190.99 533.672
100 0 38.0884 11.0007 419 63.0453 1190.5 534.377
101 0 40.1314 10.7896 433 63.9931 1190.4 531.531
102 0 39.1126 9.25532 362 65.5028 1190.03 533.202
103 0 40.0645 8.98551 360 66.1889 1190.36 532.186
104 0 42.2223 10.6579 450 64.8444 1190.73 530.258
105 0 43.2189 10.7361 464 63.7026 1190.83 531.623
106 0 43.2156 9.04765 391 66.7877 1189.98 528.872
107 0 45.1263 9.08561 410 66.6537 1191.03 529.678
108 0 46.1271 10.5144 485 65.4309 1190.27 525.909
109 0 49.1824 11.4065 561 63.7986 1191 525.825
110 0 52.1662 10.7733 562 62.6459 1190.8 528.062
111 0 51.0934 10.197 521 61.6334 1189.8 523.633
112 0 54.1823 10.76 583 64.283 1189.86 523.482
113 0 57.1234 12.7268 727 60.9711 1189.9 521.739
114 0 57.2308 10.9906 629 63.0509 1190.07 522.234
115 0 58.0747 10.917 634 63.6751 1190.6 520.535
116 0 59.2006 9.76342 578 65.3685 1190.56 520.868
117 0 61.1373 10.9917 672 64.6443 1191.45 517.013
118 0 65.0567 12.9426 842 60.4905 1192.14 518.855
119 0 66.1965 11.6018 768 63.0195 1191.38 514.849
120 1 33.0444 8.44319 279 63.5197 1191.51 532.67
121 0 33.0826 8.19161 271 65.1402 1190.25 531.716
122 0 38.0767 10.5051 400 61.185 1190.9 529.632
123 0 38.025 10.7561 409 60.7139 1190.08 530.051
124 0 40.0876 9.80353 393 61.8321 1191.02 529.058
125 0 41.0396 11.3305 465 60.1441 1190.89 529.475
126 0 43.0262 11.0398 475 60.3284 1191.04 528.501
127 0 42.0542 11.2236 472 61.0763 1190.56 527.417
128 0 49.0336 12.0326 590 58.378 1190.36 527.603
129 0 48.05 11.9667 575 59.68 1190.95 526.503
130 0 46.0689 10.6362 490 62.9796 1191.2 523.184
131 0 49.0823 12.3874 608 59.8816 1190.92 525.538
132 0 50.0326 10.3133 516 63.2384 1191.52 524.103
133 0 52.0506 11.2006 583 62.0669 1191.11 522.148
134 0 51.0289 10.9546 559 63.356 1191.44 520.596
135 0 54.0429 10.6397 575 62.6174 1191.14 522.393
136 0 55.0396 10.9557 603 62.8458 1191.26 520.718
137 0 57.1222 10.5213 601 63.0616 1191.07 520.093
138 0 59.0676 13.0867 773 60.5627 1190.46 516.871
139 0 60.0895 11.7325 705 61.5348 1190.61 519.933
140 0 60.0541 11.5729 695 62.495 1191.38 515.442
141 0 64.0523 12.5835 806 60.7146 1191.25 515.684
142 0 66.0752 12.168 804 61.1455 1191.27 514.388
143 0 66.0484 12.6574 836 61.1782 1191.46 512.466
144 0 68.1086 10.3658 706 63.534 1190.84 513.12
145 0 71.0802 12.1412 863 60.6767 1191.67 513.687
146 0 71.0896 11.7739 837 62.2354 1191.51 509.752
147 0 75.0918 11.679 877 61.4823 1191.06 512.255
148 0 79.0932 11.7709 931 61.3523 1190.15 509.987
149 1 41.1289 11.4032 469 60.209 1190.1 526.207
150 0 44.0293 10.6974 471 59.8344 1190.59 528.556
151 0 44.0418 11.0123 485 61.1443 1190.95 526.074
152 0 46.055 11.8554 546 59.7912 1190.18 525.073
153 0 47.0543 11.6036 546 59.9286 1190.48 524.883
154 0 50.1098 11.3351 568 60.0916 1190.26 523.505
155 0 51.1031 12.0345 615 58.4455 1190.74 524.994
156 0 51.0521 11.6352 594 60.17 1192.18 525.367
157 0 52.1039 10.4407 544 61.4982 1191.81 523.145
158 0 54.058 11.7281 634 59.8943 1191.31 522.615
159 0 56.0771 10.7352 602 62.0748 1192.24 519.103
160 0 59.0628 12.292 726 59.697 1192.62 515.657
161 0 59.0443 9.61989 568 63.4243 1192.62 516.891
162 0 63.0944 12.1881 769 59.4317 1192.25 516.339
163 0 64.1361 11.6939 750 59.8627 1191.69 517.336
164 0 66.1179 11.6156 768 59.776 1192.01 514.87
165 0 69.0618 11.4535 791 59.9267 1192.06 512.235
166 0 68.1143 11.5101 784 60.2793 1193.01 510.861
167 0 71.1356 10.4448 743 61.2867 1193.01 509.376
168 0 76.0721 11.3708 865 59.548 1193.42 509.292
169 0 77.1202 12.6167 973 57.7831 1192.36 509.258
170 0 77.1244 10.71 826 60.8801 1192.18 505.412
171 0 81.1378 9.82279 797 60.9937 1192.07 507.02
172 0 84.1144 11.0802 932 59.5204 1191.92 501.437
173 0 89.2249 13.1466 1173 56.965 1191.65 501.556
174 0 92.3271 11.1993 1034 58.8656 1190.92 502.598
175 0 92.2095 10.1616 937 60.3533 1190.81 500.125
176 1 49.1498 8.44357 415 59.7928 1191.07 520.198
177 0 52.0798 9.58145 499 58.7836 1191.15 520.172
178 0 57.0724 10.548 602 57.6578 1190.7 518.706
179 0 57.0658 8.44639 482 59.9627 1191.31 518.693
180 0 61.0891 11.3277 692 56.4263 1191.11 519.212
181 0 61.1273 11.1407 681 57.0279 1190.41 519.69
182 0 61.0967 10.0988 617 59.0162 1191.46 516.12
183 0 63.0646 11.3534 716 57.7081 1190.36 516.11
184 0 67.0802 10.1073 678 58.5148 1189.62 517.33
185 0 69.093 12.2009 843 56.5706 1189.47 514.227
186 0 72.1131 12.2585 884 56.4683 1189.19 512.925
187 0 73.1366 13.8371 1012 54.6245 1188.84 511.804
188 0 76.1265 11.783 897 57.1371 1188.53 511.852
189 0 78.1026 11.6129 907 57.505 1188.83 511.032
190 0 79.1797 11.4676 908 57.7874 1187.82 510.213
191 0 83.1717 13.6946 1139 55.288 1187.98 509.556
192 0 84.1463 11.2186 944 58.3157 1187.68 507.833
193 0 85.1077 13.1715 1121 57.0303 1187.69 506.154
194 0 90.2137 12.1157 1093 58.0952 1187.56 506.414
195 0 92.1888 12.8432 1184 57.5642 1187.86 505.78
196 1 50.0233 9.97536 499 58.8738 1188.37 529.483
197 0 49.0707 10.4136 511 59.7202 1187.89 527.297
198 0 52.0831 10.2721 535 60.0785 1187.97 526.71
199 0 54.0779 13.0183 704 57.4205 1187.53 524.777
200 0 55.0561 11.4792 632 58.7278 1186.74 525.835
201 0 54.0997 10.6655 577 60.7435 1187.04 523.577
202 0 60.0451 12.5739 755 57.4768 1187.19 525.779
203 0 62.0531 13.7302 852 55.8275 1186.45 524.94
204 0 61.0577 13.1679 804 57.8308 1186.96 522.262
205 0 62.1383 13.9045 864 57.2836 1187.17 520.678
206 0 62.108 10.1114 628 61.7643 1187.52 519.382
207 0 65.0541 11.7133 762 59.5591 1186.99 520.804
208 0 67.1516 11.8389 795 59.9421 1186.54 519.502
209 0 69.2061 11.0395 764 60.6296 1186.41 519.918
210 0 73.113 14.2382 1041 56.9827 1185.84 517.168
211 0 73.1285 10.8986 797 60.9046 1185.89 516.89
212 0 75.0748 11.7083 879 60.5495 1186.73 516.122
213 0 78.1633 12.6146 986 59.2008 1185.93 516.065
214 0 80.0758 11.7014 937 60.5048 1185.37 514.79
215 0 81.0461 11.0061 892 62.2478 1185.97 511.015
216 0 85.2159 12.3803 1055 60.3261 1184.65 510.019
217 0 87.1166 12.5579 1094 60.3519 1184.43 508.722
218 0 91.0504 12.1361 1105 60.8208 1184.81 506.791
219 1 47.0598 10.7523 506 59.6522 1184.88 532.876
220 0 46.0298 9.34178 430 62.3093 1184.1 531.416
221 0 48.0627 10.0702 484 61.7252 1184.07 530.374
222 0 51.1133 11.8756 607 60.1862 1184.75 529.316
223 0 51.0528 11.8701 606 60.934 1185.61 528.479
224 0 53.0438 13.1966 700 59.7171 1185.48 526.023
225 0 51.0856 11.5688 591 62.6464 1185.04 524.354
226 0 53.0531 11.9314 633 61.4913 1184.55 526.218
227 0 55.0199 11.9593 658 61.804 1184.35 525.365
228 0 58.113 13.577 789 59.8618 1184.48 522.785
229 0 60.0713 11.4364 687 62.0917 1184.51 522.774
230 0 62.0772 12.7583 792 60.572 1184.77 521.519
231 0 64.0752 12.4853 800 60.8338 1183.99 519.912
232 0 65.0558 11.9128 775 61.9136 1185.6 520.597
233 0 67.1054 13.8141 927 59.9741 1186.04 520.183
234 0 69.2637 13.3692 926 60.5281 1185 516.837
235 0 72.124 12.0764 871 62.2388 1185.46 517.076
236 0 72.0946 12.123 874 62.6842 1185.74 517.134
237 0 75.0233 12.6761 951 60.9169 1184.85 516.917
238 0 74.1034 11.1601 827 64.711 1184.64 511.778
239 0 81.1607 12.6539 1027 62.1373 1184.58 509.207
240 0 83.0889 13.7804 1145 60.8419 1184.92 510.08
241 0 86.1369 14.5118 1250 59.7784 1185.16 507.568
242 0 87.2257 12.8632 1122 62.033 1184.91 505.52
243 0 90.2198 12.5361 1131 61.8541 1185.08 507.851
244 1 50.0445 11.0701 554 60.7834 1185.71 527.574
245 0 50.0252 10.5347 527 62.3245 1185.19 524.381
246 0 53.178 10.8316 576 61.4757 1185.57 525.203
247 0 52.0412 10.7223 558 62.4803 1186.28 526.115
248 0 52.0902 10.7314 559 63.0787 1185.86 523.349
249 0 57.0554 12.9173 737 59.8263 1186.36 524.043
250 0 56.1139 12.3677 694 60.7219 1186.26 523.503
251 0 59.122 12.3812 732 60.265 1186.37 523.302
252 0 60.1326 10.2939 619 62.832 1185.69 522.208
253 0 64.1093 10.8565 696 61.9957 1185.71 522.96
254 0 64.0281 12.6195 808 60.6386 1186.81 522.55
255 0 67.1733 13.7555 924 59.381 1186.45 520.09
256 0 70.1251 12.5918 883 60.9139 1186.97 518.76
257 0 72.0767 13.3469 962 59.9699 1186.94 519.26
258 0 74.1567 12.123 899 61.7742 1186.66 517.517
259 0 75.1041 11.7703 884 62.6391 1186.38 516.183
260 0 79.0674 13.7351 1086 60.0175 1185.63 516.78
261 0 77.1398 11.5634 892 63.75 1185.44 513.13
262 0 81.029 10.9344 886 63.8341 1185.6 514.366
263 1 43.1078 9.65023 416 63.0673 1186.21 533.074
264 0 42.0527 10.249 431 61.8283 1185.71 535.694
265 0 44.0675 9.66698 426 63.8474 1185.27 531.817
266 0 47.0864 11.9567 563 60.952 1185.26 532.194
267 0 48.0869 11.7912 567 61.6896 1185.4 530.228
268 0 50.0815 11.3615 569 62.0791 1185.12 530.035
269 0 53.1398 11.1404 592 62.728 1185.74 529.843
270 0 52.1935 10.8443 566 63.7933 1186.2 529.544
271 0 55.0756 11.8201 651 62.3026 1186.73 529.32
272 0 57.047 10.8332 618 63.2913 1185.13 527.641
273 0 57.137 11.9012 680 62.0309 1185.49 527.118
274 0 57.0486 10.0441 573 64.2618 1185.71 526.668
275 0 61.0299 10.5522 644 62.5823 1185.37 527.203
276 0 63.048 12.0067 757 61.5165 1185.78 523.24
277 0 65.098 12.0434 784 60.3316 1185.99 525.583
278 0 65.1002 10.1382 660 62.4576 1185.09 524.423
279 0 69.1012 12.0114 830 60.2771 1185.28 521.167
280 0 71.0602 11.3425 806 60.5695 1185.37 521.203
281 0 72.0666 11.2812 813 60.1906 1185.8 522.838
282 0 77.0514 11.7714 907 59.1819 1185.3 520.579
283 0 76.1156 12.2971 936 59.1795 1185.02 516.074
284 0 79.1736 10.3949 823 60.6877 1183.61 517.744
285 1 45.0737 9.69523 437 58.3478 1184.08 536.352
286 0 45.0506 10.3217 465 58.9376 1183.36 533.327
287 0 47.0884 10.2148 481 58.3721 1183.48 534.025
288 0 48.053 9.92655 477 59.1174 1183.25 529.212
289 0 50.0741 11.2433 563 57.9449 1184 529.673
290 0 50.0509 9.96985 499 59.5631 1183.53 530.593
291 0 52.1057 10.8817 567 58.679 1184.25 529.441
292 0 53.058 10.9503 581 60.4045 1185.36 527.188
293 0 54.1339 10.6588 577 60.7712 1185.86 525.541
294 0 58.056 11.5578 671 59.3934 1185.66 526.104
295 0 59.2106 10.1671 602 60.8389 1185 526.151
296 0 64.2353 10.7573 691 59.8741 1184.11 525.116
297 0 62.075 10.2134 634 60.7476 1183.31 523.101
298 0 64.2688 10.316 663 60.7119 1184.12 522.885
299 0 69.1992 11.7342 812 58.1823 1184.22 521.819
300 0 70.1995 11.2536 790 58.7038 1184.3 519.551
301 0 71.187 11.4768 817 58.8066 1183.25 515.769
302 0 75.2219 12.6027 948 56.9673 1183.59 516.568
303 0 77.2516 13.3072 1028 56.5866 1183.4 515.458
304 0 80.196 13.9159 1116 55.0717 1183.32 517.749
305 0 83.327 12.1809 1015 56.3015 1184.13 515.96
306 0 82.2899 11.7268 965 58.2238 1183.85 510.324
307 1 43.1415 10.4076 449 57.6592 1183.01 531.788
308 0 43.0294 9.62134 414 59.2271 1183.72 533.486
309 0 47.0647 11.4948 541 57.4824 1183.85 530.362
310 0 46.1159 10.5387 486 58.8724 1183.49 531.66
311 0 48.1271 10.5969 510 59.5235 1184.08 530.555
312 0 50.1874 10.9988 552 58.6794 1184.69 529.54
313 0 52.0651 13.0221 678 56.4366 1183.96 527.608
314 0 53.0218 11.863 629 58.4134 1184.19 525.96
315 0 52.0849 11.6924 609 59.2102 1184.39 526.55
316 0 53.059 11.6474 618 59.9401 1184.37 525.322
317 0 57.0735 11.3713 649 60.0632 1184.78 524.952
318 0 58.0399 11.2853 655 59.5389 1184.01 525.261
319 0 60.0954 13.5285 813 57.6199 1184.41 524.245
320 0 63.1141 14.0381 886 56.8725 1184.5 521.604
321 0 63.0667 11.2896 712 59.9157 1184.37 523.611
322 0 65.2138 12.068 787 59.2821 1183.92 519.917
323 0 68.2 12.7713 871 58.1458 1183.26 518.023
324 0 68.1527 11.621 792 59.7828 1183.28 517.869
325 0 72.2408 13.2058 954 57.4591 1183.88 519.021
326 0 73.033 12.022 878 59.0661 1184.7 514.901
327 0 75.1381 12.2042 917 58.831 1183.79 515.684
328 0 78.3649 13.1564 1031 57.6673 1183.67 512.183
329 0 79.1552 12.3934 981 58.791 1183.78 512.971
330 0 81.171 12.5784 1021 59.2742 1183.83 510.106
331 1 41.1162 11.2121 461 58.3644 1184.7 530.356
332 0 43.1574 9.73181 420 59.6571 1184.45 532.886
333 0 43.0646 11.5176 496 59.6169 1184.69 527.875
334 0 46.1175 10.4949 484 59.6136 1183.5 529.847
335 0 47.0347 13.2881 625 57.1168 1182.98 530.026
336 0 48.1196 11.3675 547 59.415 1183.38 528.731
337 0 50.0427 11.8299 592 59.1014 1182.96 527.453
338 0 49.1228 11.5221 566 60.5212 1183.36 525.618
339 0 52.0989 12.649 659 59.2291 1183.89 525.628
340 0 53.1548 11.8334 629 60.0302 1184.51 523.48
341 0 56.0433 13.9178 780 57.8064 1185.14 523.674
342 0 56.0379 14.2582 799 57.3692 1184.94 524.901
343 0 59.0349 11.8574 700 60.3157 1184.77 522.153
344 0 60.0454 12.324 740 59.6243 1185.2 522.742
345 0 63.0561 11.7039 738 60.3821 1184.87 518.178
346 0 65.1347 12.9885 846 59.1962 1184.06 518.587
347 0 66.0888 12.3773 818 60.1149 1183.97 518.054
348 0 68.0953 16.2419 1106 55.1609 1184.56 520.407
349 0 69.1086 12.9651 896 59.2801 1184.38 519.596
350 0 71.0763 13.5207 961 59.0218 1183.97 514.334
351 0 75.1637 14.0493 1056 58.2794 1184.09 514.336
352 0 75.0368 13.007 976 59.8197 1184.42 515.361
353 0 79.0873 13.4282 1062 59.4962 1185.22 513.162
354 0 79.0416 12.3226 974 61.7721 1185.49 512.116
355 0 81.1012 12.0467 977 61.8209 1184.39 511.989
356 0 86.1134 13.3777 1152 60.7274 1185.52 508.627
357 1 45.1062 12.0826 545 61.567 1184.67 528.894
358 0 45.1565 10.2089 461 63.8416 1184.96 529.74
359 0 47.0951 11.9545 563 62.4725 1184.94 528.206
360 0 48.1101 11.1827 538 63.1208 1184.83 528.331
361 0 49.0843 12.448 611 62.4795 1184.69 527.37
362 0 51.0256 12.3076 628 63.6146 1185.3 526.729
363 0 52.0617 12.4276 647 63.3076 1185.22 525.026
364 0 53.0688 12.2859 652 63.4494 1184.98 525.353
365 0 55.0566 12.9866 715 62.5021 1185.11 524.234
366 0 57.0208 12.7322 726 62.9256 1185.43 523.583
367 0 58.0648 13.261 770 62.4117 1185.56 523.601
368 0 61.0485 13.0879 799 62.8386 1185.54 522.665
369 0 61.0745 12.1164 740 63.8257 1185.61 523.393
370 0 63.0328 12.4221 783 64.0089 1185.39 520.381
371 0 65.0985 12.3812 806 63.8474 1184.43 520.814
372 0 67.073 12.0913 811 64.3539 1184.17 520.132
373 0 68.0338 13.5668 923 63.4735 1184.59 516.69
374 0 70.0984 11.7121 821 65.4178 1184.58 516.951
375 0 74.0734 12.5281 928 64.4569 1184.43 515.319
376 0 75.0571 12.1374 911 64.9813 1184.12 516.119
377 0 77.1135 12.5011 964 64.4855 1185.16 515.05
378 0 81.1478 13.1242 1065 63.9089 1184.77 512.764
379 1 43.0349 12.1994 525 63.4552 1185.42 530.859
380 0 44.0126 10.3379 455 65.0769 1184.69 531.512
381 0 45.0331 11.8357 533 64.2458 1184.58 530.934
382 0 47.0113 12.2736 577 64.3969 1184.1 529.43
383 0 51.0383 12.618 644 63.5481 1185.04 527.977
384 0 50.1369 13.3634 670 63.6358 1184.5 527.09
385 0 51.1621 12.0792 618 65.39 1183.66 529.115
386 0 52.02 11.5148 599 66.0518 1184.5 527.105
387 0 51.1159 10.7794 551 67.9728 1184.69 526.138
388 0 55.094 12.0521 664 65.7696 1184.44 526.593
389 0 54.0819 11.0573 598 68.2358 1184.25 523.388
390 0 59.048 12.7185 751 65.02 1185.13 525.18
391 0 60.0563 11.5392 693 66.6263 1185.37 523.668
392 0 62.0842 12.8052 795 65.2314 1184.82 521.752
393 0 62.0612 12.5682 780 66.509 1185.32 520.242
394 0 62.0597 12.2302 759 67.2161 1185.04 520.474
395 0 68.1258 13.0641 890 65.2236 1185.7 518.871
396 0 67.0485 11.6334 780 67.4167 1185.59 518.51
397 0 71.0961 13.3481 949 65.1538 1185.49 516.817
398 0 75.0689 13.5875 1020 63.9529 1185.28 517.569
399 0 75.1078 12.1958 916 66.6419 1185.27 515.621
400 0 77.0436 14.1349 1089 64.135 1185.08 514.87
401 0 80.0377 13.781 1103 64.5657 1185.14 513.408
402 0 82.2109 11.8841 977 66.4974 1185.42 515.083
403 1 44.035 10.4462 460 65.8717 1186.2 532.433
404 0 43.0671 7.825 337 68.7982 1185.9 532.979
405 0 47.1052 11.6123 547 64.6636 1185.69 531.214
406 0 48.0928 11.6026 558 65.2312 1186.12 529.762
407 0 50.0365 13.9698 699 61.784 1185.94 531.569
408 0 51.022 12.2104 623 65.1605 1185.39 528.628
409 0 52.0541 13.7933 718 63.0668 1185.16 528.421
410 0 51.0359 11.5017 587 66.644 1185.72 528.376
411 0 54.1028 11.7924 638 65.6975 1185.28 528.481
412 0 56.0433 11.1878 627 66.689 1184.85 527.065
413 0 57.0307 12.4494 710 65.3803 1185.23 526.008
414 0 58.0782 11.3295 658 66.3419 1185.08 525.403
415 0 60.0539 12.1225 728 65.7184 1184.85 523.124
416 0 63.0648 13.2403 835 63.6623 1185.11 523.816
417 0 64.0788 12.1725 780 65.0167 1184.92 522.033
418 0 66.0438 11.235 742 65.6307 1184.98 522.868
419 0 69.0515 12.5558 867 64.1834 1184.89 518.779
420 0 71.1368 12.0331 856 64.5421 1184.58 519.042
421 0 74.0326 12.8457 951 63.4711 1184.48 517.48
422 0 75.1578 12.2808 923 64.4431 1184.75 516.155
423 0 77.0929 11.1424 859 65.7916 1184.98 514.788
424 0 79.0862 11.9237 943 64.9024 1184.34 513.138
425 0 84.0841 12.5232 1053 63.9316 1184.88 512.402
426 0 86.0881 11.9413 1028 64.3619 1184.56 512.837
427 1 45.0412 9.19158 414 63.8672 1185.21 533.162
428 0 46.0492 9.29441 428 64.5678 1185.06 530.477
429 0 50.0272 9.69472 485 62.9464 1184.79 530.802
430 0 51.1044 11.3689 581 62.5387 1184.99 527.491
431 0 52.027 12.3013 640 60.3516 1185.32 530.172
432 0 52.052 10.5279 548 63.4234 1185.05 528.35
433 0 54.0492 12.7846 691 61.2865 1185.15 526.301
434 0 57.0543 9.9379 567 63.903 1184.62 526.111
435 0 56.166 11.5372 648 62.6343 1184.7 523.968
436 0 59.0552 11.6671 689 62.2453 1185.27 524.033
437 0 60.0865 11.7331 705 61.9319 1184.8 523.576
438 0 63.0659 13.1133 827 60.6409 1185.57 520.686
439 0 62.1546 12.0667 750 62.1827 1185.79 522.636
440 0 65.0939 11.5679 753 62.3227 1184.12 521.491
441 0 67.1123 10.2664 689 64.2453 1184.21 519.312
442 0 70.1079 12.0671 846 61.6005 1184.11 520.976
443 0 74.086 12.202 904 61.7898 1184.21 518.327
444 0 75.225 12.5756 946 61.8975 1184.26 513.888
445 0 79.0447 14.2704 1128 59.6294 1183.96 514.23
446 0 79.2431 11.9884 950 62.7021 1184.18 511.333
447 0 83.1582 12.6025 1048 62.3044 1184.67 507.811
448 0 85.1468 13.3886 1140 61.5447 1185.21 508.254
449 0 86.1589 11.6413 1003 63.8604 1184.74 509.022
450 1 42.0197 10.2809 432 62.7083 1185.26 530.058
451 0 45.0266 10.4827 472 61.9534 1184.98 530.627
452 0 46.024 11.4506 527 61.981 1184.3 528.416
453 0 48.0456 11.2185 539 61.9685 1184.2 530.369
454 0 51.0319 12.6391 645 60.6341 1184.26 526.766
455 0 49.0424 10.6235 521 63.3858 1184.28 528.511
456 0 54.0293 12.2341 661 61.0348 1185.33 527.502
457 0 54.0503 12.3219 666 61.7583 1184.39 526.908
458 0 55.0685 12.1848 671 61.7198 1184.96 527.156
459 0 59.06 12.7159 751 60.8509 1184.64 524.144
460 0 58.0907 10.8623 631 63.3407 1184.42 521.838
461 0 63.091 12.7593 805 60.913 1183.86 520.72
462 0 61.0562 10.908 666 63.5991 1183.49 521.736
463 0 66.1101 11.7985 780 61.6628 1183.22 521.97
464 0 65.2161 12.3282 804 61.5037 1183.29 521.122
465 0 71.0864 13.772 979 59.4106 1184.1 520.198
466 0 73.1635 12.1645 890 61.6315 1184.68 519.257
467 0 74.1167 11.8327 877 62.6819 1184 516.756
468 0 77.1453 13.4811 1040 60.474 1184.44 518.494
469 0 78.2676 10.9496 857 64.1237 1184.29 515.406
470 1 42.0466 9.10894 383 64.6266 1183.48 533.893
471 0 44.0373 10.423 459 62.0349 1183.92 534.011
472 0 44.0852 12.4532 549 59.878 1183.56 534.071
473 0 44.0627 11.5971 511 61.8024 1183.51 533.454
474 0 47.0143 11.3582 534 62.3296 1183.74 530.562
475 0 46.0336 10.601 488 63.8566 1184.24 531.893
476 0 49.0204 10.9954 539 63.2393 1183.88 529.928
477 0 50.1467 11.5461 579 62.1485 1183.25 531.874
478 0 52.0539 10.3354 538 64.3903 1183.28 530.744
479 0 53.0334 13.0861 694 61.4798 1183.87 528.795
480 0 55.0538 11.8975 655 63.1572 1183.31 528.076
481 0 56.0423 10.7776 604 64.452 1183.59 529.141
482 0 59.0829 12.0847 714 62.895 1183.54 526.999
483 0 59.1056 11.5725 684 64.7237 1183.45 525.205
484 0 60.0648 11.9538 718 64.2326 1183.52 525.116
485 0 63.0649 10.7984 681 64.7695 1183.7 524.116
486 0 66.1149 12.6295 835 62.424 1184.16 523.668
487 0 67.053 13.3775 897 62.4069 1183.73 521.761
488 0 69.218 12.5545 869 63.1001 1183.54 521.457
489 0 71.1246 12.457 886 63.5418 1184.49 520.252
490 0 72.2326 12.7089 918 63.4902 1183.65 518.132
491 0 77.1309 13.7688 1062 61.8503 1183.84 516.908
492 0 78.1156 13.5568 1059 62.5722 1184.03 513.665
493 0 79.0876 11.4936 909 65.0462 1183.33 514.749
494 0 82.201 11.9707 984 64.5528 1183.82 511.698
495 0 85.1068 12.3374 1050 64.3829 1184.76 512.878
496 0 89.1946 13.5546 1209 62.2134 1184.52 512.924
497 1 48.091 9.98108 480 65.6417 1184.48 530.873
498 0 48.0453 11.9679 575 63.3913 1184.23 530.676
499 0 52.1742 11.6341 607 63.9703 1184.71 530.684
500 0 53.0932 11.6964 621 64.3768 1184.61 529.594
501 0 55.111 13.5 744 61.6855 1184.61 529.789
502 0 57.0433 13.6388 778 62.1928 1184.31 527.18
503 0 58.0668 10.9185 634 64.7035 1183.95 530.241
504 0 59.0398 13.2453 782 63.0895 1184.05 525.811
505 0 61.1841 13.3858 819 62.7289 1184.29 524.7
506 0 63.1333 12.4815 788 64.0609 1184.74 523.362
507 0 62.1525 12.2762 763 64.4587 1184.5 522.623
508 0 67.1533 13.8042 927 62.4272 1184.49 521.892
509 0 68.3386 13.5209 924 62.4729 1183.64 522.794
510 0 69.1343 13.6835 946 62.7706 1183.55 520.02
511 0 72.1183 12.1606 877 64.3569 1183.53 519.908
512 0 72.1307 11.9228 860 65.7663 1183.58 517.565
513 0 76.0875 12.7353 969 64.1373 1183.38 516.858
514 0 79.2031 15.0878 1195 60.8402 1183.7 515.331
515 0 79.1407 12.9769 1027 64.3165 1183.82 514.716
516 0 85.2049 14.1893 1209 61.8883 1183.81 514.869
517 0 86.0539 12.8059 1102 63.5563 1184.25 516.642
518 0 89.1523 12.9105 1151 64.3197 1183.76 511.455
519 1 49.0188 11.7506 576 62.7882 1183.43 533.99
520 0 48.1138 12.5328 603 64.3317 1183.71 530.932
521 0 48.0838 11.5631 556 65.4532 1183.64 531.437
522 0 51.2473 12.3324 632 64.6487 1183.87 530.13
523 0 50.0553 12.5661 629 65.1335 1183.39 529.186
524 0 54.0222 12.8281 693 64.2987 1183.8 528.965
525 0 55.0553 12.7508 702 64.3917 1183.66 528.556
526 0 56.0353 11.2965 633 66.2591 1183.61 527.807
527 0 58.0543 13.1429 763 63.7418 1183.78 527.079
528 0 59.0867 11.6439 688 66.7398 1183.87 525.174
529 0 60.1324 11.8239 711 66.6934 1183.94 524.681
530 0 66.1511 14.9053 986 61.8063 1184.04 524.89
531 0 67.0908 12.9675 870 64.7494 1184.53 523.707
532 0 70.121 12.3216 864 65.4375 1184.38 522.946
533 0 70.0761 13.3712 937 65.0299 1183.83 519.075
534 0 72.0971 13.9534 1006 64.1899 1183.73 518.878
535 0 76.1765 13.8494 1055 64.6474 1183.32 516.035
536 0 78.0807 14.1264 1103 64.7063 1183.47 514.266
537 0 79.2333 13.1384 1041 65.9769 1183.98 515.486
538 0 80.0546 12.8412 1028 66.9037 1183.68 510.986
539 0 87.2154 13.8049 1204 64.6836 1184 514.279
540 1 42.0128 11.0681 465 66.7312 1184.14 534.331
541 0 42.0278 11.8255 497 67.1227 1184.13 533.233
542 0 45.1379 11.0107 497 67.338 1183.93 532.284
543 0 46.0659 10.9408 504 68.8254 1184.75 531.538
544 0 48.0782 12.5421 603 66.3051 1183.34 531.448
545 0 50.0301 12.6924 635 66.6409 1183.98 528.085
546 0 52.0696 12.6946 661 66.0408 1183.72 528.469
547 0 50.041 11.8503 593 68.2766 1183.81 524.938
548 0 49.144 11.2934 555 69.2991 1183.84 522.573
549 0 48.235 9.59885 463 70.9957 1184.07 520.682
550 0 47.042 7.8653 370 72.9514 1184.21 518.7
551 0 47.1227 7.19398 339 73.0266 1183.5 514.749
552 0 51.0183 9.64359 492 71.437 1183.59 517.652
553 0 51.06 8.38229 428 71.0491 1183.63 511.224
554 0 56.2026 8.98534 505 70.5901 1184.49 511.321
555 0 52.1128 5.64161 294 75.0442 1184.42 507.415
556 0 62.1418 7.46679 464 71.7543 1185.22 509.517
557 0 59.1268 6.03787 357 72.5546 1183.5 507.291
558 1 39.0368 8.45356 330 64.2485 1182.78 536.912
559 0 41.0569 11.4232 469 62.1429 1183.16 534.883
560 0 39.0484 9.65468 377 62.6101 1184.21 537.196
561 0 40.0821 9.85476 395 63.9139 1184.11 534.362
562 0 42.0525 10.4156 438 64.2785 1184.33 533.719
563 0 43.2307 9.57652 414 64.6956 1184.76 534.041
564 0 46.0767 10.9383 504 63.3611 1184.46 533.419
565 0 49.0818 12.1634 597 61.1508 1184.68 531.156
566 0 49.1148 12.481 613 60.4878 1184.21 530.429
567 0 49.1613 12.937 636 60.6698 1184.31 528.453
568 0 50.0528 11.5478 578 62.135 1183.35 529.137
569 0 53.25 13.4648 717 59.417 1183.19 526.84
570 0 55.128 12.4438 686 60.3134 1184.04 527.136
571 0 57.1544 12.8249 733 59.2728 1184.22 526.149
572 0 57.0368 12.0098 685 61.2511 1184.12 524.486
573 0 59.0585 11.2431 664 61.3027 1184.46 525.248
574 0 61.0861 11.8521 724 60.6298 1184.34 525.052
575 0 63.1194 11.4545 723 61.9129 1184.82 523.492
576 0 65.0597 11.6816 760 62.104 1184.31 520.101
577 0 67.0914 12.237 821 60.9074 1184.22 520.022
578 0 70.0975 11.5696 811 61.9716 1184.66 519.247
579 0 73.1623 12.6568 926 61.0961 1185.08 518.42
580 0 74.1181 11.2658 835 63.012 1185.45 516.874
581 0 77.1011 12.9051 995 60.7508 1185.48 517.65
582 0 80.0521 12.0047 961 62.1582 1185.97 514.767
583 0 84.1171 13.5406 1139 59.8894 1185.84 514.032
584 0 86.1018 12.671 1091 61.1476 1185.41 513.441
585 1 49.0245 11.8308 580 60.9914 1185.59 529.379
586 0 48.1194 10.1622 489 63.9039 1185.64 527.701
587 0 50.1204 10.6743 535 63.5701 1184.95 527.908
588 0 50.0431 11.0305 552 63.5706 1184.43 524.953
589 0 54.0827 11.6303 629 62.5994 1184.91 524.82
590 0 55.0543 12.6421 696 61.5287 1185.1 526.012
591 0 57.1013 10.7353 613 63.3491 1183.79 524.788
592 0 58.0797 11.6047 674 62.8027 1183.98 521.996
593 0 61.0569 13.2991 812 60.8744 1183.62 521.19
594 0 64.1229 13.131 842 60.5855 1183.84 520.992
595 0 66.1124 11.2384 743 62.6891 1183.75 520.458
596 0 67.1242 12.4843 838 61.2948 1183.64 520.101
597 0 69.0503 13.1209 906 60.9658 1183.84 516.557
598 0 71.0959 12.6308 898 61.3074 1184.46 515.084
599 0 75.0597 12.6966 953 60.7555 1185.08 516.186
600 0 74.0488 12.8834 954 61.0702 1184.55 516.262
601 0 79.1588 13.833 1095 59.2192 1183.81 514.55
602 0 81.0762 12.6054 1022 61.4501 1184.85 510.222
603 0 84.1579 12.8568 1082 60.7412 1185.03 511.671
604 0 85.1205 12.124 1032 61.7645 1184.49 508.964
605 0 89.1473 13.9657 1245 59.6209 1185.01 509.267
606 0 92.1227 11.2893 1040 62.4365 1184.91 504.606
607 1 47.0694 11.4512 539 61.8738 1184.43 528.132
608 0 47.0498 12.4124 584 60.3818 1184.94 527.265
609 0 50.0774 11.3824 570 61.1982 1184.22 524.681
610 0 54.0528 13.6533 738 58.0203 1183.94 523.915
611 0 54.0983 11.4976 622 59.5386 1184.07 525.505
612 0 56.0705 12.6091 707 58.8076 1184.38 522.83
613 0 56.08 11.9115 668 59.8278 1184.44 522.469
614 0 60.1254 11.0935 667 60.0944 1184.89 523.184
615 0 61.114 13.0412 797 58.0289 1185.47 521.842
616 0 63.133 12.0381 760 59.0592 1185.43 517.503
617 0 66.0349 12.4328 821 58.1985 1185.34 520.116
618 0 67.1122 11.9501 802 58.7955 1185.23 518.585
619 0 68.1601 11.5317 786 59.4873 1184.4 514.551
620 0 71.1083 11.2083 797 59.1631 1184.08 515.941
621 0 74.2876 12.2901 913 57.7317 1184.68 515.878
622 0 77.2239 12.276 948 57.4968 1184.84 514.714
623 0 82.2396 13.0594 1074 56.8892 1184.91 511.717
624 0 81.1389 11.1044 901 59.4817 1185.3 508.835
625 0 86.0739 11.1184 957 58.4169 1185.04 510.986
626 0 86.0511 11.1562 960 59.0333 1184.05 508.53
627 1 44.0868 9.54933 421 59.886 1184.73 524.145
628 0 49.0691 11.1272 546 57.7564 1184.96 526.328
629 0 51.1254 11.7945 603 56.6169 1184.56 526.546
630 0 50.0765 11.2228 562 58.2722 1184.42 522.117
631 0 56.0925 10.9462 614 56.9935 1184.41 522.827
632 0 55.1493 11.1697 616 57.1266 1184.43 521.518
633 0 55.1449 9.93746 548 58.3522 1185.32 523.04
634 0 57.1281 11.2904 645 57.5256 1184.96 519.733
635 0 63.0863 12.3323 778 54.847 1184.57 521.393
636 0 62.0726 11.0677 687 56.5808 1184.41 518.738
637 0 64.1287 10.9311 701 56.7932 1185 519.521
638 0 66.0949 10.031 663 57.3514 1185.38 518.578
639 0 67.1722 11.4035 766 56.5065 1185.18 516.298
640 0 71.083 13.7445 977 53.9611 1184.85 515.36
641 0 72.1795 11.9979 866 56.127 1185.43 513.29
642 0 75.3326 12.093 911 55.933 1184.81 512.482
643 0 77.1265 11.332 874 56.6796 1184.98 514.681
644 0 80.1631 12.4371 997 55.9308 1184.42 510.249
645 0 84.2415 13.4257 1131 54.8028 1184.22 508.079
646 0 84.1539 10.7303 903 57.8284 1183.93 507.382
647 1 43.0933 11.2082 483 55.7288 1184.14 527.503
648 0 47.0536 10.9875 517 55.4623 1184.84 528.491
649 0 47.1001 11.3588 535 56.1402 1184.96 528.168
650 0 48.0195 12.6199 606 55.2673 1185.06 528.548
651 0 49.0704 11.5752 568 56.4084 1185.52 528.847
652 0 51.1026 10.8409 554 57.1173 1184.87 525.818
653 0 49.0688 10.2917 505 58.5881 1185.7 523.43
654 0 52.051 11.5848 603 57.2687 1185.08 522.294
655 0 57.145 11.6721 667 56.2984 1184.95 524.309
656 0 55.1048 9.12807 503 59.4076 1185.02 523.386
657 0 58.0803 9.48686 551 59.1579 1185.05 522.572
658 0 60.2254 10.4939 632 58.2041 1185.46 522.307
659 0 60.1529 11.5206 693 57.2915 1184.06 519.127
660 0 62.1888 10.5485 656 57.9329 1184.63 523.22
661 0 67.1198 13.3791 898 55.1626 1184.67 519.285
662 0 68.0566 12.3427 840 56.5083 1184.7 520.299
663 0 71.1344 13.2285 941 55.6514 1184.74 515.286
664 0 73.1421 13.2208 967 56.2596 1184.7 516.175
665 0 75.1037 11.0514 830 58.2048 1184.6 513.977
666 0 77.134 14.8702 1147 54.6957 1185.33 513.541
667 0 79.1027 11.6431 921 58.557 1184.38 511.996
668 0 83.1124 10.4316 867 59.5432 1185 512.87
669 0 85.2598 12.8196 1093 57.6615 1184.9 509.46
670 0 87.2105 12.2921 1072 58.6679 1185.12 509.55
671 0 90.2231 12.458 1124 58.9484 1184.82 505.783
672 1 44.0723 12.7518 562 58.0089 1185.25 531.267
673 0 48.0863 11.8121 568 58.2746 1185.18 530.775
674 0 46.1431 13.5448 625 57.9072 1185.01 527.075
675 0 48.0404 11.865 570 60.1982 1185.27 524.604
676 0 50.0873 13.8558 694 57.9438 1184.7 526.432
677 0 51.0445 10.912 557 61.7397 1184.41 525.957
678 0 54.034 12.6217 682 59.5806 1184.26 524.742
679 0 54.0952 11.831 640 61.3578 1184.92 524.566
680 0 54.0514 13.5242 731 60.1163 1185.07 523.602
681 0 59.106 13.1966 780 59.3231 1184.93 526.397
682 0 61.0716 13.2631 810 60.4173 1185.45 522.04
683 0 64.0343 12.4777 799 61.2778 1185.79 522.531
684 0 64.0516 12.849 823 61.2892 1185.42 521.039
685 0 69.1694 14.6597 1014 59.429 1185.48 520.347
686 0 70.1409 13.2448 929 61.634 1185.31 519.298
687 0 74.2169 15.2526 1132 59.455 1185.37 515.191
688 0 75.0982 13.1295 986 62.5903 1185.06 516.874
689 0 76.0532 12.8989 981 63.9602 1185.76 514.543
690 1 41.1427 10.3785 427 63.0726 1185.3 533.759
691 0 41.0704 12.856 528 62.2936 1185.61 532.519
692 0 45.1214 11.7904 532 62.0526 1185.56 534.942
693 0 45.0554 12.9618 584 61.9075 1184.96 532.904
694 0 47.1902 12.4602 588 62.3776 1184.74 532.184
695 0 49.1334 12.8833 633 61.03 1185.05 532.319
696 0 50.0298 13.1322 657 61.3638 1184.54 531.846
697 0 51.0964 12.1926 623 62.5281 1184.75 531.165
698 0 51.1142 12.4427 636 63.6352 1185.2 527.171
699 0 52.0268 12.4359 647 62.9876 1184.81 528.496
700 0 55.131 12.1529 670 62.3493 1184.76 528.088
701 0 57.0723 13.7194 783 60.8404 1185.37 526.641
702 0 60.0534 11.3732 683 63.0146 1185.11 525.698
703 0 60.0708 13.2177 794 61.0491 1184.6 525.679
704 0 62.107 14.5072 901 60.0377 1184.29 522.953
705 0 65.2124 12.9883 847 61.5702 1183.79 520.682
706 0 67.1668 13.3846 899 61.0812 1184.8 521.08
707 0 69.1117 13.8761 959 60.5506 1184.13 520.119
708 0 72.0638 14.1819 1022 60.4794 1184.95 516.235
709 0 74.1753 13.3468 990 60.7727 1185.09 519.992
710 0 74.0965 12.2948 911 62.7673 1185.02 518.966
711 1 42.095 12.9232 544 60.4081 1185.76 534.017
712 0 41.0368 10.7952 443 64.6456 1185.2 532.081
713 0 43.066 12.2835 529 62.8374 1185.33 531.815
714 0 45.0567 13.2944 599 61.5993 1184.95 530.015
715 0 45.013 12.7741 575 62.7791 1184.92 531.221
716 0 48.0855 12.4986 601 62.0233 1185.21 530.388
717 0 49.1022 12.973 637 61.8226 1185.5 530.664
718 0 49.0463 13.9868 686 61.3426 1185.12 529.233
719 0 51.0867 12.5473 641 63.1357 1185.06 526.724
720 0 50.0747 12.4015 621 63.8776 1185.47 526.279
721 0 54.114 13.9336 754 61.8196 1184.79 526.696
722 0 54.0633 12.7813 691 63.5297 1184.74 524.556
723 0 58.032 12.9067 749 62.1963 1184.11 526.007
724 0 59.1108 14.1768 838 61.2757 1184.62 525.313
725 0 62.114 12.96 805 61.9255 1184.1 524.007
726 0 61.0694 12.9197 789 62.8555 1183.99 522.733
727 0 64.1382 12.7849 820 62.7476 1185.03 522.495
728 0 66.1661 12.5593 831 63.0806 1184.66 521.876
729 0 68.0938 12.9821 884 62.3993 1184.07 522.637
730 0 70.1436 12.7168 892 63.1177 1184.22 519.799
731 0 72.0613 12.9196 931 63.2062 1183.88 516.88
732 0 73.0504 12.8678 940 63.0479 1183.71 517.5
733 0 76.0976 13.4695 1025 62.8478 1184.09 516.25
734 0 80.2092 14.1256 1133 61.6081 1184.61 514.68
735 0 81.2261 13.7394 1116 62.1658 1184.97 514.468
736 1 43.0105 10.6253 457 64.0481 1184.64 533.626
737 0 45.3494 10.7609 488 63.9652 1184.9 531.871
738 0 47.1244 12.5625 592 62.3581 1184.53 529.914
739 0 49.1643 12.5498 617 61.8703 1184.22 531.003
740 0 50.0812 13.8575 694 60.9957 1184.55 529.409
741 0 51.0251 12.4252 634 61.9937 1184.63 529.388
742 0 52.0378 12.9906 676 62.0414 1184.64 528.996
743 0 54.0409 12.7126 687 62.7205 1184.44 525.79
744 0 56.1061 13.1537 738 61.7764 1184.16 525.787
745 0 58.0575 11.6953 679 62.7864 1183.97 524.174
746 0 61.0914 13.5862 830 60.4398 1184.46 525.294
747 0 65.0812 14.1208 919 59.6246 1184.35 523.882
748 0 64.1221 12.9753 832 61.9135 1183.64 520.221
749 0 70.1509 15.0105 1053 58.9345 1184.38 520.896
750 0 70.156 12.2869 862 62.2958 1185.27 521.075
751 0 71.0996 11.8988 846 62.9645 1184.71 517.641
752 0 75.1714 14.2208 1069 59.9551 1183.86 520.297
753 1 38.1137 11.833 451 62.051 1184.73 533.716
754 0 40.1263 12.7348 511 60.8982 1184.21 535.644
755 0 42.0882 12.2125 514 61.5311 1184.56 535.514
756 0 42.0352 11.3 475 63.459 1184.54 533.562
757 0 46.0959 10.63 490 63.9041 1184.19 532.747
758 0 46.0888 13.1052 604 62.2053 1184.97 531.878
759 0 46.0775 13.3471 615 61.6569 1185.1 532.826
760 0 50.1136 12.4717 625 62.528 1184.86 531.269
761 0 52.1838 12.1877 636 62.6462 1184.36 531.848
762 0 53.1455 13.2655 705 62.2511 1184.41 530.199
763 0 53.1586 12.3592 657 64.1233 1184.6 528.556
764 0 54.079 13.2769 718 64.0487 1184.65 527.494
765 0 57.1053 13.3613 763 63.4246 1183.82 526.861
766 0 58.1715 14.4916 843 62.1922 1183.64 526.401
767 0 59.0809 14.0993 833 63.2161 1184.06 525.358
768 0 62.092 12.9485 804 64.4304 1182.98 524.333
769 0 65.138 13.4484 876 63.2991 1183.11 522.614
770 0 64.2395 13.6053 874 64.5767 1183.87 521.025
771 0 66.3048 13.634 904 64.7577 1184.13 521.325
772 0 69.1451 12.9727 897 65.4872 1183.8 521.659
773 0 72.1332 14.8475 1071 63.1447 1184 519.976
774 0 74.2135 13.8654 1029 64.9281 1184.02 519.828
775 1 39.0383 11.937 466 66.264 1184.25 534.614
776 0 42.1743 11.1917 472 65.0042 1184.31 537.587
777 0 43.1404 13.6299 588 63.6973 1184.32 535.906
778 0 42.029 11.6586 490 66.4694 1183.81 535.92
779 0 44.091 12.4742 550 65.4873 1184.4 534.324
780 0 46.0757 12.3926 571 66.0245 1184.02 533.653
781 0 48.0933 13.3698 643 63.6003 1183.75 534.415
782 0 48.1263 14.3788 692 63.8092 1184.03 531.717
783 0 49.0491 14.5161 712 63.3904 1184.43 530.699
784 0 51.0305 13.2274 675 63.6756 1184.18 531.283
785 0 53.046 12.2347 649 64.7997 1184.6 528.978
786 0 55.071 13.4554 741 62.9717 1184.55 527.436
787 0 56.3744 13.1088 739 63.9784 1184.95 526.091
788 0 57.09 13.9079 794 62.66 1184.18 526.173
789 0 61.1732 14.2383 871 61.8599 1183.89 525.972
790 0 61.0514 13.2511 809 63.4203 1183.13 525.137
791 0 63.0281 14.6125 921 61.9739 1184.21 524.05
792 0 65.115 12.2245 796 64.4698 1183.67 522.049
793 0 67.0486 13.259 889 63.5478 1183.82 520.577
794 0 71.0523 13.483 958 62.3257 1184.71 521.908
795 0 71.0817 13.7729 979 62.5138 1184.8 520.237
796 0 74.0586 14.6776 1087 61.3431 1183.95 521.983
797 0 76.0975 13.0228 991 64.328 1184.08 515.903
798 0 78.0426 12.9545 1011 64.1405 1184.66 514.732
799 1 42.046 13.509 568 62.0933 1184.68 534.783
800 0 42.0951 13.3745 563 63.4654 1184.85 531.446
801 0 43.0509 11.289 486 64.786 1184.81 533.07
802 0 44.0668 12.6399 557 64.4201 1184.08 531.499
803 0 48.1214 14.3803 692 61.4075 1184.93 532.066
804 0 44.0629 10.6666 470 66.4894 1184.88 531.14
805 0 49.0589 13.0048 638 63.2727 1184.33 528.23
806 0 50.0395 14.6085 731 61.383 1184.74 529.538
807 0 50.0309 12.3724 619 64.0856 1184.31 527.577
808 0 53.0633 12.8526 682 63.2317 1183.72 527.614
809 0 52.1013 12.2838 640 64.2359 1183.85 526.567
810 0 59.0824 12.8126 757 62.2232 1184.62 527.276
811 0 60.1186 13.2072 794 61.5441 1184.83 527.496
812 0 58.0638 10.7468 624 64.6619 1185.34 525.938
813 0 63.0563 12.5761 793 62.604 1184.56 525.241
814 0 65.0897 13.1357 855 61.462 1184.35 525.427
815 1 31.0409 11.7265 364 64.1374 1184.88 536.701
816 0 35.0421 13.0414 457 62.2144 1184.86 537.287
817 0 34.101 15.0729 514 61.2743 1184.53 536.473
818 0 35.0692 9.80918 344 66.5145 1184.02 536.922
819 0 37.0328 12.7725 473 63.5476 1184.06 536.562
820 0 38.0122 12.5749 478 64.6966 1185.33 534.699
821 0 41.036 12.3306 506 63.8577 1185.06 535
822 0 41.085 11.2937 464 65.2392 1184.91 534.233
823 0 43.0556 13.7032 590 62.7102 1184.54 533.829
824 0 44.0311 12.6502 557 64.8384 1184.54 531.709
825 0 44.0968 12.1551 536 65.3004 1184.32 531.366
826 0 47.084 12.8494 605 64.1521 1183.88 530.998
827 0 48.0363 14.8846 715 62.6182 1183.87 531.322
828 0 49.1462 12.005 590 65.6153 1184.11 528.347
829 0 51.0472 14.2417 727 63.2517 1184.44 528.433
830 0 51.0335 13.011 664 65.0361 1184.11 528.172
831 0 52.025 13.3782 696 64.5762 1184.59 528.766
832 0 54.0852 13.6636 739 64.4804 1184.55 525.594
833 0 56.0575 12.844 720 65.5972 1184.02 524.951
834 0 58.0856 13.2563 770 64.7831 1184.16 525.238
835 0 60.0748 11.0529 664 66.7184 1183.81 522.991
836 0 59.0396 10.5692 624 68.1282 1184.38 522.147
837 0 68.0774 18.5965 1266 48.1651 1183.34 520.15
838 0 65.2022 12.929 843 66.3962 1183.97 519.217
839 0 68.1065 11.0562 753 67.8207 1184.47 518.602
840 0 70.0338 13.4364 941 66.0329 1183.91 515.84
841 0 73.0456 11.2669 823 68.5614 1184.15 516.084
842 0 74.1538 11.139 826 69.1114 1184.44 516.781
843 0 77.0728 11.1583 860 69.2221 1184.11 515.073
844 0 76.1301 10.1011 769 71.1027 1183.73 514.466
845 0 81.0534 11.3012 916 69.3668 1184.32 513.904
846 0 83.0902 10.5548 877 70.0034 1184.78 505.548
847 1 43.0476 10.1283 436 72.9106 1183.78 529.399
848 0 45.0888 11.4884 518 72.1699 1184.2 528.137
849 0 54.0991 13.6047 736 67.8791 1184.32 533.109
850 0 56.0459 13.2748 744 67.8858 1184.07 531.551
851 0 57.128 15.0364 859 66.3853 1184.07 529.483
852 0 59.0667 14.746 871 66.9346 1183.98 526.279
853 0 62.1282 14.6793 912 66.5395 1184.24 527.152
854 0 63.0709 13.9684 881 67.832 1183.93 525.242
855 0 67.1628 15.2912 1027 65.9435 1183.56 524.749
856 0 69.1794 14.5853 1009 65.555 1183.77 527.847
857 0 71.0491 14.7644 1049 66.448 1183.87 523.136
858 0 72.2666 14.5849 1054 67.4696 1183.85 520.68
859 0 77.1458 15.2179 1174 65.7325 1184.72 522.649
860 0 80.092 15.5946 1249 66.0048 1184.47 520.871
861 0 83.0804 15.0938 1254 68.0981 1185.06 519.656
862 0 86.0816 15.2297 1311 68.3699 1184.47 516.866
863 0 89.2206 17.2942 1543 65.3746 1184.69 517.459
864 0 90.053 16.5458 1490 66.5812 1183.71 516.585
865 0 95.1436 14.5149 1381 69.0253 1183.56 514.25
866 0 99.0963 15.3386 1520 67.6651 1184.35 512.084
867 0 100.085 14.1779 1419 69.6194 1184.2 510.373
868 1 51.2237 15.0126 769 67.303 1185.04 536.004
869 0 52.0606 13.5611 706 70.136 1185.13 533.697
870 0 57.3037 14.7983 848 66.5802 1185.1 535.073
871 0 55.0287 14.3198 788 68.8718 1184.42 532.467
872 0 56.0775 15.8352 888 67.4291 1184.69 530.753
873 0 58.0566 14.8304 861 68.2869 1184.76 531.616
874 0 62.1111 16.4383 1021 64.7473 1185.14 530.756
875 0 62.2087 14.3549 893 68.8164 1184.87 527.536
876 0 65.1378 15.7819 1028 66.3716 1184.3 528.017
877 0 67.0861 15.5323 1042 66.5633 1184.67 526.396
878 0 68.114 14.9896 1021 67.0137 1184.76 526.186
879 0 71.248 15.0601 1073 66.288 1184.64 525.564
880 0 71.0836 14.3071 1017 68.3392 1183.98 524.723
881 0 77.1318 16.4394 1268 65.1617 1183.91 521.312
882 0 78.1912 15.3981 1204 66.5017 1183.57 520.553
883 0 81.1682 15.7944 1282 66.0047 1184.71 519.959
884 0 83.0719 14.6861 1220 67.8467 1185.21 518.855
885 0 85.1688 14.8646 1266 67.7291 1184.49 517.597
886 0 88.1226 16.2047 1428 66.3831 1185.66 514.61
887 0 91.1072 15.9373 1452 66.3127 1185.83 515.215
888 0 93.2079 15.4386 1439 67.3301 1184.95 510.214
889 0 96.3296 15.7688 1519 66.553 1185.38 512.468
890 0 101.157 15.036 1521 67.2564 1185.54 510.971
891 0 104.121 15.799 1645 66.5343 1185.87 509.716
892 1 51.0765 14.351 733 69.3547 1185.2 530.817
893 0 55.0553 14.2039 782 67.2148 1185.48 534.473
894 0 55.0378 15.0079 826 67.638 1185.02 530.892
895 0 57.0907 14.2405 813 69.155 1185.59 529.212
896 0 59.1285 14.4262 853 69.3669 1185.57 527.73
897 0 61.1115 14.9072 911 67.8057 1185.08 530.933
898 0 62.1778 13.4614 837 70.4253 1185.2 530.375
899 0 65.0897 16.7922 1093 66.1473 1186.04 528.123
900 0 66.063 15.6517 1034 69.0174 1185.46 525.817
901 0 69.186 15.5956 1079 68.2169 1185.47 526.286
902 0 71.1763 15.8199 1126 68.5213 1184.93 524.488
903 0 72.394 14.4625 1047 70.467 1185.45 523.291
904 0 76.0909 14.6535 1115 69.3973 1184.75 524.585
905 0 78.082 14.1134 1102 70.2323 1185.66 523.509
906 0 81.0863 13.9111 1128 70.1543 1185.27 521.658
907 0 83.1794 14.7032 1223 69.3091 1185.24 520.206
908 0 85.2246 14.5263 1238 69.9976 1185.75 519.187
909 0 88.2273 13.8846 1225 70.6792 1185.59 518.024
910 0 91.2082 14.9548 1364 69.7236 1185.74 515.309
911 0 93.4307 15.1021 1411 69.5578 1185.46 515.205
912 0 94.1733 13.5389 1275 72.7569 1186.5 510.466
913 0 100.119 14.6126 1463 70.1415 1186.28 513.165
914 0 102.438 14.7895 1515 70.1696 1186.05 511.205
915 0 105.299 15.8882 1673 68.2319 1185.33 511.014
916 0 108.13 14.4364 1561 70.4689 1185.03 506.615
917 0 111.094 15.3384 1704 68.6309 1185.59 509.866
918 0 117.259 15.4274 1809 69.2935 1185.57 503.577
919 0 119.262 13.8937 1657 71.0024 1185.67 504.578
920 0 125.245 14.5794 1826 70.4732 1185.28 502.602
921 0 125.181 12.9093 1616 73.2209 1184.77 500.986
922 0 133.289 14.8399 1978 70.6178 1185.19 498.802
923 0 135.268 14.024 1897 72.0517 1185.4 497.678
924 0 141.285 14.1699 2002 72.3716 1184.69 494.273
925 1 69.2235 12.7413 882 73.6088 1184.96 526.577
926 0 73.2569 14.8928 1091 72 1184.59 523.246
927 0 74.4071 15.7646 1173 71.4066 1184.91 520.668
928 0 77.2123 13.5082 1043 75.1505 1185.42 520.931
929 0 80.277 15.3344 1231 72.9594 1185.55 519.689
930 0 83.3029 13.9251 1160 73.2328 1184.59 521.803
931 0 86.2061 14.4073 1242 73.868 1184.31 517.219
932 0 89.4793 13.9362 1247 74.6343 1184.41 517.532
933 0 92.2787 15.5507 1435 72.2613 1184.39 515.797
934 0 94.2836 14.9337 1408 73.7692 1184.81 514.509
935 0 98.2599 14.6143 1436 73.7744 1184.81 510.604
936 0 101.31 13.8782 1406 74.2475 1184.48 512.267
937 0 103.264 13.4413 1388 75.2219 1185.38 509.773
938 0 107.508 14.4175 1550 73.8768 1185.36 510.347
939 0 110.459 13.7336 1517 74.4199 1184.91 506.244
940 0 114.279 13.4408 1536 75.4062 1184.98 504.16
941 0 116.408 13.6674 1591 75.7876 1185.37 501.527
942 1 61.1739 14.8429 908 74.1112 1184.63 528.3
943 0 63.2593 14.2113 899 75.1335 1184.57 527.99
944 0 64.2425 14.4764 930 75.5548 1185.28 526.191
945 0 67.1493 13.7604 924 76.1396 1185 527.194
946 0 68.245 12.9973 887 78.5784 1184.91 523.026
947 0 70.2807 14.2002 998 76.4359 1185.24 524.211
948 0 74.2714 16.8436 1251 72.5108 1185.61 523.672
949 0 75.2464 14.499 1091 76.3703 1185.37 523.172
950 0 78.2387 15.1076 1182 74.9788 1186.01 523.252
951 0 82.4944 14.2191 1173 76.4748 1186.46 519.511
952 0 82.3315 14.6238 1204 76.6595 1186.34 519.577
953 0 86.2894 14.9845 1293 75.7471 1185.34 516.248
954 0 88.2046 15.0219 1325 76.1615 1185.51 514.39
955 0 91.4083 14.3969 1316 75.788 1185.46 516.744
956 0 94.2822 14.9869 1413 75.9108 1184.76 509.541
957 0 97.3549 14.9453 1455 75.5017 1185.18 510.82
958 0 103.341 15.6666 1619 73.4509 1184.91 509.984
959 0 106.259 15.7351 1672 73.7135 1183.77 507.425
960 0 108.399 14.3821 1559 75.9666 1183.86 504.096
961 1 56.1191 13.0259 731 77.1546 1184.68 531.213
962 0 59.0869 12.5239 740 77.5986 1184.79 530.9
963 0 61.1408 13.9514 853 76.3247 1185.45 528.611
964 0 65.1639 14.7781 963 74.8328 1185.68 528.289
965 0 66.1703 15.6717 1037 73.7994 1185.3 526.382
966 0 68.1325 15.5432 1059 73.627 1185.3 525.3
967 0 70.3975 15.5261 1093 73.1958 1185.9 524.717
968 0 74.1763 16.5147 1225 71.4898 1185.21 523.131
969 0 75.3451 15.4489 1164 73.9957 1185.23 521.625
970 0 77.4559 14.1887 1099 75.4104 1185 520.702
971 0 80.3906 14.8774 1196 73.3796 1185.71 522.028
972 0 82.1742 15.0412 1236 74.6343 1186.12 518.033
973 0 87.2699 15.1026 1318 73.3073 1186.12 517.439
974 0 89.2726 15.9287 1422 72.4325 1185.89 514.138
975 0 92.4295 14.0215 1296 74.713 1186.38 515.804
976 0 95.2676 15.0523 1434 73.03 1185.91 514.821
977 0 96.2725 14.6148 1407 74.7441 1185.46 510.464
978 0 103.141 17.7428 1830 69.1716 1186.34 510.242
979 0 105.341 14.98 1578 73.18 1187.15 509.947
980 0 105.296 12.8115 1349 76.5448 1185.96 507.498
981 0 112.298 15.9487 1791 71.4846 1185.81 505.539
982 1 57.1111 14.2179 812 73.5468 1185.06 530.389
983 0 61.219 13.2965 814 75.4226 1185.14 529.845
984 0 62.2489 14.6991 915 73.788 1185.61 528.823
985 0 64.2118 14.8259 952 74.2626 1186.22 525.571
986 0 67.2003 15.0446 1011 72.3027 1185.79 526.289
987 0 70.1218 14.9882 1051 72.4548 1185.41 525.402
988 0 72.2976 14.7031 1063 72.6613 1184.82 523.86
989 0 72.2254 14.967 1081 72.7253 1184.98 522.489
990 0 76.2808 15.8362 1208 71.245 1185.6 521.291
991 0 79.2358 15.1573 1201 71.6886 1185.26 520.317
992 0 80.5027 15.7883 1271 71.2691 1185.42 519.707
993 0 81.2 14.4704 1175 73.7166 1185.96 517.7
994 0 86.4541 16.448 1422 70.3804 1186.27 515.167
995 0 89.3178 16.4581 1470 69.8027 1185.34 515.04
996 0 90.2662 15.8199 1428 71.6394 1185.07 513.171
997 0 95.187 15.79 1503 71.5083 1186.04 511.971
998 0 96.2921 15.266 1470 72.4639 1185.13 510.876
999 0 98.2288 14.8022 1454 73.6486 1185.21 509.196
1000 0 103.231 15.4023 1590 71.9283 1185.18 506.909
1001 0 108.074 16.8865 1825 69.2564 1185.66 506.534
1002 0 109.112 15.4062 1681 71.2802 1185.54 507.545
1003 0 114.28 15.7508 1800 70.6967 1185.5 503.689
1004 0 117.433 16.1454 1896 70.5311 1185.94 499.045
1005 0 121.163 17.365 2104 68.1526 1185.93 501.955
1006 1 60.1537 12.9834 781 74.0743 1185.21 528.383
1007 0 63.1095 13.8489 874 73.2025 1185.55 526.628
1008 0 65.0903 14.7795 962 70.8877 1184.96 527.975
1009 0 70.1347 17.2668 1211 67.2841 1184.93 527.024
1010 0 71.1763 14.6116 1040 71.6327 1184.75 525.293
1011 0 73.3202 16.5712 1215 68.87 1185.1 524.323
1012 0 75.088 14.4497 1085 71.6839 1185.25 523.647
1013 0 79.0635 14.7097 1163 71.2683 1185.63 520.873
1014 0 79.2041 14.5699 1154 72.364 1184.89 518.39
1015 0 83.4596 15.816 1320 69.6439 1184.21 518.015
1016 0 85.2025 15.7155 1339 69.9111 1184.46 516.912
1017 0 89.3425 14.853 1327 70.2833 1184.68 517.509
1018 0 90.2458 14.4605 1305 71.2958 1184.99 514.984
1019 0 96.3542 15.8063 1523 68.3979 1184.96 513.504
1020 0 99.2469 14.4488 1434 70.1374 1183.94 513.802
1021 0 103.197 16.9869 1753 66.4798 1183.95 511.042
1022 0 107.205 14.85 1592 68.956 1183.94 509.185
1023 1 59.0455 14.6328 864 69.3727 1184.15 531.37
1024 0 59.2074 14.5421 861 69.7271 1183.49 531.165
1025 0 59.1189 13.3122 787 72.0152 1183.45 529.405
1026 0 66.2079 15.406 1020 67.6078 1184.32 529.398
1027 0 68.0685 15.5432 1058 67.5567 1184.67 528.854
1028 0 69.1137 15.1634 1048 69.0382 1184.44 525.737
1029 0 71.2647 13.1622 938 70.9211 1184.15 526.101
1030 0 76.152 16.6641 1269 66.4909 1184 522.615
1031 0 76.0479 15.7006 1194 68.3509 1183.55 521.751
1032 0 80.0775 15.7472 1261 67.7026 1183.77 521.002
1033 0 80.2041 14.9369 1198 69.6202 1184.03 518.3
1034 0 85.2744 15.4325 1316 68.3154 1183.31 517.678
1035 0 86.4559 14.4235 1247 69.6872 1183.27 518.06
1036 0 91.3179 15.7143 1435 67.8362 1183.29 516.457
1037 0 92.1698 14.712 1356 69.9558 1183.83 514.313
1038 0 96.2971 14.8499 1430 69.3014 1182.79 515.738
1039 0 99.1779 17.6955 1755 65.8188 1183.42 512.919
1040 0 105.13 15.5236 1632 67.7034 1183.38 513.287
1041 0 107.153 15.4918 1660 68.7 1183.06 509.771
1042 0 109.386 14.8282 1622 69.4402 1183.09 507.172
1043 0 114.229 14.3133 1635 70.0648 1183.58 502.729
1044 0 114.242 13.2875 1518 71.4368 1183.24 503.841
1045 1 62.0874 13.787 856 69.7278 1183.08 529.873
1046 0 64.1672 14.2129 912 69.9024 1183.34 529.132
1047 0 68.1234 14.5178 989 68.6299 1182.92 529.554
1048 0 68.115 17.3236 1180 65.6534 1183.59 528.103
1049 0 71.2151 14.6879 1046 68.4034 1183.83 528.073
1050 0 74.1923 14.4355 1071 69.2969 1183.1 525.459
1051 0 75.1982 14.7078 1106 69.3345 1183.37 523.67
1052 0 79.2627 14.5213 1151 68.9496 1182.64 521.027
1053 0 82.2139 13.8663 1140 69.6921 1183 522.496
1054 0 84.1064 14.8383 1248 69.5497 1182.98 517.678
1055 0 88.1194 16.4209 1447 67.0822 1183.04 517.232
1056 0 92.5095 14.9714 1385 68.457 1183.56 516.823
1057 0 93.392 15.965 1491 67.4225 1183.55 514.578
1058 0 96.2203 12.8351 1235 71.2915 1183.69 514.88
1059 0 101.241 14.263 1444 69.4204 1183.27 511.519
1060 0 102.456 13.8791 1422 69.5218 1182.73 512.557
1061 0 108.261 15.8137 1712 67.0432 1183.21 508.359
1062 1 52.3565 11.9183 624 71.9151 1183.3 536.486
1063 0 56.2135 15.3878 865 66.6324 1183.83 537.268
1064 0 56.2711 14.1103 794 69.4987 1183.28 534.501
1065 0 57.2021 12.7967 732 72.3579 1184.27 532.93
1066 0 60.5198 13.7971 835 70.4371 1184.5 532.14
1067 0 63.1825 13.8488 875 69.5771 1183.9 532.59
1068 0 65.2497 14.0537 917 69.1363 1184.04 530.567
1069 0 65.0859 14.4732 942 69.3578 1183.6 528.39
1070 0 70.309 14.0807 990 69.4818 1183.72 527.924
1071 0 73.3657 15.6476 1148 66.9416 1182.67 527.208
1072 0 74.1501 16.1834 1200 66.9733 1184.03 526.031
1073 0 76.2829 15.2459 1163 68.055 1184.38 525.708
1074 0 79.3359 16.6381 1320 66.428 1183.8 523.469
1075 0 82.1839 15.6357 1285 67.1479 1183.9 523.964
1076 0 83.0922 14.5982 1213 69.1904 1183.93 520.941
1077 0 88.3683 15.5486 1374 67.7926 1184.58 519.061
1078 0 90.1141 15.3361 1382 68.2786 1184.64 516.819
1079 0 92.2556 15.5655 1436 67.9728 1184.73 515.704
1080 0 94.2509 13.7505 1296 70.5039 1183.57 514.606
1081 0 100.231 14.5764 1461 69.1239 1184.33 511.13
1082 0 104.308 15.8376 1652 66.8759 1183.72 510.159
1083 0 105.083 14.065 1478 69.5866 1183.4 509.602
1084 1 55.2093 14.8163 818 68.0562 1184.39 532.977
1085 0 55.2322 13.7058 757 70.5588 1184.94 533.95
1086 0 59.3583 15.8192 939 67.0554 1184.42 532.711
1087 0 59.2176 13.5602 803 70.0398 1183.68 531.626
1088 0 59.6353 15.2426 909 68.9043 1184.27 529.116
1089 0 62.1963 14.004 871 70.3685 1185.1 530
1090 0 67.4414 15.2873 1031 68.3531 1184.53 527.978
1091 0 68.5621 13.9727 958 69.8048 1183.96 527.32
1092 0 71.2024 13.9181 991 70.1544 1183.71 527.44
1093 0 72.1239 15.8754 1145 68.4559 1184.1 524.073
1094 0 75.362 16.3743 1234 67.0235 1183.86 525.097
1095 0 79.2491 15.3062 1213 68.4262 1184.04 523.294
1096 0 78.1815 15.6942 1227 68.2029 1184.07 521.25
1097 0 83.3 14.6819 1223 69.1889 1184.31 518.994
1098 0 86.2682 16.2169 1399 66.8792 1184.49 518.894
1099 0 90.2898 15.417 1392 67.4964 1184.86 516.83
1100 0 93.4381 15.2079 1421 67.7642 1184.9 516.719
1101 0 94.2182 14.9122 1405 68.363 1184.53 512.559
1102 0 99.2926 16.537 1642 65.9671 1184.11 512.072
1103 0 101.229 14.4523 1463 68.7191 1183.59 509.801
1104 0 107.164 14.7158 1577 67.9302 1184.03 509.496
1105 0 109.212 14.623 1597 68.2248 1184 508.8
1106 0 112.38 14.1573 1591 68.5204 1184.08 508.414
1107 1 61.3085 14.6146 896 67.5625 1184.51 531.433
1108 0 62.1829 14.5378 904 69.0531 1184.44 529.728
1109 0 66.3911 14.761 980 67.6837 1184.61 531.36
1110 0 68.2894 16.4594 1124 65.6957 1184.45 529.171
1111 0 70.2311 15.3208 1076 67.6431 1184.58 525.726
1112 0 71.3986 14.398 1028 68.641 1184.74 526.998
1113 0 75.2106 15.2638 1148 68.2012 1184.85 524.761
1114 0 77.4442 15.1076 1170 68.6462 1184.55 522.438
1115 0 78.4293 15.6702 1229 68.5997 1184.03 519.412
1116 0 82.1606 15.0437 1236 68.8042 1184.22 519.43
1117 0 85.2255 15.8403 1350 68.1704 1183.98 519.907
1118 0 85.1591 14.5727 1241 70.8106 1184.67 515.91
1119 0 89.3078 13.8958 1241 70.9694 1184.27 517.052
1120 0 92.3284 14.8492 1371 69.7345 1183.63 516.936
1121 0 93.1668 13.8676 1292 72.0983 1184.45 513.565
1122 0 99.1609 16.0144 1588 68.3583 1184.4 512.506
1123 0 102.263 15.1765 1552 69.788 1184.12 509.251
1124 0 105.322 15.7612 1660 69.3349 1184.46 507.575
1125 0 109.262 15.4949 1693 69.3857 1185.26 505.974
1126 0 112.432 15.3337 1724 69.7761 1184.66 506.643
1127 0 117.451 15.581 1830 68.8301 1184 506.07
1128 1 59.1169 13.5833 803 72.472 1184.79 529.664
1129 0 60.3552 13.7685 831 71.9098 1184.6 529.457
1130 0 62.1356 15.434 959 70.4234 1184.39 528.009
1131 0 65.1233 14.9563 974 70.2793 1184.52 527.536
1132 0 67.3449 14.6262 985 70.8528 1184.94 528.351
1133 0 70.1778 14.1783 995 71.8643 1184.68 525.219
1134 0 73.2096 15.2302 1115 69.5516 1184.59 526.586
1135 0 74.1824 16.9178 1255 68.451 1184.18 524.485
1136 0 75.6247 14.9686 1132 70.947 1184.69 524.132
1137 0 77.6362 15.0832 1171 70.8027 1184.71 521.425
1138 0 83.1975 16.9717 1412 67.5531 1185.04 520.805
1139 0 85.4901 15.2649 1305 69.8621 1184.9 518.933
1140 0 87.3817 16.159 1412 69.636 1184.04 515.969
1141 0 89.3274 15.3592 1372 70.4891 1184.26 514.351
1142 0 93.6062 15.8109 1480 69.4466 1184.35 514.946
1143 0 97.2302 15.7976 1536 69.2129 1184.9 512.633
1144 0 100.417 16.4912 1656 68.3056 1185.02 509.339
1145 0 103.376 14.7132 1521 70.712 1184.9 507.986
1146 0 105.136 15.3705 1616 70.1467 1184.85 505.019
1147 1 56.2053 13.9845 786 71.5827 1185.19 529.751
1148 0 59.1993 13.5981 805 71.5366 1184.93 529.784
1149 0 62.2727 14.6292 911 70.2558 1184.13 529.201
1150 0 62.1955 13.3289 829 72.5199 1184.01 526.732
1151 0 63.382 14.2627 904 71.6759 1184.15 527.482
1152 0 67.3667 15.0074 1011 70.0851 1184.5 525.879
1153 0 69.2269 16.352 1132 68.4744 1185.11 525.68
1154 0 73.314 15.5905 1143 69.0192 1185.24 524.548
1155 0 73.3131 15.3861 1128 70.0381 1185.27 522.638
1156 0 75.1599 16.1123 1211 68.7308 1184.61 522.216
1157 0 78.2259 15.3146 1198 70.1469 1184.23 519.696
1158 0 82.1385 14.6947 1207 70.3488 1184.9 518.696
1159 0 84.2363 14.7561 1243 70.0185 1184.95 518.699
1160 0 88.3335 14.6717 1296 70.0872 1184.67 516.741
1161 0 92.3409 16.764 1548 67.1957 1184.22 515.771
1162 0 92.078 13.7927 1270 71.337 1184.47 513.957
1163 0 96.4355 15.2745 1473 69.0543 1184.49 513.062
1164 0 98.288 13.7148 1348 71.4102 1184.76 511.76
1165 1 50.2117 14.0007 703 69.3627 1184.51 535.266
1166 0 49.1666 10.4949 516 74.6085 1184.26 533.589
1167 0 52.2255 14.1693 740 70.3176 1184.69 533.223
1168 0 52.3631 13.2154 692 72.0578 1184.77 531.282
1169 0 54.3095 14.7672 802 70.3604 1185.04 530.377
1170 0 58.218 15.9744 930 67.6409 1185.19 532.98
1171 0 59.1528 15.4346 913 68.7185 1184.66 531.129
1172 0 59.404 15.7734 937 69.0011 1184.86 530.051
1173 0 62.1253 15.4204 958 68.4697 1185.14 531.241
1174 0 64.1338 16.5747 1063 67.73 1184.51 529.063
1175 0 66.2565 14.0062 928 70.5862 1183.95 528.082
1176 0 68.2351 14.8164 1011 69.2957 1185.01 526.23
1177 0 71.2927 14.8122 1056 68.8011 1184.91 527.637
1178 0 73.3367 14.3721 1054 69.445 1185.34 527.598
1179 0 76.4274 14.6283 1118 69.4955 1184.73 524.033
1180 0 77.3008 15.1616 1172 68.8123 1185.71 524.272
1181 0 79.3994 15.8188 1256 68.5573 1184.43 520.561
1182 0 82.2703 15.0601 1239 69.5343 1184.56 521.167
1183 0 83.3477 14.2535 1188 70.6843 1184.66 517.418
1184 0 88.2654 15.5554 1373 68.464 1185.22 519.256
1185 0 91.2122 15.4036 1405 68.6868 1185.34 516.098
1186 1 44.2791 11.1565 494 73.1741 1184.97 537.753
1187 0 47.3627 14.9696 709 67.8632 1184.91 536.756
1188 0 48.195 15.541 749 67.526 1185.49 536.234
1189 0 49.2236 15.135 745 67.6443 1185.1 537.426
1190 0 50.4773 14.3233 723 69.0581 1185.31 535.707
1191 0 49.2355 14.6236 720 70.2875 1184.97 534.474
1192 0 52.3993 14.9811 785 68.907 1185.53 535.818
1193 0 54.3821 13.7177 746 70.3633 1185.9 535.244
1194 0 57.4262 16.0728 923 68.052 1185.68 533.649
1195 0 57.1333 15.7876 902 69.1497 1185.33 532.195
1196 0 59.3394 15.2176 903 68.959 1185.28 532.633
1197 0 62.5527 15.3471 960 68.4792 1184.48 531.782
1198 0 63.2796 15.234 964 69.1432 1184.33 529.811
1199 0 65.2036 15.1679 989 69.8049 1184.55 528.976
1200 0 66.1527 14.6026 966 70.4669 1185.09 527.734
1201 0 69.6374 14.1303 984 70.876 1184.95 526.101
1202 0 73.4043 15.7348 1155 68.2303 1184.87 526.044
1203 0 74.4396 17.0205 1267 67.4065 1185.05 523.328
1204 0 77.5124 15.7394 1220 68.5221 1185.67 523.017
1205 0 80.5738 15.7619 1270 68.1291 1185.34 522.506
1206 0 83.5002 16.5269 1380 66.5877 1185.45 521.033
1207 0 83.2475 15.8684 1321 67.9682 1185.14 518.372
1208 0 87.7775 15.9266 1398 67.5794 1185.11 517.517
1209 0 89.4062 15.122 1352 68.0865 1185.02 517.907
1210 0 92.5141 14.9383 1382 68.6512 1184.67 515.299
1211 0 95.4031 14.2134 1356 68.84 1184.57 514.964
1212 1 48.1865 13.261 639 67.5634 1184.82 536.372
1213 0 48.4881 13.921 675 66.557 1185.15 537.855
1214 0 50.4107 13.2115 666 67.2883 1185.46 535.201
1215 0 50.274 13.7447 691 65.8452 1184.78 536.158
1216 0 53.4355 14.2228 760 65.7355 1186.11 534.566
1217 0 54.3093 14.1965 771 64.9274 1185.7 534.807
1218 0 55.5619 15.0283 835 64.0695 1185.39 535.253
1219 0 56.2154 17.1661 965 62.83 1185.48 532.812
1220 0 56.3044 14.8301 835 66.2647 1185.81 530.855
1221 0 60.5358 12.5215 758 67.4815 1186.16 532.281
1222 0 61.6192 14.9142 919 65.9935 1185.58 530.168
1223 0 62.5658 14.8164 927 66.1985 1185.31 532.043
1224 0 64.5467 14.8884 961 66.538 1185.04 530.124
1225 0 65.507 14.7923 969 67.1723 1185.54 528.792
1226 0 66.6273 14.1534 943 67.9682 1185.55 529.098
1227 0 70.5907 13.8262 976 67.7275 1185.51 527.943
1228 0 72.6131 15.3829 1117 66.6025 1185.61 526.064
1229 0 72.7238 13.3794 973 69.5313 1185.3 525.084
1230 0 75.5775 14.29 1080 68.5389 1185.26 522.887
1231 0 79.8175 15.0594 1202 66.9126 1185.35 523.32
1232 0 82.4983 16.667 1375 65.2262 1185.61 523.117
1233 0 85.5515 15.628 1337 66.3687 1185.41 520.275
1234 0 87.4266 15.4644 1352 67.196 1185.27 518.184
1235 0 87.4582 13.6751 1196 69.9289 1184.79 518.682
1236 0 92.5824 15.0677 1395 68.3806 1185.14 515.987
1237 0 94.4228 16.9239 1598 66.6352 1184.59 514.317
1238 0 97.5844 14.531 1418 68.9104 1184.69 513.625
1239 0 100.495 14.7171 1479 69.3327 1184.92 510.018
1240 0 103.507 13.9894 1448 70.8239 1185.39 509.439
1241 0 106.609 14.0044 1493 71.077 1184.5 511.666
1242 0 110.608 15.5323 1718 69.858 1184.76 508.055
1243 0 115.048 15.3241 1763 69.9546 1184.75 507.128
1244 0 119.501 14.1839 1695 71.7251 1185.81 506.897
1245 0 123.546 14.8689 1837 71.1731 1185.57 503.102
1246 0 125.329 15.2718 1914 70.9201 1185.89 502.186
1247 0 128.506 14.1472 1818 73.0886 1185.71 500.443
1248 0 133.612 15.8294 2115 71.5674 1186.3 495.692
1249 0 138.676 14.5663 2020 73.1881 1185.71 496.321
1250 0 141.764 14.242 2019 74.5567 1185.6 489.484
1251 0 148.826 14.9302 2222 72.7642 1186.27 492.606
1252 0 153.673 16.0601 2468 71.2978 1185.97 490.667
1253 1 27.238 13.5472 369 70.3496 1185.52 548.602
1254 0 28.479 14.2912 407 69.1425 1185.17 548.774
1255 0 28.1066 12.7372 358 70.3101 1184.59 549.743
1256 0 30.2939 15.1186 458 68.6179 1184.48 548.236
1257 0 27.2166 13.4477 366 71.4836 1185.04 548.519
1258 0 31.3045 14.6305 458 69.441 1185.53 548.354
1259 0 29.136 12.7677 372 73.336 1186.06 548.247
1260 0 32.3342 15.7418 509 70.2063 1186.08 546.169
1261 1 90.4027 15.442 1396 73.2751 1185.54 519.599
1262 0 94.6458 15.8486 1500 72.1353 1184.85 520.241
1263 0 94.4007 17.2562 1629 70.7004 1184.91 520.096
1264 0 97.4895 14.7811 1441 75.3678 1185.07 515.607
1265 0 100.469 15.6665 1574 74.4034 1184.58 515.76
1266 0 101.465 15.3156 1554 75.8417 1185.59 511.198
1267 0 107.511 16.7331 1799 73.8883 1185.84 510.16
1268 0 112.854 15.3915 1737 75.0599 1184.82 510.545
1269 0 114.388 15.0802 1725 76.0997 1185.19 509.528
1270 0 118.55 14.8966 1766 75.9949 1184.14 507.815
1271 0 122.482 15.6595 1918 75.5407 1184.84 507.7
1272 0 124.544 14.9907 1867 76.6931 1184.29 504.973
1273 0 130.234 15.5182 2021 76.0599 1183.56 503.153
1274 0 133.468 17.3224 2312 74.0921 1184.65 500.253
1275 0 136.48 16.2735 2221 76.2539 1184.53 499.046
1276 0 142.524 16.5516 2359 75.1704 1183.7 500.537
1277 0 147.497 16.7935 2477 75.3371 1184.76 498.696
1278 0 149.612 15.6605 2343 77.9116 1185.25 493.561
1279 0 153.59 14.8317 2278 79.9184 1184.77 490.927
1280 0 157.415 15.6656 2466 79.195 1184.5 486.513
1281 1 114.298 15.1884 1736 78.5616 1184.78 513.107
1282 0 115.416 14.1315 1631 82.0625 1185.2 507.316
1283 0 118.23 15.3684 1817 79.9296 1185.43 506.206
1284 0 122.39 14.462 1770 80.7695 1185.29 506.592
1285 1 61.0508 16.6255 1015 80.4571 1186.03 532.234
1286 0 62.07 15.9014 987 83.0537 1186.16 531.122
1287 0 64.0735 16.1689 1036 82.3658 1185.72 528.458
1288 0 67.1015 16.5421 1110 81.7135 1185.29 529.008
1289 0 67.0416 15.5127 1040 84.0875 1184.72 527.156
1290 0 71.1225 16.3521 1163 81.8065 1184.66 527.382
1291 0 74.1449 16.9128 1254 81.3134 1185.28 523.92
1292 0 76.1024 16.2281 1235 82.4858 1185.22 525.99
1293 0 77.1731 15.2644 1178 84.4813 1185.68 522.722
1294 0 80.2083 15.3351 1230 84.6634 1185.68 522.5
1295 0 82.0444 16.4179 1347 81.9428 1185.75 523.889
1296 0 84.1235 15.6199 1314 84.481 1184.78 520.725
1297 0 87.2028 15.9398 1390 83.8468 1185.49 519.358
1298 0 91.0931 15.9178 1450 83.251 1185.14 520.537
1299 1 48.011 14.2259 683 84.6911 1185.82 540.018
1300 0 50.0489 15.385 770 84.3584 1185.91 538.123
1301 0 50.0702 15.8777 795 83.8969 1185.55 538.132
1302 0 54.0496 15.5043 838 84.2208 1186.59 537.166
1303 0 54.0905 16.5833 897 83.029 1185.99 536.124
1304 0 55.0631 15.1099 832 86.0192 1185.89 536.888
1305 0 55.0298 13.7925 759 88.0777 1186.25 535.744
1306 0 57.1392 15.541 888 85.5608 1186.49 534.204
1307 0 58.08 14.2218 826 88.9588 1186.54 534.183
1308 0 62.1101 14.8768 924 85.0433 1185.1 536.189
1309 0 61.1576 14.994 917 86.374 1185.36 533.248
1310 0 62.1119 14.3451 891 87.9192 1185.66 530.695
1311 0 67.0734 16.549 1110 82.0027 1185.99 532.248
1312 0 68.1272 15.427 1051 84.9058 1185.94 528.599
1313 0 70.0733 15.4981 1086 84.6593 1185.39 529.086
1314 0 72.1217 15.3768 1109 84.4518 1185.88 527.53
1315 0 73.1397 14.4655 1058 85.6966 1186.25 527.063
1316 0 77.1074 14.8235 1143 84.1697 1185.43 526.556
1317 0 78.0631 15.4875 1209 83.6022 1185.33 525.094
1318 0 80.0549 15.4519 1237 82.3015 1185.61 527.073
1319 1 39.1282 13.0085 509 85.7819 1185.4 543.576
1320 0 39.0446 13.4718 526 84.9373 1185.26 544.515
1321 0 41.1518 14.0942 580 84.7552 1186.15 542.878
1322 0 42.0572 13.9572 587 85.0341 1185.58 542.198
1323 0 43.0489 14.1467 609 85.9639 1185.51 540.498
1324 0 46.0552 14.7866 681 83.8267 1185.41 540.029
1325 0 49.0656 15.4079 756 81.7923 1185.79 538.407
1326 0 48.0697 16.0808 773 81.8228 1185.69 538.168
1327 0 51.0355 15.2247 777 81.6744 1186.02 537.574
1328 0 54.1168 16.1133 872 79.6972 1185.99 537.755
1329 0 55.1573 13.7606 759 83.1581 1186.09 537.31
1330 0 57.2067 14.2466 815 81.562 1185.97 536.478
1331 0 59.0423 14.261 842 82.0285 1186.13 535.633
1332 0 59.1301 14.8993 881 81.8922 1185.44 534.36
1333 0 62.1812 15.1814 944 79.715 1185.73 536.438
1334 0 64.1346 14.376 922 82.5683 1185.55 533.133
1335 0 66.1653 14.3731 951 82.4627 1185.81 532.384
1336 0 67.0631 14.971 1004 81.9821 1186.31 531.351
1337 0 70.0859 14.7819 1036 81.4624 1185.77 531.803
1338 0 73.1546 15.6518 1145 80.4384 1186.31 527.644
1339 0 74.0955 14.1574 1049 82.6721 1185.49 526.636
1340 0 76.1993 14.344 1093 82.2498 1185.41 526.393
1341 0 79.1045 14.7779 1169 81.4252 1185.88 525.182
1342 0 82.2668 15.1094 1243 80.3194 1185.98 525.422
1343 0 84.1197 14.7409 1240 81.2516 1186.12 521.956
1344 0 90.138 14.4445 1302 80.8295 1185.5 521.217
1345 0 91.1572 14.1185 1287 81.4988 1186.17 520.65
1346 1 47.0533 14.7917 696 82.0129 1185.19 537.463
1347 0 49.0571 15.2068 746 81.4598 1184.69 537.063
1348 0 51.0872 13.5259 691 83.1216 1185.32 539.323
1349 0 52.0322 13.2995 692 83.9827 1186.29 537.962
1350 0 57.1152 16.2128 926 77.9708 1186.79 536.968
1351 0 58.0385 15.5242 901 80.0777 1186.16 534.491
1352 0 60.0621 15.101 907 80.7993 1185.86 532.829
1353 0 60.029 14.6263 878 81.4089 1185.49 533.549
1354 0 63.0391 14.6258 922 81.3037 1185.96 533.309
1355 0 64.0535 15.3934 986 80.9878 1185.74 530.736
1356 0 67.2491 16.2679 1094 78.7879 1185.76 530.768
1357 0 66.0682 14.258 942 83.69 1185.7 529.731
1358 0 70.0941 14.4377 1012 82.8874 1185.58 529.33
1359 0 75.1514 17.5512 1319 76.5421 1185.4 527.19
1360 0 75.1014 15.1795 1140 80.4439 1185.01 527.487
1361 0 79.1026 16.3838 1296 78.287 1185.33 525.414
1362 0 82.0335 16.0178 1314 79.2549 1184.97 523.233
1363 0 83.1905 16.1316 1342 78.7921 1185.19 523.695
1364 0 86.0474 15.6774 1349 79.9022 1185 520.263
1365 0 89.0596 16.0679 1431 79.0503 1185.56 518.551
1366 0 90.0731 16.0647 1447 78.9578 1186.5 517.965
1367 0 95.1272 15.9891 1521 78.4569 1186.25 516.592
1368 0 100.189 16.5387 1657 75.9113 1185.33 516.167
1369 0 104.144 16.2083 1688 76.1682 1185.12 514.609
1370 0 106.082 15.3655 1630 77.9926 1185.32 512.032
1371 0 109.193 17.5378 1915 74.8935 1185.64 510.31
1372 0 112.253 15.7768 1771 77.5534 1186.62 507.43
1373 0 117.318 15.3088 1796 77.1732 1185.65 509.542
1374 0 121.078 16.9148 2048 74.582 1186.07 504.809
1375 1 61.0699 14.9337 912 77.9298 1185.62 533.488
1376 0 63.05 15.4005 971 78.0484 1185.88 530.951
1377 0 62.074 14.4022 894 81.0738 1186.2 528.577
1378 0 65.1162 14.8197 965 79.8114 1185.74 528.35
1379 0 67.076 14.6103 980 79.5592 1186.28 529.906
1380 0 71.1606 14.9662 1065 77.8798 1186.01 531.514
1381 0 73.1824 15.2769 1118 78.6986 1185.89 527.745
1382 0 73.0829 15.4756 1131 78.9929 1186.38 528.915
1383 0 76.0692 16.0906 1224 79.0417 1185.74 525.404
1384 0 78.0443 16.2728 1270 78.4717 1185.36 523.3
1385 0 82.1156 16.6594 1368 77.7288 1185.2 523.124
1386 0 83.0881 15.1285 1257 80.7987 1185.67 520.422
1387 0 87.1679 15.1776 1323 79.9705 1185.92 519.96
1388 0 88.1627 16.0045 1411 78.8228 1186 519.593
1389 0 90.1705 14.9606 1349 80.9177 1186.69 515.738
1390 0 96.1278 18.4546 1774 73.686 1186.24 517.871
1391 0 97.0749 17.3783 1687 75.8346 1185.45 511.936
1392 0 102.073 14.9794 1529 79.2714 1185 512.38
1393 0 104.106 16.2239 1689 77.7567 1185.33 508.588
1394 0 108.072 14.9808 1619 79.3039 1185.6 511.04
1395 1 54.079 14.7192 796 77.1608 1186.18 536.185
1396 0 54.0879 13.0159 704 80.3026 1186.51 534.733
1397 0 56.1291 13.6649 767 79.6636 1186.72 534.256
1398 0 59.0399 14.3632 848 77.105 1186.51 533.042
1399 0 60.0472 13.939 837 77.4731 1186 533.409
1400 0 63.0629 14.3508 905 77.2486 1185.97 531.799
1401 0 64.0965 13.6825 877 78.5792 1185.94 529.646
1402 0 68.0647 14.2365 969 76.9979 1186.49 530.338
1403 0 69.0553 14.0322 969 77.7296 1185.96 528.196
1404 0 71.0536 14.1583 1006 77.4016 1185.6 527.252
1405 0 74.0965 14.0897 1044 77.0038 1186.11 526.779
1406 0 76.1017 14.3624 1093 76.6441 1185.56 525.628
1407 0 78.0369 13.0707 1020 78.3902 1185.33 525.305
1408 0 83.0923 15.4527 1284 75.0304 1185.93 523.391
1409 0 84.0622 14.0729 1183 77.8783 1185.9 521.061
1410 0 87.1105 14.4414 1258 76.8832 1186.66 519.742
1411 0 91.1547 14.81 1350 75.2215 1187.01 521.247
1412 0 93.1179 14.3259 1334 77.0135 1186.61 516.577
1413 0 96.097 13.7882 1325 77.517 1186.23 516.2
1414 0 98.0448 14.3302 1405 76.548 1186.35 514.144
1415 0 101.159 14.4129 1458 76.2359 1185.33 512.07
1416 1 51.1655 11.453 586 77.9266 1185.69 538.268
1417 0 54.1438 14.0552 761 74.4534 1185.89 535.079
1418 0 55.0829 11.7641 648 77.8503 1186.14 533.943
1419 0 57.0668 13.6507 779 75.9127 1186.5 533.169
1420 0 61.0431 13.0072 794 75.5756 1186.8 532.118
1421 0 62.075 13.2259 821 75.8404 1187.28 530.598
1422 0 64.1238 13.9106 892 75.1457 1187.51 529.914
1423 0 64.0864 12.2803 787 77.9288 1186.85 528.45
1424 0 66.1761 13.1014 867 76.8062 1186.54 527.263
1425 0 67.1158 12.6647 850 77.6188 1186.7 525.945
1426 0 71.2865 12.7093 906 76.9238 1187.02 526.89
1427 0 75.0379 13.7797 1034 75.6692 1187.89 527.176
1428 0 77.1177 14.5751 1124 74.5285 1186.67 524.668
1429 0 78.1045 13.5972 1062 76.4727 1186.34 523.272
1430 0 81.096 14.6493 1188 74.8889 1186.79 522.045
1431 0 85.0476 15.1445 1288 73.6537 1186.21 520.946
1432 0 86.0337 15.4707 1331 74.3351 1186.17 516.985
1433 0 91.1736 14.6534 1336 74.7897 1186.51 517.469
1434 0 93.0664 15.1827 1413 74.3213 1186.42 515.09
1435 1 49.0339 11.7674 577 77.5269 1186.45 538.054
1436 0 51.0935 13.1132 670 76.2179 1186.73 534.793
1437 0 51.0999 12.0352 615 77.4569 1186.39 536.439
1438 0 54.0457 13.0075 703 75.7752 1186.03 534.927
1439 0 55.1767 12.2334 675 76.2341 1185.78 536.311
1440 0 55.0244 12.8125 705 77.0369 1185.09 532.509
1441 0 58.0672 11.5039 668 78.3728 1185.56 533.94
1442 0 60.0586 14.9188 896 73.7489 1186.19 529.73
1443 0 64.0762 13.7024 878 74.1856 1185.72 531.091
1444 0 66.1487 13.8174 914 74.1368 1185.45 529.22
1445 0 67.1172 13.8564 930 74.2591 1186.71 528.111
1446 0 70.0294 13.9227 975 74.0277 1186.62 528.169
1447 0 73.1124 14.4572 1057 72.9527 1186.62 526.991
1448 0 75.049 14.8436 1114 72.8654 1185.89 525.013
1449 0 76.0589 12.7533 970 76.0938 1186.33 524.091
1450 0 80.1359 14.151 1134 73.8898 1186.44 524.469
1451 0 81.102 12.7001 1030 76.5029 1186.18 522.418
1452 0 87.0844 14.0209 1221 73.7486 1186.08 520.648
1453 1 43.0245 12.2953 529 74.4669 1186.52 540.391
1454 0 44.0815 11.8871 524 74.7309 1185.32 539.876
1455 0 47.1089 13.5006 636 71.9591 1185.21 539.461
1456 0 48.0822 13.4353 646 72.0108 1185.44 537.779
1457 0 48.0564 13.1928 634 72.7082 1186.35 537.497
1458 0 50.065 13.2827 665 72.2602 1185.94 535.75
1459 0 53.0372 14.1599 751 70.3462 1185.22 535.097
1460 0 53.0754 13.3772 710 72.1775 1185.82 534.634
1461 0 53.1083 12.8229 681 73.3921 1185.53 534.847
1462 0 57.1111 13.5525 774 71.6537 1186.17 533.185
1463 0 58.0552 13.8833 806 72.0633 1185.77 532.216
1464 0 61.0406 12.3852 756 73.168 1186.34 532.746
1465 0 64.0761 13.9678 895 71.0246 1186.12 531.089
1466 0 64.1214 13.4588 863 71.3314 1185.88 531.217
1467 0 67.199 12.7532 857 72.4131 1185.53 528.869
1468 0 69.0784 14.0275 969 70.613 1185.64 528.088
1469 0 68.1106 12.098 824 74.3131 1185.87 525.323
1470 0 74.0377 13.3986 992 71.7046 1185.66 523.755
1471 0 76.088 13.261 1009 72.0892 1186.03 524.749
1472 0 77.1327 12.4331 959 73.9718 1186.61 523.251
1473 0 80.0614 12.9651 1038 73.1002 1185.51 520.724
1474 0 84.0616 11.896 1000 74.895 1185.71 519.063
1475 0 87.0633 15.1844 1322 69.7413 1185.44 516.884
1476 1 45.014 11.8852 535 71.8692 1185.31 538.6
1477 0 47.1785 12.0182 567 70.4427 1185.47 539.968
1478 0 47.0572 12.3042 579 72.1313 1185.73 535.889
1479 0 48.068 12.7736 614 71.3974 1186.68 536.368
1480 0 50.0189 12.5353 627 71.0351 1185.71 537.864
1481 0 52.0276 11.9936 624 72.1314 1185.24 535.46
1482 0 54.0719 12.7238 688 70.2515 1185.23 533.689
1483 0 56.0524 13.1841 739 69.8999 1185.22 532.555
1484 0 58.0699 12.7433 740 69.3878 1185.43 533.807
1485 0 59.1023 12.5545 742 69.9003 1185.53 532.472
1486 0 61.0261 11.8802 725 71.2234 1185.71 530.945
1487 0 65.0704 13.0782 851 68.9988 1185.04 527.148
1488 0 68.0781 14.7918 1007 65.9563 1185.76 528.335
1489 0 70.0825 12.3283 864 70.0394 1185.81 525.286
1490 0 70.0702 14.0573 985 68.2162 1185.63 524.115
1491 0 74.0908 12.8491 952 69.5399 1185.5 522.676
1492 0 77.042 14.6544 1129 66.8583 1185.21 521.024
1493 0 79.0411 13.9548 1103 67.0988 1185.17 522.146
1494 0 79.1543 12.1661 963 70.6895 1185.31 517.974
1495 0 81.0949 12.1463 985 70.6193 1185.11 518.34
1496 0 85.1824 14.2987 1218 67.72 1183.93 513.771
1497 0 85.1824 14.2518 1214 141.807 1182.94 513.707
1498 1 44.0363 11.5813 510 69.6451 1184.09 535.574
1499 0 43.0427 12.5225 539 69.5436 1185.35 535.579
1500 0 48.0257 13.2013 634 66.7555 1185.36 535.634
1501 0 48.0369 13.2815 638 67.6238 1185.3 534.243
1502 0 50.0468 12.6282 632 69.932 1184.97 532.4
1503 0 53.1788 13.8965 739 66.364 1185.21 531.294
1504 0 53.0378 12.5005 663 69.2549 1184.73 530.831
1505 0 53.1429 11.8736 631 69.8526 1184.7 530.017
1506 0 56.0793 13.5701 761 67.6886 1183.93 527.934
1507 0 58.063 12.4692 724 68.7735 1184.36 527.128
1508 0 60.0478 13.1895 792 67.9217 1185.01 526.518
1509 0 60.0606 13.1201 788 68.2221 1185.63 527.018
1510 0 63.1856 13.3416 843 67.7212 1185.23 525.39
1511 0 63.1119 13.3255 841 67.786 1185.58 526.615
1512 0 67.1006 14.2175 954 66.8092 1185.83 522.62
1513 0 68.1416 14.9542 1019 65.6477 1185.44 522.824
1514 0 70.0949 13.8812 973 67.147 1185.53 522.144
1515 0 74.0618 14.1639 1049 66.8704 1185.36 519.878
1516 0 75.0775 14.545 1092 66.6804 1185.82 521.647
1517 0 80.1477 13.9617 1119 67.1868 1185.75 519.96
1518 0 82.1715 13.8004 1134 67.9541 1184.93 517.436
1519 0 83.1398 16.7308 1391 64.8843 1185.06 514.843
1520 0 85.1629 14.4899 1234 68.0835 1184.31 512.88
1521 1 42.0626 12.838 540 70.1093 1185.03 535.28
1522 0 41.0825 11.1483 458 73.655 1184.73 534.712
1523 0 44.0503 13.9386 614 69.2785 1184.35 534.392
1524 0 45.0551 11.8965 536 73.3974 1185.08 534.032
1525 0 45.0267 13.5919 612 71.3497 1185.53 533.614
1526 0 48.184 13.7805 664 69.9864 1185.33 533.684
1527 0 50.1597 12.9985 652 70.9678 1186.35 533.796
1528 0 51.0567 15.1204 772 68.6153 1186.04 531.417
1529 0 51.0794 14.9767 765 69.3242 1185.22 531.661
1530 0 54.1193 13.7659 745 70.9047 1184.71 530.272
1531 0 55.1017 13.8653 764 70.7814 1184.93 529.982
1532 0 58.1476 15.0823 877 68.7879 1185.71 527.287
1533 0 59.0476 14.2766 843 69.624 1185.35 528.565
1534 0 60.0836 15.9278 957 67.464 1185.32 528.776
1535 0 61.1048 13.6159 832 71.1094 1185.2 527.014
1536 0 65.0969 14.1328 920 69.7087 1186.09 527.229
1537 0 64.0986 13.5884 871 71.5798 1186.07 526.553
1538 0 68.0808 13.6309 928 71.1562 1186.05 525.085
1539 0 71.1111 14.7375 1048 69.0048 1185.91 525.977
1540 0 74.0802 14.7138 1090 69.5459 1185.5 521.761
1541 0 77.1277 15.429 1190 67.4387 1185.02 522.485
1542 0 79.0884 14.8568 1175 69.3574 1185.18 519.832
1543 0 83.1016 15.6074 1297 68.3346 1185.16 519.116
1544 0 84.099 15.2083 1279 69.8913 1184.61 518.507
1545 0 87.1076 15.4292 1344 68.7277 1185.13 516.862
1546 1 46.0423 13.6396 628 72.5987 1186.04 535.973
1547 0 46.0227 14.4059 663 72.5596 1185.29 535.917
1548 0 49.0699 15.8549 778 69.9177 1185.15 533.909
1549 0 48.0198 13.1821 633 75.3033 1185.83 534.07
1550 0 51.0403 15.9874 816 70.4473 1185.18 532.569
1551 0 53.0323 15.8205 839 69.9321 1184.79 533.994
1552 0 55.0289 15.6827 863 70.4032 1184.75 532.828
1553 0 55.082 13.7976 760 73.2 1185.47 534.238
1554 0 58.033 15.6807 910 69.9736 1185.57 532.757
1555 0 59.097 14.8908 880 71.6409 1184.72 531.499
1556 0 62.1736 15.8106 983 69.3225 1184.89 531.261
1557 0 62.0536 15.1321 939 70.7977 1184.34 530.202
1558 0 62.0961 14.4937 900 71.5044 1183.94 529.269
1559 0 68.1581 16.3737 1116 68.3002 1185.1 527.664
1560 0 69.0763 15.7362 1087 69.5685 1185.7 525.96
1561 0 71.1458 14.2665 1015 71.7103 1185.39 525.034
1562 0 73.0789 15.5722 1138 70.0958 1185.46 523.238
1563 0 77.0651 15.3636 1184 69.8378 1185.22 521.804
1564 0 79.0804 16.6666 1318 68.4863 1185.57 519.84
1565 0 82.0828 17.1778 1410 67.3021 1185.08 521.819
1566 0 82.1236 14.1129 1159 72.2252 1184.83 521.638
1567 1 44.0504 14.5061 639 70.7997 1184.62 538.582
1568 0 42.0211 13.1839 554 74.3971 1184.9 537.664
1569 0 43.0691 13.7686 593 74.4958 1185.09 535.739
1570 0 47.0417 14.3064 673 72.2927 1185.16 535.96
1571 0 48.0225 14.5557 699 72.3848 1184.92 534.951
1572 0 50.1053 15.6471 784 70.5 1185.37 534.066
1573 0 52.0624 14.7323 767 71.8592 1185.06 533.525
1574 0 54.0689 15.3138 828 71.0604 1184.71 532.196
1575 0 57.1274 14.9666 855 70.4398 1183.99 531.022
1576 0 59.1466 13.5933 804 71.6978 1184.33 531.932
1577 0 60.0329 14.4421 867 71.2076 1184.36 530.592
1578 0 62.0866 14.7858 918 70.4575 1184.56 529.427
1579 0 61.0544 11.9074 727 75.6644 1185.01 528.468
1580 0 63.0922 12.2836 775 75.2877 1184.16 525.094
1581 0 67.0964 14.0991 946 72.0951 1184.35 526.153
1582 0 70.2091 13.474 946 72.8573 1184.93 524.289
1583 0 75.1047 15.7647 1184 69.1309 1184.33 523.539
1584 0 76.161 16.6096 1265 68.1549 1184.26 523.451
1585 0 79.2913 15.0962 1197 70.198 1185.07 520.292
1586 0 83.0961 16.3546 1359 68.0728 1185.55 518.573
1587 0 85.1288 15.964 1359 68.543 1184.91 518.795
1588 0 88.2481 16.0004 1412 68.3775 1184.45 518.11
1589 0 92.1823 15.2307 1404 69.5385 1184.25 515.07
1590 1 43.1142 13.6846 590 70.5576 1183.85 538.127
1591 0 45.0969 15.7882 712 68.3708 1184.64 537.209
1592 0 45.1114 13.3447 602 71.7159 1184.38 536.644
1593 0 45.1582 13.6188 615 71.9772 1184.67 535.686
1594 0 47.1288 14.2376 671 70.9031 1184.7 535.322
1595 0 49.0818 14.0989 692 70.7225 1185.01 534.286
1596 0 52.079 15.5917 812 68.6133 1184.68 533.787
1597 0 53.1128 15.0623 800 68.9675 1184.44 534.874
1598 0 57.1186 15.4415 882 67.6156 1184.24 534.084
1599 0 56.0691 14.7675 828 70.0085 1183.65 532.353
1600 0 58.1246 14.5722 847 69.8264 1183.59 533.6
1601 0 64.0715 17.4492 1118 65.0018 1184.6 531.58
1602 0 62.1519 14.4807 900 71.15 1183.1 529.036
1603 0 66.3268 14.8206 983 69.6338 1184.3 528.954
1604 0 68.1669 15.9608 1088 68.239 1183.96 528.306
1605 0 71.1228 16.0708 1143 68.776 1184.14 526.972
1606 0 71.3085 14.5705 1039 71.9625 1184.61 524.198
1607 0 75.1783 14.153 1064 72.3393 1184.37 525.163
1608 0 78.1086 15.4912 1210 70.0769 1183.96 523.571
1609 0 79.1218 14.4082 1140 72.6877 1184.85 523.049
1610 0 83.1789 14.8114 1232 71.6599 1184.39 520.382
1611 0 84.1949 14.9653 1260 72.081 1184.05 517.237
1612 0 88.1318 15.3407 1352 71.0688 1184.51 518.252
1613 1 40.0608 13.6043 545 74.4422 1184.55 539.418
1614 0 41.0759 13.6577 561 72.9768 1184.58 539.724
1615 0 43.1207 13.126 566 73.9788 1184.8 539.226
1616 0 44.237 13.7215 607 74.0774 1183.66 536.736
1617 0 46.1807 14.0318 648 72.7531 1184.25 538.546
1618 0 49.0489 14.3122 702 72.386 1184.55 537.393
1619 0 49.0348 13.9289 683 73.5886 1184.79 536.614
1620 0 51.0255 14.0322 716 73.2793 1185.21 535.804
1621 0 52.0569 14.926 777 72.4839 1184.25 533.225
1622 0 55.0416 15.0795 830 71.8964 1184.35 534.517
1623 0 56.2587 15.3754 865 71.6717 1184.08 533.268
1624 0 59.171 15.0919 893 71.3583 1184.53 532.159
1625 0 60.1078 14.7735 888 73.0011 1184.75 530.452
1626 0 62.0683 15.1285 939 72.1949 1185.36 531.913
1627 0 63.0535 15.6375 986 72.3286 1185.48 528.979
1628 0 64.0521 16.0338 1027 71.9825 1185.43 530.357
1629 0 67.1511 15.4875 1040 73.374 1185.23 527.109
1630 0 68.1407 15.2332 1038 73.3439 1184.51 528.918
1631 0 72.111 15.6287 1127 72.9938 1184.51 525.704
1632 0 73.271 15.6815 1149 73.0209 1184.9 526.484
1633 0 74.0568 14.3403 1062 75.1977 1184.3 524.995
1634 0 80.0996 16.2548 1302 71.1137 1184.79 524.96
1635 0 80.1567 15.4822 1241 73.2901 1184.74 521.33
1636 0 83.1955 15.2532 1269 73.1277 1184.55 522.261
1637 0 84.1394 13.7866 1160 76.0526 1184.83 519.943
1638 0 89.1618 16.9916 1515 70.971 1184.52 517.777
1639 0 91.0794 14.8552 1353 73.8463 1184.76 518.897
1640 1 46.0598 13.7213 632 74.2927 1185.21 538.082
1641 0 46.0792 12.7606 588 75.9609 1185.23 537.083
1642 0 50.1102 14.1887 711 72.5471 1185.13 537.47
1643 0 50.1236 14.8632 745 72.651 1184.39 537.007
1644 0 49.0767 13.0204 639 76.4773 1185.03 534.088
1645 0 53.1186 14.1758 753 73.6467 1185.19 535.701
1646 0 55.1011 14.1195 778 73.3882 1185.02 534.715
1647 0 57.1391 13.6859 782 74.0627 1184.59 533.992
1648 0 59.1041 13.1801 779 75.0064 1185.44 532.246
1649 0 62.1076 14.2495 885 73.4373 1184.95 529.539
1650 0 64.069 14.5936 935 73.3829 1185.49 529.218
1651 0 67.108 14.4841 972 72.0021 1184.81 530.537
1652 0 69.2026 13.829 957 74.0125 1184.75 527.45
1653 0 71.1434 14.4778 1030 73.4602 1184.6 527.505
1654 0 73.1439 14.3553 1050 73.4838 1184.66 527.441
1655 0 76.2091 14.6046 1113 73.575 1184.28 524.695
1656 0 78.2999 13.2567 1038 75.9133 1184.98 524.721
1657 0 80.0775 13.8241 1107 75.4173 1185.13 522.496
1658 0 82.1206 15.1728 1246 74.0738 1185.07 520.803
1659 1 42.1464 12.504 527 72.1385 1184.62 541.281
1660 0 41.1339 11.1344 458 75.6485 1184.57 541.432
1661 0 44.0343 13.6485 601 71.183 1184.37 540.027
1662 0 45.0926 12.9511 584 71.9435 1184.15 540.014
1663 0 45.0889 11.932 538 73.7193 1184.77 539.256
1664 0 49.0366 12.9291 634 71.5647 1184.4 539.784
1665 0 47.0406 12.925 608 72.3059 1184.97 538.11
1666 0 49.0129 12.5681 616 73.8701 1185.15 536.534
1667 0 52.0586 12.5436 653 72.853 1184.8 537.32
1668 0 53.08 13.4891 716 72.5126 1185.74 535.162
1669 0 53.0708 12.4927 663 74.0272 1185.15 535.576
1670 0 56.0506 12.9526 726 72.8209 1185.19 534.398
1671 0 57.1722 11.3692 650 75.6508 1185.09 532.363
1672 0 59.1003 13.604 804 72.2512 1184.57 533.206
1673 0 61.0498 12.8584 785 73.4586 1184.96 532.722
1674 0 63.129 13.7971 871 72.9277 1185.23 530.158
1675 0 64.0761 13.2343 848 73.862 1185.31 532.691
1676 0 67.0646 13.569 910 73.8396 1184.59 529.766
1677 0 69.0993 12.1564 840 75.5845 1185.23 529.542
1678 0 72.0459 14.1715 1021 72.7728 1185.36 526.705
1679 0 75.0887 13.3309 1001 74.4156 1185.62 527.315
1680 0 76.1901 13.4007 1021 75.1832 1184.46 523.393
1681 1 39.0965 12.3285 482 73.4066 1183.93 542.01
1682 0 39.0809 12.0007 469 74.4456 1183.97 542.661
1683 0 42.0911 11.9028 501 74.6188 1184.59 542.088
1684 0 43.0709 13.025 561 73.779 1184.67 540.292
1685 0 43.0288 14.2695 614 72.329 1183.93 538.625
1686 0 45.031 12.3248 555 74.1117 1184.17 539.207
1687 0 47.0353 11.991 564 75.3085 1184.69 539.206
1688 0 47.0415 11.7343 552 75.2808 1184.22 539.348
1689 0 49.034 13.8475 679 70.9499 1184.62 539.602
1690 0 49.0484 12.8241 629 74.9014 1184.28 537.429
1691 0 53.0665 12.588 668 75.012 1184.28 535.594
1692 0 55.0803 12.4364 685 74.5591 1184.24 535.364
1693 0 56.0862 13.1405 737 73.3501 1184.82 535.711
1694 0 58.1084 11.8227 687 75.738 1184.16 534.31
1695 0 59.0671 12.2234 722 75.2756 1184.38 534.158
1696 0 61.122 13.4649 823 74.1203 1184.32 530.268
1697 0 63.0569 12.8455 810 76.2099 1184.21 528.612
1698 0 67.203 13.4518 904 74.8949 1183.51 528.142
1699 0 68.1455 13.6766 932 74.3509 1183.97 528.269
1700 0 71.0783 14.8006 1052 73.1008 1185.16 527.064
1701 0 72.108 14.5476 1049 74.2784 1184.45 527.172
1702 0 73.0635 13.3993 979 77.6762 1185.17 524.424
1703 0 77.1019 12.8142 988 77.8704 1184.6 525.579
1704 1 40.0765 11.7775 472 78.125 1184.35 541.862
1705 0 41.0716 11.9304 490 77.6367 1184.52 542.018
1706 0 44.2358 11.19 495 78.1495 1184.15 542.285
1707 0 45.0756 12.3792 558 77.6505 1184.64 540.568
1708 0 46.0957 13.5371 624 76.7965 1184.5 536.173
1709 0 48.0314 12.2628 589 77.4346 1183.74 537.652
1710 0 49.0538 12.3334 605 78.9851 1184.16 536.015
1711 0 51.1566 12.6474 647 77.0958 1184.42 536.981
1712 0 51.079 14.9964 766 56.6788 1183.89 539.151
1713 0 54.1497 13.0379 706 77.1629 1183.86 533.395
1714 0 55.1185 13.8248 762 76.647 1184.17 531.571
1715 0 58.034 13.1992 766 76.5796 1184.04 532.161
1716 0 58.0568 11.8849 690 80.1406 1184.07 530.91
1717 0 60.0941 13.5288 813 76.6876 1184.66 531.902
1718 0 62.1542 12.9034 802 78.1658 1183.85 528.925
1719 0 63.0439 12.293 775 78.6658 1184.02 530.483
1720 0 64.0757 12.3136 789 79.8074 1184.28 526.997
1721 0 67.0727 12.7623 856 77.9077 1183.35 527.878
1722 0 71.2082 13.8186 984 76.0874 1183.81 524.534
1723 0 72.1035 12.2879 886 78.3668 1183.87 526.431
1724 0 76.1064 13.6651 1040 75.9365 1183.84 524.283
1725 0 77.0852 12.6743 977 78.0235 1183.25 522.044
1726 0 79.1398 12.1557 962 79.2796 1183.95 519.715
1727 1 41.0374 9.72284 399 80.9524 1184.15 539.318
1728 0 43.0416 10.5015 452 79.3761 1184.68 539.398
1729 0 44.0261 11.7885 519 78.054 1184.43 537.592
1730 0 43.0584 11.1709 481 79.499 1185.27 538.443
1731 0 44.1058 11.2003 494 79.579 1185.39 537.538
1732 0 49.26 12.2615 604 76.4603 1185.36 534.906
1733 0 49.1831 12.4026 610 75.8656 1184.91 535.041
1734 0 51.0556 13.7693 703 73.6871 1184.58 534.97
1735 0 52.0707 11.9645 623 75.984 1185.1 534.576
1736 0 55.0635 12.6944 699 74.7983 1184.26 531.658
1737 0 56.1128 12.4392 698 74.3224 1184.2 534.554
1738 0 56.173 11.251 632 76.7089 1184.25 531.253
1739 0 58.1494 12.3303 717 73.8926 1184.64 530.692
1740 0 60.1283 14.02 843 71.9561 1184.53 527.856
1741 0 62.1719 12.5298 779 73.7741 1184.73 529.05
1742 0 63.0702 12.0501 760 74.4618 1185.22 527.516
1743 0 66.147 12.9862 859 71.8824 1184.99 528.268
1744 0 66.3597 11.3623 754 75.4244 1185.19 525.942
1745 0 69.1254 12.3833 856 73.007 1185.49 525.404
1746 0 73.17 14.6782 1074 69.2737 1184.7 523.826
1747 0 76.0782 13.3941 1019 70.7547 1184.21 522.057
1748 0 76.0932 12.6424 962 72.184 1184.69 519.594
1749 0 80.0848 11.8125 946 72.8383 1184.26 520.282
1750 0 82.1054 13.2147 1085 70.6433 1184.16 518.585
1751 0 85.1104 12.3487 1051 71.6432 1184.67 517.109
1752 0 89.1466 13.5059 1204 69.8787 1185.15 515.963
1753 1 45.042 10.2127 460 71.3413 1185.85 539.511
1754 0 46.1487 10.0328 463 72.2916 1185.76 535.842
1755 0 46.066 11.4835 529 70.7505 1185.49 535.522
1756 0 48.0363 12.4697 599 69.0401 1185.09 534.606
1757 0 48.0053 10.3322 496 72.3891 1184.39 534.585
1758 0 52.0391 10.1846 530 71.3849 1184.32 533.089
1759 0 53.0605 12.8533 682 67.761 1184.08 533.526
1760 0 54.0722 13.0936 708 67.9972 1184.37 530.63
1761 0 57.1045 12.1181 692 68.6416 1184.99 531.994
1762 0 57.244 13.1892 755 68.1735 1184.58 528.564
1763 0 60.0976 14.5763 876 64.9269 1184.93 531.394
1764 0 60.0645 12.7363 765 68.7346 1184.67 528.897
1765 0 63.0637 12.4319 784 69.065 1184.64 527.653
1766 0 65.1002 12.6267 822 69.0535 1184.49 526.27
1767 0 65.1349 13.6025 886 68.5271 1184.3 524.055
1768 0 68.1683 14.0828 960 66.725 1184.07 526.517
1769 0 69.1692 12.8381 888 69.2196 1185.18 524.718
1770 0 71.1184 12.3316 877 70.4367 1184.41 523.002
1771 0 73.1349 12.6205 923 70.3315 1184.26 522.477
1772 0 78.0842 13.1909 1030 69.1709 1183.85 521.039
1773 0 80.099 13.4833 1080 69.3611 1183.43 517.306
1774 0 81.048 12.9306 1048 70.1708 1183.86 519.692
1775 0 84.1097 12.7809 1075 70.4316 1184.28 519.329
1776 0 85.0695 13.3891 1139 71.0167 1184.56 514.731
1777 1 44.1235 9.90401 437 73.1556 1185.22 535.902
1778 0 44.0819 11.0476 487 71.2074 1184.31 536.897
1779 0 45.0291 11.0373 497 72.1992 1184.49 537.042
1780 0 47.0214 11.8669 558 70.7599 1185.13 536.423
1781 0 45.1001 10.7539 485 74.4515 1185.04 535.538
1782 0 50.0868 12.2986 616 70.4367 1184.93 532.924
1783 0 53.0938 12.0353 639 70.3787 1184.4 534.016
1784 0 53.0318 12.7094 674 69.8828 1184.56 532.573
1785 0 55.0773 12.1466 669 70.5889 1185.36 532.628
1786 0 56.0604 12.2725 688 71.0233 1184.93 531.836
1787 0 57.0557 12.8822 735 70.6422 1185.02 530
1788 0 59.1212 12.4659 737 70.8222 1185.3 528.365
1789 0 60.1176 11.4609 689 71.6517 1185.31 529.634
1790 0 64.0993 12.7459 817 68.7307 1184.63 527.71
1791 0 64.0984 11.9816 768 70.6914 1184.49 525.816
1792 0 67.0819 12.5965 845 70.1396 1184.39 524.022
1793 0 70.1844 12.7521 895 68.6078 1184.25 524.441
1794 0 71.0848 12.6891 902 69.5887 1184.68 522.308
1795 0 73.1558 12.4529 911 70.3249 1185 523.111
1796 1 37.0436 10.5551 391 69.4783 1184.68 540.46
1797 0 39.0905 12.049 471 67.2484 1184.74 540.059
1798 0 39.0298 11.914 465 68.5914 1184.16 537.88
1799 0 41.1147 11.626 478 69.3389 1184.55 536.065
1800 0 43.0476 12.0797 520 68.0808 1184.81 535.335
1801 0 43.0352 12.3852 533 68.6229 1184.92 535.278
1802 0 44.0451 12.3283 543 68.604 1184.53 532.715
1803 0 46.0645 13.1555 606 66.8152 1184.61 533.812
1804 0 47.0252 11.462 539 68.5417 1185.56 534.549
1805 0 48.1429 11.4866 553 68.1049 1185.06 533.45
1806 0 49.0268 10.4841 514 69.2101 1184.66 532.924
1807 0 51.051 12.654 646 65.8421 1184.08 531.105
1808 0 52.0994 11.766 613 66.9641 1184.24 530.902
1809 0 53.0955 12.1667 646 66.9907 1184.65 528.146
1810 0 54.0471 11.786 637 67.4647 1184.68 528.973
1811 0 56.1156 11.1912 628 67.7898 1184.34 527.833
1812 0 59.1166 11.5704 684 67.2719 1184.91 527.7
1813 0 62.1082 11.5766 719 66.7775 1183.96 526.801
1814 0 63.0674 12.0665 761 66.7779 1183.99 525.674
1815 0 64.1342 11.8501 760 67.1303 1184.39 524.446
1816 0 67.0537 12.065 809 66.848 1184.68 521.947
1817 1 37.0574 11.1719 414 66.1981 1184.42 538.321
1818 0 36.0248 11.3255 408 66.0417 1184.6 539.096
1819 0 37.0247 11.992 444 66.9302 1185.03 537.592
1820 0 40.0321 11.5407 462 66.7229 1184.03 536.201
1821 0 41.0258 10.9687 450 67.6133 1183.41 536.029
1822 0 42.0171 12.3521 519 65.7418 1184.3 536.94
1823 0 43.0587 11.1243 479 67.4134 1184.43 535.453
1824 0 43.057 11.5196 496 68.5141 1184.83 534.004
1825 0 46.0634 11.4408 527 68.3397 1184.73 533.455
1826 0 49.1363 12.8418 631 65.9002 1184.53 532.726
1827 0 49.0511 11.6409 571 68.2925 1184.29 531.804
1828 0 50.0453 12.4088 621 67.6731 1184.97 529.625
1829 0 53.0791 12.3024 653 67.755 1184.2 530.533
1830 0 55.0972 12.9771 715 66.6462 1184.19 530.211
1831 0 54.0754 11.5209 623 69.2472 1184.63 529.632
1832 0 58.0757 12.6215 733 67.3015 1185.2 529.853
1833 0 58.1655 10.9343 636 70.4418 1184.5 528.028
1834 0 62.0931 12.7228 790 67.6266 1184.1 525.667
1835 0 63.1476 11.9878 757 68.218 1183.73 526.367
1836 0 65.0448 12.3146 801 68.201 1183.81 524.476
1837 0 67.1554 13.1188 881 66.933 1183.58 522.369
1838 0 69.1072 12.5891 870 67.9609 1184.71 522.838
1839 0 73.052 12.2105 892 68.2366 1184.29 522.252
1840 0 77.1734 13.4373 1037 65.5275 1183.56 521.779
1841 1 41.0511 10.5235 432 68.8681 1183.4 537.725
1842 0 42.0429 11.1553 469 66.8785 1183.49 538.774
1843 0 45.12 11.3918 514 66.535 1182.81 538.29
1844 0 45.0524 11.7197 528 67.1061 1182.68 536.117
1845 0 46.0532 11.769 542 66.8358 1183.46 536.282
1846 0 50.0881 11.6994 586 65.9744 1183.99 535.155
1847 0 48.0554 11.674 561 67.7558 1183.62 532.365
1848 0 50.0296 11.893 595 67.1244 1182.65 532.945
1849 0 51.0152 12.9569 661 65.9107 1182.73 531.222
1850 0 53.0633 14.4544 767 63.6284 1184 529.669
1851 0 57.0791 13.3674 763 63.9987 1184.08 530.925
1852 0 60.0328 12.9096 775 64.3239 1183.64 528.704
1853 0 60.1118 14.0072 842 63.5641 1183.38 527.555
1854 0 59.0839 12.4399 735 66.098 1183.93 527.158
1855 0 62.0683 11.5196 715 66.551 1183.34 525.72
1856 0 64.0681 11.7219 751 66.0772 1183.01 526.27
1857 0 64.129 11.9447 766 66.4504 1182.53 525.402
1858 0 67.1453 12.4804 838 65.494 1182.93 523.277
1859 0 68.2345 13.395 914 64.0525 1183.47 522.833
1860 0 70.1543 11.6172 815 66.6577 1183.7 521.271
1861 0 71.1023 12.6578 900 65.3333 1183.18 521.067
1862 0 75.249 12.5051 941 65.237 1183.22 519.068
1863 0 79.1531 12.6085 998 65.5301 1183.87 516.955
1864 0 80.1383 12.1166 971 66.4552 1184.33 514.979
1865 1 42.0415 10.7275 451 67.3215 1184.59 536.472
1866 0 43.1359 11.8231 510 66.3706 1184.51 534.012
1867 0 45.0331 11.6137 523 66.7055 1183.58 531.612
1868 0 48.1173 10.8277 521 66.8464 1183.45 533.405
1869 0 50.0703 13.2014 661 63.5658 1183.6 532.398
1870 0 51.0285 12.1501 620 66.4823 1184.27 531.847
1871 0 52.034 11.4925 598 67.403 1183.76 530.115
1872 0 52.0944 12.5349 653 66.7887 1183.12 529.9
1873 0 57.0601 13.0739 746 65.0375 1183.62 529.53
1874 0 57.1183 11.9576 683 67.2299 1183.78 529.508
1875 0 58.0539 11.4893 667 68.6342 1183.88 526.424
1876 0 63.0605 13.0351 822 65.7165 1183.98 526.465
1877 0 64.1546 13.2648 851 64.9177 1183.58 526.126
1878 0 65.1344 12.8657 838 66.8747 1183.77 524.927
1879 0 67.1601 14.7707 992 63.7167 1183.47 525.197
1880 0 69.1786 14.0072 969 65.6233 1183.92 523.481
1881 0 72.088 13.0119 938 66.0075 1183.74 524.948
1882 0 75.1543 14.1176 1061 65.1876 1183.97 520.168
1883 0 78.1783 14.1088 1103 64.5403 1184.03 522.316
1884 0 80.1414 13.7008 1098 65.8361 1184.02 518.072
1885 0 83.2083 12.4146 1033 67.3388 1183.23 517.708
1886 0 87.2343 16.0373 1399 62.0815 1183 518.263
1887 0 90.181 14.4709 1305 64.5349 1182.95 517.182
1888 0 92.1549 13.4339 1238 66.9152 1183.12 514.249
1889 1 45.0326 11.4362 515 67.8116 1183.88 536.167
1890 0 46.0469 13.1171 604 66.5298 1184.53 534.389
1891 0 46.1052 12.9487 597 67.2496 1183.95 535.015
1892 0 49.1519 13.0615 642 67.0872 1183.42 534.36
1893 0 51.062 13.043 666 66.8844 1184.16 534.014
1894 0 52.0293 13.5501 705 68.1035 1184.46 532.467
1895 0 54.1055 12.8083 693 69.3896 1184.36 531.586
1896 0 55.1059 12.7754 704 69.2429 1184.42 530.814
1897 0 55.0486 12.9703 714 69.5952 1184.7 529.088
1898 0 58.1076 13.0448 758 69.7599 1184.41 526.978
1899 0 58.0529 12.7298 739 70.134 1184.68 529.374
1900 0 60.1776 12.6625 762 71.2441 1185.11 527.171
1901 0 63.042 14.1334 891 68.9248 1185.32 526.784
1902 0 65.2324 13.5669 885 69.7525 1184.85 524.652
1903 0 67.1714 14.2322 956 68.8274 1184.3 525.324
1904 0 67.0973 12.8321 861 71.4332 1183.82 524.055
1905 0 71.2204 15.5433 1107 67.1518 1183.75 523.675
1906 0 73.1501 14.0533 1028 70.0876 1184.58 520.326
1907 0 75.1196 13.818 1038 70.6696 1184.21 519.628
1908 0 77.1232 13.6275 1051 70.7973 1184.08 520.249
1909 0 79.2518 14.2079 1126 70.0604 1184.59 519.911
1910 0 82.1912 13.6754 1124 71.2687 1184.36 517.145
1911 0 83.2777 13.6651 1138 71.6169 1184.76 517.032
1912 0 88.1044 14.9936 1321 69.3838 1184.81 514.431
1913 1 46.0751 12.0238 554 72.5758 1183.97 534.282
1914 0 47.0256 11.3555 534 74.5075 1184.25 533.481
1915 0 51.04 13.4404 686 70.5117 1184.88 533.131
1916 0 50.0795 13.0992 656 71.6784 1184.95 533.2
1917 0 52.097 13.7436 716 70.0726 1184.37 533.642
1918 0 54.1131 12.8989 698 71.7736 1183.94 531.321
1919 0 54.1023 13.0863 708 71.2641 1184.43 531.186
1920 0 58.042 14.6273 849 68.2956 1184.72 529.73
1921 0 59.074 14.8966 880 68.0875 1183.79 529.095
1922 0 61.1835 15.2329 932 67.0397 1183.75 528.363
1923 0 61.0722 14.1472 864 69.1516 1184.21 527.223
1924 0 63.0887 12.9976 820 70.3927 1184 527.179
1925 0 66.153 13.4839 892 69.5404 1184.61 526.15
1926 0 67.164 13.3107 894 69.4743 1184.76 526.643
1927 0 69.2505 12.6353 875 70.9269 1185.51 524.406
1928 0 70.1457 13.643 957 69.5162 1185.56 524.404
1929 0 72.1092 13.0081 938 71.2964 1184.74 520.305
1930 0 77.1876 14.1603 1093 69.0869 1183.51 521.561
1931 0 78.0716 13.0265 1017 70.9784 1183.6 522.081
1932 0 80.09 11.7867 944 71.9936 1183.4 523.109
1933 1 43.0408 11.8492 510 70.2549 1184.63 539.024
1934 0 42.1141 12.9885 547 69.5338 1184.06 539.174
1935 0 44.0468 14.1213 622 68.4132 1184.44 537.979
1936 0 45.0589 13.3381 601 69.6988 1184.26 537.689
1937 0 47.055 13.4523 633 69.7378 1184.38 537.967
1938 0 49.0415 12.6627 621 70.4122 1183.29 538.617
1939 0 49.0433 12.7031 623 71.0482 1183.58 537.987
1940 0 51.0284 13.5219 690 70.1275 1182.72 535.762
1941 0 51.057 13.5143 690 70.742 1182.65 535.214
1942 0 53.0353 12.4068 658 72.196 1182.94 535.913
1943 0 55.1137 13.3542 736 71.2636 1183.2 534.939
1944 0 57.0554 13.8111 788 70.1345 1182.86 535.83
1945 0 59.1895 13.4652 797 70.8294 1182.74 533.241
1946 0 61.0906 13.2099 807 71.4895 1182.58 532.568
1947 0 61.0825 13.7355 839 71.5793 1182.53 530.176
1948 0 63.0354 12.7071 801 72.2447 1181.82 530.062
1949 0 67.0712 13.6273 914 70.768 1181.82 529.754
1950 0 68.1528 13.367 911 71.4852 1181.44 528.563
1951 0 71.0842 14.5461 1034 69.4778 1181.06 524.193
1952 0 73.062 13.5501 990 71.6364 1180.91 524.928
1953 0 74.2421 13.2135 981 73.1386 1181.04 522.274
1954 0 77.0863 12.8557 991 73.5419 1180.86 523.547
1955 0 81.1516 14.8364 1204 70.608 1181.33 521.633
1956 1 42.027 11.445 481 73.1351 1181.51 541.062
1957 0 40.0607 11.2829 452 75.719 1182.02 541.319
1958 0 44.0222 11.9485 526 73.597 1181.72 540.418
1959 0 45.0422 13.01 586 73.273 1182.15 537.899
1960 0 47.0221 13.0364 613 72.1778 1182.2 538.119
1961 0 46.049 11.6398 536 75.2369 1182.13 538.606
1962 0 46.0363 10.7089 493 77.8722 1181.88 535.742
1963 0 50.0691 12.1432 608 74.7368 1181.97 534.664
1964 0 52.0497 12.7186 662 74.3066 1181.84 534.07
1965 0 52.0996 12.5913 656 74.5854 1181.71 533.261
1966 0 54.0522 12.6174 682 74.4868 1183.48 531.606
1967 0 58.0378 14.6629 851 70.208 1183.49 531.744
1968 0 58.0622 12.9344 751 73.8469 1182.91 529.246
1969 0 58.0327 12.2517 711 75.0028 1182.91 529.875
1970 0 61.0923 12.9476 791 73.507 1182.68 529.128
1971 0 62.0867 11.8061 733 75.3165 1183.1 527.678
1972 0 65.0825 14.1974 924 71.0422 1183.27 525.992
1973 0 69.132 12.9462 895 71.7263 1183.25 526.797
1974 0 70.0821 13.8266 969 71.4138 1183.61 524.181
1975 0 74.1044 12.9007 956 71.2071 1183.61 524.497
1976 0 74.0673 11.7731 872 73.578 1183.81 522.617
1977 0 77.1152 13.9661 1077 70.3361 1183.6 520.162
1978 0 79.1969 13.1697 1043 71.2167 1182.73 519.705
1979 0 81.1523 13.4685 1093 71.6322 1182.93 515.54
1980 1 44.0841 12.2493 540 70.6037 1182.85 537.478
1981 0 46.1397 12.1154 559 69.9284 1183.21 537.048
1982 0 45.0251 10.9939 495 71.8505 1183.49 536.974
1983 0 47.0167 10.8685 511 72.5264 1183.95 536.219
1984 0 47.0272 11.504 541 72.7486 1183.72 532.965
1985 0 47.0609 11.4532 539 73.3822 1183.42 533.039
1986 0 52.0213 12.4372 647 70.7017 1183.27 532.59
1987 0 52.0969 12.8606 670 70.7478 1183.49 531.173
1988 0 55.0303 13.5016 743 68.6945 1183.7 529.347
1989 0 56.0553 11.114 623 72.9278 1183.25 528.88
1990 0 57.038 11.8167 674 71.5015 1183.76 529.404
1991 0 60.1249 14.3701 864 68.0046 1183.79 525.064
1992 0 62.0642 12.6804 787 70.7154 1183.49 525.635
1993 0 62.0627 12.5679 780 70.4564 1183.22 526.32
1994 0 65.2069 12.652 825 70.5564 1183.99 523.295
1995 0 69.0946 13.8071 954 68.6457 1184.23 522.879
1996 0 71.1276 13.8483 985 68.6711 1184.34 520.447
1997 0 73.1091 13.0353 953 70.148 1184.65 520.303
1998 1 35.024 10.1359 355 71.8817 1183.86 537.71
1999 0 38.0133 12.1273 461 68.7093 1184.59 537.098
2000 0 40.0492 12.0602 483 68.3706 1184.34 536.739
2001 0 38.0491 9.1198 347 72.585 1184.33 537.182
2002 0 41.0221 11.0428 453 69.7704 1184.56 536.693
2003 0 43.0241 12.4117 534 67.53 1183.35 534.5
2004 0 45.0726 12.0694 544 67.7684 1183.02 533.792
2005 0 45.0125 12.3966 558 68.2957 1183.99 532.661
2006 0 46.0782 12.0665 556 67.7392 1183.83 532.989
2007 0 48.0252 13.0348 626 66.484 1183.5 531.661
2008 0 48.0379 12.5942 605 66.9422 1184.04 531.243
2009 0 49.0753 12.2465 601 67.426 1184.03 532.885
2010 0 52.033 12.4536 648 66.4522 1183.09 530.131
2011 0 53.0686 13.7746 731 65.1094 1183.08 529.654
2012 0 55.2338 11.7863 651 67.2581 1182.83 529.344
2013 0 57.2256 11.8828 680 66.7471 1183.69 528.79
2014 0 58.0196 12.6681 735 65.3265 1182.78 526.569
2015 0 60.0816 12.766 767 64.8214 1183.48 526.666
2016 0 60.0714 10.9703 659 67.9044 1183.72 524.537
2017 0 61.101 13.0276 796 65.2902 1182.77 523.093
2018 0 64.0826 12.0313 771 66.1258 1182.8 523.629
2019 0 68.0611 13.6348 928 63.4138 1183.63 524.655
2020 0 68.1534 13.1321 895 64.8972 1183.45 521.275
2021 0 72.121 12.1047 873 65.8224 1183.56 521.18
2022 0 73.0832 12.0958 884 65.8676 1183.57 521.394
2023 1 39.0978 11.8165 462 65.0866 1183.38 536.617
2024 0 40.0763 9.73144 390 67.1 1183.34 537.808
2025 0 43.0295 10.4579 450 67.6756 1183.82 534.904
2026 0 44.0723 11.5038 507 66.6548 1184.02 536.142
2027 0 45.0584 11.0301 497 68.2575 1182.85 534.98
2028 0 46.0278 10.7761 496 69.0504 1182.33 531.895
2029 0 49.1551 11.657 573 66.7888 1182.19 532.581
2030 0 52.0458 13.3728 696 63.8348 1182.37 532.647
2031 0 53.0624 12.4193 659 65.5524 1183.58 532.225
2032 0 56.1683 13.4774 757 63.9683 1182.84 530.955
2033 0 56.0711 12.3415 692 65.1734 1183.11 532.658
2034 0 57.1043 12.9062 737 65.0081 1183.6 528.659
2035 0 61.1078 12.3552 755 65.2371 1183.07 529.746
2036 0 60.0339 11.9266 716 66.2486 1182.58 527.775
2037 0 61.0506 11.728 716 66.9721 1181.97 527.27
2038 0 60.0904 11.9487 718 67.2646 1182.21 526.102
2039 0 67.1274 14.0479 943 63.0976 1183 524.29
2040 0 66.0838 11.2887 746 67.4222 1183.25 525.491
2041 0 69.2227 13.7527 952 64.1586 1182.58 523.574
2042 0 70.1647 12.0431 845 66.271 1183.12 520.36
2043 0 74.1659 14.2383 1056 62.9962 1182.4 520.71
2044 0 77.1727 13.5151 1043 63.8198 1182.56 517.544
2045 0 81.1013 12.4906 1013 64.9003 1182.3 518.046
2046 0 81.1313 11.6355 944 66.285 1181.64 517.659
2047 0 85.0904 12.5279 1066 65.1013 1182.41 515.385
2048 1 40.0409 10.4393 418 67.8373 1182.16 534.84
2049 0 41.0212 11.2137 460 67.5 1182.68 533.522
2050 0 43.0846 13.6244 587 63.5451 1182.64 535.005
2051 0 45.0398 12.2114 550 65.4618 1183.2 533.32
2052 0 48.0647 14.1268 679 62.3932 1182.24 532.439
2053 0 48.0193 12.2451 588 65.216 1182.22 533.221
2054 0 49.0692 11.657 572 66.201 1182.21 532.804
2055 0 53.0282 12.1445 644 64.5792 1182.19 531.902
2056 0 54.092 13.5325 732 63.515 1182.53 529.447
2057 0 55.0707 12.7654 703 64.5164 1181.73 528.627
2058 0 57.1168 11.2751 644 65.8012 1182.64 529.402
2059 0 57.1096 12.2396 699 65.1931 1181.66 526.754
2060 0 63.067 13.3826 844 64.5687 1181.72 525.887
2061 0 65.2165 13.3555 871 64.9472 1181.17 525.504
2062 0 66.0439 12.0374 795 66.8428 1181.55 524.463
2063 0 68.102 12.6575 862 65.4942 1182.6 524.519
2064 0 69.0534 11.4259 789 67.6084 1181.87 523.496
2065 0 70.0448 11.6211 814 67.5467 1181.94 522.876
2066 0 74.0469 12.5326 928 66.2123 1182.42 517.273
2067 1 37.0046 10.4041 385 65.9403 1183.12 540.506
2068 0 37.055 11.1456 413 66.1114 1181.86 538.637
2069 0 39.0217 9.81505 383 67.7728 1182.23 537.449
2070 0 40.0246 11.0432 442 66.3959 1181.82 537.79
2071 0 40.0321 10.5665 423 67.5083 1181.75 535.56
2072 0 44.0332 11.7411 517 65.4662 1181.87 535.741
2073 0 43.0473 11.5687 498 66.737 1181.45 533.165
2074 0 44.0485 10.7155 472 68.1186 1181.42 533.837
2075 0 44.077 11.5707 510 67.0373 1180.82 532.427
2076 0 47.0231 13.0574 614 63.8844 1181.46 534.376
2077 0 48.019 10.8499 521 66.833 1180.96 532.474
2078 0 51.062 13.0234 665 64.4015 1181.53 530.938
2079 0 50.0282 11.4935 575 66.7322 1181.86 530.36
2080 0 54.0651 12.4295 672 64.9405 1182.15 528.094
2081 0 54.0644 11.6898 632 66.5364 1181.87 526.652
2082 0 55.0335 10.7389 591 67.8866 1182.36 525.719
2083 0 57.1484 11.3739 650 66.8508 1181.97 525.103
2084 0 59.0743 12.2219 722 65.2022 1181.9 527.431
2085 0 62.0518 13.3276 827 64.0133 1182 523.235
2086 0 64.07 12.8765 825 64.6048 1181.92 522.512
2087 0 66.0988 12.8142 847 65.0767 1181.49 520.104
2088 0 68.0474 11.9622 814 65.8182 1181.52 520.412
2089 0 72.0401 13.4092 966 64.0807 1181.62 518.414
2090 0 74.0549 13.3009 985 64.2173 1181.92 517.931
2091 1 39.1027 10.1528 397 66.204 1182.59 534.322
2092 0 42.0296 10.9923 462 64.0693 1181.78 534.768
2093 0 40.0555 9.96117 399 66.406 1182.24 534.852
2094 0 44.0418 11.807 520 62.8962 1182.19 534.815
2095 0 43.0627 11.4717 494 64.7126 1182.7 534.065
2096 0 47.0188 12.5056 588 62.4898 1182.08 533.156
2097 0 48.187 12.0364 580 63.1741 1182.34 531.041
2098 0 50.1738 11.4602 575 63.88 1181.87 530.765
2099 0 50.1564 10.7863 541 65.3179 1182.23 530.179
2100 0 53.1465 12.5502 667 62.2729 1182.28 530.97
2101 0 55.1938 12.2115 674 62.7463 1182.79 528.567
2102 0 54.1067 10.313 558 65.543 1182.65 529.258
2103 0 56.1081 12.1373 681 63.9251 1182.18 526.906
2104 0 60.1669 11.9667 720 63.7458 1181.32 526.065
2105 0 60.1125 11.2788 678 64.9749 1182.2 525.606
2106 0 64.0659 13.8607 888 61.6588 1181.77 523.767
2107 0 64.0956 10.9212 700 65.5229 1183 523.761
2108 0 67.0808 12.3731 830 63.494 1182.9 522.167
2109 0 70.0568 11.0339 773 64.8137 1182.08 523.336
2110 0 70.0711 12.0449 844 63.5024 1182.14 522.197
2111 1 38.1409 10.1466 387 63.5194 1181.96 537.256
2112 0 39.0822 9.62074 376 63.8883 1182.68 536.753
2113 0 40.0933 11.7725 472 61.9555 1181.82 537.182
2114 0 43.123 10.5744 456 63.0088 1181.54 536.741
2115 0 45.1791 10.6244 480 62.9896 1182.26 536.225
2116 0 43.1765 9.79699 423 66.1064 1182.47 535.05
2117 0 44.081 10.1177 446 66.0247 1182.68 535.778
2118 0 48.1782 11.3537 547 64.245 1182.4 534.035
2119 0 47.1172 11.864 559 65.0698 1182.42 531.082
2120 0 50.1272 12.2688 615 63.4081 1182.18 533.915
2121 0 52.1911 12.1093 632 64.0396 1182.76 531.239
2122 0 54.2447 11.0057 597 65.809 1182.73 530.023
2123 0 57.1879 13.8491 792 61.8169 1181.93 529.765
2124 0 58.0921 12.945 752 63.3777 1182.61 530.914
2125 0 56.1367 11.8995 668 66.3114 1181.89 528.293
2126 0 58.1347 10.8197 629 67.124 1182.58 529.811
2127 0 62.118 11.6874 726 65.7865 1182.73 527.445
2128 0 64.1856 12.3548 793 64.8941 1182.74 526.033
2129 0 66.1259 10.843 717 66.8075 1182.59 525.869
2130 0 64.0886 10.4075 667 67.5577 1182.12 525.706
2131 0 71.0689 14.0286 997 62.2838 1183.45 524.783
2132 0 73.0667 11.2226 820 65.9927 1182.22 524.394
2133 0 74.2643 13.8963 1032 62.6899 1182.24 522.553
2134 0 77.199 13.7437 1061 63.1546 1182.84 519.724
2135 1 37.0617 9.68654 359 66.5153 1182.97 537.727
2136 0 39.0058 11.1522 435 65.0667 1183.5 536.929
2137 0 40.0249 10.8183 433 66.1686 1183.17 537.206
2138 0 42.0393 11.3941 479 65.0689 1183.09 536.549
2139 0 44.184 12.0632 533 63.5478 1183.04 536.934
2140 0 44.0211 10.7676 474 65.8165 1182.6 537.418
2141 0 46.0917 12.0195 554 64.5325 1182.44 534.989
2142 0 47.0285 11.4186 537 65.8063 1183.04 535.56
2143 0 47.0468 10.9678 516 66.905 1183.41 533.69
2144 0 48.0926 10.7085 515 67.3592 1183.72 533.377
2145 0 50.0674 12.2036 611 65.3061 1183.29 532.854
2146 0 52.0648 12.6765 660 64.8561 1182.68 530.521
2147 0 53.062 10.8364 575 66.6748 1182.54 532.743
2148 0 56.0538 12.827 719 64.3602 1181.76 530.921
2149 0 59.079 12.8133 757 63.7424 1181.38 529.999
2150 0 56.0302 10.9941 616 67.3718 1182.06 530.093
2151 0 60.1361 12.8209 771 64.3372 1181.82 527.988
2152 0 62.1102 13.1701 818 64.2848 1181.86 527.021
2153 0 65.093 12.0904 787 64.2567 1181.97 530.118
2154 0 66.1001 13.2072 873 64.5017 1182.07 524.567
2155 0 66.1974 11.6017 768 65.8997 1181.95 527.66
2156 0 71.058 13.7493 977 63.4606 1181.94 522.168
2157 0 74.2412 13.2945 987 64.7031 1182.06 521.285
2158 0 74.0499 12.0324 891 66.9046 1181.22 520.378
2159 0 76.2009 13.2807 1012 65.0247 1182.2 522.156
2160 1 40.1068 10.1479 407 67.7617 1182.01 536.656
2161 0 41.065 10.9339 449 67.5234 1181.85 536.187
2162 0 42.0609 10.9127 459 68.2702 1181.77 535.956
2163 0 44.0249 10.1533 447 69.3087 1182.04 536.237
2164 0 46.1696 11.3711 525 67.6438 1182.35 534.638
2165 0 49.0787 12.6328 620 64.9726 1182.36 535.405
2166 0 50.1567 12.9992 652 65.1917 1182.91 534.215
2167 0 51.0446 10.8924 556 68.1151 1182.65 532.687
2168 0 52.0912 10.4816 546 69.0659 1183.13 530.967
2169 0 55.1276 13.0969 722 64.9972 1182.55 531.583
2170 0 56.1216 11.7067 657 67.2359 1181.6 529.225
2171 0 58.1429 12.2457 712 65.75 1181.05 529.952
2172 0 59.0645 10.9372 646 67.709 1181.62 527.805
2173 0 64.2472 14.3508 922 62.9024 1181.53 527.547
2174 0 65.1945 14.3264 934 63.0182 1181.71 527.285
2175 0 67.2705 12.1004 814 65.7568 1181.81 525.876
2176 0 71.262 13.5135 963 63.459 1181.73 523.308
2177 0 72.0996 13.5784 979 63.6496 1181.82 524.569
2178 0 73.0794 13.0269 952 64.5662 1182.51 523.251
2179 0 77.1741 11.947 922 65.3796 1182.29 521.792
2180 0 78.1198 12.4296 971 65.8733 1181.45 517.658
2181 0 82.1151 12.7991 1051 64.5747 1180.84 517.373
2182 0 83.2822 11.5511 962 66.2183 1181.18 513.483
2183 1 47.0169 12.3998 583 61.5712 1182.61 535.942
2184 0 45.0571 10.3868 468 66.0919 1182.05 533.739
2185 0 46.0375 11.7947 543 63.8729 1181.81 533.214
2186 0 49.0323 10.8908 534 64.3745 1181.29 532.869
2187 0 50.0119 11.8372 592 63.2061 1182.01 532.257
2188 0 52.0318 12.3194 641 62.259 1182.66 532.554
2189 0 54.0698 12.7243 688 62.2485 1182.36 527.897
2190 0 53.0571 11.4593 608 64.2418 1183.29 528.324
2191 0 56.0236 11.1025 622 64.717 1183.25 528.9
2192 0 57.0456 10.1498 579 65.9741 1182.47 526.722
2193 0 62.0513 13.8273 858 60.0408 1182.31 527.691
2194 0 63.0672 11.7335 740 62.7743 1182.18 527.132
2195 0 64.1077 11.7147 751 62.3382 1181.73 527.975
2196 0 67.0618 12.1381 814 62.2973 1181.52 523.843
2197 0 67.0303 11.8305 793 63.2358 1182.09 521.849
2198 0 69.0254 12.0101 829 63.2907 1181.8 520.858
2199 0 73.0699 11.9064 870 62.8034 1182.6 520.58
2200 0 75.0406 11.0873 832 62.7536 1182.76 520.976
2201 0 78.1725 12.4213 971 62.4521 1182.34 519.517
2202 0 81.0746 13.6418 1106 61.16 1181.74 517.958
2203 0 81.2159 11.6603 947 63.5903 1181.9 515.952
2204 1 45.1191 11.2369 507 61.7613 1181.76 536.511
2205 0 47.1194 11.0358 520 61.7346 1181.87 536.563
2206 0 48.0677 12.1287 583 60.8027 1180.95 534.448
2207 0 51.1512 11.4758 587 61.1652 1181.96 536.351
2208 0 51.0982 10.7832 551 63.0563 1181.66 535.171
2209 0 52.0952 13.4561 701 59.8031 1181.03 533.024
2210 0 56.0857 11.3576 637 61.7582 1181.11 531.907
2211 0 55.1464 11.3879 628 62.3742 1181.21 531.946
2212 0 59.1032 13.3665 790 59.7101 1180.98 530.819
2213 0 56.0864 11.6962 656 62.7942 1181.6 529.131
2214 0 62.0346 12.09 750 61.32 1182.38 528.424
2215 0 64.1362 12.5202 803 60.4608 1182.14 526.127
2216 0 65.2299 13.5674 885 59.513 1182.61 524.287
2217 0 68.0939 13.5989 926 59 1181.89 524.896
2218 0 69.1449 14.3033 989 58.3033 1181.76 523.404
2219 0 70.1341 12.2622 860 60.7651 1181.33 522.059
2220 0 72.0271 13.9947 1008 59.005 1180.77 521.859
2221 0 73.1583 11.6596 853 61.9437 1181.34 518.324
2222 0 78.4044 12.6523 992 60.2641 1181.63 517.284
2223 0 78.1955 11.1771 874 62.1545 1181.09 517.626
2224 1 41.2663 10.3959 429 60.8042 1182.54 538.352
2225 0 42.1317 10.9182 460 60.7065 1183.14 536.585
2226 0 44.0713 10.7326 473 60.833 1182.81 534.634
2227 0 44.0818 11.6601 514 60.0078 1182.29 533.453
2228 0 47.0524 13.2618 624 57.8654 1182.46 534.55
2229 0 48.1881 11.3721 548 60.1807 1181.23 532.084
2230 0 49.081 12.3266 605 59.286 1181.56 531.474
2231 0 50.0582 12.6653 634 58.9385 1181.93 532.629
2232 0 52.0562 12.256 638 59.2288 1182.33 529.491
2233 0 54.1425 12.0792 654 59.6606 1181.81 529.026
2234 0 58.1071 12.9416 752 58.0798 1181.92 530.765
2235 0 56.156 11.5037 646 60.4118 1182.02 527.779
2236 0 60.1012 12.7951 769 58.8466 1180.97 526.359
2237 0 62.1809 11.9973 746 59.6783 1181.5 523.721
2238 0 65.2399 11.2661 735 59.6163 1182.62 527.683
2239 0 66.1732 15.2177 1007 56.1152 1182.13 521.181
2240 0 66.1125 10.9813 726 60.989 1181.91 523.284
2241 0 72.2533 11.3766 822 60.073 1183.1 520.169
2242 0 70.2144 11.9776 841 59.9382 1182.61 522.039
2243 0 73.358 11.3553 833 60.521 1182.43 517.586
2244 0 78.1888 12.5466 981 59.1764 1181.95 518.272
2245 0 81.2745 11.0982 902 60.7628 1182.26 513.759
2246 0 82.118 11.4591 941 60.7577 1182.12 513.867
2247 0 88.2546 12.2033 1077 59.1495 1182.04 513.486
2248 1 44.0273 11.1522 491 59.5967 1181.98 535.265
2249 0 47.06 11.581 545 58.2184 1182.35 535.829
2250 0 46.0167 10.9526 504 59.8155 1182.4 534.317
2251 0 50.0543 11.7073 586 58.4881 1182.4 533.671
2252 0 51.0344 9.69935 495 60.9778 1182.51 532.687
2253 0 53.0462 13.1961 700 56.4671 1182.31 533.743
2254 0 55.058 10.3709 571 59.324 1182.33 530.82
2255 0 57.0477 13.3572 762 56.4042 1182.28 530.154
2256 0 57.0363 12.2203 697 58.0387 1183.06 530.126
2257 0 57.0432 11.6403 664 59.1672 1182.76 526.744
2258 0 61.0933 12.4236 759 58.0685 1182.54 528.549
2259 0 61.1497 9.79563 599 60.995 1182.45 525.826
2260 0 64.0954 12.1694 780 58.0513 1182.56 526.626
2261 0 65.2194 14.0142 914 56.5394 1182.94 522.706
2262 0 66.0891 12.8463 849 58.159 1183.33 523.214
2263 0 69.1163 11.0394 763 59.7222 1182.73 520.945
2264 0 72.0954 11.2767 813 59.3542 1182.46 518.865
2265 0 74.1043 10.5662 783 59.9579 1182.76 521.914
2266 0 78.1763 12.5741 983 57.5921 1182.58 522.218
2267 0 79.0594 12.1554 961 59.0562 1182.66 518.892
2268 0 82.1071 12.4959 1026 59.04 1182.28 515.811
2269 0 85.1488 13.7994 1175 56.9498 1182.67 518.47
2270 1 45.0511 10.477 472 57.911 1182.98 536.377
2271 0 48.0714 8.75781 421 57.8812 1183 540.475
2272 0 47.119 10.2931 485 58.6 1183.42 536.833
2273 0 50.084 11.9998 601 57.8802 1182.94 534.739
2274 0 50.0833 11.6007 581 58.8451 1182.71 534.788
2275 0 54.0761 11.1879 605 58.8198 1182.92 533.552
2276 0 56.05 11.4897 644 57.8571 1181.97 532.376
2277 0 54.0628 10.7468 581 60.0086 1181.82 529.589
2278 0 59.1079 12.5533 742 56.9097 1182.48 531.776
2279 0 60.0963 12.6297 759 57.3531 1182.45 529.206
2280 0 60.0884 11.0504 664 59.1009 1182.28 529.032
2281 0 60.1048 10.8311 651 59.3779 1182.03 526.889
2282 0 64.0774 10.6122 680 59.5059 1182.08 526.562
2283 0 65.0953 13.8873 904 56.5266 1182.96 524.455
2284 0 69.101 11.9969 829 57.801 1182.96 522.467
2285 0 69.3871 11.8898 825 58.1188 1183.17 522.732
2286 0 72.2343 11.4073 824 58.2549 1183.69 522.317
2287 0 75.2723 12.5544 945 57.0825 1183.03 518.553
2288 0 77.0863 10.7282 827 59.0496 1182.53 516.253
2289 1 39.0225 11.3268 442 56.7195 1183.31 537.179
2290 0 40.134 9.41844 378 58.5873 1183.31 537.407
2291 0 41.118 9.94698 409 58.0024 1183.57 536.946
2292 0 45.0813 10.6253 479 56.5303 1183.38 538.073
2293 0 45.0184 11.0177 496 56.8024 1184.27 537.113
2294 0 44.0854 11.1602 492 57.0813 1183.96 535.484
2295 0 46.0564 12.9407 596 55.5587 1183.83 534.854
2296 0 49.0693 13.6542 670 54.5104 1183.8 534.888
2297 0 52.2081 10.4773 547 57.064 1183.61 530.817
2298 0 52.0888 12.5939 656 55.8338 1183.36 533.404
2299 0 52.1032 10.4408 544 58.4522 1183.56 529.941
2300 0 56.1278 12.8279 720 54.3361 1183.49 530.654
2301 0 57.1658 12.1401 694 55.4424 1183.71 528.099
2302 0 59.1695 12.1008 716 55.1229 1183.51 529.64
2303 0 61.2142 13.6406 835 53.9258 1183.44 524.963
2304 0 63.1407 10.2786 649 57.735 1184 525.361
2305 0 63.0801 11.6202 733 56.5675 1183.91 524.573
2306 0 68.179 11.3525 774 56.6602 1183.21 524.469
2307 0 71.2004 11.6572 830 56.006 1184.35 524.28
2308 0 71.1684 11.4939 818 57.0746 1184.44 519.105
2309 1 38.0709 11.1634 425 55.16 1184.09 539.558
2310 0 41.0164 11.7514 482 54.7054 1184.82 540.264
2311 0 39.0583 10.4203 407 56.2236 1183.91 540.442
2312 0 43.0975 12.9474 558 53.4391 1183.37 539.527
2313 0 45.1056 12.3044 555 55.018 1183.35 537.321
2314 0 45.07 11.7817 531 55.7476 1183.65 538.54
2315 0 44.0719 11.3451 500 57.344 1182.77 537.83
2316 0 45.1829 12.0399 544 57.6415 1182.72 534.607
2317 0 46.0956 10.2396 472 59.9068 1183.16 534.797
2318 0 50.0832 12.6989 636 57.173 1183.27 534.596
2319 0 51.0896 11.1764 571 58.6427 1183.29 535.597
2320 0 52.1259 10.82 564 58.9929 1183.56 534.927
2321 0 54.1573 10.1925 552 59.9366 1184.02 534.172
2322 0 55.0704 11.3673 626 59.0351 1183.91 531.61
2323 0 55.1404 12.2596 676 58.6272 1183.93 531.41
2324 0 57.0851 12.3325 704 58.2486 1183.53 531.175
2325 0 59.1654 11.9834 709 59.0748 1183.46 529.166
2326 0 63.1957 12.4376 786 57.9746 1183.34 528.011
2327 0 64.0904 13.2313 848 57.0012 1183.88 529.271
2328 0 64.0409 9.83747 630 61.1587 1183.8 524.159
2329 0 67.1841 11.5652 777 59.5071 1183.72 525.874
2330 0 69.1284 12.8746 890 57.6674 1184.17 525.694
2331 0 71.0871 11.7602 836 58.805 1183.23 525.7
2332 0 74.1 13.9676 1035 56.9246 1183.16 521.883
2333 0 75.1554 12.8134 963 58.5711 1184.34 522.542
2334 0 78.3002 12.3882 970 59.2052 1183.89 519.323
2335 1 42.0216 11.6131 488 59.209 1184.04 537.559
2336 0 43.0252 11.3887 490 59.3959 1183.94 538.133
2337 0 45.0132 12.2631 552 58.7917 1183.33 536.697
2338 0 46.0555 12.3981 571 59.07 1183.96 536.154
2339 0 47.1196 14.0494 662 57.8308 1183.67 534.15
2340 0 48.2363 11.1742 539 60.6475 1183.03 535.729
2341 0 48.0631 11.0688 532 61.6936 1183.65 534.53
2342 0 52.0735 12.2135 636 60.3695 1183.66 532.547
2343 0 52.2333 13.1717 688 60.157 1184.21 530.53
2344 0 54.1109 11.4395 619 61.811 1184.26 533.544
2345 0 56.0506 12.6136 707 60.8614 1183.45 530.745
2346 0 56.0971 12.6031 707 61.5064 1183.11 528.583
2347 0 60.1172 11.9766 720 61.0139 1182.93 529.094
2348 0 60.1715 11.6667 702 62.2764 1183.43 529.407
2349 0 62.0638 12.5999 782 61.9297 1184.12 525.059
2350 0 62.1448 12.7283 791 55.5525 1183.91 527.411
2351 0 66.2298 12.5472 831 54.6029 1183.45 527.267
2352 0 71.3609 14.1394 1009 52.1219 1183.58 527.303
2353 0 70.1144 13.1071 919 53.8955 1183.48 523.8
2354 0 73.2054 13.1684 964 53.8932 1183.2 522.5
2355 0 76.1159 13.8473 1054 53.0598 1183.32 523.588
2356 0 76.2835 15.2458 1163 52.5641 1183.47 520.524
2357 0 80.1886 14.3661 1152 53.1224 1183.99 519.354
2358 0 79.1149 12.2733 971 55.8023 1184.22 517.915
2359 0 83.136 15.0476 1251 53.454 1183.48 514.59
2360 0 87.1991 12.0529 1051 55.8877 1183.15 517.973
2361 0 86.1377 13.6526 1176 55.3172 1183.44 514.483
2362 0 93.1407 15.4283 1437 51.6576 1183.25 520.086
2363 1 48.1335 10.9695 528 57.8409 1183.78 532.133
2364 0 48.0555 10.9457 526 58.3384 1184.08 532.935
2365 0 51.042 11.6963 597 56.608 1183.83 535.02
2366 0 55.0519 14.0958 776 54.4652 1183.23 531.947
2367 0 56.0983 14.2607 800 55.1075 1183.67 529.439
2368 0 59.0623 12.8339 758 56.1636 1182.85 530.592
2369 0 59.0472 13.1928 779 56.0732 1183.27 529.549
2370 0 61.0688 11.921 728 56.5701 1183.61 530.279
2371 0 63.0922 13.8686 875 55.1131 1183.98 527.797
2372 0 65.1551 13.0918 853 56.265 1184.47 524.669
2373 0 66.1151 11.3892 753 58.1142 1183.14 525.138
2374 0 69.1791 14.1083 976 55.2971 1183.54 522.787
2375 0 70.1242 12.649 887 56.9436 1183.35 524.229
2376 0 74.0983 12.4294 921 56.6873 1182.83 524.455
2377 0 76.1923 13.3872 1020 56.1412 1182.54 519.984
2378 0 79.2098 13.0161 1031 56.5402 1182.85 519.174
2379 0 82.0443 14.3337 1176 55.5145 1182.62 516.337
2380 0 84.1072 13.0072 1094 56.8007 1182.85 515.796
2381 0 86.2602 14.2592 1230 55.4764 1183.5 516.243
2382 0 87.2098 12.6018 1099 57.9627 1184.15 513.856
2383 1 47.035 11.1619 525 58.0362 1184.23 535.891
2384 0 49.0863 13.2216 649 57.114 1183.83 534.056
2385 0 51.0794 13.5867 694 57.1499 1183.52 532.308
2386 0 53.1332 11.7629 625 58.9344 1183.73 531.418
2387 0 57.0273 13.6426 778 56.1452 1184.38 532.928
2388 0 55.1291 12.5161 690 59.4333 1184.54 527.903
2389 0 55.0514 12.4247 684 59.6184 1184.34 527.675
2390 0 62.0837 13.3207 827 57.5623 1184.92 527.093
2391 0 63.2274 15.6261 988 55.0931 1185.23 527.082
2392 0 65.1605 14.5334 947 57.1352 1185.2 522.972
2393 0 66.1012 14.6442 968 57.3326 1185.88 522.529
2394 0 67.0972 14.3225 961 58.0437 1186.34 524.041
2395 0 70.0456 16.8462 1180 55.7246 1186.24 521.642
2396 0 73.0476 14.3194 1046 57.9981 1186.01 520.398
2397 0 75.0899 16.4203 1233 56.2725 1185.62 517.333
2398 0 78.1414 13.3476 1043 58.8591 1185.13 519.201
2399 0 81.0735 13.7529 1115 58.5309 1184.94 519.301
2400 0 83.1259 13.5457 1126 59.6368 1184.6 515.873
2401 0 85.1309 14.2252 1211 59.5813 1184.8 513.969
2402 1 43.0779 11.2587 485 61.9526 1185.59 533.128
2403 0 48.0832 12.9567 623 58.7608 1184.73 534.144
2404 0 49.0468 12.2944 603 60.2123 1185.34 533.643
2405 0 50.0998 14.7705 740 57.4135 1185.11 532.539
2406 0 52.0569 13.1779 686 59.0219 1184.62 532.542
2407 0 53.1938 13.7046 729 59.1139 1185.01 529.857
2408 0 55.0158 11.9966 660 60.3333 1184.83 531.424
2409 0 57.0596 13.4246 766 58.8212 1184.46 527.157
2410 0 58.055 11.3685 660 61.2485 1184.21 529.594
2411 0 60.0546 12.3221 740 60.4135 1183.91 528.469
2412 0 62.2176 12.5206 779 60.0809 1184.27 527.463
2413 0 65.061 13.6641 889 58.8594 1184.6 524.757
2414 0 66.1532 15.0257 994 58.0624 1183.37 522.853
2415 0 71.0276 14.2621 1013 58.1451 1183.71 523.488
2416 0 73.0659 14.8222 1083 57 1184 523.633
2417 0 73.1223 12.9372 946 60.167 1184.67 518.464
2418 1 39.0615 12.5443 490 58.6184 1184.65 537.418
2419 0 40.0427 11.3629 455 60.0879 1184.46 537.308
2420 0 43.032 11.0151 474 60.1983 1185.46 537.498
2421 0 42.05 11.8193 497 61.1066 1185.77 535.056
2422 0 44.0447 13.3955 590 59.3153 1185.01 535.102
2423 0 46.0741 12.6101 581 60.0189 1184.65 536.096
2424 0 47.0519 13.3682 629 59.0763 1183.83 534.062
2425 0 46.0549 12.9194 595 60.7866 1184.73 534.365
2426 0 50.0863 12.4984 626 61.1885 1184.7 530.891
2427 0 51.0242 12.7587 651 60.5622 1184.72 530.28
2428 0 54.0559 13.6525 738 60.2154 1184.13 526.948
2429 0 53.0871 11.6789 620 63.0306 1184.06 525.548
2430 0 55.023 13.0491 718 61.2507 1184.27 524.214
2431 0 57.1844 11.699 669 62.7324 1184.51 528.016
2432 0 58.065 12.9854 754 61.0305 1183.9 526.813
2433 0 60.1144 12.9586 779 61.2092 1184.15 524.761
2434 0 64.0951 12.6063 808 61.2599 1184.31 524.801
2435 0 66.0965 13.8737 917 59.4449 1183.9 524.011
2436 0 67.058 12.0791 810 61.8864 1183.79 523.648
2437 0 68.1271 13.0198 887 61.0192 1183.53 520.91
2438 0 72.2063 13.5861 981 59.7156 1184.39 519.715
2439 0 73.2949 12.2382 897 61.8462 1184.31 517.33
2440 1 41.07 11.8334 486 60.0453 1184.06 537.669
2441 0 42.1761 11.2623 475 60.3474 1183.61 537.305
2442 0 43.1506 12.6302 545 60.6862 1184.15 534.09
2443 0 44.1346 10.9665 484 61.3781 1183.12 535.818
2444 0 43.1734 12.3919 535 62.2467 1183.72 530.4
2445 0 46.1027 10.4332 481 63.4532 1183.62 532.26
2446 0 48.1399 11.4666 552 62.0815 1183.25 532.351
2447 0 48.0718 10.9212 525 63.6438 1183.83 530.796
2448 0 51.3142 12.1214 622 60.4695 1184.07 532.088
2449 0 54.1432 12.9287 700 59.54 1184.18 532.04
2450 0 53.0533 13.4016 711 61.045 1183.43 526.352
2451 0 58.0886 11.2931 656 61.8171 1183.32 529.242
2452 0 58.092 12.6007 732 61.1107 1183.64 527.556
2453 0 62.104 11.5451 717 62.0363 1183.32 524.268
2454 0 63.0764 13.333 841 59.5957 1183.09 525.656
2455 0 64.0267 13.1664 843 60.14 1183.73 521.302
2456 0 65.1407 11.1912 729 62.38 1184.02 524.268
2457 0 68.0554 13.0335 887 60.1387 1184.15 519.575
2458 0 71.1211 13.6387 970 59.0588 1183.78 520.601
2459 0 75.0929 13.3568 1003 58.5693 1184.18 520.186
2460 0 77.1257 13.2381 1021 58.6024 1183.23 521.279
2461 0 81.1964 12.4882 1014 59.289 1183.69 516.558
2462 0 83.0906 12.0471 1001 58.954 1183.06 520.168
2463 1 45.0186 10.6845 481 59.9085 1183.47 533.156
2464 0 47.1057 13.8837 654 56.4419 1183.88 532.761
2465 0 47.0793 10.3018 485 59.3093 1183.91 533.221
2466 0 50.1021 11.0973 556 58.786 1183.81 532.09
2467 0 51.0382 12.6376 645 56.7767 1183.26 529.856
2468 0 51.0308 11.3461 579 58.8739 1183.73 529.808
2469 0 53.1765 11.0575 588 57.9184 1183.88 530.859
2470 0 54.0379 12.6578 684 57.057 1183.36 528.357
2471 0 58.2185 10.2029 594 58.6566 1183.51 527.035
2472 0 57.0832 11.7022 668 58.262 1184.27 526.21
2473 0 61.2548 15.2478 934 53.1981 1183.54 526.158
2474 0 62.0529 11.4257 709 58.0705 1184.63 524.41
2475 0 65.1479 11.3895 742 57.3221 1184.48 523.581
2476 0 64.1853 11.2487 722 57.8352 1184.05 521.816
2477 0 70.1504 11.8032 828 56.4565 1184.12 522.473
2478 0 72.1285 12.6718 914 55.1455 1184.16 521.492
2479 0 72.1131 13.1599 949 55.4331 1184.54 518.135
2480 0 76.3264 13.5864 1037 54.3394 1183.39 514.694
2481 0 76.1861 12.5088 953 55.4869 1183.61 516.301
2482 0 80.2112 10.971 880 56.9852 1184.25 513.028
2483 0 84.0877 12.0113 1010 55.3178 1184.42 513.081
2484 1 42.1669 11.1699 471 55.3716 1184.07 529.236
2485 0 45.0244 11.1051 500 54.458 1183.64 531.264
2486 0 45.0646 10.7179 483 55.2195 1183.55 527.072
2487 0 47.202 9.72416 459 55.9455 1184.59 528.671
2488 0 52.0809 13.8246 720 51.2694 1184.94 527.715
2489 0 51.0644 9.1649 468 56.5406 1185.28 524.889
2490 0 53.125 12.16 646 52.8235 1185.66 526.452
2491 0 54.0415 10.2514 554 54.6643 1185.63 524.915
2492 0 57.0911 11.9808 684 52.9444 1184.74 523.158
2493 0 58.0785 9.77987 568 55.3592 1185.01 520.151
2494 0 61.0893 9.44519 577 55.4783 1184.52 521.083
2495 0 62.0449 9.75101 605 54.9769 1185.1 518.676
2496 0 64.0553 10.1006 647 53.1221 1184.12 521.195
2497 0 67.0544 12.1394 814 51.2776 1184.17 520.184
2498 0 66.0657 10.3382 683 53.2738 1185.02 513.373
2499 0 70.1481 10.8912 764 52.4882 1185.15 514.644
2500 0 73.0966 12.5861 920 51.2554 1185.39 513.533
2501 0 75.1732 10.9481 823 51.9599 1186.41 517.444
2502 0 75.1073 10.8378 814 53.1818 1185.84 510.932
2503 0 80.047 11.6806 935 52.2278 1185 507.459
2504 0 84.2365 11.2778 950 52.7347 1184.82 508.568
2505 0 84.0835 8.63427 726 54.4091 1184.41 507.942
2506 0 88.0703 8.36832 737 54.9104 1184.69 509.335
2507 1 47.083 11.6815 550 51.7691 1185.12 529.431
2508 0 45.0336 8.79344 396 54.6465 1185.17 529.013
2509 0 46.1396 11.1184 513 50.7875 1184.64 529.131
2510 0 49.1759 8.27641 407 53.7715 1184.88 527.056
2511 0 51.1967 9.88345 506 52.3814 1184.78 523.638
2512 0 54.0533 11.3222 612 51.0441 1184.11 525.029
2513 0 57.1493 11.7237 670 50.8448 1183.92 522.082
2514 0 60.2354 10.2764 619 51.2569 1184.84 522.817
2515 0 60.1952 12.5757 757 50.0964 1184.11 521.011
2516 0 62.1308 10.7354 667 52.2369 1184.46 517.591
2517 0 64.1821 12.7606 819 50.6313 1184.25 515.89
2518 0 65.205 10.0912 658 53.2112 1183.98 516.682
2519 0 66.1068 13.0244 861 50.5494 1183.71 515.887
2520 0 70.1172 13.6914 960 49.9667 1183.58 512.69
2521 0 74.1107 12.0495 893 50.9138 1183.75 512.019
2522 0 76.2243 12.0565 919 50.6224 1183.78 514.666
2523 0 78.1487 12.0923 945 51.0899 1184.44 511.887
2524 0 81.2114 13.3356 1083 49.9197 1184.27 508.915
2525 0 82.2023 10.8148 889 51.8459 1183.76 507.503
2526 0 89.1976 13.6551 1218 49.1864 1184.94 508.19
2527 1 47.0629 11.2828 531 50.0885 1185.53 528.154
2528 0 46.051 10.8358 499 51.4269 1184.46 528.148
2529 0 46.0422 11.7718 542 50.6421 1183.91 525.744
2530 0 48.091 13.4537 647 49.2705 1184.39 526.709
2531 0 50.0338 10.6528 533 51.1932 1184.73 527.407
2532 0 51.0935 11.1756 571 51.4869 1184.96 525.002
2533 0 56.0452 12.7576 715 49.7958 1185.51 522.352
2534 0 56.287 11.7079 659 50.9059 1184.56 523.155
2535 0 56.1685 13.7088 770 50.0844 1185.39 521.684
2536 0 58.1417 11.2312 653 51.536 1185.37 521.283
2537 0 59.0757 11.6461 688 51.548 1185.96 518.932
2538 0 60.1039 11.7297 705 52.5262 1185.72 517.369
2539 0 65.144 11.252 733 52.5293 1185.77 518.518
2540 0 65.2398 11.3734 742 52.7722 1185.06 516.97
2541 0 69.1728 13.9361 964 49.9149 1184.65 518.339
2542 0 70.1732 11.1866 785 52.5389 1183.3 517.367
2543 0 74.1629 12.6883 941 51.3379 1183.81 511.993
2544 0 74.1435 13.3525 990 50.9333 1184.81 513.774
2545 0 77.0877 12.8036 987 51.8369 1184.85 509.723
2546 0 84.1777 12.141 1022 51.6869 1184.97 510.552
2547 0 82.2092 12.8818 1059 51.9528 1185.42 510.819
2548 0 87.3855 12.977 1134 51.5309 1184.93 507.187
2549 0 91.2227 15.8842 1449 48.8468 1184.83 506.445
2550 0 93.2556 13.5434 1263 51.4877 1184.61 503.782
2551 0 95.2864 12.4152 1183 52.9256 1185.04 498.918
2552 0 99.3643 13.7575 1367 51.8544 1184.35 495.033
2553 0 101.399 14.8029 1501 51.03 1184.36 496.502
2554 0 104.283 13.7702 1436 51.906 1184.71 497.419
2555 0 107.184 10.9811 1177 54.9788 1184.64 493.095
2556 0 111.391 13.2147 1472 52.8818 1184.6 491.471
2557 0 115.198 12.1183 1396 53.8782 1184.06 492.074
2558 1 59.1522 10.8026 639 56.2473 1185.33 514.781
2559 0 61.0979 13.0937 800 54.2562 1184.52 514.261
2560 0 64.1438 11.9107 764 55.305 1184.29 514.776
2561 0 67.1674 10.3771 697 55.4204 1184.46 520.237
2562 0 69.1017 12.0402 832 55.119 1184.57 514.942
2563 0 69.1723 12.1725 842 54.5309 1184.65 516.176
2564 0 72.1224 12.5758 907 54.7872 1184.75 512.8
2565 0 73.2171 13.3848 980 53.8459 1184.97 513.679
2566 0 76.1712 12.7607 972 54.7901 1184.38 510.309
2567 0 78.1863 11.933 933 55.343 1184.85 511.151
2568 0 82.1713 12.9121 1061 53.8897 1184.26 511.458
2569 0 84.2662 11.7841 993 55.993 1183.92 507.98
2570 0 88.4342 14.3949 1273 53.3158 1184.47 507.295
2571 0 90.2675 13.7037 1237 53.5715 1184.55 511.856
2572 0 93.1736 16.0453 1495 51.5338 1184.46 509.043
2573 0 96.1529 18.0442 1735 49.8813 1184.79 509.237
2574 0 99.2173 17.0132 1688 50.763 1184.96 505.649
2575 0 102.285 17.0504 1744 51.1147 1184.44 506.8
2576 0 103.211 15.5313 1603 53.2227 1183.27 501.506
2577 0 104.094 13.872 1444 55.2625 1183.08 502.75
2578 0 108.158 14.1738 1533 55.1331 1183.41 499.933
2579 0 113.193 14.5858 1651 54.2574 1183.92 498.879
2580 1 51.1094 10.8395 554 59.2888 1184.34 523.852
2581 0 59.0756 11.4091 674 56.9258 1184.31 524.828
2582 0 58.0959 11.4638 666 57.6156 1184.45 525.664
2583 0 61.1283 11.9584 731 56.9535 1184.79 525.647
2584 0 61.0516 13.2347 808 56.2958 1184.65 522.647
2585 0 64.0912 14.1829 909 55.0022 1183.5 519.547
2586 0 66.1685 12.2717 812 56.4668 1182.82 522.459
2587 0 68.2142 13.7655 939 55.1864 1182.74 521.163
2588 0 72.1608 15.1467 1093 53.516 1183.24 520.852
2589 0 69.0785 12.6668 875 57.2526 1182.94 518.169
2590 0 76.0776 14.7744 1124 54.7776 1182.8 514.949
2591 0 75.1026 13.4882 1013 56.9822 1183.79 513.274
2592 0 80.1313 15.0004 1202 54.2363 1184.3 516.794
2593 0 82.114 14.0415 1153 55.6331 1184.1 514.237
2594 0 81.1639 12.1483 986 58.6602 1184.69 511.369
2595 0 84.0806 12.1788 1024 58.6064 1183.98 511.91
2596 0 88.1264 14.831 1307 55.8829 1183.27 507.261
2597 0 89.1506 12.8098 1142 57.8301 1183.98 509.264
2598 0 92.1927 12.322 1136 58.3609 1184.22 505.104
2599 0 96.1951 13.14 1264 57.7951 1184.38 504.722
2600 1 58.112 12.1834 708 56.9802 1184.98 526.685
2601 0 58.0477 11.0599 642 59.5 1184.65 522.397
2602 0 58.088 12.6532 735 57.9361 1184.14 522.022
2603 0 60.1164 12.1597 731 58.3885 1183.44 521.296
2604 0 63.2314 12.1142 766 58.4556 1183.82 519.251
2605 0 66.0579 13.8515 915 56.4907 1183.16 516.716
2606 0 69.0276 12.8934 890 57.1236 1183.41 517.275
2607 0 71.0502 13.2442 941 56.3443 1183.67 518.608
2608 0 72.0999 12.9959 937 57.6051 1183.58 515.402
2609 0 76.0668 14.3426 1091 55.7113 1183.56 515.638
2610 0 77.0937 12.9842 1001 57.8362 1184.05 513.402
2611 0 79.136 13.2304 1047 57.5798 1183.98 510.077
2612 0 81.0678 14.2473 1155 56.6693 1184.23 510.496
2613 0 85.0927 13.6087 1158 56.8644 1183.9 510.536
2614 0 85.2036 13.5323 1153 57.1743 1183.98 510.075
2615 0 89.0924 14.3222 1276 56.1857 1184.04 510.506
2616 0 91.0989 12.6017 1148 58.0436 1183.55 509.029
2617 0 94.1143 11.9429 1124 59.1424 1183.62 505.11
2618 1 47.0806 11.8945 560 57.8821 1184.45 527.232
2619 0 52.0458 9.91435 516 59.0388 1184.81 527.25
2620 0 52.1809 10.9619 572 59.3584 1185.18 524.768
2621 0 54.1376 12.3574 669 57.704 1183.98 524.759
2622 0 54.1363 11.0831 600 58.615 1183.93 525.418
2623 0 59.0665 12.596 744 56.6626 1184.24 524.086
2624 0 59.1572 11.7314 694 57.5231 1184.2 523.829
2625 0 63.0695 13.5406 854 56.4836 1184.2 519.15
2626 0 62.067 12.1804 756 58.5344 1183.56 517.799
2627 0 65.1363 14.1242 920 55.4783 1184.3 521.866
2628 0 67.2185 14.1628 952 56.1439 1184.51 518.003
2629 0 68.0311 13.3615 909 57.5094 1184.55 513.779
2630 0 71.0791 13.281 944 57.857 1184.36 515.001
2631 0 74.0349 12.9128 956 57.364 1184.09 516.755
2632 0 74.0692 12.5828 932 58.6652 1184.73 513.986
2633 0 76.0774 10.9757 835 59.4299 1185.03 515.113
2634 0 81.1329 13.7922 1119 57.2788 1184.36 513.095
2635 0 82.1225 13.0658 1073 58.5163 1183.97 511.458
2636 0 84.2561 14.4559 1218 56.9253 1183.87 510.948
2637 0 85.136 11.3466 966 60.3727 1183.6 511.248
2638 0 88.2215 12.9334 1141 58.7897 1183.52 507.932
2639 0 90.0619 13.5907 1224 58.1814 1183.26 506.568
2640 0 96.2619 12.4972 1203 58.6509 1184.46 505.798
2641 1 50.0852 11.0212 552 58.1413 1183.95 527.81
2642 0 53.0709 11.6071 616 57.7987 1183.87 526.195
2643 0 51.0417 12.4016 633 57.5482 1183.84 528.194
2644 0 54.1041 13.548 733 56.3179 1184.23 525.619
2645 0 57.1072 11.8724 678 57.9115 1184.32 525.941
2646 0 59.1629 12.305 728 57.1882 1184.78 527.472
2647 0 58.0507 11.5416 670 57.906 1185.2 527.106
2648 0 61.0837 12.5238 765 57.3621 1185.02 524.8
2649 0 61.0671 14.4759 884 55.7941 1184.92 522.574
2650 0 63.169 12.2529 774 57.7946 1185.18 523.652
2651 0 66.1814 12.1635 805 56.8621 1184.55 523.619
2652 0 70.0631 12.189 854 56.7775 1184.44 523.323
2653 0 69.1247 10.6908 739 59.5372 1184.84 516.291
2654 0 73.1603 11.7687 861 57.935 1184.91 516.502
2655 0 78.3492 12.7761 1001 56.2368 1184.67 515.797
2656 0 78.0558 11.2099 875 59.0411 1184.57 515.457
2657 0 82.0487 12.0416 988 58.252 1185.22 516.838
2658 1 43.0216 10.948 471 57.5414 1184.35 534.977
2659 0 43.1353 11.5451 498 58.0863 1184.61 531.691
2660 0 45.1571 11.5597 522 57.5536 1184.97 533.929
2661 0 46.1678 11.0467 510 58.7353 1184.99 532.751
2662 0 47.1694 12.1901 575 57.5026 1185.01 531.71
2663 0 46.0864 9.76428 450 60.6356 1184.93 531.204
2664 0 51.1564 11.6701 597 57.7722 1184.86 533.571
2665 0 54.2312 12.0226 652 57.4279 1185.25 526.419
2666 0 55.1594 12.346 681 56.6975 1185.14 531.31
2667 0 58.0832 11.3458 659 57.6055 1185.11 527.026
2668 0 59.1946 12.7883 757 56.391 1185.85 527.406
2669 0 60.2506 10.4065 627 58.0367 1184.86 527.654
2670 0 62.155 10.0877 627 58.9617 1184.39 523.579
2671 0 65.1053 12.1649 792 56.8371 1184.49 524.534
2672 0 69.1557 12.0453 833 57.1573 1184.09 525.074
2673 0 68.271 10.0042 683 60.1713 1184.78 522.375
2674 0 70.2087 11.2379 789 58.6958 1184.85 522.313
2675 0 73.1732 10.9193 799 59.3705 1184.81 518.35
2676 0 75.2808 10.4011 783 59.7458 1184.46 518.367
2677 0 80.1787 13.5822 1089 56.1938 1184.06 516.182
2678 1 41.0846 11.6345 478 56.9916 1184.12 539.437
2679 0 41.1022 9.75616 401 60.1172 1183.19 536.242
2680 0 45.1121 11.1278 502 57.741 1183.74 538.195
2681 0 46.174 10.3305 477 58.717 1184.39 536.53
2682 0 47.0896 12.1895 574 57.3049 1184.36 536.481
2683 0 49.1006 14.6434 719 55.2615 1184.59 535.485
2684 0 51.315 12.1797 625 57.2608 1184.6 536.155
2685 0 50.1684 10.2256 513 59.9493 1183.98 535.528
2686 0 54.21 12.8574 697 57.7088 1184.15 534.37
2687 0 54.0791 12.6296 683 57.8419 1183.18 534.4
2688 0 56.1909 11.283 634 59.9038 1184.23 530.45
2689 0 56.0763 10.8424 608 60.1612 1184.03 530.979
2690 0 59.128 14.6631 867 55.782 1184.58 531.706
2691 0 63.0737 14.7764 932 55.5622 1185.05 528.402
2692 0 64.1275 13.7227 880 57.0591 1184.16 529.751
2693 0 66.198 11.9641 792 58 1184.58 530.771
2694 0 69.0771 13.883 959 56.2044 1185.38 529.489
2695 0 69.1428 12.2211 845 58.3917 1184.19 524.331
2696 0 74.2232 12.7588 947 57.8046 1184.25 526.528
2697 0 75.1424 14.3993 1082 56.6839 1184.08 523.545
2698 0 77.2289 12.1587 939 58.6976 1184.12 521.048
2699 0 78.2061 13.5156 1057 57.3784 1184.21 520.65
2700 0 81.2174 12.6574 1028 58.9601 1184.98 520.174
2701 0 85.22 13.2715 1131 58.3404 1184.61 518.613
2702 0 85.123 12.1941 1038 59.6956 1184.76 521.416
2703 0 88.2882 13.4559 1188 59.1212 1184.62 516.769
2704 1 50.124 15.0028 752 56.2699 1185.65 535.665
2705 0 51.3164 11.7701 604 59.7781 1185.05 534.068
2706 0 53.1378 15.808 840 57.0762 1185.6 532.223
2707 0 53.1558 11.5321 613 61.4307 1184.65 531.605
2708 0 57.1833 12.7835 731 59.8331 1184.25 532.658
2709 0 55.1432 12.4947 689 61.6662 1184.52 530.012
2710 0 59.2533 13.0288 772 59.8912 1184.9 533.759
2711 0 62.3414 11.9824 747 60.9331 1185.1 533.27
2712 0 61.2134 11.321 693 61.8644 1184.59 531.993
2713 0 65.3151 14.6827 959 58.6955 1184.81 529.896
2714 0 68.3458 14.0755 962 59.2225 1185.12 528.577
2715 0 69.2546 13.732 951 59.8938 1185.42 526.423
2716 0 71.1065 13.9368 991 59.56 1184.07 528.03
2717 0 72.159 15.937 1150 57.8939 1184.99 526.014
2718 0 75.297 14.5026 1092 59.6722 1185.07 524.774
2719 0 77.2063 14.131 1091 59.9065 1185.51 524.167
2720 0 78.413 13.5054 1059 61.2502 1185.85 522.446
2721 0 81.2993 13.7148 1115 61.0036 1185.78 521.589
2722 0 81.3147 13.872 1128 61.4645 1185.53 518.375
2723 0 83.3759 15.0523 1255 60.4948 1185.48 521.383
2724 0 83.4413 13.3147 1111 62.8443 1185.78 521.701
2725 0 84.4334 14.3545 1212 62.1279 1184.83 520.598
2726 0 86.4643 14.1446 1223 63.1717 1184.93 517.969
2727 0 86.3091 13.301 1148 64.6786 1185.04 520.084
2728 0 88.5074 16.4619 1457 61.0062 1185.47 519.001
2729 0 89.3334 14.7649 1319 63.6846 1185.26 518.069
2730 0 88.3825 14.1204 1248 64.7901 1185.31 517.556
2731 0 89.2538 13.3104 1188 66.0665 1185.24 519.545
2732 0 90.5156 13.9865 1266 65.8863 1184.99 515.065
2733 0 91.3895 14.7172 1345 64.4654 1184.49 515.529
2734 0 93.376 14.8646 1388 64.4733 1184.17 515.792
2735 0 91.3326 13.3906 1223 66.4514 1183.87 516.337
2736 0 94.4922 14.6044 1380 64.142 1184.48 516.952
2737 0 94.4303 15.5035 1464 63.9891 1184.46 516.079
2738 0 94.5448 14.9664 1415 65.6113 1185.02 512.414
2739 0 94.3298 14.4387 1362 65.7526 1185.04 512.969
2740 0 97.3656 15.4469 1504 64.2746 1184.95 512.602
2741 0 98.514 13.7544 1355 66.3852 1184.02 512.835
2742 0 96.4775 14.0862 1359 66.816 1184.79 513.339
2743 0 96.4027 14.7402 1421 66.2674 1185.73 511.444
2744 0 99.4051 14.2045 1412 66.6601 1184.67 510.356
2745 0 100.356 15.465 1552 64.9865 1184.84 510.7
2746 0 100.384 14.5441 1460 65.7555 1184.96 511.661
2747 0 100.362 13.9893 1404 67.0442 1184.25 510.642
2748 0 100.354 13.4424 1349 67.6835 1184.56 512.491
2749 0 101.31 13.0688 1324 68.0801 1184.81 509.637
2750 0 103.333 13.4904 1394 67.8917 1184.88 508.131
2751 0 103.344 14.5049 1499 66.5824 1185.34 508.109
2752 0 105.395 16.0349 1690 64.4207 1185.57 507.118
2753 0 104.538 13.6409 1426 67.3766 1185.81 509.636
2754 0 101.415 12.9961 1318 69.5918 1185.71 506.003
2755 0 105.224 13.9892 1472 67.0177 1185.24 509.338
2756 0 107.27 14.3376 1538 66.1001 1184.91 508.422
2757 0 106.163 15.9848 1697 64.8568 1184.81 507.664
2758 0 107.39 15.2622 1639 65.6827 1185.06 506.909
2759 0 106.277 13.192 1402 68.3174 1185.27 505.76
2760 0 106.531 14.2024 1513 67.3225 1184.87 506.178
2761 0 107.327 14.1903 1523 67.2836 1184.61 508.377
2762 0 108.2 14.9352 1616 66.0347 1185.8 508.842
2763 0 108.164 14.2654 1543 66.9611 1184.99 506.914
2764 0 106.308 13.5644 1442 68.5964 1185.33 504.663
2765 0 109.33 14.3784 1572 67.6368 1185.49 503.735
2766 0 111.321 14.8939 1658 66.1236 1185.8 505.554
2767 0 109.337 14.0483 1536 67.64 1185.21 504.973
2768 0 111.298 15.7326 1751 64.6773 1184.75 505.409
2769 0 111.199 13.7052 1524 68.5571 1185.25 503.918
2770 0 112.241 15.2084 1707 65.819 1185.47 504.529
2771 0 112.185 14.6098 1639 66.5467 1185.88 502.743
2772 0 112.334 14.813 1664 66.3726 1185.43 504.895
2773 0 112.268 14.8038 1662 66.0915 1185.4 502.506
2774 0 112.115 13.3969 1502 68.0752 1185.35 505.405
2775 0 116.206 14.7324 1712 65.3201 1185.86 503.315
2776 0 114.116 13.7755 1572 67.5751 1185.82 504.188
2777 0 115.341 14.2447 1643 66.8801 1186.11 502.307
2778 0 115.304 14.0846 1624 66.9945 1186.4 504.081
2779 0 115.246 14.9853 1727 65.5055 1186.36 504.149
2780 0 115.285 13.8179 1593 67.0427 1185.79 503.657
2781 0 115.267 16.683 1923 63.5585 1185.37 502.676
2782 0 117.441 15.3865 1807 64.8683 1184.98 502.117
2783 0 117.266 13.9939 1641 66.8044 1184.71 502.138
2784 0 118.233 14.2431 1684 66.2233 1185.58 501.591
