time division length width area intensity CMx CMy
0 0 59.0275 9.4024 555 72.6559 1105.49 475.62
1 0 59.0979 10.0003 591 72.1692 1105.46 476.071
2 0 62.2255 8.80668 548 73.2263 1106.13 473.489
3 0 64.1004 10.8736 697 70.2855 1106.13 475.362
4 0 65.1688 11.0022 717 70.4184 1106.06 473.901
5 0 64.0794 8.59871 551 73.3884 1106.06 473.603
6 0 67.0744 8.67694 582 74.2113 1106.13 472.076
7 0 69.1926 10.926 756 70.3135 1105.13 472.702
8 0 71.2577 9.69719 691 71.9812 1105.53 471.894
9 0 73.1085 11.9001 870 69.9207 1105.2 470.222
10 0 76.0842 10.4358 794 71.2305 1104.34 470.073
11 0 76.2254 11.7153 893 70.7469 1103.83 467.955
12 0 77.1549 10.9002 841 71.7337 1104.09 469.516
13 0 78.2508 10.9392 856 73.0152 1104.34 467.869
14 0 81.2241 10.0832 819 74.315 1104.05 467.192
15 0 83.211 10.2751 855 74.876 1103.46 464.943
16 0 88.2407 11.9219 1052 71.8422 1103.43 465.416
17 0 89.2759 11.3805 1016 73.5837 1103.68 463.872
18 0 93.2892 11.6734 1089 73.0248 1103.4 462.318
19 0 92.2501 10.8509 1001 75.4436 1103.64 459.198
20 0 94.1001 10.7333 1010 75.6317 1104.11 460.129
21 0 97.189 11.1329 1082 74.8706 1104.31 460.09
22 0 100.223 11.0952 1112 74.9856 1103.96 457.962
23 0 101.272 10.6643 1080 75.8491 1103.64 455.878
24 0 104.094 10.8555 1130 76.192 1103.73 453.319
25 0 110.267 12.4969 1378 74.3374 1104.09 452.922
26 0 109.357 9.96738 1090 78.5147 1103.9 451.78
27 0 114.436 12.4262 1422 74.8755 1103.23 449.89
28 0 117.264 11.9986 1407 75.8003 1103.2 448.817
29 0 119.273 10.7652 1284 78.0421 1103.68 447.601
30 0 120.206 10.7732 1295 78.3676 1103.07 443.514
31 0 123.495 11.385 1406 77.8165 1103.09 442.435
32 1 68.1403 6.44259 439 76.4282 1102.54 474.075
33 0 72.3056 9.25239 669 73.7205 1102.95 470.33
34 0 71.3364 8.01835 572 76.6976 1103.23 466.274
35 0 77.3564 9.64367 746 73.5912 1103.06 468.55
36 0 79.3257 10.0094 794 72.8476 1103.5 471.785
37 0 80.3054 10.9208 877 72.6853 1103.32 467.025
38 0 83.2035 10.4563 870 73.8471 1103.09 465.851
39 0 83.353 9.63373 803 75.7098 1103.21 462.382
40 0 83.1144 9.26434 770 77.039 1102.84 460.212
41 0 88.1875 10.9539 966 74.3437 1103.19 463.106
42 0 91.4126 11.2676 1030 73.6252 1103.36 463.063
43 0 93.1549 10.4772 976 75.1598 1103.36 459.67
44 0 96.3469 10.1716 980 75.3265 1103.09 460.755
45 0 98.3047 11.2507 1106 74.1085 1102.89 458.473
46 0 102.188 11.3321 1158 73.7202 1102.8 458.415
47 0 103.257 10.4206 1076 75.1571 1102.46 457.77
48 0 106.227 10.6752 1134 74.5732 1102.56 456.653
49 0 108.277 12.311 1333 72.0833 1102.32 453.342
50 0 110.29 10.4271 1150 75.1522 1102.31 452.797
51 0 114.152 10.7226 1224 74.7198 1102.75 449.734
52 0 117.246 11.1987 1313 73.7555 1102.01 446.493
53 0 117.092 10.8718 1273 74.7887 1102.77 446.502
54 0 122.198 11.6041 1418 73.6432 1102.5 449.444
55 0 126.088 12.0789 1523 72.5154 1102.41 449.144
56 0 128.122 11.6217 1489 74.2257 1102.54 439.591
57 1 74.1431 9.71095 720 73.6069 1102.28 470.117
58 0 77.2074 9.10535 703 74.532 1102.36 469.147
59 0 78.2216 9.81826 768 73.5482 1101.7 469.836
60 0 81.233 11.0546 898 72.9053 1102.25 468.214
61 0 82.1685 10.2472 842 74.3302 1101.88 462.968
62 0 86.1231 11.3791 980 71.75 1101.64 467.378
63 0 87.1952 10.6657 930 73.7796 1101.78 461.104
64 0 91.1893 10.7359 979 73.1267 1102.11 461.969
65 0 94.1759 10.5972 998 73.5571 1101.96 459.036
66 0 94.2224 10.4115 981 74.1091 1101.88 460.77
67 0 101.338 11.733 1189 71.614 1101.19 459.273
68 0 102.151 11.855 1211 71.943 1100.73 458.197
69 0 107.097 12.4373 1332 71.0743 1101.91 457.262
70 0 108.24 12.1767 1318 72.4621 1101.71 454.399
71 0 112.149 12.5637 1409 71.7935 1101.69 451.137
72 0 115.232 11.8283 1363 72.956 1101.48 451.602
73 0 117.162 12.3334 1445 72.609 1102.02 449.48
74 0 119.209 11.9035 1419 73.7132 1102.14 444.794
75 0 124.217 10.7232 1332 75.6952 1102.84 446.34
76 0 129.156 11.6526 1505 73.9814 1101.62 446.779
77 0 130.191 11.7443 1529 74.1576 1101.39 442.672
78 1 77.2172 10.2568 792 72 1101.33 469.727
79 0 79.1556 11.9006 942 69.2771 1102.07 473.359
80 0 82.1056 10.657 875 71.0754 1102.19 471.614
81 0 83.1303 10.5377 876 72.726 1102.57 467.787
82 0 83.0344 9.92359 824 73.4709 1102.67 468.743
83 0 90.2907 12.1829 1100 70.4673 1102.38 465.541
84 0 90.1985 11.6299 1049 70.9657 1102.3 465.702
85 0 90.1711 10.5466 951 73.633 1102.44 463.012
86 0 94.2138 11.6862 1101 72.1717 1102.73 461.822
87 0 97.2097 10.8631 1056 73.5559 1102.22 461.611
88 0 97.1155 10.8428 1053 73.9402 1101.9 459.834
89 0 104.199 12.2074 1272 71.7429 1102.23 458.386
90 0 107.156 12.4678 1336 71.5314 1102.13 454.225
91 0 109.171 10.598 1157 73.898 1102.31 457.978
92 0 110.256 10.7568 1186 74.9815 1102.44 451.485
93 0 114.222 11.6702 1333 73.6519 1102.58 452.82
94 1 65.0896 11.3997 742 72.1631 1102.86 476.415
95 0 66.09 10.3193 682 73.0352 1102.65 477.723
96 0 69.1188 10.7641 744 72.797 1102.76 475.272
97 0 69.1253 11.3562 785 73.0548 1102.88 474.087
98 0 71.0619 10.0616 715 74.8 1102.88 476.081
99 0 73.0592 12.4967 913 70.828 1102.45 472.876
100 0 75.1263 10.3426 777 74.5097 1102.79 470.511
101 0 78.1369 11.723 916 73.083 1102.5 467.593
102 0 81.1135 12.2421 993 72.1088 1102.15 468.878
103 0 83.0632 12.7493 1059 71.1407 1102.41 467.717
104 0 84.0914 11.7729 990 72.1 1102.4 467.009
105 0 87.0745 12.9889 1131 70.4907 1102.01 464.789
106 0 89.0729 12.6413 1126 70.5853 1101.67 465.032
107 0 91.1378 11.2686 1027 73.7527 1101.74 461.377
108 0 96.1199 12.6405 1215 70.9317 1101.61 462.41
109 0 95.1454 11.33 1078 73.8766 1102.21 460.201
110 0 101.224 12.8131 1297 71.1835 1102.3 459.701
111 0 103.148 11.1878 1154 73.3761 1102.54 460.463
112 0 106.047 10.9386 1160 74.1267 1101.76 453.028
113 1 60.1024 10.9314 657 70.9269 1101.6 480.598
114 0 62.0657 12.7123 789 68.2357 1101.54 480.17
115 0 62.0454 11.1692 693 70.974 1101.65 477.433
116 0 65.0701 11.0957 722 71.3657 1101.89 474.612
117 0 64.0365 10.9313 700 71.6914 1101.87 477.111
118 0 67.0775 10.9575 735 71.4327 1102.21 476.176
119 0 67.0563 10.3197 692 72.7038 1101.73 475.28
120 0 72.069 11.7943 850 70.2118 1102.26 470.616
121 0 73.0645 11.6062 848 70.3809 1102.16 474.255
122 0 75.1361 10.8736 817 70.661 1101.6 472.961
123 0 77.1137 11.5803 893 70.6853 1102.23 470.225
124 0 78.0961 12.2669 958 69.9979 1102.37 471.032
125 0 82.1344 11.8951 977 70.4565 1102.38 469.101
126 0 82.1714 11.8533 974 71.0483 1102.11 467.688
127 0 86.2232 11.8298 1020 70.8451 1101.38 465.675
128 0 88.0987 12.4746 1099 70.5223 1101.57 465.743
129 0 91.1814 12.9412 1180 69.439 1101.31 465.91
130 0 93.1534 12.4418 1159 70.7955 1101.45 463.897
131 0 93.2272 11.4666 1069 72.5463 1101.63 460.642
132 0 97.2023 13.117 1275 69.9349 1101.97 458.425
133 0 100.21 12.1545 1218 71.3333 1102.21 460.132
134 0 103.268 12.5111 1292 71.2554 1101.96 459.723
135 0 104.137 12.9733 1351 70.7853 1102.11 459.291
136 0 109.156 13.0822 1428 70.388 1102.15 454.816
137 0 111.127 14.056 1562 69.0858 1101.24 454.931
138 0 110.076 11.383 1253 74.2011 1101.97 452.739
139 0 117.152 13.1965 1546 70.7477 1101.56 452.556
140 0 118.1 12.5571 1483 72.3345 1100.71 450.357
141 0 122.203 13.9768 1708 69.8513 1101.04 449.634
142 0 125.107 12.1896 1525 72.882 1101.22 447.194
143 0 127.242 12.6138 1605 72.6287 1100.9 445.942
144 0 133.142 13.6922 1823 70.6522 1101.37 444.312
145 0 135.105 13.1305 1774 71.8546 1102.49 442.473
146 0 139.294 10.9839 1530 75.1549 1102.99 439.444
147 0 141.21 12.6054 1780 73.1045 1102.75 437.612
148 0 147.133 11.996 1765 73.5541 1102.37 438.376
149 0 152.314 12.9864 1978 72.3999 1102.05 434.258
150 0 157.138 12.6004 1980 73.1854 1101.84 432.515
151 1 88.2324 9.91699 875 72.1783 1101.79 468.867
152 0 88.0579 12.3896 1091 69.4317 1102.24 467.277
153 0 91.2519 10.9915 1003 72.1815 1102.18 464.131
154 0 91.1715 11.6045 1058 72.0784 1101.95 463.192
155 0 96.3334 12.0519 1161 71.1447 1102.1 464.18
156 0 99.1074 12.0576 1195 71.5079 1102.48 460.104
157 0 102.148 11.6694 1192 72.2844 1102.47 460.404
158 0 103.108 10.1835 1050 74.381 1102.56 461.512
159 0 107.137 11.9847 1284 72.5319 1102.44 457.371
160 0 109.069 12.1758 1328 72.5994 1101.63 453.974
161 0 113.236 12.2311 1385 72.4202 1101.25 456.097
162 0 113.102 11.724 1326 73.8371 1101.87 451.163
163 0 119.145 12.447 1483 72.089 1101.65 454.402
164 0 122.265 12.8246 1568 72.2742 1101.53 449.499
165 0 123.24 11.2463 1386 75.2698 1100.83 446.04
166 0 129.178 12.8582 1661 72.5485 1100.83 445.867
167 0 134.319 12.7011 1706 72.4426 1101.65 446.591
168 0 136.115 13.8706 1888 71.1859 1101.63 441.624
169 0 140.353 13.1098 1840 72.6467 1101.98 440.685
170 0 145.152 12.7384 1849 73.1979 1101.88 440.519
171 0 150.266 13.2565 1992 72.6757 1101.95 435.753
172 0 154.409 13.0498 2015 72.9176 1101.36 435.269
173 1 88.1254 11.007 970 73.2691 1101.12 467.198
174 0 90.094 10.6222 957 73.7785 1101.55 467.265
175 0 91.083 11.0998 1011 74.1385 1101.51 462.551
176 0 94.0641 10.8968 1025 73.8341 1102.56 462.907
177 0 97.0774 11.5887 1125 73.0418 1102.33 460.008
178 0 103.105 13.4911 1391 69.9396 1102.26 459.19
179 0 103.057 12.1583 1253 72.5579 1102.1 456.811
180 0 107.157 12.9436 1387 71.5422 1101.3 456.361
181 0 110.155 11.502 1267 73.8343 1101.69 454.998
182 0 113.121 12.3673 1399 73.213 1101.94 453.974
183 0 116.108 12.8673 1494 72.7068 1102.41 453.697
184 0 118.156 12.0772 1427 74.801 1101.84 450.389
185 0 123.113 12.2327 1506 74.666 1101.61 447.77
186 0 124.131 11.786 1463 75.9023 1101.36 445.32
187 1 70.0451 11.1928 784 72.4885 1101.86 477.486
188 0 70.0418 11.8358 829 72.4174 1102.19 475.075
189 0 74.1813 12.793 949 70.0948 1102.23 476.318
190 0 73.0779 11.0156 805 73.1093 1102.18 475.446
191 0 76.0576 12.1092 921 71.8078 1102.19 472.2
192 0 79.0882 11.5567 914 72.2538 1102.18 472.848
193 0 80.083 11.3258 907 72.613 1102.32 472.687
194 0 83.0575 11.6787 970 72.5072 1102.46 470.5
195 0 85.1088 12.0082 1022 71.7025 1102.34 471.262
196 0 86.1841 11.7771 1015 73.5892 1102.55 468.423
197 0 89.0924 11.9427 1064 73.9398 1102.87 465.333
198 0 92.0759 12.8481 1183 72.6044 1102.44 465.188
199 0 95.0988 12.8603 1223 73.0613 1102.45 462.399
200 0 98.164 12.7236 1249 73.0889 1101.88 462.707
201 0 99.2091 11.8941 1180 75.4136 1101.43 459.326
202 0 101.095 12.3646 1250 74.0128 1101.58 462.078
203 0 107.094 13.5395 1450 73.0021 1101.92 458.854
204 0 108.167 12.9337 1399 74.6083 1102.21 456.579
205 0 111.162 11.9375 1327 76.3301 1101.8 455.858
206 0 115.166 13.372 1540 74.2688 1102.37 453.475
207 0 119.187 13.0132 1551 73.9336 1102.65 451.459
208 0 120.094 11.8407 1422 75.1948 1101.96 450.798
209 0 122.115 12.996 1587 74.5595 1101.69 445.764
210 0 128.113 12.9963 1665 73.7664 1101.67 448.186
211 0 129.238 12.4964 1615 74.9635 1102.12 446.988
212 0 134.129 13.1142 1759 73.8613 1102.28 444.715
213 0 137.15 13.2191 1813 74.0292 1102.4 438.912
214 0 144.127 12.8359 1850 73.5346 1102.23 442.641
215 0 144.171 10.9037 1572 76.8925 1102.23 439.868
216 0 150.154 12.1142 1819 74.7086 1102.02 438.973
217 0 154.15 12.7214 1961 73.8434 1101.29 430.823
218 0 159.211 11.469 1826 75.603 1101.5 432.334
219 0 167.247 11.4262 1911 74.9288 1101.53 430.829
220 1 93.1584 11.7112 1091 71.7727 1101.71 465.069
221 0 95.1605 12.894 1227 70.546 1101.08 461.112
222 0 101.123 12.4106 1255 70.3602 1101.61 462.726
223 0 103.131 12.1399 1252 71.3498 1101.28 460.047
224 0 105.167 12.618 1327 70.3888 1100.81 459.231
225 0 108.199 12.0149 1300 71.6408 1100.84 456.351
226 0 110.093 11.572 1274 72.8752 1101.47 456.902
227 0 115.063 13.1494 1513 70.0364 1101.67 456.262
228 0 119.234 13.3771 1595 69.1674 1101.45 454.401
229 1 58.0365 11.0103 639 73.7308 1101.75 481.836
230 0 60.1051 12.395 745 72.1141 1102.01 479.058
231 0 60.0672 10.971 659 73.9211 1102.05 477.815
232 0 63.0748 11.4626 723 73.1563 1101.75 478.31
233 0 66.2172 12.8516 851 70.4348 1101.56 478.687
234 0 66.2041 11.2531 745 73.4859 1101.79 475.871
235 0 69.0813 11.8411 818 72.3252 1102.11 474.292
236 0 72.0553 11.9075 858 71.711 1101.65 476.706
237 0 74.1554 12.0288 892 71.2388 1101.3 473.984
238 0 76.0398 12.3751 941 70.6621 1101.4 473.252
239 0 78.1677 12.3069 962 71.2245 1101.08 470.063
240 0 80.1288 12.8044 1026 70.5273 1101.25 468.653
241 0 83.1637 13.4554 1119 69.2958 1101.52 467.953
242 0 85.1329 11.112 946 72.3235 1101.34 467.4
243 0 87.0769 11.5071 1002 72.4321 1100.85 464.477
244 0 88.282 11.6672 1030 72.0932 1100.77 464.098
245 1 46.0465 9.77274 450 73.3044 1100.28 486.276
246 0 46.0204 10.843 499 71.6192 1100.51 487.844
247 0 49.0308 10.9931 539 72.0074 1100.81 485.301
248 0 51.084 11.4126 583 70.8559 1100.61 483.403
249 0 52.0298 10.7246 558 71.7545 1100.77 481.452
250 0 53.0709 12.2666 651 70.1951 1101.13 480.467
251 0 54.0626 11.0428 597 71.6399 1101.41 479.869
252 0 56.0579 12.1125 679 70.1517 1101.68 479.605
253 0 57.0663 11.5129 657 70.5175 1101.81 481.193
254 0 60.0594 13.087 786 67.8919 1101.36 480.338
255 0 61.051 12.0391 735 69.1075 1100.81 480.63
256 0 62.038 11.8315 734 70.7275 1100.95 478.278
257 0 65.0612 11.2048 729 69.9492 1100.38 480.406
258 0 67.0833 13.2373 888 67.3682 1101.35 477.577
259 0 68.0799 11.1633 760 70.9132 1101.58 476.43
260 0 69.0564 12.0192 830 70.1096 1101.39 476.264
261 0 72.0533 13.143 947 68.301 1101.56 473.487
262 0 75.0415 12.713 954 68.5136 1101.26 473.05
263 0 78.1164 13.0062 1016 67.5758 1101.53 473.159
264 0 80.1 12.6841 1016 68.6201 1100.36 470.844
265 0 79.0443 11.5884 916 71.2413 1100.76 470.477
266 0 84.139 12.4556 1048 69.5716 1101.2 469.094
267 0 85.0746 11.9895 1020 70.1657 1100.67 468.81
268 1 46.0319 10.8838 501 70.4052 1100.48 486.261
269 0 46.0418 10.1212 466 71.2339 1101.23 487.163
270 0 49.0352 12.1953 598 68.0569 1101.54 485.635
271 0 49.0209 11.3625 557 69.526 1101.58 485.233
272 0 50.0693 11.8835 595 68.7143 1101.49 484.632
273 0 52.0222 12.264 638 68.0345 1101.13 483.76
274 0 55.0092 13.4887 742 66.4097 1101.37 482.139
275 0 57.032 12.2387 698 68.2436 1101.43 480.851
276 0 58.0462 12.1972 708 68.185 1101.15 480.73
277 0 61.0696 13.8039 843 66.0842 1101.59 479.814
278 0 61.038 13.68 835 67.1533 1100.94 477.97
279 0 63.1392 12.4012 783 68.7433 1100.62 478.861
280 0 65.0734 13.4925 878 66.7289 1100.79 478.95
281 0 68.0787 13.3081 906 67.1313 1100.64 477.513
282 0 68.1633 11.8099 805 70.5938 1100.36 476.271
283 0 72.1444 13.6948 988 66.3836 1099.85 475.719
284 0 74.1378 14.3112 1061 66.3091 1099.6 473.271
285 0 75.0653 12.5624 943 68.8006 1099.29 473.946
286 0 78.0974 12.2923 960 69.6729 1099.73 471.067
287 1 39.0279 9.96722 389 72.6324 1100.3 489.054
288 0 40.032 12.7898 512 68.9883 1101.14 487.869
289 0 42.026 10.6601 448 71.1295 1101.02 488.228
290 0 44.0461 11.9193 525 69.4343 1101.24 487.404
291 0 44.0299 12.8095 564 68.5053 1101.12 486.371
292 0 45.0649 12.9369 583 68.9039 1101.29 486.899
293 0 48.0184 13.4948 648 66.8611 1100.94 486.309
294 0 47.028 12.7796 601 69.4093 1100.97 486.025
295 0 49.0207 12.0765 592 69.6385 1101.13 487.12
296 0 50.0246 11.9541 598 70.7692 1100.72 483.686
297 0 52.0509 12.9873 676 69.0902 1101.11 483.149
298 0 53.055 13.2504 703 69.3698 1101.43 481.688
299 0 55.046 13.2071 727 69.4209 1101.89 480.221
300 0 57.0387 13.2892 758 69.7216 1101.18 479.38
301 0 58.1136 12.3379 717 71.6416 1101.64 480.582
302 0 58.0664 11.9691 695 72.8273 1101.16 478.856
303 0 60.0357 12.7757 767 71.2673 1100.95 478.295
304 0 62.0404 12.5241 777 71.8983 1101.1 477.75
305 0 65.1611 12.3386 804 71.6306 1100.85 476.537
306 0 65.0908 12.5824 819 71.7717 1101.24 477.377
307 0 65.1098 11.2425 732 74.7568 1101.24 476.275
308 0 68.1853 12.73 868 72.53 1101.46 474.45
309 0 72.0923 13.4966 973 70.9949 1101.41 472.441
310 0 75.0566 12.8303 963 71.4174 1100.44 472.846
311 1 36.0142 10.7458 387 74.0956 1101.12 492.354
312 0 38.1581 9.87996 377 76.3952 1101.1 490.143
313 0 38.1241 9.20677 351 78.6211 1101 489.103
314 0 40.0985 11.0977 445 75.4607 1100.67 487.631
315 0 42.0166 9.75806 410 77.6049 1100.68 487.834
316 0 43.0374 11.0834 477 75.847 1100.49 485.164
317 0 47.2811 11.6537 551 73.3757 1100.42 483.88
318 0 46.0967 12.3002 567 74.3633 1100.32 481.388
319 0 49.1013 11.6697 573 74.4695 1100.25 483.916
320 0 50.123 10.7136 537 76.5773 1100.13 481.808
321 0 50.0978 12.1363 608 75.4342 1100.2 479.686
322 0 50.0724 11.4035 571 76.6095 1101.09 481.65
323 0 54.0923 11.8871 643 75.7107 1100.15 479.737
324 0 54.0744 10.0047 541 78.4677 1099.97 480
325 0 57.12 11.4846 656 76.0412 1100.25 478.372
326 0 60.1156 12.8586 773 73.1371 1100.37 477.384
327 0 60.076 11.9349 717 74.8898 1100.59 478.841
328 0 62.0587 11.9403 741 75.1997 1100.14 476.73
329 0 63.1941 11.2985 714 76.9664 1099.94 475.443
330 0 68.0769 11.8102 804 74.7189 1099.72 475.358
331 0 70.0997 12.1113 849 74.1979 1100.19 474.135
332 0 70.0562 11.7192 821 75.9294 1100.76 471.34
333 0 73.0825 13.2727 970 72.7639 1100.28 471.358
334 1 36.0205 11.1048 400 76.1025 1100.57 488.925
335 0 39.0525 11.9583 467 74.1756 1100.6 488.64
336 0 40.0461 11.312 453 75.0684 1101.36 489.821
337 0 41.0692 11.5902 476 75.1912 1101.98 487.977
338 0 44.0697 11.8449 522 73.8908 1101.67 487.703
339 0 43.0194 11.367 489 75.1391 1101.01 488.115
340 0 45.0225 12.3716 557 73.0592 1101.66 488.018
341 0 48.0234 13.4518 646 71.0464 1102.12 485.444
342 0 51.079 12.373 632 71.6756 1102.41 486.122
343 0 53.1343 14.3975 765 68.4627 1102.04 482.422
344 0 50.0423 12.1897 610 73.5918 1101.92 482.511
345 0 56.0778 12.9463 726 70.7438 1101.93 482.5
346 0 54.0262 11.5129 622 74.3842 1101.35 480.952
347 0 56.0331 12.4391 697 72.7862 1100.97 480.165
348 0 59.0848 12.5921 744 71.7056 1100.94 478.566
349 0 61.0385 12.7952 781 71.4174 1100.38 478.519
350 0 62.0579 13.1329 815 71.0761 1100.58 477.398
351 0 64.1042 11.3877 730 73.1575 1100.54 477.266
352 0 65.0551 13.2657 863 70.7045 1100.34 474.561
353 0 67.0919 13.7424 922 69.2061 1100.38 474.725
354 0 69.0935 12.1719 841 71.4518 1101.01 472.144
355 0 72.1298 12.1586 877 71.2406 1101.59 469.495
356 0 73.0766 11.9053 870 71.5759 1101.85 472.766
357 1 39.0186 10.6616 416 68.7716 1101.19 490.988
358 0 39.0468 11.1405 435 68.9609 1100.42 487.779
359 0 42.0678 10.6733 449 68.3408 1101.09 488.964
360 0 41.0088 10.5343 432 69.3148 1101.11 488.47
361 0 44.0639 11.3926 502 67.8984 1101.68 487.365
362 0 46.0492 13.0947 603 65.0282 1101.25 487.75
363 0 47.0393 11.0333 519 69.1657 1101.7 487.769
364 0 49.0676 12.656 621 66.2319 1101.57 487.308
365 0 49.0526 11.1717 548 68.5639 1100.61 487.703
366 0 50.0629 10.8264 542 70.1661 1101.07 487.035
367 0 52.1245 11.0121 574 70.4861 1100.91 484.47
368 0 54.0617 11.1909 605 69.4661 1101.05 483.104
369 0 56.1502 11.6295 653 68.3338 1101.15 484.519
370 0 59.1148 12.4334 735 66.8 1100.61 482.956
371 0 60.166 13.2301 796 66.2437 1100.35 479.899
372 0 60.1981 11.296 680 69.7074 1100.75 478.134
373 0 61.1041 12.6342 772 67.9106 1100.46 478.772
374 0 63.0596 10.7993 681 70.6432 1100.54 477.791
375 0 66.1215 12.0082 794 68.6599 1100.73 475.948
376 0 67.1014 10.0594 675 72.2074 1100.89 474.49
377 0 69.1802 11.405 789 70.2091 1100.79 473.719
378 0 71.0761 10.3832 738 72.4919 1100.41 470.862
379 1 39.0227 10.4042 406 69.968 1100.98 489.562
380 0 39.0518 10.166 397 71.0353 1101.4 489.295
381 0 41.0426 10.2333 420 70.4452 1101.45 490.012
382 0 40.0708 10.5563 423 71.0378 1100.78 487.913
383 0 43.0767 11.7233 505 69.204 1100.97 487.081
384 0 44.0534 13.5517 597 66.1273 1101.18 487.764
385 0 43.1147 10.0662 434 71.9009 1101.19 486.479
386 0 47.1587 12.0656 569 67.652 1101.16 487.826
387 0 50.1104 10.6964 536 70.6455 1101.05 485.371
388 0 51.052 11.4785 586 69.5205 1101.12 484.193
389 0 51.0902 12.84 656 68.3506 1101.37 483.508
390 0 52.0539 10.9118 568 70.9278 1101.11 483.127
391 0 54.0397 11.4545 619 69.979 1101.59 480.488
392 0 57.0941 13.5215 772 66.4702 1101.84 479.661
393 0 58.0888 10.7594 625 70.008 1101.44 481.197
394 0 61.0756 10.8718 664 69.5542 1100.99 479.364
395 0 64.0426 12.5698 805 67.0447 1101.4 479.116
396 0 66.072 11.321 748 68.0709 1100.92 478.27
397 0 68.1551 12.1488 828 66.8092 1101.26 478.841
398 0 69.1113 11.4308 790 68.3241 1101 474.696
399 0 71.0888 11.6333 827 68.0399 1101.01 474.421
400 0 73.0757 11.3855 832 67.5769 1101 476.756
401 1 40.047 11.5115 461 66.6269 1100.79 491.614
402 0 41.0166 11.4832 471 66.6624 1101 490.272
403 0 41.1572 10.9823 452 68.25 1100.29 489.936
404 0 41.0209 10.5312 432 69.8681 1100.53 490.095
405 0 44.0176 11.7453 517 69.3366 1100.42 487.443
406 0 48.0395 13.1142 630 65.1825 1100.78 487.657
407 0 47.0437 12.1589 572 67.4301 1101.17 486.771
408 0 50.0206 12.4349 622 66.4116 1100.95 486.08
409 0 52.0611 11.2752 587 67.3492 1101.08 487.257
410 0 53.156 11.1182 591 67.9272 1101.07 485.897
411 0 54.0892 11.3701 615 67.7285 1101.35 485.02
412 0 56.1114 11.1029 623 68.2889 1102 483.377
413 0 58.1236 12.1293 705 66.8794 1101.79 481.899
414 0 60.058 12.1882 732 67.026 1101.67 481.432
415 0 60.0199 12.4292 746 66.8767 1102.03 479.945
416 0 63.1584 12.6349 798 66.2143 1102.52 479.589
417 0 64.0847 12.8268 822 66.1813 1102.3 479.392
418 0 65.0621 11.635 757 68.1783 1102.17 477.412
419 0 68.0388 12.9338 880 66.2602 1101.59 477.165
420 0 69.0485 11.8178 816 67.7549 1101.45 476.502
421 0 71.0414 11.81 839 67.615 1101.82 476.605
422 0 74.1297 12.3432 915 66.5224 1101.01 474.977
423 0 77.118 13.9786 1078 64.2096 1101.1 473.305
424 0 79.0741 13.7466 1087 64.31 1101.42 473.619
425 1 40.0106 10.9471 438 68.1872 1100.67 491.361
426 0 42.029 11.7538 494 68.3462 1100.74 489.589
427 0 41.0393 10.8676 446 70.4439 1100.92 489.386
428 0 43.0386 12.0822 520 68.3712 1101 488.527
429 0 46.0463 13.8122 636 64.8475 1100.82 487.653
430 0 44.0407 10.9671 483 70.4431 1100.97 487.516
431 0 50.0338 12.6115 631 66.4073 1100.95 487.062
432 0 47.0851 11.7022 551 69.4537 1100.83 485.345
433 0 50.1243 11.6111 582 68.7509 1100.44 485.952
434 0 54.0874 13.0344 705 66.2553 1101 485.136
435 0 53.084 12.0752 641 67.8658 1100.51 485.8
436 0 56.1007 12.5845 706 67.2904 1101.09 484.109
437 0 58.0705 13.7764 800 65.9963 1100.81 482.204
438 0 58.0825 12.6716 736 67.6753 1100.74 482.287
439 0 61.0314 13.5832 829 66.7491 1100.72 480.054
440 0 62.0831 11.0658 687 70.294 1101.03 479.737
441 0 64.1033 12.0431 772 68.8756 1100.92 478.538
442 0 67.1835 13.4855 906 66.0839 1100.88 478.304
443 0 70.118 12.8355 900 66.5033 1101.08 480.126
444 0 70.088 12.9694 909 67.505 1100.77 476.875
445 0 72.1277 12.464 899 68.4549 1100.91 475.307
446 0 76.164 13.9042 1059 66.3239 1100.99 474.058
447 0 79.0685 14.2155 1124 65.5427 1101.98 475.065
448 1 42.0198 12.3989 521 71.1785 1101.46 488.952
449 0 43.0352 12.362 532 70.968 1101.7 490.239
450 0 44.0204 13.8345 609 69.9622 1101.5 490.2
451 0 46.0534 13.7666 634 69.2476 1101.46 489.8
452 0 46.0364 12.4901 575 73.1148 1102.31 486.861
453 0 48.0197 12.6823 609 72.6535 1101.44 487.967
454 0 51.048 12.9486 661 71.4826 1102.05 486.679
455 0 51.0309 12.8158 654 72.0902 1100.99 485.607
456 0 54.0374 13.6017 735 71.1456 1101.42 483.796
457 0 55.0291 13.3566 735 71.6925 1101.77 484.509
458 0 56.138 12.7365 715 72.7301 1101.77 482.947
459 0 59.0233 14.7569 871 69.5993 1101.36 482.129
460 0 61.0665 13.8701 847 70.3849 1101.4 483.264
461 0 62.1116 13.5241 840 71.7964 1101.98 480.605
462 0 63.059 14.8749 938 70.0149 1102.11 478.191
463 0 66.0349 14.0683 929 70.7696 1101.71 478.177
464 0 68.1773 13.6116 928 71.6487 1101.79 477.287
465 0 70.1085 14.934 1047 69.8395 1101.69 475.525
466 0 70.0623 13.174 923 72.9545 1101.65 476.156
467 0 71.1081 11.9677 851 75.2197 1101.16 473.645
468 0 77.1843 13.0726 1009 71.5223 1101.38 476.92
469 0 78.0794 14.5237 1134 70.6376 1101.66 472.462
470 0 82.0504 15.137 1242 68.872 1100.64 472.899
471 0 83.0869 14.0335 1166 71.2024 1100.31 470.16
472 1 46.0522 12.2035 562 73.8274 1100.05 488.407
473 0 46.0807 11.9139 549 74.5373 1100.16 488.794
474 0 48.0133 12.0175 577 75.9688 1100.33 485.627
475 0 50.0374 13.0303 652 73.135 1100.85 487.072
476 0 52.0322 13.3379 694 72.6297 1100.52 486.024
477 0 53.1165 12.2561 651 74.9447 1100.58 484.905
478 0 55.0167 12.887 709 72.9535 1101.09 484.214
479 0 58.1053 14.4049 837 70.9223 1101.68 483.473
480 0 58.0507 12.9542 752 74.1649 1101.37 482.336
481 0 62.1096 14.3295 890 71.1854 1101.69 479.713
482 0 61.0379 13.1066 800 74.2175 1101.58 479.06
483 0 66.0475 14.6713 969 70.2136 1102.12 479.646
484 0 67.0705 14.1344 948 71.5696 1101.56 477.599
485 0 70.0365 15.5776 1091 69.6948 1101.49 474.907
486 0 73.0708 14.2875 1044 71.3324 1101.55 475.44
487 0 75.1132 14.0455 1055 72.0284 1101.76 472.583
488 0 77.0252 14.2291 1096 71.8339 1101.92 472.775
489 0 77.0457 12.2135 941 75.6674 1101.98 471.982
490 0 81.0522 14.0897 1142 72.5429 1101.88 469.41
491 1 41.1048 11.3855 468 75 1101.59 489.224
492 0 43.047 11.9404 514 73.8093 1101.68 489.669
493 0 46.0776 13.0432 601 71.9218 1102.1 487.579
494 0 45.06 12.8717 580 73.6879 1101.89 487.591
495 0 48.0438 11.8434 569 74.5782 1102.17 485.958
496 0 48.0611 12.9002 620 73.4984 1101.35 485.066
497 0 49.05 11.682 573 75.4241 1100.98 484.321
498 0 52.0527 13.3519 695 72.0317 1100.85 483.682
499 0 53.0391 13.0847 694 72.1599 1100.8 482.939
500 0 54.0325 12.8071 692 71.9928 1101.24 484.15
501 0 56.1303 13.148 738 71.4404 1101.36 482.879
502 0 57.0803 12.7014 725 72.771 1101.97 480.823
503 0 58.0559 11.8334 687 73.6477 1102.22 480.194
504 0 62.1192 12.3955 770 72.2494 1102.06 479.378
505 0 64.0743 12.8445 823 71.3827 1101.82 479.16
506 0 66.1066 11.8596 784 72.4056 1101.34 476.761
507 0 69.1019 12.7348 880 70.5784 1101.38 475.007
508 0 69.0739 11.8134 816 72.3578 1100.91 474.554
509 0 72.0629 11.9895 864 71.5278 1101.64 474.606
510 0 76.0936 13.7199 1044 68.8343 1101.61 472.239
511 0 78.0439 12.5314 978 70.6748 1102.27 470.94
512 1 41.0561 10.8632 446 69.5717 1102.41 491.016
513 0 41.0251 9.872 405 72.6272 1102.39 489.286
514 0 43.0455 10.6631 459 71.8344 1102.78 487.266
515 0 45.0389 11.1459 502 70.3765 1102.5 488.094
516 0 45.0265 11.9263 537 69.9274 1102.74 486.598
517 0 47.0334 12.523 589 70.4975 1101.94 485.204
518 0 46.0754 11.6765 538 73.1673 1102.02 483.604
519 0 50.0343 12.0118 601 71.4409 1101.95 483.454
520 0 52.0828 12.6337 658 70.6049 1101.62 482.571
521 0 55.0873 14.1412 779 67.6252 1101.59 481.837
522 0 53.1123 11.7299 623 72.1236 1101.69 481.395
523 0 57.032 13.0628 745 69.7745 1101.53 479.772
524 0 57.073 10.9509 625 72.752 1101.42 481.536
525 0 58.0522 10.9901 638 73.3103 1101.96 480.458
526 0 61.0657 12.3146 752 70.8684 1101.61 478.934
527 0 65.1207 12.8838 839 69.2145 1101.93 478.669
528 0 65.0476 11.4685 746 72.0469 1101.47 477.48
529 0 67.0698 12.3155 826 70.8184 1101.63 475.878
530 0 69.0502 12.3823 855 70.4175 1101.49 473.68
531 0 72.0519 12.0746 870 70.7805 1101.09 473.118
532 0 73.0452 13.1289 959 69.8425 1100.78 471.141
533 0 78.1175 13.0317 1018 68.9548 1101.16 471.78
534 0 80.0818 11.763 942 70.9522 1100.41 469.76
535 0 81.0666 10.6456 863 71.9224 1100.57 470.868
536 0 84.0904 12.2012 1026 70.4464 1100.39 465.261
537 0 88.0923 12.5777 1108 69.6679 1100.77 464.12
538 0 91.1156 11.8202 1077 70.65 1101.95 464.742
539 1 48.0359 9.47207 455 70.1648 1102.17 487.692
540 0 52.0174 11.8807 618 66.4353 1101.88 484.992
541 0 50.0284 8.97491 449 71.4053 1101.74 483.488
542 0 52.0304 11.2434 585 68.6274 1101.5 481.149
543 0 51.1133 7.78662 398 71.9548 1101.43 480.198
544 0 57.0773 11.7385 670 66.3746 1101.33 478.166
545 0 59.012 11.2519 664 66.9654 1101.19 478.22
546 0 60.07 9.97169 599 68.5109 1100.69 477.993
547 0 59.0514 8.72121 515 71.0777 1101.58 475.553
548 0 65.0287 10.9798 714 66.8922 1101.3 476.19
549 0 65.0784 9.95723 648 69.2577 1101.37 471.569
550 0 68.1289 12.9754 884 65.2771 1101.59 471.033
551 0 70.0786 11.4443 802 67.48 1101.64 469.522
552 0 74.0546 11.5995 859 66.3527 1101.5 470.555
553 1 37.0405 10.421 386 66.0959 1101.14 488.104
554 0 36.0272 9.35406 337 66.4184 1101.11 490.754
555 0 39.0182 11.7637 459 63.5447 1101.04 487.908
556 0 38.0434 9.46288 360 67.3472 1101.38 488.119
557 0 40.009 11.0975 444 65.1869 1101.72 485.955
558 0 41.0467 10.3053 423 66.0378 1101.14 485.336
559 0 43.1308 11.5463 498 63.9337 1101.46 485.03
560 0 46.0204 10.2346 471 65.2505 1101.57 485.372
561 0 47.0197 10.8253 509 64.2338 1101.22 485.385
562 0 50.0741 12.0022 601 61.9018 1101.43 484.987
563 0 51.058 11.7905 602 63.2708 1101.05 483.349
564 0 51.0378 10.9723 560 64.4304 1100.61 484.141
565 0 52.0358 11.0501 575 64.6835 1100.93 482.233
566 0 53.0131 9.56367 507 66.5207 1100.56 482.722
567 0 56.0634 11.1124 623 64.4462 1100.65 482.13
568 0 57.046 14.76 842 59.6164 1100.89 481.423
569 0 59.1044 11.7758 696 63.7486 1100.54 477.747
570 0 61.0478 11.0897 677 64.3988 1100.56 479.908
571 0 62.0288 11.1078 689 64.6909 1101.21 477.935
572 0 64.0348 13.2428 848 61.8255 1101.48 476.541
573 0 64.0506 10.804 692 65.8685 1101.01 474.042
574 0 68.2013 11.9499 815 63.4209 1101.38 474.461
575 0 70.1294 11.4788 805 64.282 1101.23 473.8
576 0 72.1807 12.8428 927 62.1467 1101.3 472.435
577 0 73.1427 12.209 893 63.7368 1101.24 471.323
578 1 38.0465 10.6711 406 65.3128 1101.06 489.365
579 0 38.0673 9.92979 378 67.791 1101.2 487.042
580 0 41.069 10.3971 427 66.2529 1100.97 485.794
581 0 42.1539 12.4781 526 63.6008 1100.99 485.198
582 0 42.068 11.0535 465 65.6796 1100.6 483.378
583 0 44.0428 12.4424 548 63.5912 1100.4 483.989
584 0 44.0171 11.5864 510 66.202 1099.82 483.341
585 0 46.0505 11.4874 529 65.724 1099.87 482.682
586 0 47.0244 9.95228 468 68.3291 1100.17 482.19
587 0 49.0677 10.9441 537 67.121 1100.54 480.164
588 0 51.2731 12.8332 658 63.8009 1100.41 483.722
589 0 50.2299 11.2085 563 67.1172 1100.05 481.549
590 0 54.0429 11.7314 634 65.8281 1100.59 482.793
591 0 54.0298 12.2895 664 66.8208 1100.64 479.381
592 0 56.0651 11.1299 624 67.4647 1100.83 480.276
593 0 57.1498 10.3762 593 69.0051 1100.62 479.524
594 0 58.23 12.5537 731 66.5499 1100.76 476.383
595 0 61.0615 13.2981 812 65.3645 1100.4 475.755
596 0 63.1306 12.0544 761 66.8725 1100.61 474.25
597 0 65.1084 11.6575 759 67.332 1100.28 477.117
598 0 68.1721 13.774 939 64.295 1100.56 474.922
599 0 69.0535 12.1934 842 67.0131 1100.3 473.274
600 0 71.1312 12.6667 901 66.1587 1100.44 472.458
601 0 73.146 12.8784 942 65.7951 1100.96 474.443
602 0 76.0778 14.4457 1099 63.4595 1100.91 470.203
603 1 36.0754 9.8405 355 69.9634 1100.68 489.856
604 0 39.1012 11.4575 448 68.6473 1100.51 487.045
605 0 39.1236 11.3486 444 67.7365 1100.77 488.791
606 0 43.1764 11.3719 491 67.2627 1100.77 487.658
607 0 43.2438 12.5105 541 67.5508 1101.05 484.482
608 0 45.044 13.2093 595 66.3782 1101.11 483.671
609 0 46.1182 11.7958 544 67.8879 1100.66 483.526
610 0 48.1668 12.519 603 66.3532 1100.93 482.882
611 0 50.0958 11.8573 594 67.0387 1100.74 483.259
612 0 52.125 13.0264 679 65.2342 1101 482.554
613 0 53.1601 13.4876 717 65.2748 1101.13 481.008
614 0 54.1307 12.7284 689 66.193 1100.38 482.033
615 0 55.2029 11.7204 647 67.5935 1100.52 481.791
616 0 58.2082 13.1597 766 65.5392 1100.38 479.477
617 0 59.1112 12.5695 743 66.6608 1100.31 478.081
618 0 58.1067 12.1329 705 68.3844 1100.52 476.085
619 0 62.2269 13.3061 828 66.0181 1100.29 476.361
620 0 63.1561 13.5696 857 65.7526 1100.39 473.838
621 0 65.0905 13.8423 901 65.5283 1100.23 473.341
622 0 66.1161 12.3117 814 68.0553 1100.57 473.645
623 0 71.0672 13.0721 929 66.1324 1100.57 473.251
624 0 72.2025 14.0438 1014 64.9162 1100.53 472.151
625 0 72.1505 12.7373 919 67.2557 1100.27 469.939
626 0 75.1152 11.2893 848 68.7594 1100.44 471.225
627 0 76.1164 11.8109 899 68.8209 1100.49 468.073
628 0 80.0902 11.3372 908 68.8645 1100.64 469.528
629 0 80.1049 12.3213 987 68.385 1100.84 466.897
630 0 87.0615 13.9327 1213 65.6694 1100.52 463.377
631 0 88.1839 12.2812 1083 68.6694 1100.08 463.441
632 1 45.124 11.7897 532 68.8177 1100.52 484.88
633 0 44.1038 10.6794 471 71.7495 1100.68 483.679
634 0 48.0606 11.9641 575 69.487 1100.81 484.113
635 0 49.0437 11.8262 580 70.5 1101.11 481.85
636 0 53.0267 12.6163 669 68.2795 1101.11 483.283
637 0 53.0277 12.3143 653 70.3645 1100.77 479.262
638 0 55.0682 13.0021 716 69.0223 1101.12 480.696
639 0 58.0361 12.5095 726 69.7727 1100.75 478.957
640 0 57.0301 12.6775 723 70.1909 1101.25 479.393
641 0 61.0475 12.351 754 70.2851 1100.82 478.833
642 0 62.0865 11.5967 720 71.3667 1100.27 478.243
643 0 64.0533 13.5044 865 68.9364 1100.51 476.247
644 0 63.0282 12.3278 777 71.4775 1100.38 475.115
645 0 67.0598 11.8402 794 71.233 1100.48 476.537
646 0 70.1434 12.0895 848 70.8078 1100.46 475.08
647 0 72.1526 12.7646 921 69.9837 1100.75 473.402
648 0 74.1295 13.0043 964 69.916 1100.77 471.783
649 0 78.1174 13.1597 1028 69.7053 1100.37 470.259
650 0 76.0557 12.3857 942 72.1083 1100.38 468.801
651 1 42.0246 10.4463 439 72.3303 1099.87 487.44
652 0 44.014 10.9965 484 72.3264 1100.21 485.913
653 0 47.0308 10.2911 484 71.7107 1099.86 487.37
654 0 47.0414 11.1604 525 72.6114 1100.39 484.43
655 0 48.0544 11.7575 565 71.6195 1100.68 485.494
656 0 50.0882 11.9389 598 71.3863 1100.39 483.844
657 0 52.0859 10.9819 572 73.0105 1100.32 481.92
658 0 53.0441 11.613 616 72.0795 1100.17 481.518
659 0 54.1116 11.1436 603 73.2769 1100.03 478.43
660 0 58.0517 12.8851 748 70.0361 1100.03 478.749
661 0 59.1049 12.8923 762 70.063 1100.03 477.929
662 0 60.0609 12.0877 726 72.1846 1100.23 475.753
663 0 64.1315 12.9266 829 70.082 1100.8 476.525
664 0 64.0592 12.2543 785 71.4904 1100.12 475.51
665 0 66.1175 12.0089 794 72.199 1100.4 473.203
666 0 69.1187 13.4407 929 69.5318 1100.63 474.593
667 0 69.1405 12.2504 847 72.0496 1100.88 473.115
668 0 72.0772 12.778 921 71.2106 1100.74 470.818
669 0 75.1031 12.4762 937 71.8687 1100.77 469.848
670 0 77.2105 12.1745 940 71.8894 1100.55 467.902
671 0 81.1044 13.9573 1132 68.7518 1100.63 466.673
672 0 82.0673 13.8667 1138 69.1757 1100.51 465.601
673 0 86.1594 12.8831 1110 70.055 1100.31 463.792
674 1 46.097 12.0398 555 69.7171 1099.92 485.497
675 0 46.1451 9.75185 450 73.5889 1099.79 483.256
676 0 49.1632 11.3703 559 70.4329 1100.36 484.181
677 0 49.1503 10.6001 521 73.2937 1100.23 482.904
678 0 51.0597 11.8685 606 71.3911 1100.01 481.637
679 0 52.0914 10.2128 532 73.1372 1100.59 482.132
680 0 54.0739 11.1699 604 71.3162 1100.92 481.103
681 0 55.108 10.8877 600 71.9667 1100.48 479.723
682 0 59.1211 11.857 701 70.3381 1100.58 477.648
683 0 60.0615 11.5049 691 71.152 1100.17 478.34
684 0 62.0821 11.0177 684 71.9532 1099.94 477.589
685 0 65.1348 12.7889 833 69.377 1100.16 474.511
686 0 66.0912 12.1953 806 70.6328 1100.5 474.067
687 0 69.1237 13.6133 941 67.915 1100.54 472.966
688 0 67.0863 12.1485 815 71.411 1100.77 471.146
689 0 69.1512 10.8892 753 72.7888 1100.79 469.661
690 0 74.12 11.9131 883 70.4485 1101.37 469.041
691 0 75.0347 12.8341 963 69.6916 1100.89 467.707
692 0 79.0456 12.3347 975 69.7631 1101.06 467.432
693 0 79.0736 12.1153 958 70.428 1100.78 464.786
694 0 84.1235 12.3271 1037 69.3857 1100.35 465.075
695 0 85.0565 12.2624 1043 70.256 1100.91 464.112
696 0 87.0754 12.3571 1076 70.1822 1100.63 462.585
697 0 91.1202 12.5878 1147 69.1665 1100.46 462.881
698 0 92.1484 11.666 1075 71.08 1100.71 459.634
699 1 46.1933 9.39529 434 73.1475 1101.2 482.931
700 0 47.041 10.2464 482 72.5622 1100.63 480.139
701 0 48.0304 11.576 556 71.2374 1100.45 479.081
702 0 52.0491 12.3537 643 69.8507 1101.2 479.302
703 0 53.0261 12.1261 643 70.5925 1101.19 478.504
704 0 52.063 11.0059 573 73.0855 1100.78 478.113
705 0 55.0407 12.4453 685 70.6774 1100.81 476.225
706 0 55.059 11.6784 643 73.0715 1101.61 474.504
707 0 57.0761 12.5447 716 70.8603 1101.01 475.169
708 0 61.0552 12.1529 742 71.2938 1100.27 471.317
709 0 61.1561 12.1819 745 71.4349 1100.96 471.145
710 0 64.1018 12.5269 803 70.3935 1100.61 470.792
711 0 66.1523 12.5922 833 68.7959 1100.93 468.876
712 0 69.2137 12.9888 899 68.0534 1100.97 467.516
713 0 71.1388 12.6513 900 68.0789 1101.04 469.11
714 0 74.0573 12.5038 926 68.7592 1101.19 463.857
715 0 76.1085 11.7989 898 69.2606 1101.62 466.498
716 0 80.1803 12.8835 1033 68.1907 1101.7 463.49
717 0 81.0398 14.2399 1154 66.6594 1101.55 462.457
718 0 82.1104 11.8986 977 70.1116 1101.88 463.604
719 1 42.0221 10.2803 432 71.1435 1101.37 483.382
720 0 42.0145 10.4726 440 71.7 1101.35 482.443
721 0 46.1514 11.3323 523 69.2447 1101.3 482.654
722 0 46.0316 12.0352 554 70.0361 1101.35 480.325
723 0 47.0397 12.1174 570 69.2175 1100.97 480.732
724 0 50.0474 11.9886 600 69.3517 1100.78 479.678
725 0 51.131 12.3604 632 68.9525 1100.34 479.932
726 0 52.1487 11.3138 590 70.9356 1100.45 480.575
727 0 55.0528 12.3699 681 69.3186 1100.71 479.206
728 0 55.1076 12.3214 679 70.9043 1100.32 476.788
729 0 57.0733 13.0709 746 69.6957 1100.23 474.689
730 0 59.065 12.0037 709 71.1453 1100.13 474.873
731 0 62.1123 14.345 891 67.6745 1100.14 474.842
732 0 63.0849 13.2361 835 69.4036 1100.71 473.582
733 0 64.0463 11.804 756 72.1693 1100.03 472.266
734 0 69.0735 13.5363 935 68.2952 1099.73 471.619
735 0 70.0947 12.4118 870 71.5046 1100.14 469.785
736 0 71.0851 12.5905 895 71.3397 1100.62 468.894
737 0 74.1691 12.6468 938 71.3081 1100.44 469.092
738 0 76.2383 13.4053 1022 70.5431 1100.17 467.539
739 0 79.0729 12.4442 984 71.6494 1100.25 466.918
740 1 39.0499 10.3457 404 71.0767 1099.77 487.114
741 0 41.0154 12.0686 495 69.9354 1099.7 485.17
742 0 42.0571 10.462 440 72.1477 1099.68 485.42
743 0 42.0188 11.1617 469 73.1173 1100.09 482.93
744 0 43.0347 11.4326 492 72.5894 1100.23 482.608
745 0 46.015 12.4524 573 70.4887 1100.2 482.007
746 0 47.0538 11.6462 548 72.0055 1100.76 480.79
747 0 50.0754 12.7807 640 69.1359 1100.65 478.909
748 0 50.0442 12.6288 632 70.1361 1101.49 479.184
749 0 52.0719 12.6748 660 69.4909 1100.7 476.588
750 0 55.0349 12.1923 671 69.4128 1100.79 476.106
751 0 57.0567 13.4428 767 67.2725 1100.41 475.98
752 0 56.094 12.8713 722 68.8518 1100.15 475.989
753 0 59.0814 12.9313 764 67.9974 1100.56 474.232
754 0 59.0692 11.2241 663 71.0739 1100.28 472.261
755 0 60.0826 11.5841 696 70.3851 1100.5 472.838
756 0 63.1004 11.3629 717 70.484 1100.2 471.898
757 0 67.0493 13.3484 895 67.3251 1100.61 469.508
758 0 67.0968 12.4149 833 68.946 1100.27 468.409
759 1 36.0607 11.2311 405 67.284 1100.26 486.553
760 0 36.0754 11.5037 415 66.9301 1100.35 487.217
761 0 36.0237 11.4647 413 68.2881 1100.54 485.123
762 0 37.0298 11.2612 417 68.7578 1100.36 485.314
763 0 38.0377 10.8314 412 67.9709 1100.8 484.638
764 0 42.0336 12.49 525 64.4114 1100.74 484.667
765 0 43.0571 10.8228 466 67.9464 1101.1 484.034
766 0 43.0816 11.397 491 67.2831 1101.28 483.912
767 0 42.0655 11.5534 486 67.9033 1100.59 481.288
768 0 45.07 11.4932 518 67.7954 1100.55 482.402
769 0 49.0182 12.9748 636 64.9906 1100.83 480.275
770 0 50.0718 11.8829 595 65.684 1100.06 481.429
771 0 51.0364 10.757 549 67.5647 1100.45 480.681
772 0 53.1076 12.3711 657 65.9285 1100.87 478.397
773 0 54.1485 14.2756 773 63.0013 1101.2 477.846
774 0 55.0417 12.972 714 64.6611 1101.05 475.088
775 0 57.0335 11.9404 681 65.1028 1100.33 478.903
776 0 58.0325 11.8037 685 66.3489 1099.66 476.877
777 0 62.045 12.0235 746 64.2373 1099.69 476.434
778 0 62.0329 12.171 755 63.9404 1099.85 475.967
779 0 65.0353 10.1483 660 66.3818 1100.01 474.645
780 0 68.1011 13.2303 901 62.283 1099.81 471.815
781 0 68.1044 11.8788 809 64.2732 1100.64 469.85
782 1 38.1494 12.4248 474 63.9241 1100.43 485.726
783 0 37.0407 11.1229 412 66.4563 1100.83 485.534
784 0 41.0799 10.3457 425 65.8894 1100.63 486.447
785 0 42.041 12.3689 520 63.7442 1100.55 484.929
786 0 44.0539 12.1896 537 63.9423 1100.58 484.104
787 0 45.0647 12.5597 566 63.4223 1100.53 483.147
788 0 46.0168 11.9304 549 64.5082 1100.64 480.736
789 0 48.0678 11.463 551 64.8584 1100.32 480.664
790 0 47.0355 10.9917 517 65.6538 1100.38 480.878
791 0 48.0241 11.6192 558 64.9713 1100.14 479.491
792 0 52.0989 13.4168 699 62.1102 1100.35 476.671
793 0 54.1294 11.7311 635 63.8976 1100.69 478.891
794 0 55.0568 14.5123 799 61.0751 1100.88 476.856
795 0 57.1157 12.536 716 63.0712 1100.65 477.521
796 0 58.0286 13.3555 775 62.8619 1100.99 473.986
797 0 61.0586 14.2814 872 61.1525 1100.9 474.541
798 0 62.035 12.4123 770 64.0117 1100.13 472.735
799 0 65.0563 12.8658 837 63.2019 1100.13 473.857
800 0 68.1047 14.1987 967 60.9069 1100.71 473.905
801 0 70.0648 13.5303 948 62.2563 1100.53 471.085
802 0 71.086 12.3372 877 64 1101.04 472.005
803 0 75.0894 12.4252 933 63.2294 1101.02 471.816
804 1 39.0087 10.3567 404 66.0569 1101.2 487.626
805 0 39.0134 11.4576 447 65.5749 1100.97 485.604
806 0 40.046 11.6366 466 66.7639 1100.68 485.245
807 0 45.0542 12.9844 585 63.559 1100.77 483.904
808 0 46.0784 13.3251 614 63.6857 1101.11 482.669
809 0 47.0698 12.1947 574 65.2003 1100.35 483.274
810 0 47.0533 11.8376 557 67.1724 1100.99 481.244
811 0 50.0598 11.6061 581 68.6265 1101.62 479.134
812 0 50.0388 12.2705 614 67.7068 1101.32 480.603
813 0 54.0291 13.0485 705 67.0298 1101.63 477.396
814 0 55.0842 13.5066 744 66.6156 1101.23 475.62
815 0 58.0836 12.8436 746 67.2105 1101.06 474.802
816 0 60.076 12.9669 779 67.5289 1101.19 472.472
817 0 59.1118 12.9585 766 68.3851 1101.8 473.087
818 0 63.0882 13.0452 823 67.5443 1101.76 475.847
819 0 65.0918 12.8588 837 68.3859 1101.55 472.967
820 0 66.0866 14.0573 929 67.3251 1101.54 471.139
821 0 68.0501 13.2403 901 68.5882 1101.48 470.903
822 0 73.0629 14.4122 1053 66.9544 1101.72 468.538
823 0 72.1029 14.2435 1027 67.7585 1101.05 469.289
824 0 75.0776 15.424 1158 65.6071 1101.35 466.697
825 0 79.0541 12.7887 1011 69.8012 1101.27 467.921
826 0 81.0706 13.3711 1084 69.4613 1101.46 465.871
827 0 82.0468 13.3704 1097 70.3573 1101.12 462.855
828 1 44.0263 10.6527 469 72.8934 1100.67 484.13
829 0 45.1083 11.5056 519 73.264 1100.92 482.568
830 0 47.044 11.8612 558 72.8584 1101.27 483.168
831 0 50.0864 13.2172 662 70.4562 1101.56 481.332
832 0 49.1592 13.2224 650 72.2 1101.49 479.235
833 0 52.0209 12.5142 651 72.6344 1101.65 480.902
834 0 54.0538 12.7836 691 72.5224 1101.19 479.276
835 0 54.0417 13.212 714 73.3922 1101.44 477.501
836 0 58.0654 15.0348 873 69.8786 1101.43 477.474
837 0 61.0709 14.213 868 71.0392 1101.69 476.229
838 0 63.0646 14.5565 918 70.4357 1101.39 476.547
839 0 63.0997 13.6609 862 72.9571 1101.28 473.78
840 0 65.0435 14.2674 928 72.7112 1101.49 471.564
841 0 66.0555 13.8671 916 73.3526 1101.23 472.319
842 0 69.0629 13.8135 954 73.7306 1101.72 472.936
843 0 71.04 14.3159 1017 73.4671 1101.67 470.762
844 0 75.1138 15.0971 1134 72.1605 1101.53 470.004
845 0 78.0739 14.371 1122 73.8316 1101.93 467.717
846 0 80.1281 14.2771 1144 74.1556 1101.63 466.858
847 0 82.062 14.1113 1158 74.5078 1101.56 465.433
848 1 42.0417 10.9891 462 76.5065 1101.23 484.134
849 0 47.0282 12.4181 584 73.2517 1100.61 484.683
850 0 47.0249 12.7379 599 73.0818 1101.36 484.454
851 0 46.1099 13.5112 623 74.3034 1101.04 480.904
852 0 49.0257 12.0957 593 75.43 1100.89 482.017
853 0 51.1402 12.0453 616 74.8442 1100.96 481.412
854 0 52.0479 11.9505 622 75 1101.05 481.6
855 0 53.0264 12.258 650 75.3585 1101.04 478.834
856 0 57.0359 12.8165 731 73.3023 1100.6 479.799
857 0 56.0343 12.4566 698 74.7521 1100.6 476.878
858 0 59.069 12.7478 753 73.4024 1100.69 476.284
859 0 62.0288 11.2851 700 75.3943 1100.98 476.653
860 0 64.0838 12.8894 826 73.4516 1101.66 474.546
861 0 64.0914 12.6694 812 74.5936 1100.76 471.799
862 0 68.0309 12.9794 883 73.2288 1100.78 473.328
863 0 70.0489 12.5341 878 74.967 1100.46 469.917
864 0 74.0756 12.6357 936 73.2863 1100.58 472.665
865 0 75.0495 12.6183 947 74.7181 1101.07 469.086
866 1 39.0395 10.1436 396 74.654 1100.59 486.449
867 0 39.0322 9.68432 378 75.3439 1100.45 486.696
868 0 41.0323 11.1863 459 73.8627 1100.5 484.458
869 0 40.0313 10.4918 420 76.2095 1101.18 483.467
870 0 43.0268 10.5748 455 74.6505 1101.13 485.451
871 0 45.0378 11.6125 523 74.1491 1101.19 482.388
872 0 45.085 10.8684 490 75.6184 1101.5 481.439
873 0 46.0538 11.3997 525 74.6248 1101.44 481.962
874 0 48.027 11.0979 533 75.0131 1101.25 481.075
875 0 50.0463 11.829 592 74.4088 1101.06 478.211
876 0 51.0241 11.4064 582 74.6993 1101.07 479.18
877 0 54.0818 12.4811 675 72.5333 1101.46 478.144
878 0 55.0339 12.3197 678 72.1268 1101.36 477.923
879 0 57.0814 12.964 740 71.3054 1101.36 477.826
880 0 58.0718 10.8314 629 74.6804 1101.73 475.698
881 0 59.0732 12.4591 736 72.3166 1101.52 475.508
882 0 63.0434 12.7848 806 71.7519 1101.53 474.136
883 0 62.0998 10.6925 664 75.0768 1101.5 474.514
884 0 66.0707 11.9872 792 73.6174 1101.25 471.932
885 0 68.0496 12.0941 823 73.5723 1101.69 470.174
886 0 69.0897 13.2002 912 72.0515 1101.12 471.072
887 0 71.1129 10.9966 782 75.9962 1101.15 468.899
888 0 75.1456 12.5357 942 73.7919 1100.85 468.047
889 0 77.1096 12.0089 926 75.1987 1100.5 466.17
890 0 79.1099 12.1477 961 75.3236 1100.25 465.461
891 0 82.1201 12.4695 1024 75.6201 1100.56 464.385
892 1 40.0331 11.0159 441 75.7256 1099.52 483.127
893 0 41.1131 10.5319 433 75.5127 1099.89 484.425
894 0 45.0273 9.92731 447 77.8479 1099.97 482.823
895 0 44.0176 12.6086 555 74.045 1100.28 481.822
896 0 45.0433 10.2346 461 78.0108 1099.91 482.675
897 0 46.0382 11.4036 525 77.1486 1100.42 481.749
898 0 49.0316 11.3396 556 76.7428 1100.12 481.66
899 0 49.0791 11.3083 555 77.4919 1100.4 481.656
900 0 51.0691 12.0425 615 75.8341 1100.2 480.624
901 0 51.0414 11.7356 599 76.9833 1100.91 481.831
902 0 52.0607 12.1013 630 77.6159 1100.68 479.168
903 0 55.0999 11.5427 636 77.9796 1100.42 478.381
904 0 57.0207 12.6621 722 75.59 1100.3 478.529
905 0 60.0933 13.5622 815 74.1571 1100.76 475.531
906 0 60.0106 13.2143 793 75.174 1100.48 476.451
907 0 63.0595 12.8609 811 75.561 1100.41 474.937
908 0 64.0973 12.2002 782 76.8939 1100.6 474.434
909 0 65.07 12.817 834 76.9796 1100.85 471.657
910 0 69.0948 11.9546 826 77.5799 1100.58 471.282
911 0 72.135 12.6845 915 76.1781 1100.38 470.799
912 0 73.1125 12.6244 923 77.1192 1100.9 471.342
913 0 77.0717 12.6895 978 76.6636 1101.36 468.454
914 0 77.05 11.6418 897 79.1761 1100.52 467.659
915 0 79.1085 12.2743 971 78.484 1100.38 465.242
916 0 82.1943 12.6408 1039 77.3821 1100.17 465.424
917 0 85.053 13.7209 1167 75.5501 1099.6 463.215
918 0 87.0305 12.4324 1082 77.6895 1100.16 463.741
919 1 44.0365 11.4223 503 82.2604 1100.36 481.827
920 0 48.0265 13.0969 629 77.903 1100.46 482.176
921 0 49.145 12.7582 627 79.0175 1101.02 480.968
922 0 52.049 12.5459 653 78.4686 1100.87 480.636
923 0 51.0863 13.1346 671 78.8525 1101.21 478.477
924 0 53.0463 12.4231 659 79.5341 1101.26 479.473
925 0 55.0824 12.7627 703 78.2134 1100.97 479.257
926 0 56.0708 13.0014 729 78.2318 1101.11 477.351
927 0 58.0803 13.1714 765 78.166 1101.4 477.626
928 0 60.0844 13.1315 789 77.545 1100.98 478.423
929 0 61.0626 13.1668 804 78.7674 1100.69 475.236
930 0 63.0977 12.8055 808 79.2475 1101.14 474.901
931 0 67.0275 14.3523 962 75.4054 1100.53 475.576
932 0 69.1729 13.8204 956 77.0251 1099.85 470.702
933 0 71.0555 14.0313 997 76.8616 1099.88 471.012
934 0 73.0616 13.3449 975 78.3108 1099.94 471.286
935 0 73.1153 13.4308 982 79.6405 1100.33 466.648
936 1 40.0273 12.6164 505 80.705 1100.27 486.618
937 0 40.0229 13.0675 523 82.0612 1099.85 484.08
938 0 42.0668 11.767 495 83.2485 1099.81 485.368
939 0 43.1484 12.8162 553 82.3816 1100.2 484.452
940 0 46.0716 13.631 628 80.1306 1100.5 483.756
941 0 46.0391 13.2496 610 81.0115 1100.01 483.928
942 0 49.047 12.9875 637 82.0424 1099.73 481.727
943 0 50.0382 13.4098 671 81.5514 1100.37 482.18
944 0 51.1094 13.4613 688 81.7762 1100.23 481.468
945 0 53.1127 14.3845 764 79.8887 1099.84 480.853
946 0 55.096 13.9575 769 79.8414 1099.64 480.678
947 0 57.0846 14.6449 836 78.5754 1099.53 480.553
948 0 56.0387 11.7597 659 84.786 1099.85 480.781
949 0 58.1184 13.2144 768 83.1953 1100.06 477.31
950 0 59.0885 13.8098 816 82.1752 1100.24 476.088
951 0 64.1344 14.6879 942 78.7378 1099.61 477.331
952 0 65.0585 14.756 960 78.8812 1099.61 476.014
953 0 68.0937 15.1115 1029 77.8348 1099.99 475.902
954 0 69.1707 13.0547 903 81.9934 1099.92 474.044
955 0 74.0886 14.2802 1058 77.7268 1099.26 473.345
956 0 76.1056 14.7164 1120 77.4348 1100 470.621
957 0 77.1321 12.5369 967 80.2999 1099.79 473.225
