time division length width area intensity CMx CMy
0 0 68.1422 13.281 905 52.7613 537.499 505.874
1 1 36.0155 9.80135 353 53.6714 537.227 524.436
2 0 36.0211 11.5488 416 52.4567 537.712 522.673
3 0 38.0099 10.7604 409 52.6968 537.797 523.262
4 0 39.0288 11.7862 460 51.787 537.18 523.17
5 0 38.0276 11.7283 446 52.3161 537.534 524.863
6 0 41.0362 11.039 453 51.9514 537.289 523.285
7 0 40.0203 11.6191 465 52.5333 536.525 522.527
8 0 43.0512 12.6826 546 51.3242 535.984 523.925
9 0 43.1007 11.5079 496 53.4093 536.994 521.891
10 0 42.0381 11.7037 492 54.189 536.199 520.614
11 0 46.0726 13.3702 616 51.7078 536.599 521.25
12 0 49.0894 12.8745 632 52.1994 536.71 519.666
13 0 48.1191 13.7575 662 51.3097 536.536 521.27
14 0 49.037 12.5415 615 53.5789 535.735 520.049
15 0 51.0403 13.3032 679 52.4551 536.381 520.345
16 0 53.0508 14.5521 772 51.0505 536.345 520.723
17 0 53.0546 13.3071 706 53.0977 536.068 519.132
18 0 53.0435 13.9885 742 53.7372 536.301 515.625
19 0 54.0396 11.4176 617 56.3339 536.185 516.843
20 0 55.0759 12.3829 682 55.4619 536.435 516.43
21 0 57.0601 13.109 748 55.0214 536.154 513.873
22 0 60.0418 13.2075 793 53.8487 536.42 515.834
23 0 60.0719 12.4018 745 55.2671 536.53 514.166
24 0 64.042 13.3662 856 53.9731 536.994 513.446
25 0 62.0879 13.497 838 55.148 536.914 511.19
26 0 65.0646 17.8899 1164 50.5309 537.175 511.485
27 0 67.0758 13.03 874 55.8238 536.831 510.801
28 0 68.0654 12.3704 842 56.8812 536.606 510.562
29 0 71.0569 14.1436 1005 55.2308 536.838 510.163
30 0 72.1102 13.2436 955 56.5539 536.559 508.051
31 0 73.0376 11.8158 863 57.4403 537.351 510.831
32 0 77.1456 12.6773 978 56.7566 536.541 506.535
33 0 78.1172 13.6718 1068 55.603 536.991 508.174
34 0 81.0644 13.3967 1086 56.8969 538.099 504.387
35 0 85.0424 13.5815 1155 56.8416 538.14 502.9
36 0 85.1 12.5969 1072 58.2826 538.263 502.232
37 1 45.071 12.1808 549 58.0109 537.998 518.53
38 0 49.055 12.7408 625 56.8 538.654 520.242
39 0 50.0816 11.1418 558 58.2401 537.905 521.346
40 0 49.058 11.7412 576 59.2309 538.517 518.227
41 0 52.0573 12.2942 640 57.6328 538.206 518.433
42 0 53.0251 12.1075 642 58.7181 538.453 517.55
43 0 57.0585 12.4083 708 57.7331 538.831 517.055
44 0 59.1131 13.7364 812 56.0948 538.601 516.661
45 0 59.0807 12.7791 755 58.1033 538.672 512.897
46 0 60.0839 13.6642 821 56.9001 538.739 513.107
47 0 62.1221 12.234 760 58.3908 538.854 513.034
48 0 63.0491 10.8646 685 60.3153 539.33 511.753
49 0 66.0561 14.2606 942 57.1943 538.67 510.965
50 0 68.1441 12.6056 859 59.1257 538.614 509.811
51 0 71.0573 11.2867 802 60.2569 539.045 511.228
52 0 71.1057 11.1102 790 61.1089 538.227 508.839
53 0 74.1205 14.382 1066 57.5469 538.469 508.612
54 0 78.1016 12.1764 951 59.9937 538.482 507.192
55 0 79.1548 11.9386 945 61.0942 538.467 505.966
56 1 40.0232 10.269 411 60.0243 538.891 524.589
57 0 39.0307 9.76154 381 61.9528 539.157 524.433
58 0 41.0446 11.1342 457 59.9672 538.516 524.95
59 0 44.0423 12.4199 547 58.702 538.695 522.985
60 0 43.0208 12.7845 550 59.3855 538.482 521.347
61 0 43.0555 11.4736 494 60.5364 538.555 523.324
62 0 49.0204 11.7094 574 58.9756 538.653 522.169
63 0 47.0759 11.3646 535 60.6505 538.002 522.009
64 0 50.0643 12.8635 644 58.663 538.469 520.606
65 0 51.0847 13.0763 668 58.9222 538.792 520.019
66 0 51.1021 12.1326 620 60.5855 538.281 517.927
67 0 52.1247 12.6811 661 59.8865 538.641 518.242
68 0 54.0916 12.0721 653 61.4809 538.458 517.142
69 0 56.0516 13.7195 769 59.1625 538.527 516.319
70 0 55.0568 11.0068 606 63.429 538.686 515.398
71 0 58.0548 11.1963 650 62.7015 538.14 514.769
72 0 59.0587 12.0897 714 61.563 538.682 516.324
73 0 61.0699 11.9535 730 62.063 538.534 513.019
74 0 62.1097 11.4797 713 63.0295 538.13 511.525
75 0 64.0361 12.8209 821 61.5725 537.972 509.106
76 0 69.0881 14.2861 987 59.1692 538.243 510.472
77 0 68.1039 11.9376 813 63.5055 537.855 506.395
78 0 72.0449 12.4783 899 62.1368 537.539 506.715
79 0 74.1047 12.8737 954 62.1761 538.026 505.292
80 0 75.1307 12.6313 949 63.2982 538.005 504.131
81 0 78.0761 13.1282 1025 63.0976 538.43 502.475
82 0 82.0466 14.7233 1208 60.6904 538.776 502.195
83 1 42.0277 10.5407 443 63.1038 539.084 522.869
84 0 42.0904 11.6179 489 62.7055 538.282 522.245
85 0 43.0432 11.5466 497 63.1751 538.702 520.046
86 0 43.0119 10.346 445 64.8674 538.937 522.148
87 0 48.0482 11.8007 567 62.5996 539.799 520.926
88 0 45.0438 12.388 558 64.1667 538.832 517.998
89 0 49.0572 11.6599 572 63.6748 539.096 519.395
90 0 49.038 11.6236 570 63.8842 539.123 518.04
91 0 48.0269 11.7226 563 64.794 539.663 518.925
92 0 53.0351 13.8022 732 60.9235 539.204 516.561
93 0 53.0142 11.2045 594 64.7963 538.907 514.968
94 0 55.0335 12.5378 690 62.6551 539.252 516.726
95 0 57.0637 11.899 679 63.6495 539.457 514.328
96 0 58.0678 12.3304 716 63.5573 539.457 514.582
97 0 57.1336 12.3745 707 64.3423 539.116 513.823
98 0 61.0719 12.5262 765 64.0641 539.105 512.035
99 0 61.0372 11.452 699 65.1516 538.458 512.91
100 0 64.1503 11.8939 763 64.2333 539.035 511.087
101 0 66.0555 12.6712 837 64.1828 538.955 508.918
102 0 68.0315 12.7882 870 64.0333 538.507 507.591
103 0 69.0861 11.0876 766 66.4948 539.367 506.83
104 0 72.0636 13.4464 969 63.2838 539.74 505.001
105 0 72.1141 13.2013 952 64.3435 538.924 502.766
106 0 74.1905 12.1309 900 65.6878 538.468 504.251
107 0 78.0496 11.9283 931 65.2986 539.035 503.1
108 1 40.0355 11.315 453 64.5143 538.901 520.885
109 0 38.1016 10.577 403 66.0744 539.285 520.524
110 0 41.0676 11.3471 466 65.0794 539.509 519.631
111 0 43.0476 11.406 491 64.5499 539.063 519.774
112 0 43.0379 13.8018 594 62.7189 538.993 517.444
113 0 45.0426 11.3226 510 64.8667 539.308 517.869
114 0 48.1526 13.2288 637 62.5149 539.317 517.564
115 0 47.0708 12.2581 577 64.5858 538.896 515.872
116 0 49.0248 12.9118 633 63.9352 539.052 515.585
117 0 50.0209 12.8946 645 63.8915 539.557 514.895
118 0 48.1573 11.4001 549 66.8597 539.699 514.031
119 0 52.0474 11.893 619 65.9435 539.502 512.475
120 0 54.0448 12.7672 690 64.4652 539.586 513.786
121 0 56.0566 13.1653 738 64.0325 539.634 512.451
122 0 58.0742 13.3278 774 63.6434 538.432 510.767
123 0 56.0297 12.2614 687 65.6798 539.507 510.921
124 0 59.0282 12.2484 723 65.397 539.369 511.242
125 0 62.04 12.7176 789 64.6844 539.326 511.337
126 0 62.1643 11.6144 722 66.9778 538.931 509.533
127 0 66.1831 12.5712 832 65.5553 539.345 509.347
128 0 68.1167 12.4345 847 65.9728 539.136 508.041
129 0 70.1721 12.9396 908 66.272 538.703 504.204
130 0 72.1318 13.1426 948 66.2194 538.481 504.611
131 0 76.0568 12.6221 960 66.5917 538.757 504.449
132 0 77.0702 12.5859 970 67.5753 538.119 500.786
133 0 78.0982 13.3934 1046 67.4216 537.97 498.928
134 0 82.158 15.5676 1279 64.3127 538.773 498.568
135 1 40.0399 11.8382 474 67.3017 539.582 521.31
136 0 41.0124 12.7279 522 66.9521 539.157 519.854
137 0 41.037 11.8186 485 69.2412 539.571 519.594
138 0 43.0391 12.477 537 67.7877 539.413 520.155
139 0 42.1207 10.375 437 71.2311 539.375 520.664
140 0 45.0256 12.0154 541 69.9316 539.102 519.013
141 0 48.0556 13.5884 653 68.2098 539.407 516.303
142 0 47.0176 12.5272 589 69.1188 539.762 517.788
143 0 49.0802 12.4694 612 69.683 539.609 516.064
144 0 49.0263 11.504 564 71.9096 539.691 514.401
145 0 54.062 13.503 730 68.4055 539.258 513.307
146 0 53.0747 11.9454 634 71.817 539.756 513.874
147 0 56.1017 13.1012 735 69.8313 539.867 513.493
148 0 58.0324 12.2863 713 70.77 539.547 512.668
149 0 60.0256 12.8279 770 70.1208 540.165 511.266
150 0 64.0422 12.5698 805 70.6534 541.966 508.349
151 0 66.0773 11.9406 789 71.0494 541.152 508.482
152 0 66.1384 12.0959 800 71.605 541.246 506.959
153 0 68.0312 12.2444 833 71.605 540.946 505.574
154 0 71.1207 13.0061 925 70.0508 539.97 505.683
155 0 74.0456 13.5592 1004 69.1743 540.676 502.847
156 0 77.1734 12.7635 985 70.602 540.628 502.44
157 1 39.0276 11.5816 452 69.458 540.79 520.697
158 0 39.0627 11.3919 445 69.7888 540.092 520.973
159 0 41.0816 11.3433 466 70.3412 539.974 517.408
160 0 43.0737 11.6776 503 69.8608 540.839 517.129
161 0 44.0714 12.3663 545 69.5193 540.235 515.565
162 0 43.0366 11.5018 495 70.0889 539.293 518.505
163 0 46.0232 11.4725 528 69.7008 539.545 517.163
164 0 46.0233 11.3638 523 70.0727 540.065 517.017
165 0 47.0708 12.6405 595 68.6521 540.264 515.58
166 0 48.0151 12.3919 595 69.2067 539.718 513.271
167 0 51.0922 11.2346 574 69.7491 539.997 514.505
168 0 51.0687 11.6901 597 69.0653 540.122 514.045
169 0 54.1421 11.5068 623 69.39 539.933 511.655
170 0 53.0459 11.8765 630 69.5476 540.081 511.119
171 0 56.0612 12.9323 725 66.8579 540.226 510.959
172 0 59.1409 12.4618 737 67.403 539.668 508.636
173 0 62.0989 12.7055 789 66.9873 539.791 507.337
174 0 62.0902 12.047 748 68.1163 540.274 506.655
175 0 65.0998 12.4731 812 66.314 540.291 507.261
176 0 67.3838 13.2376 892 65.6906 540.416 504.401
177 0 68.0447 12.433 846 66.708 540.13 503.636
178 0 72.0501 13.6849 986 64.4026 540.382 501.051
179 0 73.1119 12.0227 879 66.4141 540.039 500.686
180 0 78.0629 14.4371 1127 63.0382 539.159 500.258
181 0 79.1253 12.1706 963 66.1713 539.461 496.811
182 0 81.0399 11.0316 894 67.33 538.581 499.317
183 0 85.0306 12.5249 1065 65.677 538.313 497.403
184 0 87.0615 12.3016 1071 65.9664 538.437 494.895
185 1 44.0762 10.7314 473 65.5708 538.061 516.776
186 0 46.0839 10.546 486 65.2593 537.918 516.848
187 0 48.0297 11.4096 548 63.0547 537.98 517.88
188 0 48.0579 11.6526 560 64.1393 537.962 515.211
189 0 50.0158 13.2958 665 62.4977 536.459 513.191
190 0 51.0766 11.3359 579 64.5389 536.648 513.188
191 0 54.1237 12.5823 681 62.2893 536.363 513.485
192 0 55.0215 11.8681 653 62.925 536.11 513.282
193 0 58.021 12.5989 731 61.699 536.506 513.773
194 0 59.0431 11.1275 657 63.4064 536.525 512.661
195 0 59.0476 12.3629 730 62.3425 536.285 511.841
196 0 61.0798 11.5095 703 63.2745 535.845 513.125
197 0 65.1722 11.6154 757 62.8071 536.585 510.91
198 0 66.077 11.2747 745 63.9208 535.705 510.613
199 0 68.1062 11.996 817 62.6169 534.788 509.295
200 0 70.089 10.7292 752 63.984 535.282 511.117
201 0 72.1025 11.0676 798 63.6491 535.35 509.231
202 0 76.0822 13.0122 990 61.5061 535.122 507.234
203 1 38.0962 8.84603 337 64.3739 535.217 525.864
204 0 37.0496 10.4455 387 63.0052 534.972 526.258
205 0 39.0379 11.0149 430 62.6488 535.005 526.316
206 0 41.0847 12.8271 527 60.0019 534.518 524.507
207 0 43.0213 11.6687 502 61.3566 535.388 525.863
208 0 45.0441 12.4767 562 60.5302 534.996 525.699
209 0 46.0223 10.2776 473 63.2664 535.085 525.698
210 0 47.123 11.0562 521 62.8273 535.326 523.785
211 0 47.0302 10.1212 476 64.5168 534.916 523.687
212 0 50.066 12.124 607 61.9226 534.558 521.537
213 0 51.0994 12.9356 661 60.9349 534.097 522.203
214 0 53.083 11.4914 610 61.9672 534.33 524.11
215 0 55.0846 10.5474 581 63.8313 533.759 519.267
216 0 56.0451 13.3464 748 60.4826 533.64 519.547
217 0 58.0372 12.2852 713 61.9229 533.168 519.041
218 0 60.047 10.4751 629 63.6884 533.006 518.2
219 0 63.0906 12.1254 765 61.4222 532.588 516.336
220 0 65.0751 12.4164 808 60.922 533.056 515.839
221 0 66.0435 11.7953 779 62.0988 532.97 512.736
222 0 70.0969 11.7979 827 61.5671 532.68 514.908
223 0 71.0361 11.7968 838 62.0203 532.621 512.805
224 0 75.0403 13.3128 999 60.3784 532.681 509.992
225 0 75.1621 12.0273 904 61.4867 532.78 512.07
226 0 78.0989 12.7146 993 61.1148 532.801 507.095
227 0 81.1356 13.0152 1056 61.3153 532.615 505.565
228 0 82.1312 11.7738 967 62.819 532.548 506.78
229 0 84.117 11.7337 987 62.6768 532.887 506.187
230 1 43.0587 11.7746 507 61.3136 533.02 523.446
231 0 43.0678 12.074 520 61.8231 533.285 522.996
232 0 44.0171 11.0639 487 63.0103 533.16 523.832
233 0 45.0396 10.3909 468 64.1026 533.483 521.066
234 0 47.0182 11.7614 553 62.2495 533.371 522.667
235 0 47.1934 10.8278 511 63.9706 532.689 519.485
236 0 49.1382 11.0505 543 63.1934 533.057 521.201
237 0 50.012 11.9571 598 61.7793 533.778 519.425
238 0 53.131 10.9729 583 62.7136 532.842 517.523
239 0 55.0498 11.7712 648 61.9012 533.715 516.375
240 0 56.069 12.6808 711 61.5879 534.342 515.284
241 0 58.0521 11.8342 687 62.6448 534.335 511.508
242 0 59.0779 12.255 724 62.6796 534.037 512.347
243 0 64.0389 13.5855 870 60.5885 534.066 512.024
244 0 64.077 12.5942 807 62.6555 533.957 510.86
245 0 67.1007 14.2174 954 60.9235 534.26 507.164
246 0 69.062 12.9594 895 62.4883 534.364 507.45
247 0 72.066 14.459 1042 61.0374 534.236 507.33
248 0 74.0596 13.7457 1018 62.2417 534.311 506.265
249 0 77.1416 12.8724 993 63.7382 535.048 505.303
250 0 79.065 12.8375 1015 64.2345 534.391 504.336
251 1 41.0487 11.7665 483 64.1905 534.342 523.298
252 0 42.0127 11.6155 488 64.1209 533.869 523.125
253 0 45.1405 11.6968 528 62.7576 534.888 524.852
254 0 45.0999 10.5765 477 65.4444 534.633 524.841
255 0 48.0144 11.3299 544 64.8603 534.798 522.765
256 0 49.0454 12.0093 589 64.7606 534.711 520.64
257 0 49.0221 12.7698 626 63.877 534.476 521.335
258 0 50.056 11.3673 569 66.536 535.271 519.801
259 0 51.1602 11.5129 589 65.8234 534.988 521.647
260 0 53.0225 12.9945 689 64.2975 534.704 519.56
261 0 55.0995 12.5409 691 64.7106 534.551 519.676
262 0 56.0942 12.6394 709 65.3173 534.375 518.038
263 0 58.0615 12.6762 736 64.9293 534.208 517.726
264 0 61.1263 12.9241 790 64.0367 534.186 518.339
265 0 62.1165 13.9093 864 63.5382 534.116 515.171
266 0 63.0529 13.1953 832 64.7248 533.945 514.639
267 0 67.0749 13.1942 885 63.7164 534.186 515.211
268 0 69.0795 14.3892 994 62.5996 533.596 513.729
269 0 68.0491 12.5938 857 66.0525 533.627 512.239
270 0 72.0873 11.3474 818 66.4144 533.529 514.291
271 0 74.1174 13.3437 989 64.5824 532.928 510.306
272 0 76.1801 11.9585 911 66.3655 533.218 508.899
273 0 78.0872 13.3441 1042 64.763 532.58 505.067
274 0 79.0534 12.131 959 66.5235 532.31 506.589
275 0 84.1404 13.4656 1133 64.5622 532.347 503.777
276 1 44.0782 10.7309 473 65.2622 532.484 525.827
277 0 43.0683 11.0058 474 66.2489 532.686 523.945
278 0 45.1035 11.5734 522 65.1226 532.605 524.324
279 0 46.0353 13.1421 605 63.1736 532.402 524.648
280 0 48.1467 10.3226 497 67.0121 532.541 524.569
281 0 49.0272 11.0959 544 65.7831 532.149 524
282 0 51.0313 11.4831 586 65.4471 532.348 521.961
283 0 53.0629 12.0612 640 64.4938 532.806 521.938
284 0 54.0646 12.9845 702 62.9516 532.469 520.14
285 0 57.0697 11.9853 684 63.3099 531.766 519.895
286 0 58.1085 11.8399 688 63.6715 531.243 519.251
287 0 61.0417 12.2048 745 63.1195 531.416 516.426
288 0 63.0732 10.7336 677 64.192 531.796 516.087
289 0 68.0734 12.4718 849 61.2273 531.661 516.411
290 0 67.08 11.7024 785 63.1452 530.707 512.317
291 0 70.0949 10.9851 770 63.2675 530.931 515.725
292 0 71.1255 11.7398 835 63.7569 530.903 509.351
293 0 76.091 13.6021 1035 60.7527 531.484 509.425
294 0 76.1019 12.1153 922 63.0315 531.954 506.9
295 1 40.08 10.4042 417 62.6882 532.487 526.638
296 0 42.0501 9.2271 388 62.9046 532.309 527.412
297 0 43.1025 11.8323 510 60.4137 531.498 524.265
298 0 43.0248 9.4829 408 64.1348 531.63 521.282
299 0 45.0307 11.3256 510 62.4784 531.353 522.198
300 0 48.0535 10.4259 501 62.5709 531.609 521.158
301 0 49.1006 12.5253 615 60.4423 531.772 519.255
302 0 50.0486 11.0493 553 62.3363 531.04 519.268
303 0 52.0819 10.4835 546 63.2399 530.976 518.549
304 0 54.0279 11.7902 637 61.3375 531.031 517.174
305 0 55.0614 11.5144 634 61.9054 531.525 516.331
306 0 57.1306 12.0951 691 61.165 531.41 517.317
307 0 59.1026 11.0655 654 62.1483 530.492 515.015
308 0 58.0475 12.3175 715 61.3385 530.824 512.627
309 0 62.0341 11.2841 700 62.8943 530.701 511.587
310 0 65.1657 12.9516 844 59.2441 530.962 515.06
311 0 65.0784 11.7858 767 61.4941 531.087 514.276
312 0 67.2149 12.5567 844 60.9301 531.254 511.466
313 0 69.0899 13.2147 913 60.7251 531.585 509.571
314 0 72.0895 11.3054 815 62.7485 531.086 509.811
315 0 74.0835 11.6085 860 62.0174 530.331 509.812
316 0 78.214 13.1946 1032 60.2994 530.784 506.985
317 0 77.0661 11.6783 900 62.7256 531.104 506.563
318 1 42.07 8.24815 347 65.0605 530.68 525.389
319 0 43.0173 11.5767 498 62.2149 531.171 524.175
320 0 46.0518 11.3351 522 62.0383 531.132 522.257
321 0 47.0325 12.2681 577 60.4714 531.256 524.097
322 0 49.0156 12.139 595 61.1109 531.477 520.785
323 0 49.0187 11.3018 554 62.2094 531.103 519.289
324 0 51.0298 12.091 617 60.9903 531.485 519.87
325 0 50.0374 10.0525 503 64.0577 531.276 519.239
326 0 55.0902 12.2526 675 60.7689 531.719 517.483
327 0 57.0579 14.1786 809 58.5674 531.258 514.889
328 0 59.0334 11.1971 661 61.7337 531.57 515.911
329 0 61.0308 10.421 636 63.1808 531.184 515.432
330 0 61.0471 10.582 646 62.8266 530.789 515.783
331 0 61.083 11.0833 677 62.9247 531.219 514.483
332 0 65.1818 11.0921 723 62.5311 531.467 510.339
333 0 65.0598 10.1138 658 63.8191 531.02 510.805
334 0 69.1644 11.8847 822 60.4526 531.198 510.841
335 0 70.0876 12.8125 898 60.3976 532.099 508.845
336 0 73.1619 11.331 829 61.9771 530.946 504.515
337 0 75.163 10.8298 814 61.6265 531.291 507.923
338 0 78.1014 12.9319 1010 60.097 531.096 504.371
339 1 40.0167 11.6951 468 59.3654 531.776 524.511
340 0 41.0394 8.89389 365 61.6904 531.408 524.729
341 0 40.047 9.63866 386 61.8782 531.301 522.966
342 0 46.0792 12.8258 591 58.7699 531.281 518.966
343 0 46.0154 11.3223 521 60.6084 531.296 520.223
344 0 48.0239 13.2226 635 58.0992 531.307 518.619
345 0 50.0614 12.7244 637 58.7504 532.419 520.028
346 0 49.0925 10.9385 537 62.013 531.713 518.877
347 0 53.0793 12.227 649 59.8629 532.556 518.57
348 0 53.0315 13.1243 696 59.8721 532.645 516.236
349 0 52.0774 9.90833 516 63.7171 532.632 515.399
350 0 56.1169 12.0819 678 61.3289 532.572 514.162
351 0 59.0736 11.7481 694 61.2161 532.512 513.35
352 0 60.0519 11.2736 677 62.1285 532.759 510.279
353 0 61.1037 11.7832 720 61.15 532.689 513.376
354 0 60.1356 11.6902 703 62.0825 532.9 511.232
355 0 66.1177 11.3737 752 61.4082 532.426 510.408
356 0 68.0685 13.3836 911 59.4588 532.28 508.09
357 0 71.1205 12.8092 911 60.6487 532.248 506.937
358 0 72.0456 13.0334 939 60.5335 532.306 504.338
359 0 73.0614 12.1268 886 61.4605 532.688 503.642
360 0 78.0827 12.4355 971 60.5057 532.665 505.418
361 0 79.0734 11.3818 900 62.6967 532.237 503.742
362 0 81.0826 10.9025 884 63.319 532.143 503.43
363 1 41.0291 10.4316 428 62.0187 531.904 520.11
364 0 44.0668 12.0272 530 59.1075 532.057 522.164
365 0 43.0428 9.66479 416 62.3966 532.601 521.904
366 0 45.0459 8.83543 398 63.3317 532.111 522.508
367 0 49.026 12.4832 612 60.3072 531.68 517.794
368 0 49.0672 10.5366 517 62.2534 532.031 519.004
369 0 50.0822 11.3214 567 61.8148 532.212 518.328
370 0 50.1121 10.9554 549 62.9654 531.628 517.271
371 0 52.0838 12.4799 650 61.2923 532.248 514.746
372 0 55.0779 11.7107 645 61.8698 531.961 515.231
373 0 57.1255 12.6563 723 59.8672 531.646 514.542
374 0 57.1098 11.7843 673 61.5646 531.945 515.731
375 0 57.1257 11.606 663 62.5551 532.17 511.164
376 0 61.0283 11.7323 716 61.5628 532.306 512.672
377 0 63.0981 11.395 719 62.217 532.147 510.768
378 0 64.0544 11.1936 717 62.2775 531.552 511.703
379 0 65.1577 11.8175 770 62.3325 531.571 508.439
380 0 68.0853 9.66435 658 64.2614 531.857 509.771
381 0 71.0557 10.8929 774 63.3307 531.367 507.145
382 0 72.0853 11.1673 805 62.7615 531.496 509.204
383 1 36.0306 10.4911 378 61.4735 531.72 523.056
384 0 38.036 9.56987 364 61.3626 531.36 524.574
385 0 39.197 9.77116 383 62.389 531.295 521.426
386 0 40.1046 11.7194 470 59.6872 531.428 520.86
387 0 39.0386 9.81081 383 62.564 532.065 521.525
388 0 41.0116 11.07 454 60.8194 532.09 523.568
389 0 44.0311 10.5834 466 61.6481 531.708 522.326
390 0 45.0551 11.6302 524 60.5553 532.254 522.311
391 0 45.0265 11.1934 504 61.9127 531.544 519.341
392 0 48.0804 12.6871 610 59.8754 532.013 518.616
393 0 48.0838 9.23388 444 64.3874 531.984 519.207
394 0 51.062 10.4775 535 62.686 531.966 516.464
395 0 53.0957 10.9802 583 61.9657 531.933 516.59
396 0 52.1418 9.22484 481 64.0956 532.021 516.262
397 0 55.0807 10.8931 600 61.8733 531.77 514.893
398 0 57.0522 10.1661 580 62.5138 532.588 516.172
399 0 60.086 12.3157 740 60.2486 532.059 513.235
400 0 61.1052 9.70458 593 62.8836 531.887 512.572
401 0 63.1383 10.675 674 61.2255 531.969 509.749
402 0 65.1081 8.87755 578 62.9048 532.569 510.965
403 0 69.1495 11.0919 767 60.4446 531.794 511.695
404 0 70.0674 10.3757 727 61.7868 532.575 509.399
405 0 75.1197 11.4617 861 59.4239 531.625 510.258
406 0 75.1386 10.1546 763 61.5007 532.031 505.109
407 1 38.0712 8.35276 318 63.0755 533.069 524.868
408 0 42.0487 9.63169 405 60.437 532.84 525.012
409 0 43.0714 10.3549 446 59.352 533.085 523.657
410 0 45.0703 11.2713 508 59.2638 532.256 522.035
411 0 45.0424 10.7454 484 59.9174 532.262 524.645
412 0 47.0278 10.6745 502 60.253 532.996 522.367
413 0 46.1424 10.6843 493 60.7627 532.923 521.85
414 0 48.1196 10.8895 524 60.2729 532.739 520.992
415 0 51.0721 11.4544 585 59.7402 531.53 518.132
416 0 54.0733 10.2269 553 60.226 532.018 520.45
417 0 53.1286 11.4251 607 59.2125 532.343 520.331
418 0 57.1102 11.7667 672 58.5967 532.089 518.458
419 0 54.1442 10.0103 542 61.7196 532.216 516.286
420 0 59.2101 12.1939 722 58.4917 531.691 516.485
421 0 60.11 10.3311 621 60.38 532.222 515.452
422 0 63.1547 11.4481 723 59.4537 531.657 514.997
423 0 64.0413 11.5863 742 59.5202 531.096 512.884
424 0 65.1025 11.167 727 59.9298 531.107 513.539
425 0 68.1477 11.6658 795 58.9019 531.034 513.769
426 0 71.2123 11.22 799 60.0951 531.088 511.508
427 0 72.2092 11.619 839 59.77 531.221 512.387
428 0 72.1022 10.2216 737 62.2252 531.275 507.411
429 0 77.207 11.1777 863 60.6813 531.098 505.924
430 0 76.1575 10.6884 814 60.9054 530.644 509.353
431 0 81.1166 11.2801 915 60.1585 531.261 506.514
432 1 39.0571 8.11633 317 62.5205 531.271 528.678
433 0 43.2009 10.0924 436 61.3417 530.764 526.486
434 0 40.0222 9.3448 374 63.2701 530.906 524.807
435 0 45.1757 10.3374 467 61.8501 530.713 524.349
436 0 46.0623 11.0068 507 61.2781 530.905 523.584
437 0 50.1287 11.2311 563 60.5861 530.385 522.142
438 0 51.114 11.7972 603 59.7148 530.502 521.849
439 0 48.0678 9.23695 444 64.0878 530.586 521.5
440 0 54.2228 11.7847 639 60.4554 531.264 519.714
441 0 54.1105 11.7352 635 61.0394 530.427 518.312
442 0 56.1745 10.6454 598 61.9398 531.487 520.711
443 0 58.2474 10.5927 617 61.9481 531.169 519.429
444 0 60.1737 10.3367 622 62.9598 531 516.429
445 0 62.1961 12.139 755 60.6384 530.588 514.86
446 0 61.2433 10.3195 632 63.3544 530.769 514.584
447 0 64.1753 10.3622 665 62.6346 531.423 514.842
448 0 65.1835 9.40422 613 64.5889 531.6 512.491
449 0 68.1287 10.715 730 62.3658 531.756 511.867
450 0 68.1369 10.3615 706 63.4703 531.462 510.017
451 0 72.1019 11.0122 794 62.1713 532.19 509.384
452 0 74.1971 11.4829 852 61.9413 531.488 508.155
453 0 75.1437 10.247 770 63.6104 531.468 506.63
454 0 79.2264 10.6025 840 62.806 532.371 506.304
455 0 82.1704 10.4417 858 62.6166 531.735 503.538
456 1 42.0301 10.0166 421 61.7672 532.157 525.677
457 0 45.0394 11.8341 533 59.1276 532.056 524.362
458 0 45.0376 11.3017 509 60.78 532.501 522.752
459 0 46.0516 12.6597 583 59.331 532.863 519.564
460 0 48.0719 11.774 566 59.7367 532.415 522.341
461 0 50.0249 11.7741 589 60.2581 532.426 520.246
462 0 48.0396 11.2199 539 62.0557 531.939 519.881
463 0 52.0675 11.9076 620 59.9242 531.871 520.39
464 0 54.0641 10.3026 557 61.9084 531.654 520.508
465 0 56.1044 13.3323 748 57.8102 532.29 519.679
466 0 55.1362 11.4444 631 60.2488 531.949 520.268
467 0 57.1557 10.5501 603 61.6418 530.866 517.199
468 0 61.0975 13.3721 817 57.8592 531.752 517.16
469 0 61.1749 14.0744 861 57.2451 530.986 515.758
470 0 64.1079 12.8533 824 58.7791 531.056 514.943
471 0 64.1509 12.3303 791 59.5082 531.331 512.204
472 0 65.1237 10.7795 702 61.3718 531.165 514.83
473 0 68.3072 13.5857 928 57.6983 531.13 512.281
474 0 70.0896 13.5398 949 58.0274 531.679 512.76
475 0 71.191 10.9284 778 61.5694 531.503 510.548
476 0 73.0658 11.6744 853 60.6424 531.193 509.202
477 0 77.1535 12.4816 963 59.8204 531.361 506.852
478 0 79.1077 12.0342 952 60.6544 531.076 507.179
479 0 80.1288 11.6313 932 61.2221 530.426 505.59
480 1 42.1368 11.1542 470 60.5809 530.719 523.76
481 0 44.0677 9.44001 416 62.9808 531.49 522.565
482 0 45.0511 10.9653 494 60.8765 531.733 524.632
483 0 47.0798 10.9389 515 60.4388 531.419 524.381
484 0 49.089 11.8764 583 59.9846 531.71 522.334
485 0 50.0366 12.1711 609 60.5616 531.867 521.35
486 0 49.0559 11.2117 550 62.7255 531.667 520.089
487 0 53.083 11.2465 597 61.3953 531.514 522.357
488 0 56.0534 13.4693 755 59.0026 532.262 519.306
489 0 56.1691 13.9401 783 58.636 532.33 517.444
490 0 57.0634 11.5836 661 61.6672 532.127 516.67
491 0 60.0969 12.1304 729 60.7531 532.096 516.579
492 0 59.13 13.3604 790 59.8165 531.776 515.827
493 0 62.0898 12.3692 768 60.5938 531.406 512.445
494 0 64.1725 12.9027 828 59.5012 531.28 513.636
495 0 64.1503 11.4107 732 62.0929 531.247 511.81
496 0 65.0332 10.4408 679 63.2415 531.13 511.839
497 0 68.0715 10.8268 737 62.7734 531.331 512.901
498 0 72.2237 12.0874 873 61.3482 531.227 509.41
499 0 73.1364 12.087 884 61.7692 531.13 507.76
500 0 74.1219 10.9549 812 63.5948 531.421 507.496
501 0 77.2426 13.0757 1010 61.4634 530.921 506.589
502 0 80.077 11.9135 954 63.2065 531.461 503.791
503 1 41.0371 11.185 459 63.3094 530.854 524.473
504 0 42.0692 9.84094 414 64.7391 531.123 525.28
505 0 45.0581 12.8279 578 60.7491 531.14 524.45
506 0 48.0176 12.7453 612 60.9542 530.618 523.745
507 0 48.0262 13.1595 632 60.6994 531.272 523.307
508 0 49.0883 12.0803 593 62.6037 530.713 521.636
509 0 50.1124 13.35 669 61.6607 531.096 520.498
510 0 50.0302 11.9928 600 63.3183 531.178 521.075
511 0 53.1058 13.2565 704 60.946 531.261 521.662
512 0 54.0443 13.1929 713 62.1164 530.651 518.199
513 0 56.1021 11.6573 654 63.2829 531.196 519.856
514 0 54.0718 11.7806 637 64.4992 530.697 518.512
515 0 59.11 14.8029 875 60.736 530.767 516.026
516 0 61.1814 12.798 783 63.0562 530.76 513.595
517 0 66.1223 13.596 899 61.1602 530.829 515.32
518 0 66.1438 13.0625 864 63.7338 530.587 512.669
519 0 68.0724 14.3671 978 61.9775 530.989 513.181
520 0 69.1187 12.5436 867 64.1569 530.414 513.563
521 0 70.0674 14.0864 987 63.0233 530.353 512.723
522 0 73.1544 13.2323 968 64.9783 530.419 508.219
523 1 38.1176 12.304 469 63.5672 530.723 528.424
524 0 41.1228 10.8942 448 65.6808 530.422 527.143
525 0 40.0829 12.6737 508 65.3799 530.949 525.839
526 0 40.1163 11.4168 458 67.6332 530.71 525.035
527 0 43.0578 13.2148 569 64.993 530.575 525.251
528 0 42.0396 12.06 507 67.213 530.645 525.832
529 0 46.1725 13.168 608 65.6957 530.77 522.737
530 0 48.1056 12.826 617 65.9028 530.533 523.596
531 0 47.0458 11.8183 556 68.3813 530.284 523.863
532 0 48.0633 11.7969 567 68.4621 530.561 522.111
533 0 49.0883 12.2636 602 67.5847 530.542 522.962
534 0 51.1217 10.5043 537 69.4246 530.546 522.134
535 0 53.1204 12.1234 644 67.1196 530.902 521.742
536 0 53.213 12.9668 690 67.2014 530.968 518.596
537 0 55.056 13.8768 764 65.4882 530.347 518.151
538 0 54.129 12.3409 668 67.476 529.841 518.475
539 0 58.07 11.1934 650 68.6477 530.363 518.805
540 0 61.0704 12.0353 735 67.8993 530.341 516.418
541 0 63.1004 13.74 867 65.7151 529.832 513.281
542 0 65.1944 12.363 806 66.6005 530.202 515.495
543 0 66.0968 13.223 874 66.341 530.1 514.07
544 0 70.2209 11.9765 841 67.1332 531.011 513.578
545 0 71.2066 11.6843 832 67.3882 529.853 511.258
546 0 74.1289 11.2642 835 67.9114 530.128 510.181
547 1 38.114 10.5998 404 66.4802 530.223 528.193
548 0 40.0523 11.8845 476 64.9979 530.231 527.055
549 0 42.0769 12.8574 541 64.4935 530.096 525.322
550 0 41.0497 10.2071 419 68.1193 529.924 525.098
551 0 45.1683 12.863 581 63.5043 530.499 525.623
552 0 45.0905 12.4195 560 65.3839 530.523 523.186
553 0 45.09 12.464 562 66.0107 530.765 522.845
554 0 47.0573 12.7079 598 65.786 530.222 522.776
555 0 49.0211 13.4636 660 64.5424 530.895 521.302
556 0 49.1778 12.526 616 66.4399 530.086 519.456
557 0 54.1205 13.0265 705 64.1972 531.116 520.115
558 0 53.0685 13.5862 721 64.3648 531.074 519.602
559 0 55.0362 12.9733 714 65.2129 530.361 518.405
560 0 57.0226 13.1176 748 64.7019 531.333 515.751
561 0 59.1603 12.8465 760 64.8961 530.992 516.722
562 0 59.0357 12.6534 747 65.747 530.549 515.776
563 0 64.1305 12.7708 819 65.1868 530.183 514.411
564 0 63.0871 13.0613 824 66.0692 530.672 512.136
565 0 68.085 14.3203 975 63.4738 530.881 512.813
566 0 70.1339 13.7024 961 64.5796 530.957 511.095
567 0 71.0507 13.3989 952 65.0851 531.354 508.407
568 1 37.1136 12.1788 452 66.0199 531.142 527.398
569 0 38.1995 11.0473 422 67.0284 530.839 528.765
570 0 40.0096 11.3473 454 67.0551 530.879 527.863
571 0 40.0893 14.1185 566 64.9293 530.491 525.034
572 0 42.0241 11.3982 479 67.5428 530.353 526.073
573 0 43.0541 12.403 534 66.4176 531.084 526.708
574 0 44.0405 12.1933 537 67.1508 531.477 526.508
575 0 46.0933 13.3425 615 65.974 530.501 524.462
576 0 46.0505 14.2235 655 65.6015 531.002 523.369
577 0 51.0512 13.4767 688 64.439 530.702 522.993
578 0 50.0257 13.2532 663 65.5988 531.053 520.167
579 0 53.0249 13.2956 705 65.1844 532.296 520.373
580 0 54.043 13.5078 730 64.7507 532.315 520.907
581 0 54.0806 13.8312 748 64.6083 532.249 519.865
582 0 54.0306 12.1042 654 66.6498 532.63 520.116
583 0 59.203 13.1074 776 64.4381 532.887 520.021
584 0 60.154 13.1163 789 64.5957 532.28 516.191
585 0 61.1094 11.9131 728 66.1332 531.694 516.378
586 0 64.1544 14.4339 926 63.5173 532.262 514.282
587 0 67.0835 14.4298 968 62.9928 531.477 513.76
588 0 71.1463 14.7443 1049 61.7102 531.306 513.418
589 0 71.0633 13.4106 953 64.4596 531.51 510.381
590 0 73.0822 14.2306 1040 63.9942 531.236 508.593
591 0 74.0779 14.5387 1077 63.6435 531.086 508.316
592 1 40.0436 12.0369 482 67.249 531.203 522.722
593 0 42.058 12.245 515 66.1689 531.083 525.06
594 0 41.0869 11.1714 459 68.6863 531.414 523.303
595 0 44.0323 12.3773 545 67.4954 530.954 523.264
596 0 46.0451 12.6615 583 66.8096 531.395 521.515
597 0 48.1494 13.3127 641 65.8705 530.866 521.246
598 0 47.0789 13.7641 648 65.9136 531.503 520.557
599 0 51.1324 14.0615 719 64.8818 531.506 520.776
600 0 50.1054 11.4958 576 68.6337 531.464 520.736
601 0 52.0972 12.9182 673 66.8143 531.354 518.814
602 0 53.0458 14.5346 771 65.0441 531.121 517.009
603 0 58.0773 13.241 769 65.2367 531.113 517.411
604 0 60.0595 13.8862 834 63.5635 531.414 517.547
605 0 62.1515 13.3062 827 64.7739 531.756 516.647
606 0 62.1633 14.8963 926 62.9406 531.693 514.786
607 0 65.1553 13.7671 897 63.8372 532.017 514.482
608 0 65.105 12.9176 841 65.6694 531.738 511.136
609 0 68.0837 13.0868 891 64.3939 531.844 510.949
610 0 70.0696 13.1726 923 63.9686 531.973 511.14
611 0 74.1518 13.324 988 62.996 531.651 510.887
612 0 76.2173 13.0941 998 63.6162 532.275 507.712
613 0 77.1334 12.446 960 64.6667 530.719 508.11
614 0 79.3009 11.841 939 64.7977 531.82 505.143
615 1 41.1511 11.4699 472 65.1568 531.271 523.222
616 0 41.1636 11.9766 493 65 531.992 523.848
617 0 46.271 12.1026 560 62.7071 532.266 524.827
618 0 47.0838 13.1893 621 62.0354 532.298 523.965
619 0 48.034 12.5744 604 62.9421 532.212 522.406
620 0 50.1022 14.4106 722 60.6925 532.161 520.525
621 0 52.1403 13.0034 678 61.413 532.158 521.26
622 0 51.0771 13.137 671 61.6036 532.039 519.775
623 0 55.1997 13.8407 764 60.3115 531.952 518.137
624 0 58.1205 13.0419 758 60.4169 532.926 518.334
625 0 60.0441 13.3569 802 60.2818 531.983 516.54
626 0 62.1645 15.2338 947 58.0982 532.46 513.735
627 0 62.1736 13.7679 856 60.1238 531.708 512.672
628 0 63.1243 11.8179 746 62.0979 532.382 513.165
629 0 65.1119 12.2251 796 61.4359 531.989 512.185
630 0 68.0947 14.4505 984 59.2307 531.935 508.726
631 0 69.1492 13.2178 914 60.5022 531.841 509.398
632 0 74.2071 14.217 1055 58.5934 531.793 508.877
633 0 78.1669 14.2516 1114 58.5215 532.266 506.908
634 0 78.0992 12.3177 962 60.9397 532.411 507.272
635 0 78.0636 12.9125 1008 61.4603 532.589 503.649
636 0 84.1872 12.199 1027 61.2337 532.775 504.641
637 1 41.0492 10.7189 440 62.4455 532.511 522.423
638 0 44.1416 12.981 573 60.007 532.168 521.387
639 0 46.2004 11.4934 531 61.5443 532.527 521.023
640 0 46.2396 11.4837 531 62.0942 532.168 520.985
641 0 49.1289 13.2305 650 60.1231 532.354 519.183
642 0 50.044 11.9695 599 61.7379 532.563 517.808
643 0 52.0575 11.9867 624 61.2003 532.708 519.771
644 0 54.056 13.1715 712 59.8876 532.157 517.695
645 0 53.0835 11.9623 635 61.3402 532.088 517.874
646 0 55.1475 12.657 698 61.1705 531.911 513.603
647 0 59.1501 13.3727 791 59.5676 532.239 514.678
648 0 62.0704 14.6608 910 57.5703 532.373 517.125
649 0 60.0597 12.4709 749 60.6048 531.963 515.824
650 0 65.1063 13.2553 863 59.9038 532.196 512.509
651 0 67.0483 12.3791 830 60.959 532.596 512.608
652 0 68.2812 13.8838 948 59.7616 532.213 510.006
653 0 71.1333 14.0441 999 58.9339 532.228 510.013
654 0 72.2401 13.8012 997 60.2156 531.569 509.182
655 0 75.2927 12.8166 965 61.7316 530.674 507.16
656 1 37.1512 11.5743 430 62.4512 531.67 525.46
657 0 40.2512 12.2232 492 61.7033 532.569 525.827
658 0 41.1308 13.6151 560 61.1875 531.791 524.791
659 0 41.0623 12.1523 499 63.6874 531.593 523.489
660 0 44.1202 13.0326 575 61.5791 532.118 524.558
661 0 45.0805 14.1081 636 61.1965 532.338 522.385
662 0 46.1033 11.6911 539 62.6865 532.256 525.538
663 0 47.1552 11.3243 534 65.2734 531.757 522.631
664 0 48.0301 11.9092 572 64.8916 532.136 522.638
665 0 49.0661 12.3507 606 64.2145 531.993 521.068
666 0 51.0644 13.1794 673 62.9316 532.186 520.467
667 0 52.2015 12.7583 666 63.8483 532.012 517.937
668 0 51.1389 12.3194 630 65.2746 531.884 518.598
669 0 57.1585 13.1214 750 63.2733 532.056 517.28
670 0 59.0921 12.4551 736 63.6902 532.288 515.424
671 0 61.2505 12.5387 768 62.8346 532.501 518.371
672 0 63.1085 13.9918 883 61.5017 532.51 515.424
673 0 65.1308 12.0373 784 63.3176 532.358 513.886
674 0 66.0954 11.2716 745 64.0913 532.272 512.023
675 0 69.073 12.4216 858 63.1515 532.524 510.456
676 0 72.1083 12.7586 920 62.3054 532.125 512.276
677 0 75.1247 12.3927 931 62.0612 532.285 511.311
678 0 74.1799 12.1057 898 63.3296 532.488 508.68
679 0 81.116 11.7486 953 62.4753 532.797 509.269
680 1 42.1828 10.1937 430 62.7349 532.777 525.298
681 0 44.108 11.6532 514 61.4125 532.125 524.959
682 0 46.114 12.9028 595 60.0521 532.955 522.187
683 0 48.1992 12.5936 607 60.3311 532.977 522.465
684 0 49.1369 13.3505 656 60.1951 532.326 520.822
685 0 50.0678 11.9238 597 61.005 532.168 521.615
686 0 53.2129 12.2715 653 60.3139 532.101 520.337
687 0 52.0723 11.9065 620 61.7935 531.877 519.284
688 0 57.0702 13.5798 775 59.2077 532.867 518.986
689 0 55.0935 13.468 742 60.496 532.663 518.526
690 0 60.109 11.4459 688 61.2035 532.574 517.959
691 0 59.054 12.2261 722 61.669 532.337 515.4
692 0 64.1987 12.0563 774 60.7829 532.585 517.04
693 0 65.1943 13.2834 866 59.6952 531.575 514.575
694 0 68.1122 13.2869 905 59.1702 532.283 515.398
695 0 68.1033 10.9246 744 62.5645 532.211 512.442
696 0 70.1785 11.086 778 62.4203 531.18 511.058
697 0 74.0293 15.4669 1145 57.0856 531.734 511.324
698 0 76.1659 13.5362 1031 59.5655 531.567 509.858
699 1 39.0893 12.7145 497 59.2052 531.865 527.207
700 0 38.0343 10.9901 418 60.5981 531.916 528.206
701 0 42.1169 12.3941 522 58.9502 531.739 524.42
702 0 41.2233 11.7895 486 60.8909 532.064 524.379
703 0 44.1774 12.5177 553 59.4105 531.546 524.103
704 0 45.0669 12.1375 547 60.2669 531.391 522.762
705 0 45.0967 11.3534 512 61.8711 531.41 521.52
706 0 48.1506 14.0393 676 58.1213 531.037 521.885
707 0 49.1078 13.1344 645 59.0419 531.674 521.282
708 0 50.1299 12.0886 606 60.6221 530.931 518.995
709 0 51.2511 10.3803 532 62.5846 531.16 520.053
710 0 53.0241 12.0511 639 61.3834 531.501 516.82
711 0 54.1599 12.6108 683 60.9839 531.388 514.895
712 0 55.042 12.1907 671 61.4396 532.015 518.538
713 0 56.0498 13.1847 739 60.724 531.368 516.463
714 0 59.0386 12.7374 752 60.9641 531.916 516.297
715 0 64.0519 13.7389 880 59.5091 531.561 515.249
716 0 65.0648 11.1735 727 62.37 531.836 513.669
717 0 66.0232 11.6171 767 62.5619 531.58 512.541
718 0 67.1864 12.5472 843 62.0985 531.59 510.641
719 0 70.1248 13.1195 920 61.2272 532.04 511.771
720 0 72.1572 13.4706 972 61.0021 531.595 511.289
721 0 75.1407 12.0707 907 62.8556 531.822 506.221
722 0 78.0633 14.2064 1109 60.4175 531.329 507.312
723 0 79.1457 12.7107 1006 62.7714 530.739 506.816
724 0 83.0826 12.4214 1032 62.4109 531.504 507.739
725 1 42.1119 11.0658 466 65.6631 531.515 522.953
726 0 43.0574 10.7531 463 65.7214 531.516 522.4
727 0 49.1573 12.6736 623 62.4446 531.018 523.406
728 0 48.1657 13.0591 629 63.213 530.881 522.927
729 0 51.0505 13.2222 675 62.1452 530.85 522.323
730 0 54.0627 15.2046 822 59.7348 531.493 520.912
731 0 55.0615 14.5111 799 60.239 531.106 521.345
732 0 56.0442 12.5615 704 63.0668 531.244 519.581
733 0 59.0666 14.7799 873 60.5636 531.525 518.747
734 0 59.0589 15.5607 919 59.9423 531.299 517.423
735 0 60.1133 12.3434 742 63.5499 531.199 517.702
736 0 64.0785 13.2026 846 62.4669 531.358 514.265
737 0 65.0891 14.2267 926 61.2451 531.565 513.527
738 0 68.2083 12.975 885 62.0339 531.633 513.409
739 0 68.0683 12.9282 880 63.0102 531.208 511.518
740 0 73.0464 12.5947 920 62.363 531.766 512.94
741 0 73.0708 13.5075 987 62.1834 531.623 509.019
742 0 77.075 11.9883 924 63.4383 530.998 509.973
743 0 79.0881 14.1614 1120 60.5518 531.524 509.228
744 0 80.1456 13.438 1077 62.2136 530.812 504.313
745 0 83.1784 12.6115 1049 62.8513 530.07 504.713
746 0 85.1727 14.2064 1210 60.9339 530.73 504.285
747 1 42.054 12.5553 528 61.75 531.134 525.561
748 0 41.0141 11.1425 457 64.5711 530.991 523.532
749 0 43.0304 12.3866 533 62.5122 531.747 523.854
750 0 47.0292 11.9287 561 61.9804 531.503 524.408
751 0 47.0946 14.4603 681 60.0573 531.085 522.235
752 0 49.0389 13.5403 664 61.2831 531.142 521.895
753 0 49.045 12.3764 607 62.5783 531.442 522.079
754 0 49.0397 12.3777 607 62.7809 531.371 522.626
755 0 53.0502 11.6682 619 63.2714 530.992 521.279
756 0 53.0362 12.8591 682 62.6789 531.276 518.902
757 0 56.1208 14.3797 807 60.4634 530.714 516.913
758 0 57.1211 13.1125 749 62.219 531.908 518.136
759 0 58.0475 12.3864 719 63.3644 531.065 516.853
760 0 62.0377 13.4757 836 61.3792 531.06 516.719
761 0 63.0298 13.914 877 61.6271 531.397 515.221
762 0 68.0699 12.972 883 62.4224 531.172 515.574
763 0 69.0756 14.1005 974 61.576 530.702 514.868
764 0 72.0365 13.2294 953 62.3882 531.082 514.817
765 0 73.0512 12.9635 947 63.9905 530.847 510.973
766 0 76.1182 12.5463 955 63.5874 531.912 511.864
767 1 40.1266 13.3079 534 63.0412 531.33 526.408
768 0 43.0357 13.6166 586 62.0273 531.217 527.213
769 0 41.0471 12.1568 499 65.2485 531.575 526.493
770 0 45.0323 12.1913 549 64.0073 531.902 525.056
771 0 46.1677 12.7578 589 63.6163 532.041 524.694
772 0 47.118 13.5193 637 63.0126 531.958 523.929
773 0 51.046 13.5368 691 61.5427 532.019 524.485
774 0 49.0345 12.6849 622 64.6334 531.799 521.804
775 0 52.1166 14.0838 734 62.1485 532.245 520.025
776 0 53.0514 13.0251 691 62.8698 531.76 521.878
777 0 55.0622 14.6743 808 61.1411 531.541 520.256
778 0 56.0455 12.9716 727 62.9409 531.67 520.193
779 0 58.0896 12.3086 715 63.3203 531.852 520.959
780 0 59.0289 13.0445 770 63.1818 531.222 519.075
781 0 61.1351 13.8873 849 62.1143 531.648 519
782 0 65.1198 13.9435 908 61.3855 531.656 517.222
783 0 64.1459 12.8457 824 63.301 531.181 513.84
784 0 68.0299 13.7293 934 62.0471 531.4 510.92
785 0 69.0502 13.1788 910 62.544 530.918 510.181
786 1 37.0477 12.1465 450 62.3844 531.318 527.147
787 0 36.0477 10.4029 375 64.704 531.555 525.995
788 0 40.0395 11.7884 472 62.2712 531.326 527.112
789 0 42.0234 12.4216 522 62.6456 531.178 526.613
790 0 43.067 12.3761 533 63.4559 531.51 524.253
791 0 43.0933 12.9486 558 63.009 531.208 522.896
792 0 45.0242 12.9486 583 62.4854 531.214 523.542
793 0 46.0479 12.0309 554 63.6444 531.052 522.141
794 0 48.0302 15.1571 728 59.8434 531.799 521.973
795 0 48.0509 12.9238 621 62.1401 531.792 523.94
796 0 51.065 13.4534 687 61.8079 531.387 521.445
797 0 53.0524 12.8929 684 62.3275 531.145 521.249
798 0 54.1463 13.3158 721 62.4383 531.184 519.413
799 0 58.0584 13.2625 770 61.6519 531.322 517.762
800 0 60.1193 12.8411 772 61.228 531.481 518.636
801 0 60.0406 12.8413 771 62.1699 531.25 516.546
802 0 63.0739 14.8714 938 59.3252 531.446 516.005
803 0 62.2201 12.0861 752 62.5931 531.176 516.56
804 0 66.1283 13.746 909 60.8328 530.974 513.606
805 0 67.0608 13.361 896 61.6194 531.135 512.265
806 0 72.1511 12.4877 901 61.9245 531.513 513.104
807 1 34.0351 9.90155 337 64.4659 531.543 527.478
808 0 38.1556 12.9208 493 60.1988 530.434 528.418
809 0 36.0929 11.0825 400 63.3925 531.022 527.795
810 0 43.0268 11.0629 476 61.5966 530.689 528.744
811 0 42.1948 11.4469 483 62.5031 531.503 525.855
812 0 43.1121 12.3863 534 60.8296 531.478 526.552
813 0 44.0347 13.285 585 60.2103 531.875 524.899
814 0 45.0681 12.6253 569 61.0615 531.856 525.176
815 0 48.0675 12.1912 586 60.6826 531.722 523.341
816 0 47.0701 13.4055 631 60.2219 531.597 523.111
817 0 50.0404 12.37 619 60.567 531.236 523.281
818 0 51.1363 12.9067 660 60.6652 531.559 521.739
819 0 53.0591 12.2882 652 60.9877 531.675 518.859
820 0 55.1182 12.6274 696 60.7371 531.75 518.121
821 0 55.0955 10.872 599 63.1452 531.876 518.194
822 0 58.0816 12.7235 739 60.8254 532.032 516.85
823 0 59.0516 11.7524 694 62.5259 531.173 513.78
824 0 63.0621 12.1626 767 61.5332 531.527 514.834
825 0 65.0666 11.1271 724 62.297 531.631 516.747
826 0 69.1473 12.8132 886 60.7867 531.017 513.398
827 0 72.1679 13.4132 968 59.9483 531.577 511.884
828 0 73.1341 10.5149 769 63.7217 531.362 512.866
829 1 38.047 10.9601 417 62.9544 531.132 525.679
830 0 41.0366 11.8187 485 62.0825 531.571 525.868
831 0 41.0533 12.3985 509 62.053 531.676 524.829
832 0 42.0379 12.0367 506 62.5277 531.375 526.105
833 0 46.0551 12.5285 577 60.8614 530.65 525.965
834 0 45.0323 12.0358 542 62.0904 531.244 526.716
835 0 46.0766 13.4776 621 60.8374 531.269 522.184
836 0 45.0335 11.3027 509 63.8468 531.059 523.336
837 0 49.0477 12.1922 598 61.2458 531.08 524.806
838 0 52.1742 12.2666 640 61.1703 530.798 523.131
839 0 52.1858 12.1489 634 61.9432 530.535 519.674
840 0 54.0229 12.6243 682 61.0543 531.063 519.93
841 0 56.1793 11.3209 636 62.1321 531.064 521.67
842 0 57.1939 13.0783 748 60.234 531.15 520.242
843 0 58.1057 10.6874 621 63.2206 531.222 518.449
844 0 62.0791 12.7096 789 60.5349 531.849 516.108
845 0 64.0726 12.7512 817 59.8886 531.311 514.475
846 0 66.1005 12.7836 845 60.0284 530.827 514.767
847 0 68.1125 12.2004 831 61.0156 531.259 512.302
848 0 72.0772 13.1248 946 59.6765 531.425 511.397
849 0 74.1142 14.1673 1050 58.6229 530.571 510.975
850 0 75.0755 11.9613 898 60.7951 530.768 512.1
851 0 77.0797 11.8319 912 61.4671 531.15 507.248
852 0 83.2024 11.3338 943 61.2524 530.823 508.115
853 1 43.0438 11.3605 489 60.6892 531.08 526.391
854 0 42.073 11.0047 463 62.257 531.073 523.881
855 0 48.1448 13.2932 640 58.3594 531.373 523.625
856 0 47.0818 9.9614 469 62.5864 530.804 524.499
857 0 49.0452 12.1113 594 59.8855 530.705 523.123
858 0 51.0327 11.1301 568 61.2201 530.597 521.053
859 0 52.1098 12.0707 629 60.5898 530.892 519.895
860 0 54.1755 12.4041 672 60.6012 530.711 518.424
861 0 55.0216 11.7772 648 62.3364 530.488 518.177
862 0 56.1013 12.5844 706 61.6785 531.608 519.373
863 0 61.1118 13.9744 854 59.2248 530.253 518.287
864 0 63.3205 11.9235 755 61.2795 530.495 515.756
865 0 64.12 11.4629 735 61.7905 531.162 516.49
866 0 65.0742 14.0455 914 59.3457 530.822 513.341
867 0 70.0819 13.156 922 59.8113 530.559 511.901
868 0 71.1993 13.399 954 60.0681 531.059 512.005
869 0 73.1341 12.1968 892 61.7433 531.379 509.009
870 0 75.1112 14.0192 1053 59.2963 531.28 508.945
871 0 77.0553 11.5761 892 62.7119 530.621 506.435
872 0 81.0432 10.9201 885 62.8644 530.525 508.234
873 0 84.065 11.9907 1008 62.0853 530.621 503.581
874 1 40.0183 10.0204 401 63.8928 530.761 524.796
875 0 44.0458 11.874 523 61.0249 530.013 523.568
876 0 45.1025 10.199 460 63.4587 531.059 524.824
877 0 48.2111 13.1712 635 59.9087 531.46 524.074
878 0 49.0593 11.0071 540 61.9167 531.694 524.493
879 0 53.1342 12.9672 689 59.1785 531.666 522.967
880 0 52.0326 11.6658 607 61.7694 531.488 520.722
881 0 53.0959 12.7317 676 60.3876 531.716 521.482
882 0 55.078 10.93 602 62.7143 530.784 519.417
883 0 60.0376 11.5761 695 61.082 531.735 517.252
884 0 60.2034 11.1788 673 62.107 531.367 516.645
885 0 62.1025 13.7515 854 58.7494 531.544 517.463
886 0 67.1186 15.0778 1012 56.3024 531.952 518.561
887 0 67.2263 12.8075 861 59.9861 531.181 514.741
888 0 70.0633 13.9873 980 58.548 531.683 514.764
889 0 72.159 11.4747 828 61.4988 531.37 513.185
890 0 73.1889 12.3926 907 60.8291 531.54 510.679
891 0 76.145 13.9733 1064 58.7397 531.567 510.583
892 0 79.0826 12.253 969 60.3994 531.436 509.955
893 0 81.163 12.8753 1045 60.177 531.36 506.582
894 1 39.101 9.92302 388 61.9923 530.832 528.201
895 0 42.0382 11.3706 478 60.0941 530.757 527.586
896 0 46.3193 12.3706 573 58.822 530.932 526.099
897 0 46.119 12.5545 579 58.266 530.554 525.437
898 0 49.0261 11.4429 561 59.6114 531.326 524.462
899 0 50.0654 13.023 652 57.6319 531.676 524.459
900 0 51.0618 12.4555 636 58.8821 531.365 522.656
901 0 54.1237 13.968 756 56.7712 531.689 522.038
902 0 54.0401 12.5277 677 59.6219 531.263 520.298
903 0 54.0507 12.2848 664 59.9277 531.119 519.511
904 0 56.0702 11.7353 658 60.5745 530.865 518.608
905 0 59.1848 14.3618 850 57.0882 530.622 519.767
906 0 62.0504 13.1828 818 58.3105 530.733 517.968
907 0 63.1247 11.5011 726 60.1556 531.164 519.741
908 0 65.0574 13.6956 891 57.5028 531.439 518.046
909 0 65.1249 13.1286 855 59.6035 531.166 516.278
910 0 69.1402 13.6968 947 58.3495 532.206 514.513
911 0 72.0479 13.6853 986 58.6552 532.346 513.497
912 0 73.0556 14.797 1081 57.7317 532.94 511.569
913 0 73.109 10.8468 793 61.9168 532.815 514.393
914 0 78.1107 13.3913 1046 59.1205 531.57 511.718
915 0 80.164 12.2499 982 60.9134 531 508.768
916 1 40.0477 10.912 437 61.151 531.151 529.355
917 0 42.128 11.4176 481 60.6279 531.299 528.867
918 0 42.0631 9.5333 401 63.3367 530.878 527.86
919 0 46.0485 12.3348 568 59.8204 530.924 527.533
920 0 44.0315 11.9233 525 61.5867 531.533 526.35
921 0 44.0343 13.1261 578 60.827 531.573 525.282
922 0 47.0651 12.1321 571 61.2697 530.585 522.954
923 0 49.0425 13.9063 682 59.1188 530.114 523.695
924 0 50.0379 13.21 661 59.8169 530.731 522.758
925 0 51.043 11.0691 565 62.423 530.749 519.63
926 0 56.1354 12.3808 695 59.8849 530.409 522.647
927 0 56.1414 12.522 703 60.3115 531.104 518.794
928 0 57.0876 13.5056 771 59.4021 530.31 516.737
929 0 60.1345 11.7736 708 61.548 530.764 516.011
930 0 62.0946 12.948 804 60.0485 530.896 515.479
931 0 62.0457 12.5875 781 60.4712 530.954 517.405
932 0 63.1012 11.7272 740 62.8554 530.776 513.381
933 0 68.2136 11.5959 791 62.3477 530.69 512.913
934 0 70.1349 10.6366 746 63.1635 531.471 513.771
935 1 39.1196 11.7077 458 61.8537 531.784 528.924
936 0 38.0217 10.9411 416 64.3053 531.584 527.519
937 0 41.1454 13.0027 535 61.2972 530.413 526.794
938 0 41.038 11.4528 470 64.3915 531.24 526.37
939 0 41.0312 12.1859 500 63.772 531.804 525.46
940 0 44.1395 12.9589 572 62.6783 531.544 525.253
941 0 49.0734 12.7768 627 62.6061 531.238 521.976
942 0 50.1148 13.9679 700 61.4243 530.639 523.336
943 0 50.1874 12.1146 608 63.7961 531.232 522.125
944 0 52.1561 14.5525 759 61.1963 531.61 521.245
945 0 53.1334 13.4943 717 62.3389 531.575 520.45
946 0 56.1504 12.6268 709 62.9901 532.151 519.945
947 0 57.3051 13.1053 751 62.5939 531.85 518.545
948 0 58.2221 12.5382 730 63.8644 531.863 516.868
949 0 64.1626 15.414 989 58.6502 532.106 517.633
950 0 65.0975 14.6549 954 59.9078 531.739 515.405
951 0 65.1261 13.0209 848 62.3998 531.52 514.998
952 0 66.3016 13.3783 887 62.7339 531.567 513.287
953 0 68.109 15.8276 1078 59.7959 532.122 512.371
954 0 72.118 13.8107 996 61.9448 531.693 511.442
955 0 75.1257 14.0964 1059 61.0519 531.717 512.195
956 0 75.255 13.1021 986 63.7394 531.279 510.827
957 0 78.1239 13.7986 1078 62.6846 531.199 509.478
958 0 81.1812 14.6093 1186 62.0944 531.801 507.867
959 0 82.0735 12.7569 1047 65.3133 531.53 506.682
960 0 85.0968 14.2426 1212 63.8416 531.469 504.028
961 0 89.0976 14.3663 1280 62.9789 532.027 503.712
962 1 46.1787 11.7803 544 65.5221 532.425 525.033
963 0 47.0846 11.0227 519 66.9884 532.175 523.765
964 0 44.0457 12.9638 571 66.7373 531.958 523.252
965 0 50.0783 12.2808 615 66.0602 531.628 522.25
966 0 52.1165 11.8197 616 66.5276 531.683 520.846
967 0 53.3223 12.7714 681 65.3935 531.499 520.433
968 0 53.106 11.0345 586 68.1007 531.66 520.241
969 0 57.315 14.8652 852 62.3286 531.447 521.67
970 0 57.152 12.353 706 66.2833 531.863 519.261
971 0 59.1001 14.2978 845 63.6604 531.406 517.473
972 0 61.1506 13.5731 830 64.5699 531.608 517.066
973 0 62.1082 12.1884 757 66.5535 531.662 514.354
974 0 65.063 13.8942 904 64.1814 531.435 513.546
975 0 65.0345 12.4857 812 66.4101 531.352 511.777
976 0 69.0943 14.198 981 64.1784 531.744 509.638
977 0 73.0895 14.9132 1090 62.6917 531.296 510.534
978 0 75.0608 15.161 1138 62.6538 531.063 508.62
979 0 79.0782 13.2527 1048 64.2834 531.965 509.741
980 0 80.1537 13.7486 1102 63.5644 532.096 507.454
981 1 38.0158 9.60127 365 67.6164 531.545 526.34
982 0 39.1503 11.2898 442 65.4887 531.351 524.878
983 0 41.0589 11.8854 488 65.1824 531.326 523.643
984 0 43.0948 11.6487 502 64.5478 532.012 526.289
985 0 45.0361 11.2576 507 64.2564 532.118 524.984
986 0 46.0586 12.3972 571 63.1926 532.214 522.48
987 0 49.0987 12.3628 607 62.2998 532.262 524.287
988 0 52.0399 11.9524 622 62.9807 532.105 521.119
989 0 53.1887 13.5179 719 60.7663 531.837 521.537
990 0 54.0846 13.3495 722 61.3241 532.032 520.105
991 0 56.0492 12.5604 704 61.9901 531.648 520.241
992 0 56.0574 12.4872 700 63.0486 531.843 516.014
993 0 60.0465 14.0724 845 60.1846 532.111 517.202
994 0 63.1883 13.8475 875 60.9246 531.585 515.365
995 0 64.2147 12.8008 822 61.7981 531.916 513.697
996 0 66.0459 13.2484 875 61.3074 531.744 515.259
997 0 68.0743 14.587 993 60.1762 531.861 513.266
998 0 69.1513 13.0005 899 62.6085 531.397 510.918
999 0 72.0899 12.0405 868 63.4689 530.793 510.085
1000 0 75.0722 12.8143 962 62.4085 531.208 510.547
1001 0 79.1473 12.9126 1022 62.6566 531.232 507.36
1002 0 81.0448 15.1151 1225 59.6865 531.283 507.777
1003 0 82.1732 11.7191 963 63.9709 531.571 506.286
1004 0 86.0769 12.4888 1075 63.2177 530.836 503.05
1005 0 90.0926 12.5871 1134 62.9674 531.165 503.19
1006 0 93.0876 12.2358 1139 63.4074 531.502 502.201
1007 1 50.0184 12.9153 646 62.3142 531.515 522.192
1008 0 50.0762 10.5639 529 65.2836 530.839 520.221
1009 0 53.0887 11.9988 637 63.3501 530.549 519.063
1010 0 55.0425 11.4275 629 63.6137 531.105 519.184
1011 0 57.0864 14.1014 805 59.9354 530.626 518.719
1012 0 58.1082 12.6144 733 62.0177 530.78 517.246
1013 0 62.0572 12.843 797 60.6888 531.036 516.356
1014 0 63.1135 12.1369 766 61.6462 530.747 513.185
1015 0 65.0547 13.773 896 59.3047 530.453 514.496
1016 0 69.0656 13.6103 940 58.816 530.489 513.519
1017 0 70.1505 11.846 831 60.9663 530.563 510.579
1018 0 72.1285 12.1727 878 60.4408 530.595 512.54
1019 0 75.0929 11.3992 856 60.7617 530.286 510.541
1020 0 76.0741 11.6334 885 61.5842 530.272 506.624
1021 0 80.1437 12.253 982 60.1548 530.766 507.525
1022 0 82.1291 10.5931 870 61.9471 529.833 505.883
1023 1 43.0823 11.3968 491 60.2546 530.291 527.442
1024 0 44.0671 11.2102 494 60.2794 530.573 526.589
1025 0 45.0427 11.9664 539 60.4768 530.443 525.002
1026 0 49.0571 12.5976 618 58.945 530.673 522.741
1027 0 51.0338 11.8549 605 59.9339 530.245 522.491
1028 0 52.111 12.5693 655 59.4183 530.101 521.855
1029 0 52.0544 13.313 693 58.772 530.286 519.595
1030 0 57.0532 12.2517 699 59.1416 529.575 520.617
1031 0 55.0491 11.6441 641 60.5616 530.254 521.674
1032 0 59.0895 12.5065 739 59.2449 529.923 519.866
1033 0 61.1379 13.5268 827 57.6385 529.735 520.237
1034 0 63.2496 12.9171 817 58.3819 529.9 519.143
1035 0 64.1656 12.7638 819 58.9829 530.128 518.049
1036 0 66.0648 12.7905 845 59.2284 529.903 515.335
1037 0 70.1739 13.5806 953 58.1773 529.615 515.052
1038 0 72.2064 12.7967 924 59.6667 529.799 513.911
1039 0 71.0663 13.5929 966 59.3137 529.31 514.521
1040 0 75.1124 12.0619 906 61.1004 529.079 512.539
1041 0 79.1656 13.516 1070 59.7495 529.644 509.143
1042 0 80.1113 13.8682 1111 59.9901 529.73 508.713
1043 0 82.1641 15.2013 1249 58.5997 530.202 507.869
1044 0 84.0897 13.9613 1174 60.4744 529.951 504.171
1045 0 88.1245 12.6979 1119 61.8525 529.725 504.286
1046 0 92.2061 13.9253 1284 60.0779 530.091 506.966
1047 0 93.145 12.2175 1138 62.9455 529.682 503.995
1048 1 48.0564 13.5882 653 60.2481 529.649 526.545
1049 0 51.1132 12.6582 647 61.0201 530.474 526.17
1050 0 52.0547 14.1966 739 59.4993 529.825 525.15
1051 0 51.2313 11.2626 577 62.6568 529.347 526.461
1052 0 56.1607 12.9094 725 61.4069 529.477 521.531
1053 0 56.0893 12.3018 690 62.3406 528.872 524.065
1054 0 58.1683 14.0283 816 60.7684 528.938 520.007
1055 0 59.0558 12.2596 724 63.1547 529.318 521.83
1056 0 60.2413 13.2799 800 61.92 528.818 519.671
1057 0 64.1425 14.1404 907 60.6593 529.6 519.255
1058 0 67.2065 12.0375 809 62.7058 529.727 516.54
1059 0 69.131 13.8722 959 60.6893 529.912 517.74
1060 0 72.2747 14.6801 1061 59.7078 529.77 516.664
1061 0 73.1831 12.9128 945 62.3185 529.912 514.448
1062 0 75.1518 13.5858 1021 61.6024 530.248 515.098
1063 0 79.0536 14.3826 1137 60.2093 529.328 514.135
1064 0 83.0771 14.3481 1192 59.8784 529.565 513.722
1065 0 84.1306 15.0362 1265 60.3842 530.213 510.869
1066 0 88.2292 15.3237 1352 59.9608 529.989 510.167
1067 0 90.1583 14.1418 1275 61.6737 530.313 507.98
1068 1 48.0981 11.3102 544 63.5827 530.562 528.976
1069 0 50.1325 13.225 663 61.3363 530.198 529.377
1070 0 51.1464 12.4349 636 63.5126 529.769 527.687
1071 0 54.1288 13.745 744 61.4489 529.891 526.359
1072 0 56.0924 13.7274 770 61.239 530.19 526.094
1073 0 53.0763 13.6596 725 63.2097 530.246 521.589
1074 0 58.1286 13.4701 783 62.2312 530.706 522.499
1075 0 58.0978 12.5134 727 63.1018 529.99 523.728
1076 0 60.316 13.3795 807 62.1586 530.185 520.073
1077 0 64.1199 12.4298 797 62.522 530.453 519.833
1078 0 65.0907 11.9218 776 62.5374 530.032 521.312
1079 0 68.3535 12.0111 821 63.0719 530.608 517.091
1080 0 67.0494 14.0941 945 61.8042 530.758 514.029
1081 0 71.1346 12.0476 857 63.6919 530.446 514.253
1082 0 73.0792 13.1227 959 62.6882 530.724 513.029
1083 0 76.1646 13.7728 1049 61.5043 530.827 512.395
1084 0 78.1848 12.7518 997 62.9569 530.964 510.549
1085 0 79.133 11.0321 873 65.2474 531.109 509.82
1086 1 40.1244 11.6139 466 62.9464 530.167 528.421
1087 0 42.0764 11.1226 468 64.1368 530.938 527.047
1088 0 42.0358 11.7995 496 63.8911 531.038 527.151
1089 0 44.0498 11.5324 508 65.3071 530.758 526.191
1090 0 46.0901 13.4953 622 63.1061 531.199 525.186
1091 0 48.0372 12.8859 619 63.8788 530.586 524.457
1092 0 47.0536 12.6027 593 65.4992 531.312 523.577
1093 0 52.0404 11.933 621 64.7826 531.142 522.813
1094 0 54.0658 14.7228 796 61.4975 531.048 522.085
1095 0 53.0812 12.2642 651 65.4147 531.382 521.315
1096 0 59.1676 13.4871 798 62.6742 531.296 520.292
1097 0 59.0377 12.6529 747 64.1968 531.134 520.159
1098 0 59.1388 14.559 861 62.2149 531.044 520.294
1099 0 64.2265 13.6081 874 61.7185 531.001 521.63
1100 0 65.0425 12.9454 842 63.8895 531.492 516.593
1101 0 69.1162 13.7016 947 62.9039 530.894 514.779
1102 0 70.1147 12.8646 902 64.0843 530.334 515.785
1103 0 74.1731 14.6819 1089 62.168 530.905 512.994
1104 0 75.1297 12.8977 969 64.0227 531.247 513.428
1105 0 77.2314 12.3007 950 64.7958 531.081 512.067
1106 0 81.309 12.5201 1018 64.1051 530.639 513.637
1107 0 84.1657 12.3209 1037 64.5082 530.403 511.127
1108 1 47.127 12.8376 605 62.4496 530.385 528.793
1109 0 47.0218 12.7813 601 63.5624 530.8 527.208
1110 0 47.0549 11.2422 529 65.5142 530.9 525.45
1111 0 49.048 12.8242 629 63.2973 530.881 525.731
1112 0 51.1169 12.7942 654 63.8991 530.613 523.465
1113 0 52.0408 12.5671 654 63.8991 530.991 523.977
1114 0 53.2132 12.4593 663 64.7753 530.917 520.867
1115 0 54.0392 13.8418 748 63.5749 530.473 519.888
1116 0 57.0842 12.2626 700 64.4057 530.549 520.997
1117 0 58.0568 12.2639 712 64.6067 531.079 518.007
1118 0 60.0486 13.3225 800 63.02 531.195 518.211
1119 0 61.4071 11.5948 712 64.8834 530.701 517.215
1120 0 63.0866 12.4115 783 64.41 530.507 515.165
1121 0 65.15 12.1412 791 63.933 530.724 517.42
1122 0 68.0514 14.8858 1013 60.9961 530.738 512.269
1123 0 68.2059 12.257 836 64.823 530.577 509.371
1124 0 73.0871 14.4211 1054 61.76 531.729 509.519
1125 0 75.1231 13.7241 1031 62.3657 531.237 509.917
1126 0 79.1261 13.0677 1034 62.9081 531.04 511.414
1127 0 79.2244 11.7767 933 64.7095 531.458 509.1
1128 0 83.1742 12.4197 1033 63.4279 531.046 509.527
1129 1 39.0553 12.7256 497 62.9416 531.125 527.286
1130 0 42.0405 10.9894 462 63.7619 531.032 527.478
1131 0 46.1347 13.5256 624 61 531.061 525.455
1132 0 45.0933 11.4429 516 63.874 531.035 525.506
1133 0 49.1411 11.1516 548 63.6734 531.082 524.922
1134 0 49.0858 12.1827 598 62.7408 530.87 523.547
1135 0 48.0486 13.0493 627 62.8788 530.531 522.161
1136 0 50.0432 12.5492 628 62.6783 531.182 522.666
1137 0 50.0357 12.1713 609 63.2808 531.154 522.184
1138 0 52.0637 13.5219 704 62.1648 531.176 520.499
1139 0 56.1086 14.2402 799 60.2566 531.288 521.273
1140 0 55.1357 13.0587 720 62.8222 531.117 518.611
1141 0 58.0632 12.297 714 63.0672 531.853 518.12
1142 0 60.0486 13.2393 795 62.044 531.974 517.955
1143 0 62.0613 11.6014 720 63.8028 531.419 517.428
1144 0 63.1361 14.1599 894 61.3993 530.829 516.625
1145 0 67.0828 13.0436 875 62.5966 531.385 513.883
1146 0 68.0957 14.5971 994 60.6117 531.579 515.168
1147 0 73.0873 13.6959 1001 60.984 531.062 513.81
1148 0 73.1151 12.3367 902 63.6519 530.983 511.371
1149 0 74.0839 13.9032 1030 63.068 531.409 508.045
1150 0 76.0921 13.326 1014 63.6607 531.24 508.305
1151 0 78.0701 11.669 911 65.4676 531.362 509.381
1152 1 40.0695 13.0024 521 64.309 530.735 524.232
1153 0 43.0457 12.7771 550 63.4073 531.485 525.824
1154 0 45.3079 12.1392 550 64.5 531.789 523.525
1155 0 46.1168 13.249 611 63.0213 531.444 525.077
1156 0 47.0949 13.8869 654 62.1162 531.488 523.378
1157 0 49.0999 10.8147 531 65.9002 531.273 521.55
1158 0 49.0314 14.195 696 62.4914 531.27 521.22
1159 0 52.0472 12.6424 658 63.693 530.991 520.81
1160 0 55.0828 14.2694 786 62.2405 530.785 520.431
1161 0 55.0481 13.4428 740 63.4878 531.339 519.215
1162 0 56.108 13.3671 750 63.564 530.555 515.112
1163 0 59.14 13.375 791 63.2984 530.822 516.314
1164 0 59.0718 12.2055 721 65.5451 530.699 516.632
1165 0 62.1642 12.1453 755 64.6384 530.742 515.521
1166 0 64.0932 12.7627 818 64.2543 531.026 514.608
1167 0 67.0969 13.4134 900 63.2144 531.07 513.536
1168 0 68.0461 12.6679 862 64.5568 531.002 510.84
1169 0 74.0781 13.0403 966 62.8271 531.393 512.725
1170 0 75.2007 12.2472 921 63.5288 530.658 511.088
1171 0 76.1479 13.7627 1048 63.2252 530.724 510.047
1172 0 79.2441 12.0514 955 64.289 530.667 512.488
1173 1 41.1146 11.2126 461 64.2104 530.735 527.406
1174 0 39.0386 12.398 484 64.4215 530.86 527.574
1175 0 41.0135 10.0942 414 66.3382 531.372 526.577
1176 0 46.1368 13.2432 611 61.7921 531.205 527.259
1177 0 46.1479 12.1132 559 63.424 531.068 526.834
1178 0 47.1084 12.7154 599 62.7162 532.184 526.963
1179 0 50.1462 12.8624 645 63.0744 531.85 525.563
1180 0 50.0258 12.3936 620 64.021 531.023 525.426
1181 0 52.0486 13.449 700 63.0857 531.27 522.193
1182 0 53.0494 11.6495 618 65.4482 530.426 519.798
1183 0 55.0519 12.9878 715 63.9692 530.694 519.933
1184 0 58.088 12.5499 729 63.6337 530.46 520.414
1185 0 57.0582 11.9527 682 64.9883 531.428 517.779
1186 0 61.1866 15.1504 927 61.712 531.415 515.819
1187 0 61.1444 13.0511 798 64.1341 530.581 516.232
1188 0 66.1624 14.4493 956 62.001 530.692 515.447
1189 0 68.1587 13.2338 902 63.2206 531.344 516.379
1190 0 68.0554 12.1666 828 65.3285 530.983 509.295
1191 0 71.081 13.8434 984 63.6829 531.149 511.409
1192 0 74.0977 12.524 928 65.347 531.181 510.818
1193 0 74.0521 9.72289 720 69.3736 531.178 510.281
1194 0 79.1307 14.7098 1164 63.5773 531.491 507.504
1195 1 37.0672 10.8452 402 66.0697 532.102 529.647
1196 0 39.1067 11.4303 447 66.7629 532.474 526.492
1197 0 40.0527 11.2602 451 67.6696 531.197 525.053
1198 0 42.1199 11.6572 491 66.4969 531.147 526.923
1199 0 44.0606 13.436 592 64.6047 531.755 525.801
1200 0 46.107 13.9675 644 64.1475 532.005 524.062
1201 0 46.0865 13.8869 640 64.6172 532.219 524.914
1202 0 48.2007 11.95 576 66.691 532.252 524.009
1203 0 50.0455 12.5885 630 66.1206 532.203 522.292
1204 0 52.0964 12.2465 638 66.3605 531.944 522.114
1205 0 52.0938 11.5753 603 67.5207 532.041 519.836
1206 0 54.0961 13.8088 747 64.5877 531.803 520.94
1207 0 56.0578 12.5228 702 65.9345 531.13 519.283
1208 0 59.0653 13.629 805 64.9342 531.219 516.365
1209 0 61.1305 12.9559 792 65.1995 531.672 518.096
1210 0 63.0604 12.7973 807 65.4114 531.639 517.413
1211 0 65.1123 11.7182 763 65.9974 531.705 517.949
1212 0 69.2257 13.0298 902 65.1918 531.941 513.637
1213 0 70.0737 12.6153 884 66.5305 531.638 513.56
1214 0 70.2352 11.1198 781 68.0871 531.74 513.579
1215 0 74.2651 13.169 978 65.7515 531.765 510.584
1216 0 78.1595 13.3701 1045 65.2603 531.712 511.54
1217 1 41.198 11.6753 481 65.1954 531.42 529.919
1218 0 43.2012 12.8469 555 64.1099 531.364 529.431
1219 0 44.099 13.1522 580 64.9086 531.703 526.464
1220 0 46.1107 13.923 642 63.8396 531.802 526.882
1221 0 45.1348 13.1163 592 65.228 531.201 525.532
1222 0 47.0247 12.9932 611 65.7349 531.48 522.023
1223 0 50.2042 12.4292 624 65.8734 530.899 522.679
1224 0 51.0689 11.7684 601 66.5424 530.419 522.408
1225 0 51.0912 12.8398 656 66.122 531.099 521.049
1226 0 54.2588 13.9701 758 62.7256 531.52 524.409
1227 0 56.069 13.6617 766 63.7415 531.466 521.936
1228 0 56.2114 13.0401 733 64.7885 531.531 521.559
1229 0 60.1225 13.8384 832 63.5589 530.881 519.819
1230 0 61.2206 12.5285 767 65.2373 531.076 519.864
1231 0 63.1683 11.8572 749 66.6395 531.128 516.529
1232 0 65.0717 14.1075 918 64.0643 531.422 515.362
1233 0 69.1085 15.9604 1103 61.3672 530.712 514.607
1234 0 72.1051 14.4373 1041 62.952 531.252 514.821
1235 0 73.059 15.1248 1105 63.1303 531.207 513.011
1236 0 75.1632 14.4486 1086 64.1805 530.673 512.929
1237 1 39.2292 9.89058 388 68.0438 531.356 529.722
1238 0 36.0277 9.35391 337 70.0089 531.243 529.193
1239 0 43.1092 12.9903 560 63.9518 531.998 530.143
1240 0 40.074 12.1775 488 67.2725 531.473 527.691
1241 0 42.205 14.2874 603 65.4046 531.541 527.874
1242 0 43.1673 12.3936 535 68.3607 531.316 526.828
1243 0 44.0275 13.2644 584 67.2688 531.74 526.884
1244 0 46.0424 13.2487 610 66.9082 531.889 526.311
1245 0 48.0211 14.2854 686 65.8834 532.615 523.345
1246 0 48.0445 13.0088 625 67.728 532.059 523.197
1247 0 47.0755 12.5331 590 69.4932 531.854 522.785
1248 0 52.0915 12.7276 663 67.5701 532.062 525.17
1249 0 53.148 12.5122 665 67.9218 531.97 522.368
1250 0 55.1151 15.64 862 63.9281 532.582 522.829
1251 0 59.1091 14.9385 883 64.4926 532.336 522.163
1252 0 59.2265 14.0309 831 66.4043 532.368 518.773
1253 0 60.0688 13.9174 836 66.305 531.915 519.512
1254 0 62.1192 14.2951 888 65.6779 531.741 519.705
1255 0 66.1113 14.3546 949 65.2729 531.956 518.475
1256 0 66.0751 14.1203 933 66.3773 531.776 515.318
1257 0 71.1817 13.6271 970 66.2258 531.805 514.989
1258 0 71.1815 13.2338 942 67.5594 531.535 514.976
1259 0 72.2103 12.062 871 69.5626 531.739 515.452
1260 1 40.1412 10.8617 436 68.7179 531.885 531.642
1261 0 40.1227 13.0599 524 67.3378 531.387 531.408
1262 0 41.0979 12.0201 494 69.8725 531.166 528.781
1263 0 41.0316 11.7471 482 70.89 531.753 526.471
1264 0 46.0741 12.6101 581 69.2186 530.909 526.983
1265 0 46.0904 11.8029 544 70.5184 531.483 526.119
1266 0 47.0442 13.2641 624 70.0673 531.731 524.502
1267 0 49.137 13.1673 647 69.2488 531.071 525.054
1268 0 53.0935 12.5062 664 69.3283 531.622 525.465
1269 0 52.1793 13.5878 709 69.5557 531.281 522.653
1270 0 53.1354 12.6846 674 70.8991 531.366 521.145
1271 0 55.0854 12.6531 697 70.2023 530.782 520.897
1272 0 58.0635 13.5541 787 68.2033 530.301 521.571
1273 0 62.0935 13.8018 857 67.4971 530.775 519.526
1274 0 62.087 14.9629 929 66.2637 531.481 519.281
1275 0 64.1556 14.3557 921 66.8056 530.694 518.752
1276 0 66.0653 12.9417 855 69.0234 531.243 516.823
1277 0 69.0749 12.4937 863 69.2121 531.457 516.377
1278 0 71.1893 12.7688 909 68.7756 531.475 515.624
1279 0 70.0929 12.4406 872 70.7936 530.947 510.796
1280 0 76.0673 13.4881 1026 67.7856 531.766 514.66
1281 1 35.0296 11.0192 386 72.0259 531.412 529.383
1282 0 40.0495 13.3335 534 67.5936 531.017 529.845
1283 0 41.2242 12.5654 518 68.6371 531.51 528.737
1284 0 43.0251 13.62 586 67.6928 530.894 526.845
1285 0 47.1202 13.9218 656 65.7363 531.514 528.668
1286 0 46.0906 13.2782 612 67.3497 531.944 528.732
1287 0 46.082 12.6296 582 68.3505 531.993 526.524
1288 0 49.1465 12.656 622 68.0418 530.957 525.768
1289 0 52.1499 12.2723 640 67.8172 531.694 526.089
1290 0 52.0311 14.7604 768 65.7865 531.415 522.603
1291 0 55.0891 14.4856 798 65.391 532.214 523.451
1292 0 53.1049 13.0497 693 67.2395 530.906 523.766
1293 0 58.138 14.3796 836 64.7644 531.592 522.278
1294 0 58.1782 12.8227 746 66.811 531.303 521.457
1295 0 59.0919 13.0644 772 66.4067 530.313 522.242
1296 0 60.3313 15.2657 921 64.899 531.591 518.167
1297 0 63.1466 12.4631 787 67.4612 531.405 518.867
1298 0 65.1151 13.9752 910 65.3407 530.784 517.613
1299 0 67.1156 12.7243 854 66.6382 531.012 516.578
1300 0 71.5481 13.9906 1001 64.995 531.532 516.02
1301 0 72.0346 15.437 1112 63.7788 531.931 514.757
1302 0 75.2256 14.7556 1110 64.3468 531.787 514.581
1303 0 78.4112 13.2634 1040 66.674 532.224 513.157
1304 0 79.2141 14.0505 1113 66.2327 531.125 509.978
1305 0 81.2366 12.9991 1056 67.1411 530.969 512.017
1306 0 85.2748 13.521 1153 67.2056 531.606 507.753
1307 1 44.0916 12.6555 558 67.9624 531.211 528.251
1308 0 42.2558 12.9686 548 69.4197 531.648 526.995
1309 0 49.0392 13.01 638 68.1223 531.495 524.448
1310 0 48.0591 13.2961 639 68.18 532.515 525.069
1311 0 50.2725 13.2876 668 68.0719 532.266 524.856
1312 0 49.078 13.2442 650 68.6292 532.211 524.82
1313 0 53.1963 13.6288 725 68.0979 532.117 524.739
1314 0 52.0775 14.2864 744 68.4556 532.099 522.57
1315 0 58.1903 14.2807 831 66.6366 532.597 522.677
1316 0 58.0727 14.4991 842 67.19 532.919 521.086
1317 0 62.1161 14.9076 926 66.0097 532.018 520.045
1318 0 62.3504 14.3223 893 67.2609 531.409 517.205
1319 0 66.2093 13.412 888 67.8052 531.575 518.856
1320 0 68.2297 13.8796 947 67.3432 531.384 516.952
1321 0 69.0421 13.3542 922 68.6443 532.225 516.394
1322 0 72.1855 13.8393 999 67.966 532.099 516.115
1323 0 75.11 14.2724 1072 68.3685 531.411 514.216
1324 0 79.3069 13.5171 1072 69.1931 531.59 511.775
1325 1 41.1693 12.9951 535 68.7907 531.585 529.721
1326 0 38.3464 14.5255 557 68.6984 531.255 531.054
1327 0 41.0901 14.6994 604 69.0166 531.674 530.159
1328 0 44.226 13.1597 582 70.3299 531.232 527.117
1329 0 46.2887 13.4806 624 69.1474 531.615 529.298
1330 0 48.665 13.3772 651 70.0937 532.694 528.909
1331 0 51.2271 14.6016 748 68.0535 531.952 526.453
1332 0 52.3622 15.0681 789 67.0317 531.772 528.152
1333 0 53.6144 14.7722 792 68.3876 532.066 525.39
1334 0 55.5726 13.046 725 70.4579 532.266 525.828
1335 0 58.4985 14.3764 841 69.038 531.937 523.551
1336 0 57.525 12.412 714 71.8165 532.445 525.312
1337 0 62.3347 13.7644 858 69.7786 531.533 522.437
1338 0 62.3538 14.0489 876 70.0662 531.767 521.666
1339 0 65.4871 13.6974 897 69.4281 531.654 521.143
1340 0 68.5367 13.6569 936 69.8686 531.09 518.126
1341 0 71.6626 13.5496 971 69.8847 532.031 518.04
1342 0 69.511 14.3574 998 69.6253 532.042 516.302
1343 0 74.505 13.6098 1014 70.1953 531.681 516.044
1344 0 76.6356 13.7403 1053 70.1871 532.048 515.088
1345 0 80.6059 15.6316 1260 67.3492 531.763 516.219
1346 0 82.4666 14.0663 1160 70.0845 531.527 511.053
1347 0 85.2912 15.1246 1290 68.9915 531.016 509.033
1348 0 87.3404 13.705 1197 71.2907 531.297 508.596
1349 1 48.3761 12.8369 621 71.0209 532.686 526.836
1350 0 49.311 12.1474 599 72.3205 532.471 527.628
1351 0 50.6185 12.6238 639 72.5133 532.776 526.54
1352 0 51.3294 12.6828 651 72.2181 532.278 525.697
1353 0 48.4076 11.9609 579 74.2228 532.454 525.337
1354 0 56.3327 13.8286 779 69.5944 531.865 526.416
1355 0 56.3815 12.5041 705 71.9702 531.316 523.79
1356 0 57.308 13.8201 792 70.5139 531.778 521.962
1357 0 61.3353 13.5648 832 70.5769 531.832 520.607
1358 0 63.5251 14.6714 932 68.0751 531.96 520.491
1359 0 65.4235 13.6343 892 69.0123 532.252 521.926
1360 0 68.4085 14.0041 958 68.4823 532.599 517.862
1361 0 67.3378 11.9101 802 72.2095 532.662 515.055
1362 0 73.6403 14.8424 1093 67.3294 532.059 517.251
1363 0 76.3464 15.0891 1152 66.4983 531.864 515.756
1364 0 78.2813 12.519 980 70.0878 531.639 514.807
1365 0 79.3773 12.4091 985 70.4102 532.443 510.027
1366 0 83.3689 14.2859 1191 67.0218 531.495 513.501
1367 0 85.419 13.4982 1153 68.7676 531.789 508.601
1368 0 85.342 12.5261 1069 70.507 532.068 505.545
1369 0 90.3738 11.8618 1072 70.3535 532.569 510.111
1370 0 94.4371 13.3846 1264 68.6574 532.706 505.835
1371 0 98.3486 12.6997 1249 69.779 532.513 504.989
1372 1 51.2826 10.3349 530 72.0585 532.53 525.479
1373 0 52.267 11.3839 595 71.5731 532.951 524.207
1374 0 57.3139 12.7194 729 68.5199 533.119 526.283
1375 0 58.2031 12.9031 751 68.4874 531.563 525.337
1376 0 59.4345 13.9986 832 67.4904 532.073 522.407
1377 0 62.3409 13.6026 848 67.013 533.159 521.686
1378 0 64.3156 13.7447 884 67.0294 532.367 518.601
1379 0 64.4621 12.5345 808 68.6052 533.046 518.703
1380 0 67.2017 14.702 988 65.1943 532.66 519.661
1381 0 68.3466 13.1096 896 67.4777 532.28 517.315
1382 0 70.3334 12.2275 860 68.9233 532.776 515.436
1383 0 72.4705 12.5016 906 67.8808 531.839 514.067
1384 0 77.5096 13.6886 1061 65.377 531.781 512.43
1385 0 78.4305 12.5589 985 67.3046 532.754 509.949
1386 0 80.3877 12.3526 993 67.006 532.202 509.898
1387 0 81.409 12.8364 1045 66.3809 532.269 508.524
1388 0 87.2159 13.759 1200 64.4067 532.043 509.162
1389 0 87.2383 14.2254 1241 64.5157 531.894 506.293
1390 0 90.4793 13.2848 1202 65.5874 531.837 505.562
1391 0 94.5216 14.4094 1362 63.5396 532.062 501.284
1392 1 46.2796 10.026 464 66.7047 531.998 527.194
1393 0 49.3247 12.8739 635 63.5528 531.928 524.737
1394 0 48.2787 12.1793 588 65.4898 531.959 523.505
1395 0 48.18 13.8232 666 63.4745 532.387 524.781
1396 0 52.4183 11.5227 604 65.0877 531.949 523.108
1397 0 54.3049 11.3618 617 64.8817 532.75 522.817
1398 0 53.3411 11.9608 638 64.4702 532.44 522.682
1399 0 55.3424 14.1663 784 61.852 532.073 520.92
1400 0 58.3078 13.0686 762 62.8543 531.4 519.004
1401 0 58.2758 12.029 701 64.0357 532.419 517.19
1402 0 63.3875 14.3088 907 61.0066 531.493 516.788
1403 0 63.3142 14.1359 895 61.2737 532.248 516.516
1404 0 66.4936 11.6853 777 63.843 530.752 514.44
1405 0 69.1889 11.9817 829 63.1701 530.831 516.112
1406 0 72.3441 13.422 971 61.0402 531.275 516.102
1407 0 72.2626 11.9149 861 63.6237 531.958 510.281
1408 0 77.4622 15.8529 1228 58.6067 531.845 513.068
1409 0 76.2813 13.9091 1061 61.6682 531.244 510.615
1410 0 79.2253 13.1524 1042 62.4088 532.056 507.96
1411 0 82.1379 12.6008 1035 62.9594 532.022 505.014
1412 0 87.4563 12.7607 1116 62.4668 532.442 507.513
1413 0 88.1332 12.4244 1095 63.0603 532.642 505.049
1414 0 94.5115 13.5116 1277 61.1535 532.161 503.859
1415 0 95.2247 12.4548 1186 62.7766 532.555 499.721
1416 1 53.5631 11.8178 633 61.7125 533.098 524.978
1417 0 50.1928 12.4918 627 62.1451 532.954 524.341
1418 0 55.4074 12.381 686 61.0539 533.203 524.767
1419 0 58.4548 11.9066 696 62.1394 532.596 521.839
1420 0 58.4231 12.1527 710 62.4577 532.975 522.354
1421 0 60.286 12.3412 744 62.2366 532.7 520.98
1422 0 58.1299 12.9194 751 63.3142 532.919 518.169
1423 0 62.1568 11.841 736 63.5122 532.929 517.757
1424 0 64.1988 11.7136 752 62.8737 532.242 519.975
1425 0 67.1429 11.8255 794 63.5768 532.229 515.627
1426 0 70.1471 14.5124 1018 61.5472 532.82 513.941
1427 0 72.3955 13.744 995 62.5307 532.642 514.846
1428 0 75.1893 13.2599 997 63.5276 532.302 510.573
1429 0 76.2973 12.7527 973 64.3094 532.653 512.273
1430 0 79.2212 12.1054 959 65.2534 532.681 510.552
1431 0 81.2414 13.9092 1130 63.4903 532.381 510.881
1432 0 90.3476 15.0198 1357 62.1651 532.584 508.496
1433 0 89.2258 13.0007 1160 65.3086 532.379 506.896
1434 0 93.3152 14.585 1361 63.5562 531.904 505.409
1435 0 96.3136 13.2795 1279 64.8624 532.304 503.389
1436 0 99.3124 13.6539 1356 65.0317 532.291 499.553
1437 1 48.027 10.9522 526 66.2224 531.962 526.418
1438 0 52.1214 11.1854 583 66.4683 532.046 523.346
1439 0 53.3543 14.0382 749 63.1963 531.644 523.975
1440 0 55.0403 13.6446 751 63.5646 532.222 523.816
1441 0 56.0775 12.4114 696 65.6149 531.83 519.563
1442 0 59.2121 13.7979 817 63.1163 532.031 521.07
1443 0 60.1112 13.9907 841 63.5589 531.581 517.155
1444 0 64.2251 13.733 882 62.9308 531.397 518.54
1445 0 66.0274 12.1313 801 64.633 532.196 516.805
1446 0 67.0982 13.9497 936 62.7703 531.728 516.788
1447 0 69.1127 13.4563 930 63.3151 532.005 515.934
1448 0 72.2085 11.7299 847 65.1074 531.795 512.591
1449 0 76.1034 13.981 1064 62.5301 531.667 513.836
1450 0 76.1273 13.0439 993 65.1692 531.776 510.016
1451 0 79.2497 12.8833 1021 64.5122 531.707 512.372
1452 0 82.1132 14.9428 1227 62.621 532.143 509.105
1453 0 84.1662 14.6971 1237 63.1463 531.311 505.103
1454 0 87.1718 12.0337 1049 65.7121 531.513 505.645
1455 0 88.1729 11.9878 1057 66.5894 531.286 503.313
1456 0 94.2163 14.87 1401 62.6838 532.161 499.661
1457 0 97.182 15.5893 1515 61.5934 531.618 499.469
1458 1 48.0429 12.0934 581 64.9053 531.685 521.651
1459 0 50.0468 14.2467 713 62.54 531.459 522.749
1460 0 51.0912 12.2722 627 64.6204 532.088 522.581
1461 0 53.1442 13.4352 714 63.5994 531.99 520.676
1462 0 57.1505 12.6683 724 63.953 531.932 521.177
1463 0 57.2233 13.5434 775 64.1252 531.907 518.843
1464 0 59.0934 14.6378 865 62.6277 532.247 517.782
1465 0 59.116 12.0779 714 66.2269 531.153 516.443
1466 0 62.1799 10.9199 679 66.5641 531.87 514.477
1467 0 65.2965 12.604 823 64.7436 531.538 513.933
1468 0 68.3029 13.1912 901 64.0477 531.658 514.183
1469 0 72.1687 14.0227 1012 62.8607 531.68 513.48
1470 0 73.2117 13.2766 972 64.1944 531.771 511.541
1471 0 77.3645 13.8306 1070 64.0374 531.807 509.734
1472 0 79.301 12.7741 1013 65.7127 532.486 506.654
1473 0 81.1389 13.4337 1090 64.6615 532.369 507.476
1474 0 82.3289 12.3043 1013 66.1076 532.112 506.093
1475 0 86.1524 14.4279 1243 63.9083 531.442 505.266
1476 0 89.4221 12.2788 1098 66.6794 531.495 502.07
1477 1 45.1753 9.27498 419 67.2076 531.504 527.842
1478 0 48.2291 12.648 610 65.3049 531.841 523.797
1479 0 49.0133 12.2416 600 66.105 532.132 523.137
1480 0 51.0963 12.3688 632 65.7247 531.805 522.201
1481 0 53.1591 14.5036 771 62.7575 531.411 520.637
1482 0 53.0619 12.476 662 65.071 531.405 520.403
1483 0 55.1549 13.9244 768 63.7734 531.056 516.396
1484 0 58.1946 12.8706 749 64.2323 531.288 520.211
1485 0 58.0783 13.5507 787 63.784 530.911 515.278
1486 0 60.1667 12.9474 779 64.6123 531.309 518.315
1487 0 62.1575 12.3718 769 65.104 531.793 513.33
1488 0 65.3463 12.7628 834 64.8813 531.44 514.365
1489 0 70.2043 14.0162 984 63.4126 531.01 513.204
1490 0 74.2717 13.3429 991 63.6488 531.191 510.451
1491 0 71.1103 11.3345 806 66.9938 530.904 509.659
1492 0 75.1407 13.4947 1014 64.1489 531.312 511.063
1493 0 78.2325 16.0547 1256 61.6115 531.26 507.323
1494 0 79.046 13.6376 1078 64.3822 531.538 508.323
1495 0 88.1713 15.6854 1383 61.6493 531.249 505.196
1496 0 91.3409 13.893 1269 63.2214 531.137 506.615
1497 1 48.2525 10.2585 495 64.9475 531.582 526.549
1498 0 49.3684 11.7079 578 64.41 531.82 523.702
1499 0 47.3441 13.1379 622 63.8601 532.029 523.722
1500 0 48.3517 11.6852 565 64.9823 531.087 522.984
1501 0 51.384 12.7082 653 63.6539 531.862 522.764
1502 0 51.0725 14.5675 744 62.246 531.937 520.512
1503 0 52.0719 12.5788 655 64.2992 531.397 521.06
1504 0 54.2405 13.4033 727 63.3618 531.451 518.843
1505 0 57.0253 12.7663 728 63.9945 531.118 517.723
1506 0 59.09 11.6602 689 64.881 531.746 519.856
1507 0 61.1092 11.864 725 64.9669 531.684 515.568
1508 0 61.1304 14.968 915 62.5716 531.286 515.019
1509 0 69.1769 13.0824 905 63.137 531.419 516.469
1510 0 68.0672 12.282 836 65.6842 531.675 512.767
1511 0 71.0716 12.7055 903 65.1561 531.498 510.718
1512 0 73.0667 12.6186 922 65.0206 532.213 513.565
1513 0 76.5906 13.2784 1017 64.7502 531.417 510.439
1514 0 78.1265 12.5054 977 65.5998 530.975 512.692
1515 0 78.2204 13.4364 1051 65.8582 531.284 509
1516 0 82.4423 15.0772 1243 64.0515 532.125 506.455
1517 0 82.1057 11.9358 980 68.7592 531.434 507.362
1518 1 47.1149 13.223 623 64.2231 532.143 526.823
1519 0 45.037 13.5 608 66.6266 531.786 524.031
1520 0 47.366 13.4696 638 66.2194 531.32 523.745
1521 0 50.2095 14.0212 704 66.0739 531.818 519.572
1522 0 50.0558 12.506 626 68.0863 531.668 520.351
1523 0 53.0371 14.0279 744 65.1008 531.692 521.37
1524 0 55.072 12.5472 691 67.1606 532.185 519.09
1525 0 56.0857 14.2104 797 65.5583 531.636 519.56
1526 0 58.0424 12.8527 746 66.9008 532.239 517.103
1527 0 61.1169 13.4987 825 65.4582 531.897 518.821
1528 0 63.0485 13.672 862 65.4606 531.01 516.958
1529 0 66.223 12.4126 822 66.5474 531.254 516.314
1530 0 64.1296 12.7242 816 67.4461 531.886 511.79
1531 0 69.1721 13.1845 912 66.0603 531.557 514.042
1532 0 68.1037 14.566 992 65.4889 531.932 512.708
1533 0 75.1384 13.9476 1048 65.0105 531.385 512.537
1534 0 75.2287 13.7049 1031 65.7216 531.293 511.65
1535 1 40.0559 11.8085 473 66.1121 531.482 529.662
1536 0 38.0881 14.519 553 66.2188 531.324 526.018
1537 0 42.0522 13.0314 548 65.6204 531.02 527.469
1538 0 40.0583 13.1059 525 67.661 530.989 523.844
1539 0 44.0872 14.1991 626 65.5591 530.487 524.291
1540 0 44.0259 11.4932 506 69.083 530.166 525.891
1541 0 47.0578 12.1765 573 66.7609 530.658 523.635
1542 0 48.034 11.138 535 67.9981 530.542 521.993
1543 0 48.0816 14.3506 690 65.087 530.759 521.168
1544 0 49.0588 11.3537 557 68.6068 530.989 522.303
1545 0 52.0459 14.4488 752 64.1184 531.299 521.169
1546 0 53.1578 11.2495 598 68.2726 531.493 519.135
1547 0 55.0899 13.5415 746 65.5228 530.772 518.213
1548 0 56.04 14.2398 798 64.4348 531.068 517.942
1549 0 57.062 14.4755 826 64.724 531.621 517.521
1550 0 62.0697 12.9693 805 65.6398 531.135 513.793
1551 0 64.0855 14.1842 909 63.7349 530.844 516.43
1552 0 66.1489 14.2557 943 64.3234 530.865 513.313
1553 0 68.133 13.2682 904 65.531 530.143 510.717
1554 0 71.058 12.9331 919 66.0294 531.112 511.919
1555 0 73.1301 15.6297 1143 63.3587 530.569 510.446
1556 0 78.2481 14.978 1172 63.3584 530.701 510.305
1557 0 76.2193 14.7207 1122 64.8111 530.742 508.156
1558 0 77.1454 11.6533 899 68.5851 530.753 504.461
1559 1 41.0275 12.8694 528 66.625 530.911 525.284
1560 0 42.0213 11.1372 468 69.1111 530.325 525.647
1561 0 45.0322 12.8575 579 66.3748 531.439 526.47
1562 0 47.1494 11.8135 557 67.5978 531.291 522.991
1563 0 48.0821 12.1667 585 66.9162 530.966 522.867
1564 0 50.0673 15.8387 793 62.4653 531.033 521.494
1565 0 49.0921 13.6886 672 65.2604 531.561 522.307
1566 0 52.1728 14.3561 749 64.1949 531.385 521.039
1567 0 57.1578 12.4043 709 65.5063 530.549 518.465
1568 0 56.1006 13.4045 752 65.0465 530.789 517.174
1569 0 57.1814 13.3785 765 65.0418 530.637 515.937
1570 0 60.0548 12.9548 778 65.1992 530.582 513.572
1571 0 62.0477 13.8281 858 64.1375 530.957 513.96
1572 0 62.1022 12.1896 757 65.8124 531.026 513.583
1573 0 66.1047 13.6601 903 64.3079 531.558 510.602
1574 0 68.0692 13.6332 928 63.3966 531.828 512.376
1575 0 69.4913 12.203 848 65.1568 531.048 511.199
1576 0 72.1474 12.2666 885 65.0079 530.861 509.043
1577 0 75.2222 13.6662 1028 64.0457 531.057 507.205
1578 0 77.331 12.4659 964 65.3164 531.457 506.155
1579 0 79.2801 13.4208 1064 64.2763 530.758 505.593
1580 0 81.276 13.7433 1117 63.9409 530.852 504.884
1581 0 85.0982 13.8311 1177 64.0705 531.038 503.218
1582 0 87.1606 13.5268 1179 63.9296 531.467 502.933
1583 0 90.1042 12.308 1109 65.2444 531.206 502.306
1584 0 95.2054 13.4761 1283 63.4131 530.813 499.592
1585 0 98.1356 13.7565 1350 63.1326 531.293 497.147
1586 0 100.153 13.8588 1388 62.505 531.7 495.033
1587 0 103.102 13.6369 1406 62.6871 531.026 494.01
1588 0 107.195 14.4783 1552 61.8157 530.855 493.276
1589 0 109.252 13.1623 1438 63.363 530.885 490.622
1590 0 116.195 15.672 1821 60.6447 530.948 489.647
1591 0 121.214 14.7756 1791 61.5628 530.635 487.601
1592 0 124.122 14.4052 1788 62.052 530.876 484.092
1593 0 128.159 13.0463 1672 63.8499 531.035 480.714
1594 0 131.265 14.4745 1900 62.6642 530.42 482.515
1595 0 137.241 13.6257 1870 63.7134 530.597 480.991
1596 1 81.0882 13.5161 1096 64.9854 531.17 507.775
1597 0 86.2827 14.974 1292 63.5604 530.893 504.851
1598 0 89.1281 13.8901 1238 65.4717 531.3 502.873
1599 0 91.2233 15.5333 1417 63.7445 531.162 501.561
1600 0 91.0438 13.5759 1236 66.8333 531.292 502.57
1601 0 94.0861 13.5408 1274 67.1531 531.784 502.127
1602 0 100.256 13.8745 1391 66.7326 531.691 499.032
1603 0 104.315 16.1529 1685 63.5537 531.321 499.475
1604 0 104.318 14.59 1522 66.3219 530.152 497.173
1605 0 109.337 15.2738 1670 65.9802 530.192 495.438
1606 0 113.191 15.1249 1712 66.0713 530.457 493.815
1607 0 115.154 16.4822 1898 65.1022 530.265 490.187
1608 0 119.202 14.2866 1703 68.0799 530.122 488.454
1609 0 120.157 13.2244 1589 69.8647 530.889 489.028
1610 0 125.321 15.8074 1981 66.4846 530.513 487.247
1611 1 49.3259 13.5426 668 66.9296 531.114 523.257
1612 0 52.1046 14.1254 736 66.1264 530.136 523.427
1613 0 53.2404 13.8053 735 67.1129 530.441 522.834
1614 0 53.6175 15.1257 811 65.7953 530.873 522.813
1615 0 56.2764 15.0329 846 65.5792 531.301 522.535
1616 0 56.0855 14.7097 825 67.5455 530.438 519.593
1617 0 58.274 13.7111 799 68.0188 531.039 518.551
1618 0 60.0953 14.061 845 68.1976 531.121 518.273
1619 0 63.0957 13.7252 866 67.9503 531.039 517.919
1620 0 65.1216 15.7398 1025 66.1512 531.48 514.816
1621 0 66.1103 15.8977 1051 65.8735 531.903 515.894
1622 0 66.0415 12.4467 822 69.7336 531.617 517.381
1623 0 74.0545 13.058 967 68.2048 531.592 515.411
1624 0 74.0964 14.7645 1094 66.947 531.492 512.934
1625 0 77.0985 14.8382 1144 67.3348 531.742 512.28
1626 0 78.2776 14.5508 1139 67.7059 531.493 508.608
1627 0 80.1423 13.7505 1102 68.3775 531.721 510.749
1628 0 84.295 13.4528 1134 68.6966 531.845 508.896
1629 0 86.0776 14.1965 1222 67.7365 531.696 508.547
1630 0 90.2 14.4789 1306 67.4012 531.034 506.429
1631 0 91.1613 13.0757 1192 69.604 531.106 506.11
1632 0 95.1703 14.4163 1372 67.82 531.257 504.626
1633 0 99.2084 12.6199 1252 69.4353 531.268 504.976
1634 1 44.0956 13.8789 612 67.5327 531.513 526.214
1635 0 47.1476 12.1321 572 68.8986 531.383 525.79
1636 0 48.0281 13.846 665 67.8015 530.786 524.583
1637 0 49.1287 12.1517 597 69.9548 530.854 524.087
1638 0 49.1115 11.8099 580 71.5707 531.2 522.879
1639 0 54.2508 14.6726 796 67.1055 531.014 523.647
1640 0 55.1036 14.2822 787 68.1245 531.433 522.579
1641 0 54.1023 12.9015 698 70.2507 530.835 521.312
1642 0 55.0971 12.5234 690 70.871 530.684 520.971
1643 0 60.064 14.418 866 68.2621 530.514 520.197
1644 0 62.1247 15.6459 972 67.0895 531.036 516.676
1645 0 62.0383 13.4433 834 70.56 531.035 515.941
1646 0 65.2441 12.6295 824 69.9417 530.28 517.101
1647 0 66.1316 13.9721 924 69.9199 531.066 514.584
1648 0 69.0354 14.6012 1008 68.7609 530.873 513.728
1649 0 72.129 14.2522 1028 68.8084 530.873 515.227
1650 0 74.0389 13.3984 992 70.4859 530.929 513.365
1651 0 79.1477 14.3403 1135 69.096 530.537 510.434
1652 0 81.1504 14.9229 1211 68.0619 530.344 509.116
1653 0 83.1481 15.2138 1265 68.6751 530.266 507.116
1654 0 85.2918 13.6355 1163 70.534 530.629 506.255
1655 0 89.1459 14.2014 1266 69.5079 531.272 507.727
1656 1 42.0355 13.0366 548 70.6734 530.956 525.122
1657 0 44.2104 13.1643 582 69.878 530.995 527.567
1658 0 44.0851 13.5193 596 70.3003 530.79 526.342
1659 0 47.2151 12.6866 599 70.5058 530.594 524.481
1660 0 49.1657 13.424 660 69.8091 531.055 523.414
1661 0 51.1204 14.5539 744 67.1694 530.868 523.805
1662 0 52.1021 14.2989 745 67.6604 530.677 521.166
1663 0 55.0352 14.3908 792 67.1705 530.505 519.524
1664 0 55.1346 13.73 757 67.7979 530.919 521.115
1665 0 58.0548 12.8844 748 68.3182 530.832 519.243
1666 0 60.0567 13.6038 817 67.4933 531.394 518.288
1667 0 63.0739 14.6653 925 65.9503 531.135 518.334
1668 0 63.0945 13.4402 848 68.3196 531.032 515.197
1669 0 66.1025 14.886 984 65.9746 531.387 515.298
1670 0 66.2249 13.1371 870 68.8126 531.57 514.553
1671 0 70.0785 14.0699 986 67.355 530.842 513.315
1672 0 71.1336 15.8294 1126 64.8899 530.798 513.259
1673 0 73.1088 13.391 979 67.8468 531.288 512.319
1674 0 76.0996 14.6913 1118 66.7979 531.602 509.267
1675 0 80.0308 14.332 1147 66.8335 530.833 508.563
1676 0 82.2012 14.428 1186 67.3457 530.353 506.212
1677 0 82.0635 12.2954 1009 70.0476 530.654 507.417
1678 0 86.2184 13.3846 1154 68.9272 530.167 502.674
1679 1 46.1261 12.3791 571 66.8687 530.984 526.485
1680 0 45.425 13.5168 614 66.399 530.948 525.901
1681 0 44.0718 13.115 578 68.0779 530.922 523.953
1682 0 46.0661 13.4372 619 66.0113 531.288 526.504
1683 0 51.0913 13.7401 702 65.3276 530.865 524.182
1684 0 49.0575 13.5759 666 67.4489 531.032 522.514
1685 0 49.1637 13.8924 683 67.2211 531.245 521.706
1686 0 54.1079 12.549 679 67.4595 531.283 520.928
1687 0 55.0657 12.3489 680 68.0985 531.366 519.781
1688 0 57.1653 13.3822 765 66.6196 531.039 518.728
1689 0 58.1889 12.4422 724 68.4157 530.337 516.407
1690 0 60.0875 12.8479 772 68.1554 530.847 515.725
1691 0 65.403 14.0208 917 66.0305 530.116 515.459
1692 0 64.2454 11.6584 749 69.3632 530.308 514.238
1693 0 68.1617 12.8078 873 67.4467 530.317 512.913
1694 0 70.2367 13.3548 938 67.3113 530.109 509.47
1695 0 72.0905 12.8866 929 68.2487 530.769 509.624
1696 0 71.0678 12.5233 890 69.0292 530.326 506.924
1697 0 77.1877 12.7093 981 68.4495 530.601 505.118
1698 0 79.2173 12.27 972 68.7685 530.699 509.094
1699 0 82.2068 13.6607 1123 66.7756 530.297 503.706
1700 0 85.2176 12.7908 1090 68.3927 530.128 503.113
1701 1 41.0487 13.959 573 67.103 529.897 524.663
1702 0 43.1133 12.0612 520 68.8288 530.623 525.429
1703 0 45.0964 12.6396 570 67.9088 530.161 522.956
1704 0 46.0818 10.9805 506 69.8202 529.84 522.476
1705 0 49.0811 10.228 502 69.3526 529.552 521.56
1706 0 51.0941 12.9369 661 66.3101 530.782 521.705
1707 0 55.1846 13.5907 750 64.3707 530.128 520.705
1708 0 54.1731 13.863 751 64.9867 530.457 517.839
1709 0 59.3752 13.1873 783 64.3704 529.967 515.294
1710 0 59.2307 13.1857 781 65.2049 530.461 515.399
1711 0 63.1869 13.5629 857 64.0268 530.371 514.468
1712 0 63.3219 12.6339 800 65.5038 529.305 514.023
1713 0 66.2901 13.5314 897 64.3311 529.809 510.011
1714 0 69.1225 13.0638 903 64.5282 529.752 512.135
1715 0 70.1534 12.9716 910 65.233 529.978 508.524
1716 0 73.1408 12.9613 948 65 530.406 508.323
1717 0 73.0507 12.416 907 66.2271 529.599 507.131
1718 0 77.1691 14.993 1157 62.5895 530.284 505.216
1719 0 79.0964 13.414 1061 64.6023 529.804 503.737
1720 0 85.2468 14.2879 1218 62.9343 530.008 503.51
1721 0 88.1124 14.6744 1293 62.423 530.423 504.124
1722 1 45.0695 13.335 601 62.9617 529.89 524.16
1723 0 46.0797 11.7188 540 65.1611 530.606 523.148
1724 0 47.0786 12.8721 606 63.1518 531.041 524.832
1725 0 49.2774 12.2571 604 64.1871 530.922 521.637
1726 0 54.3113 12.6309 686 62.6618 530.646 521.649
1727 0 52.1068 11.6491 607 64.8666 531.023 520.02
1728 0 56.1332 14.0559 789 61.3143 530.691 519.747
1729 0 58.1527 15.9236 926 59.7117 530.584 518.614
1730 0 61.369 14.7631 906 59.7086 530.842 518.638
1731 0 62.2675 13.1369 818 62.313 530.522 517.203
1732 0 66.3631 14.1344 938 60.5874 530.428 516.184
1733 0 67.2428 15.0648 1013 59.9447 530.505 514.538
1734 0 69.1705 12.7077 879 62.5927 530.378 511.344
1735 0 71.1452 12.7626 908 62.8998 529.72 509.793
1736 0 73.1793 12.9545 948 62.7247 530.367 511.446
1737 0 76.1721 13.7452 1047 61.659 530.414 509.83
1738 0 79.1891 13.3857 1060 61.5085 530.658 511.335
1739 0 82.2895 12.2981 1012 63.1966 530.81 508.895
1740 0 87.3206 15.5404 1357 59.5011 531.046 508.385
1741 0 87.4188 15.4315 1349 60.2342 530.915 505.901
1742 0 91.302 13.877 1267 62.0497 530.539 503.568
1743 1 49.3225 10.2793 507 63.785 530.44 525.256
1744 0 48.2798 12.6968 613 61.9364 530.192 524.889
1745 0 51.1046 13.4039 685 61.6745 530.485 523.185
1746 0 54.301 12.9648 704 61.3239 530.196 523.69
1747 0 51.1683 12.2928 629 64.0175 530.135 520.342
1748 0 54.2112 11.9901 650 63.44 530.217 519.637
1749 0 58.5576 14.7035 861 60.2602 530.258 518.265
1750 0 60.1673 14.7422 887 59.743 530.045 517.893
1751 0 60.2784 12.5916 759 62.4888 530.804 519.277
1752 0 64.2047 13.8152 887 61.2548 530.006 517.223
1753 0 65.3809 14.9585 978 60.2761 530.375 516.381
1754 0 67.1394 13.9263 935 61.6128 529.96 514.335
1755 0 70.2599 13.6351 958 62.0115 529.82 513.203
1756 0 73.3954 12.9572 951 62.4869 531.008 512.562
1757 0 73.2255 12.482 914 64.1488 530.163 510.933
1758 0 75.2334 14.5015 1091 61.8231 530.279 510.59
1759 0 79.0965 13.3381 1055 63.4502 530.14 506.84
1760 0 80.2981 13.2631 1065 63.4714 529.495 506.001
1761 0 85.2417 12.447 1061 63.9868 529.937 507.366
1762 0 88.3039 15.5372 1372 60.6727 530.142 504.902
1763 0 89.0988 15.5333 1384 60.7139 530.535 504.161
1764 0 90.0824 13.3322 1201 63.9567 530.28 503.281
1765 1 48.2027 10.1862 491 65.9898 529.8 522.532
1766 0 48.0696 12.3571 594 63.2744 529.81 523.694
1767 0 49.0758 11.9407 586 64.5256 530.094 521.507
1768 0 52.1015 12.2261 637 64.5856 530.356 519.405
1769 0 53.0956 12.8259 681 64.3128 531.173 518.396
1770 0 55.1283 12.6795 699 64.2432 531.359 518.173
1771 0 59.1506 15.1478 896 61.4933 530.506 516.48
1772 0 60.071 13.8836 834 62.9388 530.21 518.191
1773 0 62.2144 12.9552 806 64.0385 530.119 514.654
1774 0 66.2664 13.6419 904 63.1217 529.831 513.709
1775 0 69.377 15.0626 1045 61.2593 529.67 514.198
1776 0 69.2205 13.941 965 63.8715 529.904 510.556
1777 0 71.1951 13.9055 990 64.002 529.839 510.005
1778 0 73.3053 14.8284 1087 63.2852 530.324 509.979
1779 0 77.0941 14.4628 1115 63.1928 530.844 510.964
1780 0 78.2285 14.3554 1123 63.8727 530.079 505.678
1781 0 80.0832 15.1218 1211 63.0669 530.61 509.473
1782 0 85.1744 13.3373 1136 64.4727 530.261 507.962
1783 0 87.135 13.416 1169 64.6493 530.432 504.882
1784 0 90.1781 15.5359 1401 62.2912 530.478 503.055
1785 0 94.3473 13.6729 1290 64.6395 530.229 502.553
1786 0 97.3338 13.2431 1289 65.7688 529.883 499.163
1787 1 48.2669 14.0262 677 63.9453 530.77 522.26
1788 0 49.1744 12.2218 601 65.6223 530.02 522.599
1789 0 49.2538 13.0548 643 65.7885 530.308 522.106
1790 0 52.0801 12.9224 673 65.2912 530.535 519.856
1791 0 54.1769 13.1606 713 65.8583 530.616 517.719
1792 0 56.0776 12.7145 713 65.8752 530.743 518.87
1793 0 59.0765 12.8477 759 65.2055 530.598 517.008
1794 0 61.1984 14.2161 870 63.8736 530.494 517.618
1795 0 62.108 13.4926 838 65.611 531.089 514.779
1796 0 65.2108 12.6819 827 65.8476 530.79 513.932
1797 0 67.2461 14.1718 953 64.2949 530.816 512.593
1798 0 70.2743 14.9557 1051 63.4938 530.249 511.016
1799 0 72.2283 15.7002 1134 63.0926 529.653 509.361
1800 0 73.1649 14.9525 1094 63.9223 529.662 508.849
1801 0 73.1195 12.842 939 67.3951 530.3 506.654
1802 0 79.1991 13.3714 1059 67.0387 529.922 503.891
1803 0 82.3629 13.2463 1091 66.7039 530.278 506.814
1804 0 85.3451 13.4044 1144 66.6442 530.355 503.634
1805 0 86.2474 12.7772 1102 66.8367 530.393 506.498
1806 0 90.3845 13.6749 1236 65.7702 530.259 504.565
1807 1 43.1785 11.5104 497 67.7787 529.779 522.473
1808 0 44.2254 14.5165 642 64.5966 529.928 523.692
1809 0 45.1847 11.6411 526 67.0171 530.62 523.683
1810 0 46.1598 15.4247 712 64.0309 530.611 521.124
1811 0 50.2076 13.3247 669 64.8954 530.399 522.577
1812 0 50.1323 13.0455 654 66.3135 529.558 520.353
1813 0 51.1538 12.7068 650 66.7492 529.862 520.442
1814 0 54.1814 14.1377 766 65.5 529.51 519.362
1815 0 54.1037 13.4741 729 67.631 529.436 514.776
1816 0 55.1715 11.9446 659 69.1396 529.98 517.757
1817 0 58.2409 12.2594 714 69.0322 530.076 517.137
1818 0 61.1733 13.6334 834 67.494 529.8 514.915
1819 0 64.2872 14.1552 910 65.9659 530.7 514.131
1820 0 67.0858 13.9821 938 66.7825 530.633 514.299
1821 0 69.2255 14.3444 993 66.0645 530.115 513.949
1822 0 72.1431 14.2217 1026 66.5702 530.083 512.173
1823 0 72.1957 13.9344 1006 67.7594 529.863 509.477
1824 0 74.1523 14.1196 1047 67.765 530.513 508.438
1825 0 81.2805 12.34 1003 69.3968 530.184 505.704
1826 0 81.207 13.3732 1086 67.7302 529.848 509.036
1827 0 82.3165 13.5574 1116 68.5762 530.014 504.737
1828 0 85.1755 13.795 1175 68.1489 529.423 505.156
1829 0 89.0938 13.7608 1226 68.3499 529.98 501.604
1830 0 94.3124 12.9039 1217 68.7625 530.842 500.744
1831 1 41.1378 15.0227 618 65.1731 530.549 524.73
1832 0 43.1548 11.957 516 68.8023 529.703 525.161
1833 0 45.0573 14.4705 652 66.4218 529.768 521.722
1834 0 47.1883 15.2368 719 64.6954 530.398 522.152
1835 0 48.1202 14.3599 691 65.9928 529.725 521.456
1836 0 49.1009 13.3806 657 67.9254 529.265 520.74
1837 0 52.2404 15.3521 802 65.3005 529.657 518.18
1838 0 53.0335 12.4261 659 69.5827 530.193 519.03
1839 0 53.095 13.4476 714 68.4384 530.287 517.864
1840 0 58.3978 12.5005 730 68.4123 529.897 516.364
1841 0 58.2691 11.773 686 69.535 530.343 516.258
1842 0 60.1585 13.4146 807 67.2838 529.986 514.725
1843 0 63.0368 13.278 837 67.0609 530.339 515.731
1844 0 63.1976 13.7189 867 66.7878 530.555 513.764
1845 0 66.1618 13.2554 877 67.886 530.551 509.867
1846 0 70.3122 12.1743 856 68.6694 530.165 510.058
1847 0 72.262 15.7206 1136 64.2738 530.393 509.11
1848 0 72.2658 14.0177 1013 67.4176 530.332 506.818
1849 0 77.3887 14.873 1151 65.6169 530.396 506.045
1850 0 79.1318 12.8646 1018 67.5835 530.396 506.8
1851 0 82.0937 13.6551 1121 67.0607 530.302 504.28
1852 0 84.2072 13.823 1164 66.8196 530.484 502.256
1853 0 87.3396 14.873 1299 65.5797 530.358 501.157
1854 0 92.1867 13.7547 1268 66.1538 529.844 501.23
1855 0 90.2068 11.6621 1052 68.8289 530.325 497.693
1856 1 48.1536 14.8898 717 63.2789 530.636 519.927
1857 0 49.1854 11.8531 583 67.2316 530.527 519.235
1858 0 52.1907 13.968 729 64.2318 530.54 518.715
1859 0 53.1716 13.1649 700 64.1671 530.533 521.554
1860 0 53.1275 13.4394 714 64.5448 530.345 516.987
1861 0 55.2497 14.0453 776 63.7101 529.626 515.973
1862 0 56.1138 12.8132 719 64.4882 530.231 514.897
1863 0 59.1326 13.9517 825 63.2727 530.11 513.801
1864 0 59.1604 11.8491 701 65.5478 529.743 511.086
1865 0 63.0659 13.3511 842 63.1306 529.664 511.473
1866 0 66.2276 12.2305 810 64.1123 530.162 509.558
1867 0 66.1104 11.8892 786 64.5216 529.818 509.041
1868 0 68.0816 12.955 882 62.9603 529.385 505.549
1869 0 72.2894 14.4973 1048 60.7166 530.28 507.767
1870 0 74.0738 12.852 952 62.7185 530.25 504.276
1871 0 75.1642 10.8961 819 64.8022 530 505.297
1872 0 78.135 12.5552 981 63.1142 529.973 501.257
1873 0 81.2733 10.9384 889 64.2115 530.384 502.699
1874 0 86.2296 14.7397 1271 60.247 529.53 498.738
1875 0 88.3071 14.5175 1282 60.6583 529.37 497.966
1876 0 88.1162 10.9401 964 63.9865 529.867 497.68
1877 0 93.1606 12.838 1196 62.0426 529.63 492.06
1878 0 95.1463 11.9815 1140 63.0728 529.521 494.171
1879 1 50.1884 12.5527 630 62.0032 529.659 514.862
1880 0 53.2376 12.2094 650 62.18 530.042 514.026
1881 0 55.2089 10.7591 594 63.3973 529.303 513.527
1882 0 56.1006 15.0444 844 58.955 530.068 512.826
1883 0 59.0945 11.7101 692 62.4913 530.149 509.116
1884 0 59.0988 12.0984 715 61.9357 529.916 511.386
1885 0 62.1591 12.8863 801 61.1536 529.684 510.13
1886 0 65.2026 13.9258 908 59.6509 529.477 506.802
1887 0 65.0699 13.1551 856 61.4124 529.824 505.701
1888 0 70.1101 13.3076 933 60.2819 529.729 506.608
1889 0 73.1364 14.4114 1054 58.6518 529.263 504.103
1890 0 76.0609 12.6346 961 60.0957 529.511 503.173
1891 0 77.2035 13.6522 1054 59.2761 529.591 500.624
1892 0 79.1261 13.6744 1082 59.1885 529.86 501.641
1893 0 79.198 11.6796 925 62.0054 530.293 500.525
1894 0 82.302 13.6084 1120 61.0214 529.859 497.044
1895 0 88.1164 15.8427 1396 58.106 529.841 496.637
1896 0 92.2489 13.3985 1236 60.2678 529.823 497.612
1897 0 94.2389 14.962 1410 58.9404 529.983 493.475
1898 0 97.2251 12.1368 1180 61.789 529.881 494.262
1899 0 99.1851 13.994 1388 60.1664 530.293 489.091
1900 0 104.157 13.47 1403 60.6058 529.142 486.825
1901 1 50.1042 11.6557 584 60.3253 530.175 517.637
1902 0 51.0292 12.3851 632 60.9351 529.896 511.557
1903 0 54.2488 12.9219 701 59.8616 529.997 513.529
1904 0 56.0888 13.55 760 58.8645 530.221 511.996
1905 0 59.0738 13.8132 816 58.1409 529.65 509.871
1906 0 59.057 12.1239 716 60.3128 529.465 508.7
1907 0 62.2023 13.231 823 58.7509 529.872 504.835
1908 0 64.1246 12.7096 815 59.0417 529.394 504.227
1909 0 67.1326 12.3785 831 59.0566 529.061 501.957
1910 0 70.2544 13.8497 973 57.2662 529.888 503.468
1911 0 71.0689 13.4517 956 58.2019 530.236 499.319
1912 0 74.0534 13.7198 1016 57.8228 529.933 499.768
1913 0 74.169 12.0401 893 59.4983 528.955 499.55
1914 0 79.1849 12.5655 995 58.9206 529.988 497.259
1915 0 80.0675 10.6036 849 60.4134 530.018 499.846
1916 0 83.1888 11.8766 988 59.4808 529.669 494.777
1917 0 84.0805 11.8815 999 59.8368 529.836 492.597
1918 0 89.0676 12.4288 1107 58.757 529.263 492.75
1919 0 90.136 11.8599 1069 59.1534 529.478 489.137
1920 0 92.0632 12.6652 1166 58.199 530.292 490.761
1921 0 94.101 12.0084 1130 58.8832 530.32 488.624
1922 0 100.221 11.784 1181 59.1084 530.146 485.581
1923 0 103.237 12.2533 1265 58.3945 530.236 484.551
1924 1 49.1445 11.1915 550 58.7382 529.878 513.755
1925 0 52.1505 10.1629 530 59.9509 529.834 511.309
1926 0 55.1771 10.7835 595 59.1714 529.387 510.331
1927 0 57.1088 10.086 576 59.3576 530.408 512.734
1928 0 61.1207 11.6 709 57.9958 530.299 513.873
1929 0 62.0502 13.1345 815 57.4933 529.85 507.41
1930 0 65.0426 12.8839 838 57.5239 529.663 508.949
1931 0 66.1584 12.0922 800 58.9875 530.201 506.049
1932 0 67.0513 11.2451 754 60.3488 529.976 505.338
1933 0 73.1389 12.4011 907 58.4542 529.35 501.434
1934 0 73.1674 11.1798 818 60.2384 529.205 502.108
1935 0 77.0869 12.0903 932 58.8348 529.103 505.137
1936 0 80.062 11.5785 927 59.0766 529.289 503.89
1937 0 84.1229 14.0865 1185 56.7502 528.335 500.736
1938 0 86.0929 13.288 1144 58.0822 528.049 497.635
1939 0 90.0705 12.4902 1125 58.1307 527.588 500.951
1940 0 92.1076 12.8437 1183 58.3263 528.719 497.566
1941 0 93.1864 14.3476 1337 57.2371 527.728 496.265
1942 0 98.2218 13.948 1370 57.1905 527.62 493.336
1943 0 100.157 13.6586 1368 57.6425 527.569 495.946
1944 0 105.375 12.0997 1275 58.9788 527.424 492.684
1945 0 107.262 15.0379 1613 56.026 527.891 493.306
1946 0 113.275 12.0768 1368 58.8925 528.311 490.789
1947 0 115.152 12.8352 1478 58.3613 528.324 488.275
1948 0 117.198 12.6197 1479 58.7532 527.144 484.918
1949 0 120.103 13.3218 1600 58.0631 527.76 482.046
1950 1 57.1194 10.4343 596 59.6242 526.924 515.523
1951 0 56.0469 9.9381 557 60.3752 527.916 516.183
1952 0 62.028 12.1397 753 58.3347 527.588 511.777
1953 0 63.2829 11.9306 755 58.6503 527.966 511.64
1954 0 67.1951 12.4414 836 58.3768 528.24 511.207
1955 0 69.0977 12.7211 879 58.7122 528.028 510.641
1956 0 67.1157 12.3667 830 59.706 527.4 508.277
1957 0 70.1 12.3252 864 59.7847 527.494 506.715
1958 0 71.0378 11.5995 824 61.0534 528.199 504.252
1959 0 80.1392 13.9507 1118 57.3202 528.2 506.357
1960 0 84.2069 13.1343 1106 58.0886 528.65 505.228
1961 0 83.1197 13.8234 1149 57.7302 528.465 503.832
1962 0 89.2086 13.7767 1229 57.5134 528.455 500.431
1963 0 91.4131 13.7726 1259 57.6886 528.332 499.028
1964 0 91.1531 11.6507 1062 60.5292 527.913 495.226
1965 0 94.216 12.8534 1211 59.0983 528.553 498.473
1966 0 99.254 12.2615 1217 59.6524 528.966 494.38
1967 0 100.182 13.3358 1336 58.622 529.675 494.621
1968 0 106.221 12.0503 1280 59.4648 528.432 492.828
1969 0 109.202 15.1188 1651 56.1018 529.035 488.584
1970 0 111.193 14.0746 1565 57.5514 528.408 487.817
1971 0 115.122 13.49 1553 57.9607 527.538 486.434
1972 0 118.231 13.093 1548 58.5258 528.576 483.36
1973 1 61.0675 9.80882 599 60.2404 528.891 515.401
1974 0 63.1071 14.1981 896 55.7299 529.525 514.349
1975 0 62.0586 9.32988 579 61.4629 529.187 512.962
1976 0 66.0846 13.7248 907 57.237 530.385 512.822
1977 0 70.0673 12.3596 866 58.5173 529.424 508.244
1978 0 70.0686 13.5581 950 58.1726 529.019 507.724
1979 0 72.2114 11.9649 864 59.1794 529.839 511.558
1980 0 75.0511 13.5108 1014 58.6233 529.731 503.617
1981 0 78.1045 12.2144 954 60.0608 529.945 502.029
1982 0 80.0587 14.0272 1123 57.8923 529.248 504.371
1983 0 81.3963 13.0964 1066 59.3152 529.199 504.852
1984 0 83.0974 14.2002 1180 58.9559 529.354 499.178
1985 0 86.1709 13.4848 1162 60.1299 529.275 497.718
1986 0 89.1014 13.1199 1169 60.6193 529.889 495.351
1987 0 94.1954 13.8329 1303 58.7268 529.874 500.087
1988 0 95.1552 12.9052 1228 60.4707 530.138 496.173
1989 0 98.0982 13.3744 1312 60.1593 530.017 492.706
1990 0 101.145 13.6141 1377 60.1707 530.423 489.271
1991 0 104.277 13.5409 1412 60.0807 530.817 487.332
1992 0 109.266 14.3595 1569 58.6565 530.496 488.62
1993 0 112.098 14.871 1667 57.8752 530.294 487.164
1994 0 114.279 13.2746 1517 59.7245 530.748 487.114
1995 0 118.168 11.966 1414 61.7984 530.596 479.086
1996 1 59.2265 12.3424 731 59.6156 530.657 513.071
1997 0 60.0785 10.8192 650 62.0769 531.2 509.678
1998 0 61.0618 12.4137 758 60.8298 530.683 510.825
1999 0 64.3135 11.9571 769 60.407 531.131 510.596
2000 0 66.5967 13.4842 898 59.6693 530.437 506.378
2001 0 68.1029 12.0112 818 60.9425 530.221 506.359
2002 0 70.0974 12.9534 908 60.0936 530.328 506.192
2003 0 74.2608 14.4356 1072 57.6623 530.239 507.03
2004 0 77.1416 15.1539 1169 57.3867 530.746 503.42
2005 0 78.1896 12.8662 1006 60.1551 529.684 503.112
2006 0 81.2292 13.702 1113 59.124 530.612 501.281
2007 0 84.3777 13.5581 1144 59.0341 530.01 501.937
2008 0 86.1937 13.6553 1177 59.2965 530.331 501.025
2009 0 88.1089 14.9701 1319 58.2365 530.315 497.182
2010 0 89.154 12.0578 1075 61.6633 529.971 498.977
2011 0 94.2576 14.4073 1358 59.1068 529.858 494.856
2012 1 47.1395 12.4736 588 60.5459 529.998 517.364
2013 0 52.075 12.9813 676 58.8905 530.536 518.484
2014 0 52.2278 13.2305 691 58.4255 530.124 518.106
2015 0 52.1136 12.2041 636 60.1651 530.099 517.31
2016 0 55.1701 12.978 716 59.1746 529.489 515.275
2017 0 54.0801 14.9593 809 58.1582 529.498 513.159
2018 0 55.1879 12.9195 713 60.5147 529.628 513.417
2019 0 56.0396 13.1336 736 60.6997 529.902 512.955
2020 0 57.0643 12.7575 728 61.3956 530.61 512.499
2021 0 61.1139 10.4722 640 63.4312 530.228 512.931
2022 0 62.072 13.871 861 59.7654 529.736 512.791
2023 0 67.0837 14.2658 957 59.6134 529.803 509.719
2024 0 64.0331 11.9469 765 63.0863 530.043 508.678
2025 0 68.2306 13.9087 949 60.7387 530.04 506.096
2026 0 70.126 13.2904 932 61.4045 530.292 505.364
2027 0 75.2284 12.708 956 61.3421 530.045 507.596
2028 0 77.0647 15.4416 1190 58.505 529.674 504.565
2029 0 78.1002 13.6747 1068 60.8249 529.581 504.81
2030 0 81.1002 12.4291 1008 61.9048 529.601 504.534
2031 0 85.1931 12.7945 1090 61.478 528.717 500.306
2032 0 84.0718 12.7034 1068 62.0768 529.377 501.297
2033 0 86.0733 11.9433 1028 62.9932 530.133 498.292
2034 1 43.071 14.3252 617 58.2269 529.144 521.846
2035 0 44.1569 12.0933 534 60.7341 529.197 520.146
2036 0 46.0373 13.1198 604 58.995 529.214 521.093
2037 0 45.108 10.4416 471 62.7261 529.452 519.488
2038 0 48.0765 13.3745 643 59.4526 529.557 517.844
2039 0 49.1147 11.5444 567 60.739 529.628 518.102
2040 0 50.0336 13.7707 689 58.8128 529.253 517.075
2041 0 52.0787 14.1325 736 58.7378 529.845 515.651
2042 0 53.0835 13.1303 697 59.7331 529.743 514.264
2043 0 55.1631 13.6323 752 59.7181 529.29 511.6
2044 0 55.0909 10.7277 591 62.3858 528.736 511.014
2045 0 57.1526 10.6032 606 62.7112 529.086 512.845
2046 0 61.0821 12.5405 766 60.6658 529.133 509.64
2047 0 64.1025 12.7608 818 60.5685 529.28 511.281
2048 0 64.0975 13.4795 864 60.1574 529.553 507.88
2049 0 65.0681 14.0468 914 60.2932 529.515 505.047
2050 0 69.2116 13.466 932 60.3906 529.499 507.305
2051 0 72.0905 13.7189 989 60.3893 528.967 506.193
2052 0 75.1767 12.73 957 61.4692 529.005 502.557
2053 0 77.1795 13.3973 1034 60.8221 528.411 505.982
2054 0 80.0918 15.0827 1208 59.3353 529.408 502.766
2055 0 81.0788 14.3687 1165 60.5648 528.877 502.726
2056 0 83.049 12.2819 1020 62.6618 528.865 502.148
2057 0 88.0963 13.542 1193 61.5306 529.697 500.078
2058 0 95.1282 15.3267 1458 58.6996 528.634 502.808
2059 0 94.1285 15.3939 1449 59.8744 529.088 497.803
2060 0 96.087 13.0507 1254 64.2281 528.956 498.666
2061 0 101.155 12.901 1305 64.8674 529.08 494.513
2062 1 47.0651 11.0485 520 64.8096 529.677 520.948
2063 0 49.0472 14.537 713 61.5975 529.882 518.672
2064 1 60.1167 11.0452 664 68.7861 528.92 462.453
2065 0 51.0969 12.7992 654 63.1483 529.826 520.122
2066 0 54.0512 11.6926 632 65.0127 529.56 516.222
2067 0 55.0691 12.8384 707 63.8996 529.861 515.842
2068 0 59.087 13.3024 786 62.687 529.55 514.975
2069 0 59.0291 11.7569 694 65.4582 528.908 513.452
2070 0 61.0457 11.8763 725 64.0731 528.771 516.559
2071 0 64.161 11.9075 764 64.623 528.826 515.072
2072 0 62.1486 13.0011 808 64.1151 528.99 512.907
2073 0 66.0496 11.5519 763 65.2936 529.216 512.6
2074 0 69.1585 13.5775 939 63.2417 529.064 510.26
2075 0 73.1806 14.4574 1058 62.1692 528.815 506.835
2076 0 72.0733 13.1394 947 64.8627 528.69 508.763
2077 0 72.1373 12.6841 915 65.9257 528.17 505.704
2078 0 77.1408 12.9633 1000 64.889 528.315 504.884
2079 0 76.129 12.492 951 66.1903 528.314 502.129
2080 0 81.1758 14.2284 1155 64.1117 528.558 501.745
2081 0 82.1434 12.5999 1035 66.0889 528.588 500.159
2082 0 83.1108 13.3316 1108 65.7473 528.404 499.8
2083 0 85.1469 12.4726 1062 66.8757 528.211 498.898
2084 0 88.1907 12.0874 1066 67.3959 528.483 498.925
2085 0 92.2534 13.6147 1256 66.3129 528.771 494.398
2086 0 97.0919 13.5954 1320 65.7727 528.566 494.429
2087 0 99.0923 12.4934 1238 67.416 528.435 493.451
2088 0 103.197 13.1593 1358 66.799 528.427 490.373
2089 0 107.226 14.6793 1574 65.108 528.913 489.834
2090 0 109.132 13.7356 1499 66.501 528.882 489.825
2091 0 115.379 12.446 1436 67.7082 528.737 489.896
2092 0 115.188 12.5274 1443 68.2211 528.584 486.898
2093 0 121.215 12.5892 1526 68.31 528.998 485.304
2094 1 0 0 5.32053e-315 -nan 5.31924e-315 5.32086e-315
2095 1 73.4805 11.2411 826 66.3438 529.22 515.07
2096 0 66.1542 10.7779 713 70.2959 528.547 509.414
2097 0 73.252 12.614 924 68.4448 528.588 507.422
2098 0 74.2003 14.1374 1049 67.1764 528.062 504.871
2099 0 74.1236 12.4926 926 69.0162 528.284 506.321
2100 0 77.1803 13.4749 1040 68.6356 528.981 502.816
2101 0 80.0618 13.1024 1049 68.654 528.826 502.786
2102 0 84.1653 13.3428 1123 68.6839 528.789 500.781
2103 0 91.3844 14.9697 1368 64.9116 528.895 504.54
2104 0 95.2514 14.194 1352 65.6198 528.674 501.74
2105 0 100.382 13.6479 1370 65.7927 528.85 500.844
2106 0 102.206 13.1989 1349 67.3499 528.879 496.498
2107 0 96.1356 14.0115 1347 67.4781 528.871 495.676
2108 0 105.229 13.5799 1429 67.4885 528.952 492.384
2109 0 103.105 12.3757 1276 69.1238 528.832 493.006
2110 0 111.147 15.1331 1682 64.8246 528.262 492.474
2111 0 115.217 13.6091 1568 67.1601 528.215 489.964
2112 0 114.318 13.445 1537 67.5439 528.731 487.871
2113 0 124.445 13.2991 1655 66.7021 528.169 487.523
2114 0 126.357 15.3375 1938 64.3287 528.862 485.177
2115 0 124.209 11.5933 1440 69.575 528.772 484.697
2116 0 133.533 12.7684 1705 67.9971 528.083 480.78
2117 0 135.329 14.062 1903 67.3032 528.36 476.167
2118 0 137.269 13.4189 1842 68.0842 528.711 478.198
2119 1 67.1088 13.873 931 67.0451 528.684 510.039
2120 0 67.183 11.878 798 70.1128 528.86 506.902
2121 0 73.1173 13.7587 1006 66.9871 528.883 507.423
2122 0 76.215 13.3307 1016 68.0482 529.066 504.738
2123 0 77.1183 12.9541 999 68.9449 528.724 504.668
2124 1 249.248 9.56077 2383 74.454 528.024 438.618
2125 0 245.381 9.71958 2385 73.0394 528.946 448.636
2126 0 241.244 7.3411 1771 74.9898 528.793 458.043
2127 0 244.351 8.47141 2070 73.8145 527.672 455.806
2128 1 154.154 7.90117 1218 78.9893 527.808 385.677
2129 1 251.747 12.8422 3233 71.2917 528.471 430.293
2130 0 253.354 15.0817 3821 69.122 528.216 424.237
2131 0 260.432 14.0958 3671 70.4113 528.868 420.104
2132 1 111.461 12.1836 1358 68.958 528.756 493.093
2133 0 107.279 16.3872 1758 64.5597 528.492 492.999
2134 0 110.167 13.5431 1492 68.6769 528.372 492.554
2135 0 117.788 13.7026 1614 67.495 528.455 492.043
2136 0 124.981 12.6099 1576 68.9886 528.66 486.95
2137 0 128.703 13.0067 1674 68.8345 528.554 488.013
2138 0 131.343 13.5827 1784 68.4501 528.275 486.586
2139 0 135.515 11.829 1603 70.7367 528.303 484.376
2140 0 140.647 14.1631 1992 68.121 528.466 482.482
2141 0 145.421 14.4271 2098 68.1878 528.289 480.929
2142 0 149.473 13.0726 1954 70.7922 528.812 478.718
2143 0 152.949 13.5078 2066 70.9264 528.633 474.68
2144 0 156.634 14.7414 2309 69.2555 527.64 476.466
2145 0 160.929 12.9374 2082 72.5187 528.214 472.03
2146 0 165.495 12.8403 2125 73.3021 528.228 466.949
2147 0 172.486 13.8968 2397 71.6512 527.874 468.41
2148 0 176.522 13.1088 2314 73.0346 527.639 466.396
2149 1 13.0358 9.28212 121 48.281 527.264 547.182
2150 0 12.0061 6.24683 75 49.8933 525.813 545.44
2151 0 11.0244 8.70792 96 48.9167 527.167 545.927
2152 0 9.00512 3.22039 29 50.9655 526.172 544.276
2153 0 11.053 3.89033 43 52.8605 526 544.581
2154 0 14.2045 9.43365 134 49.5149 527.634 545.955
2155 1 212.757 11.8868 2529 78.0641 527.918 441.132
2156 0 221.919 13.0408 2894 76.4157 527.572 440.916
2157 1 14.0646 6.18573 87 53.6897 525.517 545.138
2158 0 14.1728 9.03139 128 52.4609 526.773 546.406
2159 0 13.1349 5.63384 74 54.027 525.622 548.216
2160 0 13.1688 7.97336 105 51.0286 526.771 547.495
2161 0 12.0335 11.4679 138 48.5362 527.123 547.196
2162 0 12.1178 5.44654 66 52.4242 525.652 547.045
2163 0 12.0639 7.54318 91 50.8022 526.011 546.011
2164 0 13.0768 4.05298 53 52.9811 525.17 546.302
2165 0 12.0984 6.69511 81 51.1111 526.444 546.704
2166 0 14.1272 7.8572 111 50.1081 526.405 546.333
2167 0 13.0336 9.28366 121 49.9174 526.653 545.917
2168 1 62.6996 11.4036 715 69.4559 527.752 518.116
2169 0 64.465 10.4553 674 71.9332 527.847 515.347
2170 0 64.35 10.5206 677 72.3708 528.437 514.731
2171 1 13.1692 6.83414 90 51.4889 526.444 543.144
2172 0 12.0112 3.08046 37 52.8649 526.757 547.73
2173 1 72.5075 11.8333 858 69.5758 528.86 513.703
2174 0 73.7616 13.1776 972 68.1471 528.175 513.549
2175 0 76.4138 12.3014 940 69.0149 528.705 514.069
2176 0 75.8116 12.0166 911 70.0252 528.407 510.022
2177 0 78.5967 11.3109 889 71.4319 528.942 507.697
2178 0 81.4033 12.7268 1036 69.3678 528.813 509.626
2179 0 82.425 11.5863 955 71.1529 528.546 506.449
2180 0 85.3994 13.6769 1168 68.8442 528.654 505.623
2181 0 85.6378 13.6388 1168 68.9889 528.897 504.154
2182 0 91.4711 12.0038 1098 70.1248 528.767 505.648
2183 0 93.5882 11.2835 1056 70.7188 528.794 506.821
2184 0 92.1284 8.9766 827 75.3724 528.882 498.004
2185 0 90.1153 12.939 1166 70.7804 528.093 501.609
2186 1 55.4002 9.67505 536 69.9067 527.991 521.267
2187 0 49.0953 13.5451 665 67.4015 528.672 520.716
2188 1 11.0598 3.43587 38 53.7368 527.053 546.079
2189 0 11.073 3.97363 44 53.0909 526.614 545.614
2190 1 52.0934 12.5736 655 68.9069 528.811 519.348
2191 0 53.1062 16.0622 853 65.3763 528.925 517.407
2192 0 55.4111 14.0044 776 67.2951 528.63 516.374
2193 0 58.2374 15.1277 881 65.7503 528.871 515.284
2194 0 57.0819 12.1404 693 70.1313 528.593 514.769
2195 1 11.0403 8.15193 90 50.1333 526.7 545.467
2196 0 11.045 7.15259 79 50.8861 526.684 545.608
2197 0 10.0334 6.27906 63 50.6984 525.651 545.603
2198 0 11.0135 4.6307 51 52.6274 524.529 544.431
2199 0 11.0604 6.87139 76 51.1447 526.816 544.145
2200 0 12.0621 5.88623 71 51.3662 526 543.958
2201 0 13.0295 7.06091 92 51.7174 526.337 545.185
2202 0 10.0206 3.89199 39 52.1538 525.923 545.949
2203 0 10.0092 1.1989 12 54.0833 526.25 545.083
2204 0 12.205 10.1598 124 48.9758 526.911 546.258
2205 0 9.05078 6.07683 55 52.1636 525.927 546.655
2206 0 10.0452 7.16762 72 51.5417 525.861 546.431
2207 0 14.165 8.75395 124 50.0323 526.839 547.024
2208 0 11.0404 4.61939 51 53.0784 525.235 545.843
2209 0 13.0925 5.19382 68 52.0294 526.059 545.971
2210 0 10.0704 2.68113 27 54.6296 525.259 544.704
2211 0 10 1.2 12 55.4167 527.333 548
2212 0 14.0388 7.62172 107 50.9813 527.243 545.262
2213 0 11.1126 5.2193 58 53.069 526.259 546.914
2214 0 11.0354 2.44668 27 54.0741 526.296 546.259
2215 0 12.0236 5.4892 66 52.2424 525.045 543.621
2216 0 13.1496 12.0916 159 48.8931 527.711 545.723
2217 0 11.1212 5.3052 59 52.678 526.305 545.593
2218 0 13.1621 11.0924 146 49.363 527.555 545.13
2219 0 13.0895 5.42419 71 51.8732 525.746 545.099
2220 0 12.0095 8.82632 106 49.7075 527.519 547.764
2221 0 11.0548 3.43742 38 52.8684 525.29 546.658
2222 0 16.4993 7.87914 130 49.5615 526.708 548.508
2223 0 13.0914 4.65955 61 51.459 526.361 548.312
2224 0 15.0896 8.6152 130 49.9615 526.923 546.792
2225 0 15.3821 9.75159 150 49.3267 528.24 547.613
2226 0 16.1229 11.7845 190 47.9684 527.637 547.337
2227 0 15.5318 10.8809 169 49.213 528.16 546.651
2228 0 14.2042 9.50425 135 49.3704 527.882 547.748
2229 1 93.8969 13.0036 1221 71.1384 528.913 507.261
2230 0 97.6314 13.7148 1339 70.2793 529.31 506.872
2231 1 14.1542 8.83129 125 51.344 528.12 545.616
2232 0 12.1191 10.5619 128 49.8125 528.766 546.664
2233 0 15.3894 11.1765 172 49.6395 528.872 548.273
2234 0 14.0571 11.0976 156 49.7628 528.436 547.994
2235 0 16.2538 8.30574 135 51.3407 527.659 549.148
2236 0 16.1551 13.5561 219 48.6941 528.443 548.009
2237 0 14.1695 3.59928 51 54.5294 528.059 548.726
2238 0 15.1987 10.7246 163 51.0061 528.485 547.202
2239 0 15.4097 11.1618 172 51.0581 528.046 547.267
2240 0 12.1487 7.81976 95 53.1053 527.916 547.716
2241 0 14.0814 4.82908 68 54.6029 527.691 549.015
2242 0 15.246 7.73973 118 53.161 528.415 548.898
2243 0 16.3998 10.0001 164 52.2012 528.732 548.25
2244 0 13.2484 10.4164 138 52.3768 528.435 548.087
2245 0 14.3802 12.0999 174 52.3046 528.483 547.466
2246 0 15.1403 12.0869 183 52.0492 529.137 548.164
2247 0 15.3356 12.4547 191 52.199 529.387 548.314
2248 0 13.2362 13.599 180 52.4833 528.944 549.111
2249 0 16.4036 12.4972 205 53.0878 528.712 548.059
2250 0 15.3453 10.4266 160 55.2812 528.419 549
2251 0 14.34 8.99583 129 57.5659 528.248 549.178
2252 0 15.3009 11.3066 173 55.8208 528.931 549.312
2253 0 14.3304 9.35073 134 57.2463 529.157 547.373
2254 0 15.2257 11.3624 173 56.1965 528.948 548.087
2255 0 13.2458 8.53098 113 58.5929 528.345 548.274
2256 0 15.0924 11.3965 172 56.3954 529.291 549.087
2257 0 14.4536 8.30244 120 56.3833 529.775 549.35
2258 0 15.3061 8.9507 137 57.8394 528.431 547.139
2259 0 14.0215 13.0514 183 55.6885 528.781 546.842
2260 0 15.0193 6.45836 97 60.9794 528.021 548.433
2261 0 14.3173 11.3848 163 58.6074 528.282 547.89
2262 0 15.3675 11.5178 177 57.9774 529.079 548.938
2263 0 14.0893 12.7757 180 59.0944 529.294 548.583
2264 0 14.2772 10.3661 148 61.1284 528.777 547.182
2265 0 14.2824 12.1128 173 59.8092 529.052 547
2266 0 15.2317 10.4387 159 61.2327 528.937 547.101
2267 0 15.289 7.91417 121 62.9587 528.455 548.182
2268 0 15.3689 11.777 181 61.2099 529.122 547.32
2269 0 13.0902 11.7646 154 61.9416 528.844 547.156
2270 0 13.1179 9.83387 129 65.3643 528.783 547.171
2271 0 13.2916 12.1882 162 65.1914 529.605 547.414
2272 0 13.031 7.8275 102 70.1765 529.49 547.578
2273 0 11.2 11.6072 130 68.4462 529.192 548.062
2274 0 12.034 11.7999 142 69.7113 528.88 546.901
2275 0 12.1231 10.7234 130 69.8077 528.962 547.654
2276 0 13.2172 9.76001 129 70.124 528.775 548.233
2277 0 12.0193 12.6464 152 69.4868 529.776 546.875
2278 0 13.068 10.4071 136 72.0368 529.581 546.993
2279 0 13.355 12.0554 161 72.4969 529.447 547.317
2280 0 15.4484 11.2633 174 79.0862 528.971 546.644
2281 0 18.7041 13.6333 255 86.4745 530.973 546.322
2282 0 19.9307 16.6577 332 84 530.44 546.491
2283 0 20.1566 16.5703 334 108.266 530.746 546.545
2284 0 21.1829 17.2309 365 121.822 530.858 546.718
2285 0 23.535 16.8685 397 132.542 530.348 546.489
2286 0 25.4668 14.3324 365 146.844 530.422 545.868
