time division length width area intensity CMx CMy
0 0 55.1323 11.6084 640 54.6906 1070.02 513.698
1 0 55.1281 11.6456 642 54.5888 1069.7 512.944
2 0 57.1057 11.4349 653 54.4839 1069.77 513.167
3 0 61.0929 12.2764 750 52.9013 1069.77 511.98
4 0 61.1167 11.8298 723 53.343 1069.02 511.017
5 0 58.1867 10.7241 624 55.3974 1069.45 509.659
6 0 64.095 11.0617 709 53.969 1069.41 511.14
7 0 66.1757 12.225 809 52.665 1068.89 510.253
8 0 66.1938 11.2548 745 53.8711 1068.43 507.53
9 0 71.0952 13.1233 933 51.3816 1069.42 508.115
10 0 67.1316 11.8275 794 53.5252 1068.53 506.839
11 0 73.2244 10.7068 784 53.3954 1068.65 507.06
12 0 76.2052 12.7157 969 51.9236 1069 504.484
13 0 78.1194 11.316 884 53.2738 1068.65 504.223
14 1 39.1081 7.90118 309 55.3592 1068.04 525.116
15 0 43.0795 12.0707 520 51.6327 1068.57 523.002
16 0 42.0745 10.624 447 53.9978 1068.64 522.031
17 0 42.0682 10.1739 428 55.0631 1068.42 522.271
18 0 45.0739 11.3591 512 54.0996 1068.54 521.227
19 0 44.0869 11.7949 520 54.7846 1068.27 519.475
20 0 46.0899 10.9785 506 55.1542 1068.56 521.488
21 0 48.0606 12.8171 616 53.8945 1068.3 518.795
22 0 48.0819 12.0004 577 54.2357 1068.66 521.059
23 0 50.0364 12.411 621 54.5378 1068.66 517.876
24 0 50.0915 11.1795 560 56.5036 1068.91 515.454
25 0 52.0688 12.061 628 55.5111 1068.72 518.132
26 0 54.0818 10.3917 562 56.5516 1068.95 520.224
27 0 56.0935 13.2279 742 54.8261 1068.8 517.164
28 0 55.0744 10.6765 588 58.1922 1068.77 515.355
29 0 59.2198 13.3908 793 55.0277 1068.94 517.011
30 0 56.1327 11.0274 619 58.7141 1068.46 512.611
31 0 58.1804 10.3471 602 59.1711 1069.41 512.895
32 0 64.0767 14.0301 899 54.7208 1068.64 510.86
33 0 64.1457 11.8948 763 56.3552 1069.14 514.303
34 0 66.1293 12.7629 844 56.6137 1070.23 510.878
35 0 68.0844 12.2495 834 57.1367 1070.35 510.058
36 0 71.0976 13.0103 925 56.2465 1070.43 506.408
37 0 75.0794 13.3725 1004 55.4612 1070.06 503.472
38 0 75.1526 10.5519 793 58.575 1070.61 506.343
39 0 78.1899 10.1164 791 58.8748 1069.88 506.123
40 1 38.0843 9.4527 360 58.3111 1070.78 523.664
41 0 42.0885 12.0698 508 55.5768 1070.4 522.319
42 0 43.0674 11.8419 510 56.3392 1070.48 523.265
43 0 45.0903 10.0021 451 59.0355 1070.93 519.483
44 0 44.1795 9.39349 415 59.9566 1070.63 518.631
45 0 46.052 8.77268 404 59.9282 1070.9 522.401
46 0 47.1221 10.5046 495 58.9495 1070.58 517.701
47 0 46.1612 8.90358 411 60.8394 1070.22 513.635
48 0 51.1485 10.6162 543 59.0037 1071.14 516.413
49 0 51.0954 11.1165 568 58.9789 1070.52 515.535
50 0 51.1597 9.5974 491 60.8737 1070.38 513.898
51 0 52.15 8.26462 431 61.7865 1070.87 511.849
52 0 51.0505 7.83538 400 61.6825 1070.25 513.915
53 0 54.1115 10.4968 568 59.743 1070.34 509.71
54 0 62.1009 10.499 652 58.796 1070.56 514.725
55 0 65.1039 11.3972 742 57.5027 1070.64 513.069
56 0 64.123 10.1991 654 59.2416 1070.69 509.222
57 0 69.0733 10.554 729 59.0233 1071.04 509.184
58 0 68.1753 10.033 684 59.6213 1070.56 509.079
59 0 74.1036 12.1856 903 57.3987 1070.68 506.545
60 0 73.1005 9.99993 731 59.394 1070.7 508.23
61 0 74.1716 10.3409 767 59.807 1070.44 503.033
62 0 80.0674 10.641 852 59.2876 1070.68 503.756
63 0 84.1191 12.4585 1048 57.1641 1069.97 505.232
64 0 86.0874 10.5706 910 59.5297 1070.36 505.075
65 0 89.1012 11.0212 982 60.0876 1070.56 499.294
66 1 47.0669 11.9405 562 58.0534 1070.48 519.06
67 0 49.1434 11.6801 574 58.6864 1071.06 518.523
68 0 51.0286 12.0913 617 58.8655 1070.77 518.546
69 0 50.1286 10.7922 541 61.0573 1070.66 519.037
70 0 52.082 11.1555 581 61.117 1070.86 518.499
71 0 55.0655 12.0584 664 59.5648 1070.23 518.125
72 0 55.08 12.0915 666 60.5886 1070.7 516.656
73 0 56.0756 11.2348 630 61.4206 1070.34 516.387
74 0 58.1504 11.9346 694 61.4135 1070.06 513.725
75 0 61.0412 13.237 808 59.8775 1069.82 513.047
76 0 64.039 13.2107 846 59.9279 1070.19 513.035
77 0 64.064 11.9568 766 61.9595 1069.79 510.244
78 0 66.0953 11.665 771 61.7315 1069.47 511.079
79 0 69.0959 11.3465 784 63.3278 1070.01 507.506
80 0 71.1876 11.9262 849 61.9635 1070.03 510.584
81 0 74.1426 11.5588 857 63.1482 1070.33 507.553
82 0 75.2201 12.4169 934 62.166 1070.64 507.894
83 0 76.1482 10.9917 837 64.9247 1070.86 504.896
84 0 81.1578 12.3833 1005 63.0358 1069.93 501.753
85 1 41.1727 9.44801 389 63.4139 1070.69 523.306
86 0 42.16 11.148 470 61.8362 1070.76 521.562
87 0 45.0248 10.8385 488 62.9467 1071.65 521.029
88 0 47.0206 11.3993 536 61.6007 1070.66 520.653
89 0 45.0963 11.42 515 62.8116 1070.84 519.264
90 0 45.0577 10.6086 478 64.5126 1071.19 518.586
91 0 49.1054 13.6238 669 60.2212 1071.52 519.054
92 0 48.0682 10.7972 519 64.2062 1071.11 518.096
93 0 53.2629 12.0346 641 61.7364 1070.98 516.668
94 0 55.0603 12.9858 715 60.1077 1071.18 517.411
95 0 58.1157 13.7829 801 58.784 1071.25 516.413
96 0 56.1349 12.2562 688 62.4898 1071.32 514.785
97 0 58.0691 10.8664 631 63.4136 1071.15 516.77
98 0 58.2307 12.2787 715 63.1021 1071.11 514.47
99 0 62.0941 12.7387 791 62.1542 1070.36 513.81
100 0 63.0693 13.1443 829 62.3957 1070.89 510.072
101 0 63.0184 11.1713 704 65.6165 1070.87 511.247
102 0 64.1288 11.6172 745 65.7812 1070.51 508.966
103 0 69.2779 12.4426 862 64.355 1071.3 507.907
104 0 69.061 11.3523 784 66.5816 1071.74 507.842
105 0 71.0522 11.9067 846 66.9894 1070.9 504.8
106 0 75.2825 12.5527 945 65.6487 1070.49 505.247
107 0 76.1506 11.9763 912 67.3805 1071.05 502.439
108 1 42.2073 10.638 449 66.02 1071.18 521.964
109 0 42.0905 10.62 447 66.7763 1071.64 521.984
110 0 43.209 10.4839 453 67.1015 1071.76 520.614
111 0 47.1306 10.63 501 66.2275 1071.28 521.932
112 0 47.0294 10.6954 503 68.2744 1071.14 518.032
113 0 48.0389 11.907 572 66.5629 1071.36 517.663
114 0 50.1598 11.6029 582 67.0344 1070.98 516.637
115 0 49.0303 10.259 503 68.4453 1070.83 518.024
116 0 50.1311 9.9938 501 69.7625 1070.87 515.83
117 0 53.0765 11.1537 592 67.9071 1071.27 514.84
118 0 54.1211 11.1232 602 67.8738 1071.41 514.558
119 0 57.1048 11.3125 646 66.8638 1071.16 514.827
120 0 58.0605 11.7291 681 67.2394 1071.34 512.772
121 0 58.0851 10.3641 602 68.3356 1071.44 513.502
122 0 60.0771 11.0858 666 67.9955 1070.09 510.985
123 0 61.0947 10.983 671 67.7332 1071.18 510.878
124 0 64.131 11.3518 728 67.2363 1071.2 509.229
125 0 66.1927 11.1644 739 67.935 1071.06 508.026
126 0 70.141 11.7192 822 65.9939 1070.75 508.642
127 0 72.0852 11.9164 859 66.2002 1071.23 507.434
128 0 73.1129 10.3949 760 68.2947 1071.05 505.372
129 0 73.0702 10.0999 738 69.7331 1070.68 501.461
130 0 78.1314 10.8407 847 67.3695 1070.44 503.564
131 0 80.1086 11.7466 941 65.983 1070.64 503.529
132 0 82.148 11.0045 904 67.7113 1070.01 497.102
133 1 41.0819 10.7103 440 64.6477 1069.96 520.232
134 0 42.064 10.1512 427 64.8993 1070.52 520.37
135 0 45.07 10.4504 471 64.5265 1071.47 520.384
136 0 46.0631 11.1803 515 63.5903 1070.97 518.755
137 0 44.0658 10.4843 462 66.1948 1071.19 518.377
138 0 48.1454 9.0559 436 66.695 1071.22 519.566
139 0 48.1427 9.55493 460 67.1696 1071.15 516.341
140 0 51.1678 10.1235 518 65.5 1070.78 519.037
141 0 51.0747 10.6902 546 66.2546 1071.16 516.18
142 0 54.1058 10.5719 572 66.236 1071.51 514.36
143 0 56.2264 11.6671 656 64.4253 1071.22 513.509
144 0 56.1976 11.7799 662 65.2764 1071.46 511.875
145 0 59.1006 10.5921 626 65.738 1071 510.85
146 0 61.1287 11.5658 707 64.4201 1071.43 513.31
147 0 63.0624 11.3221 714 64.8305 1071.53 511.947
148 0 60.0665 10.9379 657 137.291 1071.51 510.895
149 0 68.1621 11.6927 797 63.0703 1071.86 512.266
150 0 69.1861 11.1149 769 65.4057 1073.47 506.77
151 0 71.101 11.3923 810 65.1753 1072.72 505.364
152 0 71.1215 11.628 827 64.8198 1072.74 505.913
153 0 74.1525 10.1413 752 66.8511 1072.53 503.475
154 0 74.1046 9.82396 728 67.5907 1071.64 503.109
155 0 78.1738 11.9349 933 64.6967 1072.31 499.374
156 0 82.1107 12.0569 990 64.5071 1072.26 498.612
157 0 80.1288 10.3958 833 66.9952 1072.29 497.879
158 1 41.0484 10.2075 419 63.327 1071.56 518.084
159 0 42.0519 9.98765 420 63.4619 1071.4 519.829
160 0 44.1202 9.40612 415 64.5807 1072.31 517.988
161 0 44.097 12.5859 555 62.0108 1071.71 515.85
162 0 47.0489 11.3499 534 62.8802 1070.58 514.97
163 0 45.1258 10.0608 454 65.9934 1070.87 513.63
164 0 49.0673 12.3096 604 62.6507 1071.58 513.091
165 0 50.0126 10.7773 539 65.0297 1071.69 513.382
166 0 51.0331 11.228 573 63.815 1071.38 513.756
167 0 54.1573 10.2849 557 64.9838 1071.94 512.896
168 0 56.0633 12.3789 694 62.2118 1072.12 511.942
169 0 58.2005 11.1855 651 63.7588 1071.71 511.25
170 0 61.169 10.8388 663 64.1644 1071.81 511.317
171 0 61.188 10.0673 616 65.3896 1071.94 509.968
172 0 62.2759 11.3688 708 64.7062 1071.48 505.541
173 0 66.0993 12.0122 794 63.3476 1071.56 508.161
174 0 67.2026 11.1603 750 65.2627 1072.19 505.344
175 0 68.2226 11.184 763 65.017 1072.14 505.339
176 0 73.2112 13.7547 1007 61.713 1072.32 502.018
177 0 75.1694 12.7578 959 63.0845 1071.91 503.2
178 0 76.1344 11.8343 901 65.0633 1072.08 500.809
179 0 80.1179 12.0572 966 64.4627 1071.97 499.622
180 0 80.2219 12.1289 973 65.2682 1071.1 498.81
181 1 39.0979 10.3842 406 65.4951 1071.13 518.576
182 0 42.1406 11.5566 487 63.77 1070.39 518.587
183 0 42.0928 10.9995 463 65.7538 1069.94 518.009
184 0 42.0737 10.6242 447 66.0626 1070.15 518.966
185 0 44.0511 12.2585 540 64.1944 1069.49 518.733
186 0 44.0419 11.3982 502 66.0518 1069.87 516.635
187 0 45.0146 11.4407 515 65.6816 1069.77 515.6
188 0 46.0633 10.5507 486 66.3621 1069.59 517.185
189 0 47.0469 12.2219 575 64.9913 1068.21 515.814
190 0 51.1037 11.1734 571 65.2469 1068.31 514.904
191 0 50.0399 11.6907 585 65.1282 1068.01 515.429
192 0 54.0844 12.0367 651 63.8418 1067.67 514.754
193 0 53.104 10.1499 539 66.9128 1068.2 515.581
194 0 55.0333 10.957 603 65.5423 1068.16 514.327
195 0 57.0382 11.4134 651 64.6252 1068.02 514.763
196 0 59.1275 11.6866 691 64.3734 1067.75 514.24
197 0 62.1613 13.1915 820 61.6439 1068.45 513.087
198 0 65.0845 13.3519 869 61.5673 1067.68 513.358
199 0 65.0397 13.0536 849 61.6514 1066.88 513.127
200 0 67.0651 11.6305 780 63.6692 1067.17 510.836
201 0 68.0473 10.6984 728 64.1978 1067.3 511.036
202 0 71.1143 11.7979 839 62.82 1067.18 507.635
203 0 73.1065 11.9004 870 62.3034 1066.99 507.377
204 1 38.0654 8.53794 325 62.6154 1067.19 527.495
205 0 37.0286 9.47917 351 62.5784 1067.15 526.755
206 0 41.0919 10.8294 445 59.764 1066.78 527
207 0 40.0168 8.79629 352 62.0795 1067.32 527.119
208 0 43.0849 9.93386 428 60.1752 1066.88 526.383
209 0 41.0577 11.2524 462 60.2338 1067.03 525.576
210 0 43.0548 10.8931 469 60.064 1067.3 525.61
211 0 44.0377 10.8998 480 59.8417 1066.83 525.95
212 0 46.0443 10.3596 477 60.6939 1066 524.595
213 0 46.0551 10.9434 504 60.5496 1065.59 522.982
214 0 47.0991 9.10846 429 61.7809 1065.86 525.881
215 0 52.0634 11.8125 615 58.3285 1065.22 524.132
216 0 50.0911 12.5172 627 58.3286 1065.23 521.927
217 0 52.0216 8.45802 440 61.0068 1064.78 525.58
218 0 54.1328 11.1577 604 59.4023 1064.71 521.647
219 0 55.0394 11.9187 656 58.8704 1064.31 519.463
220 0 56.0391 11.2243 629 59.7313 1064.7 518.483
221 0 58.18 11.0347 642 59.9252 1064.76 517.1
222 0 59.1212 10.5715 625 60.3776 1064.31 519.304
223 0 61.0527 12.3991 757 59.1044 1064.42 516.132
224 0 61.0798 10.7564 657 61.1644 1064.54 515.248
225 0 62.1009 10.1287 629 61.1876 1064.6 516.412
226 0 66.0644 12.0488 796 59.2776 1064.54 514.528
227 0 68.1972 11.5107 785 59.8217 1064.51 514.604
228 0 70.0835 10.6302 745 61.2215 1064.37 513.216
229 0 71.0463 11.8514 842 60.7162 1064.6 511.811
230 0 73.1021 10.6837 781 61.3752 1064.85 512.388
231 0 74.0743 13.5 1000 59.814 1065 507.956
232 0 77.0342 12.1764 938 61.7623 1064.92 507.795
233 1 40.0315 12.5401 502 60.01 1065.67 523.831
234 0 41.1129 9.68066 398 63.5075 1065.48 524.347
235 0 42.0864 11.8566 499 61.8156 1064.51 522.591
236 0 42.0231 11.6365 489 62.1943 1064.82 524.395
237 0 43.0277 11.0626 476 62.7437 1065.65 520.859
238 0 45.0734 12.3576 557 61.4865 1064.63 518.826
239 0 47.0724 11.0893 522 63.0728 1065.48 519.676
240 0 48.0806 11.7303 564 62.7199 1066.12 518.762
241 0 50.1069 12.3536 619 61.9548 1066.11 517.711
242 0 52.1362 12.0837 630 61.7064 1065.61 518.059
243 0 54.07 13.2236 715 60.4769 1065.75 516.838
244 0 52.02 10.8804 566 63.758 1065.69 518.539
245 0 55.0423 11.5184 634 63.336 1065.99 514.778
246 0 58.0588 13.1591 764 61.017 1066.17 514.614
247 0 58.2456 10.8506 632 63.8513 1065.99 514.74
248 0 63.0813 12.9674 818 61.1577 1066.12 513.872
249 0 63.0255 11.5667 729 63.7394 1066.76 513.428
250 0 64.0827 12.4839 800 63.4638 1066.24 509.881
251 0 66.2171 11.7794 780 63.8526 1065.99 511.181
252 0 66.0947 11.1961 740 65.5703 1065.56 510.039
253 0 71.0808 11.6065 825 64.9139 1066.3 510.051
254 0 73.0907 12.4503 910 63.9462 1066.19 509.314
255 0 74.0406 12.061 893 65.4423 1066.38 508.395
256 0 77.1987 11.7878 910 65.856 1066.2 509.055
257 0 77.123 11.6697 900 67.1711 1066.06 504.351
258 0 80.1322 12.0301 964 66.8351 1066.82 505.201
259 1 40.0484 10.0378 402 67.4602 1066.8 525.281
260 0 42.0247 10.5414 443 67.4786 1066.63 524.779
261 0 42.0586 11.8406 498 66.3454 1066.34 526.068
262 0 43.0787 11.0031 474 67.0401 1066.26 525.743
263 0 44.0733 9.96068 439 68.7699 1065.97 524.968
264 0 45.0254 10.594 477 68.6352 1065.9 524.776
265 0 47.0461 11.6907 550 67.5636 1065.76 523.073
266 0 49.0367 10.7674 528 67.8769 1065.81 524.72
267 0 49.0484 12.0901 593 67.1619 1065.82 522.688
268 0 51.1184 11.1701 571 68.2977 1065.46 524.328
269 0 53.0694 11.3248 601 68.7238 1065.5 523.185
270 0 57.2149 11.0985 635 68.3685 1065.32 521.786
271 0 58.0295 11.7354 681 67.4582 1064.84 521.031
272 0 60.1352 11.3744 684 68.8684 1065.12 519.155
273 0 60.0403 10.2098 613 69.367 1064.59 522.007
274 0 62.0423 12.5882 781 67.7196 1064.2 518.731
275 0 62.219 11.4917 715 69.6867 1064.26 517.099
276 0 67.0724 12.5536 842 67.728 1064 517.037
277 0 66.0698 11.9873 792 69.4444 1064.37 516.672
278 0 69.1342 11.456 792 70.3333 1064.27 515.939
279 0 72.1388 11.5195 831 70.5235 1064.05 514.644
280 1 38.052 10.6171 404 69.9233 1064.41 531.822
281 0 39.0735 11.9007 465 69.9269 1063.97 530.022
282 0 38.0637 10.4824 399 72.9975 1064.29 529.967
283 0 42.0556 10.8428 456 71.7873 1064.62 529.914
284 0 43.0142 13.4374 578 68.2405 1064.34 529.234
285 0 42.0372 11.4898 483 72.1491 1063.47 528.151
286 0 43.0227 11.2034 482 73.3216 1063.04 526.332
287 0 45.0447 11.8771 535 71.9664 1063.12 525.381
288 0 48.0198 11.2037 538 72.0911 1063.48 524.171
289 0 47.0304 9.99355 470 74.466 1063.31 524.487
290 0 51.1053 11.2708 576 70.7587 1062.6 524.547
291 0 53.0698 12.6814 673 69.3967 1062.75 522.003
292 0 54.0365 12.325 666 70.1862 1062.83 521.021
293 0 55.061 10.2977 567 72.8042 1063.5 520.799
294 0 57.1716 12.4013 709 69.7983 1063.93 520.126
295 0 60.0996 12.7455 766 68.9713 1064.15 519.198
296 0 60.0575 12.0385 723 69.7082 1064.03 518.042
297 0 63.0577 13.0515 823 68.3961 1063.2 513.606
298 0 66.1635 12.9528 857 67.8903 1063.28 514.46
299 0 66.0529 11.2334 742 70.2372 1063.05 514.29
300 0 71.1068 11.7007 832 68.7067 1063.36 513.047
301 0 72.1373 11.991 865 68.4104 1063.33 511.082
302 1 36.0061 10.4704 377 67.9761 1062.88 527.997
303 0 35.0558 8.75746 307 70.5016 1062.84 528.052
304 0 39.0604 12.6727 495 64.0889 1062.84 527
305 0 40.0951 12.3706 496 63.9375 1063.32 528.155
306 0 39.0554 10.6771 417 68.4748 1063.29 526.624
307 0 42.0543 11.9132 501 65.4391 1062.27 525.351
308 0 42.1066 11.4709 483 67.0704 1062.8 524.056
309 0 44.0721 11.6173 512 66.7891 1062.5 524.522
310 0 45.0531 10.6541 480 67.5292 1062.77 524.627
311 0 47.1221 11.0139 519 67.0077 1063.01 523.462
312 0 47.0618 11.2618 530 67.2491 1063.16 522.464
313 0 48.0956 10.8534 522 68.2012 1063.48 520.994
314 0 51.0366 11.7171 598 66.806 1063.19 519.98
315 0 53.0454 12.8381 681 64.9383 1062.38 518.791
316 0 55.1101 10.8691 599 67.1018 1062.74 519.486
317 0 54.0582 11.2101 606 67.0908 1063.26 519.196
318 0 57.0832 11.054 631 66.8209 1062.44 517.022
319 0 59.1222 11.3663 672 65.6875 1063.02 517.205
320 0 58.1747 10.4857 610 67.1098 1063.23 517.316
321 0 61.082 10.8379 662 65.997 1063.23 517.353
322 0 65.1268 11.8384 771 64.3359 1063.34 513.846
323 0 67.0802 12.2242 820 63.6232 1063.04 513.098
324 0 69.1754 12.2153 845 63.2497 1063.29 513.551
325 0 70.2018 11.994 842 63.6983 1063.01 511.799
326 0 73.1098 10.9424 800 64.5138 1063.36 511.331
327 0 77.1999 13.5881 1049 61.0172 1062.76 507.548
328 0 78.1527 11.3496 887 63.9741 1063.08 508.298
329 0 77.1949 12.1381 937 64.0448 1062.67 506.751
330 0 83.1321 11.8125 982 64.0519 1062.25 501.587
331 0 85.1969 12.254 1044 63.6657 1062.77 501.128
332 1 46.0554 10.14 467 62.8608 1063.37 525.486
333 0 46.0383 10.7085 493 62.3631 1062.93 525.566
334 0 45.0694 10.5837 477 64.2138 1063.11 520.159
335 0 48.0861 10.9387 526 63.827 1064.17 521.987
336 0 49.0965 9.69519 476 64.0651 1063.19 523.908
337 0 50.0419 11.2905 565 63.1221 1062.73 518.414
338 0 52.0876 10.5591 550 63.9 1062.7 518.587
339 0 54.0434 11.4168 617 62.6029 1063.76 519.95
340 0 57.1002 12.802 731 60.8851 1063.46 517.886
341 0 57.0418 11.325 646 62.8994 1063.28 518.099
342 0 60.0493 12.6063 757 61.1162 1062.81 516.292
343 0 62.0885 11.1776 694 63.2291 1062.8 514.735
344 0 62.189 11.6419 724 63.1506 1062.81 512.537
345 0 64.1207 11.8994 763 63.3473 1064.06 513.731
346 0 66.0706 10.6099 701 65.5121 1063.25 510.264
347 0 70.1084 11.2825 791 64.8053 1063.95 511.325
348 0 71.064 12.8616 914 63.1707 1063.8 509.051
349 0 75.0828 11.201 841 65.019 1064.04 509.105
350 0 75.1294 11.5667 869 65.9494 1063.75 503.771
351 0 80.0549 11.5046 921 65.4387 1063.82 505.04
352 1 38.0361 8.96516 341 65.915 1064.46 524.768
353 0 40.0347 9.31691 373 66.2842 1064.39 523.901
354 0 42.0258 10.5174 442 65.2579 1064.69 522.219
355 0 45.0462 10.7889 486 64.0761 1064.24 522.07
356 0 46.0398 11.4683 528 63.0492 1063.98 522.773
357 0 46.0498 11.5093 530 64.6566 1063.58 519.362
358 0 48.1529 11.4012 549 64.3297 1063.55 519.526
359 0 49.0665 11.0055 540 64.9667 1063.97 517.587
360 0 50.0697 10.4454 523 65.673 1064.62 520.166
361 0 52.088 11.5958 604 64.6954 1064.11 518.623
362 0 49.0473 9.68453 475 68.2884 1063.92 517.684
363 0 55.1041 11.2514 620 64.9597 1063.48 517.603
364 0 57.0499 11.376 649 64.9553 1063.61 515.099
365 0 56.0695 10.8972 611 65.5025 1063.91 516.872
366 0 58.2015 11.7007 681 64.7533 1063.3 515.609
367 0 59.0834 12.7278 752 64.4215 1063.07 511.439
368 0 62.131 11.2665 700 65.0243 1063.52 514.334
369 0 65.0678 12.2949 800 63.9838 1063.56 511.046
370 0 68.2032 11.7736 803 64.4894 1063.03 510.417
371 0 70.0872 12.9125 905 62.0729 1063.75 512.21
372 0 72.3084 13.0414 943 62.6999 1063.31 509.738
373 0 73.2116 12.8668 942 62.7527 1063 505.008
374 0 75.2001 11.6888 879 64.2799 1063.43 507.365
375 0 79.1078 12.4134 982 63.4318 1063.53 502.568
376 1 44.2008 11.0858 490 63.2061 1063.9 522.133
377 0 46.1936 9.28699 429 64.4359 1063.9 522.893
378 0 45.1542 8.94713 404 66.302 1063.35 520.644
379 0 49.1736 11.7543 578 63.1176 1063.31 521.031
380 0 50.1543 12.322 618 62.3495 1063.36 518.882
381 0 53.1761 11.1328 592 63.2145 1063.01 518.076
382 0 52.0608 9.52733 496 65.4456 1063.61 520.899
383 0 57.0214 11.9604 682 61.7595 1063.25 516.166
384 0 57.0393 11.9742 683 62.4041 1062.82 514.899
385 0 58.1126 11.6154 675 62.963 1062.83 514.776
386 0 59.0775 10.2916 608 64.4507 1062.81 512.559
387 0 62.2092 10.9309 680 63.1544 1063.32 514.115
388 0 65.0901 12.3828 806 61.3362 1063.59 512.381
389 0 65.1264 11.0861 722 63.7355 1062.94 512.136
390 0 67.1847 11.0739 744 63.2702 1063.59 512.273
391 0 70.1445 12.9732 910 60.878 1063 508.302
392 0 71.2545 11.7186 835 62.2132 1063.46 507.794
393 0 73.1419 11.6349 851 62.6157 1063.47 505.76
394 0 76.2128 11.6385 887 62.3495 1063.44 506.175
395 0 79.1616 11.6344 921 61.8393 1063.56 505.397
396 0 84.1658 11.7031 985 61.132 1063.53 503.016
397 0 86.1344 12.7011 1094 60.2203 1063.44 500.841
398 0 90.0818 12.9216 1164 59.5464 1064.2 502.588
399 1 45.0147 10.2189 460 63.2022 1063.94 520.361
400 0 47.0454 12.2222 575 60.0922 1063.78 522.104
401 0 48.0518 11.5917 557 61.3232 1063.78 521.343
402 0 49.0858 11.5308 566 62.0565 1064.38 519.452
403 0 53.0928 13.2598 704 58.9915 1063.59 519.513
404 0 55.0449 10.7548 592 61.9459 1064.45 520.171
405 0 56.0836 12.3209 691 60.453 1063.39 516.514
406 0 58.1007 11.6866 679 61.0133 1063.97 516.971
407 0 59.1611 13.2012 781 59.5352 1064.25 514.311
408 0 62.1632 14.0115 871 57.8714 1063.96 515.904
409 0 60.1955 11.0307 664 62.5271 1064.2 511.48
410 0 64.066 11.7691 754 61.187 1063.3 511.667
411 0 66.0278 12.0101 793 60.8991 1063.16 511.277
412 0 68.1792 11.7338 800 60.3525 1063.94 512.138
413 0 73.0854 12.7248 930 59.0667 1063.82 510.187
414 0 73.1003 12.0109 878 60.1697 1063.67 507.153
415 0 75.0564 11.8444 889 60.2306 1062.55 505.639
416 0 80.0698 11.6773 935 59.7551 1063.18 505.766
417 0 83.0693 13.1697 1094 57.4287 1063.5 507.772
418 0 82.1425 11.6383 956 59.7605 1063.22 504.827
419 0 88.1211 12.7552 1124 57.7438 1063.5 503.262
420 0 90.1524 11.3364 1022 59.5783 1063.05 502.147
421 0 94.1372 14.1389 1331 55.9519 1063.75 502.763
422 1 48.0205 11.6409 559 58.4311 1063.36 522.036
423 0 51.0872 11.4902 587 57.9847 1062.99 522.564
424 0 52.1373 11.93 622 57.8505 1063.18 520.283
425 0 54.0203 10.422 563 59.1048 1063.27 520.078
426 0 55.0634 11.8954 655 57.8031 1063.26 519.386
427 0 58.0327 11.9243 692 57.7023 1063.58 517.715
428 0 58.0535 11.7478 682 58.3314 1063.36 517.227
429 0 60.1558 12.0853 727 57.5158 1063.35 515.648
430 0 62.1256 12.4104 771 57.5344 1062.76 513.152
431 0 62.1391 10.6374 661 59.7776 1063.39 513.241
432 0 65.1041 12.5645 818 57.4988 1063.87 514.911
433 0 69.0636 11.5401 797 58.3827 1063.57 515.365
434 0 70.0805 12.6569 887 57.0924 1063.87 514.1
435 0 72.0563 10.5889 763 59.8545 1063.61 506.813
436 0 74.05 11.5327 854 58.8571 1063.81 509.577
437 0 78.0394 11.3789 888 58.607 1063.35 505.706
438 0 80.0806 10.939 876 58.766 1063.24 508.998
439 0 85.0658 13.7893 1173 55.7161 1062.96 505.159
440 1 47.061 11.602 546 57.7656 1063.58 520.943
441 0 48.0748 11.4821 552 57.9149 1062.78 521.728
442 0 47.0949 9.21544 434 60.4885 1063.63 523.551
443 0 49.0588 11.0887 544 58.6048 1063.1 521.592
444 0 54.0875 10.3906 562 58.9804 1062.93 518.671
445 0 56.0677 10.4517 586 58.9164 1062.52 518.973
446 0 56.0825 10.4667 587 59.1175 1062.67 518.388
447 0 59.156 11.2415 665 57.9203 1063.2 515.811
448 0 60.1433 11.9382 718 57.3064 1063.47 517.032
449 0 61.1734 11.3938 697 58.0043 1063.87 515.373
450 0 64.1694 11.3606 729 57.5117 1063.51 515.87
451 0 65.116 11.9633 779 57.5135 1064.26 510.668
452 0 66.132 9.82882 650 60.2538 1063.62 509.091
453 0 69.0709 10.0911 697 59.66 1063.61 508.945
454 0 74.0572 10.789 799 58.6133 1064.34 508.203
455 0 74.0572 10.7619 797 113.975 1065.34 508.286
456 0 76.0726 12.0017 913 58.1216 1063.7 506.191
457 0 79.0608 13.2177 1045 56.5962 1063.58 506.108
458 0 80.1413 11.3549 910 58.8934 1063.85 503.974
459 0 84.2545 12.0231 1013 57.9487 1063.98 501.268
460 0 87.2219 9.96309 869 60.496 1063.62 502.763
461 0 93.1604 12.6449 1178 57.2929 1063.58 500.875
462 1 50.1212 10.3749 520 58.4135 1063.67 521.802
463 0 52.0741 10.4083 542 58.0922 1063.48 523.729
464 0 52.1024 9.17424 478 60.387 1063.26 520.95
465 0 53.0736 9.34551 496 60.4274 1063.95 519.923
466 0 56.1748 11.0014 618 58.4693 1063.84 518.96
467 0 57.1498 11.0937 634 58.7871 1062.71 517.27
468 0 59.0976 13.9261 823 56.2491 1063.57 516.205
469 0 60.1923 10.8984 656 59.9101 1062.86 515.293
470 0 60.2029 9.35171 563 61.7176 1063.1 516.535
471 0 63.2992 11.2956 715 59.5818 1063.42 514.34
472 0 66.185 12.2535 811 57.8681 1063.17 515.861
473 0 68.3305 11.0931 758 59.6227 1063.15 513.032
474 0 66.1703 10.473 693 60.8918 1063.68 512.7
475 0 71.286 11.8116 842 58.8266 1063.5 511.898
476 0 75.1719 12.6377 950 57.879 1063.19 508.987
477 0 74.1581 13.1611 976 57.7141 1063.42 507.646
478 0 78.3691 13.2067 1035 57.6715 1063.24 507.332
479 0 80.2576 12.6842 1018 58.0766 1062.55 503.297
480 0 83.2423 11.6047 966 59.0031 1062.3 505.586
481 0 87.1954 13.6704 1192 56.823 1063.24 502.67
482 0 90.4668 12.1592 1100 58.5855 1063.41 501.762
483 0 92.1711 13.0301 1201 58.04 1063.01 499.936
484 0 96.2306 11.753 1131 59.1149 1063.38 500.112
485 0 98.24 11.7773 1157 59.4831 1063.52 497.564
486 1 50.1311 9.49511 476 60.1597 1063.83 521.034
487 0 51.186 9.84644 504 60.7599 1063.27 519.327
488 0 56.1144 11.0489 620 59.071 1064.33 518.55
489 0 57.1336 10.5892 605 59.4711 1064.05 519.64
490 0 58.1635 11.0207 641 59.6318 1063.77 515.042
491 0 61.121 10.5856 647 59.476 1063.59 515.978
492 0 62.073 13.5002 838 56.7243 1063.67 513.654
493 0 64.0765 11.6111 744 58.3911 1063.25 512.851
494 0 65.1816 10.8927 710 59.4225 1063.27 509.91
495 0 67.0778 11.5239 773 58.7361 1063.1 512.026
496 0 70.1234 11.1375 781 59.1408 1063.16 511.026
497 0 72.0567 11.6714 841 59.113 1063.29 509.04
498 0 74.233 11.5852 860 59.0605 1063.14 507.799
499 0 78.0508 12.0306 939 58.4611 1063.12 509.051
500 0 81.149 12.705 1031 58.4646 1063.52 504.135
501 0 80.0722 11.6645 934 60.5054 1062.83 501.466
502 0 84.1358 12.4679 1049 59.6969 1063.47 502.899
503 0 87.0634 10.9575 954 62.1342 1062.74 500.053
504 0 92.1332 11.3531 1046 61.4924 1062.87 500.263
505 1 47.0402 10.9693 516 58.7829 1063.22 524.147
506 0 47.0466 9.18238 432 61.4815 1062.78 523.308
507 0 48.0736 12.5641 604 58.7732 1063.3 520.442
508 0 49.0691 11.3106 555 60.7514 1062.97 519.696
509 0 52.1936 13.0093 679 58.3137 1063.19 519.505
510 0 53.0912 12.0547 640 59.875 1063.21 519.231
511 0 55.0877 10.7647 593 61.0911 1063.04 518.325
512 0 56.1221 12.9004 724 58.9088 1062.56 517.587
513 0 58.0823 13.1365 763 59.0786 1062.93 514.541
514 0 59.1767 10.7137 634 61.6908 1062.59 516.636
515 0 62.1265 12.5711 781 59.8681 1062.55 514.542
516 0 65.0556 12.7122 827 59.312 1062.79 512.601
517 0 66.0702 12.6229 834 59.6966 1062.67 511.682
518 0 67.1187 12.7386 855 60.1731 1062.56 512.067
519 0 69.0298 12.4149 857 60.6149 1062.9 511.753
520 0 72.0769 12.0427 868 60.3825 1062.4 512.795
521 0 73.106 12.6529 925 60.6465 1062.21 508.08
522 0 76.0732 11.5415 878 61.631 1062.53 507.472
523 0 78.0749 12.1806 951 60.8991 1062.5 507.091
524 0 80.1457 11.267 903 62.0388 1062.39 505.88
525 1 43.1993 10.9724 474 59.3776 1063.15 525.198
526 0 41.0422 8.84456 363 62.2259 1062.92 525.372
527 0 46.0437 11.6628 537 57.9739 1062.9 525.261
528 0 46.0699 11.374 524 59.2996 1062.6 525.032
529 0 46.1048 10.9533 505 60.8614 1062.89 523.311
530 0 48.0284 11.4724 551 60.3557 1062.49 523.321
531 0 50.1575 12.381 621 59.5314 1062.23 521.279
532 0 50.0642 11.725 587 60.9591 1062.52 522.624
533 0 53.0748 13.0759 694 59.5432 1062.35 519.395
534 0 53.1458 11.1956 595 61.8067 1062.38 519.719
535 0 56.0843 12.4455 698 60.235 1062.68 519.003
536 0 55.0775 9.7499 537 63.5233 1062.95 519.238
537 0 57.1828 10.003 572 64.0192 1062.26 518.021
538 0 61.096 11.8175 722 61.1039 1061.79 516.961
539 0 63.2928 11.0123 697 62.2496 1062.26 516.065
540 0 65.2906 11.334 740 61.9797 1062.21 515.426
541 0 67.1103 12.0697 810 61.0123 1061.8 514.49
542 0 69.2857 10.9691 760 61.8566 1062.24 514.342
543 0 70.1971 10.9691 770 62.9403 1062.29 512.465
544 0 73.1411 13.3577 977 59.9519 1062.98 511.595
545 0 74.0752 11.8528 878 62.1538 1061.93 508.499
546 0 76.0994 11.6952 890 62.7562 1062.23 506.864
547 0 81.1199 12.2535 994 61.6197 1062.13 507.031
548 1 40.0211 10.2696 411 61.4623 1062.88 525.822
549 0 40.0067 8.67354 347 63.4323 1062.76 524.896
550 0 43.017 10.2982 443 60.6614 1062.37 526.833
551 0 44.0287 10.9928 484 61.0888 1062.82 523.411
552 0 45.0923 11.5319 520 60.9462 1061.91 521.135
553 0 47.0338 11.2472 529 60.5784 1062.36 522.346
554 0 46.1325 10.795 498 61.8394 1061.71 522.988
555 0 49.1168 11.2589 553 61.8662 1062.47 521.338
556 0 51.1008 11.5262 589 61.1138 1061.76 521.433
557 0 53.105 10.4133 553 62.3418 1062.79 520.819
558 0 52.0349 10.935 569 62.0422 1062.6 520.165
559 0 54.203 8.76336 475 63.8842 1062.01 520.762
560 0 56.1703 11.6076 652 60.9663 1063.17 515.998
561 0 57.0728 12.0372 687 60.5386 1062.74 517.806
562 0 58.1677 10.4181 606 63.4323 1062.14 512.736
563 0 60.102 9.5837 576 63.7656 1062.01 515.144
564 0 63.2088 9.66637 611 63.0344 1062.64 516.938
565 0 64.1448 11.552 741 62.081 1062.67 511.271
566 0 66.0898 11.2574 744 62.2594 1062.95 513.37
567 0 69.1038 10.6651 737 62.9362 1063.18 509.684
568 0 70.0809 10.9017 764 63.4319 1062.9 508.004
569 0 73.1795 11.1097 813 62.8032 1062.62 510.236
570 0 75.1764 11.2003 842 62.7957 1062.76 509.116
571 0 78.1363 11.6591 911 62.3524 1062.43 509.049
572 1 42.0571 11.0564 465 61.0151 1062.79 525.327
573 0 42.012 10.9492 460 61.9174 1063.42 523.778
574 0 42.037 11.0141 463 62.4816 1063.93 524.426
575 0 42.0802 10.6939 450 63.2622 1062.79 524.944
576 0 44.0233 9.76756 430 64.1558 1063.21 524.551
577 0 46.0421 9.79538 451 64.2661 1062.72 523.918
578 0 47.1073 10.0197 472 64.089 1062.79 522.966
579 0 48.0695 9.71511 467 65.167 1063.88 521.936
580 0 51.1178 12.2071 624 62.1106 1063.85 521.639
581 0 54.1013 10.8131 585 63.482 1063.95 521.832
582 0 54.08 11.5755 626 62.9265 1064.42 521.136
583 0 52.0742 10.005 521 65.904 1064.68 520.522
584 0 55.0463 11.1906 616 64.1851 1064.05 517.937
585 0 60.0486 12.5232 752 62.3444 1063.58 516.392
586 0 60.0784 9.83715 591 65.5465 1064.27 519.535
587 0 62.0747 11.7439 729 63.8121 1063.42 517.047
588 0 63.1335 11.9746 756 64.1071 1063.27 513.98
589 0 64.1304 12.4902 801 64.2047 1063.58 513.423
590 0 68.0684 11.5031 783 65.0038 1063.44 513.277
591 0 70.0798 11.4441 802 65.6608 1063.21 511.278
592 0 71.0412 11.2611 800 66.425 1063.23 509.424
593 1 36.0514 11.2617 406 64.7291 1063.25 526.643
594 0 40.0564 9.4367 378 65.672 1063.51 526.061
595 0 40.0265 9.8185 393 66.2748 1062.96 526.468
596 0 41.0298 11.6501 478 64.7155 1063.23 524.481
597 0 44.0447 10.5575 465 65.1978 1062.66 525.561
598 0 46.0269 11.1891 515 65.1553 1063.19 523.565
599 0 47.0737 12.5548 591 63.3841 1063.09 523.623
600 0 49.1344 11.8247 581 64.7573 1063.02 522.492
601 0 47.1021 10.3605 488 68.498 1062.78 520.215
602 0 51.0461 11.4994 587 66.2181 1062.68 519.196
603 0 53.0689 12.3424 655 64.5008 1062.62 520.647
604 0 54.1055 11.2743 610 65.5984 1063.04 520.946
605 0 54.0757 11.8907 643 66.7045 1063.16 517.246
606 0 54.0616 10.784 583 68.163 1063.2 518.16
607 0 58.1465 11.0755 644 67.573 1063.53 518.315
608 0 63.2616 13.2624 839 63.0775 1063.63 518.627
609 0 64.1187 11.198 718 66.6504 1063.81 514.682
610 0 64.2303 12.1282 779 65.1836 1063.96 513.947
611 0 67.1321 11.2912 758 66.0884 1063.64 515.726
612 0 69.1906 13.6435 944 63.4756 1064.3 512.531
613 0 69.181 12.0264 832 66.625 1062.56 511.601
614 1 37.1127 11.1283 413 64.5424 1063.66 528.84
615 0 37.0635 10.9812 407 65.1941 1063.1 528.253
616 0 37.1864 9.17002 341 67.7977 1063.37 527.771
617 0 40.032 9.96702 399 66.8095 1063.77 526.17
618 0 41.0743 11.2723 463 64.9698 1063.81 526.391
619 0 44.1397 10.7839 476 64.9748 1063.55 526.916
620 0 44.1424 10.1943 450 66.8933 1063.63 525.022
621 0 46.0899 11.087 511 65.7417 1063.76 522.517
622 0 48.0713 12.4607 599 63.3573 1063.67 523.134
623 0 49.063 11.3528 557 65.1131 1063.43 522.246
624 0 51.0755 11.669 596 64.3272 1064.47 521.975
625 0 50.0531 10.9684 549 66.7158 1063.62 519.82
626 0 53.0668 10.7412 570 66.1702 1064.08 520.714
627 0 55.1728 11.7812 650 65.0954 1063.25 515.631
628 0 57.0807 11.6502 665 64.6436 1064.15 518.967
629 0 58.0343 11.3554 659 64.7314 1063.53 517.786
630 0 59.22 13.5596 803 62.6389 1063.55 513.963
631 0 61.1461 11.2354 687 65.1674 1063.34 514.603
632 0 62.0331 10.6395 660 65.9879 1063.53 513.821
633 0 64.0112 10.9043 698 66.0473 1063.79 512.676
634 0 67.0974 11.8335 794 64.0126 1063.95 512.768
635 0 68.1009 11.5858 789 65.0558 1064.16 510.349
636 0 69.1406 12.4818 863 63.8239 1064.34 509.871
637 0 71.0476 11.5838 823 64.7218 1064.05 509.535
638 0 74.0744 13.3109 986 62.3702 1063.55 507.024
639 0 76.1142 11.8112 899 64.4249 1063.86 507.763
640 0 79.1392 13.5078 1069 62.0309 1063.55 504.138
641 0 82.1495 13.1346 1079 62.608 1063.61 503.176
642 1 41.0642 9.30251 382 65.2173 1064.25 525.565
643 0 43.0384 11.5014 495 62.9515 1064.3 523.98
644 0 43.0653 11.7264 505 62.2 1063.79 523.889
645 0 45.1354 11.2772 509 63.1925 1063.82 522.593
646 0 45.0646 10.2963 464 65.3362 1063.81 520.621
647 0 47.1537 11.7064 552 63.0072 1063.77 519.935
648 0 48.0891 10.6885 514 64.4222 1063.97 521.049
649 0 48.2333 10.7809 520 64.7308 1063.62 520.842
650 0 50.0584 11.4466 573 63.7243 1063.71 518.208
651 0 51.1072 12.2879 628 62.3217 1064.1 520.608
652 0 52.2437 12.1354 634 63.2618 1063.86 516.826
653 0 55.0687 10.4233 574 64.4913 1063.72 515.793
654 0 56.2336 11.8435 666 62.7943 1062.96 515.126
655 0 58.1906 10.6031 617 64.5284 1062.06 513.713
656 0 59.2481 13.2156 783 61.8072 1062.99 511.834
657 0 60.1108 11.3956 685 64.6613 1064.11 511.692
658 0 63.436 11.5392 732 64.1025 1063.32 510.507
659 0 65.0914 11.1996 729 64.4444 1063.17 511.16
660 0 67.1851 11.8479 796 63.8819 1063.48 508.818
661 0 70.0507 11.2918 791 63.8306 1063.8 507.059
662 0 72.4269 11.8602 859 63.0512 1063.51 508.34
663 0 73.421 11.3591 834 64.187 1063.15 507.263
664 0 77.1792 12.1924 941 62.881 1063.45 507.087
665 0 78.1233 12.0067 938 63.1674 1063.39 504.192
666 1 39.0478 10.8841 425 62.8824 1063.56 523.325
667 0 39.1223 8.99743 352 65.9119 1063.45 524.352
668 0 44.0395 11.0583 487 62.4025 1063.49 524.411
669 0 43.0567 13.2616 571 60.0666 1063.65 524.189
670 0 47.068 11.2816 531 62.5367 1063.93 522.35
671 0 46.0221 10.2777 473 64.4482 1064.23 523.29
672 0 47.0405 11.0118 518 63.4382 1064.09 522.869
673 0 50.039 11.6309 582 60.8918 1063.94 523.393
674 0 49.073 12.084 593 61.7302 1063.95 521.509
675 0 52.0368 11.4342 595 61.9042 1064.16 521.751
676 0 53.0545 11.4411 607 62.4283 1063.74 520.366
677 0 56.0299 10.9584 614 62.513 1064.11 519.671
678 0 58.0202 11.7373 681 61.2423 1064.42 518.714
679 0 58.0826 11.7247 681 62.0029 1064.5 516.9
680 0 61.155 12.2639 750 60.512 1064.02 516.519
681 0 60.0723 13.7002 823 59.7679 1063.39 513.706
682 0 62.0974 12.9796 806 60.1179 1064.42 515.347
683 0 65.1218 11.7319 764 61.7722 1064.16 511.751
684 0 67.1014 11.8179 793 61.3859 1063.77 510.914
685 0 71.0762 13.7458 977 59.1535 1063.67 510.822
686 0 72.1488 12.4465 898 60.7951 1063.54 510.169
687 0 74.0938 13.4424 996 59.8132 1063.23 509.464
688 0 75.0918 14.0628 1056 59.6818 1064.41 507.392
689 0 79.1227 12.171 963 61.7279 1064.08 506.272
690 0 82.141 12.2107 1003 61.7517 1064.06 506.27
691 1 43.0652 10.6583 459 61.8388 1063.84 524.396
692 0 43.0279 10.3654 446 63.5022 1064.15 522.762
693 0 42.1256 9.80401 413 65.1768 1063.37 521.191
694 0 46.0678 11.0706 510 63.3882 1064.05 521.229
695 0 49.179 11.1226 547 62.649 1064.08 522.554
696 0 50.0888 13.3363 668 60.8204 1062.83 519.915
697 0 50.0378 11.4913 575 63.3461 1063.51 521.403
698 0 52.081 12.2117 636 63.1918 1063.53 519.209
699 0 55.0808 12.3455 680 62.3426 1063.61 519.541
700 0 57.0885 11.561 660 62.6924 1063.47 518.509
701 0 55.0711 11.3126 623 64.2103 1063.48 515.295
702 0 59.1191 12.4494 736 62.2935 1063.66 514.894
703 0 61.0665 12.1998 745 62.4872 1063.14 516.562
704 0 62.1463 12.7119 790 62.1962 1063.03 512.903
705 0 65.1209 13.4058 873 61.1592 1063.06 513.537
706 0 65.1207 12.1467 791 63.067 1062.75 512.57
707 0 69.0395 13.3402 921 61.2747 1063.15 511.358
708 0 71.1486 14.3081 1018 60.1994 1062.7 510.226
709 0 73.1277 14.0849 1030 60.8913 1062.89 505.986
710 0 76.0362 12.2705 933 63.5766 1063.11 506.64
711 0 78.0449 12.6338 986 63.2718 1063 505.142
712 0 80.1043 12.671 1015 63.5537 1063.51 505.991
713 1 46.0511 11.7478 541 61.9908 1062.9 523.318
714 0 42.1006 9.38228 395 66.1443 1063.57 524.122
715 0 46.1256 11.1001 512 64.8984 1063.39 520.957
716 0 48.0766 10.5249 506 66.0514 1063.5 520.318
717 0 50.0406 11.8704 594 64.5034 1063.37 519.333
718 0 50.0895 11.9586 599 64.5359 1063.45 521.397
719 0 50.0868 10.7813 540 66.6333 1063.86 520.889
720 0 55.0371 11.8284 651 64.7957 1063.45 519.568
721 0 57.1534 13.7874 788 62.8452 1063.81 517.723
722 0 57.091 12.0334 687 65.8894 1063.18 516.505
723 0 60.097 13.395 805 63.846 1062.57 515.866
724 0 60.0625 12.7867 768 65.1367 1063.28 516.01
725 0 60.0284 12.7773 767 65.472 1063.24 516.119
726 0 64.0783 12.8281 822 65.9708 1063.19 512.927
727 0 66.0468 12.2792 811 66.6548 1062.51 512.746
728 0 67.1672 11.9999 806 66.8362 1062.53 514.254
729 0 71.0484 13.9623 992 63.9052 1062.53 513.416
730 0 73.0845 13.3955 979 64.8008 1063.16 511.169
731 0 74.0382 13.9252 1031 64.7022 1062.72 509.815
732 0 75.0575 12.4305 933 66.9775 1062.8 508.512
733 0 78.1812 12.4071 970 67.1948 1063.06 508.912
734 0 79.0563 11.574 915 68.2645 1062.73 507.045
735 0 84.0822 12.7732 1074 65.9944 1062.67 505.25
736 0 87.0928 12.5728 1095 66.5269 1062.97 503.599
737 0 88.0634 13.5698 1195 65.4243 1063.14 500.82
738 1 46.0739 11.2862 520 64.9173 1063.31 523.933
739 0 48.0609 10.5699 508 65.561 1062.92 525.553
740 0 51.0254 12.1704 621 62.8889 1063.72 525.984
741 0 52.0728 11.9448 622 63.8666 1063.4 523.669
742 0 53.0496 11.7437 623 64.5281 1062.93 523.992
743 0 52.0225 11.841 616 66.0844 1063.42 520.104
744 0 55.092 11.8892 655 65.0473 1062.76 520.501
745 0 56.0468 12.5252 702 64.8134 1061.9 520.071
746 0 57.0511 13.3039 759 63.6706 1062.57 519.187
747 0 57.0706 13.422 766 64.3512 1062.83 519.538
748 0 60.0295 11.611 697 66.5308 1062.79 518.218
749 0 62.0588 13.6 844 64.2701 1063.49 514.957
750 0 65.0522 12.7897 832 64.3161 1063.16 516.13
751 0 67.1573 11.2423 755 66.3086 1062.83 515.499
752 0 68.0625 12.7824 870 64.7138 1062.81 515.421
753 0 71.1045 15.0201 1068 62.1891 1062.93 511.703
754 0 72.0647 11.3509 818 67.0306 1062.87 512.319
755 0 74.0648 10.7878 799 68.0513 1062.49 510.334
756 0 75.0913 11.3329 851 67.0893 1062.75 511.807
757 0 77.1531 11.8466 914 67.3052 1062.23 509.428
758 0 81.0579 13.0647 1059 65.2625 1063.34 509.069
759 0 80.1543 11.6151 931 67.9882 1062.57 505.406
760 0 85.0635 13.2842 1130 65.0451 1062.56 507.528
761 1 45.0854 11.2231 506 65.7055 1063.08 524.204
762 0 46.0767 11.7413 541 65.1627 1063.03 526.769
763 0 47.0701 11.2385 529 66.8374 1062.54 524.497
764 0 50.2435 12.0613 606 65.1865 1063 523.284
765 0 50.0536 10.8484 543 66.6354 1062.79 524.134
766 0 50.0413 13.8885 695 63.4662 1063.77 521.601
767 0 53.0399 12.1229 643 65.1726 1063.13 521.88
768 0 55.0898 12.6158 695 65.0245 1062.97 519.078
769 0 57.0558 12.9522 739 64.3545 1063.26 518.934
770 0 57.1416 12.3028 703 65.8065 1063.56 517.303
771 0 61.158 12.9664 793 63.7995 1063.81 516.77
772 0 64.0514 12.6773 812 64.3251 1063.44 516.58
773 0 65.1259 11.9154 776 65.7977 1063.53 515.616
774 0 66.0248 11.2988 746 66.4397 1063.37 513.319
775 0 68.066 10.6367 724 67.75 1063.67 513.961
776 0 71.0962 11.9556 850 65.4976 1063.2 514.271
777 0 73.159 12.9991 951 64.8118 1063.09 512.423
778 0 74.1466 10.4658 776 68.29 1063.18 511.535
779 0 79.24 12.052 955 65.6052 1063.46 512.442
780 0 78.4302 10.0854 791 69.5436 1062.66 508.789
781 1 41.1122 10.8484 446 66.3453 1063.39 527.881
782 0 44.1007 11.179 493 64.9392 1063.44 528.049
783 0 43.1406 11.4509 494 65.7085 1063.02 525.874
784 0 45.247 11.4041 516 65.2074 1063.21 522.812
785 0 46.1315 10.7519 496 66.1814 1062.74 522.381
786 0 49.1136 11.1171 546 65.5678 1063.32 523.385
787 0 49.1414 11.2532 553 66.047 1063.44 519.693
788 0 50.0953 9.64163 483 67.7516 1063.19 521.812
789 0 53.0593 12.4012 658 64.155 1063.11 520.635
790 0 50.1138 11.5936 581 66.3769 1063.24 520.112
791 0 52.0296 10.5901 551 66.9692 1062.94 519.524
792 0 55.0409 11.6822 643 64.4992 1063.1 520.591
793 0 59.103 12.1652 719 63.128 1063.02 520.127
794 0 59.0723 11.6467 688 64.3328 1063.54 516.679
795 0 62.0682 12.1318 753 63.2576 1063.44 517.073
796 0 62.0838 11.2268 697 64.944 1063.11 513.917
797 0 64.0676 10.8167 693 65.4906 1062.94 514.848
798 0 67.0855 12.2679 823 63.2612 1063.01 513.716
799 0 67.0933 10.8655 729 65.4431 1063.02 511.13
800 0 71.0331 13.0221 925 62.1416 1063.22 511.345
801 0 72.0415 10.8271 780 64.5423 1063.07 510.868
802 0 76.077 11.6724 888 63.6498 1063.23 508.584
803 0 79.0559 11.7638 930 63.0237 1062.88 509.189
804 0 80.0605 11.2665 902 64.0078 1062.56 508.012
805 0 82.146 11.6256 955 63.7403 1063.03 505.915
806 0 86.073 12.8379 1105 62.3991 1063.37 505.367
807 0 87.1274 12.7055 1107 62.8374 1063.33 501.155
808 1 44.1158 11.4925 507 62.9625 1062.59 523.85
809 0 44.045 10.3303 455 64.6703 1063.12 522.897
810 0 47.0355 11.8846 559 62.0787 1062.82 524.975
811 0 50.0411 10.7911 540 63.1685 1063.74 523.698
812 0 49.0779 10.8399 532 63.4436 1063.56 524.235
813 0 52.1077 12.3398 643 61.2924 1063.93 523.435
814 0 52.0345 10.8966 567 63.8518 1064.01 522.922
815 0 54.136 11.4526 620 62.8581 1063.75 522.065
816 0 53.0987 12.5427 666 62.8664 1063.43 520.074
817 0 56.0847 11.6609 654 63.1346 1063.19 519.841
818 0 56.0564 10.3646 581 64.9845 1063.35 521.282
819 0 60.0851 12.3159 740 62.0797 1063.59 519.17
820 0 63.062 14.3351 904 60.0199 1063.63 516.011
821 0 64.0407 13.6476 874 60.7757 1063.62 515.943
822 0 66.0664 12.3361 815 62.2147 1063.73 515.41
823 0 66.1278 10.7519 711 64.294 1063.01 513.7
824 0 70.1981 11.3393 796 63.6734 1063.39 512.545
825 0 70.0527 11.4771 804 63.8955 1063.43 513.718
826 0 74.0898 12.4713 924 62.6071 1062.85 510.825
827 0 75.0563 11.7112 879 64.1513 1063.41 509.355
828 0 79.1199 11.9565 946 63.9366 1063.07 509.637
829 0 82.0978 12.6069 1035 63.7594 1062.82 508.01
830 0 84.1412 11.6709 982 65.4267 1063.27 504.895
831 0 85.052 11.005 936 66.7468 1063.52 506.276
832 0 89.0923 12.661 1128 65.3076 1063.1 503.347
833 0 91.1838 10.4734 955 68.1675 1062.49 502.143
834 0 95.1039 12.9858 1235 65.485 1062.93 503.138
835 1 50.145 11.0879 556 67.0108 1063.32 524.809
836 0 53.0568 11.3652 603 66.1774 1063.05 525.466
837 0 54.0897 11.8322 640 66.3141 1062.83 523.523
838 0 56.1588 12.1441 682 66.717 1062.69 521.298
839 0 59.0824 14.1328 835 63.3246 1062.34 521.162
840 0 61.0526 13.4802 823 64.3597 1062.92 519.813
841 0 62.0672 13.6948 850 64.3859 1062.94 519.653
842 0 63.0997 11.0619 698 67.1433 1063.02 519.289
843 0 65.0741 12.4473 810 65.9407 1063.29 517.188
844 0 69.0379 12.3845 855 65.3743 1063.86 517.161
845 0 69.0455 11.2969 780 66.5077 1063.47 517.592
846 0 73.1148 13.4036 980 64.7561 1062.87 512.144
847 0 75.0931 13.2635 996 65.5372 1063.06 510.365
848 0 77.0919 12.9586 999 66.1091 1063.42 511.981
849 0 80.0887 13.972 1119 64.9187 1062.41 510.854
850 0 82.2237 13.0498 1073 66.0848 1062.79 508.302
851 0 85.0927 12.3865 1054 67.0579 1063.14 508.013
852 0 88.107 13.1885 1162 65.7186 1062.77 509.426
853 0 91.0524 12.4873 1137 66.9675 1062.94 505.719
854 0 93.0849 13.5898 1265 65.8379 1063.02 503.257
855 0 96.0904 12.4674 1198 67.5209 1063.02 501.703
856 1 49.0279 12.707 623 64.886 1062.88 527.374
857 0 50.0438 11.7297 587 67.0852 1062.63 525.228
858 0 51.0547 12.8098 654 66.2676 1062.48 524.783
859 0 54.0877 12.3503 668 66.5838 1062.68 522.955
860 0 55.1005 12.2866 677 67.3501 1062.59 522.281
861 0 58.1136 13.7317 798 65.7644 1062.27 523.387
862 0 59.032 11.6378 687 69.0859 1063.34 522.574
863 0 59.0303 11.7228 692 68.9335 1062.02 521.658
864 0 62.0599 13.5998 844 66.1848 1062.47 519.665
865 0 66.1054 11.7842 779 67.4146 1062.97 518.639
866 0 67.0837 12.9391 868 66.7696 1062.62 516.78
867 0 69.133 12.5989 871 66.7164 1062.54 515.634
868 0 73.0418 13.3075 972 65.8868 1063.09 514.325
869 0 76.0814 13.249 1008 65.5595 1063.44 514.528
870 0 78.0777 13.2048 1031 65.7711 1063.23 511.399
871 0 79.0652 12.5846 995 66.3678 1062.75 511.821
872 0 82.0884 12.6327 1037 66.6075 1062.48 508.392
873 0 84.0822 12.2856 1033 67.1481 1062.61 509.012
874 0 88.2036 12.2217 1078 66.7505 1062.7 506.368
875 0 88.0621 11.5032 1013 68.3465 1061.92 503.934
876 0 92.0688 12.621 1162 66.8219 1063.12 506.693
877 1 46.0677 11.9607 551 65.6461 1063.47 527.495
878 0 48.0299 11.7635 565 65.754 1063.64 526.25
879 0 48.0131 9.30996 447 69.1745 1063.78 526.763
880 0 51.0905 12.0766 617 66.4003 1063.33 523.382
881 0 53.026 11.7867 625 66.4208 1063.53 523.054
882 0 54.0672 12.7249 688 64.7427 1062.74 523.382
883 0 57.058 12.8641 734 63.8815 1063.66 524.104
884 0 55.0479 11.0631 609 67.8177 1063.3 520.744
885 0 59.1171 11.418 675 66.9407 1063.54 520.569
886 0 60.0512 10.9407 657 67.6164 1063.85 519.741
887 0 62.0565 11.8279 734 66.9537 1063.09 516.121
888 0 66.1153 12.3421 816 65.5527 1063.59 517.953
889 0 68.0907 12.9533 882 64.9762 1063.57 516.58
890 0 68.078 12.706 865 66.6301 1063.71 513.686
891 0 72.0574 12.268 884 66.7217 1063.46 512.098
892 0 74.1651 11.407 846 67.8842 1063.43 511.905
893 0 77.162 11.8971 918 66.4684 1063.56 513.53
894 0 78.2194 12.9508 1013 65.7443 1062.7 507.576
895 0 83.0944 12.6001 1047 65.8405 1062.72 507.454
896 0 88.1261 12.7318 1122 65.1381 1062.77 507.806
897 0 88.104 12.962 1142 65.4694 1062.54 506.139
898 0 91.0901 14.052 1280 64.2977 1063.3 503.563
899 0 94.1882 13.3775 1260 65.346 1063.51 501.206
900 0 97.2529 13.4598 1309 65.084 1063.19 501.251
901 1 52.0498 9.83673 512 66.4805 1063.84 524.576
902 0 53.0752 11.9453 634 64.6767 1063.44 523.42
903 0 56.0515 12.0603 676 64.5074 1063.17 521.141
904 0 57.0332 12.4314 709 64.512 1062.81 520.023
905 0 59.0911 13.8092 816 61.9718 1062.63 520.539
906 0 63.1043 12.0594 761 63.6255 1062.56 518.932
907 0 63.1488 12.3359 779 63.9294 1063.02 518.065
908 0 67.096 11.9232 800 63.4962 1063.49 517.294
909 0 68.129 11.6837 796 64.5502 1063.12 516.725
910 0 70.1632 11.8866 834 64.018 1064.16 516.908
911 0 73.0612 12.4553 910 62.9637 1064.27 515.56
912 0 74.0898 11.2161 831 64.4621 1065.02 515.586
913 0 77.0499 12.9267 996 62.1606 1064.91 513.992
914 0 78.0684 11.6949 913 64.0219 1063.7 512.394
915 0 82.0637 12.8802 1057 62.2034 1063.22 509.333
916 0 86.0397 11.2157 965 64.2518 1063.17 510.028
917 0 87.095 11.9065 1037 63.675 1063.1 507.805
918 1 44.0672 10.7109 472 61.2203 1063.06 530.343
919 0 45.0445 9.59052 432 64.2245 1062.92 527.421
920 0 49.0584 10.8238 531 62.2994 1063.54 527.75
921 0 49.0515 10.8457 532 63.4323 1063.6 525.267
922 0 51.1141 12.8927 659 60.1517 1062.62 525.83
923 0 51.0736 11.4149 583 62.1149 1061.76 525.163
924 0 54.0635 10.8576 587 61.8842 1062.32 523.375
925 0 55.0412 10.9918 605 61.3636 1062.43 523.605
926 0 56.0644 11.0409 619 62.3829 1061.92 521.83
927 0 59.0508 12.1759 719 60.2893 1062.61 519.871
928 0 58.1473 10.7486 625 62.7184 1062.03 518.238
929 0 64.1684 10.94 702 61.1681 1062.51 520.125
930 0 65.1738 11.2469 733 61.0764 1062.72 518.917
931 0 65.0416 10.255 667 62.6042 1062.8 515.948
932 0 69.0825 10.9869 759 61.8116 1062.61 516.318
933 0 70.1403 11.7479 824 61.2342 1062.48 513.734
934 0 74.1439 12.8669 954 59.7107 1063.08 510.95
935 0 78.0819 10.822 845 61.4248 1062.98 510.73
936 0 78.1388 11.6843 913 60.1873 1063.01 512.837
937 0 80.1243 10.9954 881 61.5721 1061.96 508.931
938 1 41.1639 10.9805 452 59.5088 1062.62 528.188
939 0 42.0406 10.2758 432 60.3125 1063.28 528.824
940 0 46.0926 10.8911 502 59.5179 1062.97 528.277
941 0 45.0334 11.0362 497 60.1932 1062.62 527.161
942 0 48.091 12.7051 611 58.8412 1062.54 525.453
943 0 47.059 10.2 480 62.0812 1062.95 523.146
944 0 49.0296 10.4427 512 61.9062 1063.29 524.922
945 0 51.0691 11.7879 602 60.5083 1063.22 521.239
946 0 51.2193 11.3629 582 61.1942 1063.67 522.945
947 0 53.0856 11.3213 601 60.9601 1063.44 518.822
948 0 54.0362 10.5115 568 61.5898 1063.61 519.944
949 0 59.0331 12.2135 721 59.0485 1063.86 518.933
950 0 59.0653 11.9359 705 59.1475 1063.4 520.238
951 0 59.0945 12.2854 726 59.1997 1063.38 519.5
952 0 64.1138 11.9475 766 58.9086 1063.28 517.364
953 0 65.2235 13.4614 878 57.4749 1064.05 513.625
954 0 67.1921 12.8586 864 58.3553 1063.57 515.703
955 0 67.098 11.1479 748 60.5963 1063.47 513.793
956 0 71.1023 11.5749 823 60.1665 1063.16 512.441
957 0 72.1247 11.702 844 60.0533 1063.16 510.783
958 0 76.0562 12.1621 925 59.6616 1063.86 511.991
959 0 78.1588 12.2827 960 60.2719 1063.42 508.912
960 0 81.1819 13.3158 1081 59.0231 1063.43 507.32
961 0 83.0627 14.2422 1183 58.2967 1063.87 505.524
962 1 41.1365 8.41102 346 64.7861 1064.1 526.644
963 0 44.1412 12.2561 541 60.0259 1063.98 525.449
964 0 44.0527 10.6009 467 63.6039 1063.7 525.651
965 0 47.1688 11.9995 566 61.6714 1063.28 523.698
966 0 46.0294 10.515 484 64.0083 1063.46 524.837
967 0 49.0399 12.0922 593 61.0978 1063.48 525.12
968 0 51.0729 12.1199 619 61.2488 1063.77 524.334
969 0 50.0336 11.6122 581 63.0241 1063.45 521.491
970 0 52.1881 11.9567 624 62.024 1063.76 523.029
971 0 56.1443 13.6256 765 59.8889 1063.43 521.133
972 0 56.1472 12.1466 682 62.349 1063.64 519.371
973 0 57.1759 11.1585 638 63.1787 1063.77 518.373
974 0 60.1314 12.7554 767 60.9348 1063.57 518.334
975 0 62.2133 12.425 773 61.4605 1063.54 518.369
976 0 63.1405 13.0978 827 60.8622 1063.89 515.092
977 0 63.0388 11.6912 737 63.2225 1063.31 514.121
978 0 69.1577 12.4787 863 61.343 1063.17 515.368
979 0 70.1697 13.0398 915 61.1738 1064.08 511.975
980 0 73.0997 13.3516 976 60.6936 1064.19 510.675
981 0 73.1362 12.4972 914 61.7987 1063.5 512.229
982 0 76.1087 11.8909 905 63.4 1063.45 508.313
983 1 39.1491 10.8815 426 61.9155 1063.61 530.462
984 0 40.0796 12.2257 490 61.0204 1064.22 530.653
985 0 41.11 10.0949 415 64.0024 1064.37 529.694
986 0 42.0973 12.5424 528 61.358 1064.56 529.193
987 0 41.1425 10.9133 449 65.9755 1064.42 525.16
988 0 46.0926 12.3447 569 62.7416 1064.47 526.376
989 0 45.188 11.7066 529 64.2363 1063.99 525.344
990 0 48.1336 13.4833 649 62.171 1064.29 523.829
991 0 49.0351 11.8894 583 64.3156 1063.86 524.619
992 0 49.1868 11.6088 571 65.3678 1064.08 524.65
993 0 49.0097 11.059 542 66.5277 1064.32 522.581
994 0 52.0646 12.1004 630 65.1794 1063.79 522.721
995 0 54.1615 13.6074 737 63.4084 1064.11 520.547
996 0 55.0353 12.3012 677 65.9454 1063.78 519.483
997 0 59.0982 12.0308 711 65.9902 1064.02 519.747
998 0 57.1883 12.2578 701 66.6976 1063.53 518.796
999 0 61.0579 12.6601 773 65.784 1062.95 519.361
1000 0 63.0671 14.3656 906 63.6512 1063.29 517.498
1001 0 62.1905 11.5612 719 68.6189 1063.33 514.776
1002 0 67.0788 13.8494 929 64.5974 1063.46 516.264
1003 0 67.1623 12.8197 861 66.9303 1063.76 514.04
1004 0 71.121 13.4841 959 66.1554 1062.81 510.6
1005 0 73.194 11.8179 865 68.3087 1063.13 510.19
1006 0 75.1752 12.6505 951 67.5205 1063.54 512.003
1007 0 77.0778 13.0777 1008 66.9306 1063.32 511.551
1008 1 39.0187 10.354 404 68.6856 1062.98 528.802
1009 0 40.0187 9.54554 382 69.9895 1062.67 528.961
1010 0 44.0413 11.1713 492 67.9492 1063.25 527.218
1011 0 44.0777 11.3209 499 68.2886 1062.61 527.365
1012 0 44.0539 12.3712 545 67.3376 1062.9 527.703
1013 0 47.1007 12.8448 605 65.5471 1063.15 526.14
1014 0 46.0464 11.0758 510 69.198 1062.8 525.327
1015 0 49.0573 12.8829 632 66.1456 1062.55 524.962
1016 0 50.0475 11.589 580 67.6828 1062.65 525.676
1017 0 53.0408 13.0843 694 65.7435 1062.54 524.135
1018 0 53.0244 13.8238 733 65.6262 1062.53 522.37
1019 0 55.0822 13.1258 723 65.6957 1062.22 523.992
1020 0 54.1164 12.1035 655 68.8718 1062.3 523.206
1021 0 57.0772 12.9474 739 66.7997 1062.87 520.461
1022 0 59.0478 12.9725 766 65.9256 1061.84 523.324
1023 0 59.153 11.9521 707 68.232 1062.17 521.249
1024 0 61.0518 11.2364 686 69.1997 1062.43 519.3
1025 0 66.1157 13.8999 919 65.2394 1062.45 517.55
1026 0 68.0663 13.6338 928 65.3933 1062.48 516.801
1027 0 69.0824 12.6516 874 67.0389 1062.1 516.595
1028 0 72.1449 13.0709 943 66.9523 1061.95 515.379
1029 0 73.0477 12.7177 929 67.7879 1062.04 512.786
1030 0 74.0466 11.5603 856 69.3516 1061.33 513.159
1031 1 39.0503 11.4468 447 66.8837 1062.17 531.454
1032 0 38.0797 11.1608 425 67.7506 1061.84 530.454
1033 0 43.059 12.03 518 65.7992 1061.75 529.942
1034 0 42.088 12.0462 507 67.2071 1061.82 529.189
1035 0 44.0693 10.6423 469 68.1407 1062.32 529.305
1036 0 45.0408 12.0779 544 66.5717 1061.9 527.744
1037 0 45.0722 12.0252 542 67.048 1061.67 527.02
1038 0 48.0737 11.2952 543 67.8287 1061.86 527.23
1039 0 50.0456 12.2888 615 66.5528 1061.25 526.094
1040 0 50.1341 12.9652 650 66.4246 1061.11 524.445
1041 0 51.0325 12.639 645 66.5954 1061.57 524.016
1042 0 53.0562 11.9496 634 67.8092 1061.81 522.685
1043 0 54.0624 11.7087 633 67.7062 1062.2 523.009
1044 0 58.1445 12.9333 752 65.6649 1061.9 521.023
1045 0 58.1622 11.0037 640 67.4609 1061.78 522.698
1046 0 59.0531 11.4473 676 66.9231 1062.01 521.725
1047 0 60.1507 11.8203 711 66.9747 1061.73 519.286
1048 0 65.1185 11.7325 764 66.0798 1061.67 519.596
1049 0 66.1789 12.1338 803 65.6887 1062.42 517.793
1050 0 67.0662 11.5408 774 66.6382 1061.7 516.525
1051 0 70.2338 10.9064 766 67.5131 1061.18 513.937
1052 0 74.1026 12.4422 922 64.846 1061.36 512.786
1053 1 37.0347 9.99062 370 66.3081 1061.11 529.927
1054 0 40.0576 10.3351 414 65.2802 1061.27 529.28
1055 0 42.0425 11.8214 497 63.7082 1061.6 530.36
1056 0 41.0209 10.58 434 65.7051 1061.16 529.456
1057 0 43.067 11.6795 503 63.5746 1062.02 529.318
1058 0 44.0498 12.0772 532 63.4944 1061.98 527.34
1059 0 45.0371 11.9679 539 62.9629 1062.21 528.328
1060 0 46.0672 10.7452 495 65.4566 1061.87 527.267
1061 0 48.0288 11.2224 539 63.7607 1062.11 528.132
1062 0 50.0409 11.7904 590 63.2746 1062.29 526.366
1063 0 52.0482 11.0667 576 63.5556 1061.43 525.399
1064 0 52.0659 11.0821 577 64.3362 1061.62 523.556
1065 0 55.2272 11.2807 623 63.2905 1062.38 524.596
1066 0 58.1436 12.3487 718 61.8719 1062.06 523.248
1067 0 59.1664 11.493 680 62.7824 1062.36 521.426
1068 0 62.1082 11.1419 692 63.2977 1062.64 520.108
1069 0 63.2179 10.9621 693 62.5209 1062.15 521.798
1070 0 65.1059 11.105 723 63.314 1061.6 520.172
1071 0 67.0853 9.37612 629 65.5278 1061.82 517.69
1072 0 71.0937 11.295 803 63.4471 1062.07 514.534
1073 0 75.1239 13.338 1002 60.6327 1061.97 513.414
1074 0 75.1358 11.2197 843 64.0154 1062.44 508.874
1075 0 79.1438 12.332 976 62.1424 1061.84 509.612
1076 1 39.0485 8.1181 317 65.142 1062.4 527.89
1077 0 39.0361 6.27624 245 67.5102 1062.64 528.2
1078 0 40.0775 8.70814 349 66.2522 1062.5 526.215
1079 0 44.0379 11.3766 501 62.5609 1063.06 524.082
1080 0 45.0405 9.61357 433 65.0231 1063.19 524.58
1081 0 46.0927 10.6741 492 64.0406 1062.86 523.862
1082 0 47.0632 10.3903 489 64.5378 1063.05 522.505
1083 0 46.0713 8.44343 389 67.0437 1062.68 523.578
1084 0 50.1035 8.90157 446 65.9148 1062.85 520.711
1085 0 50.0745 9.26619 464 65.8211 1063.04 519.172
1086 0 53.0584 8.40583 446 65.9215 1062.27 517.561
1087 0 52.0502 9.89429 515 64.5534 1062.91 517.981
1088 0 53.0708 10.42 553 64.7215 1063.05 516.434
1089 0 54.1207 7.74195 419 67.5847 1062.9 515.823
1090 0 60.0721 10.1045 607 64.9341 1063.2 514.395
1091 0 62.1312 10.4456 649 64.829 1062.42 515.442
1092 0 65.0892 10.0631 655 65.2351 1063.13 512.863
1093 0 68.2204 12.3717 844 62.3649 1062.86 514.103
1094 0 70.1691 11.23 788 63.5241 1062.8 513.972
1095 0 74.1096 11.8878 881 62.9557 1063.22 512.111
1096 0 77.1104 12.8387 990 61.3838 1063.12 510.807
1097 0 78.0709 11.8866 928 62.7144 1063.09 510.391
1098 0 82.1812 11.9614 983 62.3052 1062.85 508.061
1099 0 86.2128 13.6291 1175 60.103 1062.93 509.232
1100 0 90.111 11.6412 1049 62.449 1063.5 506.496
1101 0 90.1317 11.1947 1009 63.3766 1062.99 506.57
1102 0 94.1307 14.3736 1353 59.9815 1062.37 504.956
1103 0 99.1849 13.0262 1292 61.0797 1062.72 504.469
1104 1 48.0415 9.30445 447 64.6823 1063.39 525.879
1105 0 50.0657 10.4263 522 63.387 1063.22 525.826
1106 0 52.1597 11.714 611 61.5548 1062.78 527.88
1107 0 53.1333 10.5772 562 63.3025 1062.26 525.009
1108 0 54.0826 11.4824 621 62.2947 1062.14 524.446
1109 0 57.1308 11.1673 638 62.4467 1062.64 525.072
1110 0 58.0509 12.0412 699 61.9728 1062.73 521.492
1111 0 60.1252 12.7068 764 61.64 1062.73 519.253
1112 0 57.0986 10.2454 585 65.1214 1062.49 518.509
1113 0 63.1197 12.8328 810 61.3049 1062.82 516.683
1114 0 65.1121 11.9179 776 62.4961 1062.79 517.762
1115 0 65.0289 10.7952 702 64.2236 1062.27 515.651
1116 0 69.125 11.0524 764 63.8154 1062.33 512.855
1117 0 73.0659 12.1534 888 62.4831 1062.93 512.676
1118 0 76.1321 12.5834 958 61.3706 1063.01 513.587
1119 0 78.0825 12.1282 947 61.5934 1062.52 514.181
1120 0 82.1187 13.0177 1069 61.1104 1062.33 508.483
1121 0 83.0844 11.1934 930 63.7473 1062.38 508.092
1122 0 87.2236 12.8979 1125 61.144 1062.53 508.444
1123 0 88.2055 11.9494 1054 63.555 1062.46 503.242
1124 0 91.1332 11.2473 1025 64.2332 1063.49 504.126
1125 0 95.1864 13.7099 1305 61.4766 1063.05 501.985
1126 1 51.0992 10.9786 561 61.9554 1063.15 524.824
1127 0 50.1102 9.06004 454 65.1806 1063.71 522.941
1128 0 52.0936 11.0186 574 62.6812 1063.26 522.765
1129 0 51.1513 9.93133 508 65.7539 1063.25 522
1130 0 55.1435 10.3185 569 64.7276 1063.15 522.84
1131 0 58.1174 11.3563 660 63.2621 1062.92 519.971
1132 0 60.0646 11.0548 664 63.1461 1062.88 520.346
1133 0 63.0583 12.0365 759 61.7945 1062.82 518.856
1134 0 64.2677 12.8214 824 61.1286 1062.54 515.85
1135 0 67.1231 12.7974 859 60.7509 1062.87 515.802
1136 0 68.0297 11.3186 770 61.8636 1063.33 517.717
1137 0 70.0492 10.978 769 62.9402 1063.28 513.857
1138 0 73.1218 11.3372 829 62.5549 1063.17 510.888
1139 0 76.0761 12.1457 924 61.2543 1063.22 513.357
1140 0 79.0885 12.6314 999 61.044 1063.1 510.478
1141 0 80.0514 11.5051 921 62.4647 1063.7 507.58
1142 0 82.1802 10.8907 895 63.2223 1063.85 507.818
1143 0 87.1712 12.1485 1059 61.119 1063.29 507.083
1144 0 91.278 12.3907 1131 60.947 1062.74 505.735
1145 0 93.1924 11.9001 1109 62.1443 1063.15 501.505
1146 1 51.0831 10.1403 518 61.4035 1064.11 525.768
1147 0 52.1507 11.5051 600 60.81 1063.53 522.35
1148 0 53.1447 11.0641 588 61.9201 1063.45 521.175
1149 0 56.0555 12.3271 691 60.7829 1063.8 520.355
1150 0 57.07 10.9865 627 61.7528 1063.9 521.027
1151 0 58.1105 11.5986 674 61.5044 1063.46 521.337
1152 0 60.1497 11.6875 703 60.8876 1062.78 521.566
1153 0 63.1422 11.6721 737 61.251 1063.19 517.243
1154 0 66.2278 13.2271 876 59.2534 1063.5 518.082
1155 0 66.1868 10.9387 724 62.2376 1063.08 518.189
1156 0 68.225 11.8285 807 61.3767 1062.99 516.053
1157 0 71.1201 10.9814 781 62.461 1062.99 515.277
1158 0 73.2379 11.0735 811 62.5684 1062.83 512.364
1159 0 76.2118 11.1662 851 61.7779 1062.82 514.955
1160 0 78.2837 11.9821 938 62.0512 1062.65 511.673
1161 0 81.1698 12.6525 1027 61.0574 1063.25 511.364
1162 0 82.1046 12.0091 986 62.3245 1062.46 505.225
1163 0 86.2494 12.232 1055 62.1905 1062.53 507.388
1164 0 89.2024 11.984 1069 62.2694 1062.44 509.826
1165 1 48.0992 10.915 525 61.5029 1063.13 527.558
1166 0 48.0294 12.3674 594 60.5421 1063.16 526.483
1167 0 49.0957 11.0193 541 62.976 1063.2 525.412
1168 0 49.1555 11.6569 573 62.9092 1063.12 524.702
1169 0 52.0637 10.8905 567 63.1658 1063.59 524.409
1170 0 51.1369 11.1466 570 63.5298 1062.65 525.07
1171 0 54.0787 12.3893 670 62.5298 1062.85 524.102
1172 0 58.1483 14.1191 821 59.8015 1062.79 522.799
1173 0 57.0978 13.5557 774 61.4341 1062.53 522.18
1174 0 58.1545 11.6242 676 63.9216 1062.79 521.379
1175 0 60.083 13.6145 818 61.2946 1063.28 521.395
1176 0 63.1666 13.4723 851 61.4066 1063.1 519.162
1177 0 65.1266 14.0803 917 61.2083 1062.93 518.195
1178 0 63.08 9.76538 616 66.9286 1064.02 518.55
1179 0 68.1681 11.5303 786 64.2761 1063.67 519.134
1180 0 69.1331 11.6876 808 64.6906 1062.88 517.458
1181 0 73.093 12.7509 932 63.3369 1062.83 515.725
1182 0 76.1468 14.5508 1108 61.4946 1062.18 513.458
1183 0 77.1672 13.7753 1063 62.7639 1062.47 513.22
1184 0 79.1367 12.6743 1003 64.999 1062.29 509.809
1185 0 84.1605 13.5337 1139 63.0123 1063.33 509.793
1186 0 85.0973 12.3036 1047 64.851 1063.17 509.125
1187 0 89.075 12.9554 1154 63.9073 1062.41 504.178
1188 0 89.3048 12.2278 1092 64.9295 1062.54 506.071
1189 0 94.1663 12.17 1146 65.0044 1063.04 504.284
1190 0 94.1904 11.8908 1120 65.3259 1062.96 502.892
1191 0 101.136 12.8441 1299 63.679 1063 498.691
1192 1 54.0253 11.9574 646 62.4412 1063.3 523.587
1193 0 54.0154 9.94161 537 65.1583 1063.26 524.343
1194 0 57.0266 11.3456 647 64.2009 1063.31 521.281
1195 0 56.081 11.519 646 64.0542 1064.14 520.353
1196 0 59.0858 11.7456 694 63.915 1064.54 520.128
1197 0 61.115 12.1574 743 63.3674 1063.33 519.817
1198 0 64.1201 11.9619 767 63.116 1063.15 519.872
1199 0 64.0467 10.9451 701 64.669 1063.57 518.096
1200 0 68.2504 12.7765 872 62.1239 1063.82 516.327
1201 0 69.117 11.9942 829 63.0048 1063.95 515.361
1202 0 71.0627 11.2999 803 64.0311 1064.11 514.611
1203 0 73.121 12.4725 912 62.7259 1063.98 514.041
1204 0 76.043 12.4666 948 62.2542 1063.71 512.778
1205 0 77.1306 11.9667 923 62.935 1063.84 511.401
1206 0 81.0932 13.7126 1112 60.6484 1063.53 510.871
1207 0 83.0972 11.3121 940 63.3723 1063.02 509.152
1208 0 85.08 13.3286 1134 61.478 1062.98 507.208
1209 0 89.0665 11.8788 1058 62.189 1063.34 507.606
1210 1 46.0624 10.3338 476 62.3845 1063.93 527.536
1211 0 50.0411 12.5097 626 59.8291 1064.05 526.783
1212 0 51.0554 12.7117 649 60.661 1064.15 524.239
1213 0 49.0344 10.1765 499 64.5952 1063.83 523.904
1214 0 53.1175 11.4087 606 62.4158 1063.96 524.579
1215 0 53.1132 13.8195 734 60.0313 1063.9 521.55
1216 0 53.0592 11.195 594 63.6347 1063.62 520.195
1217 0 58.1477 12.623 734 61.3134 1063.25 522.204
1218 0 58.0927 11.2923 656 63.0899 1063.38 521.233
1219 0 60.0648 11.5042 691 62.8799 1063.58 521.663
1220 0 64.0806 12.9368 829 61.0482 1063.55 520.524
1221 0 64.0933 13.1995 846 61.6797 1062.99 515.593
1222 0 66.0504 12.6267 834 62.1954 1063.28 515.552
1223 0 68.0548 10.6973 728 64.3352 1062.63 516.047
1224 0 71.0858 12.8296 912 62.0822 1062.28 514.769
1225 0 75.1934 12.6607 952 62.1176 1062.86 512.316
1226 0 76.2244 12.4501 949 62.6449 1063.28 512.33
1227 0 79.0632 12.6102 997 61.7713 1063.1 512.992
1228 0 82.1531 11.9168 979 63.0174 1063.26 512.315
1229 0 82.0978 11.401 936 64.6143 1062.58 508.15
1230 1 44.0342 10.8098 476 63.2038 1063.11 527.353
1231 0 48.1138 10.4752 504 63.25 1063.35 526.752
1232 0 48.1903 11.7244 565 62.7133 1063.45 525.784
1233 0 49.1203 12.561 617 62.4554 1062.67 524.472
1234 0 50.094 10.3406 518 65.1255 1063.21 524.849
1235 0 52.1026 12.3986 646 63.0387 1063.22 522.659
1236 0 53.0528 12.8551 682 62.783 1062.67 523.611
1237 0 53.0591 11.7416 623 64.8876 1063.21 520.323
1238 0 56.0792 11.4659 643 63.986 1063.07 521.75
1239 0 57.0823 12.3506 705 63.6894 1063.75 519.275
1240 0 60.2077 12.3074 741 62.8435 1063.24 520.216
1241 0 62.1189 12.2024 758 62.7032 1063.39 521.777
1242 0 61.0668 10.8733 664 65.1657 1063.32 519.745
1243 0 65.1342 12.6354 823 62.4386 1063.64 519.177
1244 0 65.0364 11.8241 769 63.9519 1063.77 516.242
1245 0 67.2702 11.4464 770 64.4779 1064.24 514.342
1246 0 72.1208 12.6177 910 62.6308 1063.85 513.304
1247 0 73.1493 12.495 914 63.1576 1063.62 513.891
1248 0 77.089 12.5958 971 63.0227 1063.73 513.361
1249 1 38.0632 11.0343 420 62.4333 1063.86 531.31
1250 0 38.0362 9.35952 356 65.7949 1064.35 529.059
1251 0 39.0731 11.2354 439 63.9317 1063.98 530.253
1252 0 40.0481 12.1853 488 63.4549 1063.99 527.242
1253 0 42.0764 12.7863 538 61.8922 1063.63 527.182
1254 0 43.154 11.3547 490 63.7653 1063.38 527.924
1255 0 46.0512 12.8987 594 61.7357 1063.79 527.049
1256 0 44.0361 11.5133 507 64.8402 1063.47 526.75
1257 0 49.0304 12.6656 621 61.8889 1063.57 527.374
1258 0 50.0823 12.4595 624 63.0769 1063.57 524.699
1259 0 50.028 11.3137 566 64.7844 1063.63 523.834
1260 0 52.0338 12.3381 642 63.634 1063.59 524.364
1261 0 53.0583 13.9469 740 61.2757 1063.22 524.191
1262 0 54.0918 11.7763 637 64.4254 1063.13 523.408
1263 0 56.0416 11.9911 672 64.0417 1063.72 521.906
1264 0 59.0507 12.8026 756 62.5595 1062.67 521.796
1265 0 60.107 12.2947 739 63.6387 1063.38 519.903
1266 0 62.0668 13.2438 822 62.4781 1063.52 519.119
1267 0 64.1125 11.8542 760 64.4974 1062.69 518.728
1268 0 64.1019 11.9809 768 64.8411 1063.32 519.061
1269 0 67.0796 11.4491 768 65.3867 1062.9 516.208
1270 0 70.0509 11.249 788 65.6916 1063.19 513.865
1271 0 74.1813 12.4695 925 63.1946 1062.67 514.729
1272 0 73.1749 11.206 820 65.8134 1062.15 512.937
1273 1 39.0487 9.83388 384 64.5885 1062.77 530.578
1274 0 39.0151 10.2268 399 63.5965 1063.61 531.87
1275 0 41.0298 9.77339 401 64.8454 1062.88 531.456
1276 0 42.1112 11.4459 482 63.3859 1063.53 528.535
1277 0 45.1136 11.6151 524 62.395 1063.74 529.653
1278 0 43.0204 11.9246 513 63.7154 1063.67 526.768
1279 0 43.0664 9.6595 416 66.0938 1063.25 529.209
1280 0 47.0577 11.029 519 65.0077 1063.51 525.865
1281 0 48.0472 10.0942 485 66.4041 1063.23 526.705
1282 0 51.0391 10.1491 518 65.6004 1062.89 526.465
1283 0 50.0539 10.6485 533 65.7711 1063.09 525.246
1284 0 53.1537 11.0434 587 64.799 1062.72 523.45
1285 0 56.1436 12.0584 677 63.2806 1063.24 523.021
1286 0 55.1665 10.9124 602 65.4169 1063.58 521.527
1287 0 58.0822 11.3288 658 64.3207 1063.82 521.506
1288 0 59.0925 11.372 672 64.3452 1062.82 520.147
1289 0 62.0893 10.8714 675 65.1926 1063.22 517.384
1290 0 64.2624 12.6512 813 62.1993 1063.13 517.486
1291 0 67.2843 13.2274 890 61.8742 1063.74 516.564
1292 0 66.2212 11.4163 756 64.8889 1062.57 513.917
1293 0 70.1702 13.624 956 61.5544 1063.25 514.354
1294 0 73.2649 12.1477 890 62.9786 1062.94 513.299
1295 0 76.136 11.926 908 63.2115 1062.05 513.71
1296 0 77.1324 11.5386 890 64.3382 1063.15 514.392
1297 0 79.1508 12.7731 1011 63.2849 1063.04 510.313
1298 0 82.2214 12.7217 1046 63.4971 1062.4 508.431
1299 1 43.0865 11.8134 509 61.8075 1063.05 530.281
1300 0 42.1094 10.0928 425 65.2565 1063.46 528.125
1301 0 44.0627 9.8042 432 65.3773 1063.91 530.002
1302 0 44.0245 10.8122 476 64.834 1063.83 529.321
1303 0 47.0224 11.6115 546 64.4762 1063.78 527.562
1304 0 47.0456 11.9884 564 63.2004 1063.18 527.516
1305 0 48.0133 12.3716 594 63.6886 1062.96 525.904
1306 0 52.032 12.1079 630 63.1333 1063.76 526.613
1307 0 52.0534 12.833 668 62.8488 1063.2 527.067
1308 0 52.0649 11.1976 583 64.7221 1063.43 526.573
1309 0 55.013 12.906 710 62.9803 1063.29 521.392
1310 0 59.0479 11.787 696 62.819 1064.38 523.346
1311 0 56.0703 11.7531 659 64.3202 1064.06 522.574
1312 0 57.0362 11.7469 670 64.2642 1063.64 520.539
1313 0 60.0388 10.8263 650 63.7923 1063.72 523.648
1314 0 62.0359 11.7029 726 63.5689 1063.73 520.602
1315 0 62.0271 10.9952 682 65.0059 1064.11 517.579
1316 0 68.1517 13.6167 928 60.8653 1064.44 517.86
1317 0 68.1255 11.7577 801 63.4345 1063.58 516.914
1318 0 71.1099 13.1627 936 62.0951 1062.99 514.548
1319 0 72.0737 12.4178 895 63.2078 1063.23 514.485
1320 0 76.0932 13.5755 1033 60.9942 1062.99 515.161
1321 0 77.0812 11.1311 858 64.5886 1063.75 512.963
1322 0 80.0909 10.7003 857 64.6394 1063.71 512.368
1323 1 40.0572 9.28673 372 64.7312 1062.95 529.874
1324 0 42.0534 8.75078 368 64.8125 1062.91 530.206
1325 0 44.0491 10.1251 446 63.8117 1062.65 528.785
1326 0 46.1447 10.9872 507 62.8245 1062.62 526.191
1327 0 47.0591 11.3474 534 62.4476 1062.9 527.054
1328 0 49.0371 10.5022 515 63.2699 1062.62 526.186
1329 0 49.033 9.48341 465 63.8323 1062.97 528.441
1330 0 52.0229 11.4949 598 61.8328 1064.04 526.55
1331 0 51.0707 12.3554 631 61.5658 1063.52 523.532
1332 0 53.0626 11.7597 624 61.3125 1063.63 526.793
1333 0 52.0508 10.5282 548 64.1496 1064.01 524.155
1334 0 56.0671 12.0926 678 61.9572 1064.04 523.462
1335 0 57.0863 9.8973 565 65.1841 1063.65 519.492
1336 0 61.0209 11.7665 718 62.3649 1064.16 520.994
1337 0 61.1008 11.5547 706 62.1856 1063.22 523.613
1338 0 61.0666 11.2336 686 63.6239 1063.47 520.184
1339 0 66.1123 12.872 851 61.1398 1063.31 516.914
1340 0 66.0739 10.458 691 64.6295 1062.93 517.661
1341 0 69.0254 12.8214 885 61.6 1063.73 515.941
1342 0 71.1161 12.6413 899 61.8176 1063.87 514.84
1343 0 73.1126 11.8311 865 62.8867 1063.56 514.595
1344 0 77.1325 11.5515 891 63.1762 1063.92 513.905
1345 0 75.0658 10.0845 757 66.2668 1063.54 510.803
1346 0 79.0328 12.2481 968 63.1612 1063.07 508.998
1347 0 82.1651 11.8177 971 64.4016 1062.42 506.177
1348 1 43.0958 11.486 495 62.6768 1062.86 530.178
1349 0 43.2181 10.6437 460 64.8261 1064.11 529.63
1350 0 45.0604 11.4513 516 64.8954 1063.8 527.126
1351 0 47.1169 10.527 496 66.127 1064.22 527.371
1352 0 51.0541 12.0265 614 63.355 1063.77 526.775
1353 0 49.0452 11.418 560 65.3946 1063.87 524.714
1354 0 52.0548 11.4495 596 64.9144 1063.25 526.409
1355 0 53.0467 12.3853 657 64.14 1062.77 522.915
1356 0 54.0573 10.9143 590 65.9678 1063.12 523.33
1357 0 56.1104 10.3189 579 66.8238 1063.21 525.332
1358 0 58.0241 12.3225 715 64.1315 1063.5 523.123
1359 0 61.0482 12.3673 755 64.0781 1063.61 520.744
1360 0 62.0585 12.2465 760 64.2645 1064.01 520.307
1361 0 63.1158 12.184 769 64.844 1064.29 518.766
1362 0 65.1164 11.8403 771 65.1881 1063.6 520.118
1363 0 68.0123 12.9829 883 63.6342 1063.47 517.735
1364 0 70.0606 12.4178 870 64.0966 1063.11 518.263
1365 0 72.0964 12.9271 932 63.8509 1064.01 514.237
1366 0 74.2078 12.0203 892 64.5572 1063.02 516.084
1367 1 40.1094 10.5461 423 65.0449 1063.54 532.773
1368 0 39.0824 10.9 426 66.2653 1063.75 530.357
1369 0 42.0601 12.3157 518 63.5985 1064.08 531.114
1370 0 44.0496 11.2146 494 65.2976 1064.27 531.221
1371 0 43.0496 11.7074 504 66.2163 1064.17 529.605
1372 0 46.0078 11.3242 521 66.428 1063.98 527.238
1373 0 47.0482 12.9442 609 64.8621 1064.41 527.097
1374 0 49.0398 14.2333 698 62.9542 1064.56 528.265
1375 0 48.0601 9.65459 464 68.9935 1063.15 529.194
1376 0 51.0196 13.9946 714 64.0336 1063.57 523.958
1377 0 51.0419 12.3036 628 66.2118 1064.61 525.115
1378 0 54.0217 12.3284 666 66.2312 1063.88 524.333
1379 0 55.0172 11.1965 616 67.4692 1064.54 523.888
1380 0 56.0816 12.4283 697 66.1894 1064.19 522.933
1381 0 59.0624 12.563 742 65.7857 1063.74 523.04
1382 0 62.051 11.3777 706 67.5496 1064.33 522.2
1383 0 63.0583 13.4955 851 64.6722 1063.37 520.544
1384 0 65.0585 13.4494 875 64.3886 1063.42 519.35
1385 0 66.0691 11.8512 783 67.1341 1064.25 517.012
1386 0 69.161 14.0975 975 63.9723 1063.85 516.489
1387 0 72.084 14.9548 1078 62.3442 1063.95 517.065
1388 0 74.1356 13.2055 979 64.9081 1063.65 515.611
1389 0 73.0655 11.3186 827 68.3857 1063.59 513.768
1390 0 79.0881 13.5419 1071 64.5322 1063.43 511.926
1391 0 82.1585 13.474 1107 64.0072 1063.66 512.875
1392 1 44.0544 10.714 472 67.1271 1063.66 529.634
1393 0 46.0211 12.516 576 64.2569 1063.74 529.054
1394 0 47.0453 11.5633 544 66.4651 1063.58 527.761
1395 0 47.0465 13.0084 612 65.0408 1063.97 528.377
1396 0 50.1382 12.286 616 64.8604 1063.59 527.709
1397 0 49.0352 12.2157 599 66.1653 1064.41 525.998
1398 0 51.0515 12.4776 637 65.9184 1064.08 524.874
1399 0 53.0215 11.8631 629 65.7568 1063.66 525.374
1400 0 54.1644 12.2774 665 65.7233 1062.94 524.367
1401 0 58.0947 13.805 802 63.0424 1064.17 523.506
1402 0 59.0646 12.7657 754 64.8024 1063.16 522.622
1403 0 60.1805 11.8809 715 66.3566 1064.17 520.631
1404 0 63.1516 12.6996 802 64.4663 1062.44 520.046
1405 0 65.284 12.4686 814 64.8858 1062.55 520.109
1406 0 66.0703 12.3202 814 65.0848 1063.11 519.262
1407 0 69.0867 14.6917 1015 62.2956 1063.82 518.601
1408 0 70.0662 12.8022 897 65.2397 1063.63 517.104
1409 0 72.0795 13.5683 978 64.7362 1063.04 514.517
1410 0 74.1729 13.1719 977 65.1842 1063.77 515.538
1411 0 76.1178 12.4807 950 66.6568 1063.75 513.933
1412 0 78.0755 11.7579 918 68.5065 1064.26 511.926
1413 0 82.1114 13.299 1092 66.5989 1064.33 510.855
1414 0 85.106 14.7111 1252 64.9177 1063.86 509.342
1415 0 86.0736 13.7789 1186 66.9907 1064.37 506.817
1416 0 90.057 13.0917 1179 67.7388 1064.56 509.203
1417 0 91.1942 12.5776 1147 69.2537 1064.48 505.188
1418 0 96.1828 13.7447 1322 67.5983 1064.63 505.132
1419 1 51.082 11.5305 589 68.7182 1064.15 528.178
1420 0 52.0345 12.5302 652 68.339 1064.54 526.528
1421 0 55.0326 10.6119 584 70.6866 1064.48 526.038
1422 0 56.0163 12.1393 680 68.9426 1064.57 526.2
1423 0 57.069 12.3885 707 69.0481 1064.62 524.18
1424 0 57.0298 13.3965 764 67.7984 1063.9 523.444
1425 0 57.0298 12.2743 700 133.444 1064.02 524.441
1426 0 61.0896 12.2279 747 70.3668 1064.46 520.386
1427 0 63.0665 11.4482 722 71.0734 1064.52 520.616
1428 0 65.0885 11.6303 757 71.066 1064.2 517.789
1429 0 69.107 12.0393 832 69.0469 1064.6 521.132
1430 0 69.0961 11.6215 803 70.8008 1064.53 518.04
1431 0 72.1093 11.6351 839 70.2646 1064.08 515.626
1432 0 75.0397 12.1536 912 69.7939 1064.28 516.498
1433 0 77.0785 11.0926 855 71.9427 1064.26 513.86
1434 0 81.08 12.9008 1046 68.9656 1063.79 511.779
1435 0 83.0947 14.0081 1164 67.8007 1064.06 508.236
1436 0 85.0639 11.603 987 71.1712 1064.11 509.425
1437 1 46.0687 12.655 583 65.6192 1064.22 531.209
1438 0 44.0565 11.0313 486 69.6379 1064.21 529.354
1439 0 49.0253 12.4222 609 66.2447 1063.82 529.81
1440 0 48.0312 11.4509 550 69.3455 1064.23 527.298
1441 0 50.0395 11.0113 551 70.2958 1063.99 525.98
1442 0 50.0382 12.0508 603 69.0116 1064.15 525.559
1443 0 53.1257 12.9692 689 67.3062 1063.62 523.634
1444 0 55.0455 12.6441 696 67.7816 1063.61 522.704
1445 0 57.0388 11.5886 661 68.4917 1064.39 523.003
1446 0 59.0315 11.9767 707 68.2122 1063.92 520.685
1447 0 61.1818 11.5884 709 68.3357 1064.12 521.348
1448 0 63.0531 12.434 784 67.1722 1063.91 518.304
1449 0 63.0497 12.7519 804 67.6741 1063.8 516.818
1450 0 69.0475 12.3393 852 67.608 1063.91 518.222
1451 0 69.0673 13.0018 898 67.2617 1063.69 514.661
1452 0 73.0552 11.7993 862 68.4977 1064.12 515.471
1453 0 75.0304 13.128 985 66.5015 1063.33 512.026
1454 0 78.0801 12.3463 964 67.3838 1063.68 512.621
1455 0 79.0686 11.0158 871 69.7405 1063.37 507.669
1456 0 82.085 13.2424 1087 66.1647 1064.07 508.905
1457 0 86.1265 11.9243 1027 67.6904 1063.54 507.31
1458 0 88.049 11.5617 1018 68.3458 1063.52 504.976
1459 0 92.1391 13.1215 1209 66.0554 1063.17 504.928
1460 0 95.2235 11.8248 1126 67.1945 1063.84 503.983
1461 1 49.0847 8.82149 433 68.7367 1064.04 524.656
1462 0 50.0588 10.168 509 67.4696 1064.01 524.014
1463 0 51.0608 10.3798 530 67.6679 1063.9 523.14
1464 0 51.0815 10.5909 541 67.6229 1064.26 523.763
1465 0 54.1018 10.0736 545 68.1835 1063.18 522.464
1466 0 56.155 10.3998 584 66.8116 1063.97 523.784
1467 0 60.1414 11.3399 682 65.7287 1063.55 519.658
1468 0 61.1521 12.5098 765 64.0588 1063.33 518.506
1469 0 63.1401 12.0051 758 64.3602 1063.47 518.053
1470 0 64.1411 10.7108 687 66.524 1063.62 517.555
1471 0 67.0916 11.5812 777 64.8443 1063.52 515.153
1472 0 68.2561 11.9696 817 64.5006 1064.15 514.196
1473 0 69.1966 10.9398 757 66.004 1064.18 514.042
1474 0 72.2122 10.5938 765 66.1961 1063.91 514.749
1475 0 74.1114 11.3073 838 65.2685 1063.21 510.634
1476 0 76.252 10.8587 828 66.2802 1063.17 511.96
1477 0 76.0845 11.1586 849 66.1896 1063.02 508.801
1478 0 81.1952 10.5425 856 66.5794 1063.46 509.782
1479 0 84.2344 11.6817 984 65.3465 1063.6 508.251
1480 0 85.286 11.3383 967 66.5894 1063.35 506.639
1481 0 89.2724 11.7618 1050 65.7867 1062.9 504.288
1482 0 92.1767 11.76 1084 65.5166 1063.02 506.281
1483 1 50.088 10.3618 519 65.4721 1062.57 526.765
1484 0 52.1218 11.6074 605 65.1074 1062.94 524.152
1485 0 53.099 9.83069 522 67.5996 1062.41 523.92
1486 0 56.1848 11.3554 638 65.9169 1063.02 524.335
1487 0 57.1103 11.4515 654 65.7554 1063.45 523.878
1488 0 60.0916 11.5158 692 65.8497 1063.11 522.228
1489 0 59.0501 11.3802 672 67.878 1062.97 519.432
1490 0 62.1504 11.3274 704 66.7812 1063.04 521.558
1491 0 64.22 11.2893 725 67.0317 1062.89 520.171
1492 0 64.1683 12.14 779 66.7908 1063.32 518.28
1493 0 66.134 12.0815 799 66.5857 1063.31 515.543
1494 0 69.1042 12.2279 845 66.5207 1063.59 514.972
1495 0 71.1374 10.8522 772 68.3718 1063.27 513.29
1496 0 74.19 12.5354 930 65.6043 1063.16 513.69
1497 0 78.0584 13.4515 1050 63.9543 1063.42 512.33
1498 0 77.1442 11.0831 855 67.814 1063.77 512.082
1499 0 82.0807 14.3639 1179 62.7812 1063.8 511.076
1500 0 85.1675 12.3991 1056 65.429 1062.61 508.008
1501 0 86.0738 11.9084 1025 66.7688 1063.45 505.881
1502 0 87.1306 10.7999 941 68.8884 1063.49 504.888
1503 1 46.0798 10.9592 505 65.5446 1063.1 526.242
1504 0 49.054 9.88705 485 66.466 1063.08 524.19
1505 0 51.1978 11.3091 579 64.3541 1062.95 526.373
1506 0 51.1943 9.68858 496 68.6452 1063.31 522.774
1507 0 53.1499 11.3453 603 65.6468 1063.81 521.471
1508 0 57.0397 13.3241 760 62.6947 1063.32 520.559
1509 0 54.0641 10.0991 546 68.2967 1063.35 520.289
1510 0 57.0857 10.7032 611 66.8511 1063.85 520.935
1511 0 62.1648 11.3087 703 64.7809 1063.58 520.888
1512 0 61.0857 11.9995 733 64.7681 1064.17 519.138
1513 0 63.031 12.4066 782 64.0652 1063.36 517.864
1514 0 66.2247 11.3553 752 65.6011 1062.75 517.388
1515 0 69.094 12.7073 878 63.9191 1063.29 515.744
1516 0 69.0333 11.1106 767 66.2282 1063.93 514.493
1517 0 73.0737 11.6595 852 65.5094 1063.36 516.293
1518 0 76.2422 12.5914 960 64.5812 1064.11 512.758
1519 0 77.1442 11.122 858 66.9184 1063.7 512.143
1520 1 41.0436 8.77116 360 67.2 1063.24 528.539
1521 0 43.0471 9.4083 405 64.9037 1063.97 529.264
1522 0 45.0187 11.2398 506 62.9644 1063.77 528.741
1523 0 46.0473 10.8584 500 64.772 1063.8 526.962
1524 0 48.1082 11.8691 571 63.4028 1064.13 526.974
1525 0 48.0327 11.5338 554 65.0975 1063.59 525.81
1526 0 50.2051 10.6961 537 65.1937 1064.12 527.372
1527 0 51.0685 11.9056 608 64.2385 1063.45 525.512
1528 0 52.1226 12.8543 670 63.1015 1062.82 524.531
1529 0 54.1338 13.7252 743 62.1225 1062.99 523.217
1530 0 52.0498 11.2777 587 66.2504 1063.61 523.639
1531 0 56.3013 11.2253 632 65.2753 1063.31 523.747
1532 0 58.1483 11.5739 673 65.5052 1063.71 521.958
1533 0 61.073 12.0675 737 64.5278 1063.1 520.825
1534 0 62.1054 12.4466 773 63.7244 1062.99 521.228
1535 0 63.1136 13.0083 821 63.3216 1062.94 517.767
1536 0 66.0585 11.7623 777 63.9356 1062.86 519.664
1537 0 64.1685 10.7218 688 66.6715 1062.53 516.11
1538 0 69.078 12.1312 838 63.3377 1062.58 519.072
1539 0 72.0741 11.7518 847 64.2408 1062.12 515.745
1540 0 72.0798 11.7509 847 65.0413 1061.75 513.476
1541 0 76.0985 13.6796 1041 61.5014 1062.15 512.432
1542 0 77.1132 12.0083 926 64.1242 1062.42 511.571
1543 0 79.1819 12.4145 983 63.4527 1062.23 510.878
1544 0 81.1259 13.9413 1131 62.0115 1062.52 512.018
1545 0 84.1629 13.8897 1169 61.8169 1063 507.685
1546 1 44.0834 10.0945 445 63.8809 1063.34 527.971
1547 0 45.079 10.1156 456 64.5351 1062.23 528.717
1548 0 46.0607 9.96512 459 63.9368 1062.76 528.786
1549 0 48.1196 11.4922 553 62.6365 1063.14 526.593
1550 0 52.0863 11.7113 610 60.4623 1062.85 528.52
1551 0 50.0924 11.4389 573 62.4625 1062.91 526.106
1552 0 51.0669 10.731 548 64.0055 1063.09 523.843
1553 0 55.0668 11.2954 622 62.3376 1062.61 525.608
1554 0 57.0454 12.9371 738 60.6531 1063.32 523.848
1555 0 55.0454 11.6631 642 63.4533 1062.95 521.343
1556 0 59.0376 11.8568 700 62.1586 1063.18 522.359
1557 0 61.0324 11.8953 726 61.9986 1063.04 520.738
1558 0 63.0736 12.1445 766 61.8786 1063.27 518.257
1559 0 64.0597 11.38 729 63.2277 1063.29 519.134
1560 0 64.0474 10.7889 691 64.0492 1062.59 518.506
1561 0 67.0802 11.2701 756 63.0436 1063.57 517.288
1562 0 71.0356 11.5576 821 62.3264 1063.45 514.686
1563 0 71.0637 12.2566 871 61.6521 1063.2 514.199
1564 0 74.0563 12.3149 912 61.5614 1063.27 510.683
1565 1 39.1263 10.4022 407 62.2899 1063.79 529.297
1566 0 39.0185 9.99526 390 63.2333 1063.68 527.492
1567 0 41.0952 9.31981 383 62.7206 1062.58 529.629
1568 0 42.0234 10.399 437 62.54 1062.82 527.21
1569 0 45.0509 10.2329 461 62.1236 1062.36 524.705
1570 0 44.1255 9.29169 410 63.2707 1062.67 524.71
1571 0 48.0891 11.1668 537 60.5344 1062.89 524.786
1572 0 48.0576 9.80075 471 62.4586 1062.98 522.397
1573 0 50.0834 10.9817 550 61.1673 1063.55 523.233
1574 0 51.0359 11.3841 581 61.0654 1063.84 522.926
1575 0 52.0583 11.6408 606 60.2393 1063.16 521.597
1576 0 55.0826 11.6008 639 60.4742 1062.85 522.048
1577 0 55.0669 11.2954 622 61.3199 1062.96 520.711
1578 0 55.1251 10.0862 556 63.0953 1063.16 519.647
1579 0 57.1352 10.869 621 62.0467 1062.46 518.887
1580 0 59.0916 10.5768 625 62.2848 1062.78 520.002
1581 0 59.0627 8.90579 526 64.8859 1062.97 517.928
1582 0 62.0883 11.0488 686 61.7303 1063.52 518.838
1583 0 65.0821 10.0642 655 63.2855 1063.02 517.243
1584 0 67.0456 9.85895 661 62.9289 1062.57 516.682
1585 0 69.1133 11.7199 810 60.9074 1063.18 514.188
1586 0 72.1412 10.8676 784 61.4043 1063.5 509.69
1587 0 71.0785 9.76386 694 63.2075 1062.83 509.935
1588 1 37.0518 8.17775 303 63.1782 1062.61 529.495
1589 0 40.0679 11.1062 445 60.5528 1062.72 526.854
1590 0 41.1148 9.75319 401 62.1721 1063.01 526.441
1591 0 42.0411 8.56305 360 63.5056 1062.5 529.222
1592 0 43.0276 10.807 465 61.6624 1062.78 527.325
1593 0 43.0343 9.29491 400 63.8775 1063.21 524.678
1594 0 46.0323 13.8816 639 58.4225 1062.68 525.629
1595 0 49.0317 13.0936 642 58.9159 1062.78 525.523
1596 0 49.0728 9.88327 485 63.9526 1063.09 523.829
1597 0 50.0328 10.753 538 62.9405 1062.68 522.89
1598 0 51.047 12.6354 645 61.3442 1063.27 521.921
1599 0 53.1062 12.4844 663 61.9985 1062.98 521.538
1600 0 54.0475 10.9163 590 64.1678 1063.04 521.339
1601 0 55.0632 11.0055 606 64.731 1063.6 520.711
1602 0 57.0769 12.0714 689 63.2192 1063.48 519.785
1603 0 62.0354 14.2338 883 59.3477 1063.22 521.333
1604 0 63.1162 12.4532 786 62.3626 1062.06 519.73
1605 0 64.1941 12.5713 807 62.1388 1062.04 520.895
1606 0 64.0705 11.8463 759 64.4269 1062.18 518.578
1607 0 68.0376 13.8747 944 62.0572 1062.1 516.285
1608 0 68.1184 12.3462 841 64.4721 1061.91 516.478
1609 0 71.0325 13.7683 978 62.4877 1062.74 515.742
1610 0 74.078 13.3778 991 63.2654 1062.29 514.876
1611 0 75.1718 14.4735 1088 62.307 1062.64 511.176
1612 0 78.0872 13.4593 1051 63.7716 1061.61 512.981
1613 0 79.0527 11.992 948 66.1002 1062.07 511.854
1614 0 81.0744 13.4321 1089 64.6795 1062.27 510.511
1615 0 85.1142 13.2645 1129 64.9114 1062.81 508.536
1616 0 86.1063 14.4124 1241 64.0637 1061.88 506.301
1617 0 89.1747 14.0847 1256 65.0812 1062.73 504.136
1618 1 46.0704 10.9615 505 66.8911 1062.94 528.053
1619 0 48.0626 10.7776 518 66.4981 1062.93 527.961
1620 0 50.0378 10.1323 507 66.9803 1063.41 527.483
1621 0 50.0649 10.5064 526 68.5818 1063.68 525.116
1622 0 50.0588 10.8073 541 69.1978 1063.55 523.808
1623 0 52.0138 11.1509 580 67.4155 1063.35 526.105
1624 0 54.0337 11.0487 597 68.1038 1063.34 521.802
1625 0 58.1376 11.49 668 66.9506 1063.46 522.012
1626 0 60.0891 13.1804 792 64.4394 1063.15 519.974
1627 0 61.0601 14.3138 874 62.9153 1063.51 521.419
1628 0 62.0444 11.8947 738 66.0894 1063.62 518.657
1629 0 63.1545 12.2557 774 65.8876 1063.56 517.882
1630 0 66.058 13.4125 886 64.4154 1062.89 517.863
1631 0 68.0985 13.3483 909 63.9945 1063.12 517.48
1632 0 68.0906 12.4393 847 66.0401 1062.94 514.1
1633 0 71.0517 12.0616 857 65.9732 1063.17 516.188
1634 0 74.087 12.5123 927 65.0766 1063.1 515.271
1635 0 77.08 13.5573 1045 63.6861 1063.14 514.399
1636 0 79.0958 14.2738 1129 63.2976 1062.6 512.666
1637 0 82.0616 13.1243 1077 64.9564 1062.62 509.217
1638 0 83.0367 12.0549 1001 66.8052 1063.05 510.63
1639 0 86.0655 13.0482 1123 66.0187 1062.65 508.487
1640 0 88.0999 12.4064 1093 66.8664 1063.06 508.516
1641 0 92.0798 13.282 1223 65.5486 1062.57 506.361
1642 0 93.056 13.1534 1224 66.3717 1062.41 502.487
1643 0 96.092 13.102 1259 66.3709 1062.14 503.877
1644 0 98.1705 13.5377 1329 66.0677 1062.74 501.954
1645 1 54.1355 11.1202 602 67.1379 1063.13 523.41
1646 0 54.1047 11.8844 643 66.3593 1062.28 521.779
1647 0 56.0924 13.6739 767 64.4394 1063.06 523.429
1648 0 61.0558 12.4968 763 65.5334 1062.73 520.586
1649 0 60.0849 12.6654 761 66.0447 1062.81 520.719
1650 0 62.0387 14.2169 882 64.0034 1062.82 519.542
1651 0 64.0517 13.9263 892 64.5673 1062.5 518.854
1652 0 65.0715 12.9704 844 65.9017 1062.34 517.643
1653 0 67.0575 11.9897 804 67.5833 1062.16 516.664
1654 0 70.1081 12.8658 902 66.1474 1062.52 517.416
1655 0 71.0567 12.2578 871 67.6613 1063.1 513.382
1656 0 75.0727 14.3994 1081 64.7142 1062.69 513.172
1657 0 78.1349 12.5936 984 66.7439 1062.58 513.72
1658 0 81.1729 14.0195 1138 65.0255 1062.6 512.569
1659 0 81.0878 12.32 999 67.0861 1062.21 511.041
1660 0 85.108 13.4652 1146 66.1396 1062.71 508.48
1661 0 88.1672 13.4631 1187 65.6108 1062.46 506.556
1662 0 90.1006 12.4638 1123 66.7596 1062.36 505.409
1663 0 94.1448 13.4792 1269 66.0678 1062.19 503.737
1664 0 96.2526 13.4334 1293 66.0263 1062.54 503.34
1665 1 51.0349 12.5404 640 64.7516 1062.76 526.15
1666 0 52.0411 10.9913 572 67.4161 1063.3 522.858
1667 0 51.1423 11.1258 569 67.6063 1063.16 524.176
1668 0 54.0622 11.0058 595 67.4655 1063.12 524.287
1669 0 52.0961 11.2676 587 68.1175 1063.32 522.871
1670 0 56.0436 11.2769 632 67.5775 1063.59 521.457
1671 0 58.0724 13.1215 762 65.7992 1062.81 519.64
1672 0 60.0961 11.2819 678 66.4705 1062.88 520.879
1673 0 62.2138 11.5087 716 66.3952 1063.29 516.603
1674 0 67.109 13.0832 878 63.5501 1063.6 518.98
1675 0 67.0951 12.9369 868 64.8802 1062.84 514.771
1676 0 67.0906 10.8659 729 67.3841 1062.23 512.126
1677 0 68.1566 12.5153 853 65.7714 1062.73 510.134
1678 0 71.1687 11.0161 784 67.5102 1062.04 508.004
1679 0 75.071 11.4292 858 67.1002 1062.88 507.972
1680 0 76.1451 11.2548 857 67.119 1062.68 508.449
1681 0 78.1363 12.683 991 65.1049 1062.68 502.137
1682 0 83.109 10.6487 885 67.5073 1062.96 502.542
1683 0 86.1852 12.7632 1100 65.11 1062.46 500.074
1684 0 86.1975 10.5571 910 68.3582 1062.77 500.013
1685 0 94.1408 12.5238 1179 65.1951 1063.03 503.062
1686 0 97.0651 13.0428 1266 64.2686 1063.02 497.752
1687 1 48.1695 12.0201 579 63.7288 1063.39 524.563
1688 0 48.0592 11.4442 550 64.7018 1063.04 523.318
1689 0 51.1559 11.3574 581 64.062 1062.51 522.909
1690 0 54.0894 11.9432 646 63.7694 1062.85 522.935
1691 0 53.0901 11.0755 588 65.0782 1062.26 522.446
1692 0 54.1042 11.1267 602 65.5914 1062.49 520.322
1693 0 58.0737 12.0364 699 63.8598 1062.39 519.396
1694 0 61.0698 13.0834 799 62.4305 1062.19 518.002
1695 0 61.2542 12.5706 770 64.0675 1063.05 517.49
1696 0 63.1112 11.963 755 63.9126 1062.57 516.294
1697 0 65.0947 11.5524 752 65.3617 1062.89 516.359
1698 0 66.111 12.0404 796 65.0038 1062.84 513.077
1699 0 69.1801 11.1304 770 65.3078 1062.46 513.061
1700 0 72.0791 11.2377 810 65.1136 1062.41 514.511
1701 0 77.2381 12.8952 996 63.1817 1062.02 509.868
1702 0 79.1171 11.9064 942 64.2845 1062.68 511.303
1703 0 82.2378 11.9896 986 63.8702 1062.19 511.085
1704 0 84.0518 12.3138 1035 63.6879 1061.88 507.982
1705 0 88.0879 12.3513 1088 63.1461 1061.69 507.653
1706 0 90.0925 11.7879 1062 64.0094 1062.71 505.345
1707 0 93.2472 12.2899 1146 63.3709 1062.18 504.453
1708 0 95.0608 12.4236 1181 63.0872 1062.41 502.727
1709 0 99.1776 14.3077 1419 60.7992 1062.03 498.846
1710 1 52.0786 10.3881 541 61.2939 1063.01 525.065
1711 0 52.048 11.3933 593 61.1298 1062.88 523.813
1712 0 53.1418 9.69106 515 63.066 1061.91 524.577
1713 0 55.1152 11.6302 641 61.0359 1062.31 522.24
1714 0 57.1147 11.6432 665 60.794 1062.17 520.077
1715 0 59.0687 12.003 709 60.189 1062.29 521.753
1716 0 61.1745 10.4619 640 62.025 1062.88 520.598
1717 0 62.0856 10.8399 673 62.0802 1061.94 520.239
1718 0 64.1745 11.5155 739 60.977 1062.3 515.363
1719 0 67.2011 10.9076 733 61.6562 1061.77 513.744
1720 0 69.1223 12.0077 830 60.4181 1062.05 515.104
1721 0 71.1474 10.5556 751 62.0413 1062.44 516.81
1722 0 73.1817 11.7242 858 60.803 1061.78 512.04
1723 0 75.1755 11.094 834 61.9928 1062.48 512.041
1724 0 80.1664 12.3992 994 60.3632 1062.81 510.529
1725 0 82.1064 13.4094 1101 59.4323 1062.75 509.635
1726 0 84.1277 11.328 953 61.6002 1062.59 509.921
1727 0 88.1606 12.7154 1121 60.1989 1062.77 508.097
1728 0 87.0935 11.0456 962 62.8545 1062.38 504.3
1729 0 92.1223 12.4834 1150 61.4244 1062.07 502.304
1730 0 95.1424 10.9835 1045 62.7148 1062.47 504.731
1731 1 52.0828 7.46888 389 63.8303 1062.89 527.26
1732 0 55.0968 10.055 554 61.296 1062.94 525.69
1733 0 57.1235 10.9237 624 60.8285 1062.92 522.269
1734 0 57.1274 10.9405 625 61.4656 1062.88 521.022
1735 0 57.091 7.164 409 65.5501 1062.2 519.87
1736 0 62.0394 11.2993 701 60.5021 1062.76 520.562
1737 0 65.1129 11.0577 720 60.6694 1062.82 519.056
1738 0 65.1185 11.9782 780 59.1628 1062.98 520.568
1739 0 64.1449 9.79033 628 62.6847 1062.95 516.108
1740 0 72.2385 13.3032 961 57.3632 1063.06 518.605
1741 0 71.1081 10.2379 728 61.2775 1063.03 518.066
1742 0 74.112 11.4556 849 60.212 1062.53 515.004
1743 0 74.2003 10.6469 790 61.4519 1062.59 512.635
1744 0 77.2257 10.7218 828 60.8092 1062.25 511.273
1745 0 78.1896 8.26197 646 63.695 1062.27 511.567
1746 0 82.107 10.4376 857 60.748 1061.83 510.644
1747 0 86.1713 10.6764 920 61.0728 1061.9 507.298
1748 0 90.1597 12.7773 1152 57.9514 1062.1 506.49
1749 0 93.1127 11.8781 1106 59.0696 1061.99 504.416
1750 0 92.194 10.6948 986 60.9016 1061.65 503.208
1751 0 99.1257 11.2282 1113 59.9829 1062.64 504.631
1752 1 50.0179 8.1171 406 61.0296 1062.58 526.01
1753 0 52.0927 9.80943 511 59.7573 1062.79 525.413
1754 0 54.0392 10.1778 550 59.4327 1062.42 522.213
1755 0 56.0553 12.2379 686 57.4198 1062.28 520.913
1756 0 56.0906 10.697 600 59.27 1063.47 520.852
1757 0 60.1258 12.3574 743 57.0538 1062.45 519.682
1758 0 60.0822 11.4343 687 58.4192 1062.59 515.33
1759 0 62.0659 11.085 688 58.9956 1062.56 516.362
1760 0 64.079 12.7031 814 57.1843 1061.8 517.629
1761 0 68.0787 12.3093 838 57.1504 1062.35 515.806
1762 0 66.0648 10.4594 691 59.877 1062.44 515.376
1763 0 72.2337 11.9058 860 57.3779 1062.84 513.606
1764 0 72.115 13.3675 964 56.5757 1062.37 512.079
1765 0 74.1195 11.5624 857 58.4504 1062.07 511.763
1766 0 77.1224 10.9955 848 58.7241 1061.87 508.935
1767 0 80.2029 12.1442 974 56.8419 1062.08 512.108
1768 0 85.0677 12.3901 1054 56.2324 1062.36 508.371
1769 0 84.1796 11.9863 1009 57.4589 1063.08 504.83
1770 0 89.223 11.7122 1045 57.1215 1063.14 505.783
1771 0 89.0896 9.68688 863 59.7404 1062.2 504.3
1772 0 92.227 10.0621 928 59.2575 1061.72 505.455
1773 1 48.04 10.1374 487 57.6119 1061.82 525.265
1774 0 50.0498 10.8292 542 57.1587 1061.76 526.194
1775 0 48.146 7.56034 364 61.3407 1061.64 523.896
1776 0 51.0554 10.0283 512 58.8828 1061.72 522.385
1777 0 52.0827 11.1553 581 57.7487 1061.64 523.43
1778 0 56.1694 10.7354 603 57.9171 1061.93 520.056
1779 0 55.0631 10.7876 594 58.5842 1062.5 518.663
1780 0 58.1329 11.2157 652 57.5046 1062.11 519.592
1781 0 61.1008 11.1455 681 57.8355 1062.65 518.015
1782 0 61.0784 10.9859 671 57.3428 1062.25 516.404
1783 0 65.2031 11.3645 741 56.5965 1062.88 515.765
1784 0 65.162 10.2514 668 57.7216 1062.82 513.422
1785 0 68.0504 10.551 718 57.5947 1062.53 514.819
1786 0 74.0669 13.6228 1009 54.0813 1062.11 511.157
1787 0 75.0567 10.6053 796 57.24 1062.88 513.42
1788 0 76.0932 11.2494 856 56.8762 1062.13 507.827
1789 0 78.124 11.4177 892 56.7657 1062.41 506.888
1790 0 82.1637 12.1221 996 55.7299 1062.74 506.557
1791 0 84.1927 10.3334 870 58.1736 1062.41 502.869
1792 0 90.1777 12.6528 1141 55.5863 1062.74 503.22
1793 0 91.0778 10.5624 962 57.4408 1062.58 503.834
1794 0 94.2503 10.2175 963 58.4174 1062.3 504.666
1795 1 52.0512 11.2005 583 55.1184 1062.97 524.676
1796 0 49.0294 7.87282 386 59.8342 1062.6 520.342
1797 0 54.1441 10.1396 549 56.7523 1062.72 522.124
1798 0 56.1508 13.5706 762 53.0276 1062 522.055
1799 0 57.1192 11.1871 639 55.9797 1061.52 517.934
1800 0 58.0349 9.82167 570 57.1053 1061.49 519.428
1801 0 60.0673 11.6369 699 56.0758 1062.04 517.927
1802 0 64.103 11.0759 710 56.6084 1061.64 515.766
1803 0 66.1073 11.2544 744 56.0349 1061.88 515.72
1804 0 64.0832 12.1561 779 55.3671 1061.96 515.395
1805 0 67.1042 10.8339 727 56.7717 1061.97 512.421
1806 0 71.0896 11.2956 803 55.7572 1061.82 513.655
1807 0 73.1126 11.1198 813 55.2534 1061.67 514.052
1808 0 75.1995 13.4044 1008 53.131 1061.34 512.054
1809 0 77.1033 10.8556 837 55.9558 1061.94 506.496
1810 0 79.3459 11.1411 884 55.4027 1062.06 509.266
1811 0 83.2544 12.672 1055 53.7081 1061.95 508.084
1812 0 84.1966 12.6015 1061 54.1169 1061.29 505.377
1813 0 89.1407 12.8897 1149 53.9739 1061.38 503.785
1814 1 47.1299 10.3756 489 55.229 1060.91 524.636
1815 0 47.0679 9.60315 452 56.2876 1060.88 522.945
1816 0 53.123 10.8239 575 54.3374 1061.62 526.007
1817 0 49.1258 9.52656 468 57.3825 1061.56 519.716
1818 0 53.1574 11.4942 611 54.527 1061.43 524.254
1819 0 56.124 13.0782 734 52.7997 1062.45 523.353
1820 0 56.133 10.9917 617 56.188 1062.17 519.515
1821 0 60.166 12.6816 763 53.3185 1062.25 519.891
1822 0 60.1472 12.087 727 54.9243 1062.36 517.139
1823 0 63.2079 10.5683 668 55.4835 1062.28 520.404
1824 0 65.1441 11.5897 755 55.155 1062.85 516.763
1825 0 67.1526 11.8983 799 54.5369 1062.73 517.379
1826 0 67.1685 10.5109 706 55.8187 1062.23 517.101
1827 0 71.1439 11.9195 848 54.6592 1062.37 514.045
1828 0 68.163 10.5189 717 56.0558 1061.6 513.102
1829 0 73.0617 11.4698 838 55.0549 1062.13 512.523
1830 0 75.4118 11.3112 853 55.231 1062.64 512.897
1831 0 76.174 9.37327 714 57.2423 1062.28 508.597
1832 0 81.2397 12.1615 988 54.8664 1061.48 508.431
1833 0 81.1265 10.8966 884 56.6244 1061.37 504.372
1834 0 87.1897 11.3546 990 55.6545 1062 507.11
1835 0 89.3405 11.7976 1054 55.9137 1061.5 502.269
1836 0 91.2981 10.1645 928 58.0496 1061.03 502.353
1837 0 96.2411 13.7052 1319 54.5125 1061.44 499.11
1838 0 98.2333 10.9942 1080 57.8074 1061.97 499.845
1839 1 49.152 7.75147 381 60.2362 1062.6 518.992
1840 0 50.0705 9.34683 468 59.1453 1062.36 518.658
1841 0 54.0987 10.2221 553 58.1212 1062.78 518.392
1842 0 55.1705 10.6397 587 57.9012 1062.07 519.17
1843 0 59.0578 11.0062 650 57.3 1062.66 518.238
1844 0 61.1099 12.6166 771 55.3995 1062.82 517.58
1845 0 62.166 11.1797 695 56.9036 1062.46 517.535
1846 0 64.4181 11.1459 718 56.9526 1062.26 516.235
1847 0 64.0983 10.3903 666 57.4414 1062.28 517.71
1848 0 69.1864 13.1818 912 55.2215 1062.32 514.888
1849 0 72.334 11.8202 855 56.4117 1062.39 513.097
1850 0 72.2541 12.982 938 55.0757 1062.39 511.591
1851 0 73.1798 10.7543 787 57.6315 1062.29 514.184
1852 0 77.2275 11.9646 924 56.303 1062.46 510.996
1853 0 78.1898 10.5001 821 57.9805 1062.39 511.755
1854 0 81.1452 11.1282 903 57.4784 1061.76 507.157
1855 0 81.1091 9.87559 801 59.0849 1062.17 503.182
1856 0 86.1582 10.8173 932 57.809 1062.53 503.576
1857 1 46.1172 9.97458 460 56.2783 1063.09 528.311
1858 0 46.1356 10.209 471 57.5839 1062.96 524.775
1859 0 49.0663 11.3724 558 56.3172 1062.85 523.599
1860 0 48.0765 10.1921 490 57.5367 1062.5 525.506
1861 0 52.0346 13.0682 680 55.0765 1061.79 523.103
1862 0 51.1641 11.5706 592 57.228 1062.37 523.269
1863 0 54.1385 8.55213 463 60.2441 1062.23 522.685
1864 0 57.2143 11.5356 660 56.9818 1061.75 521.224
1865 0 57.1046 12.1356 693 57.6364 1061.61 521.178
1866 0 58.1287 10.2015 593 59.9511 1062.33 519.128
1867 0 63.1194 12.3892 782 57.4783 1061.88 516.446
1868 0 63.1081 10.7593 679 59.5214 1061.46 517.856
1869 0 66.0567 10.9451 723 58.9848 1062.23 518.293
1870 0 69.4118 12.2169 848 58.2535 1062.1 515.111
1871 0 70.1993 11.6525 818 59.412 1061.86 513.111
1872 0 72.1735 12.0958 873 58.7228 1061.81 514.837
1873 0 73.1657 12.8886 943 58.8526 1062.1 510.409
1874 0 74.1053 11.4567 849 60.8822 1061.46 510.413
1875 0 78.0633 13.5019 1054 58.6746 1061.22 506.2
1876 0 81.1498 12.1134 983 60.1119 1061.81 506.801
1877 0 83.2331 12.0145 1000 60.465 1061.49 507.253
1878 0 88.1973 13.073 1153 59.059 1061.3 506.297
1879 1 47.0987 12.1235 571 60.4273 1061.66 522.59
1880 0 50.1331 11.3298 568 60.3416 1061.82 523.408
1881 0 53.188 10.8295 576 61.1649 1061.38 522.892
1882 0 53.197 10.5269 560 61.9857 1061.96 522.509
1883 0 55.1012 12.6676 698 60.6046 1061.99 520.159
1884 0 58.2494 12.2061 711 60.7989 1061.86 520.082
1885 0 58.1639 12.4304 723 61.3236 1061.63 517.859
1886 0 61.1607 12.3609 756 61.2037 1061.44 518.376
1887 0 62.2757 12.3001 766 62.1475 1061.72 516.095
1888 0 66.4223 12.3151 818 61.4756 1061.54 516.079
1889 0 66.2132 11.3421 751 62.8708 1061.11 514.216
1890 0 68.1836 11.5277 786 62.8893 1061.27 514.163
1891 0 71.108 12.5584 893 61.6215 1061.33 511.347
1892 0 74.1437 13.3525 990 60.6838 1061.37 512.743
1893 0 77.1869 12.9556 1000 60.939 1061.72 511.93
1894 0 78.1091 12.06 942 63.7792 1061.45 508.161
1895 0 80.2294 11.8161 948 63.7627 1061.36 509.094
1896 0 85.1538 12.5303 1067 62.0872 1061.67 509.56
1897 0 88.4427 11.4198 1010 63.1535 1061.85 509.63
1898 0 90.1524 11.7579 1060 63.1849 1061.82 504.28
1899 0 93.243 13.1913 1230 61.6163 1062.07 504.463
1900 0 97.338 13.1706 1282 61.7714 1060.83 501.19
1901 1 52.0927 13.6871 713 60.237 1061.78 523.952
1902 0 49.176 10.859 534 65.5318 1061.43 521.09
1903 0 51.0755 10.9642 560 65.4179 1061.66 520.848
1904 0 53.2245 11.4045 607 64.6376 1061.82 520.649
1905 0 56.2781 13.9841 787 61.197 1061.27 517.583
1906 0 57.1114 12.2743 701 63.2539 1061.07 518.047
1907 0 59.0836 11.6614 689 64.0406 1061.38 515.75
1908 0 60.0884 13.58 816 61.9706 1060.77 512.87
1909 0 64.1677 12.1556 780 62.7282 1060.48 515.623
1910 0 65.2014 12.423 810 62.7296 1061.32 514.57
1911 0 64.2286 11.1477 716 65.4539 1061.76 513.307
1912 0 67.2408 13.4888 907 62.4355 1061.29 511.671
1913 0 68.2036 11.9935 818 65.0306 1060.29 509.804
1914 0 72.1117 12.5916 908 63.9747 1061.22 508.371
1915 0 76.1671 13.0503 994 63.0956 1061.25 507.341
1916 0 76.226 11.8464 903 65.2935 1060.93 505.516
1917 0 77.2082 12.2396 945 65.272 1061.19 505.553
1918 0 84.1969 13.1596 1108 63.1534 1060.69 503.07
1919 0 84.0855 13.6171 1145 63.3013 1060.87 502.318
1920 1 46.1001 12.4729 575 64.9861 1061.42 521.593
1921 0 45.0211 8.84029 398 68.7915 1061.64 522.108
1922 0 49.0813 10.9207 536 67.2593 1061.44 520.392
1923 0 53.2994 11.7262 625 65.864 1061.29 521.232
1924 0 52.0536 11.6995 609 67.2118 1060.85 519.365
1925 0 51.0841 11.3343 579 68.9603 1060.97 518.359
1926 0 55.1122 12.5381 691 66.5977 1060.44 518.547
1927 0 54.0422 10.9729 593 69.4014 1061.62 518.314
1928 0 59.0697 12.6461 747 66.344 1061.27 519.497
1929 0 60.0771 13.8822 834 65.3621 1061.06 516.314
1930 0 62.1099 13.7337 853 65.1841 1060.79 515.661
1931 0 65.1041 12.1344 790 66.743 1061.32 517.767
1932 0 65.1624 12.3231 803 67.3076 1061.19 517.588
1933 0 69.0918 12.7511 881 66.4359 1060.74 514.797
1934 0 69.1546 12.2913 850 67.2412 1060.48 517.631
1935 0 71.1925 12.9087 919 67.0359 1060.36 516.432
1936 0 75.0999 13.9148 1045 65.8297 1060.55 512.996
1937 0 77.1019 11.621 896 69.1797 1059.7 512.833
1938 0 82.11 13.8351 1136 65.7333 1059.44 513.107
1939 0 81.2183 11.8077 959 69.3869 1059.06 512.735
1940 0 83.2046 12.92 1075 68.8437 1060.28 508.781
1941 1 44.1106 10.5644 466 71.0107 1058.87 527.562
1942 0 48.112 11.7434 565 68.2142 1058.89 529.152
1943 0 49.0394 11.501 564 67.7482 1058.83 530.931
1944 0 50.0737 12.1621 609 68.225 1058.8 528.358
1945 0 53.1424 11.441 608 68.4243 1059.13 527.689
1946 0 53.1968 12.7639 679 67.6568 1059.58 526.437
1947 0 56.0544 11.917 668 68.4686 1059.55 523.832
1948 0 57.0547 12.2163 697 67.5925 1058.4 524.109
1949 0 58.1012 13.9584 811 65.8742 1059.1 522.723
1950 0 59.1042 12.1311 717 68.1241 1058.19 521.972
1951 0 63.0874 13.6002 858 65.8194 1059.17 520.807
1952 0 63.064 11.9244 752 68.6835 1058.99 517.48
1953 0 65.1327 11.4228 744 68.6371 1059.41 518.249
1954 0 67.1022 11.4452 768 68.7865 1059.66 517.374
1955 0 69.0647 11.7137 809 68.4227 1059.5 516.676
1956 0 70.0974 10.2429 718 70.3607 1058.86 515.48
1957 0 72.0315 11.259 811 68.9014 1059.03 516.312
1958 0 74.0342 11.9674 886 68.8273 1059.72 510.045
1959 0 80.1665 13.8836 1113 65.5786 1060 510.925
1960 0 81.1191 11.9947 973 68.5303 1060.28 507.421
1961 0 84.2006 12.7077 1070 67.5776 1060.11 506.687
1962 0 84.0961 11.6533 980 69.2357 1060.45 506.716
1963 0 90.0931 11.9765 1079 68.2873 1060.2 504.669
1964 0 92.1056 11.7365 1081 68.951 1059.65 504.472
1965 0 95.1013 13.2701 1262 67.4588 1060.17 501.648
1966 0 99.1659 13.0892 1298 67.2119 1060.65 502.56
1967 1 53.125 10.7482 571 66.5674 1061.41 522.079
1968 0 55.0975 9.9097 546 67.4506 1060.18 523.555
1969 0 55.0539 10.3898 572 67.4056 1060.95 521.822
1970 0 57.0514 9.74559 556 68.1996 1060.15 521.196
1971 0 58.0682 10.3499 601 67.7404 1059.32 520.038
1972 0 62.0372 11.7188 727 65.608 1060.39 517.939
1973 0 61.0651 10.5297 643 67.9005 1060.62 517.537
1974 0 64.0644 11.6445 746 66.315 1061.09 515.803
1975 0 68.0644 12.0621 821 64.581 1060.91 515.809
1976 0 70.1118 10.7685 755 66.2212 1062.06 515.536
1977 0 71.0657 11.2713 801 66.1523 1061.27 512.404
1978 0 73.1002 10.5061 768 67.0182 1060.91 513.102
1979 0 75.0299 9.98269 749 67.1228 1061.75 512.682
1980 0 80.0405 12.6436 1012 64.3557 1061.47 508.272
1981 0 78.0926 9.11738 712 69.2739 1061.65 505.201
1982 0 85.1082 11.7028 996 64.754 1060.94 505.479
1983 0 83.0428 9.53726 792 68.2525 1060.77 501.043
1984 1 48.0417 8.30528 399 64.1504 1060.8 522.419
1985 0 50.0409 10.4914 525 60.8762 1060.71 524.31
1986 0 50.0962 8.96275 449 64.0067 1061.24 521.497
1987 0 54.0252 10.9393 591 61.3773 1061.07 520.496
1988 0 55.1122 10.9413 603 61.4892 1061.26 519.224
1989 0 56.0521 11.2217 629 62.0334 1061.22 517.021
1990 0 56.0469 10.1879 571 63.6305 1061.47 516.005
1991 0 59.069 9.90368 585 63.4718 1061.89 516.706
1992 0 60.0723 11.6193 698 61.6332 1061.76 515.696
1993 0 63.0778 10.384 655 61.6183 1061.58 516.188
1994 0 66.1178 9.27133 613 62.69 1062.03 515.744
1995 0 67.1338 10.3525 695 62.3237 1061.93 509.091
1996 0 69.0918 10.0736 696 62.3477 1061.99 511.497
1997 0 70.187 12.7802 897 59.1918 1062.29 507.644
1998 0 73.1554 9.50032 695 62.4676 1061.98 504.86
1999 0 74.1253 10.3339 766 61.4961 1062.59 507.249
2000 0 78.0757 11.0534 863 59.8239 1061.93 509.081
2001 0 78.1095 10.1652 794 61.4987 1061.84 504.793
2002 0 81.1285 9.60205 779 61.5597 1061.98 506.153
2003 0 84.1138 10.7711 906 60.0795 1062.01 506.583
2004 0 87.0661 10.2681 894 61.0537 1062.76 502.884
2005 0 89.15 10.1178 902 61.5266 1061.74 503.063
2006 0 93.0918 9.94717 926 61.6512 1062.69 500.393
2007 1 50.0213 10.6555 533 56.3771 1062.66 524.137
2008 0 49.0386 7.40233 363 60.6474 1062.87 522.317
2009 0 52.0645 9.6803 504 58.0377 1062.81 519.79
2010 0 52.0575 9.77765 509 58.1061 1062.78 522.902
2011 0 52.0237 8.3808 436 59.6674 1062.53 520.876
2012 0 56.0306 9.29849 521 58.4069 1062.5 521.869
2013 0 54.042 8.993 486 60.144 1063.07 517.576
2014 0 56.0268 7.81769 438 62.5297 1062.87 518.737
2015 0 60.1128 9.71508 584 59.7226 1062.58 520.658
2016 0 60.037 11.3763 683 58.9766 1062.08 515.356
2017 0 64.0411 10.5089 673 59.5542 1062.08 516.018
2018 0 66.039 11.2812 745 58.6671 1061.99 517.754
2019 0 68.0696 10.3717 706 60.0992 1062.31 514.732
2020 0 68.0627 11.5922 789 59.5437 1062.84 513.588
2021 0 70.0889 9.13126 640 62.7516 1062.58 512.43
2022 0 72.1347 10.0922 728 61.8599 1061.87 512.44
2023 0 71.0509 9.58467 681 63.3113 1062.22 510.211
2024 0 77.0843 11.0009 848 60.7889 1062.3 513.553
2025 0 77.1062 10.2197 788 62.849 1062.21 507.317
2026 0 79.0407 10.8299 856 62.1951 1062.44 508.592
2027 0 84.0552 10.4098 875 62.5714 1062.1 505.173
2028 0 86.0894 10.5356 907 62.4631 1061.72 505.17
2029 0 90.1572 11.7351 1058 61.3686 1061.86 503.855
2030 1 50.0834 8.62561 432 63.1482 1061.55 525.743
2031 0 51.0734 10.3381 528 62.0947 1060.71 521.924
2032 0 50.0522 8.17147 409 65.7408 1061.39 522.611
2033 0 54.061 10.1552 549 63.2386 1062.07 522.437
2034 0 54.0437 9.64034 521 65.0038 1061.25 521.693
2035 0 55.2103 10.3966 574 64.0976 1061.01 520.672
2036 0 58.1203 9.77283 568 65.1021 1061.15 516.755
2037 0 58.15 11.1436 648 64.0679 1061.08 519.052
2038 0 61.1291 10.895 666 64.0676 1061.08 517.474
2039 0 63.1533 9.61153 607 65.4975 1061.29 517.138
2040 0 66.0724 11.3966 753 62.5259 1061.45 515.34
2041 0 67.0524 11.1704 749 63.5354 1062.3 517.122
2042 0 69.0486 11.0647 764 63.8809 1062.1 514.291
2043 0 72.0814 10.9043 786 63.9656 1061.59 514.393
2044 0 73.1289 11.6643 853 63.3142 1060.53 512.44
2045 0 74.1208 10.1321 751 65.6152 1060.95 513.06
2046 0 78.2928 11.1888 876 64.2763 1061.12 510.56
2047 0 80.1133 12.4199 995 63.1266 1061.14 509.221
2048 0 82.2094 12.2492 1007 63.1172 1061.47 508.795
2049 0 85.1131 11.4318 973 64.4471 1061.67 506.142
2050 0 87.1443 11.4178 995 64.3618 1061.49 507.049
2051 0 91.1957 11.1518 1017 64.4572 1061.06 508.404
2052 1 48.0873 9.89866 476 64.3698 1061.58 525.296
2053 0 50.0456 10.0508 503 64.1511 1060.59 523.086
2054 0 52.0817 10.3299 538 63.4461 1061.55 524.229
2055 0 53.0486 12.5922 668 61.6931 1060.99 521.072
2056 0 56.1296 12.7206 714 61.8291 1061.12 519.675
2057 0 58.1037 11.7204 681 63.1234 1061.65 520.595
2058 0 61.1151 13.1064 801 60.2822 1060.72 521.212
2059 0 61.0779 11.1169 679 63.458 1060.89 520.205
2060 0 61.1698 11.231 687 65.7918 1061.08 519.622
2061 0 62.1783 11.1614 694 66.3343 1061.07 517.769
2062 0 67.0954 11.3421 761 65.2234 1061.44 517.878
2063 0 66.1103 11.5564 764 65.8953 1061.6 514.63
2064 0 67.166 10.2879 691 66.8669 1061.33 518.566
2065 0 70.2829 11.5391 811 65.402 1061.57 516.152
2066 0 72.123 11.2863 814 66.5061 1061.29 513.396
2067 0 75.4216 12.1318 915 64.6612 1061.52 511.795
2068 0 79.1671 13.7557 1089 62.3572 1061.24 510.128
2069 0 79.1331 11.6765 924 65.6407 1060.62 510.431
2070 0 80.1015 11.4854 920 66.088 1060.34 509.81
2071 0 82.1115 12.4465 1022 65.0636 1060.37 507.492
2072 0 82.1096 10.9001 895 67.705 1060.67 505.061
2073 0 88.1358 11.3234 998 66.4499 1060.73 506.43
2074 0 90.2047 10.6646 962 67.8056 1060.59 503.788
2075 0 93.114 11.7598 1095 65.9151 1060.34 505.819
2076 1 51.034 11.992 612 63.8726 1060.54 523.935
2077 0 51.033 11.4436 584 64.7363 1059.94 523.486
2078 0 53.0912 11.9794 636 64.7972 1060.01 522.135
2079 0 51.1011 10.8412 554 67.7581 1060 519.859
2080 0 55.1128 10.9049 601 67.1498 1060.16 520.265
2081 0 58.076 11.2439 653 66.2619 1060.18 519.651
2082 0 58.2076 12.3352 718 66.2855 1060.04 518.128
2083 0 58.2098 11.1322 648 68.0509 1059.67 516.269
2084 0 61.1335 10.7143 655 67.7221 1060.04 517.666
2085 0 62.1323 12.2802 763 65.8663 1060.42 517.676
2086 0 66.0558 11.3238 748 66.9198 1060.03 514.46
2087 0 66.0948 10.4244 689 68.2656 1060.04 514.273
2088 0 70.0975 13.2244 927 64.2125 1060.07 513.107
2089 0 71.1529 12.8315 913 64.8631 1060.53 511.959
2090 0 74.1384 12.4497 923 65.2178 1060.51 511.482
2091 0 77.1081 12.2166 942 64.6868 1060.42 512.381
2092 0 77.1277 10.7354 828 67.7705 1060.19 509.034
2093 0 79.0651 11.4969 909 66.8801 1060.47 508.034
2094 0 82.2058 11.3739 935 67.4406 1060.49 506.995
2095 0 83.1293 12.1858 1013 66.8569 1060.59 506.913
2096 0 88.0979 13.6666 1204 64.6811 1059.82 504.096
2097 0 90.1476 12.2133 1101 66.683 1060.09 504.341
2098 0 93.1305 13.6797 1274 65.3799 1059.58 501.566
2099 1 48.073 10.2344 492 65.9065 1059.99 524.758
2100 0 45.0776 7.98623 360 69.4056 1060.64 524.731
2101 0 48.0541 9.09393 437 68.5217 1060.76 524.497
2102 0 50.2286 11.4875 577 66.0433 1060.56 522.393
2103 0 51.1564 10.419 533 67.985 1060.79 522.223
2104 0 53.1139 10.1292 538 67.987 1060.64 522.375
2105 0 57.1248 12.1839 696 65.1466 1060.86 523.037
2106 0 56.1498 11.3625 638 67.0094 1060.88 521.734
2107 0 59.0997 12.0305 711 66.2911 1060.98 518.8
2108 0 62.0516 11.5871 719 66.8734 1061.18 519.752
2109 0 63.0776 12.0804 762 66.2428 1060.86 518.715
2110 0 62.0546 10.6841 663 69.009 1060.43 517.351
2111 0 65.0424 11.3618 739 67.6793 1060.31 516.785
2112 0 66.1036 10.5138 695 68.7986 1060.93 516.537
2113 0 70.1546 13.1424 922 65.8384 1060.24 513.227
2114 0 70.0876 11.6711 818 67.9853 1060.95 513.686
2115 0 75.1136 12.3946 931 66.4039 1060.73 514.546
2116 0 75.0606 11.3908 855 68.0854 1060.12 511.834
2117 0 79.1476 12.5209 991 67.2664 1060.28 507.674
2118 0 79.0731 11.5083 910 69.2077 1060.69 508.252
2119 0 85.1545 12.1896 1038 67.2245 1060.45 510.437
2120 0 85.0797 12.3414 1050 67.9695 1060.57 506.891
2121 0 87.0885 14.0776 1226 65.7724 1060.53 506.366
2122 1 46.0324 9.99296 460 68.1478 1060.76 526.909
2123 0 49.0607 11.1495 547 67.4113 1060.48 524.799
2124 0 52.102 11.3623 592 66.4595 1060.16 525.944
2125 0 53.0966 11.0365 586 67.814 1060.89 524.341
2126 0 52.0659 11.1013 578 68.9481 1060.72 521.218
2127 0 49.0896 8.55579 420 73.081 1059.53 519.61
2128 0 54.1221 10.7165 580 68.8103 1060.17 522.972
2129 0 54.1245 10.1433 549 70.9672 1060.38 518.734
2130 0 57.0643 10.7423 613 69.8776 1060.26 521.171
2131 0 58.0655 11.8487 688 68.5712 1061.02 519.225
2132 0 60.0381 11.093 666 69.1366 1060.74 520.167
2133 0 63.0691 11.749 741 68.1201 1060.37 517.521
2134 0 67.1178 11.7108 786 68.4288 1060.24 515.636
2135 0 66.1314 11.0538 731 68.9001 1060.48 519.197
2136 0 67.0507 12.6322 847 67.7686 1060.6 516.561
2137 0 71.0743 13.6055 967 66.3154 1060.49 515.707
2138 0 73.1156 12.1862 891 68.5118 1060.07 515.092
2139 0 74.0793 12.4866 925 68.1232 1060.16 513.449
2140 0 76.0528 11.0055 837 70.1517 1060.25 512.588
2141 0 79.0766 12.7851 1011 67.8853 1060.17 511.449
2142 0 82.0852 12.7307 1045 68.3809 1060.75 509.768
2143 0 85.0788 12.4238 1057 68.334 1060.56 508.381
2144 0 87.0866 11.9651 1042 68.3906 1059.51 509.528
2145 0 90.047 13.2931 1197 67.401 1060.2 504.796
2146 0 93.1216 12.5642 1170 67.6872 1060.25 504.017
2147 0 94.3186 10.4857 989 70.456 1059.97 504.363
2148 0 97.1388 12.3843 1203 68.3807 1059.74 500.026
2149 1 53.0778 11.2288 596 65.3188 1060.31 526.893
2150 0 53.0804 11.9253 633 66.1438 1060.17 525.676
2151 0 56.143 11.5063 646 66.4164 1060.45 523.867
2152 0 57.1346 12.4968 714 64.937 1060.61 522.041
2153 0 57.042 12.2366 698 65.9183 1060.58 518.022
2154 0 59.103 11.7761 696 66.0058 1060.57 521.328
2155 0 62.1316 10.7675 669 66.5217 1060.22 521.771
2156 0 63.0827 10.7954 681 67.3583 1059.8 519.27
2157 0 65.1436 9.97795 650 67.9415 1059.74 518.938
2158 0 69.1068 11.7355 811 65.3354 1059.99 518.014
2159 0 70.1132 12.4228 871 64.5637 1059.63 518.607
2160 0 73.1366 10.8701 795 65.9598 1060.03 516.065
2161 0 74.1218 10.3748 769 66.6736 1059.8 516.25
2162 0 77.1173 11.1648 861 66.1498 1059.42 513.836
2163 0 80.1389 11.4551 918 65.5033 1059.64 511.035
2164 0 81.1749 11.3336 920 65.8435 1059.88 511.266
2165 0 82.1023 10.9132 896 67.0625 1060.01 508.683
2166 1 42.0272 8.85141 372 68.9973 1060.49 526.118
2167 0 47.0726 9.15607 431 67.1578 1060.44 528.845
2168 0 47.0921 10.6387 501 66.2874 1060.23 524.024
2169 0 47.0879 10.8096 509 66.8487 1060.25 523.422
2170 0 49.0941 11.1826 549 66.1384 1060.97 525.543
2171 0 52.0552 9.70123 505 67.7465 1060.89 523.192
2172 0 55.0923 11.9799 660 65.0894 1060.98 521.698
2173 0 54.0459 11.8788 642 65.0561 1061.18 523.438
2174 0 58.0211 11.1683 648 66.0571 1060.58 519.698
2175 0 59.0644 11.9869 708 65.0226 1061.09 518.917
2176 0 62.1651 11.8394 736 64.7772 1060.75 519.062
2177 0 63.0374 10.1527 640 67.4609 1061.25 517.514
2178 0 66.1535 10.4303 690 67.0696 1060.93 516.368
2179 0 68.0845 11.7942 803 65.1918 1060.6 515.073
2180 0 70.0961 11.8552 831 65.3971 1060.7 514.909
2181 0 72.096 11.5818 835 65.406 1060.87 512.054
2182 0 76.2095 10.4318 795 66.6528 1060.67 512.836
2183 0 78.114 9.9342 776 66.7062 1060.64 513.004
2184 0 82.0559 10.505 862 66.2935 1060.57 510.914
2185 0 85.209 11.9236 1016 64.7313 1059.78 507.919
2186 1 44.0573 10.1913 449 65.9421 1060.18 526.546
2187 0 45.0339 10.1035 455 66.1077 1060.83 527.549
2188 0 48.0093 10.0605 483 65.6398 1060.27 527.207
2189 0 51.0353 11.2863 576 63.7188 1060.73 526.302
2190 0 52.0942 10.5962 552 64.7862 1060.85 524.371
2191 0 53.056 11.1015 589 64.1936 1061.01 523.696
2192 0 55.073 11.1307 613 64.2006 1060.6 522.984
2193 0 58.1395 13.3472 776 61.2062 1060.88 521.077
2194 0 58.0721 12.054 700 62.7514 1060.47 520.149
2195 0 60.1079 10.4811 630 64.9778 1060.25 519.781
2196 0 62.0541 10.7487 667 64.9745 1060.37 517.774
2197 0 64.0694 11.5812 742 62.965 1059.58 519.016
2198 0 65.1529 11.5574 753 63.5352 1059.85 519.05
2199 0 68.1424 11.2999 770 63.6104 1060.57 516.014
2200 0 70.1459 11.4903 806 62.9231 1060.62 515.763
2201 0 72.2264 10.384 750 64.4653 1059.83 514.507
2202 0 75.2365 12.0819 909 62.1452 1059.73 514.55
2203 0 77.1783 10.4304 805 63.0224 1060.67 515.671
2204 0 80.1077 11.3347 908 62.0848 1059.81 510.833
2205 0 84.1749 11.1553 939 61.6336 1059.82 510.23
2206 1 42.0354 11.0383 464 61.1638 1060.28 530.696
2207 0 42.0199 11.1852 470 61.6362 1060.14 527.917
2208 0 44.0327 10.8102 476 61.395 1060.1 529.076
2209 0 47.0194 12.6118 593 59.3744 1060.29 527.766
2210 0 48.2212 11.1984 540 60.787 1060.12 526.572
2211 0 51.1063 10.7227 548 60.9288 1060.38 525.856
2212 0 53.0837 11.058 587 60.971 1060.45 525.475
2213 0 52.0343 10.0318 522 62.6494 1059.82 524.785
2214 0 56.1075 12.0127 674 59.8932 1060.17 524.819
2215 0 57.1014 10.9279 624 61.75 1059.58 523.607
2216 0 60.0438 11.6582 700 60.28 1060.15 522.204
2217 0 60.0328 11.5603 694 60.7781 1060.11 522.512
2218 0 62.1443 12.5997 783 59.9591 1060.29 519.503
2219 0 64.088 11.3438 727 61.293 1059.93 519.062
2220 0 66.0636 12.9118 853 59.4994 1060.01 516.361
2221 0 67.115 11.443 768 61.0716 1060.23 516.223
2222 0 71.12 12.9921 924 59.2911 1059.79 515.702
2223 0 74.1288 13.4496 997 58.7021 1060.23 513.239
2224 0 77.1348 12.4976 964 59.8766 1060.6 515.57
2225 0 78.0804 12.6664 989 60.1456 1060.63 512.478
2226 0 79.0979 12.7184 1006 60.0348 1060.48 515.516
2227 0 82.1095 12.6295 1037 60.4474 1060.71 512.912
2228 1 48.0627 12.2132 587 59.6542 1061.27 531.152
2229 0 49.038 12.8268 629 60.318 1061.34 529.191
2230 0 49.0277 12.4012 608 61.7516 1061.5 526.929
2231 0 51.0263 12.2878 627 61.5072 1061.35 528.491
2232 0 54.1724 13.1432 712 60.3638 1061.26 527.159
2233 0 51.1775 11.8998 609 63.7389 1061.63 526.652
2234 0 55.0586 13.6218 750 61.3453 1061.24 525.639
2235 0 56.059 12.9685 727 62.3329 1060.6 526.802
2236 0 60.2105 13.1539 792 61.8005 1060.7 524.592
2237 0 59.0373 14.3469 847 61.1842 1060.83 523.784
2238 0 62.0314 13.5093 838 61.994 1061.07 521.529
2239 0 63.1203 11.5335 728 64.7349 1060.45 521.416
2240 0 64.133 12.6144 809 63.8208 1060.79 522.496
2241 0 70.0606 12.1324 850 64.0718 1060.62 521.082
2242 0 71.1008 13.7411 977 62.7114 1061.29 519.107
2243 0 72.0885 14.0938 1016 63.1585 1061.15 516.639
2244 0 74.1159 11.8058 875 65.6594 1060.62 517.599
2245 0 77.0993 12.1013 933 65.1082 1060.97 517.075
2246 0 81.0657 14.3711 1165 62.5021 1061.3 515.074
2247 0 83.0627 13.857 1151 63.179 1061.6 515.231
2248 0 85.2065 13.79 1175 63.863 1060.91 513.706
2249 1 42.0956 12.6141 531 65.307 1061.21 532.915
2250 0 45.129 13.7162 619 63.3312 1061.18 533.609
2251 0 48.0485 13.1742 633 64.4376 1061.07 533.782
2252 0 50.1368 14.1014 707 63.3225 1061.01 531.501
2253 0 50.0367 12.7706 639 64.6369 1061.32 531.682
2254 0 51.0454 14.3794 734 64.2698 1061.15 528.891
2255 0 50.066 12.9429 648 66.7392 1060.74 526.705
2256 0 54.0636 13.0032 703 65.3926 1061.27 528.424
2257 0 56.0598 15.1267 848 62.888 1061.86 526.231
2258 0 57.046 14.8652 848 63.3384 1061.14 525.594
2259 0 57.1278 13.146 751 65.8642 1061.15 525.125
2260 0 62.0475 14.6339 908 63.4097 1060.77 524.989
2261 0 62.0471 14.7952 918 63.4379 1060.53 524.908
2262 0 62.1157 12.9919 807 66.4919 1061.1 523.594
2263 0 67.1022 13.2186 887 65.4442 1061.31 524.708
2264 0 67.1026 13.5315 908 65.6531 1060.91 522.195
2265 0 68.1334 12.0646 822 68.1691 1061.36 519.397
2266 0 74.0766 14.215 1053 65.0722 1061.38 520.183
2267 0 74.183 13.6554 1013 66.7424 1060.72 517.209
2268 0 77.043 14.109 1087 66.7433 1061.61 515.272
2269 0 81.0934 13.9222 1129 67.31 1061.1 514.471
2270 0 83.1161 12.5728 1045 69.3397 1061.32 513.219
2271 0 85.1593 13.0696 1113 69.1671 1061.81 512.677
2272 0 88.0982 13.3374 1175 69.3838 1061.74 510.106
2273 0 93.083 14.1701 1319 67.815 1061.25 511.851
2274 0 96.1822 14.4413 1389 67.9626 1061.06 509.675
2275 1 51.1244 12.8706 658 70.2021 1061.07 529.719
2276 0 52.1075 12.1671 634 72.0568 1061.32 528.625
2277 0 55.0485 15.2411 839 68.1597 1061.79 526.614
2278 0 57.0948 15.4305 881 67.8774 1061.55 526.43
2279 0 58.1324 14.7594 858 68.704 1061.42 527.915
2280 0 61.0742 14.9818 915 68.6514 1062.23 525.342
2281 0 63.0464 14.0849 888 69.7444 1062.37 523.982
2282 0 62.0468 12.2488 760 73.3763 1062 522.643
2283 0 68.0849 13.1747 897 70.5897 1061.89 523.974
2284 0 69.0829 12.5791 869 72.0276 1061.73 522.596
2285 0 71.0916 14.0945 1002 70.1208 1061.2 521.023
2286 0 73.1132 14.1972 1038 70.1118 1061.28 519.414
2287 0 76.0656 14.0142 1066 71.0694 1061.7 517.51
2288 0 77.1094 13.9153 1073 71.3383 1061.82 517.559
2289 0 81.1407 14.7768 1199 70.3086 1062.19 514.498
2290 0 83.1994 14.1227 1175 71.1592 1061.47 513.848
2291 0 85.1042 13.1016 1115 72.9946 1061.12 512.702
2292 0 88.1101 14.9926 1321 70.3384 1061.14 511.266
2293 0 92.0888 14.5077 1336 71.104 1061.04 510.722
2294 1 46.0674 12.4383 573 73.9773 1061.3 531.335
2295 0 49.0566 14.7177 722 70.5706 1061.5 531.943
2296 0 50.1179 13.4682 675 72.3911 1061.47 529.938
2297 0 49.0371 12.9902 637 74.1837 1060.61 529.678
2298 0 54.1223 14.8737 805 70.4311 1062.37 528.145
2299 0 52.052 12.1609 633 75.2417 1062.09 528.201
2300 0 57.0571 14.6695 837 69.0908 1062.17 526.094
2301 0 56.0792 13.0886 734 72.0749 1061.9 525.271
2302 0 59.1153 13.6344 806 70.2184 1061.97 525.316
2303 0 61.0709 12.5919 769 71.5826 1061.69 525.169
2304 0 64.0582 13.9092 891 69.7565 1061.66 523.471
2305 0 63.0642 12.5428 791 71.9684 1060.84 521.844
2306 0 67.0465 13.0208 873 71.1501 1060.77 521.597
2307 0 72.0542 14.1699 1021 68.4486 1061.66 520.651
2308 0 72.1122 13.2571 956 70.1454 1061.86 519.061
2309 0 74.1029 14.156 1049 69.7455 1061.53 516.396
2310 0 76.1407 13.0942 997 70.6168 1061.02 516.905
2311 0 80.1883 14.5408 1166 68.7333 1061.33 514.993
2312 0 82.1131 14.9915 1231 68.3209 1061.39 514.393
2313 0 83.3138 12.879 1073 71.1612 1061.09 514.733
2314 0 88.208 13.9103 1227 69.3847 1061.26 513.69
2315 0 89.1826 13.6798 1220 70.1484 1061.49 513.625
2316 0 93.3145 12.0667 1126 71.6616 1061.15 514.598
2317 0 96.0594 13.6686 1313 70.0845 1061.37 510.028
2318 1 53.0977 12.9007 685 70.1869 1061.38 530.836
2319 0 53.1413 13.3794 711 69.4444 1061.46 531.381
2320 0 54.0585 12.505 676 71.605 1061.35 526.864
2321 0 59.0538 13.276 784 69.4617 1061.58 527.298
2322 0 60.0486 13.8721 833 69.1357 1061.99 525.384
2323 0 61.1243 15.1331 925 67.1827 1061.58 525.982
2324 0 63.0934 15.3899 971 66.7477 1061.66 524.06
2325 0 64.0453 13.5061 865 69.6763 1061.85 521.468
2326 0 67.0691 14.3285 961 68.1998 1061.24 520.691
2327 0 69.1855 15.2344 1054 66.9744 1061.79 521.061
2328 0 72.199 14.7647 1066 67.3246 1061.52 521.227
2329 0 74.1039 13.0358 966 69.8986 1061.33 518.462
2330 0 79.1154 15.2562 1207 66.5626 1061.88 517.002
2331 0 80.1854 14.691 1178 67.7827 1061.47 514.085
2332 0 84.1587 14.0449 1182 68.044 1061.86 515.646
2333 0 86.0989 17.2824 1488 64.3636 1061.61 515.358
2334 0 88.2585 13.6304 1203 69.2286 1062.25 512.327
2335 0 91.1345 14.4621 1318 68.5235 1062.03 509.336
2336 0 91.0985 12.5469 1143 71.9221 1060.96 507.898
2337 0 97.0497 15.2499 1480 68.1432 1061.2 506.408
2338 0 100.069 13.6406 1365 70.6623 1062.04 503.465
2339 0 104.119 15.05 1567 68.0038 1062.15 506.854
2340 0 108.062 14.686 1587 68.2817 1061.84 504.19
2341 0 113.203 14.9113 1688 67.9917 1061.57 502.152
2342 0 116.207 15.0422 1748 68.1178 1061.05 499.403
2343 0 120.118 15.3266 1841 67.4845 1061.39 497.268
2344 1 64.0474 12.9748 831 70.5415 1061.93 525.664
2345 0 64.1066 12.7756 819 71.4652 1061.26 523.634
2346 0 69.071 13.2907 918 70.3279 1061.26 521.403
2347 0 72.0658 14.1954 1023 69.1525 1061.36 520.161
2348 0 73.1389 14.9032 1090 67.8229 1062.02 519.875
2349 0 75.179 13.9933 1052 69.2576 1061.07 516.296
2350 0 79.2217 14.3647 1138 61.4543 1061.86 516.932
2351 0 80.0734 14.8114 1186 60.9789 1062.27 512.836
2352 0 85.1237 13.5332 1152 61.4792 1061.05 516.352
2353 0 86.2771 13.8971 1199 61.0584 1061.73 516.202
2354 0 90.1341 14.3564 1294 61.1074 1061.68 512.217
2355 0 93.1504 14.7396 1373 60.8281 1061.79 511.891
2356 0 98.0865 16.0878 1578 58.8378 1061.42 511.418
2357 0 99.121 16.4445 1630 59.538 1061.76 505.408
2358 0 103.212 14.3975 1486 61.4556 1062.28 505.244
2359 0 105.093 14.0257 1474 62.2612 1061.36 503.565
2360 0 111.146 15.0523 1673 60.3305 1061.65 503.588
2361 0 115.174 16.8181 1937 58.271 1061.48 500.962
2362 0 119.386 15.9064 1899 59.4028 1061.22 497.742
2363 1 57.0745 14.9103 851 61.7967 1061.11 524.986
2364 0 61.0783 14.375 878 61.8041 1060.77 524.423
2365 0 61.1771 13.9431 853 62.8722 1062.45 522.86
2366 0 65.1103 13.3927 872 63.4163 1062.19 521.852
2367 0 68.0742 16.1442 1099 59.9918 1061.38 522.816
2368 0 69.05 14.7285 1017 62.0728 1060.92 521.161
2369 0 71.1084 15.7084 1117 60.8138 1061.56 518.911
2370 0 75.1494 16.5537 1244 59.6801 1061.34 518.576
2371 0 76.3071 16.7088 1275 59.7365 1062.15 517.831
2372 0 79.0911 15.7793 1248 60.9351 1061.79 515.238
2373 0 81.0567 14.6811 1190 62.4824 1061.63 514.641
2374 0 85.0923 15.4068 1311 61.058 1061.83 514.083
2375 0 88.0992 18.6835 1646 57.4052 1060.8 514.766
2376 0 90.1236 15.967 1439 60.8214 1061.37 510.753
2377 0 93.1285 15.5484 1448 60.7106 1062.06 512.002
2378 0 96.2316 16.0654 1546 60.031 1062.12 511.11
2379 0 99.1622 15.1872 1506 61.2955 1062.17 507.032
2380 0 102.079 15.782 1611 60.5164 1061.96 507.928
2381 0 106.276 16.4948 1753 59.3132 1061.62 504.161
2382 0 108.242 14.523 1572 61.8906 1061.56 503.265
2383 0 112.126 16.1693 1813 60.2874 1061.58 499.126
2384 1 57.1601 14.4331 825 61.3079 1061.54 527.73
2385 0 58.1039 15.0592 875 61.944 1061.53 524.302
2386 0 60.0704 13.4176 806 63.1911 1061.58 526.092
2387 0 62.0818 15.9789 992 60.9224 1062.48 523.644
2388 0 62.1071 14.3462 891 63.0191 1061.95 523.75
2389 0 66.1876 16.9518 1122 60.0526 1061.97 520.838
2390 0 68.1535 16.3601 1115 61.0718 1062.99 520.123
2391 0 69.1601 15.9485 1103 61.3309 1063.18 520.334
2392 0 69.2764 14.9113 1033 63.4453 1062.24 520.103
2393 0 73.1699 16.1268 1180 62.2856 1063.56 518.553
2394 0 76.0576 16.7768 1276 61.7359 1063.52 517.25
2395 0 75.097 15.5532 1168 63.6259 1063.62 516.945
2396 0 78.2147 15.5853 1219 63.5783 1064.07 515.367
2397 0 82.2411 15.5762 1281 63.0062 1062.88 512.809
2398 0 84.0705 17.747 1492 60.8318 1063.55 511.981
2399 0 87.2913 18.3523 1602 60.3421 1063.82 510.88
2400 0 91.1326 16.8546 1536 61.6569 1062.89 507.987
2401 0 94.1622 13.806 1300 64.9038 1062.78 506.672
2402 0 95.1171 15.7385 1497 62.7802 1063.43 506.673
2403 0 98.2822 14.5703 1432 63.7814 1063.6 504.697
2404 0 101.191 16.5034 1670 61.8413 1063.67 504.337
2405 0 105.235 16.2493 1710 61.617 1063.97 500.778
2406 0 108.317 16.2671 1762 61.3978 1063.18 501.069
2407 0 112.13 15.0361 1686 63.0813 1062.87 499.23
2408 0 115.234 15.2906 1762 62.9518 1062.79 495.571
2409 0 119.177 17.3355 2066 60.3398 1063.09 495.932
2410 0 123.148 17.0689 2102 61.2217 1062.79 491.116
2411 1 61.049 14.988 915 63.4219 1063 521.694
2412 0 64.0897 13.6839 877 64.2098 1063.24 523.95
2413 0 65.1324 15.1691 988 63.835 1062.9 521.981
2414 0 67.0702 15.4167 1034 64.0077 1063.15 518.358
2415 0 69.0829 15.4307 1066 64.7552 1063 518.213
2416 0 73.0902 14.9952 1096 64.7646 1063.45 518.626
2417 0 73.094 14.7481 1078 65.4221 1062.93 517.021
2418 0 74.1965 14.839 1101 66.1526 1063.08 516.562
2419 0 75.0863 14.4367 1084 67.3976 1063.07 514.976
2420 0 77.058 16.5589 1276 65.5368 1063.17 514.994
2421 0 80.1312 15.2749 1224 66.9739 1063.66 512.64
2422 0 83.1149 14.2453 1184 67.8758 1063.62 514.467
2423 0 85.1542 16.1354 1374 66.262 1063.44 511.923
2424 0 88.1464 14.6234 1289 67.5772 1062.53 511.975
2425 0 91.1272 16.0325 1461 66.4825 1063.54 510.386
2426 0 94.1423 14.7118 1385 67.8462 1063.03 510.303
2427 0 96.1351 14.7813 1421 68.5566 1062.73 507.505
2428 0 99.1905 14.7998 1468 68.718 1063 505.484
2429 0 104.221 16.0428 1672 66.7691 1063.08 504.614
2430 0 106.184 15.7651 1674 67.049 1063.23 504.996
2431 1 52.0983 14.1463 737 67.8643 1062.04 530.347
2432 0 54.043 13.6188 736 69.6101 1062.54 529.298
2433 0 57.0506 14.6537 836 69.0514 1062.22 526.148
2434 0 59.1221 14.2755 844 69.0782 1062.36 525.682
2435 0 58.1262 12.6965 738 71.6667 1062.34 527.131
2436 0 61.1159 13.908 850 69.9247 1062.54 526.493
2437 0 62.0521 15.7287 976 67.749 1063.3 525.921
2438 1 135.175 14.3517 1940 68.7021 1063.3 496.102
2439 0 139.315 15.9423 2221 67.6826 1063.09 490.071
2440 0 142.312 15.5222 2209 68.9991 1062.8 486.249
2441 1 71.1024 15.4988 1102 68.882 1062.07 522.44
2442 0 71.1281 13.0469 928 73.2468 1062.5 521.376
2443 0 74.1526 15.0905 1119 69.6702 1062.89 521.823
2444 0 73.0856 13.5047 987 73.2482 1062.22 519.917
2445 0 76.0936 14.561 1108 72.0442 1062.5 518.103
2446 0 79.0579 13.3194 1053 73.6771 1062.71 519.239
2447 0 77.1195 13.2911 1025 74.0195 1062.07 519.46
2448 0 83.201 14.8916 1239 71.6449 1062.21 516.292
2449 0 84.1649 14.234 1198 73.1895 1062.25 516.001
2450 0 84.0977 12.759 1073 75.5899 1062.12 515.914
2451 0 89.0944 14.6586 1306 72.6187 1062.13 513.286
2452 0 91.1662 15.3237 1397 71.738 1062.53 512.116
2453 0 94.1403 16.2736 1532 70.641 1061.55 510.05
2454 0 97.0937 13.6981 1330 73.2647 1062.26 509.92
2455 0 101.128 15.5249 1570 70.8599 1062.75 505.475
2456 0 105.129 13.6595 1436 72.2535 1062.12 508.127
2457 0 109.138 14.2663 1557 71.4406 1061.6 504.518
2458 0 111.17 14.9591 1663 70.7378 1062.26 502.763
2459 0 113.306 13.5121 1531 72.8256 1062.22 500.732
2460 1 56.038 14.4902 812 70.5357 1062.2 529.181
2461 0 57.0528 14.9511 853 71.9355 1062.9 526.233
2462 0 58.124 14.211 826 74.1925 1062.66 524.875
2463 0 58.0628 12.6759 736 77.0109 1062.24 525.83
2464 0 66.0811 13.2413 875 75.2594 1062.5 525.906
2465 0 65.0479 13.6054 885 75.9593 1062.46 525.058
2466 0 66.1144 13.7338 908 77.5859 1062.14 522.381
2467 0 67.0932 14.1743 951 74.9632 1062.37 521.073
2468 0 72.0926 14.7449 1063 74.7714 1062.14 518.882
2469 0 72.0934 13.8016 995 77.0191 1061.63 518.326
2470 0 75.2106 13.6284 1025 76.6634 1062.05 518.854
2471 0 75.0567 14.2292 1068 76.6938 1063.1 517.022
2472 0 79.1655 14.0086 1109 77.5086 1062.64 516.655
2473 0 82.1255 14.5265 1193 76.4258 1062.58 513.548
2474 0 84.0684 15.5944 1311 76.0145 1061.91 512.027
2475 0 88.1224 15.0132 1323 75.8224 1063.4 512.258
2476 0 90.1684 14.85 1339 75.9216 1062.8 511.202
2477 0 93.2106 14.8374 1383 75.6782 1062.07 509.75
2478 0 96.2408 15.4197 1484 75.7682 1062.76 506.007
2479 0 98.2297 14.2014 1395 77.1061 1062.58 506.404
2480 0 101.106 15.3601 1553 75.9717 1062.92 504.185
2481 0 102.225 13.4898 1379 78.0943 1063.16 504.618
2482 0 104.325 13.5825 1417 78.1708 1063.18 502.021
2483 0 109.282 14.5495 1590 76.644 1063.29 497.14
2484 0 110.312 14.7129 1623 75.4375 1062.74 500.14
2485 0 108.262 9.92959 1075 79.9274 1063.06 508.707
2486 0 108.134 11.495 1243 80.4344 1062.8 500.899
2487 1 162.097 15.904 2578 66.1614 1062.74 480.497
2488 0 151.584 22.7926 3455 58.675 1062.38 472.193
2489 0 149.445 21.9145 3275 61.2956 1062.05 469.769
2490 1 168.844 21.6057 3648 58.5408 1062.09 461.73
2491 0 173.252 21.5639 3736 57.6378 1062 452.096
2492 0 174.422 20.5995 3593 61.152 1061.62 462.213
2493 0 173.483 20.0885 3485 62.5449 1062.36 459.777
2494 0 173.498 19.7351 3424 63.6346 1062.32 457.574
2495 0 174.362 23.52 4101 60.2324 1062.3 455.708
2496 1 78.219 13.0787 1023 77.5132 1062.83 511.242
2497 0 81.1458 12.5083 1015 78.0394 1062.02 508.487
2498 0 86.2011 15.2202 1312 73.4741 1062.83 509.509
2499 0 90.1134 13.3055 1199 75.201 1062.64 507.253
2500 0 92.1894 14.6763 1353 73.3873 1062.19 504.655
2501 0 96.3171 14.7014 1416 72.1963 1062.33 504.934
2502 0 99.2259 15.6108 1549 71.0232 1062.62 503.422
2503 0 102.204 14.2363 1455 72.3959 1062.38 502.812
2504 1 47.3281 11.4097 540 75.9 1062.54 526.328
2505 0 52.0909 12.747 664 72.5316 1062.38 526.288
2506 0 53.1966 13.2151 703 73.3044 1063.14 524.248
2507 0 54.1799 13.6397 739 72.3789 1063.02 523.605
2508 0 57.2176 13.2302 757 71.9908 1062.3 522.897
2509 0 59.139 13.24 783 71.3308 1062.59 522.891
2510 0 62.2067 13.6159 847 70.856 1062.78 520.519
2511 0 65.0979 14.9006 970 68.2144 1063.22 519.581
2512 0 64.038 12.8986 826 71.1937 1062.07 519.574
2513 0 68.0782 14.5862 993 69.0342 1062.48 514.876
2514 0 69.1538 13.5495 937 69.9296 1062.3 515.062
2515 0 73.1863 14.2786 1045 69.1091 1062.2 513.324
2516 0 75.2265 14.5428 1094 68.4698 1062.98 513.439
2517 0 75.2213 14.331 1078 69.6456 1062.76 509.942
2518 0 81.1935 15.112 1227 67.7278 1062.88 510.663
2519 0 82.3577 13.2592 1092 70.2207 1062.18 508.917
2520 0 86.1186 14.3291 1234 68.9903 1062.2 504.024
2521 0 88.1918 14.5252 1281 68.331 1062.76 504.568
2522 0 88.1327 13.0939 1154 70.818 1063.04 503.026
2523 0 92.2774 13.8929 1282 69.5702 1062.68 501.87
2524 1 50.1803 12.196 612 68.7075 1063.44 524.348
2525 0 51.0649 12.3373 630 68.781 1063.18 521.044
2526 0 51.0512 12.5756 642 70.028 1063.04 519.889
2527 0 53.1414 11.7611 625 71.0832 1063.4 519.488
2528 0 55.0522 12.2066 672 70.1086 1063.74 519.612
2529 0 57.1059 12.1879 696 70.0172 1063.36 519.231
2530 0 60.0985 12.4962 751 69.237 1063.1 517.032
2531 0 61.1466 13.5739 830 67.7928 1063.38 515.74
2532 0 63.0289 12.4546 785 68.1083 1063.41 517.312
2533 0 67.0399 13.0519 875 68.1737 1063.43 516.178
2534 0 68.1361 13.1648 897 66.9911 1064.02 516.336
2535 0 71.0616 13.7205 975 67.1795 1064.26 512.089
2536 0 75.1068 13.2744 997 66.9178 1064.43 511.576
2537 0 77.108 13.0337 1005 67.0179 1063.55 511.865
2538 0 79.0813 14.4029 1139 65.4522 1063.09 510.394
2539 0 83.0651 12.0508 1001 68.1828 1063.52 509.508
2540 0 84.1237 14.4311 1214 65.8962 1063.69 505.007
2541 0 87.1888 13.0063 1134 67.4577 1063.51 507.202
2542 0 90.1063 12.9181 1164 67.957 1063.3 504.624
2543 0 92.0907 12.2271 1126 69.0515 1063.48 501.672
2544 1 48.0382 10.8872 523 68.2027 1063.4 522.159
2545 0 52.1413 10.7017 558 67.4158 1064.3 523.005
2546 0 54.1497 13.5181 732 63.985 1064.11 522.44
2547 0 53.0852 10.794 573 68.8255 1063.59 520.005
2548 0 55.2138 11.048 610 68.2328 1063.44 519.759
2549 0 56.0537 11.2749 632 67.4984 1063.7 518.114
2550 0 61.0791 12.0336 735 65.581 1063.59 517.814
2551 0 62.0644 11.5203 715 66.0909 1063.1 517.765
2552 0 65.1804 13.5777 885 63.4316 1063.39 515.241
2553 0 67.0478 12.1704 816 65.6863 1063.54 514.395
2554 0 68.0742 13.9113 947 63.3453 1063.34 513.849
2555 0 70.0594 12.4038 869 64.9425 1063.62 512.76
2556 0 72.1281 12.5748 907 64.3197 1064.13 511.481
2557 0 76.0858 13.6819 1041 62.9962 1063.87 508.415
2558 0 77.0946 12.128 935 65.0214 1063.79 507.544
2559 0 82.0913 12.7663 1048 63.9294 1063.14 506.335
2560 0 84.0882 13.2004 1110 63.4459 1063.48 506.081
2561 0 87.0654 13.3118 1159 63.0854 1062.99 505.463
2562 0 90.217 12.3258 1112 64.179 1063.39 505.119
2563 0 91.1501 12.43 1133 64.1421 1063.61 503.688
2564 0 96.0474 15.003 1441 60.7883 1063.97 500.547
2565 0 96.1876 12.3509 1188 64.5438 1063.42 497.861
2566 0 99.0707 12.2438 1213 64.7733 1063.17 495.61
2567 0 104.183 11.7678 1226 64.5237 1063.45 495.644
2568 0 108.174 12.7665 1381 62.9645 1062.93 495.694
2569 1 56.0428 9.63549 540 63.9 1063.84 520.981
2570 0 58.0362 9.99377 580 63.2362 1063.09 521.022
2571 0 58.0292 8.27169 480 64.7708 1063.18 520.01
2572 0 63.1041 10.237 646 62.3622 1063.56 516.42
2573 0 64.0505 9.92967 636 63.0236 1063.2 515.802
2574 0 66.0842 11.9544 790 60.3684 1063.44 515.58
2575 0 69.1961 12.0527 834 60.1475 1063.34 514.642
2576 0 72.0712 12.4044 894 59.3154 1063.42 512.803
2577 0 76.1301 11.8481 902 59.3126 1063.38 511.396
2578 0 78.143 12.0932 945 58.9471 1063.04 510.712
2579 0 78.0977 12.0106 938 59.0064 1062.91 509.737
2580 0 83.1969 13.7866 1147 56.9085 1062.85 503.939
2581 0 86.1274 13.1898 1136 56.9481 1063.2 506.349
2582 0 89.1911 11.537 1029 58.8387 1063 504.659
2583 0 90.1328 12.1044 1091 58.615 1062.93 501.197
2584 0 94.1503 14.4981 1365 55.3524 1062.68 501.95
2585 0 97.1455 12.6717 1231 57.1933 1063.08 498.916
2586 0 100.3 13.0209 1306 57.0168 1063.14 497.441
2587 0 101.168 11.1696 1130 59.3637 1062.77 493.574
2588 0 104.13 10.8807 1133 60.0097 1062.78 489.958
2589 0 110.187 11.9252 1314 58.124 1062.94 494.667
2590 1 55.0854 10.8014 595 55.6975 1063.12 519.593
2591 0 57.0585 8.95572 511 56.454 1063.46 521.988
2592 0 57.0306 8.71461 497 57.4447 1063.13 519.084
2593 0 62.1267 9.96351 619 56.5396 1063.6 517.834
2594 0 62.0782 10.6318 660 55.7167 1063.28 518.158
2595 0 63.0864 11.9836 756 54.8307 1063.37 514.868
2596 0 66.0332 8.99548 594 57.5589 1063.12 515.869
2597 0 67.1062 9.59674 644 56.7516 1063.61 514.702
2598 0 70.1476 10.6347 746 55.4853 1064.19 512.824
2599 0 72.1769 10.308 744 56.297 1063.94 510.797
2600 0 72.1215 10.1911 735 57.1007 1063.73 512.19
2601 0 76.0736 11.5152 876 56.1016 1062.68 508.735
2602 0 78.0855 10.655 832 56.8894 1062.46 506.368
2603 0 78.0763 10.1567 793 57.652 1062.8 506.773
2604 0 84.0979 10.6067 892 56.9081 1062.55 504.465
2605 0 85.1054 11.1626 950 56.181 1062.52 501.685
2606 0 87.0862 10.9661 955 56.8482 1062.66 501.894
2607 1 45.0746 8.6967 392 57.3674 1062.98 523.033
2608 0 46.0323 9.64541 444 56.8896 1062.22 522.721
2609 0 46.0278 8.82075 406 58.8079 1062.9 521.889
2610 0 49.0288 9.46383 464 58.1573 1062.62 522.334
2611 0 49.0615 9.29446 456 58.5417 1063.24 522.732
2612 0 53.0875 9.98352 530 57.4792 1063.58 519.779
2613 0 54.0649 11.5417 624 56.2724 1062.29 519.671
2614 0 56.0323 9.78007 548 58.2664 1062.55 518.776
2615 0 58.0496 11.0595 642 57.2492 1062.4 518.502
2616 0 60.1236 12.0585 725 56.2055 1062.34 515.887
2617 0 61.0566 10.564 645 57.5721 1062.61 513.318
2618 0 63.0266 11.043 696 57.9152 1063.28 515.164
2619 0 64.0626 10.5054 673 57.8217 1062.98 517.334
2620 0 67.0818 11.6276 780 57.3538 1063.35 510.869
2621 0 69.0386 12.3264 851 56.4595 1063.01 510.364
2622 0 72.0851 10.6679 769 57.1027 1062.76 515.93
2623 0 74.027 12.1712 901 56.263 1062.91 508.752
2624 0 75.089 10.8937 818 57.956 1062.81 511.693
2625 0 77.0531 10.1748 784 59.449 1062.05 506.378
2626 1 41.0429 9.55099 392 59.0918 1061.88 526.653
2627 0 41.03 9.18839 377 59.9019 1061.1 526.231
2628 0 43.053 9.9877 430 58.593 1061.8 527.272
2629 0 45.0611 9.98644 450 59.3711 1061.3 523.82
2630 0 46.0229 10.321 475 59.0232 1061.63 526.575
2631 0 48.0355 11.7205 563 57.1599 1061.56 524.44
2632 0 47.09 10.172 479 59.977 1062.52 521.785
2633 0 50.0608 10.647 533 58.878 1062.41 520.846
2634 0 52.0366 11.0883 577 58.3501 1062.52 521.326
2635 0 54.0954 9.74204 527 59.2296 1062.14 523.6
2636 0 56.12 10.9052 612 58.2288 1062.07 521
2637 0 59.0577 10.3289 610 59.3902 1061.64 518.787
2638 0 58.0569 10.9031 633 58.297 1061.82 522.665
2639 0 58.0792 11.1744 649 59.3405 1062.58 518.582
2640 0 62.0914 12.9003 801 56.7353 1062.8 516.742
2641 0 65.1241 12.9445 843 56.6477 1062.64 516.592
2642 0 66.1683 12.0148 795 57.9019 1062.18 513.854
2643 0 70.1297 12.6622 888 56.1092 1062.51 517.244
2644 0 71.1835 11.0419 786 58.3779 1062.32 516.27
2645 0 74.1057 12.4822 925 56.7286 1062.46 514.49
2646 0 77.3326 11.2113 867 58.2572 1062.86 512.474
2647 1 39.0344 10.0937 394 59.1624 1062.64 532.48
2648 0 41.0226 9.87261 405 59.6074 1063.03 531.83
2649 0 41.0683 9.66681 397 60.4106 1062.61 530.554
2650 0 43.0414 10.2227 440 60.6 1063.31 529.868
2651 0 46.1621 12.6727 585 56.8376 1062.73 527.711
2652 0 48.0825 11.8338 569 56.7768 1062.56 528.026
2653 0 50.0763 11.4825 575 58.1739 1061.73 527.179
2654 0 50.1051 10.937 548 59.0931 1062.63 526.695
2655 0 50.0938 12.2371 613 57.9788 1062.74 527.196
2656 0 50.0428 11.4902 575 60.0313 1062.91 526.325
2657 0 55.0506 11.9526 658 58.2675 1063.18 523.854
2658 0 53.139 11.4982 611 59.8985 1062.96 526.188
2659 0 57.0402 12.6227 720 58.0444 1062.79 523.84
2660 0 59.1347 12.1418 718 57.9345 1063.19 524.156
2661 0 60.082 11.9171 716 58.8101 1062.75 523.108
2662 0 61.049 14.3983 879 55.6473 1063.35 520.383
2663 0 62.068 13.0502 810 57.8284 1062.91 519.901
2664 0 65.085 12.5836 819 58.127 1063.1 520.719
2665 0 64.0868 11.5156 738 59.7073 1063.76 522.304
2666 0 67.0626 14.2255 954 56.5472 1063.97 519.982
2667 0 68.1588 12.5149 853 58.2614 1063.6 518.977
2668 0 70.1795 15.3749 1079 54.912 1062.59 516.586
2669 0 71.1291 12.7374 906 57.7539 1062.65 516.715
2670 0 72.1826 12.3991 895 57.9899 1062.63 515.572
2671 0 75.1038 13.448 1010 56.8911 1062.22 516.022
2672 0 77.173 13.1911 1018 57.5069 1062.7 512.156
2673 0 79.0764 13.0254 1030 57.9058 1062.39 512.723
2674 0 82.1839 12.3504 1015 58.001 1063 514.28
2675 0 85.155 14.1272 1203 56.1372 1063.33 514.089
2676 0 87.1727 13.9149 1213 56.3611 1063.62 512.088
2677 0 90.1059 14.3276 1291 56.0085 1062.84 510.672
2678 0 90.1011 12.6303 1138 58.6213 1062.99 507.473
2679 0 93.1855 14.9487 1393 55.7351 1062.79 507.974
2680 0 96.1189 13.8682 1333 56.9685 1062.69 508.372
2681 0 97.0462 14.0655 1365 56.9172 1062.49 504.884
2682 0 100.293 14.5574 1460 56.4445 1062.73 504.79
2683 0 104.251 13.4483 1402 57.5585 1062.27 501.73
2684 0 105.122 14.2882 1502 57.4341 1062.57 500.918
2685 0 108.114 12.7458 1378 59.0102 1062.13 505.009
2686 0 112.126 14.2964 1603 57.3855 1062.02 500.956
2687 0 116.267 15.3182 1781 56.0112 1062.47 501.724
2688 0 118.205 14.6017 1726 57.0632 1062.45 500.197
2689 1 49.0558 12.7406 625 61.5744 1062.58 524.478
2690 0 53.3144 12.5857 671 60.146 1063.01 527.086
2691 0 52.1722 12.4396 649 60.9661 1062.86 526.555
2692 0 56.0378 13.5444 759 59.2701 1063.04 526.867
2693 0 57.0952 13.3812 764 59.8613 1063.32 523.736
2694 0 57.0455 13.4279 766 60.2089 1063.13 524.059
2695 0 60.1853 13.0431 785 60.2255 1062.22 523.685
2696 0 61.047 16.0696 981 57.209 1063.12 521.738
2697 0 63.0938 14.74 930 58.7978 1062.93 519.294
2698 0 66.1084 14.2796 944 58.8422 1063.04 520.865
2699 0 68.1336 14.5596 992 58.5363 1063.83 519.15
2700 0 69.1266 14.0322 970 59.6186 1063.71 518.481
2701 0 72.0865 13.8029 995 60.1296 1063.41 517.723
2702 0 74.1942 15.0281 1115 59.1525 1063.88 516.813
2703 0 74.1431 14.9441 1108 59.8962 1064.12 514.775
2704 0 77.0806 13.8945 1071 60.0672 1064.04 513.753
2705 0 81.0395 16.202 1313 57.5156 1063.32 512.722
2706 0 82.1741 15.1386 1244 59.2637 1063.61 512.71
2707 0 85.2894 13.4366 1146 60.8935 1063.58 512.076
2708 0 86.1031 14.622 1259 60.6013 1063.4 509.817
2709 0 91.0572 15.0345 1369 59.4806 1063.48 510.128
2710 1 43.1064 13.4087 578 60.0952 1063.89 532.114
2711 0 44.0308 13.4224 591 60.8173 1063.71 531.809
2712 0 45.0559 12.4512 561 61.5401 1063.9 532.055
2713 0 45.0281 12.7476 574 61.8397 1062.98 529.181
2714 0 49.0365 12.8068 628 60.2468 1063.96 530.823
2715 0 51.083 15.1322 773 57.2432 1063.74 529.906
2716 0 49.0977 10.693 525 63.6686 1063.91 529.882
2717 0 53.1008 13.8981 738 59.8564 1063.78 528.297
2718 0 54.0606 12.782 691 60.6831 1063.67 528.766
2719 0 56.1016 13.7786 773 59.7775 1063.89 526.547
2720 0 58.1259 13.574 789 60.0089 1064.38 524.536
2721 0 59.1718 13.9594 826 60.1998 1063.96 524.467
2722 0 61.1868 13.4343 822 60.8272 1063.3 523.634
2723 0 62.1177 14.4242 896 60.1496 1064.37 522.45
2724 0 64.0399 13.1793 844 61.4834 1063.93 521.307
2725 0 64.1664 13.2 847 62.1665 1063.32 521.745
2726 0 66.0767 14.3621 949 61.2624 1063.42 518.972
2727 0 67.1261 11.9626 803 63.9838 1063.94 519.281
2728 0 70.1202 11.8511 831 64.2322 1064.03 517.792
2729 0 72.1487 13.195 952 63.5693 1064.07 515.471
2730 1 35.0375 10.3889 364 63.6566 1063.87 535.808
2731 0 37.0176 10.7246 397 62.6297 1063.43 535.307
2732 0 37.0651 10.0634 373 64.4987 1063.78 534.745
2733 0 40.1214 12.6865 509 61.4578 1063.65 531.599
2734 0 42.1245 11.7034 493 62.1075 1064.14 533.089
2735 0 41.1466 10.6692 439 64.6697 1063.67 530.264
2736 0 45.0985 11.996 541 61.8669 1063.47 530.669
2737 0 46.0981 11.8226 545 62.7413 1064.18 531.233
2738 0 45.0437 10.8339 488 65.0922 1063.86 528.346
2739 0 48.3818 13.8689 671 60.1595 1063.18 528.791
2740 0 48.0689 12.7109 611 62.8429 1062.98 526.682
2741 0 50.0547 11.5674 579 62.8394 1063.81 528.691
2742 0 52.094 13.898 724 61.058 1063.64 526.645
2743 0 52.0652 11.6969 609 63.7192 1063.91 527.258
2744 0 56.1553 13.5695 762 60.5971 1063.96 526.394
2745 0 57.0552 12.5142 714 62.6288 1063.95 524.241
2746 0 59.2249 12.3766 733 62.3806 1064.21 523.243
2747 0 61.1088 12.3223 753 63.1753 1064.37 522.44
2748 0 64.0789 12.9216 828 62.279 1064.16 521.508
2749 0 66.2022 12.8546 851 61.9871 1064.39 521.967
2750 0 66.2281 12.4267 823 62.9769 1064.11 521.519
2751 0 67.2059 10.4306 701 65.5849 1063.2 517.732
2752 0 72.2027 12.1187 875 63.5646 1062.95 517.704
2753 0 74.159 12.2305 907 64.1345 1063.03 515.067
2754 0 76.2103 11.7045 892 64.4193 1063.6 515.519
2755 0 79.225 12.3951 982 63.4521 1063.92 514.368
2756 1 40.1306 10.8645 436 63.4335 1063.75 532.523
2757 0 39.1813 10.1324 397 64.4156 1063.9 531.073
2758 0 42.1594 11.4328 482 63.5332 1063.87 531.527
2759 0 46.1161 11.7529 542 62.166 1064.29 530.703
2760 0 44.157 11.0968 490 63.5796 1063.89 531.3
2761 0 45.0581 11.1634 503 64.0199 1064.02 530.827
2762 0 47.0696 11.1962 527 63.9715 1063.67 529.486
2763 0 46.065 11.0062 507 65.2091 1064.3 528.734
2764 0 50.0423 12.0298 602 62.7957 1064.72 527.726
2765 0 49.0239 10.7907 529 65.0851 1064.75 527.58
2766 0 51.1874 11.3895 583 64.6158 1063.97 526.743
2767 0 53.302 10.2435 546 65.6264 1064.35 526.139
2768 0 56.0651 12.2001 684 62.6623 1063.65 524.675
2769 0 57.1267 12.551 717 62.5286 1064.18 522.915
2770 0 59.1018 12.3008 727 63.121 1064.42 520.239
2771 0 60.0537 12.0059 721 63.301 1064.2 520.567
2772 0 63.0895 13.6631 862 61.0545 1064.57 520.492
2773 0 63.0439 12.0868 762 62.9724 1065.08 519.875
2774 0 64.1281 10.8845 698 65.2421 1064.97 518.659
2775 0 68.0506 13.2695 903 61.7265 1064.52 517.343
2776 0 71.1687 11.8451 843 63.4958 1064.01 517.762
2777 0 71.1172 12.7677 908 63.1101 1064.43 515.829
2778 0 71.0313 9.05235 643 66.9891 1064.05 514.547
2779 0 75.0788 9.66983 726 65.9532 1064.18 516.93
2780 0 80.0665 12.5271 1003 62.6102 1064.09 513.006
2781 1 38.0066 10.3666 394 64.4721 1063.11 533.827
2782 0 38.0728 9.92836 378 65.7936 1063.58 532.122
2783 0 43.0203 11.5527 497 63.0563 1064.23 530.65
2784 0 42.0676 10.9348 460 63.9956 1064.47 531.778
2785 0 42.0281 9.80296 412 66.2621 1063.76 530.364
2786 0 46.1133 11.5802 534 63.6498 1064.1 528.397
2787 0 47.113 10.8675 512 64.3223 1063.92 527.375
2788 0 47.0674 12.4502 586 62.9027 1063.98 527.328
2789 0 52.2274 11.7946 616 63.3003 1064.67 524.747
2790 0 51.053 12.2813 627 63.5965 1064.74 524.343
2791 0 52.19 12.3395 644 63.3571 1064.15 523.722
2792 0 55.0786 13.2719 731 61.6772 1064.49 524.135
2793 0 57.0494 13.1465 750 61.732 1064.99 523.039
2794 0 59.0752 14.1684 837 60.4648 1064.61 521.235
2795 0 60.0744 12.7675 767 62.4185 1064.74 522.801
2796 0 59.0759 12.1031 715 63.4294 1063.84 522.522
2797 0 63.0666 12.352 779 63.0347 1064.41 519.707
2798 0 65.1597 12.3082 802 63.0736 1063.75 519.594
2799 0 67.0657 13.196 885 62.6102 1065.03 515.419
2800 0 69.1139 12.2262 845 63.2734 1064.28 516.032
2801 0 72.2511 12.678 916 62.9192 1064.66 514.972
2802 0 71.1354 11.6538 829 64.7358 1064.57 514.34
2803 0 75.2259 11.6449 876 64.524 1064.79 512.771
2804 0 78.0574 13.1698 1028 62.3259 1064.61 511.87
2805 0 79.1509 11.7876 933 64.1458 1063.88 512.041
2806 1 39.0099 10.6383 415 64.4988 1063.93 533.477
2807 0 40.091 10.9002 437 64.0984 1064.54 531.483
2808 0 41.0219 10.0922 414 64.8164 1064.62 533.331
2809 0 42.0539 9.70182 408 65.5024 1064.16 531.674
2810 0 41.041 9.77071 401 66.7257 1064.49 528.975
2811 0 44.0685 10.6198 468 65.203 1064.9 528.543
2812 0 47.0455 12.2222 575 62.5774 1065.06 528.722
2813 0 48.0285 11.514 553 63.9313 1064.44 526.743
2814 0 49.0854 11.6939 574 64.4477 1063.97 526.035
2815 0 51.0715 12.8447 656 62.2942 1065.04 526.983
2816 0 51.0565 11.262 575 65.3235 1064.5 523.329
2817 0 52.036 11.6266 605 64.3653 1064.05 523.392
2818 0 55.1138 11.9934 661 63.4599 1064.72 524.98
2819 0 57.1048 12.9586 740 61.6392 1064.83 524.861
2820 0 57.135 11.1315 636 63.8821 1064.37 525.195
2821 0 59.1399 11.8702 702 62.4858 1064.7 523.473
2822 0 59.0514 10.7703 636 64.5393 1064.2 523.599
2823 0 61.0392 11.3861 695 64.1036 1064.46 520.551
2824 0 65.1558 13.2145 861 61.6806 1064.7 518.785
2825 0 66.0556 10.2338 676 64.2485 1065.13 522.503
2826 0 68.0203 12.511 851 62.2844 1065.08 517.169
2827 0 70.1256 11.6077 814 63.0934 1064.56 516.796
2828 0 73.0956 11.6012 848 63.1663 1064.99 515.784
2829 0 75.1255 12.9916 976 61.3914 1065.2 515.314
2830 1 39.0488 10.6021 414 63.6763 1064.9 531.034
2831 0 41.0345 10.9176 448 62.2188 1065.25 532.277
2832 0 43.0207 12.0872 520 62.2385 1065.56 530.521
2833 0 46.0674 11.0273 508 62.9075 1065.36 530.228
2834 0 46.0577 12.6146 581 61.2048 1064.83 529.948
2835 0 48.0196 13.4528 646 60.5774 1065.36 527.412
2836 0 48.0731 12.481 600 62.3983 1065.42 525.952
2837 0 49.067 11.8613 582 62.6357 1065.79 525.924
2838 0 52.1264 12.7191 663 60.4163 1065.4 526.932
2839 0 53.0736 12.2283 649 61.3683 1065.47 525.746
2840 0 53.058 11.1388 591 63.0135 1065.89 525.022
2841 0 55.1383 13.0762 721 60.2788 1066.34 524.273
2842 0 57.1299 12.2528 700 60.8471 1065.94 523.47
2843 0 59.0711 12.7135 751 60.0546 1065.39 522.095
2844 0 61.0957 12.9469 791 59.7927 1065.69 520.649
2845 0 60.0366 11.7262 704 61.7372 1065.1 521.348
2846 0 64.0661 12.8305 822 59.9757 1065.19 516.89
2847 0 66.1384 13.3659 884 59.0283 1065.98 519.079
2848 0 67.0747 12.0761 810 60.4815 1066.32 518.5
2849 0 68.1737 12.9522 883 59.9343 1066.16 515.911
2850 0 71.2264 12.7902 911 59.8299 1066.08 515.54
2851 0 73.1411 13.0706 956 59.2521 1066.14 513.509
2852 0 75.3289 12.7176 958 60.118 1065.85 509.606
2853 0 78.1094 17.1938 1343 45.1378 1065.32 517.419
2854 0 80.3211 11.4665 921 61.2519 1065.12 510.56
2855 1 42.2513 11.5026 486 60.0041 1066.1 529.385
2856 0 43.1071 11.6222 501 60.1936 1066.1 528.904
2857 0 42.0337 10.6819 449 62.314 1065.85 526.904
2858 0 40.0575 10.0855 404 63.2995 1066.77 525.126
2859 0 44.1464 11.7337 518 61.3494 1067.1 526.596
2860 0 48.1663 12.6437 609 59.2939 1066.08 526.783
2861 0 49.0304 11.2787 553 60.689 1066.75 525.226
2862 0 51.1551 14.6222 748 57.1644 1066.41 522.094
2863 0 52.0864 13.0552 680 58.9868 1066.35 523.888
2864 0 54.0942 13.3286 721 57.8641 1066.37 522.413
2865 0 55.2129 12.4971 690 58.7652 1066.41 523.442
2866 0 56.1489 11.6654 655 59.858 1066.13 521.218
2867 0 57.1054 11.2599 643 60.7014 1065.82 521.72
2868 0 61.16 12.4428 761 58.9869 1066.02 520.202
2869 0 58.3458 11.2433 656 61.218 1066.27 517.896
2870 0 64.1357 12.1773 781 59.1536 1065.83 516.406
2871 0 63.1635 11.7473 742 60.2547 1066.25 517.35
2872 0 65.0994 12.2428 797 59.8833 1065.09 515.851
2873 0 66.2639 12.1333 804 60.046 1065.99 514.769
2874 0 69.1191 12.4568 861 59.6063 1065.92 515.403
2875 0 73.2965 12.9201 947 59.0201 1065.27 514.005
2876 0 75.1268 12.7385 957 59.1379 1065.72 512.29
2877 0 77.1785 12.7626 985 59.3675 1065.71 510.759
2878 0 82.2053 14.3786 1182 57.1201 1066.16 508.964
2879 0 83.1052 14.9088 1239 57.3688 1065.78 507.072
2880 1 42.1043 9.28646 391 61.6266 1066.12 529.343
2881 0 45.0592 11.7401 529 59.068 1066.73 528.11
2882 0 46.1064 11.5602 533 59.0169 1066.04 527.315
2883 0 47.1206 10.8445 511 60.137 1066.36 527.296
2884 0 50.189 11.5563 580 59.1379 1065.51 526.7
2885 0 50.1647 11.0436 554 59.8881 1065.32 524.791
2886 0 53.1546 12.0027 638 58.3103 1065.87 526.005
2887 0 53.077 12.284 652 59.0675 1065.35 524.86
2888 0 56.1822 11.6941 657 59.4947 1065.49 523.577
2889 0 59.117 12.2131 722 58.9349 1065.51 521.913
2890 0 56.2735 10.058 566 61.9028 1065.53 519.228
2891 0 61.2216 11.3685 696 59.2328 1066.02 521.819
2892 0 62.2002 11.7363 730 59.3808 1066.71 521.188
2893 0 67.0973 13.7114 920 57.513 1066.67 516.622
2894 0 66.1215 10.7983 714 61.112 1066.16 515.241
2895 0 70.1371 12.5041 877 58.7651 1065.69 515.379
2896 0 73.2058 11.6521 853 59.7456 1065.84 514.491
2897 0 74.108 11.7126 868 60.2247 1066.04 510.484
2898 0 76.1364 12.3988 944 59.5339 1065.86 511.323
2899 0 78.1892 11.907 931 60.0258 1066.1 509.567
2900 0 82.1465 10.7369 882 61.339 1066.3 510.361
2901 0 83.1699 11.9995 998 60.504 1066.23 506.098
2902 1 41.0172 10.264 421 60.7435 1066.27 528.145
2903 0 44.023 11.3804 501 57.6687 1066.81 532.501
2904 0 45.0725 10.7161 483 60.1967 1066.68 529.151
2905 0 47.0156 11.3367 533 59.3978 1066.64 528.212
2906 0 47.0391 11.6074 546 59.7985 1066.76 525.231
2907 0 49.0267 11.0348 541 60.5619 1066.73 525.316
2908 0 50.0441 9.71143 486 62.0206 1066.6 524.605
2909 0 52.0842 10.0222 522 61.6322 1067.05 523.975
2910 0 54.1321 11.5458 625 59.584 1066.43 524.848
2911 0 57.0381 11.9219 680 58.8176 1065.87 521.994
2912 0 56.0352 10.5826 593 60.6627 1065.34 521.782
2913 0 57.0506 9.88596 564 61.789 1065.8 521.684
2914 0 58.1104 10.6349 618 60.6408 1065.25 520.257
2915 0 62.1484 11.9392 742 58.6792 1065.77 522.226
2916 0 64.046 12.9751 831 57.6895 1066.02 518.17
2917 0 67.1049 11.3106 759 59.2332 1065.81 518.962
2918 0 67.0409 12.3954 831 58.7389 1065.31 514.413
2919 0 69.1547 10.8597 751 60.269 1065.64 516.365
2920 0 74.188 13.8837 1030 56.2505 1065.33 514.561
2921 0 75.2637 12.1971 918 59.0937 1065.62 512.8
2922 1 39.028 12.5039 488 56.7438 1065.78 531.156
2923 0 39.0135 10.7911 421 59.1972 1066.05 531.328
2924 0 40.0255 10.6682 427 59.7494 1065.42 528.754
2925 0 41.042 8.9908 369 61.8916 1065.18 530.293
2926 0 44.1182 11.1065 490 59.8837 1065.77 528.065
2927 0 44.0621 11.3249 499 60.2164 1064.84 527.413
2928 0 46.1426 10.7926 498 60.9197 1064.6 526.773
2929 0 47.0663 10.6233 500 59.944 1065.22 527.75
2930 0 48.0234 12.3273 592 58.853 1064.43 526.265
2931 0 48.0611 10.778 518 61.2741 1064.54 525.365
2932 0 51.0811 10.3561 529 60.637 1065.1 524.312
2933 0 54.0339 11.4558 619 59.4281 1064.4 525.48
2934 0 54.0891 10.9634 593 60.6998 1064.93 524.791
2935 0 56.0699 11.771 660 59.6242 1065.18 524.212
2936 0 57.1176 11.1174 635 60.7795 1064.63 521.521
2937 0 56.1714 8.43846 474 64.0443 1064.02 522.162
2938 0 61.1015 12.0455 736 59.4565 1064.72 520.268
2939 0 61.0935 11.6706 713 59.8121 1064.32 521.767
2940 0 63.0693 9.70361 612 62.585 1064.13 518.99
2941 0 66.0361 12.0843 798 59.6353 1064.33 519.771
2942 0 67.0585 10.3343 693 62.4834 1064.85 516.986
2943 0 68.079 10.7081 729 62.4513 1065.03 514.207
2944 0 72.0545 11.0056 793 61.3707 1064.63 515.411
2945 0 76.0904 13.4314 1022 58.4178 1064.77 514.214
2946 0 77.0778 11.5338 889 61.09 1065.1 514.841
2947 0 79.1131 11.0854 877 61.919 1065.56 513.714
2948 0 81.1404 11.1782 907 62.0838 1065.19 512.493
2949 0 86.1192 11.6002 999 61.7087 1065.09 509.824
2950 1 41.0571 8.76828 360 65.2472 1065.11 528.656
2951 0 48.0727 11.649 560 59.9446 1064.78 528.686
2952 0 49.0703 11.5752 568 61.0264 1064.52 528.523
2953 0 48.025 10.7028 514 63.3249 1065.27 527.167
2954 0 49.3144 10.6865 527 63.888 1064.67 525.319
2955 0 52.0445 12.374 644 61.6646 1064.85 523.905
2956 0 54.0715 11.4108 617 62.3825 1064.56 524.446
2957 0 53.072 10.401 552 64.5797 1064.64 523.359
2958 0 56.0612 10.0426 563 64.4636 1064.84 524.652
2959 0 57.0839 11.8422 676 62.0385 1064.98 523.507
2960 0 60.0447 10.792 648 63.1003 1064.94 522.676
2961 0 64.289 12.226 786 60.8435 1064.69 520.702
2962 0 64.0902 12.654 811 60.73 1065.04 519.409
2963 0 66.1816 11.0151 729 61.9396 1065.53 518.073
2964 0 67.1614 11.0331 741 62.637 1066.13 516.171
2965 0 69.17 11.5946 802 62.3329 1065.06 515.267
2966 0 73.2317 13.1091 960 59.3552 1064.66 515.388
2967 0 70.1474 10.9484 768 63.0495 1064.91 511.598
2968 0 77.1294 11.3835 878 61.1333 1064.93 514
2969 0 77.1661 13.3608 1031 59.6828 1064.9 509.495
2970 1 39.1013 10.1275 396 62.6136 1064.54 528.308
2971 0 42.0494 12.0573 507 59.6351 1064.29 528.986
2972 0 41.1078 10.1684 418 62.8995 1064.54 528.665
2973 0 43.1264 10.5968 457 62.0656 1064.86 527.987
2974 0 45.0224 11.5498 520 60.3423 1064.7 525.612
2975 0 48.0916 10.7919 519 60.2929 1064.71 527.601
2976 0 46.0805 11.6752 538 58.9628 1065.07 529.043
2977 0 49.1689 11.6944 575 59.113 1065.01 525.878
2978 0 50.0913 11.6986 586 58.913 1064.76 526.758
2979 0 53.0472 10.6697 566 59.0495 1065.07 528.55
2980 0 55.0832 11.9274 657 57.9513 1064.35 525.257
2981 0 55.0606 11.2966 622 59.2492 1064.45 521.998
2982 0 59.0567 11.9038 703 57.0754 1064.72 524.24
2983 0 58.1707 11.6038 675 58.3615 1064.61 520.69
2984 0 59.061 11.0056 650 59.2031 1064.63 519.3
2985 0 64.0623 11.1142 712 58.3736 1065.49 519.386
2986 0 63.1504 10.4987 663 59.4781 1064.75 518.94
2987 0 66.0478 10.5227 695 58.6705 1065.2 519.214
2988 0 69.0528 10.9192 754 58.0225 1065.23 516.67
2989 0 72.2272 11.713 846 56.8345 1065.5 515.794
2990 0 75.1105 10.2382 769 58.3329 1064.89 513.111
2991 0 77.0502 12.3686 953 55.6873 1064.86 515.492
2992 0 77.0895 10.637 820 57.939 1065.31 513.427
2993 0 81.0516 10.7216 869 58.3993 1065.49 509.28
2994 1 42.0867 11.7852 496 55.8367 1065.48 529.44
2995 0 44.068 10.2796 453 56.7285 1063.95 529.808
2996 0 44.026 9.31268 410 58.8268 1065.66 528.334
2997 0 46.0445 10.8591 500 57.754 1065.25 528.548
2998 0 46.1414 10.1644 469 58.9829 1065.17 525.171
2999 0 48.036 12.1575 584 56.1387 1065.29 524.623
3000 0 50.0942 10.0012 501 58.2814 1065.61 521.299
3001 0 53.0813 9.49487 504 58.5496 1065.4 524.091
3002 0 53.0394 9.46466 502 59.0956 1064.97 520.896
3003 0 57.1787 10.3885 594 57.367 1065.56 521.771
3004 0 59.0886 11.6943 691 56.2518 1065.26 521.63
3005 0 59.1317 8.81084 521 59.2418 1065.92 523.566
3006 0 62.0638 12.3905 769 55.58 1065.04 517.883
3007 0 64.1705 11.5785 743 56.109 1065.28 518.328
3008 0 65.1444 10.8835 709 56.6065 1065.41 519.715
3009 0 67.1379 11.6626 783 56.3704 1065.5 516.727
3010 0 70.1501 11.4326 802 55.8653 1065.55 517.302
3011 0 72.1887 12.7305 919 54.8716 1065.88 514.028
3012 0 73.1738 10.9875 804 57.1766 1066 514.863
3013 0 76.0823 10.0549 765 57.732 1065.97 515.312
3014 0 77.1671 9.95242 768 58.431 1066.03 511.85
3015 0 79.0699 9.64969 763 58.9738 1066.21 512.008
3016 0 83.1938 11.0104 916 57.4738 1066.18 510.886
3017 1 44.0313 9.08445 400 59.305 1065.6 528.728
3018 0 46.0566 11.247 518 56.3514 1065.04 530.357
3019 0 49.0309 12.074 592 55.4949 1065.33 527.684
3020 0 51.0675 10.7701 550 57.4709 1065.39 525.711
3021 0 51.0318 11.9141 608 56 1065.62 526.607
3022 0 53.1668 11.4169 607 56.9539 1065.39 525.186
3023 0 54.174 11.0939 601 57.8785 1065.37 523.835
3024 0 57.1015 11.5233 658 55.9407 1065.68 524.375
3025 0 57.0642 9.98876 570 58.7719 1064.53 522.893
3026 0 60.0256 12.2781 737 56.2198 1065.59 521.624
3027 0 62.0528 10.4911 651 57.1167 1065.22 523.839
3028 0 64.1154 12.8674 825 54.0752 1064.89 522.778
3029 0 66.054 11.4755 758 56.6306 1064.84 518.728
3030 0 70.0897 12.3271 864 55.0405 1065.61 519.132
3031 0 68.1296 10.935 745 57.0107 1064.99 518.157
3032 0 73.1909 13.4989 988 54.5597 1064.86 517.191
3033 0 75.1175 12.1144 910 54.5297 1066.09 514.834
3034 0 76.1305 11.7955 898 55.1002 1066.05 512.102
3035 0 78.0823 12.2435 956 54.4707 1065.69 510.734
3036 0 81.1638 12.1483 986 54.1379 1065.97 511.277
3037 0 83.0872 11.4217 949 54.9389 1066.14 509.718
3038 1 42.0235 8.97118 377 57.7348 1065.49 529.475
3039 0 43.1314 9.8536 425 55.8353 1065.65 529.901
3040 0 44.1486 12.6165 557 54.3447 1065.09 526.662
3041 0 46.0805 11.2412 518 55.7355 1064.82 526.736
3042 0 47.0307 11.652 548 55.8321 1065.14 525.971
3043 0 50.0782 10.6833 535 56.4673 1065.05 523.639
3044 0 52.073 11.0038 573 55.986 1065.43 523.813
3045 0 54.0751 12.0573 652 54.589 1065.05 520.517
3046 0 53.0648 10.0066 531 57.4369 1064.5 520.262
3047 0 56.0392 9.8681 553 57.3797 1065.37 519.957
3048 0 56.0629 9.77474 548 57.6971 1064.91 518.909
3049 0 58.1811 10.897 634 55.6719 1065.84 517.875
3050 0 58.0905 9.84671 572 56.6853 1065.6 517.058
3051 0 63.0761 12.477 787 53.6036 1065.18 518.173
3052 0 61.19 10.2795 629 56.4404 1065.16 517.948
3053 0 62.0943 9.45337 587 57.9847 1065.18 514.915
3054 0 68.0682 10.9743 747 55.6774 1064.77 513.541
3055 0 70.0392 12.7928 896 53.7511 1064.76 513.007
3056 0 70.1158 9.37022 657 57.1142 1065.51 510.673
3057 0 74.0576 11.14 825 55.3333 1065.01 512.846
3058 0 75.0637 12.123 910 54.8758 1065.24 510.47
3059 0 78.0875 11.2822 881 55.6572 1065.11 511.124
3060 0 79.0955 10.7844 853 55.8066 1065.36 511.519
3061 0 84.1526 10.2908 866 56.3349 1065.25 507.664
3062 0 83.228 9.492 790 57.4709 1065.29 507.701
3063 0 89.0828 12.9767 1156 54.0251 1065.55 504.039
3064 0 93.1688 11.7099 1091 54.4812 1065.64 507.126
3065 1 47.0309 8.84525 416 57.0769 1065.5 525.873
3066 0 48.1089 9.12513 439 58.0478 1065.47 523.472
3067 0 52.0481 10.7209 558 54.9552 1065.07 525.962
3068 0 53.0404 11.2933 599 55.0501 1064.73 522.82
3069 0 54.0347 11.9738 647 54.7697 1065.17 522.943
3070 0 55.0427 9.88324 544 57.2684 1064.99 523.294
3071 0 58.0653 11.1943 650 54.7631 1065.83 521.52
3072 0 58.1112 10.8585 631 55.7132 1065.16 518.216
3073 0 59.0584 10.261 606 56.7475 1064.92 519.116
3074 0 62.0859 10.8559 674 55.8309 1064.94 517.733
3075 0 63.131 9.5674 604 57.1838 1065.57 516.636
3076 0 67.0402 11.963 802 54.4988 1065.5 519.029
3077 0 70.0958 11.5414 809 54.958 1065.85 514.659
3078 0 72.1257 11.1472 804 55.2065 1065.79 514.935
3079 0 73.1106 11.38 832 55.1647 1065.52 512.928
3080 0 74.1625 10.7602 798 56.2431 1065.29 512.034
3081 0 78.1254 15.0527 1176 51.8376 1065.79 511.412
3082 0 80.1477 12.4894 1001 55.0929 1065.26 511.241
3083 0 80.1627 10.8404 869 57.6755 1065.84 508.323
3084 0 85.221 12.8137 1092 55.7189 1065.47 504.437
3085 0 88.2987 11.5743 1022 56.4834 1065.78 506.647
3086 0 90.2884 12.017 1085 56.423 1065.52 504.046
3087 0 92.2349 10.9178 1007 58.428 1065.88 500.016
3088 0 94.1769 10.1723 958 59.7871 1065.66 498.439
3089 0 97.1672 10.8782 1057 58.9338 1065.63 499.992
3090 0 103.091 13.3377 1375 55.7389 1066.27 499.11
3091 0 105.242 12.0009 1263 57.6057 1065.79 495.359
3092 0 106.263 9.88114 1050 60.2171 1065.73 493.24
3093 1 56.1483 9.97359 560 58.4661 1065.46 520.482
3094 0 57.1391 12.8283 733 55.9891 1065.67 519.679
3095 0 58.1285 10.4252 606 59.2904 1066.32 517.152
3096 0 62.1556 12.0826 751 56.2676 1065.78 520.503
3097 0 62.1306 10.7676 669 58.5202 1066.12 518.49
3098 0 66.1823 13.7499 910 54.7725 1067.24 516.621
3099 0 67.078 11.7773 790 56.5924 1067.08 518.353
3100 0 67.0656 11.8541 795 57.5082 1066.96 515.748
3101 0 71.0694 12.9732 922 55.5683 1066.94 515.424
3102 0 71.1502 10.3865 739 58.341 1066.98 515.442
3103 0 77.1886 15.2613 1178 53.0501 1066.7 511.512
3104 0 77.106 12.9692 1000 55.565 1066.6 512.87
3105 0 79.1158 12.1973 965 57.1948 1066.46 510.361
3106 0 83.0672 11.581 962 58.1622 1066.95 506.817
3107 0 84.171 11.5242 970 58.1124 1066.94 507.624
3108 0 85.0886 9.93082 845 60.6225 1067.41 504.219
3109 0 90.1308 12.4153 1119 57.4236 1067.51 502.651
3110 1 48.0709 11.4622 551 57.98 1067.02 525.358
3111 0 47.0293 12.0138 565 58.6301 1067.01 522.133
3112 0 50.1909 10.2409 514 60.3366 1066.3 522.008
3113 0 52.03 12.2045 635 58.4032 1066.36 520.332
3114 0 54.0524 11.7664 636 58.8884 1066.64 521.124
3115 0 55.0446 11.5543 636 59.2704 1066.42 519.967
3116 0 55.0874 11.7268 646 59.6068 1066.56 517.808
3117 0 58.04 12.7843 742 58.2534 1066.36 517.85
3118 0 58.0952 10.9648 637 60.3014 1066.3 517.653
3119 0 62.0795 14.7553 916 55.738 1066.91 516.848
3120 0 64.2386 11.9554 768 58.75 1067.04 514.934
3121 0 65.0546 12.2666 798 58.584 1067.06 515.99
3122 0 67.0672 10.989 737 59.9077 1066.52 514.643
3123 0 68.1394 12.8413 875 58.2903 1066.85 511.12
3124 0 71.0878 12.4213 883 58.2458 1066.47 512.407
3125 0 73.094 14.2009 1038 56.5395 1066.65 509.331
3126 0 76.0755 13.3157 1013 57.1441 1066.92 511.541
3127 0 78.075 11.9885 936 59.1132 1065.87 507.07
3128 0 81.0916 12.899 1046 57.913 1066.73 507.459
3129 0 82.2063 11.6171 955 59.5037 1067.33 508.027
3130 0 86.1052 13.2512 1141 58.2103 1067.59 503.852
3131 1 45.034 10.0813 454 60.0242 1067.48 526.229
3132 0 47.0887 12.0199 566 58.1343 1066.73 525.136
3133 0 47.0268 10.9087 513 60.4795 1067.29 522.117
3134 0 50.0794 13.7781 690 56.9232 1066.44 523.299
3135 0 52.0238 12.3982 645 58.9566 1066.38 522.057
3136 0 53.0641 11.8913 631 59.8669 1066.69 521.379
3137 0 55.1054 13.3925 738 58.122 1066.41 522.29
3138 0 56.1228 11.2076 629 60.8839 1066.78 521.04
3139 0 58.0902 13.634 792 57.8813 1066.77 520.164
3140 0 59.0832 13.2356 782 59.3619 1066.31 519.201
3141 0 62.0852 13.8197 858 58.817 1066.54 515.994
3142 0 65.1461 12.6638 825 59.4473 1066.66 517.261
3143 0 66.0371 13.4318 887 59.3754 1065.33 514.545
3144 0 70.095 13.8669 972 58.3282 1065.65 514.317
3145 0 69.0616 13.2635 916 60.0011 1065.96 514.897
3146 0 73.0859 11.9175 871 60.9678 1066.06 515.357
3147 0 75.0828 13.0256 978 60.226 1065.81 513.075
3148 0 76.1936 11.5495 880 61.8011 1066.08 513.676
3149 0 81.2926 13.6298 1108 58.8375 1065.4 512.485
3150 0 82.0884 12.3891 1017 60.7217 1065.59 511.89
3151 0 84.0825 12.8683 1082 60.5499 1065.75 506.855
3152 0 87.181 13.2139 1152 59.7578 1065.61 506.506
3153 0 91.2251 13.5489 1236 59.1472 1065.44 506.388
3154 0 93.1084 14.1663 1319 58.6967 1065.04 503.839
3155 0 96.0743 12.865 1236 59.7549 1065.12 503.982
3156 0 98.159 14.1505 1389 58.9482 1064.7 501.378
3157 1 50.1298 14.3827 721 59.4105 1065.33 526.313
3158 0 50.0258 10.8744 544 64.0772 1064.95 525.015
3159 0 53.0834 12.3956 658 62.5334 1065.05 522.863
3160 0 56.0769 12.786 717 61.7266 1064.86 523.697
3161 0 57.1122 13.3597 763 61.0944 1064.88 522.107
3162 0 58.0354 13.3712 776 61.308 1064.61 520.035
3163 0 60.0641 14.0517 844 60.7607 1064.89 520.335
3164 0 60.0856 12.0328 723 63.3914 1065.31 518.963
3165 0 63.1061 13.2634 837 61.6977 1065.42 518.419
3166 0 63.046 13.6726 862 61.6671 1065.47 517.754
3167 0 68.0964 14.3914 980 60.2449 1064.75 516.61
3168 0 69.0733 15.1578 1047 59.7211 1065.04 513.41
3169 0 72.097 12.719 917 62.012 1065.46 514.594
3170 0 73.0716 13.9863 1022 61.3522 1065.37 510.818
3171 0 75.1402 13.0024 977 62.7738 1065.05 511.011
3172 0 79.0624 14.4316 1141 60.4996 1065.62 511.513
3173 0 80.0876 13.8848 1112 61.8426 1065.18 509.328
3174 0 85.0892 14.9725 1274 60.5196 1064.74 507.488
3175 0 85.1002 13.5605 1154 63.123 1065.51 504.88
3176 0 89.0702 14.9882 1335 60.9798 1065.26 503.383
3177 0 90.0604 15.423 1389 60.7473 1065.37 504.673
3178 0 94.1607 12.7548 1201 64.2914 1065.53 503.41
3179 1 44.0988 12.472 550 66.0618 1065.98 523.644
3180 0 47.0246 12.8443 604 64.7417 1065.82 524.982
3181 0 48.1282 12.342 594 63.9057 1065.55 527.847
3182 0 50.0567 13.0053 651 65.0906 1065.39 522.859
3183 0 51.0694 11.9641 611 66.4566 1065.36 523.547
3184 0 53.1409 14.6215 777 62.9447 1065.42 522.974
3185 0 53.0618 11.7033 621 66.7262 1065.28 522.209
3186 0 56.2547 12.7812 719 65.2504 1065.42 520.271
3187 0 59.095 13.1653 778 65.0244 1065.24 519.584
3188 0 58.1062 13.1311 763 65.9292 1065.53 515.376
3189 0 60.033 12.2099 733 66.5321 1065.53 517.881
3190 0 64.1383 13.923 893 64.6305 1065.46 514.513
3191 0 66.149 13.7115 907 65.0573 1065.43 514.46
3192 0 68.0888 13.7174 934 65.2837 1065.5 513.819
3193 0 72.2183 15.7162 1135 62.7207 1065.95 513.057
3194 0 73.0957 14.2006 1038 64.7582 1065.53 511.741
3195 0 72.1787 13.2588 957 66.6646 1064.82 508.463
3196 0 77.2216 13.5454 1046 65.3059 1065.62 511.179
3197 0 80.211 14.5491 1167 64.599 1064.93 509.862
3198 0 82.1608 13.4371 1104 65.9357 1064.8 506.129
3199 0 83.0975 13.5022 1122 66.508 1064.88 504.93
3200 0 88.1706 14.8235 1307 64.127 1065.48 505.893
3201 0 88.2023 13.9792 1233 65.4209 1065.91 506.66
3202 0 93.0824 14.933 1390 64.0029 1065.63 503.706
3203 0 95.1691 14.9418 1422 63.9916 1065.95 500.615
3204 1 47.169 11.7238 553 65.0597 1065.92 524.957
3205 0 47.0989 13.1213 618 64.4353 1065.51 523.17
3206 0 49.0422 11.3576 557 65.7953 1065.4 523.786
3207 0 50.1269 11.4509 574 66.2247 1065.5 521.037
3208 0 50.0473 9.71081 486 68.2181 1065.71 520.862
3209 0 53.116 13.2728 705 63.9248 1065.73 516.84
3210 0 55.0537 11.4615 631 65.5087 1065.22 517.626
3211 0 57.0891 11.736 670 64.5507 1065.48 517.29
3212 0 58.075 11.6918 679 65.084 1065.46 513.735
3213 0 60.1335 12.572 756 62.7526 1065.35 517.417
3214 0 64.1106 11.8233 758 64.5158 1065.51 513.636
3215 0 65.064 11.9882 780 64.0295 1065.52 514.941
3216 0 66.0666 13.6983 905 62.8376 1066.06 511.406
3217 0 68.1684 10.9141 744 64.2903 1065.76 516.285
3218 0 71.1038 11.8559 843 64.0807 1065.12 511.244
3219 0 70.0716 10.3323 724 67.0207 1066.23 508.775
3220 0 75.2913 11.502 866 65.306 1065.42 507.103
3221 0 79.1391 13.0909 1036 63.2664 1066.46 506.911
3222 0 79.0964 11.6819 924 65.4156 1066.21 504.231
3223 1 40.0198 9.64524 386 64.4534 1066.66 524.85
3224 0 41.0522 11.3514 466 62.9979 1067.13 524.676
3225 0 42.037 9.8009 412 63.801 1066.45 524.818
3226 0 44.0407 10.8536 478 63.8159 1066.35 521.41
3227 0 45.1099 11.9043 537 62.8007 1066.61 521.065
3228 0 46.0485 12.1394 559 62.2129 1066.83 523.966
3229 0 47.1486 10.0533 474 64.5211 1067.7 521.911
3230 0 49.0693 10.1285 497 63.9497 1067.02 524.386
3231 0 52.0448 10.1259 527 64.1176 1067.28 522.243
3232 0 53.0772 12.1333 644 62.4208 1067.22 519.699
3233 0 54.1731 10.2634 556 64.4335 1066.69 519.054
3234 0 54.1067 10.775 583 64.6124 1066.91 518.684
3235 0 59.0856 12.5073 739 61.5277 1066.38 516.93
3236 0 59.1015 11.1165 657 64.1461 1066.58 516.078
3237 0 62.0944 11.3859 707 63.884 1066.76 512.819
3238 0 64.0755 10.3784 665 64.4887 1066.38 517.472
3239 0 64.1143 9.31149 597 66.3317 1066.79 514.054
3240 0 69.1725 11.2183 776 63.8879 1067.12 512.621
3241 0 71.1838 11.7442 836 63.0622 1066.51 512.11
3242 1 34.0123 8.55572 291 63.7423 1067.57 527.746
3243 0 37.0181 9.2117 341 63.0762 1067.43 528.337
3244 0 39.0348 10.8109 422 60.2275 1066.89 529.064
3245 0 38.0324 10.307 392 61.8597 1066.84 528.097
3246 0 42.038 9.58655 403 61.8759 1067.26 527.846
3247 0 44.051 10.8283 477 59.7212 1066.52 528.029
3248 0 43.0219 9.18136 395 61.9671 1065.98 527.013
3249 0 43.0282 8.80817 379 62.62 1065.92 524.815
3250 0 45.3172 12.0925 548 58.3358 1064.97 527.744
3251 0 46.1524 10.9853 507 59.9763 1064.77 525.284
3252 0 50.1452 10.1306 508 58.8996 1065.14 526.138
3253 0 50.1664 9.80736 492 60.5569 1064.98 523.47
3254 0 51.0918 8.72938 446 61.3744 1065.63 524.038
3255 0 54.1003 10.8687 588 58.6582 1064.94 523.282
3256 0 55.2659 11.309 625 57.3984 1065.49 523.002
3257 0 56.169 8.10055 455 60.0088 1064.64 524.76
3258 0 56.1597 8.58267 482 60.9232 1065.04 518.456
3259 0 58.1439 8.16938 475 60.3221 1064.93 521.545
3260 0 61.3118 8.4323 517 59.7505 1064.89 518.878
3261 0 62.0544 8.91154 553 59.1844 1064.89 521.179
3262 0 64.1668 11.0805 711 57.6723 1064.73 518.319
3263 0 66.2101 10.1495 672 58.1518 1065.12 518.179
3264 1 35.0903 8.89133 312 56.3622 1065.18 534.099
3265 0 36.0647 10.3148 372 55.5968 1065.32 532.113
3266 0 36.0804 7.84359 283 58.0883 1065.3 530.88
3267 0 37.0431 9.44845 350 56.4857 1065.38 529.826
3268 0 37.1384 7.8894 293 58.4949 1065.47 530.573
3269 0 39.0983 9.00294 352 56.9148 1065.09 526.932
3270 0 39.2328 8.41133 330 57.0485 1064.29 529.794
3271 0 43.0954 9.49058 409 55.3447 1064.79 526.98
3272 0 41.2097 10.0704 415 55.0193 1063.87 526.174
3273 0 43.1616 10.3796 448 55.0513 1064.11 524.429
3274 0 43.1019 8.2827 357 57.1036 1063.42 522.244
3275 0 47.2337 10.1834 481 54.4699 1062.71 518.811
3276 0 48.1844 9.50515 458 55.8362 1064.07 518.426
3277 0 46.1422 7.93201 366 58.6038 1063.45 517.579
3278 0 48.178 5.72876 276 60.6377 1063.32 517.743
3279 0 50.3819 10.0036 504 55.748 1063.24 519.843
3280 0 54.1765 7.53094 408 57.1716 1062.66 515.774
3281 0 53.2326 6.63128 353 58.153 1062.33 512.108
3282 0 54.2333 7.17272 389 57.4961 1062.48 518.082
3283 0 55.2973 5.96774 330 57.7606 1062.51 511.436
3284 0 59.3448 7.65021 454 55.8216 1062.13 515.095
3285 0 61.1157 10.0629 615 53.6195 1061.77 513.159
3286 0 64.2498 7.50197 482 55.6743 1061.62 509.759
3287 0 67.2102 8.52549 573 54.3229 1061.61 509.803
3288 0 69.283 6.69717 464 55.9289 1061.58 506.289
3289 1 32.0719 7.85734 252 53.4643 1062.62 526
3290 0 33.1261 9.328 309 52.6408 1063.44 527.582
3291 0 37.0207 5.59147 207 55.1353 1064.04 524.237
3292 0 37.0629 8.71491 323 53.0433 1063.4 524.963
3293 0 38.0414 8.35931 318 54.0503 1062.36 523.638
3294 0 41.034 9.94296 408 52.1348 1063.17 520.953
3295 0 42.0326 7.68452 323 52.8204 1062.78 521.647
3296 0 42.0188 7.94883 334 53.3353 1062.03 522.497
3297 0 43.0586 10.0096 431 51.9861 1061.53 521.483
3298 0 44.0703 10.4606 461 51.3276 1061.84 519.822
3299 0 46.0491 9.33786 430 52.3977 1062.39 521.163
3300 0 47.0814 10.0677 474 51.9747 1062.8 519.707
3301 0 50.0723 9.76589 489 52.1861 1062.67 519.043
3302 0 51.0701 9.26177 473 53.9577 1062.9 515.727
3303 0 53.1367 12.1762 647 50.3308 1062.64 513.604
3304 0 53.0592 10.0454 533 52.7992 1063.51 513.386
3305 0 55.1162 11.1401 614 51.6303 1063.05 514.578
3306 0 58.0632 7.78462 452 53.5553 1063.64 517.184
3307 0 60.0662 9.07332 545 52.8917 1063.1 512.016
3308 0 60.1338 10.9921 661 51.3555 1064.04 513.266
3309 0 62.105 9.72547 604 52.1324 1063.9 511.556
3310 0 68.0791 11.2957 769 50.2965 1063.24 510.883
3311 0 69.3033 10.9952 762 50.9081 1062.98 510.778
3312 0 70.1168 11.8944 834 50.6379 1063.55 507.537
3313 0 70.152 11.5036 807 51.228 1063.89 506.291
3314 0 72.0727 9.65692 696 53.0963 1063.29 502.645
3315 1 33.0324 7.41697 245 54.5224 1064.67 524.865
3316 0 34.072 7.30805 249 54.5422 1065.21 524.185
3317 0 37.1388 9.63951 358 52.324 1064.87 524.617
3318 0 39.0386 7.42854 290 54.3034 1065.46 523.51
3319 0 39.0442 8.58001 335 53.609 1065.27 524.382
3320 0 41.026 10.2618 421 51.8599 1065.83 520.01
3321 0 43.163 10.1476 438 51.7283 1065.47 524.091
3322 0 43.0804 8.98321 387 53.1835 1065.92 522.537
3323 0 45.0839 13.4416 606 49.1238 1065.09 521.45
3324 0 47.1468 9.65072 455 52.5143 1065.58 520.152
3325 0 47.109 8.08764 381 53.832 1066.04 520.908
3326 0 49.1709 11.2668 554 51.2022 1065.51 516.547
3327 0 52.1431 10.7972 563 51.7886 1065.42 517.535
3328 0 54.0724 12.6682 685 50.327 1065.51 516.502
3329 0 52.1016 7.88843 411 55.1874 1065.06 516.088
3330 0 55.0859 9.58502 528 53.3428 1064.89 515.924
3331 0 57.1267 10.9406 625 52.5344 1065.36 513.571
3332 0 61.1144 11.143 681 52.4875 1065.14 513.51
3333 0 62.0988 11.3207 703 52.4339 1065.62 514.642
3334 0 64.1212 9.71597 623 54.2616 1065.35 513.231
3335 0 65.1822 11.1073 724 53.547 1065.16 509.877
3336 0 68.1681 10.6208 724 53.6367 1065.28 509.434
3337 0 71.1392 12.7215 905 51.6177 1064.8 507.899
3338 0 71.1661 12.1266 863 52.9791 1064.34 506.932
3339 0 72.0732 11.2247 809 54.2349 1064.58 506.276
3340 0 78.1471 12.5021 977 52.4452 1064.28 506.743
3341 0 77.1059 8.83201 681 56 1063.8 507.49
3342 0 81.2322 13.2214 1074 51.9656 1064.21 502.877
3343 0 82.1381 11.8703 975 53.4944 1063.61 503.406
3344 0 85.1808 13.6181 1160 52.1276 1063.87 500.468
3345 0 87.1065 12.3183 1073 53.5853 1064.47 499.396
3346 1 44.0968 10.0234 442 56.0385 1064.17 521.462
3347 0 45.0666 11.716 528 55.0057 1063.35 520.574
3348 0 48.0625 13.5032 649 53.2835 1063.37 520.094
3349 0 45.0604 9.9644 449 58.2539 1064.64 519.236
3350 0 50.1152 12.4513 624 54.8349 1064.01 520.354
3351 0 52.0399 13.2783 691 54.1693 1063.73 516.7
3352 0 51.1753 12.8382 657 55.6119 1063.08 516.635
3353 0 55.3187 13.2143 731 54.9754 1063.63 516.722
3354 0 57.0415 11.5705 660 56.9924 1063.22 514.903
3355 0 56.1066 11.9772 672 57.2083 1062.71 517.716
3356 0 58.0907 13.2379 769 55.6827 1063.03 514.079
3357 0 61.0289 13.3379 814 55.516 1062.92 511.445
3358 0 62.0938 11.9658 743 57.1211 1061.75 515.015
3359 0 65.0428 12.9453 842 55.9394 1062.67 514.191
3360 0 64.1561 11.1135 713 58.2861 1062.67 511.736
3361 0 67.1102 11.876 797 57.8268 1062.36 512.346
3362 0 70.0365 13.1931 924 56.4426 1062.91 509.951
3363 0 72.0809 13.582 979 55.8223 1062.69 511.415
3364 0 71.1288 13.342 949 57.3656 1062.27 510.012
3365 0 74.089 11.7426 870 59.077 1062.58 509.505
3366 0 76.2363 13.6156 1038 57.1628 1062.85 507.808
3367 0 81.1693 13.0098 1056 57.8191 1062.54 508.44
3368 0 81.0645 15.2348 1235 56.0899 1062.54 505.308
3369 0 81.0645 15.2348 1235 137.913 1062.54 505.308
3370 0 84.0512 13.5989 1143 58.3884 1063.07 504.539
3371 0 88.1396 13.8417 1220 58.4352 1061.9 502.764
3372 0 91.1143 15.2226 1387 56.8356 1063.36 504.396
3373 0 93.0829 15.9535 1485 56.8896 1063.4 500.945
3374 1 45.1707 13.9249 629 60.2353 1063.24 524.423
3375 0 46.0826 11.3058 521 63.1363 1063.52 525.453
3376 0 47.156 13.1691 621 61.3044 1062.82 524.895
3377 0 48.1695 12.3937 597 62.9749 1062.36 524.69
3378 0 51.0259 13.5029 689 61.7141 1063.55 522.328
3379 0 53.0848 15.6542 831 58.5836 1063.59 521.934
3380 0 53.1177 13.7242 729 61.0645 1063.43 522.719
3381 0 55.0378 13.4453 740 61.5973 1063.39 523.353
3382 0 56.0632 15.7857 885 58.974 1063.2 522.682
3383 0 58.0445 15.0919 876 59.661 1063.65 520.846
3384 0 58.1429 13.0884 761 62.8068 1063.16 521.016
3385 0 60.2173 14.6636 883 60.188 1063.29 521.083
3386 0 60.0856 13.5973 817 62.2864 1063.58 516.351
3387 0 65.1191 14.9726 975 60.0092 1063.55 518.829
3388 0 68.0555 15.1641 1032 59.9108 1063.81 517.241
3389 0 68.0454 14.1964 966 61.3395 1064.13 516.292
3390 0 71.0494 15.074 1071 60.0719 1063.85 515.588
3391 0 71.0628 15.0149 1067 60.5052 1063.63 514.803
3392 0 74.1455 12.6778 940 63.3362 1064.11 514.369
3393 0 76.1977 14.4493 1101 61.3442 1064.61 511.562
3394 0 80.0629 15.3754 1231 59.9318 1064.23 511.342
3395 0 81.1384 15.036 1220 61.0344 1064.22 510.398
3396 0 83.1252 14.6045 1214 61.1639 1063.78 511.547
3397 1 44.0767 13.9303 614 60.5505 1064.34 529.663
3398 0 44.0258 14.9231 657 61.3196 1064.4 526.673
3399 0 44.0503 13.1441 579 63.6615 1064.23 525.321
3400 0 45.0719 13.1568 593 63.1804 1064.04 526.297
3401 0 49.0309 14.1339 693 60.4372 1064.32 526.882
3402 0 50.054 13.7452 688 61.4419 1064.35 525.798
3403 0 51.0455 13.4194 685 62.1314 1063.93 523.828
3404 0 52.0237 12.9172 672 63.3795 1064.36 521.382
3405 0 54.1009 14.3436 776 60.9523 1064.49 521.617
3406 0 55.0926 12.7059 700 63.2214 1064.72 519.941
3407 0 60.0583 15.6515 940 57.8192 1064.26 523.323
3408 0 61.0708 12.8539 785 62.1236 1064.49 519.285
3409 0 61.0654 12.3474 754 62.6538 1064.17 519.332
3410 0 62.0763 11.5342 716 64.0936 1063.77 517.778
3411 0 66.0442 14.1118 932 60.9045 1064.07 516.848
3412 0 67.0988 13.1597 883 61.889 1063.99 516.342
3413 0 68.063 12.5178 852 63.507 1063.9 513.273
3414 0 70.1282 12.8479 901 63.2619 1063.88 512.755
3415 0 75.09 15.1552 1138 60.094 1064 509.844
3416 0 77.0325 13.1373 1012 62.7273 1064.04 508.774
3417 0 80.0779 12.1007 969 64.065 1064.36 507.143
3418 0 81.0666 12.5206 1015 63.9645 1064.34 504.797
3419 0 83.1214 11.9584 994 65.006 1064.72 503.416
3420 0 86.0866 12.6268 1087 64.1684 1064.13 502.195
3421 0 91.1635 13.7336 1252 62.2412 1063.68 502.425
3422 0 92.0871 13.5198 1245 62.5301 1064.71 501.697
3423 0 97.142 13.0942 1272 62.8569 1063.9 500.235
3424 1 47.1232 10.7802 508 64.0177 1064.56 521.596
3425 0 50.0384 12.7102 636 61.9261 1064.41 520.888
3426 0 52.0593 11.6022 604 63.1341 1064.24 521.008
3427 0 52.0702 13.1169 683 62.246 1064.23 520.256
3428 0 53.1171 11.3899 605 64.4 1064 519.207
3429 0 56.1137 11.0846 622 63.8746 1064.26 518.251
3430 0 58.0967 11.4292 664 63.622 1064.24 516.029
3431 0 61.1059 13.3375 815 61.1006 1064.32 516.52
3432 0 62.0632 13.1962 819 61.5885 1064.56 512.757
3433 0 62.0515 11.9095 739 63.1746 1064.14 514.222
3434 0 66.1634 12.4994 827 62.3954 1064.01 511.55
3435 0 68.2014 12.2871 838 62.8711 1064.04 511.555
3436 0 69.0605 11.613 802 64.2581 1064.57 508.672
3437 0 71.1404 12.0044 854 64.1932 1064.61 508.699
3438 0 75.085 14.8099 1112 60.6241 1063.75 506.376
3439 0 77.1416 11.8224 912 63.7478 1063.87 507.341
3440 0 82.159 11.4291 939 64.427 1062.95 505.408
3441 1 44.0445 12.7598 562 60.1744 1063.99 524.605
3442 0 47.067 9.79455 461 63.0976 1064.43 525.193
3443 0 47.0631 12.4089 584 61.7877 1064.33 522.897
3444 0 48.0448 12.301 591 62.4416 1064.06 519.91
3445 0 51.0587 10.0864 515 63.2447 1064.61 522.948
3446 0 50.1354 10.6711 535 64.2505 1064.35 521.407
3447 0 52.0986 12.2076 636 62.761 1063.87 518.884
3448 0 54.2062 12.0097 651 62.7327 1064.45 518.017
3449 0 56.3567 11.9773 675 62.5615 1063.79 519.201
3450 0 58.1623 13.4107 780 61.3987 1064.18 516.912
3451 0 60.1511 11.4545 689 63.463 1064.65 518.006
3452 0 61.1646 11.7388 718 63.4958 1064.96 517.889
3453 0 63.1792 12.9473 818 62.0929 1064.92 516.013
3454 0 65.1889 11.4744 748 63.9171 1064.3 513.567
3455 0 66.1332 13.2914 879 62.1888 1064.16 513.245
3456 0 69.1229 13.5845 939 61.8882 1064.99 510.885
3457 0 72.1955 11.8013 852 64.3063 1064.85 511.479
3458 0 75.334 12.3317 929 63.1647 1064.76 508.963
3459 0 74.1348 11.6275 862 65.5128 1064.32 506.733
3460 1 41.1324 10.6485 438 63.5206 1064.08 527.16
3461 0 41.1785 10.8066 445 64.8157 1063.39 524.701
3462 0 42.0614 11.1266 468 64.1218 1064 525.07
3463 0 42.1264 10.0412 423 66.078 1063.97 525.248
3464 0 42.0679 10.4593 440 66.6568 1064.16 523.377
3465 0 44.0588 10.1682 448 66.7812 1064.11 522.049
3466 0 47.1289 11.755 554 64.8014 1064.39 521.117
3467 0 45.1611 8.63576 390 69.459 1064.29 521.556
3468 0 49.0839 12.2036 599 65.1953 1063.91 518.317
3469 0 51.2259 10.0925 517 67.2959 1064.12 519.066
3470 0 51.0557 11.6148 593 66.4924 1064.87 518.916
3471 0 54.0353 10.4931 567 66.8765 1064.74 518.907
3472 0 56.1346 11.7396 659 65.5645 1064.23 515.663
3473 0 57.1229 12.5869 719 64.3254 1063.92 516.972
3474 0 61.0962 11.8829 726 65.3154 1064.59 515.318
3475 0 61.032 12.1084 739 64.912 1064.42 515.226
3476 0 65.2532 10.5895 691 65.835 1064.16 512.566
3477 0 68.2464 11.1947 764 64.8037 1064.53 512.923
3478 0 70.0649 10.2476 718 66.6267 1064.9 512.521
3479 0 68.0698 10.1954 694 66.9135 1064.78 508.85
3480 0 72.0885 11.2778 813 64.5707 1065.13 512.168
3481 0 76.1308 11.4408 871 64.4236 1065.26 508.648
3482 0 77.1961 10.8684 839 65.0906 1065.19 510.464
3483 1 42.1092 10.4965 442 64.1855 1065.93 526.351
3484 0 42.0769 10.4095 438 63.8904 1065.16 524.897
3485 0 44.0578 9.94149 438 64.3105 1064.84 522.769
3486 0 44.0886 11.114 490 63.4102 1065.16 522.753
3487 0 48.0843 11.0431 531 62.7062 1065.14 521.846
3488 0 51.2223 11.0499 566 62.0212 1064.96 522.168
3489 0 51.1643 12.1569 622 61.3842 1065.14 519.611
3490 0 51.105 11.4862 587 62.3271 1065.26 521.049
3491 0 53.0851 11.02 585 63.0598 1064.66 518.183
3492 0 54.0985 11.2018 606 62.7772 1064.92 518.025
3493 0 54.0485 13.1548 711 60.1238 1066.08 517.702
3494 0 58.186 11.9616 696 60.8305 1065.1 516.859
3495 0 59.1039 9.66095 571 63.5149 1065.26 518.102
3496 0 60.1671 10.6204 639 62.2817 1065.58 515.527
3497 0 63.1321 11.2304 709 61.1481 1065.63 515.487
3498 0 63.0685 11.4479 722 60.9903 1065.39 514.439
3499 0 66.1631 12.7261 842 58.7316 1065.29 514.311
3500 0 67.0878 12.4315 834 59.229 1065.46 514.171
3501 0 69.2467 11.7118 811 59.4291 1064.71 511.076
3502 0 74.1555 11.7186 869 59.1853 1064.61 509.76
3503 0 72.1322 11.8116 852 59.5329 1065.1 511.18
3504 0 76.2298 10.6782 814 59.9693 1064.28 507.614
3505 0 76.1475 9.95437 758 61.12 1064.32 506.594
3506 0 79.2006 12.4494 986 58.6704 1065.41 506.567
3507 0 81.181 11.1972 909 59.9582 1064.86 505.032
3508 0 83.2101 12.4384 1035 58.8454 1064.22 501.7
3509 0 87.2069 10.9854 958 60.0177 1064.75 503.158
3510 0 91.199 11.0528 1008 59.878 1064.68 498.378
3511 1 45.0504 8.27962 373 60.5469 1064.71 525.389
3512 0 47.158 8.94864 422 59.9858 1065.12 524.403
3513 0 48.1056 12.2231 588 56.8231 1065.5 523.102
3514 0 53.1578 11.2683 599 56.975 1065.22 522.583
3515 0 52.1131 10.861 566 58.3463 1065.23 521.102
3516 0 53.129 9.09108 483 59.9834 1065.14 524.383
3517 0 57.1804 11.6998 669 57.0703 1064.3 520.308
3518 0 56.1342 10.7065 601 58.8669 1064.97 520.609
3519 0 58.0806 12.1039 703 57.5889 1064.55 521.747
3520 0 60.0864 10.5182 632 59.4478 1064.08 518.729
3521 0 61.1256 9.71769 594 60.5337 1063.96 518.246
3522 0 65.1216 11.824 770 57.1792 1064.7 519.058
3523 0 66.2041 11.4645 759 57.9065 1063.92 515.372
3524 0 69.1201 11.8779 821 57.5079 1064.65 514.665
3525 0 70.1209 10.9668 769 58.4942 1065.3 512.629
3526 0 72.1056 11.0948 800 58.3212 1065.03 513.664
3527 0 75.1939 12.1286 912 57.3958 1064.92 507.791
3528 0 76.1805 9.9238 756 59.5635 1065.3 510.028
3529 0 80.1797 11.1125 891 57.8788 1065.06 507.403
3530 0 82.134 11.3108 929 57.8719 1064.79 504.847
3531 0 86.2004 9.77953 843 59.4033 1064.76 504.461
3532 1 43.0209 7.94962 342 60.5906 1064.94 526.228
3533 0 45.0331 10.0593 453 58.6667 1064.99 527.077
3534 0 47.0485 10.2448 482 59.1432 1065.33 524.747
3535 0 48.0615 11.4229 549 58.5938 1065.97 523.366
3536 0 49.0488 12.0288 590 58.7915 1065.38 521.903
3537 0 51.0417 11.6767 596 59.6829 1065.82 520.193
3538 0 53.0768 12.0392 639 58.5211 1065.37 520.333
3539 0 54.043 11.6944 632 59.0079 1065.6 518.139
3540 0 54.0759 11.3729 615 60.0813 1064.91 517.925
3541 0 57.0394 11.4307 652 59.3957 1064.27 515.057
3542 0 56.0185 10.6572 597 60.3149 1064.81 516.028
3543 0 60.0983 11.1983 673 59.9108 1064.81 515.377
3544 0 62.1096 11.3992 708 59.209 1064.83 515.74
3545 0 64.109 11.964 767 58.4068 1065.03 514.259
3546 0 66.1817 11.4533 758 58.7111 1064.49 514.959
3547 0 71.0732 13.1836 937 56.937 1064.89 511.583
3548 0 70.0725 13.3433 935 56.9893 1064.68 511.814
3549 0 74.1135 12.3324 914 57.6324 1064.02 509.462
3550 0 78.0627 11.8623 926 57.8553 1064.1 510.697
3551 0 79.1973 11.4145 904 58.8308 1064 507.315
3552 0 81.0824 10.3228 837 60.1936 1064.3 507.407
3553 1 41.0434 9.62395 395 61.6025 1064.13 525.084
3554 0 43.0244 9.39003 404 61.1064 1064.01 527.356
3555 0 46.0612 13.2433 610 56.7951 1063.78 525.385
3556 0 48.1873 12.2024 588 58.7704 1064.09 523.605
3557 0 49.0717 13.0829 642 58.109 1064.63 522.95
3558 0 50.0541 12.2068 611 59.6514 1064.81 520.177
3559 0 49.1227 12.54 616 59.3425 1064.11 520.675
3560 0 53.1273 13.1194 697 58.6628 1064.31 518.428
3561 0 55.0702 14.7085 810 56.7482 1064.33 518.158
3562 0 56.0879 11.6603 654 61.0214 1064.33 516.419
3563 0 57.0543 13.3206 760 59.121 1064.66 516.086
3564 0 58.2041 12.8342 747 59.6426 1064.66 516.667
3565 0 61.0641 11.9055 727 60.4704 1064.23 514.473
3566 0 62.218 13.2438 824 59.4709 1064.18 512.501
3567 0 64.0837 11.6566 747 61.7363 1064.45 510.724
3568 0 62.1362 11.8771 738 62.0772 1064.5 511.336
3569 0 67.1205 13.7663 924 58.9383 1065.12 508.644
3570 0 68.2322 12.6187 861 60.597 1064.52 508.548
3571 0 71.0941 13.0672 929 59.5651 1064.44 507.629
3572 0 72.3617 12.0368 871 60.667 1064.83 508.711
3573 0 74.1868 13.6278 1011 58.6083 1064.51 507.76
3574 0 78.0882 12.8829 1006 59.7038 1064.7 503.168
3575 1 35.173 10.1498 357 62.1036 1064.59 524.333
3576 0 39.0804 10.7471 420 59.9024 1065.05 525.921
3577 0 40.0539 11.9339 478 60.1778 1063.58 522.617
3578 0 41.0848 10.6122 436 61.594 1064.64 523.222
3579 0 43.0691 10.6805 460 60.6109 1065.38 524.439
3580 0 43.0228 10.9012 469 61.1535 1065.01 521.787
3581 0 46.0362 12.5119 576 58.7795 1064.4 520.965
3582 0 47.0834 12.892 607 58.6606 1064.59 519.181
3583 0 47.1643 12.9971 613 58.7374 1065.27 518.082
3584 0 51.0708 12.4925 638 58.9138 1065.54 517.309
3585 0 53.0663 11.2689 598 59.6538 1065.6 519.353
3586 0 52.1687 14.5681 760 57.2355 1064.96 516.538
3587 0 53.063 11.4769 609 60.7767 1065.12 516.525
3588 0 57.1954 14.5816 834 56.1259 1065.27 516.047
3589 0 56.0877 13.0153 730 59.0918 1065.29 515.444
3590 0 56.0366 11.2605 631 61.6387 1065.19 514.853
3591 0 61.1448 12.6258 772 58.5661 1064.68 514.114
3592 0 62.0999 11.9002 739 60.0501 1065.35 513.311
3593 0 65.1462 13.4774 878 58.0376 1065.42 513.074
3594 0 65.0487 13.1594 856 58.5152 1065.4 512.6
3595 0 66.0708 11.7752 778 60.7301 1065.78 511.613
3596 0 70.2299 13.1283 922 58.602 1065.34 506.938
3597 0 72.1523 12.7369 919 59.4472 1065.6 507.853
3598 0 74.155 13.31 987 58.8926 1065.8 508.292
3599 0 78.3181 12.8323 1005 59.0378 1066.25 506.862
3600 0 78.1839 12.8927 1008 60.1429 1065.94 505.688
3601 0 81.1121 11.6752 947 60.9704 1066.41 505.972
3602 0 81.1033 11.6518 945 61.454 1066.45 504.185
3603 1 38.0762 8.95572 341 63.0792 1066.63 526.912
3604 0 41.0671 10.7142 440 62.4864 1065.67 522.941
3605 0 41.0719 10.226 420 63.1524 1066 525.526
3606 0 45.1142 11.3711 513 61.5244 1066.34 523.864
3607 0 46.1267 10.9481 505 61.7366 1065.19 524.329
3608 0 49.1731 11.6934 575 60.8278 1065.73 520.859
3609 0 47.0565 11.6881 550 61.2527 1065.31 523.44
3610 0 49.1436 10.0522 494 63.7368 1065.66 521.119
3611 0 52.0756 11.7905 614 61.1678 1065.13 521.262
3612 0 53.0951 12.2987 653 60.4854 1065.08 520.432
3613 0 56.0703 12.5557 704 59.831 1064.96 519.892
3614 0 57.042 12.8151 731 60.026 1065.39 518.041
3615 0 58.0359 12.8541 746 60.1072 1065.4 517.743
3616 0 60.0707 12.7017 763 60.1678 1064.63 518.754
3617 0 62.1811 12.4475 774 60.2907 1064.63 516.231
3618 0 65.0588 13.7568 895 59.2592 1064.49 514.521
3619 0 67.0713 11.7934 791 61.5449 1064.34 514.163
3620 0 69.1661 13.3302 922 59.3232 1063.73 513.908
3621 0 72.0408 11.3963 821 61.4373 1064.12 515.33
3622 0 76.0656 12.4629 948 59.6772 1063.97 513.044
3623 0 76.0415 12.5984 958 59.9353 1064.04 512.507
3624 0 79.2004 11.6792 925 60.9903 1063.9 507.756
3625 1 39.1746 9.08752 356 62.0871 1063.5 529.548
3626 0 41.0475 11.1578 458 60.2336 1063.83 530.566
3627 0 41.067 9.91063 407 62.2211 1063.94 527.265
3628 0 46.0737 11.0041 507 60.2761 1064.52 526.996
3629 0 46.0892 10.6099 489 60.6278 1063.87 526.802
3630 0 48.1395 11.0097 530 60.4434 1064.3 525.798
3631 0 49.0547 10.8858 534 60.8689 1064.24 521.74
3632 0 52.1814 12.3607 645 58.5488 1064.31 522.242
3633 0 54.0448 12.1936 659 58.7481 1064.17 523.622
3634 0 54.0696 13.723 742 57.6819 1063.72 520.309
3635 0 56.0961 10.4998 589 61.382 1064.02 518.596
3636 0 58.1909 11.72 682 59.9736 1064.08 518.789
3637 0 61.2049 13.708 839 57.1585 1063.97 517.529
3638 0 62.3281 13.83 862 57.3991 1064.12 516.969
3639 0 65.1218 12.73 829 58.6019 1064.23 517.238
3640 0 64.0656 12.6121 808 59.4691 1064.09 514.142
3641 0 69.0853 12.0286 831 59.8712 1064.43 514.422
3642 0 70.0827 11.729 822 60.9209 1064.1 512.072
3643 0 72.1116 12.2033 880 59.8295 1064.17 512.988
3644 1 34.0549 9.01486 307 63.5472 1064.16 526.596
3645 0 30.0151 8.79556 264 66.8598 1064.35 527.045
3646 0 36.0382 11.2936 407 62.6708 1065.16 527.501
3647 0 37.0824 11.6497 432 62.1018 1064.41 528.933
3648 0 37.0115 9.48355 351 64.4929 1064.9 529.709
3649 0 38.1297 12.5886 480 61.1917 1065.07 526.638
3650 0 39.0064 9.94709 388 63.1701 1064.51 527.077
3651 0 39.0954 10.6662 417 63.4173 1064.67 525.472
3652 0 40.1071 11.1452 447 63.5638 1064.38 523.152
3653 0 42.2687 12.4915 528 61.9564 1064.4 520.15
3654 0 44.0783 9.23356 407 65.2359 1064.92 521.106
3655 1 11.0012 5.45394 60 45.7 1067.57 542.467
3656 0 16.0026 9.49845 152 61.3487 1066.79 543.526
3657 0 17.0137 8.3462 142 63.4859 1066.58 544.437
3658 0 17.1307 8.87296 152 67.2171 1066.27 546.276
3659 0 19.1109 10.8838 208 68.7452 1065.9 544.764
3660 0 19.0055 12.0492 229 67.4236 1065.17 546.533
3661 0 18.0846 11.1145 201 71.408 1064.6 546.721
3662 0 19.0298 12.9271 246 67.0285 1064.31 544.106
3663 0 19.0146 13.3581 254 68.8189 1064.6 544.327
3664 0 20.0533 12.7161 255 63.6157 1065.12 545.02
