time division length width area intensity CMx CMy
0 0 48.0544 11.9032 572 59.2098 917.712 518.36
1 0 47.0315 11.0352 519 60.8979 917.322 518.073
2 0 51.0925 12.3893 633 58.4818 917.725 517.845
3 0 52.227 11.2777 589 60.0577 917.464 517.659
4 0 51.0501 11.0676 565 61.4336 916.784 516.427
5 0 54.0658 12.9842 702 58.2336 917.201 517.66
6 0 56.0608 12.3259 691 58.7569 916.674 516.525
7 0 57.1209 12.4998 714 59.1583 916.256 516.688
8 0 57.0673 11.9508 682 60.3196 916.004 514.289
9 0 61.0181 13.8975 848 57.6627 917.053 513.729
10 0 61.0463 12.0237 734 60.233 916.268 512.718
11 0 64.0406 12.6794 812 59.2451 916.546 510.255
12 0 66.0329 13.3721 883 58.4258 916.72 510.696
13 0 68.1753 13.0399 889 58.7492 916.27 508.445
14 0 68.102 12.4372 847 59.8135 915.512 510.015
15 0 72.0818 13.7066 988 57.9808 916.126 510.055
16 1 36.0468 10.9857 396 59.1995 916.033 526.477
17 0 37.0558 10.7136 397 58.9748 915.814 525.975
18 0 39.0903 12.8165 501 56.9082 915.922 525.854
19 0 39.0382 12.3981 484 57.812 915.855 524.475
20 0 39.0651 11.0841 433 60.2286 916.113 523.612
21 0 40.0237 10.4688 419 59.778 916.086 526.227
22 0 41.0631 11.5919 476 60.4076 916.225 521.55
23 0 42.0086 12.2356 514 59.5311 916.286 521.512
24 0 41.1084 10.2655 422 62.0829 916.829 522.37
25 0 46.0266 12.8404 591 58.7191 916.753 521.844
26 0 46.0926 11.0647 510 60.9686 916.974 522.463
27 0 46.1304 11.7493 542 60.797 916.729 521.275
28 0 48.0889 12.3521 594 60.2155 916.68 520.625
29 0 50.1534 10.9065 547 61.5868 916.969 522.135
30 0 50.1139 12.5714 630 61.3571 916.61 519.202
31 0 52.0206 11.6684 607 61.5272 917.417 518.28
32 0 54.1613 10.6903 579 62.3368 916.596 519.107
33 0 53.0769 12.0391 639 61.9452 917.11 517.89
34 0 54.058 11.5432 624 63.1603 918.149 515.913
35 0 57.0486 12.3228 703 62.074 918.289 515.807
36 0 56.1184 11.1728 627 63.8341 918.396 515.692
37 0 59.0296 11.8754 701 63.4622 918.027 512.003
38 0 62.102 13.3651 830 60.9193 918.518 515.414
39 0 62.2401 12.2911 765 63.1399 917.971 512.425
40 0 64.0568 12.3953 794 63.0693 918.351 511.805
41 0 65.0987 12.4119 808 62.3205 918.099 513.994
42 0 68.0753 11.6782 795 63.9736 918.322 512.642
43 0 70.1308 12.5908 883 63.7565 918.704 508.877
44 0 71.1307 11.4859 817 65.0918 918.368 509.785
45 0 75.0682 12.9749 974 63.4487 918.407 507.728
46 1 37.0386 12.4735 462 61.7294 918.52 525.535
47 0 38.0419 12.8542 489 61.9284 918.579 524.084
48 0 38.0918 10.5272 401 65.2469 919.202 523.895
49 0 38.0769 10.1111 385 65.5221 918.444 525.543
50 0 41.0183 13.9206 571 61.4431 918.592 523.314
51 0 39.0417 11.4493 447 64.821 919.016 524.465
52 0 42.0879 12.9491 545 62.1138 918.209 523.391
53 0 45.0604 11.6954 527 63.1575 918.503 522.423
54 0 46.0513 10.2929 474 64.2954 918.707 523.755
55 0 46.0648 11.3536 523 64.4952 918.501 519.987
56 0 46.042 9.4479 435 65.6023 918.832 521.301
57 0 47.0457 11.5207 542 65.3561 919.026 517.395
58 0 49.0676 10.7607 528 65.6383 918.549 518.89
59 0 50.1054 11.1964 561 64.7273 918.708 518.679
60 0 52.1269 10.4169 543 65.9245 918.674 518.422
61 0 53.0839 9.89 525 66.3924 918.539 517.617
62 0 57.101 10.9805 627 65.244 918.75 516.783
63 0 57.0757 11.4234 652 65.1304 917.998 515.184
64 0 58.0585 12.1601 706 65.1119 918.385 513.085
65 0 62.0708 12.373 768 63.9948 918.682 513.958
66 0 63.0339 11.5335 727 65.6011 918.193 512.29
67 0 63.0148 10.68 673 67.3566 918.645 509.71
68 0 64.0498 9.18035 588 69.3027 918.384 511.43
69 0 67.0758 10.8236 726 68.0441 918.38 507.68
70 0 72.0475 11.5341 831 66.3971 918.774 510.099
71 0 72.0839 12.0693 870 66.7391 918.159 507.644
72 0 80.0712 12.2141 978 65.8701 918.699 507.386
73 0 78.0871 10.8853 850 68.2471 918.349 502.486
74 0 77.0516 10.6812 823 68.6513 918.055 506.277
75 0 80.0659 11.478 919 68.0414 917.814 502.141
76 0 84.092 11.2139 943 68.0997 918.106 502.552
77 0 87.1885 12.8343 1119 66.3744 917.697 496.632
78 0 88.3112 10.1459 896 67.5067 917.484 502.122
79 0 91.1589 11.3099 1031 67.8099 918.011 498.117
80 0 94.2236 10.7829 1016 68.6713 917.908 493.191
81 0 97.0975 11.37 1104 68.4692 918.359 491.619
82 1 51.0335 12.7759 652 63.4678 918.91 518.021
83 0 52.0587 11.3526 591 64.9069 919.127 516.722
84 0 54.0324 11.4561 619 65.021 918.247 515.204
85 0 52.0973 9.65501 503 67.5189 918.578 513.785
86 0 55.0498 9.02819 497 67.4809 918.777 515.135
87 0 60.026 11.0952 666 65.7943 919.619 512.324
88 0 62.1914 9.95314 619 67.4863 918.685 510.987
89 0 62.1921 10.1621 632 68.1614 918.839 507.29
90 0 65.0584 11.1131 723 67.0705 919.037 509.675
91 0 64.1558 7.7 494 71.6437 919.656 509.504
92 0 70.085 10.4159 730 68.4973 918.966 507.944
93 0 70.053 10.3208 723 70.0636 918.9 504.456
94 1 38.0273 11.1762 425 65.5882 919.348 523.614
95 0 36.059 10.3996 375 67.8187 919.504 521.387
96 0 40.0719 10.007 401 67.7706 919.516 523.86
97 0 41.0231 12.0664 495 66.1818 919.226 521.014
98 0 41.019 10.9705 450 67.9422 919.278 523.02
99 0 43.0884 10.5365 454 68.4515 918.731 521.579
100 0 45.0366 13.1227 591 65.4602 919.193 518.408
101 0 46.0504 11.1617 514 68.4689 919.173 519.829
102 0 48.0647 10.9852 528 68.7974 918.852 519.797
103 0 48.0627 10.6319 511 69.1957 919.648 519.877
104 0 51.0255 12.7387 650 67.0354 920.065 516.351
105 0 51.0205 12.5244 639 67.7183 919.175 515.732
106 0 53.0921 11.5648 614 68.0195 918.809 516.629
107 0 56.0322 13.7956 773 65.1979 919.307 513.975
108 0 57.0945 12.9084 737 66.232 918.914 514.159
109 0 58.0305 12.0971 702 67.3262 919.449 513.386
110 0 59.1047 10.1684 601 69.2978 919.667 512.251
111 0 62.0995 13.3012 826 65.2324 919.196 510.74
112 0 66.0453 13.0668 863 65.5944 919.095 509.506
113 0 66.0864 11.7725 778 67.437 919.355 508.442
114 0 69.1072 12.8207 886 66 919.29 507.69
115 0 68.0623 11.3866 775 68.6052 918.902 505.768
116 0 71.0768 11.4243 812 68.1182 919.048 505.463
117 0 75.1316 12.2718 922 66.7104 919.57 504.155
118 1 37.0264 8.56146 317 68.3596 920.227 521.943
119 0 36.0741 8.34394 301 68.4286 919.937 521.681
120 0 40.1484 9.16599 368 66.9375 919.981 522.462
121 0 41.099 10.8275 445 65.7258 919.93 519.575
122 0 43.0863 11.8599 511 63.5499 918.693 519.442
123 0 42.0784 9.76749 411 67.1192 919.786 519.62
124 0 43.1001 9.25751 399 66.9474 919.747 520.391
125 0 45.1164 10.9494 494 65.832 919.34 517.652
126 0 46.0432 9.40422 433 67.321 919.095 518.774
127 0 48.0879 10.9591 527 65.5901 919.467 518.444
128 0 49.0793 11.0026 540 66.2741 919.128 515.387
129 0 51.1328 9.93491 508 67.1378 918.848 514.782
130 0 51.0728 11.4738 586 65.7218 918.659 513.693
131 0 55.1401 11.5705 638 64.652 918.698 513.038
132 0 54.0955 11.2209 607 65.14 918.308 512.512
133 0 57.1381 10.6759 610 66.1754 918.084 510.37
134 0 58.2041 10.7553 626 66.0735 918.695 509.182
135 0 60.1402 12.8034 770 63.3364 919.638 510.416
136 0 63.0816 12.3332 778 64.1272 919.035 508.549
137 0 62.0642 10.2313 635 67.2882 919.416 506.594
138 0 66.2549 10.369 687 66.5051 919.458 507.048
139 0 66.1367 10.5237 696 66.5445 919.273 507.47
140 0 67.1512 9.02441 606 68.8465 918.974 506.484
141 0 71.1369 12.0331 856 64.9848 919.234 506.755
142 0 73.2105 12.2523 897 65.1661 919.566 503.674
143 0 74.0427 11.0477 818 66.555 919.307 503.94
144 0 73.0916 9.78224 715 67.3231 919.779 505.738
145 0 80.1041 10.5613 846 67.2541 919.021 499.937
146 0 79.2862 9.85039 781 68.8835 919.536 500.648
147 0 83.1999 10.3846 864 68.3634 919.612 499.787
148 0 83.1999 10.3726 863 137.345 919.659 499.877
149 0 89.0896 10.2144 910 68.7494 919.943 496.484
150 0 90.2612 10.5693 954 68.2809 921.658 498.81
151 1 47.054 9.11718 429 67.627 921.091 516.007
152 0 52.1094 11.6102 605 63.9471 921.268 515.646
153 0 51.128 9.74026 498 67.3112 921.038 514.835
154 0 53.0703 12.1348 644 63.8587 920.126 515.59
155 0 54.2247 11.3786 617 64.9076 920.768 512.666
156 0 57.1113 11.7665 672 65.1235 920.665 511.519
157 0 55.0488 8.48338 467 68.6231 920.869 511.859
158 0 57.0422 10.799 616 66.3263 920.127 511.213
159 0 60.0457 10.8917 654 66.4939 919.847 508.757
160 0 64.1626 11.2994 725 65.5614 920.852 507.028
161 0 66.1019 11.7546 777 65.2175 920.254 507.252
162 0 67.0987 12.3251 827 65.2781 919.108 504.203
163 0 71.0334 11.1778 794 66.2607 919.55 503.775
164 0 71.0441 10.5005 746 67.3204 920.118 503.662
165 0 73.1252 12.6222 923 65.7519 920.155 501.865
166 0 78.11 11.2534 879 66.4596 919.54 500.863
167 0 82.1103 12.0326 988 65.4352 919.841 500.144
168 0 82.0665 10.5402 865 68.1318 919.779 498.418
169 0 86.1222 12.3197 1061 66.1046 919.613 497.74
170 0 87.0868 10.9316 952 68.7931 919.627 493.968
171 1 47.1983 11.5894 547 64.4333 919.978 515.214
172 0 47.0692 9.05051 426 67.507 919.404 514.636
173 0 51.0902 11.235 574 65.0836 919.556 513.624
174 0 51.0327 12.6194 644 64.0932 920.162 511.727
175 0 52.054 11.0846 577 64.7955 920.083 512.659
176 0 54.0766 11.4467 619 64.8966 920.339 508.721
177 0 56.0984 12.3889 695 63.1554 919.912 509.617
178 0 58.1068 9.87836 574 66.0958 920.167 506.366
179 0 59.0608 10.159 600 65.97 920.025 506.932
180 0 63.302 12.3219 780 62.5987 919.17 507.003
181 0 63.1684 10.4641 661 64.8412 919.339 507.861
182 0 65.1484 10.714 698 64.2822 918.506 507.132
183 0 67.0931 10.4631 702 65.3205 918.228 505.368
184 0 70.1973 11.311 794 63.6788 918.377 504.3
185 0 73.159 11.4545 838 63.8819 917.708 503.354
186 0 75.1547 11.8955 894 63.4597 917.767 500.679
187 0 77.1321 11.0589 853 64.3751 917.651 498.855
188 0 81.0981 11.6526 945 63.5545 917.667 498.881
189 0 83.1564 12.2179 1016 63.3809 916.174 495.319
190 0 85.0616 11.1919 952 65.0725 916.298 495.391
191 0 87.0644 9.34941 814 66.6425 916.007 497.912
192 1 46.0573 12.3976 571 60.3152 915.856 516.233
193 0 46.0721 10.4619 482 63.7531 916.342 516.251
194 0 46.0685 9.78976 451 63.949 916.246 517.661
195 0 51.1146 9.82107 502 63.3466 916.12 517.161
196 0 50.0714 10.9643 549 62.4754 915.678 518.71
197 0 50.0632 9.6478 483 63.7164 916.379 517.331
198 0 52.1731 10.9635 572 62.8287 915.643 514.946
199 0 55.2622 9.64494 533 63.5516 914.799 514.642
200 0 55.1201 9.16181 505 64.705 915.048 513.352
201 0 59.1242 10.2834 608 62.4474 915.188 513.207
202 0 60.2359 9.84463 593 62.8584 915.226 513.322
203 0 63.0994 13.2014 833 58.6963 914.849 511.965
204 0 64.2352 10.5238 676 62.0947 914.379 509.707
205 0 67.1088 9.43244 633 62.1137 914.605 512.934
206 0 69.2939 11.0111 763 60.5544 914.131 510.502
207 0 71.3057 11.4016 813 60.31 914.978 509.472
208 0 72.2547 8.34548 603 63.4378 914.342 506.937
209 0 76.14 9.21985 702 62.5427 914.504 505.839
210 0 79.129 12.3722 979 59.5128 914.819 506.327
211 0 82.0798 12.9021 1059 58.2842 914.432 506.261
212 0 83.1386 11.3666 945 60.3407 914.105 502.228
213 0 86.088 10.6635 918 60.8268 913.694 503.803
214 0 88.2532 9.43875 833 61.8716 913.927 505.918
215 1 45.0552 8.12336 366 60.4372 913.391 525.563
216 0 49.0443 10.7454 527 56.945 913.455 523.304
217 0 49.1023 10.5087 516 57.9729 912.756 520.651
218 0 50.067 10.8055 541 57.8946 912.806 520.649
219 0 52.0633 9.93022 517 58.2785 912.505 519.731
220 0 54.0537 10.1196 547 57.4717 912.828 520.375
221 0 55.0586 11.3515 625 56.4048 912.978 516.973
222 0 58.0597 11.8499 688 55.7398 912.53 517.592
223 0 56.0589 9.00839 505 58.905 912.42 515.925
224 0 59.0305 10.8588 641 56.9142 912.596 513.991
225 0 60.0408 8.97723 539 58.1447 912.583 514.724
226 0 63.0792 11.0337 696 56.0977 912.772 510.961
227 0 65.1092 10.6744 695 56.5568 912.691 511.193
228 0 67.1094 10.0582 675 56.9689 912.522 510.27
229 0 70.1145 11.6238 815 55.162 912.766 508.542
230 0 71.0401 11.4583 814 55.742 912.897 505.683
231 0 73.0884 9.90582 724 56.5083 913.069 505.485
232 0 76.1114 11.2598 857 54.9965 913.119 508.223
233 0 78.0337 12.0333 939 55.2322 913.408 502.634
234 0 81.0585 11.2141 909 55.7349 913.167 502.322
235 0 84.0942 12.7714 1074 54.9777 912.465 499.199
236 0 84.1372 9.38942 790 57.9418 912.911 501.116
237 0 88.1483 11.8891 1048 55.8273 913.529 495.455
238 1 44.0422 7.56093 333 56.6036 912.928 520.826
239 0 45.0699 10.0954 455 55.6528 913.864 518.418
240 0 46.0662 9.98562 460 56.3761 914.365 517.243
241 0 46.0901 8.00606 369 58.1382 914.507 517.35
242 0 47.0638 10.6239 500 56.142 913.978 515.266
243 0 49.0597 9.45787 464 56.7802 913.948 516.175
244 0 53.045 12.3103 653 54.1807 913.91 516.017
245 0 53.0834 10.5494 560 56.4589 914.15 513.823
246 0 54.0258 10.8652 587 56.4804 914.438 512.451
247 0 57.1783 10.5285 602 56.3405 914.164 515.05
248 0 60.0477 13.1562 790 54.4709 914.12 512.423
249 0 61.1537 11.3485 694 56.3141 914.94 513.333
250 0 64.0533 11.6934 749 56.2804 914.239 511.407
251 0 64.0959 12.7777 819 55.4042 914.066 511.158
252 0 65.15 10.4989 684 57.5088 913.661 509.504
253 0 69.108 11.3012 781 56.9718 914.519 511.259
254 0 72.1076 10.2486 739 57.3153 914.336 513.208
255 0 73.1271 10.2151 747 58.8005 914.478 507.309
256 0 74.1106 9.99857 741 59.3198 914.466 507.436
257 0 78.0588 11.6707 911 57.9923 914.319 504.517
258 0 79.1629 11.7732 932 58.3133 915.047 505.96
259 0 82.0562 11.1631 916 59.0371 914.735 506.477
260 0 82.1309 10.5563 867 60.3702 914.566 505.355
261 1 43.0389 10.1768 438 57.5479 914.578 525.964
262 0 43.035 10.4798 451 58.2262 914.461 524.029
263 0 45.0466 11.1662 503 57.7157 914.074 524.032
264 0 45.029 9.21629 415 59.694 914.268 523.911
265 0 49.0524 11.1309 546 57.9835 913.868 522.579
266 0 48.035 10.1593 488 59.6455 913.814 520.598
267 0 51.0669 12.2193 624 57.3029 914.208 521.027
268 0 51.1446 10.0695 515 59.7126 913.489 520.561
269 0 51.0498 9.75518 498 60.3675 913.839 520.787
270 0 57.072 11.3541 648 57.5988 913.741 520.961
271 0 56.0891 9.71668 545 58.9743 913.016 520.053
272 0 59.0485 10.5845 625 58.0912 913.443 519.003
273 0 62.1883 11.031 686 57.9723 912.644 516.07
274 0 64.1928 10.2348 657 58.7732 912.412 516.443
275 0 67.1405 10.1727 683 59.2445 912.392 512.337
276 0 69.1386 8.15753 564 61.0904 912.243 507.495
277 0 69.0694 10.598 732 59.4563 912.525 509.078
278 0 73.0624 11.6065 848 57.6651 912.436 511.493
279 0 77.1178 11.6056 895 58.0458 912.268 508.179
280 1 39.0665 10.6741 417 56.3285 912.357 528.441
281 0 40.0598 13.2801 532 53.6128 912.068 527.344
282 0 38.033 10.0702 383 58.0757 912.407 527.41
283 0 43.059 11.8442 510 56.2373 912.478 525.869
284 0 42.0188 10.1383 426 58.115 911.944 524.988
285 0 45.0219 10.2839 463 57.6242 911.24 523.78
286 0 43.0657 10.5652 455 58.411 910.809 524.343
287 0 46.0596 12.2667 565 56.1912 910.995 524.393
288 0 49.0865 12.1215 595 56.1479 911.378 521.892
289 0 49.0252 10.6884 524 58.7996 911.29 521.532
290 0 49.0719 10.6782 524 58.2824 910.607 521.162
291 0 51.0858 11.882 607 57.4498 910.715 519.618
292 0 52.0866 9.84899 513 59.7719 910.727 519.409
293 0 53.0296 10.8241 574 58.3902 911.415 519.65
294 0 55.0613 11.133 613 57.9592 911.959 519.196
295 0 57.1167 13.096 748 56.258 912.243 517.007
296 0 58.1357 10.8195 629 58.1176 912.348 517.886
297 0 58.0941 9.91495 576 59.2465 911.438 515.972
298 0 61.1136 10.9632 670 58.7478 911.485 514.854
299 0 60.1224 10.4287 627 59.8373 911.359 511.663
300 0 64.168 11.2673 723 58.8603 911.604 510.346
301 0 68.0719 12.1783 829 57.9759 911.638 509.524
302 0 68.0914 11.3671 774 59.261 911.094 510.324
303 0 72.0532 11.3111 815 59.3153 910.925 507.115
304 1 34.2216 9.00016 308 59.2468 911.201 527.279
305 0 39.0421 11.7822 460 56.5674 911.57 524.576
306 0 38.0197 10.9417 416 58.3317 911.471 524.93
307 0 40.0273 11.1924 448 58.1562 910.721 523.998
308 0 39.047 10.7306 419 59.5632 910.962 521.439
309 0 41.0879 10.8061 444 59.4797 910.703 523.25
310 0 44.0753 13.25 584 56.351 910.94 523.887
311 0 44.0625 11.9149 525 58.859 911.149 522.497
312 0 44.0833 9.68621 427 61.2717 911.246 522.646
313 0 46.1105 10.0194 462 61.6515 911.816 520.866
314 0 48.0578 10.8203 520 61.4096 911.267 519.323
315 0 46.0444 11.7061 539 60.9406 910.34 519.275
316 0 51.1217 11.678 597 59.7605 910.794 520.819
317 0 52.0612 11.6017 604 60.2765 911.253 518.977
318 0 52.0911 12.0942 630 60.6159 910.427 517.314
319 0 55.0564 9.78996 539 62.115 911.113 519.15
320 0 55.1701 11.4011 629 61.4102 911.073 516.676
321 0 57.1036 10.8575 620 61.4661 911.136 517.773
322 0 60.026 12.0281 722 60.295 911.391 515.281
323 0 62.1582 10.9237 679 61.1561 911.018 514.887
324 0 64.1084 12.6816 813 59.4908 911.319 513.578
325 0 64.1333 12.3493 792 60.4558 910.986 511.319
326 0 67.0558 12.1541 815 60.4859 911.551 509.053
327 0 69.0691 11.6116 802 61.0673 910.815 508.707
328 0 73.1051 11.3672 831 61.2635 911.118 508.768
329 1 36.1683 9.40049 340 60.6912 910.829 527.253
330 0 38.098 11.3129 431 58.3271 910.51 526.568
331 0 38.0163 10.1799 387 60.1628 911.01 525.238
332 0 40.0139 10.8462 434 59.924 911.392 524.756
333 0 39.0491 11.1654 436 59.2087 911.005 526.7
334 0 41.0559 10.2543 421 60.4228 911.126 523.601
335 0 43.0613 11.2862 486 59.1626 912.054 523.889
336 0 43.1238 10.1568 438 61.0685 910.991 521.135
337 0 46.1257 13.4632 621 57.0934 911.343 519.961
338 0 46.1093 9.58591 442 61.5679 911.299 521.769
339 0 48.0794 10.5866 509 60.0216 911.992 522.833
340 0 49.072 11.4118 560 59.4786 911.396 520.055
341 0 49.0605 11.496 564 60.6684 911.305 518.652
342 0 50.0671 11.3847 570 60.9596 911.263 517.346
343 0 54.2498 13.3088 722 58.0263 911.308 517.475
344 0 53.2312 10.971 584 60.9897 911.214 516.572
345 0 55.1034 12.4493 686 59.8732 912.249 514.112
346 0 58.1013 11.6521 677 60.9217 911.597 515.007
347 0 60.076 11.5354 693 61.1097 912.338 514.538
348 0 61.1193 13.4328 821 59.2996 912.348 513.621
349 0 61.1165 10.4718 640 62.8438 912.408 512.583
350 0 64.0511 12.8179 821 60.2132 912.173 512.836
351 0 65.0575 11.974 779 62.0038 912.209 509.929
352 0 68.168 12.3518 842 60.7245 912.359 511.432
353 0 69.1157 12.7902 884 61.2805 912.111 508.325
354 0 70.0728 10.6746 748 63.9519 912.511 508.734
355 0 74.0907 12.4307 921 62.0228 911.983 505.081
356 0 76.133 11.1121 846 63.0166 911.889 506.908
357 0 76.1066 11.4576 872 64.4966 911.745 501.888
358 0 77.0785 10.1455 782 65.3657 911.835 504.39
359 1 38.0655 10.7709 410 62.4683 912.476 521.988
360 0 41.0264 11.6023 476 61.5084 912.475 522.75
361 0 42.0463 11.5111 484 62.436 912.05 521.878
362 0 43.1131 10.6 457 63.8009 911.989 521.6
363 0 44.0466 9.10399 401 65.2594 911.616 521.99
364 0 46.0135 13.0179 599 61.2604 911.693 519.715
365 0 48.0461 11.7179 563 62.1332 912.117 520.126
366 0 49.026 11.7081 574 62.101 911.561 521.336
367 0 49.029 10.6876 524 63.7576 911.303 518.933
368 0 49.0244 11.2393 551 63.9002 911.818 516.612
369 0 52.0393 11.1646 581 63.7728 911.9 516.83
370 0 53.135 11.0661 588 63.6139 911.378 516.395
371 0 55.074 11.6207 640 63.4125 912.053 515.07
372 0 58.0666 11.3835 661 62.9032 911.675 515.616
373 0 58.049 12.5239 727 62.5681 911.418 512.721
374 0 58.0346 11.1141 645 64.5287 911.654 512.392
375 0 62.0362 12.2993 763 62.5544 911.853 513.252
376 0 64.127 12.5064 802 62.6746 912.041 510.924
377 0 65.0869 13.2285 861 62.6655 912 509.236
378 0 67.0664 11.8838 797 64.2434 911.463 509.412
379 0 71.0197 12.1093 860 63.9628 911.472 510.772
380 0 72.0873 11.9438 861 63.9315 911.726 508.703
381 0 74.2025 11.3339 841 65.7004 911.276 507.111
382 0 77.1269 12.6545 976 64.2049 911.272 505.309
383 0 79.1287 10.1227 801 66.7616 911.071 505.895
384 0 83.0751 12.3503 1026 64.4318 910.828 502.386
385 0 85.1363 12.8382 1093 64.5279 910.875 501.166
386 0 87.1996 13.1881 1150 64.1565 910.99 499.591
387 0 89.1312 12.7789 1139 64.9816 911.474 498.579
388 1 47.0626 11.2829 531 63.6817 912.019 522.435
389 0 47.0632 11.2402 529 64.9338 911.321 520.026
390 0 51.0916 12.1155 619 62.4362 912.036 521.145
391 0 53.0524 12.1766 646 62.5232 911.368 518.52
392 0 54.0881 11.4258 618 63.5227 911.828 518.599
393 0 55.0216 11.3047 622 64.0466 911.746 517.564
394 0 57.0281 12.8884 735 62.6735 911.767 515.664
395 0 59.0657 11.9359 705 63.4199 911.871 515.048
396 0 62.0879 13.0138 808 61.755 911.994 515.131
397 0 61.0288 11.8141 721 64.1415 911.712 512.44
398 0 65.059 12.0967 787 63.4765 912.502 512.684
399 0 67.1581 11.8526 796 64.1344 912.129 511.559
400 0 68.0763 14.7335 1003 60.7258 912.071 512.147
401 0 71.0819 12.1972 867 63.6032 912.255 508.939
402 0 73.1185 12.1994 892 63.648 912.63 509.651
403 0 75.1333 12.764 959 63.17 911.797 507.035
404 0 79.0575 12.4719 986 63.5913 912.652 506.752
405 1 38.0127 9.78621 372 63.1613 911.933 527.113
406 0 39.0525 11.2669 440 62.9727 912.511 524.305
407 0 41.0273 11.6264 477 61.348 912.834 525.503
408 0 41.0247 10.7009 439 63.5786 912.446 523.613
409 0 43.0248 11.1099 478 62.5105 912.678 523.37
410 0 45.0803 11.6237 524 62.3092 911.933 522.401
411 0 45.0457 11.6104 523 62.8375 911.738 521.639
412 0 47.0357 11.3105 532 63.3177 912.654 520.13
413 0 50.0848 11.9397 598 61.8278 912.303 521.212
414 0 51.1489 11.1635 571 62.4641 912.236 520.203
415 0 52.1026 9.4621 493 64.6045 911.026 517.371
416 0 53.0849 10.2477 544 64.2757 911.748 515.274
417 0 55.0281 11.6668 642 62.2477 911.981 517.329
418 0 57.11 9.78813 559 63.8605 911.852 517.05
419 0 61.1205 10.8147 661 61.8442 911.933 516.899
420 0 63.2214 13.6663 864 58.5579 911.678 516.198
421 0 65.0341 11.7938 767 60.5945 912.24 513.965
422 0 65.1506 11.2969 736 62.2391 911.724 510.852
423 0 68.0427 11.3311 771 61.952 910.951 512.086
424 0 72.0718 11.7105 844 61.4668 911.216 510.152
425 0 73.0702 11.4821 839 61.1657 911.161 512.592
426 0 78.1261 10.6238 830 63.0663 911.369 507.251
427 0 78.0724 10.6184 829 63.4692 911.604 507.825
428 0 83.0919 12.9014 1072 60.8554 911.458 504.737
429 0 86.2579 11.2337 969 62.8277 911.432 501.652
430 1 45.0808 10.9803 495 59.8566 911.485 521.669
431 0 44.0625 10.7121 472 61.3983 912.106 521.049
432 0 47.0286 10.0365 472 61.6843 912.773 523.595
433 0 47.0615 12.1968 574 59.6969 911.855 522.192
434 0 49.0993 10.2445 503 60.9801 912.221 521.384
435 0 50.1442 10.8088 542 61.2417 911.723 520.801
436 0 51.0586 12.1625 621 59.2158 911.852 518.67
437 0 52.1119 10.4199 543 61.3039 911.4 517.503
438 0 54.0731 8.69194 470 63.0617 911.436 516.634
439 0 56.0571 10.0255 562 61.5961 911.075 514.432
440 0 58.1045 10.3434 601 61.1714 911.601 513.915
441 0 60.126 10.3449 622 61.0338 910.74 514.793
442 0 61.172 9.36703 573 62.2932 911.419 511.373
443 0 66.1974 11.5564 765 58.668 911.203 515.244
444 0 66.1637 8.97774 594 62.7492 910.81 508.387
445 0 69.2276 10.8049 748 61.2674 910.549 508.219
446 0 72.158 10.7265 774 60.9496 910.911 509.844
447 0 74.117 9.25564 686 62.691 911.302 505.402
448 0 78.1098 9.7939 765 62.4248 911.471 503.281
449 0 79.0691 10.5098 831 61.71 911.717 504.863
450 0 84.1116 11.675 982 60.779 911.446 502.766
451 0 86.199 10.2669 885 62.2599 912.233 501.047
452 0 89.0902 10.0011 891 63.0673 911.645 499.673
453 1 47.0433 9.7357 458 59.2271 912.282 524.273
454 0 49.1143 10.1193 497 59.7404 912.968 519.73
455 0 49.1143 10.16 499 116.567 912.958 519.711
456 0 51.0666 9.55615 488 60.8381 912.658 522.061
457 0 51.017 9.21262 470 62.2894 912.634 519.496
458 0 55.0639 9.29829 512 62.6992 913.022 516.705
459 0 55.0894 10.3468 570 62.0965 911.925 515.896
460 0 56.1299 10.8498 609 61.3826 911.667 519.163
461 0 59.2226 11.8705 703 60.5078 911.791 515.68
462 0 61.0864 10.5097 642 60.6636 911.846 519.168
463 0 62.0696 12.5343 778 59.8509 911.528 515.743
464 0 63.2163 13.2561 838 59.1706 911.478 514.573
465 0 65.0877 10.7547 700 62.24 911.947 512.634
466 0 68.1537 10.447 712 62.7486 911.614 511.452
467 0 70.1131 10.8539 761 62.0867 910.666 511.548
468 0 73.1425 12.4141 908 60.9196 911.438 508.534
469 0 74.0889 9.93401 736 64.216 910.808 509.443
470 0 77.0884 11.3765 877 63.0068 910.871 507.941
471 0 81.1276 11.3155 918 62.6928 911.267 506.489
472 0 79.0922 10.5573 835 64.8287 910.86 503.225
473 1 41.043 10.0382 412 62.6214 911.668 527.039
474 0 41.0587 9.30376 382 64.2461 912.021 524.819
475 0 44.0094 10.7477 473 63.0211 911.757 523.465
476 0 44.1158 10.9031 481 62.9023 911.376 523.626
477 0 45.0231 10.5057 473 63.1691 911.727 523.501
478 0 46.0961 10.7384 495 64.0283 911.101 521.917
479 0 49.1015 11.2624 553 62.6492 910.611 520.806
480 0 51.1208 12.0303 615 61.0455 910.361 520.463
481 0 52.1799 12.0545 629 61.3052 911.234 521.167
482 0 54.0446 11.4535 619 62.189 911.349 519.701
483 0 56.1436 10.3663 582 63.4553 911.139 518.763
484 0 56.0378 12.0633 676 62.1154 911.407 516.663
485 0 57.1169 10.1896 582 64.2302 911.588 516.971
486 0 60.2912 11.5937 699 62.3548 911.484 514.765
487 0 62.1066 10.8684 675 63.0459 911.141 514.827
488 0 63.0757 11.2088 707 62.9123 912.057 514.154
489 0 63.1824 10.4934 663 64.0694 911.878 510.842
490 0 67.2293 11.3938 766 62.5757 911.634 511.362
491 0 71.1363 12.4268 884 61.1188 911.303 510.912
492 0 72.0798 12.0422 868 62.0357 911.147 509.245
493 0 73.2465 11.8504 868 62.4793 910.871 507.206
494 0 75.1305 10.5284 791 63.7901 910.942 506.228
495 0 79.1477 12.7483 1009 60.9088 910.828 506.306
496 0 81.0791 11.3223 918 62.5185 910.867 506.33
497 0 83.088 11.4337 950 63.5874 911.045 499.607
498 0 86.0948 11.5919 998 62.8166 910.95 502.182
499 1 40.0361 8.09271 324 64.2932 911.17 524.191
500 0 42.0991 10.0715 424 62.1132 911.54 520.946
501 0 45.0319 10.3926 468 62.656 911.004 520.513
502 0 47.0427 10.6286 500 61.726 911.578 519.914
503 0 48.0526 10.9047 524 62.1221 910.794 519.771
504 0 47.0481 9.92602 467 64.2398 911.161 519.385
505 0 50.1246 12.05 604 60.7732 911.073 519.5
506 0 52.2421 10.6428 556 62.5378 910.703 518.496
507 0 53.0715 11.3432 602 61.9585 911.098 517.447
508 0 55.0871 12.8705 709 60.3145 910.908 517.169
509 0 58.0937 12.4454 723 60.4509 911.225 516.227
510 0 57.1233 10.5211 601 62.8053 911.351 517.068
511 0 61.0683 13.6077 831 59.3839 911.26 512.445
512 0 59.1423 10.4325 617 63.9773 910.689 513.089
513 0 64.0718 13.1259 841 60.4019 911.153 514.828
514 0 66.0506 11.5063 760 62.4053 910.758 513.13
515 0 69.1166 13.9474 964 59.5373 910.752 510.504
516 0 71.0824 12.8302 912 61.0921 910.901 509.557
517 0 72.1063 12.1349 875 61.6571 910.907 511.226
518 0 74.1242 11.2784 836 64.2045 910.592 507.626
519 0 77.126 11.6174 896 63.5569 910.945 506.812
520 0 80.162 12.3126 987 63.0122 910.428 504.823
521 0 80.0826 11.1135 890 64.7652 910.392 507.665
522 1 41.1455 8.70083 358 65.5112 911.025 522.964
523 0 46.0337 10.514 484 62.8202 910.853 522.486
524 0 46.0284 10.7542 495 62.9535 910.857 521.644
525 0 49.0568 12.1492 596 60.5117 911.341 522.352
526 0 49.039 10.6038 520 63.2481 910.819 519.55
527 0 51.1026 10.8996 557 62.2442 911.02 520.808
528 0 54.0652 11.5971 627 61.8166 910.743 518.703
529 0 56.0378 12.0098 673 60.9079 910.978 518.007
530 0 57.0994 12.6621 723 60.1687 910.816 518.072
531 0 58.0817 12.5685 730 60.563 910.547 517.47
532 0 61.078 11.5426 705 61.2241 910.807 515.208
533 0 63.1061 10.5537 666 61.97 910.431 515.461
534 0 64.0787 11.2986 724 61.1906 910.461 514.761
535 0 66.1121 11.9797 792 60.3346 910.741 514.746
536 0 70.3088 10.9801 772 61.2655 910.81 512.821
537 0 70.1218 10.3392 725 62.1297 910.128 511.848
538 0 73.173 10.482 767 61.9622 909.771 509.416
539 0 77.1905 11.4004 880 60.7489 910.276 510.109
540 0 76.2458 9.35134 713 63.8233 910.238 507.773
541 1 40.0699 10.2321 410 61.622 909.707 524.646
542 0 42.0783 11.3598 478 60.0983 909.954 523.983
543 0 43.0561 11.4269 492 60.4329 910.055 524.663
544 0 43.0907 9.44519 407 63.172 910.948 525.061
545 0 46.0578 12.1369 559 59.8766 909.792 522.844
546 0 48.0457 10.2402 492 62.061 910.256 523.39
547 0 47.091 9.85327 464 63.2974 910.259 522.897
548 0 49.0349 11.1553 547 62.1974 910.196 520.709
549 0 51.1791 11.6649 597 61.1524 910.062 521.107
550 0 53.13 11.8765 631 61.2472 909.807 516.973
551 0 56.0768 12.5899 706 59.9023 910.331 518.205
552 0 56.0838 11.5185 646 61.5263 910.469 515.305
553 0 59.0356 11.5185 680 61.9456 910.772 515.796
554 0 60.0738 11.1197 668 61.8907 910.148 517.636
555 0 63.1428 12.8597 812 60.0788 910.777 515.319
556 0 63.1233 12.0082 758 61.5937 909.982 511.691
557 0 67.0652 11.7498 788 60.7234 911.02 513.777
558 0 68.0931 10.8381 738 62.5 910.985 510.156
559 0 70.0692 10.3184 723 62.1259 910.398 514.349
560 0 74.0606 12.3953 918 60.963 911.274 506.049
561 0 73.0399 12.2262 893 61.6249 910.859 506.942
562 0 76.0783 12.6843 965 60.9544 910.391 508.493
563 0 79.1921 11.8067 935 62.9241 910.168 503.108
564 1 39.063 10.5983 414 62.6981 910.841 524.72
565 0 44.0732 10.8229 477 61.4025 911.155 523.585
566 0 42.0605 10.9604 461 62.4534 911.169 522.926
567 0 43.0601 11.4723 494 62.3725 911.494 520.389
568 0 47.0731 13.256 624 59.5769 911.277 521.777
569 0 47.0872 10.3425 487 63.2402 910.91 522.676
570 0 48.054 11.4246 549 62.7577 910.945 520.668
571 0 50.0326 10.8529 543 63.4346 910.646 520.076
572 0 53.0693 12.6438 671 60.5514 910.563 519.508
573 0 53.02 11.0524 586 63.2611 910.891 516.491
574 0 56.0994 12.0144 674 62.0475 911.307 516.35
575 0 56.0462 12.5254 702 62.0299 910.489 517.645
576 0 59.0566 11.3281 669 63.1241 910.876 516.324
577 0 62.118 13.8768 862 59.6427 910.693 513.825
578 0 64.0873 12.8107 821 60.2972 910.884 513.8
579 0 64.1092 11.184 717 63.0976 912.099 510.951
580 0 67.0879 12.2079 819 61.7595 911.934 511.549
581 0 69.0922 13.8221 955 59.7089 912.029 509.434
582 0 73.0811 10.7552 786 62.3753 912.411 510.609
583 0 74.1316 11.7359 870 61.3552 912.866 508.672
584 0 78.0494 12.2871 959 60.1043 912.076 506.223
585 0 77.1703 12.7251 982 60.8177 911.589 505.204
586 0 83.2486 11.844 986 61.2394 912.092 505.523
587 1 41.0557 12.1786 500 59.732 911.582 522.71
588 0 43.054 9.43002 406 61.734 911.456 523.569
589 0 46.079 13.0428 601 58.7205 911.631 520.867
590 0 44.0397 11.2172 494 62.1478 911.466 520.443
591 0 49.0733 11.8802 583 60.693 911.221 518.148
592 0 48.1797 10.876 524 62.855 911.145 519.523
593 0 51.0249 12.8957 658 60.4635 911.17 517.992
594 0 53.0588 13.5699 720 59.1083 911.489 519.15
595 0 54.0964 13.8272 748 59.7914 911.035 518.167
596 0 55.1209 11.4657 632 63.0316 911.305 516.013
597 0 57.0522 12.9881 741 61.3401 910.769 515.514
598 0 59.0565 12.0393 711 62.0745 911.639 517.249
599 0 59.1255 12.1437 718 62.1797 911.426 517.691
600 0 63.09 14.091 889 60.1744 911.414 515.315
601 0 64.0916 13.0126 834 62.458 911.046 512.633
602 0 65.0302 12.2405 796 63.3492 910.926 510.706
603 0 66.0418 12.2952 812 63.9532 910.847 509.53
604 0 69.058 13.2497 915 62.623 911.132 507.391
605 0 71.0874 11.9008 846 64.7565 911.514 507.225
606 0 74.1544 12.9999 964 63.2977 911.425 508.845
607 0 77.1211 12.059 930 64.8 911.701 506.246
608 0 79.1115 13.9044 1100 62.9609 911.433 506.466
609 1 42.0254 11.4692 482 65.2801 911.913 520.718
610 0 42.0473 10.5595 444 65.9257 912.117 523.991
611 0 43.0422 10.7801 464 66.2328 911.726 522.772
612 0 47.0936 11.424 538 65.1691 912.424 523.669
613 0 48.0682 12.8151 616 63.927 910.601 520.692
614 0 46.101 13.1667 607 64.2521 911.89 521.928
615 0 52.0933 13.2071 688 63.561 911.196 519.045
616 0 49.062 12.0256 590 66.0847 911.849 519.105
617 0 54.0842 12.4251 672 64.6414 912.198 519.332
618 0 54.0248 13.0866 707 64.686 911.997 517.279
619 0 56.0363 11.3676 637 66.438 911.889 516.962
620 0 57.0795 12.8943 736 64.6481 911.883 515.057
621 0 59.1111 11.8252 699 65.9285 911.931 514.951
622 0 61.0586 13.2987 812 63.5406 911.815 514.957
623 0 64.0538 15.6587 1003 61.2871 911.669 512.447
624 0 65.0835 13.644 888 64.0968 912.564 512.039
625 0 66.0756 12.1225 801 65.6916 911.858 511.391
626 0 69.12 13.0498 902 64.5443 912.096 509.253
627 0 71.0592 11.7789 837 66.2963 911.36 507.483
628 0 75.0691 13.2944 998 64.1804 912.197 507.666
629 0 77.0965 14.0862 1086 63.4825 911.603 506.245
630 0 79.1087 11.579 916 66.9858 911.728 505.198
631 1 37.0524 10.0398 372 66.3548 911.594 524.505
632 0 42.0068 11.879 499 63.7214 911.719 522.667
633 0 41.0617 12.055 495 64.8283 912.036 522.509
634 0 44.0368 10.9 480 65.1812 912.327 522.992
635 0 43.0547 11.5202 496 65.4496 912.474 522.444
636 0 44.1142 11.8556 523 64.6099 912.838 521.713
637 0 47.0309 12.8639 605 63.6645 912.38 519.274
638 0 47.034 12.2039 574 64.7091 911.998 517.322
639 0 49.0606 14.4923 711 61.7089 912.302 517.947
640 0 51.0273 11.6212 593 64.4958 911.934 519.295
641 0 51.044 10.2265 522 66.8333 912.098 518.186
642 0 53.0356 12.0108 637 64.8948 912.317 516.413
643 0 55.1624 12.9073 712 64.0323 912.333 515.202
644 0 58.0415 13.0079 755 63.2622 911.872 514.093
645 0 61.0626 12.4462 760 63.3934 911.651 514.43
646 0 61.1711 14.1243 864 62.3287 911.754 511.9
647 0 60.042 12.7078 763 64.076 911.983 512.467
648 0 64.1223 13.9421 894 62.6365 912.121 509.367
649 0 67.0219 13.6672 916 62.8941 911.835 510.412
650 0 71.0872 12.1682 865 64.0578 912.049 508.361
651 0 73.0817 13.6286 996 63.0632 912.36 508.04
652 0 72.2025 11.9386 862 64.8039 912.117 508.95
653 0 75.0584 12.9233 970 63.7732 912.048 506.828
654 0 77.0774 13.8302 1066 63.7101 911.458 504.152
655 0 80.0791 12.4252 995 65.3427 910.365 502.581
656 1 41.1072 11.9201 490 64.5571 911.404 521.631
657 0 43.0969 12.089 521 63.6104 912.499 524.718
658 0 42.1088 11.5178 485 65.3072 911.573 523.616
659 0 47.0528 11.9653 563 64.6181 911.602 521.524
660 0 48.028 12.5968 605 64.0033 911.907 520.397
661 0 50.0785 13.3191 667 62.8831 912.315 519.669
662 0 49.1104 12.5025 614 63.4186 911.971 521.306
663 0 51.0882 12.7818 653 63.9418 911.588 518.859
664 0 53.1045 11.5621 614 65.9984 911.655 516.103
665 0 55.0579 11.7513 647 65.051 911.652 516.759
666 0 56.0297 13.4571 754 63.3859 911.871 513.519
667 0 58.0514 11.7138 680 65.1985 911.769 516.759
668 0 60.1519 14.8291 892 62.0796 911.602 514.732
669 0 62.1264 14.6476 910 62.211 911.874 513.475
670 0 64.0564 15.0336 963 61.8204 912.016 510.74
671 0 64.0646 13.1742 844 64.7228 912.268 511.172
672 0 68.0336 11.8471 806 65.433 912.206 511.706
673 0 69.071 12.8563 888 64.6937 912.116 510.563
674 0 73.1468 12.8372 939 64.9947 912.153 506.805
675 0 74.1307 13.1794 977 65.0297 912.406 507.274
676 0 75.112 12.7942 961 65.6587 912.006 507.951
677 0 79.1074 13.5386 1071 65.4482 912.156 505.83
678 0 83.1227 14.8335 1233 63.6375 912.543 504.621
679 0 85.054 13.3445 1135 65.9507 912.604 504.612
680 0 88.204 12.4824 1101 66.6667 912.249 503.146
681 0 91.1677 13.1077 1195 66.1941 911.704 501.302
682 0 92.0356 13.1688 1212 66.2434 912.646 502.295
683 1 52.072 11.0616 576 66.0122 912.759 519.404
684 0 53.1252 11.8964 632 64.6598 912.296 519.353
685 0 54.0683 11.7074 633 65.5229 911.997 519.646
686 0 54.1075 11.6435 630 65.9159 911.987 518.241
687 0 58.0853 12.5849 731 65.186 911.67 516.595
688 0 57.0822 11.0192 629 67.0525 912.83 517.703
689 0 60.0991 12.0634 725 66.589 912.548 515.306
690 0 62.0349 13.3796 830 64.9614 912.425 513.671
691 0 64.145 13.0018 834 65.1823 912.212 514.254
692 0 68.1794 12.1591 829 65.8444 912.674 514.823
693 0 67.099 11.1775 750 68.0453 911.689 512.721
694 0 69.1064 11.3304 783 68.3346 912.195 510.75
695 0 73.1017 12.6399 924 66.3182 912.387 511.001
696 0 75.2308 11.7106 881 67.5721 911.375 510.595
697 0 76.0882 13.1164 998 66.4389 911.771 509.664
698 0 80.0805 12.3376 988 66.9777 911.673 508.009
699 0 81.225 12.213 992 67.7732 911.77 504.825
700 0 85.141 12.6613 1078 66.7087 911.836 505.269
701 0 86.3711 11.2306 970 67.932 911.721 504.689
702 0 88.0937 11.851 1044 68.1935 911.891 501.479
703 1 46.1502 10.9859 507 65.2742 911.665 522.284
704 0 50.1046 12.0747 605 64.1372 911.572 520.182
705 0 50.0506 12.9669 649 63.0431 911.606 521.284
706 0 51.1664 12.5668 643 64.2784 911.232 518.893
707 0 54.1144 12.3627 669 64.3184 911.646 518.048
708 0 52.1059 10.8817 567 66.8201 911.032 516.755
709 0 55.1172 11.0673 610 66.2246 911.249 517.71
710 0 58.1 10.5336 612 67.2173 911.44 515.373
711 0 59.0447 12.1603 718 66.0125 911.313 513.384
712 0 61.2107 11.73 718 66.3412 911.733 513.873
713 0 63.0958 11.7916 744 66.1814 911.156 514.108
714 0 64.0436 13.2098 846 64.9799 911.726 511.712
715 0 68.0908 11.7931 803 66.477 911.635 510.907
716 0 66.1391 8.7694 580 70.4 911.759 508.641
717 0 73.1125 13.2946 972 64.787 911.624 507.804
718 0 74.1171 10.6183 787 67.5959 911.623 508.537
719 0 77.0531 11.0443 851 67.6216 912.134 505.241
720 0 78.3406 11.4117 894 67.6588 911.645 504.945
721 0 81.1346 11.9061 966 67.3551 911.951 503.18
722 1 38.0401 9.64771 367 66.8038 911.866 524.687
723 0 40.0338 9.84168 394 66.7005 911.19 524.043
724 0 41.0098 13.4358 551 62.8675 911.82 521.935
725 0 45.1121 11.3495 512 64.7383 911.801 522.342
726 0 45.1835 11.2209 507 65.073 911.696 522.872
727 0 45.0518 10.9651 494 66.2733 911.089 520.516
728 0 47.0883 12.3385 581 64.79 910.986 520.177
729 0 50.0926 10.2211 512 66.8926 910.996 519.973
730 0 48.0905 11.3952 548 66.1405 911.628 521.038
731 0 53.1273 11.6324 618 65.2282 911.096 518.445
732 0 54.071 11.6883 632 66.1123 911.193 516.18
733 0 57.1064 10.8919 622 66.3457 911.458 517.013
734 0 57.0658 10.9873 627 66.1882 911.187 517.365
735 0 57.0738 10.1448 579 67.1865 911.154 515.451
736 0 61.0838 11.4597 700 65.6514 911.331 513.181
737 0 65.1465 12.5103 815 63.2957 911.519 513.892
738 0 66.1874 12.1171 802 64.4476 911.445 508.433
739 0 69.0758 11.3643 785 65.3248 911.326 510.577
740 0 71.1002 10.7313 763 66.2516 911.961 509.316
741 0 72.1603 9.61748 694 67.5821 911.756 507.794
742 0 76.0931 12.5373 954 64.1205 911.155 506.92
743 0 78.1732 11.8455 926 65.3261 911.582 503.543
744 0 80.1168 10.1602 814 66.9091 910.934 506.682
745 1 38.2245 10.9877 420 64.5643 910.467 524.843
746 0 39.0681 10.3409 404 64.995 911.141 525.057
747 0 41.1274 10.0177 412 65.1456 911.09 523.471
748 0 43.0147 12.8561 553 61.8137 911.132 523.81
749 0 44.1218 8.83917 390 66.141 911.41 525.056
750 0 45.0548 12.163 548 62.6642 911.299 522.221
751 0 45.0944 10.9548 494 64.7368 910.947 520.018
752 0 50.0695 10.8849 545 63.633 910.936 519.725
753 0 53.0563 11.4407 607 62.229 911.104 519.621
754 0 50.035 10.3328 517 63.9188 911.132 520.309
755 0 52.0454 10.9904 572 64.1853 910.549 516.009
756 0 55.3322 12.3798 685 61.9942 910.873 515.353
757 0 57.0628 10.5147 600 64.01 910.4 517.533
758 0 61.0926 11.2943 690 62.6768 911.588 516.513
759 0 61.1934 11.4228 699 62.9986 910.741 515.333
760 0 61.0914 9.77224 597 64.8559 910.683 514.771
761 0 64.2417 10.4761 673 64.2273 911.143 513.293
762 0 67.0626 11.0196 739 63.1746 910.922 514.595
763 0 68.2006 11.1729 762 63.6772 910.392 513.072
764 0 69.1456 10.9045 754 63.8024 910.838 512.139
765 0 74.2338 10.1571 754 63.8753 910.71 513.072
766 0 75.1244 11.7538 883 62.7984 911.503 506.367
767 0 77.1045 11.5557 891 62.6768 910.884 508.278
768 0 80.0732 12.064 966 62.6128 910.807 504.053
769 0 82.1278 11.1534 916 63.1255 911.218 505.913
770 0 84.0544 11.1951 941 63.6472 911.293 501.045
771 1 41.1024 9.78046 402 63.9876 911.943 523.393
772 0 45.1271 13.0963 591 60.264 911.739 521.91
773 0 46.178 11.9754 553 61.6456 911.752 520.494
774 0 48.0397 12.4064 596 60.5134 911.584 522.834
775 0 49.021 9.95492 488 62.9467 911.977 521.443
776 0 49.0182 9.01705 442 64.2376 911.324 519.851
777 0 54.0459 12.3044 665 59.7113 911.177 519.934
778 0 54.2598 12.6982 689 59.8491 911.345 518.253
779 0 55.0628 11.3507 625 61.0688 911.662 516.835
780 0 57.0759 11.949 682 60.4296 910.761 515.912
781 0 59.253 12.4213 736 59.9198 911.371 516.008
782 0 60.178 13.028 784 59.2602 911.376 514.121
783 0 61.1445 11.7427 718 60.2967 910.985 513.964
784 0 62.0571 10.587 657 60.93 911.149 510.82
785 0 66.1787 13.7204 908 57.4659 910.894 511.838
786 0 70.1217 12.4355 872 58.3108 911.337 511.56
787 0 70.1098 13.322 934 58.409 911.402 505.499
788 0 73.0937 13.7768 1007 57.3039 911.04 508.82
789 0 75.18 12.1575 914 59.2866 910.99 506.819
790 0 76.0973 12.944 985 59.133 911.139 504.54
791 0 77.3217 12.4933 966 59.7567 910.788 501.751
792 0 81.1875 11.4057 926 60.3574 910.854 504.992
793 0 81.1335 9.53983 774 62.8928 910.765 499.559
794 1 42.0536 9.44034 397 60.8942 911.632 522.456
795 0 41.1171 11.9658 492 59.1768 911.669 522.5
796 0 44.0201 11.0631 487 59.9979 911.142 522.09
797 0 45.0472 12.9864 585 58.3692 911.077 521.07
798 0 45.017 9.37423 422 62.2014 911.109 519.81
799 0 48.056 12.6311 607 58.9786 911.26 518.633
800 0 51.0731 11.6108 593 59.5666 911.309 517.135
801 0 50.0924 10.3608 519 60.6609 911.141 517.393
802 0 52.0721 11.5801 603 59.8856 911.425 513.237
803 0 55.1473 10.9525 604 59.9917 910.969 515.099
804 0 57.1184 12.5354 716 58.7486 910.816 514.996
805 0 59.1816 12.0308 712 59.1222 911.022 513.169
806 0 60.154 13 782 58.3325 911.34 514.092
807 0 62.2074 12.4583 775 59.1574 911.486 510.548
808 0 65.0878 11.3846 741 60.2321 910.251 511.308
809 0 65.2414 11.4038 744 60.9328 910.917 511.243
810 0 68.1017 13.2302 901 58.8812 910.582 508.228
811 0 70.0819 11.8861 833 60.3409 911.359 510.244
812 0 72.1371 13.2248 954 59.7201 911.214 504.929
813 1 35.01 10.5113 368 59.6902 911.837 527.818
814 0 36.0691 10.5353 380 60.3605 911.918 527.308
815 0 37.0354 9.09941 337 61.1662 911.62 528.519
816 0 39.1245 11.2973 442 60.2443 911.473 526.312
817 0 41.0335 11.7221 481 60.2495 911.023 525.185
818 0 43.3133 13.5986 589 58.4839 911.236 526.126
819 0 41.1012 9.85373 405 63.1802 911.748 523.654
820 0 42.0288 9.94557 418 63.8373 911.761 522.452
821 0 45.0874 14.0172 632 59.3924 911.726 523.6
822 0 46.0692 13.5448 624 59.4647 912.005 523.07
823 0 48.0198 10.5581 507 62.2998 911.231 521.907
824 0 51.0458 11.5387 589 61.5314 911.443 520.52
825 0 53.0518 13.4208 712 60.0478 911.598 520.177
826 0 51.0808 12.0398 615 61.7772 911.117 516.621
827 0 54.0332 12.4738 674 61.0445 911.604 518.812
828 0 59.0587 12.0389 711 61.2208 911.309 516.536
829 0 60.0791 11.6513 700 61.7971 911.061 516.737
830 0 63.0574 13.9873 882 59.6054 911.503 515.77
831 0 64.1001 13.0421 836 60.2883 911.695 516.185
832 0 63.0503 11.5781 730 62.5822 911.442 515.181
833 0 66.0766 13.4087 886 60.6964 910.693 513.948
834 0 69.0603 12.699 877 61.3751 911.182 514.69
835 0 72.0628 13.0997 944 61.2097 911.206 511.95
836 0 74.0856 11.6487 863 62.7659 911.126 511.911
837 0 73.0965 12.0252 879 63.215 910.816 507.72
838 0 73.0851 11.3156 827 64.6542 910.763 504.689
839 0 72.0382 8.57878 618 67.123 910.419 502.055
840 1 42.0937 11.8545 499 60.8437 911.254 526.92
841 0 43.078 10.423 449 61.8374 911.258 528.412
842 0 46.1482 11.7448 542 60.6199 911.369 526.659
843 0 46.0181 11.7997 543 61.4641 911.635 524.363
844 0 46.0664 13.8062 636 59.6431 912.214 524.363
845 0 49.0573 10.7629 528 61.9167 911.75 522.087
846 0 51.0494 11.0481 564 60.9273 911.261 524.176
847 0 54.0309 12.5854 680 60.3912 911.491 520.426
848 1 104.078 12.2601 1276 63.9334 911.471 495.044
849 0 110.222 13.2823 1464 62.4132 910.533 495.875
850 1 59.1491 13.9816 827 58.4268 911.066 519.663
851 0 61.1754 11.8021 722 61.0776 911.363 518.584
852 0 63.0421 14.0224 884 59.0441 911.067 518.241
853 0 65.0255 11.6877 760 62.0342 911.328 514.397
854 0 67.116 11.2939 758 62.1794 911.334 515.069
855 1 132.198 12.746 1685 64.1941 911.169 485.785
856 0 135.205 11.3014 1528 66.6276 910.643 480.112
857 0 139.122 14.1818 1973 63.2093 910.566 481.958
858 0 146.344 11.8078 1728 66.2726 910.234 477.616
859 0 150.18 12.6714 1903 65.2969 910.578 477.529
860 0 154.272 12.9965 2005 65.9526 910.368 473.088
861 0 155.215 11.8288 1836 68.9793 910.052 473.437
862 0 161.337 9.23534 1490 71.155 911.228 476.626
863 0 168.376 11.1179 1872 69.8798 909.799 470.672
864 1 129.2 11.6486 1505 67.794 910.28 488.029
865 0 133.205 10.6077 1413 69.4296 910.809 480.498
866 1 95.2283 12.0972 1152 64.5069 910.685 502.971
867 0 94.1614 11.1829 1053 65.9516 910.343 500.983
868 0 100.194 11.4977 1152 66.1615 911.058 498.699
869 0 103.291 13.7863 1424 63.4536 911.284 498.032
870 0 105.236 11.7831 1240 66.1798 911.087 493.031
871 0 107.102 12.3247 1320 65.6076 910.646 495.261
872 0 114.184 13.5483 1547 63.9981 910.352 492.43
873 0 112.138 10.8527 1217 66.8669 910.613 496.102
874 0 122.182 10.869 1328 66.7078 910.715 493.248
875 0 126.347 12.7902 1616 65.0885 909.89 489.639
876 0 128.349 11.7025 1502 67.7064 911.069 483.833
877 0 133.127 13.6712 1820 65.6962 911.172 481.747
878 0 140.265 12.2482 1718 66.8225 911.33 481.872
879 0 143.242 12.0496 1726 68.0301 911.311 476.587
880 0 147.311 11.1329 1640 69.4201 911.12 476.818
881 0 150.338 11.3545 1707 69.8799 911.227 474.627
882 1 41.0673 10.6898 439 64.0797 910.98 527.253
883 0 42.0266 11.2072 471 63.3461 911.633 526.722
884 0 43.1088 9.97475 430 64.7558 911.549 527.167
885 0 46.1751 12.1061 559 63.2344 911.63 526.041
886 0 45.0663 12.3596 557 64.3321 911.847 522.528
887 0 50.12 11.6121 582 63.8625 911.33 524.01
888 0 50.0833 12.9584 649 62.7858 911.758 523.532
889 0 52.1106 10.3626 540 65.7648 911.756 523.833
890 0 54.0535 12.1916 659 63.5205 911.763 523.847
891 0 56.0437 12.5795 705 64.0284 911.63 520.338
892 0 58.2509 12.7895 745 63.2161 911.697 519.738
893 0 60.0939 10.7498 646 66.1842 911.655 518.3
894 0 61.0351 10.4202 636 65.8601 911.072 519.215
895 0 64.1458 12.7366 817 63.989 910.938 514.919
896 0 65.0899 12.5519 817 63.7625 911.032 515.987
897 0 67.1088 11.8166 793 64.6532 910.735 515.502
898 0 71.0464 11.1617 793 65.4628 911.477 513.629
899 0 70.2559 12.5256 880 64.775 911.819 511.272
900 0 74.1707 10.4624 776 66.2526 911.487 513.008
901 0 77.1324 13.5222 1043 63.1026 911.622 508.817
902 1 40.0347 9.54171 382 64.9555 911.547 527.238
903 0 40.0998 10.0499 403 64.0273 911.156 527.774
904 0 43.0767 9.40184 405 65.5556 910.679 524.378
905 0 44.0493 11.192 493 64.0446 910.525 523.899
906 0 45.0511 12.6523 570 62.4895 910.595 522.258
907 0 46.0441 11.0546 509 64.2515 911.102 523.118
908 0 51.0906 11.4111 583 61.8285 911.34 524.492
909 0 50.0531 11.9273 597 63.0988 911.074 521.204
910 0 50.0711 10.0257 502 64.9821 911.97 521.878
911 0 52.0794 12.4041 646 62.1486 912.35 521.618
912 0 57.0238 11.9599 682 62.2903 912.757 518.367
913 0 56.1426 12.8601 722 61.3213 912.731 518.91
914 0 58.1236 12.9035 750 60.756 911.551 521.095
915 0 60.1483 12.0535 725 61.7062 911.07 516.97
916 0 64.0529 11.8183 757 61.8877 910.861 515.404
917 0 62.0875 9.11617 566 64.8622 911.055 516.684
918 0 63.0687 11.9394 753 62.2762 910.659 513.382
919 0 68.0607 12.6945 864 60.3356 910.672 512.883
920 0 69.1462 12.4519 861 61.5285 911.121 509.551
921 0 73.073 11.4543 837 62.1266 911.405 511.061
922 0 74.1685 10.7188 795 62.3987 910.431 509.742
923 0 77.1192 12.2019 941 60.78 909.648 504.802
924 0 78.1082 10.7159 837 62.0681 910.363 505.854
925 0 82.144 12.3685 1016 60.1575 910.404 505.2
926 1 42.0783 12.049 507 58.4951 910.195 526.112
927 0 39.0279 9.32667 364 62.1813 910.684 524.712
928 0 43.0875 10.5367 454 60.6278 910.035 523.762
929 0 45.0426 13.4983 608 58.028 910.74 522.301
930 0 45.0376 12.323 555 59.182 910.995 522.755
931 0 48.0893 12.56 604 58.3262 911.066 522.063
932 0 48.0518 12.7363 612 57.7582 910.753 523.458
933 0 50.1212 11.6318 583 59.729 910.77 520.087
934 0 52.0693 11.5039 599 60.197 911.536 518.182
935 0 53.0883 13.0537 693 58.1457 911.215 516.983
936 0 56.0553 13.8256 775 57.2671 911.317 516.626
937 0 57.0922 11.3501 648 60.0232 910.202 517.704
938 0 60.08 12.1671 731 58.7811 911.016 517.07
939 0 60.1632 11.9342 718 59.4373 911.482 515.884
940 0 64.0961 10.5311 675 60.7333 911.151 512.673
941 0 64.0831 10.6268 681 61.1175 910.924 512.204
942 0 67.0554 10.469 702 61.3818 910.254 508.778
943 0 70.118 12.6073 884 59.3314 910.954 507.253
944 0 74.2078 13.2331 982 58.5234 911.293 507.526
945 0 75.066 10.8838 817 60.7026 911.056 507.973
946 0 77.1238 11.501 887 60.3393 911.575 507.139
947 1 39.0819 11.8725 464 58.7716 911.362 524.425
948 0 39.0188 11.0972 433 60.2517 911.443 524.654
949 0 42.0385 11.2754 474 59.7806 911.652 522.753
950 0 42.0923 9.50293 400 61.58 911.382 523.455
951 0 45.0591 10.9634 494 60.5972 911.081 520.247
952 0 45.0944 12.4627 562 58.9662 911.198 521.208
953 0 45.0703 10.8053 487 61.0986 912.055 519.023
954 0 46.0156 9.97489 459 62.2571 911.575 519.817
955 0 50.0254 11.2143 561 60.2816 911.469 519.105
956 0 53.0961 11.6769 620 60.0306 911.208 518.585
957 0 53.0416 10.5766 561 61.0107 911.316 519.237
958 0 56.104 12.459 699 59.3233 911.674 514.306
959 0 59.0918 11.6767 690 59.6391 911.435 517.652
960 0 60.0376 12.5255 752 59.6902 911.453 513.463
961 0 63.034 13.3896 844 58.2713 911.879 512.398
962 0 65.1149 12.2553 798 59.4987 911.966 512.412
963 0 69.0913 11.9841 828 59.5713 911.797 511.801
964 0 68.2049 13.3421 910 59.0286 911.686 511.3
965 0 73.083 12.8758 941 59.6174 911.319 506.727
966 0 76.0972 11.4722 873 60.6781 911.243 507.608
967 0 78.125 11.6736 912 60.4638 911.179 505.194
968 0 81.1619 13.0973 1063 59.1345 911.468 504.671
969 1 41.0499 11.7175 481 58.9459 911.376 524.553
970 0 41.1885 9.00737 371 61.9677 911.566 524.852
971 0 44.0731 12.6608 558 58.3871 911.229 522.928
972 0 44.0733 10.8456 478 60.1716 911.473 523.538
973 0 46.1326 10.6649 492 60.3882 911.624 522.874
974 0 47.0847 12.297 579 59.3731 911.535 520.427
975 0 49.0975 10.6115 521 60.9731 911.562 520.892
976 0 51.0432 11.7156 598 59.8428 911.791 519.94
977 0 50.0485 11.2291 562 61.2972 911.253 517.619
978 0 52.0201 12.2645 638 60.1238 911.16 517.437
979 0 55.0478 10.936 602 61.2492 912.065 517.326
980 0 56.1488 12.0038 674 60.592 912.227 513.866
981 0 58.0296 13.4931 783 58.5109 911.582 513.427
982 0 58.0405 12.095 702 60.8704 911.477 514.204
983 0 60.1806 11.9141 717 60.2943 911.347 515.423
984 0 61.1376 10.9916 672 62.2664 911.89 510.987
985 0 65.0708 10.9573 713 62.2426 912.07 508.358
986 0 68.053 11.5498 786 60.8562 912.196 509.242
987 0 69.0979 11.7659 813 61.0763 912.228 509.011
988 0 73.373 12.3342 905 59.3359 912.159 511.204
989 0 73.1532 11.141 815 61.5742 911.683 507.747
990 1 37.0311 10.8287 401 59.9252 912.16 526.127
991 0 39.0083 10.2799 401 60.9027 911.905 523.115
992 0 40.0216 11.069 443 60.5824 912.165 522.052
993 0 41.038 11.7208 481 59.5988 912.52 521.254
994 0 46.065 11.9614 551 57.7931 911.929 523.695
995 0 47.0217 10.6547 501 59.98 912.106 520.673
996 0 47.0586 10.4338 491 60.275 911.837 520.986
997 0 47.0333 12.7994 602 58.7043 912.113 518.382
998 0 50.0537 12.5265 627 58.6794 911.582 518.659
999 0 51.0644 14.0803 719 57.1919 911.136 518.458
1000 0 55.1498 12.3663 682 58.544 911.419 517.018
1001 0 55.0366 12.3372 679 58.785 911.387 518.303
1002 0 55.072 10.6951 589 60.4499 911.531 516.63
1003 0 57.0812 11.107 634 60.3675 911.76 516.431
1004 0 60.1012 14.0596 845 56.7349 911.162 516.091
1005 0 62.1564 11.2941 702 59.7835 911.34 513.963
1006 0 63.1072 12.9779 819 58.8889 911.742 513.248
1007 0 66.071 11.8206 781 59.7644 911.627 513.932
1008 0 67.1076 11.7125 786 60.1921 910.865 511.85
1009 0 67.2671 10.1387 682 62.3372 910.584 509.821
1010 0 71.0692 11.6647 829 60.5549 911.06 510.415
1011 0 74.1351 12.1805 903 60.2879 910.817 507.914
1012 1 35.0184 12.165 426 58.4155 911.129 526.737
1013 0 36.0223 9.60517 346 59.8699 911.373 528.795
1014 0 36.0196 10.3277 372 60.1237 911.054 525.772
1015 0 40.0524 10.3614 415 59.012 911.019 527.79
1016 0 39.0123 11.0478 431 59.2645 910.691 525.049
1017 0 39.0547 11.1894 437 59.9153 910.87 524.737
1018 0 40.0155 11.2956 452 59.9646 910.77 523.42
1019 0 46.017 11.3002 520 58.5481 910.423 525.708
1020 0 45.0151 11.8849 535 58.7271 910.445 524.454
1021 0 47.0315 11.3116 532 59.1804 910.959 523.968
1022 0 45.0615 11.5176 519 59.368 909.803 524.372
1023 0 49.0327 10.646 522 60.8103 910.276 522.651
1024 0 50.0261 12.1137 606 58.1766 910.64 523.876
1025 0 50.0302 11.1533 558 59.414 910.337 523.034
1026 0 53.084 11.7926 626 58.7045 910.492 519.655
1027 0 55.0428 11.4456 630 58.7365 910.217 520.232
1028 0 54.1065 12.919 699 58.5207 910.029 518.608
1029 0 56.0328 11.1185 623 59.74 910.01 515.607
1030 0 58.0827 10.4506 607 60.1895 909.55 517.058
1031 0 61.0609 11.1037 678 59.3555 910.022 516.553
1032 0 61.1389 11.0731 677 59.6337 909.747 516.162
1033 0 65.0346 11.4554 745 58.5933 909.626 515.772
1034 0 67.0326 11.6212 779 58.7458 909.73 512.924
1035 0 71.0771 12.3387 877 56.9487 910.033 514.382
1036 1 37.0573 11.6306 431 56.0394 910.042 528.798
1037 0 38.0951 9.92255 378 57.6402 909.688 529.548
1038 0 37.0736 9.60251 356 59.5309 909.826 524.697
1039 0 42.0553 12.5787 529 56.2571 909.321 525.17
1040 0 41.0497 11.6444 478 57.3389 909.224 526.718
1041 0 45.0446 12.9649 584 55.2021 909.747 526.43
1042 0 44.0986 11.7918 520 57.5173 909.865 523.413
1043 0 45.3424 12.174 552 56.9511 910.167 524.23
1044 0 48.2933 11.8443 572 57.4178 910.021 521.444
1045 0 48.2886 12.1975 589 57.3294 909.754 521.603
1046 0 51.4942 13.419 691 56.0246 910.266 521.547
1047 0 51.1176 11.6203 594 58.2576 909.694 521.431
1048 0 53.0956 14.3138 760 55.9026 909.672 520.089
1049 0 51.1857 10.2177 523 60.4321 910.423 519.019
1050 0 53.1832 9.53309 507 61.0355 909.763 518.872
1051 0 57.1774 12.7148 727 57.5681 909.161 517.455
1052 0 58.1299 11.7495 683 58.6047 909.413 515.198
1053 0 61.1774 12.7498 780 58.0282 908.696 516.86
1054 0 63.2794 11.8522 750 58.572 908.769 517.044
1055 0 63.1105 11.4878 725 59.5531 909.163 513.934
1056 0 66.1024 10.5745 699 59.8999 908.604 514.977
1057 0 68.1186 12.0378 820 59.0939 909.516 509.323
1058 0 69.115 11.4158 789 59.4981 909.578 511.279
1059 0 70.0596 11.8328 829 59.6743 909.807 505.922
1060 1 35.0847 11.6575 409 58.7531 909.78 528.702
1061 0 39.0442 10.9363 427 58.6768 910.054 530.696
1062 0 39.0143 11.8418 462 59.5087 910.249 528.141
1063 0 40.0229 11.8432 474 59.2679 909.648 526.177
1064 0 42.0959 11.0462 465 60.1462 909.718 527.551
1065 0 42.1007 11.4725 483 60.087 910.323 527.236
1066 0 43.0882 11.3952 491 60.7352 910.063 525.584
1067 0 45.0497 10.3885 468 61.2329 910.524 524.814
1068 0 47.1969 12.3525 583 59.319 910.504 523.652
1069 0 49.1639 11.2684 554 60.2365 910.383 524.773
1070 0 51.1728 13.3469 683 58.7716 909.725 523.594
1071 0 52.2095 12.9287 675 59.16 909.922 520.976
1072 0 54.2972 12.2474 665 60.1338 910.149 520.608
1073 0 54.0967 12.3298 667 60.1484 910.184 520.789
1074 0 57.1028 13.0291 744 59.289 910.661 519.645
1075 0 59.0593 15.8146 934 56.4133 909.939 518.539
1076 0 62.3146 11.6345 725 60.2248 910.019 517.908
1077 0 62.2658 12.0291 749 60.223 910.491 517.475
1078 0 66.2231 12.2465 811 59.6387 909.963 515.407
1079 0 66.1235 12.28 812 60.1884 910.634 515.339
1080 0 69.0322 14.0659 971 58.3368 910.894 513.781
1081 0 73.1216 13.9767 1022 58.4041 910.446 514.062
1082 0 74.0704 12.0426 892 60.3453 910.756 512.443
1083 0 75.0875 12.9849 975 59.7231 910.757 511.522
1084 0 77.2252 11.6154 897 61.049 910.897 507.453
1085 1 36.014 13.1893 475 57.8863 911.31 530.053
1086 0 38.0329 11.0168 419 58.7184 910.594 530.94
1087 0 37.0322 13.1237 486 57.8066 911.107 529.438
1088 0 38.0486 10.4866 399 60.1328 911.501 528.108
1089 0 40.1423 11.1603 448 59.5647 910.864 526.808
1090 0 43.022 10.6225 457 59.7287 911.42 527.755
1091 0 44.1449 12.8214 566 58.2632 910.521 526.899
1092 0 47.2374 12.3419 583 58.8988 911.329 524.741
1093 0 46.0486 12.704 585 58.8205 911.154 526.48
1094 0 49.0537 12.9042 633 58.763 910.915 524.641
1095 0 50.1774 14.1697 711 58.3249 911.276 521.858
1096 0 51.1057 12.9731 663 59.3002 911.137 522.505
1097 0 54.1137 12.3629 669 59.867 911.082 519.773
1098 0 56.5772 11.2413 636 60.6777 910.89 517.272
1099 0 57.137 12.1462 694 59.7622 911.053 521.434
1100 0 60.1068 11.6459 700 60.5543 911.419 518.184
1101 0 63.0818 11.5723 730 59.7863 910.974 519.467
1102 0 66.1377 12.1716 805 59.3838 910.355 517.8
1103 0 66.091 12.6643 837 59.828 910.769 514.434
1104 0 68.3182 10.7146 732 61.071 911.286 516.986
1105 0 71.1528 12.5223 891 59.4007 911.146 515.893
1106 0 74.2124 14.0273 1041 58.4352 910.592 512.637
1107 0 73.1411 10.5413 771 61.7938 910.37 511.259
1108 0 76.0776 11.4225 869 60.2808 910.138 515.353
1109 0 80.2493 11.2898 906 60.7031 910.535 512.118
1110 0 84.1948 12.1029 1019 60.2051 910.796 507.867
1111 1 44.0448 12.5781 554 59.3412 910.951 525.942
1112 0 47.0794 12.6382 595 58.6403 910.501 523.452
1113 0 47.1672 12.6359 596 59.5352 910.822 522.841
1114 0 48.045 10.5942 509 60.8644 910.739 524.967
1115 0 49.0918 11.3054 555 59.8703 910.36 526.211
1116 0 52.0814 11.7508 612 59.8464 910.449 522.052
1117 0 51.0607 9.20473 470 62.6915 910.989 521.07
1118 0 54.0842 12.462 674 60.3576 911.076 519.328
1119 0 54.0773 10.7069 579 61.8014 910.724 519.841
1120 0 57.2062 13.3202 762 59.5197 910.539 519.44
1121 0 60.0784 12.9331 777 59.5496 910.646 520.084
1122 0 62.1242 15.0827 937 58.3074 910.488 515.914
1123 0 66.0828 11.1678 738 61.9309 910.665 515.253
1124 0 67.0712 12.6433 848 61.1144 911.585 512.288
1125 0 66.0483 12.0518 796 62.4435 911.214 511.717
1126 0 68.095 8.26786 563 65.9592 910.872 513.618
1127 0 73.1414 12.4553 911 62.4665 911.513 510.844
1128 0 78.0879 12.2426 956 62.3075 910.918 513.128
1129 0 76.0658 10.2017 776 65.5696 911.068 509.276
1130 1 41.0851 12.2429 503 62.6342 911.101 525.282
1131 0 42.0238 10.8748 457 64.0022 910.904 525.718
1132 0 42.028 11.6589 490 63.8143 910.902 526.276
1133 0 47.0484 12.7316 599 62.6027 910.691 526.471
1134 0 47.0462 11.9457 562 63.9591 910.632 523.831
1135 0 48.0718 13.8959 668 62.0778 910.573 523.292
1136 0 47.0438 12.9454 609 64.3366 910.946 521.177
1137 0 55.0653 14.0924 776 61.2577 910.961 523.054
1138 0 53.1559 13.3569 710 63.4296 910.913 520.354
1139 0 54.1127 12.4555 674 64.138 910.978 520.871
1140 0 56.0525 12.7381 714 64.3641 910.969 519
1141 0 55.0915 10.8365 597 66.9698 911.499 513.561
1142 0 56.0954 10.7139 601 67.1115 911.692 514.421
1143 0 60.1155 10.6628 641 66.5226 911.115 510.076
1144 0 62.0803 11.5496 717 66.2078 910.498 511.403
1145 0 65.1591 11.2187 731 66.8071 911.256 509.347
1146 0 73.1242 12.8412 939 63.7316 911.418 512.235
1147 0 72.1671 12.2909 887 64.9673 910.79 510.697
1148 0 77.0344 14.6168 1126 62.6377 910.829 509.576
1149 0 80.1793 14.2057 1139 63.6936 911.167 508.468
1150 1 36.0233 11.9645 431 65.0719 911.341 527.195
1151 0 38.029 11.1231 423 66.2624 911.392 527.504
1152 0 38.0155 14.4941 551 62.9964 910.572 527.986
1153 0 41.0409 13.1332 539 63.666 911.273 528.544
1154 0 41.0936 11.7537 483 65.6853 911.778 526.482
1155 0 46.0433 13.1833 607 64.5206 911.127 525.675
1156 0 45.0254 12.6373 569 64.3392 911.158 525.608
1157 0 46.1304 13.6353 629 63.849 910.976 523.1
1158 0 47.0205 13.8663 652 63.5322 910.994 522.796
1159 0 49.0602 15.0427 738 61.9065 910.817 523.19
1160 0 50.0388 12.6902 635 64.9039 910.654 521.929
1161 0 52.1556 13.4022 699 63.3562 911.147 522.458
1162 0 53.1708 13.5977 723 63.1632 910.484 520.557
1163 0 55.1068 14.6806 809 62.0841 910.669 520.412
1164 0 57.0332 13.1152 748 63.4131 910.497 519.983
1165 0 59.0324 13.0267 769 62.8426 910.767 520.012
1166 0 60.0729 14.2494 856 62.035 910.903 518.78
1167 0 61.2853 14.0001 858 62.4347 911.033 517.435
1168 0 63.1909 13.8469 875 62.8549 910.969 514.601
1169 0 68.099 13.6713 931 62.3802 911.303 516.009
1170 0 69.1414 13.4073 927 63.2729 910.616 514.612
1171 0 71.1521 14.0263 998 62.498 910.659 512.539
1172 0 72.0777 13.7213 989 63.1689 910.677 512.73
1173 0 74.0503 13.923 1031 62.9903 910.416 514.127
1174 0 79.0758 16.1744 1279 60.6849 910.643 512.069
1175 0 80.2241 12.5399 1006 64.9056 911.21 509.976
1176 0 82.0917 14.5325 1193 63.1651 910.994 509.156
1177 0 85.1386 13.3899 1140 64.3807 910.807 509.918
1178 0 86.1264 14.4555 1245 64.7614 911.821 506.99
1179 0 91.1666 13.5905 1239 65.2042 911.533 507.251
1180 0 92.1291 13.5896 1252 65.2268 910.698 508.352
1181 0 96.1801 12.8717 1238 66.7197 910.815 502.124
1182 1 52.3991 12.9201 677 65.0133 910.369 524.341
1183 0 50.0375 11.991 600 67.1433 910.58 523.925
1184 0 55.2124 13.3847 739 65.3383 910.437 524.081
1185 0 55.1268 11.8635 654 68.0199 911.495 521.946
1186 0 56.1462 12.4318 698 67.6032 911.431 521.891
1187 0 59.2138 14.0339 831 65.9687 910.591 520.047
1188 0 60.0642 11.6043 697 68.1894 910.633 520.878
1189 0 62.1127 12.3002 764 68.64 911.097 518.572
1190 0 65.2177 13.5393 883 67.4134 911.024 517.402
1191 0 70.3117 13.4544 946 66.1564 911.168 518.786
1192 0 68.1217 12.6685 863 68.9734 911.139 515.175
1193 0 70.2162 13.6436 958 67.3184 911.182 516.83
1194 0 72.1629 13.7467 992 68.372 911.198 511.882
1195 0 75.4383 12.6328 953 68.9591 911.833 512.559
1196 0 77.2708 14.5721 1126 67.0666 912.273 512.853
1197 0 82.1352 13.977 1148 67.9364 911.134 509.773
1198 0 84.1439 13.9998 1178 68.0781 911.072 509.154
1199 0 85.0828 14.1862 1207 69.203 911.487 505.347
1200 0 89.2164 14.7955 1320 68.2765 911.729 504.645
1201 1 44.0775 10.6857 471 71.5244 912.085 525.958
1202 0 46.071 12.2854 566 69.0972 912.224 526.892
1203 0 45.0849 11.1789 504 71.4762 912.103 525.931
1204 0 48.2503 11.5854 559 71.0966 911.809 524.44
1205 0 51.2514 12.9948 666 68.4384 912.045 523.272
1206 0 54.2342 13.2573 719 67.8095 911.751 523.427
1207 0 54.2662 11.3883 618 70.1489 911.196 522.516
1208 0 53.2819 10.3412 551 72.3358 911.254 521.096
1209 0 56.2817 10.3053 580 71.7379 911.681 521.759
1210 0 60.1168 11.0285 663 70.3831 911.688 519.629
1211 0 56.098 10.856 609 71.7455 911.724 515.268
1212 0 60.0881 12.5649 755 69.5404 911.97 517.509
1213 0 60.2598 11.5168 694 71.3732 911.599 512.823
1214 0 63.1997 11.8988 752 70.4122 911.594 515.654
1215 0 64.0881 11.6714 748 71.2861 911.68 510.686
1216 0 66.0908 11.6658 771 70.9715 911.593 509.201
1217 0 68.2057 8.69429 593 73.57 911.29 510.83
1218 0 73.2216 11.2399 823 71.0644 911.317 509.751
1219 0 76.2105 10.2348 780 72.2474 911.563 508.894
1220 0 76.1114 11.0627 842 72.1627 911.587 508.017
1221 0 78.1453 11.1715 873 72.4055 910.974 502.213
1222 0 81.3283 11.6442 947 72.1457 911.297 503.004
1223 0 84.2238 9.47476 798 73.7444 910.634 504.776
1224 0 88.2505 11.9773 1057 71.071 910.263 503.365
1225 0 90.3937 9.525 861 73.741 911.022 503.069
1226 0 91.3788 9.53175 871 73.5809 911.369 505.119
1227 0 97.453 10.8052 1053 72.3675 911.205 501.885
1228 1 47.1203 12.8819 607 69.145 911.674 523.227
1229 0 47.0621 10.3055 485 72.4763 911.12 520.386
1230 0 52.2611 10.8494 567 70.5273 911.324 523.062
1231 0 56.1181 14.4695 812 66.8436 911.288 520.631
1232 0 57.3164 13.1725 755 68.5735 911.612 520.065
1233 0 60.2158 13.6509 822 67.219 910.764 520.303
1234 0 59.2926 12.7841 758 68.4301 911.499 521.595
1235 0 59.2424 11.6302 689 70.3004 911.464 520.44
1236 0 64.2862 12.0555 775 70.0994 910.866 516.843
1237 0 68.278 13.7233 937 67.9562 911.477 518.439
1238 0 70.4668 13.0274 918 69.244 911.192 512.97
1239 0 73.2688 13.7576 1008 68.8938 911.984 512.468
1240 0 73.1618 12.5065 915 70.7333 911.357 513.048
1241 0 74.1913 12.6969 942 71.621 911.367 512.473
1242 1 38.1292 11.9856 457 70.6696 911.685 529.685
1243 0 39.2494 11.7454 461 70.6377 911.954 530.43
1244 0 41.171 13.5532 558 69.629 912.165 527.685
1245 0 42.278 11.8265 500 70.564 912.77 528.76
1246 0 43.2031 12.2676 530 70.9019 912.102 525.508
1247 0 45.347 13.4959 612 68.9608 911.918 526.629
1248 0 45.2525 13.5683 614 69.7801 911.915 527.288
1249 0 45.3083 12.2053 553 71.2857 911.996 526.586
1250 0 49.3754 13.7518 679 69.6598 912.49 525.392
1251 0 46.285 10.9971 509 73.9784 912.375 525.057
1252 0 48.2644 12.7838 617 72.1815 912.371 521.859
1253 0 51.2024 13.515 692 69.9133 911.767 523.632
1254 0 52.2971 13.1365 687 71.0757 911.575 521.054
1255 0 56.2329 11.7902 663 70.5535 911.929 525.735
1256 0 58.1971 13.5058 786 69.8639 911.682 521.31
1257 0 56.2403 13.0156 732 71.1462 911.635 520.555
1258 0 61.3046 12.8375 787 70.6912 911.494 521.212
1259 0 62.3703 13.6603 852 69.8803 911.567 520.327
1260 0 64.0903 12.0923 775 72.431 911.757 517.979
1261 0 65.194 12.6545 825 72.44 911.133 514.698
1262 0 66.1704 10.9112 722 74.4862 911.192 513.626
1263 0 71.2814 12.9066 920 70.4902 911.783 517.04
1264 0 73.2166 11.8552 868 72.9055 910.732 513.448
1265 0 76.3058 12.6465 965 72.1865 911.235 508.323
1266 0 75.3188 10.2896 775 75.8284 911.577 510.252
1267 0 80.3953 10.7842 867 74.7958 910.803 508.978
1268 1 43.4532 11.4836 499 70.9218 911.663 528.902
1269 0 42.2547 11.4307 483 71.7971 911.327 528.919
1270 0 45.1747 12.7062 574 70.1829 911.521 526.322
1271 0 43.3983 11.3599 493 71.5923 910.923 527.815
1272 0 47.259 11.6168 549 70.6776 910.317 526.505
1273 0 48.1329 11.9253 574 70.1045 910.753 524.383
1274 0 49.2615 14.4332 711 66.5837 911.484 525.719
1275 0 54.4498 13.6089 741 66.8475 910.872 523.899
1276 0 54.0776 14.0169 758 67.3153 911.393 522.52
1277 0 57.1756 13.1699 753 67.7105 911.566 522.321
1278 0 57.1786 13.4666 770 67.2688 911.562 522.779
1279 0 62.1012 13.2043 820 66.5012 911.088 522.35
1280 0 63.1845 12.4398 786 68.3435 911.884 518.635
1281 0 66.195 14.5328 962 65.6819 911.523 518.834
1282 0 67.1264 14.2716 958 66.8309 911.021 515.011
1283 0 68.1995 11.6716 796 69.3002 911.378 516.773
1284 0 72.0989 14.1611 1021 66.6758 910.719 511.485
1285 0 72.0834 12.8046 923 68.6826 911.336 511.841
1286 0 78.249 13.7893 1079 67.0195 911.618 512.97
1287 1 37.0705 11.5456 428 67.6262 912.047 531.47
1288 0 37.0857 12.5655 466 67.5601 911.219 529.519
1289 0 39.1208 13.6756 535 66.8262 911.563 529.23
1290 0 39.0549 13.8011 539 66.9406 911.453 527.622
1291 0 42.0871 12.6642 533 67.8349 912.062 528.467
1292 0 42.0362 11.2998 475 68.8105 911.059 528.065
1293 0 43.0627 12.9579 558 67.5591 911.43 526.706
1294 0 45.1206 15.2923 690 64.3913 911.323 523.68
1295 0 48.076 12.1266 583 66.2727 910.406 526.892
1296 0 50.1022 13.5124 677 65.4742 911.544 523.905
1297 0 52.0906 12.9198 673 65.2214 911.36 524.462
1298 0 53.036 12.7084 674 65.3338 910.585 523.49
1299 0 54.0975 13.0135 704 64.3139 910.901 524.251
1300 0 56.0346 10.6541 597 67.6399 911.348 522.134
1301 0 57.0646 14.4748 826 63.3886 911.964 520.843
1302 0 59.2851 13.4266 796 64.3467 911.712 521.972
1303 0 62.2448 13.5433 843 64.7817 912.139 516.34
1304 0 64.0369 12.2429 784 66.4796 910.94 515.301
1305 0 66.0516 14.2464 941 63.9628 910.92 516.761
1306 0 68.11 14.6675 999 63.8518 911.518 514.456
1307 0 68.2164 13.5745 926 65.7311 911.002 515.009
1308 0 73.1024 13.4195 981 65.6524 911.423 514.025
1309 0 74.0505 12.505 926 66.4222 911.313 512.082
1310 0 78.1047 12.112 946 66.8985 912.312 509.273
1311 1 40.1105 12.1913 489 66.7035 912.164 526.595
1312 0 39.0688 10.8271 423 68.5296 911.896 525.227
1313 0 42.0881 12.165 512 67.5117 911.894 526.662
1314 0 45.0547 12.9842 585 65.9556 911.742 525.694
1315 0 45.0461 12.8091 577 66.2426 912.215 525.154
1316 0 46.0974 12.018 554 67.8123 912.769 524.316
1317 0 49.0919 14.7071 722 64.3906 911.888 522.662
1318 0 51.0515 14.3972 735 64.834 911.193 520.525
1319 0 52.033 11.5504 601 67.9867 911.379 520.641
1320 0 55.0543 13.8409 762 65.2572 911.1 519.487
1321 0 54.0211 13.3652 722 66.0235 911.978 521.587
1322 0 57.1726 12.0162 687 67.9505 911.908 517.154
1323 0 59.0728 14.3552 848 65.6958 911.307 515.978
1324 0 62.0798 13.1122 814 66.7948 911.501 514.789
1325 0 64.0795 13.4989 865 66.348 911.095 514.347
1326 0 65.1055 13.4858 878 66.2938 910.918 513.8
1327 0 68.1202 13.1679 897 66.4214 911.365 513.936
1328 0 72.0803 14.8307 1069 64.3583 910.896 509.801
1329 0 73.0873 13.6412 997 65.6319 911.154 508.332
1330 0 77.147 12.2882 948 66.9662 912.059 507.095
1331 0 78.117 11.9692 935 67.739 911.459 506.538
1332 1 40.0435 12.0868 484 66.5 911.331 525.93
1333 0 44.0925 12.814 565 65.4478 911.745 525.242
1334 0 45.0639 13.0038 586 65.1945 911.855 523.761
1335 0 47.2384 11.9818 566 65.629 911.641 524.555
1336 0 47.1724 11.5322 544 66.8989 911.952 522.513
1337 0 50.0222 12.0547 603 65.2554 911.226 523.494
1338 0 53.0594 12.3824 657 64.5221 911.393 520.956
1339 0 53.0457 10.2364 543 66.326 911.197 520.643
1340 0 57.1208 12.8149 732 63.3347 910.706 519.914
1341 0 56.1079 11.8343 664 65.5075 911.602 517.688
1342 0 59.0603 12.7666 754 64.3156 911.666 516.722
1343 0 63.1242 11.7863 744 64.2581 911.444 517.641
1344 0 64.1458 13.2043 847 63.0944 911.79 514.708
1345 0 65.0808 13.0299 848 63.4894 911.42 515.073
1346 0 68.1319 11.0814 755 65.8861 911.185 509.624
1347 0 73.1085 15.0324 1099 61.5578 910.72 508.054
1348 0 75.1165 13.1396 987 63.8136 910.99 507.218
1349 0 78.0584 13.4643 1051 63.4634 912.116 507.11
1350 1 36.0106 10.2748 370 65.3541 911.924 524.478
1351 0 37.091 9.13968 339 65.5929 912.44 526.794
1352 0 40.0298 11.1167 445 63.6022 911.73 525.658
1353 0 44.0997 14.0364 619 59.9273 912.115 526.49
1354 0 44.0272 14.65 645 59.3566 911.612 528.189
1355 0 45.0421 11.7224 528 62.8769 910.966 524.947
1356 0 46.0657 11.3316 522 62.9138 911.414 525.186
1357 0 50.159 13.2778 666 60.5991 911.384 524.387
1358 0 50.1443 11.6065 582 62.1667 911.677 523.146
1359 0 50.1938 10.9575 550 62.9964 911.836 523.125
1360 0 52.0827 12.8066 667 60.2864 912.216 522.138
1361 0 53.0183 10.4681 555 62.7405 912.308 520.876
1362 0 56.1596 12.4111 697 60.779 911.775 519.476
1363 0 57.0621 13.7044 782 59.5064 911.74 519.692
1364 0 60.0626 13.769 827 59.393 911.339 517.545
1365 0 61.1544 10.2854 629 62.4308 912.213 517.879
1366 0 63.0954 11.1894 706 62.4094 911.045 511.943
1367 0 66.1803 13.3272 882 59.8674 911.579 515.382
1368 0 66.1536 10.5361 697 63.2166 911.841 510.805
1369 0 71.0652 12.186 866 61.6328 912.245 509.341
1370 0 73.0752 12.3298 901 61.4362 912.321 512.338
1371 0 76.1524 11.674 889 61.982 912.156 512.961
1372 0 77.0752 12.3905 955 61.4126 912.004 511.012
1373 0 81.1488 12.9022 1047 61.6552 912.384 508.376
1374 1 41.2643 12.6017 520 59.5385 912.625 528.24
1375 0 39.0821 8.92993 349 64.3123 911.212 525.633
1376 0 44.0627 12.3914 546 60.2656 911.707 525.176
1377 0 44.0664 11.8004 520 61.1115 912.648 522.617
1378 0 44.0432 9.46797 417 63.5731 912.108 522.477
1379 0 46.159 11.4387 528 61.3504 912.614 524.028
1380 0 48.0741 13.2504 637 59.5699 912.436 521.218
1381 0 51.1461 12.2003 624 59.7436 911.978 522.224
1382 0 53.0481 12.3284 654 59.7202 912.489 521.388
1383 0 54.0542 13.0425 705 59.0383 911.661 520.374
1384 0 54.0226 11.2546 608 60.597 911.656 519.059
1385 0 59.0954 12.3867 732 59.2896 912.478 517.105
1386 0 60.3102 14.0275 846 57.3215 912.005 516.704
1387 0 62.0719 11.6478 723 59.9571 912.19 516.216
1388 0 63.1339 11.7211 740 60.4838 911.916 512.027
1389 0 68.0492 12.3146 838 59.5955 911.795 511.999
1390 0 71.126 12.1896 867 59.6205 911.847 513.198
1391 0 71.102 11.0686 787 60.9009 911.972 511.765
1392 0 72.0696 12.9042 930 59.8312 911.695 510.58
1393 0 77.0817 11.5721 892 61.1267 911.749 508.321
1394 0 79.2282 11.6499 923 62.1213 911.677 508.157
1395 0 80.0928 12.5604 1006 61.0924 912.078 507.483
1396 0 85.1582 12.8819 1097 60.6682 911.609 505.326
1397 0 87.256 12.8243 1119 60.9991 912.55 504.07
1398 1 45.0252 9.90557 446 60.9327 912.141 526.805
1399 0 47.0381 14.2012 668 57.7814 911.841 523.874
1400 0 48.0163 13.0581 627 59.378 911.116 523.278
1401 0 49.3836 11.36 561 60.3119 912.178 523.955
1402 0 52.1278 10.8963 568 61.0599 911.128 522.856
1403 0 54.2179 11.7673 638 59.4859 912.074 523.911
1404 0 57.1672 11.1602 638 60.152 910.453 519.857
1405 0 59.1169 11.5534 683 59.2328 910.356 520.488
1406 0 60.0842 11.3008 679 59.7791 910.994 516.53
1407 0 63.1246 11.5328 728 59.4712 911.78 517.126
1408 0 63.1408 13.7312 867 57.5329 911.593 515.353
1409 0 66.1008 14.1299 934 57.1006 911.038 513.101
1410 0 68.1783 11.0739 755 60.3788 911.779 512.287
1411 0 71.1431 12.1586 865 58.9988 911.786 512.575
1412 0 74.1669 12.7415 945 58.4857 912.261 512.049
1413 0 75.1786 10.8941 819 60.5897 912.397 509.668
1414 0 81.3369 10.7577 875 59.7189 911.895 511.047
1415 0 82.2655 9.66384 795 61.0654 912.592 508.735
1416 0 84.2168 12.5509 1057 58.9357 912.577 505.953
1417 1 42.0388 11.87 499 57.8317 912.904 528.788
1418 0 41.1338 10.1863 419 60.3055 912.687 525.711
1419 0 42.1144 11.2788 475 59.4716 912.156 525.594
1420 0 45.0201 5.81962 262 64.0153 912.569 522.527
1421 0 47.03 12.1837 573 58.2531 912.73 522.677
1422 0 49.0591 12.4544 611 57.779 912.833 523.103
1423 0 49.1166 13.7632 676 56.7012 912.725 524.046
1424 0 53.2734 11.8633 632 57.7832 912.032 522.362
1425 0 55.0782 12.1827 671 57.2474 912.213 521.768
1426 0 55.0668 12.3305 679 58.2121 912.647 519.539
1427 0 59.1356 11.9387 706 57.9518 912.602 518.88
1428 0 62.1966 13.9718 869 55.9264 912.302 517.442
1429 0 64.1726 12.965 832 56.8125 912.642 517.418
1430 0 65.0935 12.1825 793 57.6797 912.395 515.293
1431 0 66.1484 9.88686 654 60.1743 912.09 514.531
1432 0 70.1456 13.0158 913 57.6714 912.284 514.553
1433 0 71.0674 11.1725 794 59.3136 911.992 514.767
1434 0 74.1871 12.2798 911 58.6542 911.689 511.577
1435 0 76.0816 10.7516 818 60.3961 911.914 509.359
1436 0 80.1888 12.2087 979 58.9101 911.94 506.872
1437 0 81.0956 12.812 1039 58.4475 911.645 508.629
1438 1 39.0702 13.6933 535 57.3402 911.94 527.236
1439 0 43.1317 12.5893 543 57.6704 911.379 527.269
1440 0 45.0178 10.1071 455 61.0308 911.947 525.422
1441 0 46.2874 11.6662 540 59.7667 911.68 526.059
1442 0 49.0608 12.7801 627 58.4721 911.746 525.226
1443 0 49.067 12.7581 626 58.6294 911.353 524.478
1444 0 53.0586 12.2506 650 58.8723 911.234 522.802
1445 0 54.023 12.7353 688 58.5029 912.126 523.971
1446 0 56.1143 13.1339 737 58.422 911.803 521.174
1447 0 56.0643 11.9684 671 60.1669 911.931 518.715
1448 0 61.1303 13.8229 845 57.368 911.822 521.337
1449 0 61.1594 13.0479 798 59.1266 911.637 518.995
1450 0 61.2373 13.8804 850 58.9612 911.722 518.247
1451 0 64.2697 13.1944 848 59.7559 911.564 516.864
1452 0 67.2002 13.3482 897 59.8997 911.958 513.634
1453 0 70.0946 13.3106 933 59.075 911.307 515.681
1454 0 76.1123 12.9151 983 59.7833 911.399 508.568
1455 0 75.1602 12.1474 913 61.1862 911.26 512.14
1456 0 80.3153 13.3474 1072 59.82 911.93 507.763
1457 0 81.1674 13.2566 1076 60.3634 911.484 506.579
1458 0 85.3978 12.19 1041 61.1806 911.478 508.903
1459 0 87.1959 12.363 1078 61.6688 911.158 506.124
1460 1 42.1279 12.0585 508 61.0748 911.872 526.48
1461 0 43.0918 12.2065 526 61.7414 911.968 527.16
1462 0 43.1003 12.4129 535 61.6953 911.905 527.955
1463 0 47.1197 12.1817 574 62.5888 911.69 526.103
1464 0 47.1877 12.3549 583 62.0086 912.144 526.132
1465 0 51.4258 12.9313 665 61.8842 911.027 523.43
1466 0 53.085 12.9415 687 61.2707 911.828 523.274
1467 0 53.3679 12.6855 677 62.1433 911.294 520.97
1468 0 54.1619 14.6413 793 60.1892 911.56 520.572
1469 0 57.0772 12.7722 729 61.9767 911.583 519.347
1470 0 57.0876 14.5741 832 60.5673 911.769 516.369
1471 0 61.1002 11.833 723 63.0913 911.678 517.402
1472 0 63.1039 12.5349 791 62.4425 912.396 516.056
1473 0 65.3272 12.7512 833 61.6314 912.397 514.672
1474 0 65.234 13.1067 855 61.752 911.937 513.38
1475 0 69.2011 12.0374 833 62.3013 911.499 512.857
1476 0 71.1769 11.6751 831 63.0433 911.388 512.037
1477 0 74.0689 13.609 1008 60.9881 911.211 509.938
1478 0 75.2108 13.3492 1004 61.5349 911.61 511.241
1479 0 77.2366 12.4035 958 62.8299 911.717 507.757
1480 0 80.0468 10.7937 864 64.0139 911.368 510.038
1481 0 84.1941 13.2195 1113 61.6945 911.027 508.082
1482 1 40.036 11.8144 473 62.6194 911.184 524.178
1483 0 44.0591 13.4365 592 60.0625 910.927 525.916
1484 0 45.1626 13.0861 591 61.2995 911.242 525.372
1485 0 46.072 12.2634 565 62.292 910.86 523.949
1486 0 47.0481 10.9675 516 63.3973 911.219 524.913
1487 0 49.1268 12.5186 615 62.0146 911.543 522.398
1488 0 49.2046 12.7224 626 62.6326 911.393 522.891
1489 0 51.0664 12.2585 626 63.2843 910.837 520.572
1490 0 54.1731 12.4785 676 62.7544 910.889 518.234
1491 0 57.1492 15.0308 859 60.1758 910.832 518.546
1492 0 55.1021 12.1774 671 63.7764 911.122 519.39
1493 0 59.2092 13.4439 796 61.8078 911.202 518.69
1494 0 60.1059 13.0603 785 62.5885 911.44 518.278
1495 0 64.0877 13.0758 838 62.5955 911.106 515.789
1496 0 66.2607 14.0506 931 62.2073 911.042 513.073
1497 0 69.1797 12.735 881 63.3757 911.291 511.809
1498 0 71.2078 13.7485 979 62.4474 911.634 513.147
1499 0 72.0668 12.8076 923 63.9913 911.803 511.29
1500 1 34.1047 12.227 417 62.5683 910.813 529.602
1501 0 35.0458 10.1296 355 66.1746 911.623 528.848
1502 0 37.0359 11.6914 433 64.6351 911.868 528.448
1503 0 39.1751 12.5079 490 63.0449 911.28 527.871
1504 0 43.1724 12.4153 536 62.5056 911.259 526.763
1505 0 42.1567 12.9517 546 62.4762 910.991 527.588
1506 0 43.2153 10.8526 469 65.4414 911.476 524.448
1507 0 45.0547 13.3837 603 62.7579 911.6 523.239
1508 0 44.0666 12.4584 549 64.8652 911.226 521.679
1509 0 47.3201 12.5528 594 63.862 911.428 521.069
1510 0 49.2531 12.5474 618 63.2395 911.662 524.28
1511 0 48.2277 12.7105 613 64.478 911.548 522.147
1512 0 52.1395 13.3105 694 63.3501 912.075 520.473
1513 0 55.1428 14.272 787 62.1982 911.349 519.995
1514 0 56.4764 12.2529 692 64.1821 910.961 521.954
1515 0 58.2913 11.3224 660 65.2439 911.35 521.22
1516 0 60.2354 12.6006 759 64.4743 912.068 518.468
1517 0 61.2232 12.9526 793 64.3657 911.441 519.878
1518 0 64.131 11.7884 756 65.9497 912.064 517.251
1519 0 66.3714 13.4998 896 64.7879 911.57 514.097
1520 0 69.3836 13.1731 914 64.4694 911.18 516.166
1521 0 71.4932 11.5396 825 66.8655 911.686 513.124
1522 1 38.2419 11.4011 436 64.8417 911.505 530.583
1523 0 38.2906 10.7598 412 66.2476 911.529 529.59
1524 0 40.2613 13.8594 558 64.0824 912.115 527.199
1525 0 41.3436 11.4649 474 65.9536 911.572 528.745
1526 0 42.3777 12.1762 516 65.907 912.343 527.087
1527 0 44.3418 14.704 652 62.7975 911.845 526.899
1528 0 46.2446 11.6987 541 66.0296 910.965 525.497
1529 0 44.215 10.8787 481 67.7318 911.075 525.563
1530 0 48.2529 12.9111 623 65.4815 911.835 524.032
1531 0 48.2454 11.3586 548 67.1204 911.491 524.752
1532 0 50.2595 11.6794 587 67.7172 911.831 521.457
1533 0 52.3987 11.527 604 67.6374 911.369 521.722
1534 0 51.2191 12.4758 639 66.7027 911.293 523.199
1535 0 54.1614 11.0411 598 68.2341 911.186 520.114
1536 0 57.269 13.7771 789 64.507 911.284 522.46
1537 0 59.174 13.8912 822 64.9647 911.084 519.266
1538 0 60.2236 12.9517 780 66.7705 910.918 518.165
1539 0 64.2091 11.665 749 68.1909 910.422 515.992
1540 0 65.2249 11.79 769 68.1964 910.07 515.563
1541 0 66.26 10.2928 682 69.5029 910.396 514.79
1542 0 72.2611 13.0776 945 66.4497 910.579 513.924
1543 0 71.1531 10.9904 782 68.9834 910.547 515.331
1544 0 73.2683 11.6967 857 69.4726 910.705 512.962
1545 1 38.2278 10.8821 416 68.4423 910.969 531.231
1546 0 40.0774 11.8022 473 68.0275 911.482 528.611
1547 0 41.4856 13.3782 555 66.9586 910.627 528.135
1548 0 41.1873 11.4113 470 68.7915 910.896 527.798
1549 0 44.236 13.6314 603 66.4013 911.524 526.95
1550 0 44.1172 11.4921 507 69.1243 910.962 525.274
1551 0 44.1877 13.1484 581 67.3718 910.735 527.458
1552 0 47.2496 13.5239 639 67.7606 910.87 522.645
1553 0 47.102 10.9974 518 70.4459 910.164 522.359
1554 0 48.1087 12.8459 618 68.3592 910.955 520.451
1555 0 51.3034 13.0011 667 67.7391 910.463 522.58
1556 0 55.2165 13.7459 759 65.7128 910.596 522.329
1557 0 56.1061 11.8704 666 68.1592 910.617 520.356
1558 0 57.1258 11.3784 650 68.38 910.795 518.132
1559 0 59.2659 11.9968 711 67.8861 910.695 518.89
1560 0 62.11 13.0575 811 66.4168 910.272 518.656
1561 0 63.2154 13.0348 824 66.7694 911.148 518.68
1562 0 64.2958 12.9869 835 66.0742 911.087 517.419
1563 0 66.2858 11.9784 794 67.8048 910.736 512.819
1564 0 71.2729 12.5995 898 66.1626 910.763 513.672
1565 0 74.3168 13.0657 971 65.5829 911.156 512.533
1566 0 75.3665 10.8934 821 68.5067 911.024 509.535
1567 0 78.4074 13.7104 1075 65.2623 910.213 510.256
1568 1 38.1554 13.1829 503 64.9384 910.785 528.863
1569 0 38.2819 10.6316 407 67.801 910.376 527.202
1570 0 39.195 12.7822 501 66.0459 910.715 525.341
1571 0 43.2442 11.6085 502 66.494 910.872 525.982
1572 0 45.3815 12.5382 569 64.478 911.102 527.039
1573 0 46.2062 14.7816 683 63.0615 911.48 524.993
1574 0 46.2346 13.5613 627 64.201 911.671 524.4
1575 0 48.1163 12.1996 587 65.6405 910.925 523.816
1576 0 46.1753 11.9328 551 66.7986 910.603 522.223
1577 0 50.3053 13.8355 696 64.0417 910.973 521.256
1578 0 53.3628 14.5982 779 62.4596 911.24 522.969
1579 0 53.3826 14.9487 798 63.0376 910.658 521.267
1580 0 57.3074 15.0242 861 62.1324 910.767 519.389
1581 0 56.0839 14.5675 817 63.5373 911.082 518.95
1582 0 61.2481 14.7433 903 61.8771 911.413 518.872
1583 0 60.3636 13.1868 796 64.4736 911.144 518.51
1584 0 62.2011 12.3953 771 64.9805 910.739 517.363
1585 0 65.1728 12.9809 846 64.1927 911.186 513.567
1586 0 68.2008 13.8855 947 62.8701 911.671 514.079
1587 0 70.2631 12.994 913 63.9222 910.923 511.747
1588 0 72.1561 12.8749 929 64.1335 910.74 509.14
1589 0 72.188 12.3289 890 65.1528 910.68 509.071
1590 0 77.3371 13.1373 1016 63.5522 910.784 510.872
1591 0 81.308 13.8363 1125 63.2987 910.581 506.471
1592 1 39.0984 13.6067 532 62.0714 911.066 527.318
1593 0 39.1536 13.8174 541 62.244 911.274 526.392
1594 0 40.0356 12.7886 512 63.5 910.799 523.633
1595 0 40.2076 10.7691 433 65.5612 910.667 524.143
1596 0 45.314 14.8961 675 60.5644 911.104 525.068
1597 0 43.0569 12.7506 549 63.51 910.8 523.246
1598 0 46.2757 11.8853 550 63.8236 911.36 521.315
1599 0 48.1269 14.1085 679 61.4669 911.108 519.971
1600 0 51.3468 12.3279 633 62.4802 911.164 520.662
1601 0 52.2547 11.2143 586 62.9659 911.58 523.633
1602 0 55.2489 13.5749 750 60.6853 911.433 519.852
1603 0 57.449 14.0298 806 59.8164 911.162 518.391
1604 0 61.2536 14.84 909 58.5941 910.06 518.874
1605 0 62.3123 13.978 871 59.6797 910.138 517.465
1606 0 64.4349 12.3691 797 61.394 910.294 516.153
1607 0 65.1161 13.8522 902 60.2483 910.091 514.394
1608 0 70.1643 14.4233 1012 59.002 910.013 511.733
1609 0 69.3772 13.232 918 60.3007 910.843 514.633
1610 0 72.2136 13.28 959 61.2753 910.441 513.554
1611 0 73.1007 13.625 996 60.4418 910.709 513.344
1612 0 73.1347 11.9642 875 62.2651 909.819 511.555
1613 0 77.1802 12.5939 972 61.5175 910.22 509.019
1614 0 78.2697 11.882 930 62.4312 910.447 507.903
1615 1 40.2097 12.6338 508 59.9488 910.961 525.864
1616 0 40.2766 13.5811 547 59.7404 910.143 524.863
1617 0 42.2896 13.4548 569 59.761 911.019 523.49
1618 0 42.0998 11.8765 500 61.142 910.888 522.806
1619 0 45.1297 13.7603 621 58.7407 910.944 524.622
1620 0 49.1096 12.4008 609 58.9606 911.392 523.746
1621 0 50.1586 11.7428 589 60.1172 911.745 521.798
1622 0 50.4199 13.7049 691 57.6093 911.504 522.349
1623 0 54.3154 13.7346 746 56.7292 911.512 523.223
1624 0 56.1252 13.1492 738 57.9607 911.489 517.953
1625 0 58.311 14.1826 827 57.0786 911.592 518.843
1626 0 58.3232 12.5851 734 58.7861 911.388 516.943
1627 0 60.2863 13.2203 797 57.8996 911.612 515.215
1628 0 62.0595 13.906 863 57.4704 911.789 516.423
1629 0 67.2226 12.4809 839 58.4648 911.606 514.327
1630 0 67.1715 12.3415 829 59.1701 910.849 513.005
1631 0 71.1576 13.8425 985 58.0437 910.993 511.948
1632 0 71.1358 10.9228 777 60.9356 910.997 510.551
1633 0 74.203 13.3687 992 58.8881 911.152 509.34
1634 0 78.1836 13.5195 1057 58.6329 911.174 509.799
1635 0 80.1599 12.0759 968 60.2779 911.027 502.478
1636 0 84.135 13.3714 1125 59.128 910.686 503.996
1637 0 85.1057 12.1261 1032 60.4341 910.704 504.61
1638 0 88.0829 13.124 1156 60.4299 910.92 504.267
1639 0 92.2536 11.8153 1090 61.3046 910.686 499.538
1640 1 48.2777 12.4488 601 59.8353 911.343 523.414
1641 0 50.1828 11.8766 596 60.2164 910.792 522.188
1642 0 53.0245 15.4457 819 56.4603 910.663 520.558
1643 0 53.0818 13.5074 717 59.014 910.338 519.127
1644 0 54.1733 12.46 675 59.8741 910.892 517.961
1645 0 56.0781 12.1973 684 60.0994 910.949 516.633
1646 0 59.091 11.88 702 59.6966 910.315 515.211
1647 0 62.0634 14.2596 885 57.3153 911.079 515.584
1648 0 65.0947 11.8904 774 59.1318 910.562 513.324
1649 0 65.0887 10.4934 683 60.899 910.716 514.78
1650 0 70.1228 14.3463 1006 57.1799 910.868 510.26
1651 0 73.1197 12.7599 933 58.164 910.516 511.688
1652 0 76.108 13.1129 998 58.0341 910.273 507.534
1653 0 79.0379 13.1582 1040 58.4519 910.189 506.009
1654 0 81.1824 12.5643 1020 58.9284 910.448 504.231
1655 0 85.1299 12.4046 1056 59.286 911.135 499.893
1656 0 87.0825 11.8968 1036 59.6805 910.778 502.292
1657 1 44.0578 10.7813 475 59.6947 910.787 522.598
1658 0 49.0795 12.7752 627 56.488 910.81 523.834
1659 0 47.1384 10.8404 511 59.4247 910.319 521.311
1660 0 51.0811 12.6661 647 57.4668 910.968 520.529
1661 0 52.0758 12.693 661 57.0741 910.784 518.352
1662 0 54.031 10.9012 589 58.1545 910.725 516.11
1663 0 55.0664 12.1853 671 57.3666 910.486 515.347
1664 0 57.0743 11.5639 660 57.5394 910.786 513.368
1665 0 60.058 11.5722 695 57.3137 910.752 513.272
1666 0 61.0749 12.4929 763 56.3761 911.282 513.406
1667 0 64.0288 11.5261 738 56.7642 911.027 512.026
1668 0 67.139 11.3645 763 57.0288 911.028 510.201
1669 0 71.1101 12.7971 910 55.6593 911.303 508.497
1670 0 71.1205 12.5421 892 56.0157 911.45 503.808
1671 0 75.2562 11.1752 841 57.0939 910.718 503.962
1672 0 79.0766 12.7598 1009 54.6135 910.711 507.016
1673 0 81.1195 12.722 1032 55.4254 911.155 500.977
1674 0 85.0993 12.1388 1033 55.8935 911.556 500.279
1675 0 88.0463 11.4712 1010 56.3683 910.738 497.024
1676 1 43.0817 10.1667 438 55.71 910.365 521.863
1677 0 46.1094 12.7089 586 54.0939 910.679 518.398
1678 0 46.0536 10.3358 476 56.4937 910.095 516.076
1679 0 49.0398 12.2146 599 54.4691 910.806 516.182
1680 0 50.0916 13.4753 675 53.5348 910.733 516.841
1681 0 52.0729 11.9064 620 54.7855 910.794 516.103
1682 0 55.0326 12.0111 661 54.0817 911.191 518.191
1683 0 58.0294 11.7354 681 54.5066 910.725 511.699
1684 0 56.0592 11.7911 661 55.4206 910.905 511.935
1685 0 60.108 10.6974 643 55.7154 911.182 511.157
1686 0 61.0947 8.72416 533 56.7392 911.197 513.064
1687 0 66.1139 11.4197 755 55.3179 911.277 509.399
1688 0 66.1351 11.2497 744 55.3737 910.956 509.243
1689 0 69.1429 12.0764 835 54.7186 910.158 505.733
1690 0 72.1634 12.3885 894 54.6778 910.716 506.287
1691 0 75.0547 13.0172 977 54.0993 909.994 504.694
1692 0 78.0997 14.3791 1123 52.7676 910.281 503.504
1693 0 77.0928 11.5316 889 55.7199 910.2 501.736
1694 0 81.1445 13.0878 1062 54.6262 910.103 498.262
1695 0 85.1671 12.1761 1037 55.27 910.66 496.616
1696 1 43.0347 10.0384 432 54.3773 910.398 521.454
1697 0 46.1206 10.8628 501 54.7525 910.677 517.916
1698 0 46.0415 9.83895 453 55.8808 910.801 518.962
1699 0 48.0241 10.6197 510 54.7392 910.384 517.841
1700 0 48.0609 9.63361 463 56.0648 910.184 516.514
1701 0 50.051 10.8689 544 54.9669 909.79 516.397
1702 0 53.1329 12.6475 672 53.0074 910.536 515.476
1703 0 52.0544 9.20192 479 55.8664 909.916 514.015
1704 0 57.1068 11.9951 685 53.4993 909.801 512.62
1705 0 58.0512 8.32024 483 56.0642 909.54 509.899
1706 0 58.0497 13.1095 761 52.5112 910.71 511.937
1707 0 61.1155 10.4392 638 54.569 910.18 510.469
1708 0 65.0767 13.0922 852 51.9319 910.385 508.108
1709 0 68.1872 13.067 891 52.3143 909.938 506.167
1710 0 69.1193 12.5001 864 52.8472 910.402 506.378
1711 0 73.037 12.8017 935 52.5305 910.343 508.063
1712 0 74.1112 10.5517 782 55.0026 909.169 504.902
1713 0 79.117 13.9667 1105 51.9955 909.782 504.285
1714 0 81.0828 12.9374 1049 53.3289 909.701 500.745
1715 0 82.0676 13.7204 1126 52.9654 909.915 497.011
1716 0 85.0541 12.2745 1044 54.4521 910.376 501.409
1717 0 89.0733 12.9444 1153 54.6045 909.649 498.059
1718 1 43.0788 9.2853 400 55.2925 910.51 523.18
1719 0 45.0912 10.4899 473 55.4271 909.759 520.52
1720 0 48.071 12.7728 614 53.2313 909.966 518.752
1721 0 49.1565 12.979 638 53.605 910.5 518.125
1722 0 50.1187 9.25803 464 56.4957 909.797 514.996
1723 0 51.0708 9.61411 491 56.4155 910.638 517.271
1724 0 54.2468 12.8487 697 53.5581 910.773 513.735
1725 0 57.0755 11.8264 675 53.9615 910.859 516.156
1726 0 58.0532 10.9382 635 55.1953 910.701 512.986
1727 0 61.1177 12.3041 752 54.1755 911.093 512.04
1728 0 62.0419 13.3136 826 53.2397 910.72 512.26
1729 0 65.1163 12.5007 814 54.3968 910.534 509.561
1730 0 68.082 11.7358 799 54.6258 910.829 508.051
1731 0 71.0655 13.762 978 52.8487 910.67 511.162
1732 0 74.1533 13.8362 1026 53.2096 910.6 507.063
1733 0 75.1537 11.2968 849 55.4158 910.616 509.277
1734 0 79.1944 13.7384 1088 53.2822 910.53 505.759
1735 0 80.0518 11.7174 938 55.8571 909.746 504.892
1736 0 83.1453 12.7488 1060 55.3047 910.415 501.271
1737 0 84.2071 14.1318 1190 53.9588 910.592 503.135
1738 1 47.1515 10.4132 491 56.387 910.745 520.819
1739 0 47.091 12.6988 598 55.1187 911.12 518.405
1740 0 50.0561 10.7679 539 56.7996 910.961 519.074
1741 0 49.0468 12.2128 599 56.2053 910.892 517.74
1742 0 51.1251 10.8557 555 56.8793 910.647 516.793
1743 0 54.1205 13.8025 747 53.992 910.622 515.876
1744 0 57.0524 12.2869 701 55.0471 910.148 514.926
1745 0 56.07 9.68433 543 57.2431 910.37 513.983
1746 0 57.0803 10.7217 612 56.4461 909.752 514.203
1747 0 61.1933 13.9721 855 53.3041 910.025 514.404
1748 0 62.075 13.0971 813 53.9619 910.209 512.229
1749 0 64.0698 11.9869 768 55.0664 910.066 509.105
1750 0 68.1096 11.6577 794 54.8904 909.684 507.571
1751 0 69.0525 13.6418 942 53.534 910.664 506.246
1752 0 71.1003 9.24046 657 57.6971 909.729 506.507
1753 0 74.1767 11.7557 872 55.7878 910.007 503.442
1754 0 78.2222 9.2429 723 57.379 909.794 504.584
1755 0 80.1132 10.7098 858 56.5455 909.486 498.77
1756 0 85.0762 11.3545 966 55.53 910.929 502.513
1757 1 39.061 10.65 416 55.137 910.433 522.899
1758 0 43.0567 11.8913 512 53.9277 910.365 521.588
1759 0 44.0511 9.94301 438 55.8333 910.288 518.495
1760 0 45.0818 11.0466 498 54.8273 909.602 518.504
1761 0 45.0596 10.2309 461 55.5206 910.115 519.254
1762 0 50.1213 11.1529 559 54.3381 910.082 517.082
1763 0 51.1424 11.4191 584 54.1558 910.562 515.577
1764 0 53.1159 12.6516 672 52.869 910.24 516.433
1765 0 54.057 12.6533 684 53.5614 909.991 514.349
1766 0 54.1296 12.3962 671 53.7288 909.723 512.058
1767 0 56.033 10.9221 612 54.9134 910.092 513.18
1768 0 58.1849 11.6869 680 54.175 910.432 510.757
1769 0 59.0968 10.8466 641 54.8612 911.186 513.059
1770 0 62.205 9.69376 603 56.3914 911.376 508.726
1771 0 61.0986 10.9331 668 55.9252 910.464 506.936
1772 0 65.1185 10.2582 668 55.8069 910.088 509.274
1773 0 68.1387 12.4012 845 54.0722 910.063 505.092
1774 0 71.2197 10.7835 768 55.1693 909.884 505.525
1775 0 71.1043 11.3917 810 54.8593 909.575 500.951
1776 0 74.0876 10.8925 807 55.5428 909.742 502.833
1777 0 77.0814 11.5203 888 54.9685 909.565 499.502
1778 0 81.1257 11.4267 927 55.205 910.041 499.166
1779 0 85.1825 12.5847 1072 53.9394 910.709 498.308
1780 0 86.0906 11.7202 1009 54.7354 909.871 495.143
1781 0 91.1708 13.3486 1217 53.5423 910.371 494.698
1782 0 91.1374 11.1809 1019 55.1502 909.95 491.236
1783 0 94.167 10.5663 995 54.9005 910.198 498.185
1784 1 51.068 13.1393 671 52.1446 910.325 513.094
1785 0 51.0482 9.50083 485 55.5443 909.944 513.761
1786 0 55.0395 11.9369 657 53.5114 909.636 510.059
1787 0 55.0782 10.004 551 55.118 910.595 509.307
1788 0 59.0929 13.4872 797 51.6211 909.827 505.12
1789 0 60.0609 8.59128 516 55.2364 910.072 506.791
1790 0 65.1878 10.7996 704 53.554 910.555 505.368
1791 0 65.1806 13.3782 872 51.836 910.716 505.264
1792 0 67.2383 11.66 784 53.6148 910.824 503.247
1793 0 70.1831 10.3871 729 53.9204 910.686 504.543
1794 0 74.0594 13.7322 1017 51.3107 910.329 499.055
1795 0 76.2972 12.2416 934 53.2109 911.09 500.668
1796 0 77.074 10.4705 807 54.4486 910.706 500.591
1797 0 83.201 10.9855 914 53.9201 910.734 498.312
1798 0 84.1131 12.7804 1075 53.2977 910.172 493.86
1799 0 88.1476 13.4547 1186 52.6813 909.659 498.11
1800 0 92.1395 13.1431 1211 52.9174 909.697 496.326
1801 0 97.2199 14.1946 1380 52.5014 910.394 494.178
1802 1 45.0405 13.2103 595 53.358 910.131 517.997
1803 0 46.0871 13.3226 614 53.0521 910.316 517.764
1804 0 41.0476 9.50116 390 57.0205 910.303 515.238
1805 0 48.0928 14.2225 684 52.2909 910.529 517.447
1806 0 49.0857 13.344 655 53.087 910.334 517.614
1807 0 50.1973 12.3513 620 53.9871 909.823 513.59
1808 0 53.0899 12.8273 681 53.4963 909.882 515.004
1809 0 55.0462 10.6093 584 55.7706 910.579 510.344
1810 0 56.0636 12.1291 680 54.6735 910.582 511.149
1811 0 59.0774 11.358 671 54.9806 910.195 511.301
1812 0 65.4194 14.3535 939 52.1374 909.61 511.915
1813 0 59.0683 11.9861 708 55.7429 909.62 509.867
1814 0 63.0546 11.72 739 56.2287 909.399 505.773
1815 0 66.1564 11.8507 784 55.8878 909.398 508.181
1816 0 66.2311 10.4181 690 57.4507 909.916 503.228
1817 0 73.1113 14.7857 1081 54.0768 909.925 504.074
1818 0 72.3758 11.9239 863 57.0081 909.686 502.007
1819 0 76.1228 11.4683 873 57.1352 910.549 503.32
1820 0 79.145 12.9888 1028 56.5058 910.477 502.64
1821 0 82.0843 13.0719 1073 56.617 909.933 499.864
1822 0 83.1201 13.3782 1112 56.5648 909.98 500.174
1823 0 87.2484 13.857 1209 56.445 909.837 494.1
1824 1 45.2209 13.423 607 55.0577 910.56 518.969
1825 0 48.1321 10.8867 524 56.6279 910.164 519.311
1826 0 48.0768 14.0192 674 54.5742 909.862 517.819
1827 0 49.1009 13.0344 640 55.875 910.192 514.891
1828 0 50.0852 10.2026 511 57.6321 909.35 517.718
1829 0 52.0693 12.9635 675 55.7867 909.84 515.748
1830 0 53.0431 14.4034 764 55.0209 910.9 514.106
1831 0 57.0991 13.2752 758 55.4208 910.26 512.07
1832 0 61.3405 11.7215 719 56.5494 909.481 512.473
1833 0 61.1704 10.8713 665 57.6692 909.577 510.737
1834 0 64.1608 12.4687 800 56.795 910.039 507.93
1835 0 66.1485 11.8975 787 57.2452 909.593 509.263
1836 0 70.1715 13.0965 919 56.4102 909.136 506.517
1837 0 74.2583 12.8875 957 56.5423 909.471 503.376
1838 0 74.1005 13.8731 1028 56.4747 909.959 505.426
1839 0 75.2427 11.5759 871 59.2905 909.893 500.959
1840 0 77.2277 13.143 1015 57.7576 909.7 498.982
1841 0 82.074 11.8795 975 58.9303 910.167 496.983
1842 0 84.05 11.7668 989 59.0607 909.727 499.248
1843 0 88.0917 11.3972 1004 59.3237 910.21 495.854
1844 1 45.0464 9.14612 412 59.8058 910.505 515.505
1845 0 46.048 9.64212 444 59.7545 910.228 512.577
1846 0 50.1123 11.2348 563 57.9272 910.055 514.261
1847 0 51.0948 9.08116 464 59.8211 910.157 511.739
1848 0 54.0789 11.2428 608 57.954 910.132 513.301
1849 0 53.0318 9.42831 500 59.952 910.246 509.848
1850 0 60.039 11.4426 687 57.2096 910.246 509.643
1851 0 60.0919 10.6836 642 58.4626 910.131 508.173
1852 0 64.1003 11.7472 753 57.3307 910.328 507.145
1853 0 67.0641 11.735 787 57.3634 910.064 506.39
1854 0 69.1702 13.4596 931 55.9957 909.716 506.487
1855 0 70.0986 11.3269 794 57.4547 910.199 501.712
1856 0 74.0584 11.3019 837 57.7658 910.444 501.232
1857 0 77.0447 11.6945 901 57.7325 910.509 503.536
1858 0 79.1906 10.1022 800 59.2675 910.401 502.674
1859 0 86.4656 13.1613 1138 56.2654 910.343 500.075
1860 0 87.1257 13.119 1143 56.5162 910.117 499.738
1861 0 90.1298 11.4502 1032 58.9981 909.509 495.146
1862 0 93.0926 13.2986 1238 57.1244 910.272 494.763
1863 0 95.1527 11.3081 1076 59.368 910.086 493.108
1864 1 49.1125 13.2146 649 55.866 909.932 518.08
1865 0 50.0616 11.326 567 57.9012 909.82 517.914
1866 0 52.2031 11.9533 624 57.2292 910.418 516.654
1867 0 55.139 11.734 647 57.8671 909.983 515.553
1868 0 58.1992 12.0448 701 56.9558 909.655 514.936
1869 0 56.1565 11.468 644 58.5295 910.331 510.652
1870 0 58.0822 9.74482 566 60.1025 910.148 511.583
1871 0 62.0251 13.0915 812 56.9865 910.079 508.568
1872 0 62.1532 14.6734 912 56.2621 910.084 508.414
1873 0 66.1432 13.4708 891 57.0438 910.348 506.866
1874 0 67.1357 14.8654 998 56.0832 909.586 506.232
1875 0 72.1711 11.9993 866 58.4007 909.336 506.664
1876 0 72.0867 11.3197 816 59.5221 909.946 502.19
1877 0 72.0671 10.2682 740 61.0486 909.509 500.215
1878 0 78.1117 13.0966 1023 58.6813 909.439 500.343
1879 0 79.1616 11.9376 945 60.4169 909.34 498.07
1880 0 85.1651 12.7869 1089 59.0432 909.713 498.323
1881 0 87.1175 12.684 1105 59.4941 909.148 495.994
1882 1 41.0158 10.4838 430 60.4442 910.016 519.307
1883 0 43.0519 11.6604 502 59.4104 910.034 519.257
1884 0 48.124 10.3275 497 59.7807 909.885 516.839
1885 0 45.039 12.4559 561 59.5651 909.724 518.469
1886 0 49.0971 12.7095 624 58.7997 909.494 516.595
1887 0 50.0919 12.6967 636 59.1352 909.752 515.673
1888 0 52.1793 12.9937 678 58.4912 909.69 515.569
1889 0 53.1132 12.7652 678 59.056 909.106 511.413
1890 0 54.0842 12.573 680 59.3926 909.354 511.86
1891 0 56.0596 11.7732 660 59.6712 909.592 514.006
1892 0 57.0854 12.2448 699 59.4993 909.702 513.087
1893 0 59.1579 12.2046 722 59.6911 909.993 509.13
1894 0 59.0227 9.80979 579 63.6857 909.753 507.686
1895 0 64.0474 13.2558 849 60.2061 909.64 506.706
1896 0 67.1487 12.6138 847 60.4687 909.744 508.065
1897 0 69.5321 11.2322 781 62.1575 909.992 506.889
1898 0 70.2445 11.5027 808 62.3564 909.824 503.215
1899 0 73.0705 12.0021 877 62.1003 910.168 501.828
1900 0 75.1492 11.9895 901 62.0921 908.909 501.492
1901 0 77.1271 11.6302 897 62.4381 909.967 500.748
1902 0 81.1701 12.2952 998 61.7144 909.74 501.148
1903 0 85.1901 12.7714 1088 61 909.729 498.595
1904 0 85.061 11.0509 940 63.4351 910.001 496.982
1905 1 46.046 14.138 651 57.7942 909.673 517.504
1906 0 44.0935 10.4777 462 61.9069 909.485 517.297
1907 0 49.044 12.3359 605 59.7256 909.762 515.149
1908 0 46.06 11.0074 507 61.568 909.152 513.576
1909 0 53.0679 11.6078 616 59.2419 909.005 517.057
1910 0 52.1107 13.6248 710 58.1408 909.734 512.959
1911 0 56.2748 12.9721 730 57.5288 910.189 515.589
1912 0 57.1401 13.1781 753 57.988 909.806 512.268
1913 0 58.3988 12.5174 731 58.8605 908.911 508.488
1914 0 61.0346 13.2712 810 58.0222 909.769 508.822
1915 0 62.0391 13.3787 830 57.7157 909.82 508.357
1916 0 68.1391 13.0175 887 57.6685 909.437 506.26
1917 0 68.0655 11.7387 799 58.9499 909.722 508.016
1918 0 71.0449 13.9067 988 56.663 909.198 508.208
1919 0 73.0666 12.2491 895 58.1721 909.425 507.26
1920 0 77.0761 13.5191 1042 57.3407 910.279 505.2
1921 0 77.13 12.2002 941 58.8618 910.243 504.858
1922 0 82.1223 13.2364 1087 58.1132 910.082 501.476
1923 0 84.2062 13.4313 1131 58.3086 910.075 501.73
1924 0 85.1161 13.6402 1161 58.4927 909.626 502.489
1925 0 88.0514 9.40359 828 62.4203 909.419 498.669
1926 1 43.2499 10.9596 474 59.1835 909.354 523.224
1927 0 44.1367 10.9206 482 59.9502 910.429 519.695
1928 0 47.0878 13.8253 651 57.5361 910.359 522.309
1929 0 47.1146 11.2067 528 59.697 909.693 522.703
1930 0 47.0414 11.5005 541 59.9612 909.567 519.834
1931 0 50.163 10.5456 529 60.0964 910.157 521.093
1932 0 52.0737 12.0598 628 58.9363 909.97 519.688
1933 0 56.1039 12.4947 701 58.1227 909.422 518.466
1934 0 59.0912 12.523 740 57.9797 909.155 519.15
1935 0 59.0559 14.6471 865 57.3734 908.983 517.187
1936 0 61.1761 14.4174 882 57.2347 909.189 517.412
1937 0 61.1164 14.1206 863 58.3094 908.175 514.687
1938 0 68.1297 12.667 863 58.9954 908.001 514.161
1939 0 67.2283 12.1972 820 59.7427 907.715 514.998
1940 0 70.2144 11.6073 815 61.3644 908.805 512.332
1941 0 72.1965 12.5768 908 60.6134 907.77 512.941
1942 0 73.143 12.9746 949 60.8714 907.496 510.606
1943 0 75.1289 12.1791 915 61.9716 907.593 511.92
1944 0 76.2538 11.5404 880 62.2545 907.373 510.623
1945 0 79.2647 12.5024 991 62.1372 907.925 510.465
1946 0 84.1519 14.3669 1209 60.971 908.222 508.099
1947 0 85.3215 14.252 1216 61.8775 908.273 504.965
1948 0 89.1649 13.0657 1165 62.964 907.159 502.558
1949 0 91.2137 13.2875 1212 63.3936 907.739 501.79
1950 0 94.3403 12.9425 1221 64.1179 906.794 499.281
1951 0 96.1588 13.2385 1273 63.3134 907.709 503.809
1952 0 100.333 14.412 1446 62.9855 907.53 498.805
1953 0 104.128 12.7151 1324 65.0906 907.887 496.626
1954 0 109.495 13.4344 1471 64.2298 908.122 496.956
1955 0 115.487 13.7418 1587 64.3982 907.832 495.129
1956 0 112.228 11.7172 1315 67.4859 907.2 489.456
1957 0 114.21 11.9517 1365 67.3106 907.316 491.733
1958 0 118.188 12.387 1464 67.4385 907.88 487.469
1959 0 124.245 14.1978 1764 65.7982 907.961 487.266
1960 1 136.091 8.36942 1139 69.6409 908.486 491.53
1961 0 134.179 12.8485 1724 67.047 908.28 484.629
1962 0 139.165 11.6552 1622 69.193 908.369 475.925
1963 0 143.353 12.3332 1768 68.914 908.146 474.413
1964 0 148.192 13.4151 1988 68.2495 907.717 474.526
1965 1 78.0908 13.7148 1071 65.9384 908.519 507.474
1966 0 82.4517 12.6256 1041 67.3996 908.999 505.065
1967 0 83.1713 11.843 985 68.3432 909.634 506.529
1968 0 86.1575 14.3574 1237 66.4422 908.296 503.457
1969 0 88.1179 13.2096 1164 67.585 909.127 503.563
1970 0 90.1398 11.9259 1075 70.2298 908.366 497.862
1971 0 100.128 14.821 1484 65.7588 907.556 502.08
1972 0 95.2416 14.227 1355 68.49 908.57 497.415
1973 0 102.373 12.1419 1243 70.3862 908.758 495.954
1974 0 107.558 12.3654 1330 70.4842 909.287 493.611
1975 0 110.196 13.4851 1486 69.2921 909.059 494.099
1976 0 114.156 13.9721 1595 68.9912 910.139 492.928
1977 0 116.124 14.8031 1719 69.1786 909.33 485.62
1978 0 123.812 13.7385 1701 69.7119 908.787 489.886
1979 0 127.218 13.7637 1751 70.1822 909.705 487.926
1980 0 133.599 14.1318 1888 69.7119 909.55 486.138
1981 0 137.823 13.3577 1841 70.2765 909.732 487.014
1982 1 64.4685 11.1993 722 71.1274 909.548 515.733
1983 0 66.1395 14.2729 944 68.9915 909.287 512.712
1984 0 70.5889 11.4324 807 71.5886 909.361 512.587
1985 0 72.7584 13.909 1012 69.4358 909.473 510.995
1986 0 75.2062 12.4325 935 71.7176 909.936 508.762
1987 0 73.3639 13.9306 1022 70.6292 909.774 507.988
1988 0 82.5372 14.7085 1214 67.8542 910.06 508.601
1989 0 79.5996 11.8217 941 72.61 909.954 505.052
1990 0 84.2794 13.301 1121 70.6922 910.358 505.952
1991 0 87.333 12.9046 1127 70.992 910.735 504.038
1992 0 89.1303 14.6639 1307 69.7758 910.354 500.36
1993 0 94.573 13.3019 1258 70.5644 910.225 497.936
1994 0 95.4311 14.9951 1431 68.9217 910.717 499.943
1995 0 98.4069 13.3934 1318 71.1715 910.505 494.093
1996 0 103.633 13.1522 1363 71.6669 910.391 493.74
1997 0 108.645 13.2726 1442 71.2822 910.836 492.649
1998 0 109.533 13.8862 1521 71.0835 910.438 493.195
1999 0 115.716 15.6072 1806 68.3256 910.919 491.82
2000 1 51.193 13.6347 698 70.745 910.436 518.759
2001 0 57.4637 15.0356 864 68.3032 910.24 517.295
2002 0 56.4249 14.1604 799 69.5607 910.303 518.223
2003 0 61.6282 13.2407 816 70.8897 910.112 514.69
2004 0 60.2638 15.1667 914 69.4365 910.726 516.844
2005 0 62.3124 13.994 872 72.1869 909.68 513.431
2006 0 64.6433 13.6132 880 72.3409 910.664 512.861
2007 0 66.5367 14.4281 960 71.3146 910.083 511.034
2008 0 70.5954 14.7885 1044 70.6025 910.292 512.309
2009 0 71.3117 14.5979 1041 71.463 910.245 511.164
2010 0 77.6518 15.4021 1196 70.1513 909.913 509.468
2011 0 76.4519 12.74 974 74.1653 909.866 507.824
2012 0 79.2799 14.392 1141 71.8896 909.861 509.155
2013 0 84.2504 15.2047 1281 70.3474 910.326 506.703
2014 0 84.4286 14.4264 1218 72.358 909.934 502.468
2015 0 85.278 13.7433 1172 73.0759 909.833 503.089
2016 0 88.2897 13.6596 1206 73.3458 909.221 501.702
2017 0 94.5254 15.107 1428 70.8873 909.251 500.688
2018 0 98.3224 13.9744 1374 72.3457 909.369 499.776
2019 0 102.732 14.7179 1512 70.8056 909.739 500.007
2020 0 104.494 13.8095 1443 73.0922 910.322 495.767
2021 0 107.169 14.5844 1563 72.3372 909.971 495.825
2022 1 49.3304 12.6697 625 72.0896 909.693 522.923
2023 0 54.3147 13.4034 728 71.5179 909.669 520.887
2024 0 57.1855 14.3043 818 69.9364 909.973 521.817
2025 0 57.2559 13.7802 789 71.763 909.943 518.856
2026 0 58.5662 12.3279 722 73.6911 910.296 517.521
2027 0 61.6722 13.669 843 72.0451 910.064 517.994
2028 0 59.2214 12.6306 748 75.0067 909.664 513.918
2029 0 63.3744 14.8325 940 71.1298 909.603 515.35
2030 0 68.4962 14.0592 963 71.1381 909.512 515.384
2031 0 68.3513 14.8059 1012 71.3676 908.808 512.161
2032 0 71.1723 13.0528 929 72.9666 909.254 514.236
2033 0 72.3524 13.9318 1008 72.6865 910.056 510.094
2034 0 75.6577 14.2219 1076 71.5316 909.241 511.627
2035 0 76.2607 12.9031 984 73.2612 909.153 508.21
2036 0 80.0659 16.1367 1292 68.9528 909.075 506.091
2037 0 82.1467 13.0377 1071 73.0047 909.164 507.58
2038 0 85.2441 12.4114 1058 73.2826 909.357 505.772
2039 0 88.1364 13.2635 1169 71.9658 909.437 504.484
2040 0 95.4905 14.2527 1361 69.3975 909.082 506.583
2041 0 97.6262 12.3532 1206 73.0746 909.611 499.99
2042 1 43.1501 14.7856 638 68.8354 909.744 525.403
2043 0 46.5595 11.1041 517 73.3752 909.364 522.952
2044 0 50.4039 13.2926 670 69.2537 908.658 526.267
2045 0 51.4041 13.9288 716 69.0265 908.99 524.853
2046 0 51.5807 14.424 744 69.0376 909.281 524.179
2047 0 53.6127 14.9218 800 68.61 909.316 523.155
2048 0 56.1456 14.1062 792 69.4508 909.672 522.957
2049 0 58.2519 14.5746 849 68.8775 909.795 522.157
2050 0 59.5556 14.7593 879 68.6894 909.513 521.701
2051 0 59.6862 15.5815 930 68.9075 909.155 519.287
2052 0 62.6071 15.6532 980 67.8357 908.978 520.237
2053 0 61.5931 13.2807 818 72.2433 908.4 514.512
2054 0 68.64 14.19 974 69.6704 909.48 516.5
2055 0 68.304 14.2012 970 70.4175 908.848 515.578
2056 0 68.232 13.542 924 71.2944 908.814 515.773
2057 0 73.4649 13.8706 1019 70.21 909.651 513.146
2058 0 75.4874 15.6582 1182 67.7995 908.558 514.271
2059 0 75.1594 15.1545 1139 68.7515 909.023 513.162
2060 0 78.2372 15.0568 1178 71.2742 908.891 509.328
2061 0 79.2015 13.3583 1058 74.3469 908.992 505.654
2062 0 85.4139 15.8054 1350 70.1118 909.36 506.377
2063 0 86.6998 12.2492 1062 73.9181 909.508 505.872
2064 0 87.3464 12.8454 1122 73.9786 909.135 502.002
2065 0 94.744 13.6051 1289 71.6439 909.387 504.659
2066 0 95.394 13.7325 1310 72.2649 909.298 501.162
2067 0 99.6585 14.0379 1399 71.674 909.625 500.47
2068 1 48.1628 13.309 641 69.8502 909.482 525.362
2069 0 52.1327 13.1587 686 70.0044 908.917 523.268
2070 0 51.6789 13.6806 707 71.1697 908.816 520.984
2071 0 51.1349 15.3124 783 69.8429 908.764 522.483
2072 0 60.1041 12.0291 723 71.491 908.947 522.491
2073 0 58.2906 14.1361 824 70.7658 909.092 519.536
2074 0 59.887 12.9911 778 72.3188 909.048 514.922
2075 0 59.276 14.5253 861 70.3647 908.728 519.654
2076 0 63.6233 13.3756 851 72.3138 908.785 515.481
2077 0 63.109 14.3403 905 71.2917 908.096 517.877
2078 0 66.0744 14.0448 928 71.8114 908.233 516.744
2079 0 66.2037 14.1835 939 72.8243 908.297 513.416
2080 0 70.4708 14.545 1025 71.96 908.465 512.329
2081 0 73.5932 14.6481 1078 71.7978 908.521 510.294
2082 0 74.2085 15.443 1146 71.4459 908.259 511.004
2083 0 76.1398 15.8918 1210 70.7628 908.016 507.835
2084 0 80.358 13.7759 1107 73.1138 908.383 507.993
2085 0 82.2978 14.6176 1203 72.2062 908.641 508.588
2086 0 86.6249 14.1992 1230 72.3228 908.39 507.414
2087 0 89.5569 15.4985 1388 70.7111 908.375 504.492
2088 0 89.4274 14.5928 1305 72.1648 908.356 502.732
2089 0 95.5575 14.6613 1401 71.8201 908.867 500.822
2090 0 98.6291 15.5329 1532 70.3557 908.816 501.896
2091 0 100.314 13.4079 1345 73.6558 908.564 498.572
2092 0 102.681 13.2741 1363 73.5385 908.481 493.04
2093 0 104.262 13.8402 1443 73.2169 908.757 497.177
2094 1 51.4789 12.7625 657 73.1233 909.065 520.595
2095 0 56.756 14.4654 821 70.743 909.179 520.313
2096 0 56.1122 14.4175 809 71.9246 908.318 517.826
2097 0 56.1813 14.4176 810 72.6765 908.353 517.333
2098 0 63.1265 15.762 995 69.6221 907.96 518.709
2099 0 62.1248 15.7586 979 70.907 908.026 513.93
2100 0 65.3426 13.7123 896 72.5335 908.876 516.992
2101 0 69.311 15.4088 1068 70.4953 908.763 514.751
2102 0 70.7264 14.2238 1006 71.9324 908.732 514.565
2103 0 71.2106 14.3237 1020 73.1137 908.708 509.69
2104 0 74.6962 15.4894 1157 71.3155 908.5 509.927
2105 0 83.4605 14.6656 1224 71.0327 908.725 510.85
2106 0 83.552 14.7333 1231 71.1787 908.788 511.04
2107 0 88.1827 15.4225 1360 70.0919 908.743 509.868
2108 0 90.0461 15.3477 1382 70.3698 908.942 509.764
2109 0 90.5285 14.2276 1288 72.1056 908.748 505.772
2110 0 97.8534 14.6546 1434 71.3689 908.117 503.528
2111 0 96.2224 14.03 1350 73.1304 908.017 500.701
2112 0 98.355 13.9291 1370 73.4642 908.672 500.309
2113 0 105.249 15.5441 1636 70.544 908.121 500.651
2114 1 51.2178 12.5933 645 71.4202 909.008 525.192
2115 0 52.1539 14.9557 780 69.9038 908.797 525.759
2116 0 57.1758 15.671 896 69.173 908.166 520.923
2117 0 59.1599 13.9622 826 71.8644 908.35 519.475
2118 0 57.1769 14.9536 855 71.4444 908.79 521.38
2119 0 63.1392 15.5054 979 70.0858 908.445 519.256
2120 0 65.2449 14.1467 923 71.026 908.717 520.82
2121 0 63.3015 15.6394 990 70.804 908.69 517.605
2122 0 70.3437 13.0644 919 72.1012 908.892 518.942
2123 0 70.4562 13.0152 917 73.8571 908.543 513.688
2124 0 70.0881 16.5506 1160 70.931 908.196 511.637
2125 0 73.6835 13.558 999 74.1151 909.012 510.74
2126 0 77.6484 13.3422 1036 74.0782 908.762 511.296
2127 0 79.3099 14.6892 1165 72.7863 907.755 509.469
2128 0 84.326 15.4401 1302 71.0837 908.108 509.364
2129 0 83.47 14.1009 1177 74.1478 908.528 506.684
2130 0 88.3262 14.9672 1322 72.7148 908.352 507.067
2131 0 91.175 15.1248 1379 72.5432 909.048 503.591
2132 0 91.4177 14.7017 1344 73.4993 908.68 504.26
2133 0 95.3176 14.971 1427 73.2803 908.228 502.018
2134 0 100.393 16.5549 1662 71.4278 908.049 498.692
2135 0 104.218 14.9974 1563 72.9744 908.336 499.954
2136 1 50.1681 14.0727 706 71.9263 908.667 525.34
2137 0 51.1299 13.8471 708 73.2189 908.496 524.887
2138 0 52.2383 14.1659 740 72.5176 908.301 525.032
2139 0 54.2722 15.109 820 71.3683 908.361 523.868
2140 0 55.3444 14.5814 807 73.0409 908.574 521.556
2141 0 53.0715 14.9798 795 73.7962 908.274 519.459
2142 0 57.1149 14.287 816 74.0404 908.773 521.434
2143 0 59.2971 14.3177 849 73.4935 908.596 523.035
2144 0 62.3225 14.8261 924 72.8593 907.609 519.867
2145 0 63.1389 13.8742 876 74.8265 908.387 519.45
2146 0 65.3964 14.802 968 73.3626 908.316 520.387
2147 0 63.1706 16.8591 1065 72.0441 908.097 520.19
2148 0 68.1676 16.0193 1092 72.2445 907.782 518.398
2149 0 68.2233 17.5893 1200 71.2608 908.115 515.896
2150 0 72.2963 15.146 1095 73.5233 908.106 517.244
2151 0 72.0967 15.3544 1107 74.5646 908.405 511.421
2152 0 75.1002 15.0466 1130 75.0487 908.45 510.306
2153 0 79.394 14.7366 1170 74.4803 908.576 510.968
2154 0 81.0822 14.2325 1154 75.4159 908.537 509.99
2155 0 85.1214 14.3325 1220 75.432 908.066 506.262
2156 0 86.4122 15.102 1305 74.6966 907.719 503.576
2157 0 92.2848 14.5961 1347 74.5419 907.508 504.298
2158 0 90.2623 14.8013 1336 75.2373 907.901 503.045
2159 0 98.1957 15.2043 1493 73.7997 907.474 501.912
2160 1 45.1851 13.5443 612 73.6226 908.072 526.644
2161 0 47.1217 14.749 695 73.0777 907.813 525.068
2162 0 49.0515 14.8415 728 73.1676 907.494 524.897
2163 0 50.1971 14.9411 750 72.9813 907.776 521.825
2164 0 53.1835 14.7038 782 72.0499 907.838 524.06
2165 0 54.2497 14.1568 768 72.8477 908.15 522.668
2166 0 56.1846 15.5915 876 71.2785 907.88 521.018
2167 0 56.3498 14.0196 790 73.9038 907.87 519.251
2168 0 57.0957 15.185 867 72.8328 907.769 517.239
2169 0 59.0739 16.0985 951 71.5783 907.729 517.435
2170 0 62.2597 13.4437 837 74.4922 908.39 517.361
2171 0 63.1198 14.4329 911 73.2602 908.262 515.682
2172 0 67.3237 14.616 984 72.7032 908.516 514.997
2173 0 69.2064 15.7066 1087 71.4591 908.695 512.385
2174 0 71.3726 14.9077 1064 72.3459 908.099 513.166
2175 0 76.2522 14.6225 1115 71.9785 908.653 511.234
2176 0 75.1874 15.4946 1165 71.3742 908.363 510.658
2177 0 80.2467 15.9384 1279 70.5301 908.896 508.518
2178 0 80.1922 13.6921 1098 73.9499 908.689 506.051
2179 0 85.1742 15.075 1284 70.9642 908.46 505.758
2180 0 88.3117 15.0716 1331 71.3268 908.566 503.297
2181 0 89.3285 15.3143 1368 70.5906 908.753 504.477
2182 0 95.1409 15.4613 1471 70.0999 908.619 502.818
2183 0 99.2751 15.2002 1509 70.4069 908.648 501.599
2184 0 101.462 14.2319 1444 71.876 908.503 500.201
2185 1 51.1884 12.7568 653 72.1026 908.067 522.983
2186 0 53.2149 12.9099 687 71.048 907.706 524.419
2187 0 55.3278 12.7784 707 72.4965 908.477 521.618
2188 0 58.2964 14.2891 833 69.9136 907.969 520.851
2189 0 58.6059 12.7462 747 72.4083 908.643 519.339
2190 0 59.1791 13.9238 824 71.6626 908.398 518.454
2191 0 61.6263 14.2309 877 70.5462 908.599 519.604
2192 0 62.1699 13.4309 835 72.4204 908.326 517.025
2193 0 68.0717 16.2182 1104 68.3551 908.697 516.324
2194 0 65.2246 13.9058 907 72.0143 908.353 517.453
2195 0 70.2827 16.5901 1166 68.536 908.267 514.989
2196 0 70.1335 14.173 994 72.1137 908.263 514.773
2197 0 72.2957 14.1502 1023 71.8446 907.523 513.731
2198 0 79.942 15.1735 1213 69.54 907.702 514.144
2199 0 76.3133 16.6419 1270 68.9528 908.535 510.5
2200 0 81.6051 14.8765 1214 70.3311 908.628 509.895
2201 0 83.243 14.6679 1221 71.4603 907.739 505.889
2202 0 88.4602 14.662 1297 70.266 907.707 508.413
2203 0 90.2784 14.9427 1349 69.9192 908.549 506.716
2204 0 93.2357 16.1955 1510 68.5344 907.852 500.852
2205 0 97.2941 15.6844 1526 68.9961 907.883 499.939
2206 0 98.1656 13.5282 1328 71.7673 907.876 498.877
2207 0 103.215 14.0774 1453 70.6414 907.826 497.312
2208 0 108.131 16.3875 1772 66.8854 907.906 498.459
2209 1 47.1585 12.1505 573 72.2199 908.597 522.955
2210 0 50.1117 11.4544 574 70.8467 908.397 523.437
2211 0 49.1072 15.456 759 68.7668 908.527 521.605
2212 0 54.1132 13.25 717 71.014 908.724 520.144
2213 0 57.1593 15.553 889 67.5321 907.968 521.43
2214 0 56.0519 14.2903 801 70.618 908.282 519.624
2215 0 55.0788 13.7803 759 71.971 907.685 520.244
2216 0 58.7373 13.1092 770 72.661 908.273 516.826
2217 0 61.0707 14.1639 865 71.6162 908.355 517.311
2218 0 62.1201 14.5525 904 71.2555 908.386 518.424
2219 0 67.2975 14.265 960 71.6104 908.105 514.186
2220 0 69.1101 16.2205 1121 69.0339 908.057 514.824
2221 0 70.0944 15.0226 1053 70.5062 908.283 512.918
2222 0 74.0782 14.8897 1103 70.4161 907.631 513.119
2223 0 79.1119 13.6642 1081 71.1341 908.135 511.587
2224 0 79.4166 16.2309 1289 68.059 908.387 512.713
2225 0 82.091 16.8106 1380 67.3014 908.499 509.8
2226 0 83.1128 14.1976 1180 70.8178 908.196 507.58
2227 0 90.2726 14.3344 1294 69.8648 908.457 505.542
2228 0 91.1489 16.5334 1507 67.499 908.786 502.381
2229 0 95.1053 16.1926 1540 67.9325 908.753 502.46
2230 0 98.1726 15.7783 1549 68.4338 908.992 500.087
2231 1 45.2878 16.2295 735 67.2871 908.952 525.069
2232 0 49.1883 15.1662 746 67.4531 909.075 525.457
2233 0 50.0929 15.3115 767 68.2621 909.467 525.498
2234 0 50.1096 15.3264 768 69.0898 909.109 522.092
2235 0 54.116 16.0951 871 66.6326 908.473 524.056
2236 0 51.2919 14.0568 721 70.5021 908.798 520.08
2237 0 55.0402 14.7892 814 67.6486 908.862 524.291
2238 0 58.4971 13.4366 786 70.2837 909.132 519.749
2239 0 56.1316 15.624 877 69.5599 908.633 516.758
2240 0 57.1131 16.5286 944 69.0763 908.852 516.539
2241 0 60.4912 14.2831 864 71.5232 908.777 518.478
2242 0 62.1665 14.7829 919 70.2002 909.404 519.427
2243 0 63.195 15.4759 978 70.9346 909.322 515.891
2244 0 65.0977 14.8085 964 71.7749 908.708 513.852
2245 0 67.0817 14.4004 966 71.764 909.022 513.538
2246 0 71.1575 15.4306 1098 70.1794 909.405 512.952
2247 0 71.1967 15.394 1096 70.8869 909.654 513.206
2248 0 75.127 14.2292 1069 71.7596 909.039 511.268
2249 0 76.4117 15.0108 1147 70.9242 909.13 508.444
2250 0 82.1517 15.1549 1245 70.1414 908.993 507.599
2251 0 83.3189 15.8427 1320 70.1985 908.955 506.692
2252 0 87.1978 14.2091 1239 71.4229 908.996 506.255
2253 0 89.1564 16.7346 1492 68.5576 909.263 502.592
2254 0 97.304 16.2069 1577 68.1661 909.027 503.849
2255 0 97.285 14.8635 1446 70.5145 908.783 501.571
2256 0 101.138 14.149 1431 71.4906 909.352 498.053
2257 0 105.217 14.4083 1516 71.3747 909.793 496.315
2258 0 108.133 15.5919 1686 69.5783 909.003 497.699
2259 0 116.426 13.3647 1556 71.2449 909.041 496.865
2260 1 56.2536 15.0568 847 68.2928 908.948 522.212
2261 0 55.0761 13.7809 759 70.7036 908.734 521.046
2262 0 57.2104 14.84 849 69.3981 909.221 520.653
2263 0 58.095 11.9287 693 72.9365 909.455 520.133
2264 0 58.1513 11.642 677 73.5554 909.037 519.795
2265 0 62.2032 15.1278 941 69.8406 909.471 517.823
2266 0 63.1432 14.7284 930 70.1538 909.475 518.489
2267 0 68.2969 15.374 1050 70.1067 908.812 514.453
2268 0 66.0513 12.5509 829 74.0808 909.637 514.692
2269 0 73.1506 13.9028 1017 72.5241 909.189 512.269
2270 0 73.2561 14.8384 1087 71.4361 909.505 512.181
2271 0 72.1619 14.315 1033 73.1442 909.87 510.874
2272 0 76.1202 13.0977 997 73.684 909.832 513.527
2273 0 77.2471 13.2044 1020 74.8324 909.317 510.619
2274 0 83.2353 13.6601 1137 73.3949 909.235 511.225
2275 0 87.444 13.8603 1212 72.6543 909.139 509.743
2276 0 84.3076 14.6132 1232 73.194 909.347 507.894
2277 0 90.1377 15.7093 1416 72.084 909.808 504.144
2278 0 95.4457 13.4841 1287 73.5493 909.646 504.708
2279 1 41.059 16.1231 662 69.6601 909.55 528.998
2280 0 43.4773 14.4443 628 71.0127 910.49 528.129
2281 0 42.1502 15.4685 652 69.839 910.532 527.916
2282 0 43.3805 14.3844 624 72.5208 910.282 524.864
2283 0 46.2945 13.4789 624 72.5593 910.056 525.301
2284 0 47.2685 14.3013 676 72.3269 909.814 523.346
2285 0 46.0782 13.043 601 74.1082 909.346 525.413
2286 0 48.1332 15.5818 750 70.92 909.443 523.448
2287 0 50.1936 14.6831 737 71.8358 909.993 524
2288 0 55.1822 16.2915 899 69.8799 909.97 522.591
2289 0 57.2216 14.2079 813 72.0209 910.271 521.081
2290 0 54.0433 15.4876 837 71.4337 909.737 520.644
2291 0 58.1153 16.3468 950 69.8863 909.26 520.129
2292 0 60.2761 15.0142 905 71.8276 909.255 516.852
2293 0 61.0691 13.8695 847 72.6305 909.093 516.796
2294 0 61.0557 13.5941 830 73.4831 909.523 516.433
2295 0 66.227 13.8614 918 72.9216 909.52 515.052
2296 0 69.1874 12.9214 894 73.547 909.606 513.662
2297 0 72.6307 13.2589 963 73.109 908.899 512.124
2298 0 73.1413 13.1253 960 73.449 910.374 511.682
2299 0 73.0912 13.9689 1021 72.4594 910.232 512.089
2300 0 76.0868 15.1406 1152 69.8351 910.126 508.201
2301 0 81.276 15.5889 1267 68.884 909.816 507.858
2302 0 83.1098 13.3679 1111 70.9253 909.896 507.548
2303 0 85.3906 14.4512 1234 70.1248 909.749 505.055
2304 0 88.2008 14.3536 1266 70.1927 909.734 504.118
2305 0 92.2123 13.4798 1243 71.5768 908.925 499.858
2306 0 95.2242 15.0172 1430 69.5343 908.823 501.843
2307 0 98.2438 13.721 1348 71.6417 909.731 497.585
2308 0 99.2066 12.7512 1265 73.1336 909.9 492.526
2309 0 102.347 15.125 1548 70.7842 909.602 494.269
2310 0 106.096 12.7338 1351 72.9963 909.038 493.514
2311 0 112.167 14.0059 1571 72.1413 909.309 491.244
2312 0 115.237 13.4245 1547 73.3756 909.396 489.132
2313 0 120.429 12.8125 1543 74.0745 909.181 486.816
2314 0 125.367 13.8394 1735 72.8801 909.315 485.66
2315 0 131.306 14.8051 1944 71.8642 909.466 484.544
2316 0 133.561 13.6717 1826 73.862 909.122 481.837
2317 0 137.482 12.6053 1733 75.3272 909.302 480.203
2318 0 145.663 14.9386 2176 72.1222 909.287 480.223
2319 0 149.8 14.5862 2185 73.0279 909.331 473.015
2320 0 153.423 13.6681 2097 74.5331 909.203 468.495
2321 0 158.595 13.3548 2118 74.9268 909.435 469.616
2322 0 161.154 12.8758 2075 75.7229 909.935 467.618
2323 0 167.479 13.3092 2229 75.1068 909.428 468.926
2324 0 172.391 15.053 2595 73.2894 909.442 461.341
2325 1 183.672 14.3353 2633 73.2841 909.682 462.556
2326 0 184.557 15.6482 2888 72.795 908.974 454.275
2327 1 70.3834 14.5489 1024 71.9863 909.909 512.725
2328 0 76.6157 14.6054 1119 71.4701 909.677 511.379
2329 0 74.2455 13.415 996 73.8855 909.451 511.094
2330 0 76.1667 13.6674 1041 73.7973 909.937 508.5
2331 0 80.1102 14.3053 1146 72.1457 909.699 510.229
2332 0 83.217 13.6991 1140 73.3421 910.029 506.797
2333 0 85.0739 14.3405 1220 73.1205 909.784 504.828
2334 0 91.2377 14.6102 1333 71.958 910.405 504.494
2335 0 91.2257 14.3161 1306 73.6501 910.155 499.953
2336 0 96.1229 14.6063 1404 72.7878 909.157 499.113
2337 0 100.29 13.9993 1404 74.0093 909.343 496.371
2338 0 106.342 14.1618 1506 73.7915 910.383 494.74
2339 0 108.154 12.5007 1352 76.3106 910.356 493.401
2340 0 109.189 15.3679 1678 72.941 909.996 492.463
2341 1 54.0574 14.2996 773 72.7671 909.908 520.066
2342 0 56.236 15.346 863 72.3094 909.552 518.771
2343 0 59.1095 14.6846 868 72.7869 909.628 517.836
2344 0 59.1251 13.8182 817 73.6463 910.339 518.954
2345 0 63.2549 14.0701 890 72.9528 909.544 517.473
2346 0 66.2036 14.8179 981 72.053 909.562 514.199
2347 0 67.1754 16.2262 1090 70.9073 909.762 513.45
2348 0 70.0651 15.6426 1096 71.6122 910.28 511.568
2349 0 74.1762 16.2181 1203 70.2303 909.28 511.279
2350 0 74.1598 15.6689 1162 63.9363 910.171 510.257
2351 0 78.0533 15.3229 1196 63.0544 910.612 508.603
2352 0 79.3113 14.3864 1141 63.8729 909.345 508.898
2353 0 82.1278 15.9751 1312 62.1006 909.959 506.439
2354 0 86.2649 15.2206 1313 62.7091 909.85 505.76
2355 0 89.2995 15.7672 1408 62.5085 910.084 502.678
2356 0 97.522 16.4886 1608 60.9428 909.612 502.141
2357 0 95.1245 15.5586 1480 62.9419 910.086 499.07
2358 0 102.204 13.1992 1349 63.7598 910.698 502.737
2359 0 101.103 15.6672 1584 63.2165 909.557 491.922
2360 1 35.0665 12.9183 453 63.7528 910.168 524
2361 0 39.3072 13.9669 549 61.3679 909.869 526.233
2362 0 36.1291 13.4518 486 63.1955 909.539 526.518
2363 0 38.1311 13.2175 504 63.8274 909.454 523.304
2364 0 39.0242 15.8363 618 61.0728 909.188 525.759
2365 0 39.0782 16.2494 635 62.0189 910.707 523.181
2366 0 42.3686 14.4447 612 62.0196 910.456 525.944
2367 0 42.0772 11.669 491 65.7108 909.597 523.503
2368 0 46.1951 14.7851 683 62.4407 909.139 523.98
2369 0 45.2298 12.4254 562 65.5196 909.822 522
2370 0 46.0393 15.0089 691 63.3068 909.512 521.579
2371 0 45.2206 12.8703 582 65.1168 910.376 522.028
2372 0 46.1071 15.9628 736 63.091 909.95 521.105
2373 0 50.0297 15.7307 787 62.7662 909.912 518.712
2374 0 50.1073 14.6286 733 63.4816 909.93 518.701
2375 0 51.0898 14.7975 756 63.9788 909.095 518.094
2376 0 56.2503 14.8444 835 62.7916 909.521 518.395
2377 0 57.3466 16.0777 922 62.0076 910.52 515.719
2378 0 60.1362 15.997 962 62.4044 910.305 514.122
2379 0 59.1442 14.49 857 64.0735 910.525 513.049
2380 0 60.08 13.2324 795 65.5283 910.223 513.893
2381 0 68.164 16.2109 1105 60.9086 909.846 512.529
2382 0 68.078 15.5116 1056 62.733 909.932 509.342
2383 0 70.0643 16.0567 1125 62.1609 909.921 509.072
2384 0 74.1419 15.1331 1122 62.828 909.725 506.84
2385 0 76.4115 16.5289 1263 61.2542 909.71 504.892
2386 0 78.0624 16.8327 1314 61.449 910.03 505.716
2387 0 80.1508 12.8258 1028 65.393 910.598 500.846
2388 0 83.3906 14.4741 1207 63.3902 910.232 503.544
2389 0 87.2006 13.0962 1142 64.5105 910.122 500.218
2390 0 92.2289 15.5049 1430 62.3993 911.32 498.315
2391 1 40.252 12.223 492 64.0976 911.618 520.833
2392 0 45.1236 12.4325 561 63.4456 910.619 521.749
2393 0 45.0541 13.6503 615 62.4797 911.641 521.896
2394 1 105.73 14.187 1500 63.7613 911.765 496.64
2395 0 106.204 15.5361 1650 63.2594 911.848 489.847
2396 1 49.1589 13.08 643 64.2348 912.227 519.3
2397 0 57.2309 14.625 837 60.4922 911.097 521.645
2398 0 59.5193 14.0123 834 62.024 911.542 519.819
2399 0 57.2313 13.9958 801 62.9638 912.171 520.236
2400 0 61.5888 15.6035 961 61.6722 911.038 516.837
2401 0 60.4786 12.4011 750 66.4733 910.992 514.252
2402 0 66.4094 15.1033 1003 61.6979 911.848 517.827
2403 0 68.6631 15.6125 1072 61.666 911.876 515.388
2404 0 65.8651 11.9638 788 66.9124 911.838 513.099
2405 0 73.5178 16.5266 1215 59.9119 912.118 515.976
2406 0 69.6499 13.9124 969 64.7637 911.387 510.344
2407 0 73.3418 13.2666 973 64.8664 911.011 511.457
2408 0 71.1478 13.1557 936 66.1357 910.924 508.359
2409 0 75.6412 16.4857 1247 62.0802 911.221 507.231
2410 0 77.2371 14.9798 1157 63.7424 911.081 507.888
2411 0 82.9047 13.0632 1083 64.3176 911.056 508.359
2412 0 85.6718 13.47 1154 65.0763 911.237 505.263
2413 0 87.0598 13.4276 1169 64.6202 910.884 506.316
2414 0 90.5764 13.6018 1232 65.0122 911.098 499.156
2415 0 89.253 12.5486 1120 66.4205 910.929 499.834
2416 0 91.1378 13.7813 1256 65.5016 911.542 499.369
2417 0 98.4773 15.4553 1522 62.6971 911.128 495.641
2418 0 103.549 13.2594 1373 64.469 911.15 496.561
2419 0 105.621 14.7982 1563 63.4037 911.154 494.225
2420 0 106.354 13.3611 1421 65.2273 911.161 495.525
2421 0 111.169 14.1406 1572 64.6202 911.592 489.826
2422 0 118.441 10.9252 1294 66.1723 911.583 494.617
2423 1 55.5449 11.6842 649 63.9538 911.622 519.19
2424 0 58.1275 11.8361 688 63.4884 910.693 519.398
2425 0 54.2666 12.6597 687 64.3392 911.646 517.614
2426 0 58.1294 16.3772 952 60.9307 911.356 516.831
2427 0 57.307 16.4203 941 61.6844 910.992 515.084
2428 0 63.9611 14.0085 896 62.5513 911.22 517.456
2429 0 58.1439 14.8081 861 63.7619 911.357 514.548
2430 0 65.5036 14.3809 942 62.8599 911.443 514.399
2431 0 70.9314 12.1385 861 64.8107 910.042 514.78
2432 0 73.5841 13.6714 1006 63.6103 910.642 511.893
2433 0 73.3584 13.2364 971 64.1452 910.351 512.526
2434 0 71.2652 15.2248 1085 63.4129 910.582 509.222
2435 0 73.0887 15.9669 1167 62.503 910.555 509.218
2436 0 76.2236 13.6965 1044 64.0431 910.688 510.205
2437 0 85.7628 12.7328 1092 62.9533 911.31 512.466
2438 0 82.4019 13.9803 1152 63.4392 911.634 506.031
2439 0 86.4208 14.3137 1237 63.3646 911.245 505.711
2440 0 90.697 14.9729 1358 62.5626 911.067 505.314
2441 0 85.3093 11.7689 1004 66.7809 910.191 501.074
2442 0 94.162 15.5583 1465 62.2621 910.631 502.65
2443 0 101.94 13.6453 1391 62.8684 911.046 503.899
2444 0 100.391 14.822 1488 63.1243 910.439 498.446
2445 0 103.65 12.3396 1279 65.5661 910.476 496.576
2446 0 107.623 12.5066 1346 64.8774 910.75 501.278
2447 0 112.648 12.9252 1456 65.3022 910.163 497.667
2448 0 110.169 14.2055 1565 65.3425 910.154 491.925
2449 1 54.1929 12.5109 678 65.0118 910.462 518.954
2450 0 53.2436 12.7527 679 65.3608 910.495 519.54
2451 0 56.6019 13.4624 762 65.8924 910.184 514.098
2452 0 60.6158 13.9898 848 64.2217 910.59 516.812
2453 0 62.6324 12.8368 804 65.3035 909.682 517.774
2454 0 63.5661 13.4348 854 65.6979 910.444 512.597
2455 0 66.5923 12.1035 806 67.0261 910.764 513.17
2456 0 69.6194 12.4391 866 66.7125 910.221 513.754
2457 0 66.0912 15.176 1003 65.0847 909.749 508.313
2458 0 77.1865 13.6682 1055 64.346 910.552 513.555
2459 0 79.3905 16.2866 1293 61.9002 910.527 513.837
2460 0 75.3503 14.0145 1056 66.2254 910.41 510.371
2461 0 80.881 13.5137 1093 66.7136 911.028 505.636
2462 0 77.641 14.5671 1131 66.6401 910.726 507.105
2463 0 83.457 15.2414 1272 65.3121 910.468 505.353
2464 0 89.9728 16.3716 1473 63.8411 910.682 504.922
2465 0 87.2558 14.5549 1270 67.0465 910.586 500.733
2466 0 94.4299 15.3765 1452 65.0565 910.238 501.862
2467 0 92.244 12.8572 1186 68.0582 910.546 494.818
2468 0 101.516 13.5939 1380 66.2203 910.228 498.872
2469 0 106.866 15.4305 1649 64.3742 909.651 496.127
2470 1 49.2275 11.5586 569 67.1968 910.325 518.705
2471 0 54.8885 12.5163 687 66.1994 911.143 517.325
2472 0 54.8624 12.3764 679 66.8998 910.567 518.988
2473 0 60.7753 13.7227 834 63.4796 910.712 519.565
2474 0 58.1954 14.4857 843 65.3666 910.189 515.843
2475 0 63.7288 15.5973 994 62.3088 911.565 519.505
2476 0 65.7056 13.4692 885 65.2079 910.932 514.479
2477 0 65.7795 12.7851 841 65.8549 910.145 516.788
2478 0 68.2097 13.9716 953 65.0388 910.928 514.276
2479 0 66.2333 13.8299 916 66.1048 910.881 511.352
2480 0 72.3034 12.5167 905 67.4243 911.11 510.127
2481 0 72.4983 16.69 1210 63.1331 911.498 511.208
2482 0 75.781 14.1328 1071 65.2745 911.352 510.958
2483 0 74.3587 15.0352 1118 64.5277 911.615 508.753
2484 0 79.0698 15.0121 1187 64.6066 910.851 503.302
2485 0 84.6527 13.5731 1149 66.0896 911.038 501.243
2486 0 87.5172 14.2829 1250 64.7624 910.847 501.835
2487 0 87.5983 13.8131 1210 65.5083 910.96 501.015
2488 0 92.2108 16.3105 1504 61.8152 911.239 500.106
2489 0 93.1196 15.5821 1451 63.3356 910.724 493.816
2490 0 101.364 14.6305 1483 62.797 911.128 498.472
2491 0 102.533 14.7368 1511 62.951 910.792 494.448
2492 0 106.116 14.7668 1567 63.1653 910.351 491.405
2493 0 111.598 15.5468 1735 62.1222 910.943 491.274
2494 0 118.823 13.4486 1598 63.4869 910.893 491.374
2495 1 58.2933 12.0769 704 64.0952 910.925 516.585
2496 0 59.2453 13.9083 824 62.9551 910.777 514.368
2497 0 63.0726 13.8095 871 62.5936 910.201 513.414
2498 0 66.5357 15.4954 1031 60.2202 910.95 516.494
2499 0 69.19 14.0194 970 62.1619 910.686 510.027
2500 0 69.4341 14.7046 1021 61.9814 910.304 509.731
2501 0 72.7302 11.8245 860 64.5802 910.415 508.058
2502 0 74.8219 12.7369 953 64.1941 910.65 506.631
2503 0 72.1169 14.948 1078 63.0612 910.681 505.549
2504 0 77.1069 17.0153 1312 60.2233 910.465 506.598
2505 0 78.5709 12.9055 1014 64.5394 910.304 503.576
2506 0 81.3437 15.2685 1242 62.8349 911.016 502.477
2507 0 86.3146 14.8179 1279 62.7279 910.84 499.497
2508 0 89.3412 15.3457 1371 61.7928 910.336 500.217
2509 0 93.2013 15.3002 1426 61.8107 910.536 499.455
2510 0 94.1131 14.4826 1363 63.471 910.712 492.525
2511 0 99.1473 13.8279 1371 63.822 911.148 494.602
2512 0 103.194 14.216 1467 63.4499 910.014 492.84
2513 0 106.689 14.697 1568 63.1983 910.346 487.851
2514 0 110.452 13.5625 1498 64.0167 910.142 488.54
2515 0 112.13 14.5545 1632 64.1777 910.081 482.238
2516 1 51.2394 13.5443 694 63.0216 911.156 515.572
2517 0 53.163 12.8473 683 64.1903 911.053 513.272
2518 0 55.5037 12.5397 696 64.0575 911.134 515.431
2519 0 57.1419 11.7427 671 66.2325 910.365 510.666
2520 0 60.2203 13.1019 789 64.5919 910.593 509.324
2521 0 63.0712 13.9683 881 63.21 911.045 510.683
2522 0 60.4326 13.1221 793 65.4855 911.364 507.517
2523 0 67.044 13.9908 938 64.1226 911.011 507.058
2524 0 69.2444 12.6942 879 65.124 911.374 507.016
2525 0 69.1644 12.8534 889 65.216 911.261 505.899
2526 0 76.3387 14.3702 1097 63.4804 911.171 504.287
2527 0 78.1026 15.4796 1209 62.3929 911.45 504.39
2528 0 82.3708 13.7792 1135 64.0872 911.782 502.85
2529 0 84.3594 15.3628 1296 62.9066 911.523 499.596
2530 0 84.0881 14.7108 1237 63.7332 911.226 497.737
2531 0 89.126 14.3505 1279 63.4464 911.464 498.848
2532 0 90.2 14.0244 1265 64.5984 911.398 491.383
2533 0 92.2425 15.7086 1449 63.1794 911.493 495.943
2534 0 99.6125 14.6869 1463 62.9884 912.131 493.692
2535 0 102.558 13.6606 1401 64.1999 912.376 493
2536 0 105.321 14.1757 1493 63.9699 912.426 487.151
2537 0 110.135 14.3915 1585 63.5073 911.555 486.856
2538 1 51.172 14.0702 720 62.6889 911.335 514.088
2539 0 52.1821 15.0818 787 62.6582 911.804 513.562
2540 0 53.082 14.5059 770 63.261 911.8 512.473
2541 0 59.0982 15.415 911 61.3139 911.739 514.775
2542 0 58.1741 14.8004 861 62.2915 911.469 513.786
2543 0 60.1209 15.1029 908 62.891 911.487 510.138
2544 0 60.3792 14.2268 859 63.9942 911.165 509.2
2545 0 64.4899 12.5291 808 65.8874 912.099 506.431
2546 0 67.086 13.7137 920 64.113 912.056 508.452
2547 0 71.1633 14.3613 1022 63.6957 911.235 506.286
2548 0 73.0754 14.8477 1085 63.2369 911.155 506.522
2549 0 74.3015 14.1854 1054 64.4649 911.548 502.407
2550 0 76.0778 14.6035 1111 64.1206 911.383 502.758
2551 0 79.1514 17.1823 1360 61.4294 910.999 499.152
2552 0 84.1159 14.7416 1240 63.8694 911.141 498.652
2553 0 88.134 17.4621 1539 60.3216 911.44 501.968
2554 0 90.1445 15.3642 1385 62.5227 911.206 501.342
2555 0 92.2424 13.5838 1253 65.1237 911.445 496.251
2556 0 94.122 14.7362 1387 63.7138 911.949 495.384
2557 0 96.2166 15.278 1470 63.7 911.827 494.26
2558 0 100.781 14.0205 1413 64.552 911.61 495.231
2559 1 50.2526 14.7654 742 62.7237 910.993 517.22
2560 0 52.2551 14.5632 761 63.3666 911.566 516.512
2561 0 53.3492 14.8268 791 62.5638 910.927 517.736
2562 0 54.0984 15.6382 846 63.1017 911.47 515.726
2563 0 56.4929 14.1611 800 63.45 911.659 515.752
2564 0 59.3832 14.9369 887 62.575 912.02 516.697
2565 0 60.6123 14.535 881 63.9728 911.508 512.205
2566 0 63.42 13.7338 871 64.4581 911.479 512.762
2567 0 64.4984 15.3802 992 63.381 911.589 510.362
2568 0 65.2118 14.5219 947 64.7719 911.04 507.501
2569 0 68.1938 15.3386 1046 64.0774 911.532 506.477
2570 0 70.2022 16.3528 1148 62.2648 910.726 507.138
2571 0 75.4599 14.7363 1112 63.5917 910.813 506.876
2572 0 73.2016 15.8466 1160 63.3043 911.351 504.502
2573 0 77.5093 15.0692 1168 63.5753 911.025 504.354
2574 0 81.5594 15.4611 1261 62.9096 911.338 501.282
2575 0 84.4421 14.8859 1257 63.4566 911.336 502.558
2576 0 86.3433 15.6932 1355 62.4738 911.441 501.567
2577 0 90.2344 15.0386 1357 62.8158 911.465 500.754
2578 0 93.2843 16.0692 1499 61.7852 911.232 498.236
2579 0 96.4539 14.1311 1363 63.6574 911.01 491.524
2580 0 101.74 13.8097 1405 63.694 911.209 490.269
2581 0 104.178 15.2528 1589 61.9006 911.32 493.996
2582 0 110.421 15.2144 1680 62.3095 911.263 488.167
2583 1 46.5743 15.0297 700 60.7186 911.441 520.65
2584 0 50.5386 13 657 62.0289 911.102 517.785
2585 0 48.3153 13.1842 637 62.6201 911.546 517.606
2586 0 55.4233 13.1353 728 61.4684 911.766 517.359
2587 0 57.4156 13.7941 792 60.6944 911.251 517.557
2588 0 56.7329 13.2198 750 62.516 911.359 514.316
2589 0 54.6721 14.1023 771 62.2244 911.252 514.926
2590 0 60.4147 15.3108 925 60.8876 910.931 511.057
2591 0 63.6277 14.6634 933 61.0664 911.313 512.134
2592 0 60.1872 15.0364 905 61.6232 910.952 511.887
2593 0 64.2739 14.4849 931 61.5306 911.501 513.595
2594 0 63.2928 14.9938 949 61.9473 911.077 510.192
2595 0 68.4971 13.84 948 62.3903 911.081 511.126
2596 0 68.1843 14.7101 1003 62.4197 911.141 508.253
2597 0 72.489 14.2228 1031 62.5364 912.024 505.565
2598 0 73.593 15.6265 1150 61.0174 912.519 502.932
2599 0 72.5206 14.6028 1059 62.9263 912.209 502.55
2600 0 79.6066 15.3756 1224 61.6797 911.963 502.766
2601 0 77.2578 14.3934 1112 63.321 911.137 503.254
2602 0 81.3425 14.6172 1189 62.8579 910.904 499.421
2603 0 85.4529 14.1364 1208 62.7583 911.207 500.324
2604 0 88.3236 15.33 1354 61.5458 910.922 499.138
2605 0 90.4913 14.145 1280 63.0664 910.728 491.882
2606 0 96.6103 14.9466 1444 61.3885 910.524 496.186
2607 0 97.6573 15.0936 1474 61.5624 910.87 492.74
2608 0 101.237 15.923 1612 61.1408 910.308 490.357
2609 0 107.781 13.2769 1431 64.1726 910.941 487.123
2610 1 51.155 13.1952 675 62.2696 911.104 514.613
2611 0 48.4371 11.9743 580 64.8724 911.612 514.912
2612 0 51.2515 13.7752 706 62.619 911.809 516.183
2613 0 52.2725 12.7601 667 62.5427 910.552 517.889
2614 0 53.3456 13.8718 740 64.0716 910.612 513.407
2615 0 53.196 16.0162 852 62.8462 910.596 512.951
2616 0 56.3536 14.5332 819 64.8266 910.702 510.85
2617 0 57.3526 12.5016 717 67.4059 911.045 509.84
2618 0 63.7406 13.4294 856 66.1811 911.697 509.088
2619 0 63.1996 13.4494 850 65.8435 911.433 509.987
2620 0 62.1208 14.9386 928 65.8545 911.55 508.794
2621 0 63.1659 14.8181 936 66.0096 911.443 508.166
2622 0 68.4008 14.9121 1020 65.2647 911.472 508.17
2623 0 67.1234 14.3765 965 66.2021 911.83 507.637
2624 0 70.4231 14.2709 1005 67.0209 912 503.22
2625 0 71.1941 13.5826 967 67.8511 911.406 503.701
2626 0 77.5437 14.7272 1142 65.5175 911.194 505.07
2627 0 76.4649 13.0256 996 68.0452 910.32 502.54
2628 0 82.553 14.4877 1196 66.1982 910.742 498.404
2629 0 84.4941 15.0425 1271 65.3186 910.377 502.077
2630 0 87.3736 14.375 1256 66.2253 910.633 500.104
2631 0 88.4022 14.83 1311 66.1045 910.552 499.057
2632 0 90.4904 14.2004 1285 67.0062 911.658 498.581
2633 0 92.1356 14.7826 1362 66.6924 911.559 494.6
2634 0 96.7077 13.8976 1344 67.6466 911.504 494.366
2635 0 101.835 15.6036 1589 65.7502 911.076 492.517
2636 0 104.432 16.4221 1715 64.5434 910.68 492.094
2637 0 106.347 14.6313 1556 67.2076 910.232 488.239
2638 0 111.445 15.2901 1704 65.8914 910.505 488.826
2639 0 111.296 16.1551 1798 65.4544 911.018 488.47
2640 0 114.586 14.9495 1713 66.7052 911.115 486.422
2641 0 119.441 15.1706 1812 67.2903 910.971 483.525
2642 0 123.542 15.5412 1920 66.6505 910.427 481.63
2643 0 126.444 13.8797 1755 67.8444 910.848 483.427
2644 0 131.477 14.1926 1866 67.8022 910.653 478.544
2645 0 135.574 15.3569 2082 66.6412 910.729 478.165
2646 0 138.335 15.0288 2079 67.0731 911.005 477.298
2647 0 142.56 15.4041 2196 66.9736 911.117 473.99
2648 0 149.573 14.6284 2188 67.67 911.599 472.941
2649 1 69.4319 14.1722 984 65.5457 911.47 510.059
2650 0 72.5896 15.0986 1096 64.594 912.178 510.53
2651 0 71.5424 14.3971 1030 65.6019 911.378 509.584
2652 0 72.3429 12.4822 903 68.206 911.222 505.922
2653 0 76.744 14.9719 1149 65.0078 910.412 509.172
2654 0 81.5064 14.2565 1162 65.2306 911.305 505.644
2655 0 81.2762 11.8362 962 68.5447 911.325 501.163
2656 0 84.8 14.8703 1261 65.3339 911.588 503.866
2657 0 84.2835 14.1071 1189 66.6955 911.596 501.762
2658 0 90.4046 14.2139 1285 65.8755 911.518 500.694
2659 1 35.4591 12.5497 445 63.2135 911.899 525.721
2660 0 36.0514 13.1202 473 63.1459 911.732 524.679
2661 0 37.5524 11.6371 437 64.6453 911.215 523.446
2662 0 36.3198 9.38883 341 66.2493 912.264 525.258
2663 0 40.3012 12.2081 492 63.7785 911.543 525.974
2664 0 39.5178 9.08452 359 66.6992 912.067 525.468
2665 0 39.0914 12.5347 490 63.8551 912.159 525.633
2666 0 40.4157 10.4168 421 66.3064 912.618 524.511
2667 0 47.271 12.5658 594 62.4226 912.221 525.202
2668 0 44.3954 9.14508 406 66.1429 911.177 523.192
2669 0 46.1536 12.2851 567 64.4356 911.217 520.108
2670 0 49.2501 11.9797 590 65.0254 911.168 519
2671 0 50.4863 12.9144 652 64.4034 910.86 517.936
2672 0 53.3964 14.5515 777 62.9717 911.362 517.036
2673 0 53.3873 15.1721 810 62.7951 910.786 517.804
2674 0 57.458 12.061 693 65.3232 911.641 516.325
2675 0 56.5296 11.976 677 66.3412 911.812 515.678
2676 0 60.3174 13.4621 812 64.686 912.039 514.097
2677 0 62.7527 14.2623 895 63.4145 911.306 514.151
2678 0 65.2703 12.6091 823 64.5115 911.563 515.998
2679 0 63.3098 11.3411 718 66.8955 911.124 512.85
2680 0 68.334 12.8194 876 65.3231 911.134 509.525
2681 0 68.6212 14.0336 963 64.6812 910.801 509.434
2682 0 73.5037 13.1014 963 64.568 911.12 509.873
2683 0 72.5541 12.3218 894 65.283 910.63 511.787
2684 0 75.5215 12.3541 933 65.8671 910.861 511.2
2685 0 81.6531 12.0142 981 65.6707 910.577 510.215
2686 0 85.0681 13.789 1173 64.8014 910.226 506.321
2687 0 83.2454 12.301 1024 66.9824 910.727 504.987
2688 0 89.7178 14.4564 1297 64.4942 910.803 503.634
2689 0 92.6624 12.184 1129 66.1497 910.558 500.571
2690 0 95.3967 12.9774 1238 65.4346 911.061 498.03
2691 0 98.8869 12.0441 1191 65.4895 910.875 501.113
2692 1 50.4218 14.4779 730 62.1699 911.545 521.367
2693 0 47.3264 12.0863 572 65.3094 911.883 520.579
2694 0 49.3097 13.0603 644 64.4907 911.648 518.38
2695 0 51.2354 13.8576 710 64.2056 910.644 517.482
2696 0 52.3238 14.2765 747 63.4752 911.597 518.458
2697 0 54.5652 12.0406 657 66.2314 911.35 513.942
2698 0 57.5179 14.2912 822 62.7287 911.398 517.951
2699 0 55.2315 13.199 729 64.5706 912.099 515.888
2700 0 60.4042 12.6647 765 65.2248 912.071 514.66
2701 0 64.6334 12.8417 830 64.2988 911.736 513.898
2702 0 63.4962 11.7645 747 65.8313 912.217 514.289
2703 0 66.7435 13.919 929 63.887 912.513 511.109
2704 0 67.4279 15.1124 1019 61.8498 912.247 513.58
2705 0 69.4159 12.0722 838 65.3473 911.564 509.847
2706 0 72.545 13.371 970 64.8206 911.924 507.428
2707 0 76.6771 12.3114 944 65.4587 911.959 505.753
2708 0 79.5439 12.974 1032 65.1221 911.786 505.186
2709 0 80.5972 15.2859 1232 62.3312 911.607 506.78
2710 1 37.4355 13.1426 492 63.1179 912.238 525.915
2711 0 38.4657 10.2169 393 66.3003 912.247 526.789
2712 0 39.6447 12.7129 504 63.4345 911.966 526.202
2713 0 42.4469 11.5674 491 64.6395 911.362 523.136
2714 0 43.644 13.2664 579 62.5993 912.164 524.174
2715 0 43.3608 11.7618 510 65.0333 911.91 520.494
2716 0 45.5477 11.9216 543 64.3646 912.311 523.295
2717 0 47.3577 10.0934 478 66.0962 912.144 522.228
2718 0 47.4383 12.922 613 63.6232 911.91 521.078
2719 0 47.4138 13.224 627 64.1037 912.065 517.809
2720 0 49.511 9.99777 495 66.4283 912.729 518.073
2721 0 52.5588 13.3755 703 63.2845 912.129 517.72
2722 0 52.3021 12.1219 634 64.8454 911.476 515.306
2723 0 56.4418 13.9258 786 62.4338 912.581 514.316
2724 0 57.457 12.0786 694 63.8184 912.058 512.164
2725 0 59.389 13.7399 816 62.2892 911.556 513.866
2726 0 61.3548 14.571 894 61.2002 911.54 514.328
2727 0 62.2103 13.2293 823 62.8056 911.92 510.835
2728 0 63.2491 13.6287 862 62.6821 912.059 510.143
2729 0 69.5488 13.185 917 62.4428 912.284 511.217
2730 0 71.2988 12.8473 916 62.607 911.833 507.666
2731 0 79.5286 14.7871 1176 59.0408 911.496 513.322
2732 0 76.3314 12.9174 986 62.8793 911.812 504.36
2733 0 80.6376 14.3606 1158 60.3541 911.624 506.839
2734 1 36.5836 10.3872 380 62.5474 912.89 525.763
2735 0 39.66 12.4055 492 60.0386 912.348 526.573
2736 0 38.6288 9.08648 351 63.8661 912.011 524.644
2737 0 42.5719 14.6341 623 58.3596 912.567 524.504
2738 0 41.2956 15.2316 629 58.2401 912.102 524.785
2739 0 42.4104 12.214 518 61.1293 911.448 518.936
2740 0 45.9705 10.8983 501 61.8982 911.467 520.042
2741 0 47.6081 13.7372 654 58.9939 912.194 520.638
2742 0 47.1702 14.7763 697 58.6872 912.02 522.702
2743 0 48.7474 11.4878 560 62.4143 912.35 516.404
2744 0 49.3935 11.2565 556 62.5576 912.468 518.05
2745 0 52.3427 11.8641 621 61.3977 912.585 519.006
2746 0 53.7543 12.2781 660 60.5652 912.783 519.912
2747 0 56.7329 13.8191 784 59.8954 912.909 516.634
2748 0 56.4512 11.5144 650 62.3062 912.578 515.737
2749 0 59.4148 14.8785 884 58.9106 912.795 517.166
2750 0 60.3594 13.3368 805 60.1528 912.615 515.918
2751 0 62.4639 14.4243 901 59.6315 911.618 511.885
2752 0 65.639 13.2391 869 60.4108 911.545 510.82
2753 0 65.5985 12.8814 845 60.8994 911.488 511.257
2754 0 69.5687 14.7336 1025 58.878 912.094 509.062
2755 0 70.5414 15.3102 1080 58.5518 912.5 507.355
2756 0 76.6341 12.4618 955 59.8995 912.343 509.678
2757 0 75.4422 14.7795 1115 58.6565 912.188 508.652
2758 0 78.4248 12.4578 977 60.7267 912.36 507.727
2759 0 83.9412 12.3777 1039 60.7084 912.828 504.245
2760 0 85.723 11.6655 1000 60.894 912.246 507.01
2761 0 88.4766 14.0941 1247 58.8236 912.47 503.257
2762 0 89.6446 12.94 1160 60.225 911.917 501.302
2763 1 43.41 9.83644 427 60.3162 912.82 525.639
2764 0 46.6485 12.219 570 58.2895 912.804 523.682
2765 0 44.5807 12.0231 536 60.1474 912.713 519.474
2766 0 47.9066 14.3613 688 57.2471 912.012 521.599
2767 0 47.3174 12.8917 610 59.2262 912.302 520.885
2768 0 51.8833 12.5088 649 59.1418 911.849 518.39
2769 0 48.4188 11.0081 533 60.97 912.43 520.21
2770 0 49.3563 12.6225 623 60.4799 912.417 517.485
2771 0 52.5464 16.5378 869 56.5765 912.364 515.51
2772 0 54.4698 11.7129 638 60.9107 912.77 514.473
2773 0 55.7407 13.4013 747 59.0897 913.307 511.523
2774 0 59.0756 11.3245 669 60.8909 913.251 514.486
2775 0 60.8121 12.9086 785 59.9032 912.774 512.935
2776 0 68.5713 14.3209 982 57.1874 912.134 514.916
2777 0 63.6775 12.2335 779 60.6804 912.621 511.237
2778 0 65.3759 14.0266 917 58.8811 912.225 510.686
2779 0 69.9153 12.6439 884 59.7873 912.137 509.66
2780 0 67.4766 12.7748 862 60.2135 912.198 508.379
2781 0 72.736 13.5559 986 59.2333 911.426 508.19
2782 0 71.3959 12.6198 901 60.8934 911.782 505.123
2783 0 74.5071 14.5355 1083 59.0065 912.47 504.759
2784 0 76.6499 11.9113 913 61.0285 912.407 504.095
2785 0 82.6429 14.1694 1171 57.7609 912.098 506.661
2786 0 83.5413 13.1073 1095 59.61 912.214 500.312
2787 0 84.5188 12.8965 1090 60.2789 912.104 496.965
2788 0 88.3917 11.2567 995 60.3719 912.214 502.747
2789 0 92.5799 14.1391 1309 59.139 912.438 493.605
2790 0 94.2924 13.0233 1228 59.9919 912.646 493.156
2791 0 98.4077 16.2487 1599 57.1032 912.03 492.835
2792 0 99.7184 12.2946 1226 60.3181 912.55 491.15
2793 1 40.3439 12.8396 518 59.0965 913.272 518.645
2794 0 40.1859 11.3224 455 60.8088 912.967 518.004
2795 0 45.1879 12.4148 561 59.3636 913.257 518.014
2796 0 43.418 11.7002 508 60.7933 912.396 516.472
2797 0 44.2068 12.2605 542 60.452 912.926 516.321
2798 0 50.7001 11.6173 589 59.056 912.669 521.031
2799 0 50.3344 11.5428 581 60.7849 913.663 517.697
2800 0 50.8531 11.2087 570 61.4333 912.8 515.791
2801 0 53.6754 14.6436 786 58.3779 913.232 515.997
2802 0 63.0845 15.4872 977 55.9908 913.35 517.924
2803 0 60.8218 14.4685 880 58.4568 913.417 515.345
2804 1 1 4 4 56.5 911.5 484.75
2805 1 62.7356 13.8996 872 59.1686 912.554 514.459
2806 0 62.8985 13.6728 860 60.3895 912.417 512.134
2807 0 64.4155 12.7919 824 60.8228 913.026 512.182
2808 0 66.6413 15.2308 1015 58.932 912.936 510.813
2809 0 65.5456 13.9597 915 60.2 912.357 512.117
2810 0 68.7307 14.2003 976 59.6568 912.721 511.865
2811 0 72.8806 12.5685 916 61.1408 913.212 509.543
2812 0 69.2489 14.5129 1005 60.7353 913.298 507.631
2813 0 76.5249 16.034 1227 58.3562 912.867 507.016
2814 0 78.4529 14.3016 1122 59.7264 912.32 506.502
2815 0 79.3967 13.7537 1092 61.1804 913.181 504.114
2816 1 0 0 0 -nan -nan -nan
2817 1 91.4896 14.0672 1287 59.4343 912.487 505.073
2818 0 95.0033 13.389 1272 59.9835 912.925 505.376
2819 0 90.3653 15.4816 1399 59.7756 912.791 500.758
2820 0 94.584 14.7276 1393 59.8938 912.525 500.384
2821 0 95.3701 16.2315 1548 59.1641 912.93 496.742
2822 0 100.187 13.1854 1321 62.0772 912.418 495.215
2823 0 104.363 14.3921 1502 60.6318 912.532 497.656
2824 0 108.126 13.9744 1511 61.8034 912.633 495.025
2825 0 112.785 15.8354 1786 60.2245 913.174 492.689
2826 0 108.625 13.6985 1488 63.381 913.101 487.853
2827 0 117.919 13.0683 1541 62.6788 912.45 490.215
2828 0 122.607 13.5718 1664 63.2133 912.944 484.282
2829 0 124.913 14.3299 1790 62.2955 913.255 484.672
2830 0 133.039 14.8678 1978 61.6729 912.911 483.007
2831 0 136.702 14.7035 2010 61.3368 912.951 480.9
2832 1 70.9218 14.1705 1005 60.8667 913.665 514.354
2833 0 66.5473 15.5829 1037 60.946 913.304 512.414
2834 0 71.5779 15.6054 1117 60.3241 912.594 512.066
2835 0 73.5607 13.4039 986 63.1024 913.193 508.18
2836 0 75.9497 11.6788 887 65.7193 913.205 505.549
2837 0 81.5645 12.4319 1014 64.2071 913.41 505.862
2838 0 81.9352 13.413 1099 62.7853 913.167 509.753
2839 0 83.0902 13.4071 1114 64.1302 913.191 502.207
2840 0 84.748 16.3662 1387 61.3043 913.508 505.632
2841 1 96.0864 13.9562 1341 66.7092 913.357 412.271
2842 0 94.5719 14.6872 1389 61.9856 913.653 505.099
2843 0 91.7969 14.9134 1369 62.756 913.093 501.256
2844 0 92.5085 15.8904 1470 62.5238 913.275 498.761
2845 1 42.7094 10.4895 448 65.9554 913.411 520.435
2846 0 40.2296 14.2929 575 61.9565 913.249 522.572
2847 0 45.8859 13.1195 602 63.3671 914.432 519.384
2848 0 44.3511 13.3029 590 63.0458 914.424 521.788
2849 0 46.4458 11.9279 554 64.8051 914.41 520.986
2850 0 50.5997 9.72337 492 66.5285 914.484 518.636
2851 0 50.4411 12.2519 618 64.3641 914.45 518.539
2852 0 51.8145 14.7256 763 62.2333 914.122 518.938
2853 1 61.2151 19.1293 1171 48.5397 913.28 518.605
2854 0 54.6498 12.571 687 65.3304 913.262 514.84
2855 0 55.5798 12.0907 672 64.7009 914.033 517.464
2856 0 57.7669 12.1177 700 65.4614 914.1 513.93
2857 0 56.9975 10.8952 621 67.1578 913.992 514.151
2858 0 61.6745 16.0196 988 60.913 914.721 515.587
2859 0 61.7862 13.1583 813 65.2374 914.897 512.29
2860 0 60.6026 12.9862 787 65.8996 913.867 512.816
2861 0 61.5004 10.943 673 67.9822 914.544 509.562
2862 0 63.3492 12.6758 803 65.8668 914.151 511.488
2863 1 0 0 1 66 913 476
2864 1 65.6843 13.4888 886 65.14 914.205 509.746
2865 0 71.7096 12.9829 931 65.4973 914.085 505.664
2866 0 74.6347 15.328 1144 61.8024 913.946 509.908
2867 0 72.7414 13.8161 1005 65.194 913.542 504.539
2868 0 77.8833 14.8812 1159 63.7972 913.878 504.645
2869 0 77.67 13.1067 1018 66.2564 914.143 499.435
2870 0 80.7512 11.6035 937 67.2177 913.705 498.618
2871 0 83.8803 12.5655 1054 66.3928 914.177 499.977
2872 0 85.6072 14.5899 1249 64.0528 912.94 501.632
2873 0 86.745 14.7213 1277 64.2412 913.866 500.832
2874 0 90.8374 12.5829 1143 67.2852 913.776 495.041
2875 0 91.4176 14.7783 1351 64.5403 913.218 498.622
2876 1 4 5.25 21 65.0952 912.619 442.762
2877 1 96.6531 12.3328 1192 67.9572 913.726 492.554
2878 0 99.7735 12.6787 1265 67.9447 914.054 487.164
2879 0 103.779 12.3628 1283 68.1871 913.749 489.448
2880 0 110.691 16.2344 1797 63.6166 914.131 489.853
2881 0 112.92 12.3184 1391 68.2588 914.645 487.33
2882 1 7 3.28571 23 68.4783 914.87 484.913
2883 1 57.7143 11.9035 687 65.6943 914.757 515.804
2884 1 0 0 2 68 914 484
2885 1 55.7996 10.3047 575 69.1009 913.689 512.365
2886 0 64.3919 13.2159 851 64.2115 914.294 514.724
2887 0 58.9553 10.72 632 69.4699 913.832 510.052
2888 0 67.5609 11.7968 797 67.4768 913.934 510.068
2889 0 70.6152 13.5523 957 64.186 914.134 514.54
2890 0 72.3811 14.7829 1070 63.0421 913.975 513.358
2891 0 67.7176 13.9698 946 66.1924 914.329 506.95
2892 0 75.6853 12.9351 979 65.9193 914.964 509.355
2893 0 79.6109 12.2973 979 65.3299 915.064 512.712
2894 0 68.247 11.1507 761 70.2089 914.547 504.669
2895 0 78.4661 10.7817 846 68.779 914.252 506.411
2896 0 74.3237 11.9612 889 68.9775 914.207 505.026
2897 1 0 0 1.04732e-303 -nan 385 0.0154672
2898 1 82.614 11.8987 983 67.2045 914.189 506.904
2899 0 73.5286 11.8457 871 69.8714 914.307 502.974
2900 1 93.6521 12.8561 1204 67.6262 914.56 496.112
2901 0 96.2344 15.4103 1483 64.207 914.423 500.171
2902 0 98.3879 14.8087 1457 64.1702 914.316 503.28
2903 0 103.103 15.4021 1588 64.5586 914.851 499.268
2904 0 93.2515 11.0561 1031 71.9719 914.663 493.327
2905 0 100.49 16.2802 1636 65.3117 914.388 492.098
2906 0 113.47 14.5853 1655 64.9039 914.818 497.463
2907 0 105.686 13.0575 1380 69.7993 914.46 485.956
2908 0 109.645 14.4649 1586 68.3676 914.384 484.103
2909 0 113.391 14.6925 1666 68.4784 914.807 483.003
2910 1 56.6578 12.6196 715 68.1105 914.813 513.378
2911 0 55.2794 13.6217 753 67.5604 914.07 513.323
2912 0 61.5093 12.6322 777 67.4376 914.252 513.902
2913 0 69.757 14.2495 994 64.497 914.568 516.039
2914 0 71.4443 14.1369 1010 65.1218 914.102 513.515
2915 0 69.4264 11.6238 807 69.9678 914.242 509.569
2916 0 67.6735 13.905 941 68.1254 914.262 507.31
2917 1 0 0 1.04732e-303 -nan 395 -0.0719927
2918 1 153.494 11.1665 1714 73.3279 913.375 471.698
2919 1 83.1206 11.754 977 75.1402 913.364 427.059
2920 0 87.0955 11.7342 1022 74.9892 913.059 421.535
2921 0 79.8697 11.7191 936 71.5673 914.207 502.184
2922 0 79.6526 15.0905 1202 67.772 914.265 502.954
2923 1 90.6144 14.0044 1269 67.0473 914.493 504.756
2924 0 96.1226 11.5686 1112 76.3094 913.093 407.288
2925 0 94.4666 15.2329 1439 66.7199 913.9 501.756
2926 0 97.4123 14.7004 1432 67.5335 914.494 498.591
2927 0 100.468 14.4125 1448 67.1809 913.629 501.777
2928 0 98.7814 13.3628 1320 69.8894 913.442 495.95
2929 0 101.469 13.4721 1367 69.5764 913.708 494.086
2930 1 47.5938 14.6448 697 65.5524 913.577 520.812
2931 0 44.7702 13.4018 600 68.75 913.728 520.06
2932 0 48.212 12.4865 602 69.4967 914.065 518.394
2933 1 57.68 11.2344 648 68.7099 913.242 520.904
2934 0 60.9665 13.9421 850 65.1765 913.833 521.538
2935 0 52.4711 14.6176 767 66.9726 914.347 518.125
2936 0 53.8199 13.0807 704 69.4702 913.68 516.195
2937 1 63.912 11.4063 729 69.059 912.946 516.454
2938 0 60.3228 13.7759 831 69.5511 913.38 520.546
2939 0 61.2674 15.7833 967 66.091 913.087 518.461
2940 0 65.3224 15.0791 985 65.8853 912.732 518.086
2941 0 59.8465 14.0192 839 68.6007 913.312 515.989
2942 1 151.789 11.4172 1733 72.4657 913.335 479.375
2943 1 142.825 10.8384 1548 73.6893 913.65 480.654
2944 0 140.542 9.30683 1308 75.1109 913.044 480.305
2945 0 135.782 9.59625 1303 70.1903 913.17 498.991
2946 1 56.0379 8.58348 481 77.5281 913.37 447.104
2947 0 72.6859 13.3038 967 68.7353 913.764 510.889
2948 0 77.6738 14.5223 1128 66.8972 913.276 509.142
2949 0 78.3047 13.2559 1038 68.8218 913.193 509.037
2950 0 82.3979 13.9931 1153 67.0772 913.297 508.056
2951 0 78.0321 12.5974 983 69.9166 913.26 504.708
2952 0 81.8432 14.4911 1186 67.9663 913.022 501.334
2953 0 85.7542 13.8302 1186 68.7749 913.653 501.581
2954 0 85.4715 14.461 1236 68.4126 913.638 499.646
2955 1 42.2947 12.5548 531 68.6723 914.111 518.33
2956 0 43.4676 14.1945 617 67.5462 913.856 515.742
2957 0 46.342 13.7241 636 68.1132 913.956 517.38
2958 0 54.4205 10.4189 567 69.1376 914.106 519.854
2959 0 52.6572 15.0787 794 64.7985 914.126 518.602
2960 0 51.2382 13.9154 713 66.9018 914.041 517.889
2961 0 50.6571 13.7592 697 68.4304 913.585 514.367
2962 0 53.5536 14.7703 791 66.8458 914.239 514.393
2963 0 54.4192 12.6058 686 68.981 914.415 516.606
2964 0 54.2549 13.8789 753 68.595 914.434 514.544
2965 1 132.131 5.53237 731 78.5362 912.711 436.988
2966 1 190.466 7.99094 1522 74.3706 912.658 470.505
2967 0 187.644 11.25 2111 70.6367 912.846 470.136
2968 1 126.128 11.4725 1447 73.9129 912.572 418.11
2969 1 66.194 14.805 980 66.5908 913.042 512.626
2970 0 69.3362 16.6003 1151 64.4275 913.352 510.917
2971 0 71.1204 15.073 1072 66.556 912.949 508.854
2972 0 68.7164 15.0182 1032 68.5649 913.276 505.274
2973 0 77.4521 15.0932 1169 66.1514 913.659 508.808
2974 0 81.0725 14.0862 1142 66.3152 913.477 508.644
2975 0 75.5462 15.3151 1157 66.9914 913.393 504.842
2976 1 241.537 14.0641 3397 69.368 912.956 436.731
2977 0 237.44 14.3826 3415 70.6536 913.077 424.288
2978 0 248.952 14.3562 3574 70.322 912.827 424.044
2979 1 163.138 10.1325 1653 76.9274 912.656 385.572
2980 1 86.5303 13.8911 1202 68.985 913.039 496.418
2981 0 90.3967 15.9962 1446 66.5519 913.196 494.918
2982 0 89.6842 12.4771 1119 70.6282 913.403 496.628
2983 0 96.6412 15.8111 1528 66.1047 913.329 494.836
2984 0 101.973 16.828 1716 64.574 913.505 494.772
2985 0 100.572 14.855 1494 68.6145 914.177 487.836
2986 0 103.463 13.8504 1433 69.9295 913.463 485.826
2987 1 0 0 0 -nan -nan -nan
2988 1 115.753 12.6909 1469 69.1368 914.153 490.779
2989 0 122.738 13.5084 1658 68.5338 914.18 488.086
2990 1 64.264 8.71406 560 70.0857 913.741 516.188
2991 0 64.5623 12.4996 807 65.7683 913.667 517.596
2992 0 67.9518 11.2727 766 68.2089 914.129 513.632
2993 0 72.063 10.1994 735 74.2884 913.162 439.732
2994 1 61.5011 14.455 889 67.5051 913.862 510.072
2995 0 63.3311 13.8005 874 68.3101 912.443 507.817
2996 0 66.9259 14.1201 945 68.4868 914.198 506.577
2997 0 69.2679 14.1624 981 68.4363 913.555 509.516
2998 0 76.0297 16.6514 1266 64.2109 913.678 509.239
2999 0 70.5586 14.0734 993 68.8197 913.738 504.04
3000 0 70.3681 13.3868 942 70.2611 914.228 502.995
3001 0 72.3986 13.992 1013 69.2656 913.957 503.958
3002 0 74.5087 15.0989 1125 68.9316 913.718 500.681
3003 0 75.445 14.4078 1087 68.1141 914.241 504.75
3004 0 81.1275 12.5235 1016 71.1939 913.63 499.156
3005 0 88.4445 13.5226 1196 69.337 914.546 499.718
3006 0 86.1939 15.2563 1315 68.1224 913.685 498.992
3007 0 86.2923 15.6793 1353 67.8877 913.992 495.446
3008 0 90.1984 14.5901 1316 68.2538 914.076 496.432
3009 1 57.0966 9.94805 568 77.5387 913.493 418.551
3010 1 155.857 12.9221 2014 70.1306 913.785 475.552
3011 0 149.297 9.98682 1491 71.2676 914.009 484.898
3012 0 148.873 10.7676 1603 73.068 914.24 477.665
3013 1 127.26 12.2113 1554 67.4311 914.61 496.223
3014 0 119.328 7.95289 949 72.373 914.466 498.472
3015 0 120.752 10.418 1258 70.6407 914.427 494.153
3016 0 120.579 13.0039 1568 69.6518 914.472 485.75
3017 0 119.515 13.8058 1650 70.1661 914.301 480.712
3018 1 54.4071 14.6304 796 67.1746 914.236 515.304
3019 0 53.6236 13.7812 739 69.069 914.317 512.544
3020 0 56.1371 13.2355 743 69.7766 914.541 511.923
3021 1 66.1388 12.0958 800 69.4075 914.528 509.859
3022 0 67.6719 11.2011 758 70.8984 914.509 510.187
3023 0 60.2746 13.8367 834 69.4101 914.66 511.969
3024 0 62.5343 13.9763 874 70.6545 914.729 508.507
3025 0 64.6314 13.9251 900 69.74 913.894 510.913
3026 0 64.678 14.5335 940 69.9628 914.677 509.029
3027 0 67.676 12.486 845 71.9065 914.434 508.51
3028 1 14.057 5.76225 81 49.0988 911.259 538.259
3029 0 7.02043 4.98545 35 49.0286 913.8 536.429
3030 0 12.0088 5.57925 67 49.3433 913.119 543.448
3031 0 13.0246 2.3801 31 52.4194 911.806 540.097
3032 0 13.0146 9.45091 123 49.3821 912.594 541.016
3033 0 14.0054 6.35471 89 49.1124 912.831 540.944
3034 1 81.3278 14.9027 1212 69.7112 914.624 501.604
3035 0 84.7105 14.3076 1212 70.8366 914.29 496.009
3036 0 88.9643 14.6126 1300 69.19 914.631 501.192
3037 0 90.2664 15.8309 1429 68.9902 914.656 494.745
3038 0 90.323 14.8356 1340 70.2306 914.432 493.879
3039 0 93.5318 14.8399 1388 69.9597 914.167 493.985
3040 0 99.4853 13.3387 1327 72.2283 913.659 488.778
3041 0 100.245 14.7639 1480 71.1243 913.549 487.951
3042 0 103.742 14.7288 1528 70.8128 913.734 488.938
3043 0 108.206 15.1563 1640 69.5567 913.818 489.91
3044 0 113.759 15.6822 1784 69.8487 914.186 484.377
3045 0 116.484 15.925 1855 69.9159 913.833 483.077
3046 0 121.309 15.0937 1831 71.2818 913.348 478.427
3047 0 128.667 13.1425 1691 72.4979 914.093 482.717
3048 1 59.387 14.1613 841 70.5779 913.882 509.014
3049 0 61.5572 12.2488 754 73.5411 914.782 506.454
3050 0 62.3956 13.0939 817 71.9461 914.417 508.317
3051 0 60.4873 15.0445 910 71.0934 913.929 504.884
3052 0 65.707 14.3364 942 70.6093 914.26 508.005
3053 0 66.4997 12.6617 842 73.6615 914.065 506.458
3054 0 69.1458 13.9271 963 72.2108 913.654 504.169
3055 0 68.1491 13.852 944 73.1377 913.489 503.97
3056 0 70.6315 13.889 981 72.6198 914.453 502.965
3057 0 75.6023 13.9414 1054 72.2429 913.925 502.988
3058 1 82.178 10.7693 885 76.1345 913.8 499.853
3059 0 90.1261 12.9041 1163 71.1032 913.851 504.218
3060 0 91.2134 14.8114 1351 68.7461 914.184 504.064
3061 0 84.5697 13.7047 1159 71.9379 914.215 500.51
3062 1 14.0528 11.6703 164 48.7683 913.927 539.78
3063 0 14.0395 8.11995 114 50.2105 913.781 540.044
3064 0 18.0147 11.0466 199 48.1457 913.774 540.824
3065 0 13.1534 5.93004 78 51.359 913.218 540.077
3066 0 16.0089 10.9939 176 49.1364 913.472 539.318
3067 0 15.1193 6.15107 93 50.7957 912.774 541.075
3068 0 18.116 9.49437 172 49.7093 912.831 540.419
3069 0 17.0352 6.28112 107 50.3832 913.065 541.28
3070 0 13.0116 5.68723 74 50.3243 913.108 543.203
3071 0 14.0144 8.34854 117 49.4103 913.094 538.538
3072 1 56.7729 12.3827 703 72.5306 914.21 509.422
3073 0 56.1681 14.332 805 69.6398 914.086 510.919
3074 0 58.3986 12.6887 741 71.5533 913.891 509.339
3075 0 59.3653 15.1435 899 68.7442 914.469 509.273
3076 0 61.5042 13.3487 821 71.1961 914.348 507.647
3077 0 64.2115 13.1129 842 71.1805 914.565 506.745
3078 0 65.299 13.4458 878 71.2642 914.535 504.405
3079 0 68.6215 12.4742 856 71.3411 914.144 504.896
3080 0 70.2647 14.5735 1024 69.6856 913.919 503.01
3081 0 74.6164 12.839 958 70.7808 914.375 505.046
3082 0 78.274 13.8616 1085 69.2276 913.892 505.408
3083 0 76.228 13.8794 1058 70.7174 914.667 500.936
3084 1 87.2518 12.0914 1055 71.8768 913.992 498.456
3085 0 81.3507 14.9599 1217 69.0255 914.528 498.974
3086 0 85.4397 13.9397 1191 69.0663 914.289 500.308
3087 0 86.3841 11.6109 1003 72.8704 914.719 496.456
3088 0 89.4351 15.3966 1377 68.3849 914.529 494.624
3089 0 89.3721 14.6802 1312 69.4459 914.449 496.578
3090 0 92.5874 12.4855 1156 71.6497 914.928 494.043
3091 0 97.5649 14.6467 1429 69.3947 914.274 489.854
3092 0 100.292 14.2184 1426 69.5217 914.305 488.365
3093 0 102.368 15.0731 1543 68.5055 914.023 488.985
3094 1 52.2087 13.4077 700 68.32 914.42 511.594
3095 0 54.2378 13.6805 742 68.3612 914.881 508.83
3096 0 56.2871 11.9743 674 70.0861 914.487 509.542
3097 0 59.6386 13.0955 781 67.0717 914.845 511.334
3098 0 60.0324 9.29498 558 77.4212 915.226 445.651
3099 0 62.1959 13.152 818 68.4266 915.28 506.982
3100 0 65.7501 12.5171 823 69.5808 915.216 505.356
3101 0 68.7407 14.6493 1007 66.7805 915.208 505.745
3102 0 67.2455 12.8187 862 70.1926 915.266 503.581
3103 0 71.3064 13.5612 967 68.5595 915.022 505.362
3104 0 73.7899 14.7988 1092 67.2646 914.937 503.266
3105 0 74.3887 15.3384 1141 66.9211 914.552 503.225
3106 0 76.5645 12.3687 947 71.4488 914.842 501.01
3107 1 86.5798 12.2315 1059 70.5618 914.929 496.159
3108 0 86.6202 9.67442 838 74.0346 915.288 497.463
3109 1 77.2821 11.8397 915 69.5333 915.663 504.341
3110 1 96.5836 10.7679 1040 72.4269 915.371 494.834
3111 0 88.2301 16.0263 1414 67.3182 915.671 495.306
3112 0 90.1898 14.403 1299 69.3079 914.831 494.788
3113 0 95.3427 14.6 1392 69.7708 914.841 488.815
3114 1 63.0409 9.50177 599 69.1753 915.237 514.676
3115 1 51.6312 12.3375 637 66.8336 915.377 515.035
3116 0 51.2771 13.4758 691 66.6035 915.297 513.708
3117 1 15.0251 10.2495 154 47.9675 913.468 538.39
3118 0 14.0921 5.0383 71 50.4789 913.084 540.746
3119 1 4 4 16 45.9375 916.062 533.125
3120 1 19.4545 10.6402 207 45.0242 913.034 536.715
3121 1 58.32 13.786 804 68.0896 915.522 509.563
3122 0 61.7884 14.0156 866 66.3718 915.274 510.297
3123 0 61.2472 13.8619 849 68.9564 915.345 504.185
3124 0 64.3224 16.2152 1043 64.8255 915.122 506.558
3125 0 67.2454 15.555 1046 65.5841 915.078 503.935
3126 0 69.64 13.6416 950 68.0284 915.23 503.357
3127 0 71.5622 13.1214 939 69.4324 914.208 499.708
3128 0 72.4184 13.9467 1010 67.5545 915.124 502.533
3129 0 76.6256 14.7862 1133 67.1933 915.493 500.898
3130 0 79.3256 12.9088 1024 70.041 915.597 498.418
3131 1 90.0568 12.5365 1129 68.1763 915.012 502.662
3132 1 75.2702 10.8542 817 72.3856 914.513 500.381
3133 1 90.8672 11.6984 1063 70.7968 914.818 496.783
3134 0 87.6027 14.3831 1260 68.8738 914.168 495.336
3135 0 83.2704 13.8464 1153 71.7077 913.96 489.6
3136 0 91.5606 16.0549 1470 66.9469 914.477 492.718
3137 0 98.5638 14.6707 1446 67.6508 913.875 493.147
3138 0 99.1403 14.5854 1446 68.5035 914.292 490.474
3139 0 101.248 14.0349 1421 68.2393 914.496 489.165
3140 0 105.198 15.8559 1668 66.3789 914.001 489.543
3141 0 107.742 14.8967 1605 68.0611 914.23 486.462
3142 0 111.232 14.4203 1604 68.7357 914.306 483.022
3143 0 115.835 12.9062 1495 70.2809 912.934 479.884
3144 0 119.49 15.7001 1876 66.4515 913.358 481.636
3145 0 121.333 14.9918 1819 67.983 913.698 480.205
3146 0 129.416 15.9949 2070 66.029 913.662 479.152
3147 0 128.273 13.0971 1680 70.3536 913.315 475.357
3148 0 133.417 13.2067 1762 69.9512 913.645 474.625
3149 1 71.7247 13.9004 997 65.8265 913.3 504.494
3150 0 70.0668 9.7193 681 76.514 912.797 425.511
3151 0 74.0739 10.719 794 75.0529 913.055 426.173
3152 0 78.2565 12.3824 969 68.1662 913.77 501.959
3153 0 79.3664 15.3969 1222 64.7758 913.482 501.111
3154 0 83.7345 14.4504 1210 65.8678 913.023 500.324
3155 0 85.6356 14.5267 1244 66.0667 913.08 497.131
3156 0 87.5373 14.2911 1251 67.0432 912.545 494.624
3157 0 90.6115 14.4573 1310 66.6252 912.987 494.779
3158 0 91.1929 14.9683 1365 65.9582 912.744 495.834
3159 0 96.3059 15.8246 1524 64.6214 912.879 495.029
3160 0 97.2747 14.9988 1459 66.8362 912.682 489.584
3161 0 99.3501 12.6019 1252 68.9449 912.673 488.439
3162 0 107.262 15.8398 1699 64.2278 912.555 488.769
3163 0 109.242 16.6328 1817 63.7887 912.758 488.944
3164 0 114.171 15.7833 1802 63.9911 913.126 486.985
3165 0 115.661 15.8221 1830 64.2361 913.204 487.426
3166 0 119.224 14.8293 1768 66.0221 913.236 483.283
3167 0 123.333 11.7001 1443 69.9813 912.47 479.879
3168 1 68.3631 13.8818 949 64.0832 913.2 508.185
3169 0 66.205 12.4462 824 68.0425 913.308 502.825
3170 0 68.3802 14.2439 974 65.1756 913.531 505.566
3171 0 69.2123 13.4225 929 67.5221 913.094 502.764
3172 0 75.5172 16.0493 1212 62.7236 913.757 505.344
3173 0 74.1647 14.8588 1102 65.2586 913.39 502.46
3174 0 76.3154 15.8683 1211 64.8415 912.842 500.838
3175 0 78.1386 15.0758 1178 66.208 913.694 499.181
3176 0 85.4956 18.0126 1540 61.2331 913.517 496.281
3177 1 93.45 14.6924 1373 64.9934 913.469 494.194
3178 0 88.1669 15.1984 1340 65.4746 913.728 498.363
3179 0 88.3934 15.3745 1359 66.5298 913.703 491.057
3180 0 89.2779 14.9981 1339 66.8514 913.528 494.796
3181 0 93.3827 15.731 1469 66.0688 913.11 492.613
3182 0 97.3015 15.7346 1531 65.7884 913.248 491.654
3183 0 100.353 16.0334 1609 66.0298 913.04 488.692
3184 0 105.351 16.5258 1741 64.7921 913.26 489.726
3185 0 105.157 14.2453 1498 68.1649 913.005 487.798
3186 0 109.249 14.4806 1582 68.2408 913.168 485.011
3187 0 111.49 16.1719 1803 66.3261 913.086 484.815
3188 0 116.726 16.8942 1972 65.7003 913.472 480.498
3189 1 125.403 11.9375 1497 71.4035 913.351 477.786
3190 0 121.3 14.5836 1769 70.0204 913.344 475.605
3191 0 125.156 16.3317 2044 67.1649 913.241 478.531
3192 0 127.279 15.36 1955 69.443 913.228 473.135
3193 0 130.327 16.4049 2138 68.1899 913.621 473.485
3194 1 144.224 11.3366 1635 73.9339 913.294 467.46
3195 0 138.221 15.4173 2131 69.8428 912.582 468.544
3196 0 144.383 15.2026 2195 70.3831 913.357 465.935
3197 0 149.554 14.8909 2227 70.1783 912.775 468.274
3198 0 154.494 14.6413 2262 69.8457 912.765 467.762
3199 0 155.3 14.765 2293 71.4509 912.553 462.927
3200 0 159.256 14.392 2292 71.9843 913.334 462.068
3201 0 165.727 14.9282 2474 71.0424 913.721 462.224
3202 0 170.392 15.3118 2609 70.4565 913.517 460.378
3203 0 175.675 14.9822 2632 72.2466 913.734 452.2
3204 1 152.739 9.84689 1504 75.1463 913.348 473.839
3205 1 132.24 13.2033 1746 73.4771 913.402 476.085
3206 0 134.233 14.2588 1914 72.2727 913.099 476.596
3207 0 137.679 13.7494 1893 73.1865 913.166 474.024
3208 1 16.2925 5.52401 90 49.3222 913.133 539.944
3209 1 6 9.16667 55 41.5818 911.527 531.673
3210 0 1 13 13 45 913.154 532.769
3211 1 14.0535 12.3813 174 46.6034 912.58 536.575
3212 0 14.0514 11.2444 158 47.443 912.791 537.589
3213 1 161.244 14.2145 2292 75.8805 912.943 458.6
3214 0 165.689 14.159 2346 76.0887 913.172 459.905
3215 0 168.173 15.0856 2537 74.6468 913.264 462.25
3216 1 183.347 12.6481 2319 78.8693 913.561 450.893
3217 0 177.514 15.1087 2682 75.5895 913.37 455.552
3218 1 16.0935 8.32634 134 49.209 912.239 539.09
3219 0 17.0407 9.15456 156 47.891 912.917 537.404
3220 0 14.0506 9.67927 136 49.4779 913.169 540.309
3221 0 16.0101 12.4921 200 47.73 913.35 536.36
3222 0 16.1191 13.4002 216 47.9213 914.018 538.653
3223 0 16.0696 9.27216 149 48.2886 912.946 537.228
3224 0 15.0185 14.9816 225 47.1467 914.404 538.52
3225 1 0 0 1.04732e-303 -nan 455 0.263982
3226 0 15.0086 8.92819 134 49.5224 912.604 538.067
3227 1 147.784 14.7309 2177 78.169 913.914 466.363
3228 1 158.57 12.1587 1928 81.653 914.069 465.126
3229 0 161.481 12.6083 2036 81.0914 914.685 460.742
3230 0 166.762 12.3649 2062 81.871 913.991 459.285
3231 0 158.556 15.7484 2497 77.5094 914.461 461.817
3232 1 176.222 12.768 2250 81.5271 914.344 457.322
3233 0 171.271 16.1148 2760 76.6174 913.827 457.354
3234 0 177.265 14.893 2640 78.817 914.192 453.171
3235 0 181.552 13.6049 2470 79.198 913.646 455.304
3236 0 186.4 15.3648 2864 78.4522 913.756 448.04
3237 0 193.326 14.9126 2883 78.9448 913.831 446.117
3238 1 161.237 9.22244 1487 83.7444 913.432 466.472
3239 0 164.9 8.39901 1385 84.0195 914.011 470.818
3240 1 151.216 10.8256 1637 79.7276 914.308 477.337
3241 0 152.35 14.5061 2210 77.3968 913.826 468.443
3242 0 160.555 13.5903 2182 79.2456 914.056 465.37
3243 1 171.167 11.3632 1945 84.02 913.643 454.486
3244 0 177.664 12.5067 2222 81.5212 913.274 456.788
3245 0 172.393 15.5981 2689 77.8412 913.463 457.771
3246 0 180.433 15.2688 2755 77.8428 913.743 454.386
3247 0 184.925 14.0597 2600 80.1462 913.021 452.478
3248 0 185.002 10.8539 2008 83.616 912.434 458.945
3249 0 181.572 14.3139 2599 85.3178 912.895 449.486
3250 0 175.894 24.4068 4293 72.7885 913.057 449.659
3251 1 161.918 12.9572 2098 83.5043 913.202 461.744
3252 0 162.056 14.8159 2401 82.6189 913.51 460.227
3253 1 273.668 18.3178 5013 83.943 913.203 413.731
3254 0 275.428 16.9373 4665 87.8448 913.874 409.209
3255 1 139.075 6.44974 897 106.307 911.793 278.156
3256 0 143.197 5.74035 822 105.313 912.286 266.689
3257 1 299.108 12.9485 3873 93.2267 912.712 425.86
