time division length width area intensity CMx CMy
0 0 64.0653 13.2053 846 94.461 122.324 293.066
1 0 65.0695 14.2463 927 90.9482 122.246 295.042
2 0 66.0284 14.2363 940 92.7351 122.818 292.519
3 0 70.047 14.3047 1002 91.0948 123.152 296.556
4 0 72.0273 12.7591 919 94.1534 122.927 297.356
5 0 74.0822 13.3635 990 93.4152 123.072 296.356
6 0 77.1181 14.8085 1142 89.6243 123.032 297.449
7 0 78.138 13.5017 1055 92.3052 122.069 298.439
8 0 82.1927 14.5512 1196 89.6095 122.303 296.61
9 1 44.0553 11.8714 523 95.1702 122.294 315.063
10 0 46.08 11.8707 547 93.5832 121.473 316.287
11 0 48.0517 12.1328 583 93.1458 121.005 315.854
12 0 49.0598 12.0873 593 93.4283 121.378 316.847
13 0 52.0571 13.3699 696 88.8563 121.466 318.471
14 0 53.1248 12.8753 684 90.2354 121.342 317.427
15 0 53.0857 12.3009 653 91.6141 120.911 318.763
16 0 56.0405 12.6694 710 89.1732 120.977 319.925
17 0 56.0219 12.7272 713 89.1893 121.349 320.612
18 0 59.114 13.4317 794 87.3149 121.168 318.848
19 0 60.0282 12.1943 732 89.597 121.452 317.335
20 0 60.0763 11.8349 711 90.9001 121.828 318.591
21 0 65.0678 13.9086 905 84.7238 122.103 319.999
22 0 66.0294 13.1608 869 86.5512 121.713 317.441
23 0 68.0672 14.5738 992 83.1512 121.3 318.206
24 0 69.1744 12.8516 889 86.3701 121.434 318.082
25 0 74.0852 13.2145 979 84.9571 121.718 316.969
26 0 74.0786 13.2022 978 85.6656 121.593 315.245
27 0 78.1632 13.3695 1045 84.7301 120.915 313.536
28 0 81.0521 13.1891 1069 84.5304 120.895 313.442
29 0 83.0867 12.4569 1035 86.0957 121.195 312.401
30 0 84.026 12.5437 1054 85.5342 120.61 309.942
31 1 43.0259 10.5053 452 86.8673 120.947 331.491
32 0 44.031 11.2648 496 85.4657 120.288 330.214
33 0 46.0582 12.3539 569 82.9736 120.793 328.54
34 0 48.1067 11.911 573 82.4241 121.084 329.485
35 0 47.1166 12.0127 566 83.9806 120.892 326.567
36 0 50.0979 11.1382 558 84.5932 121.206 328.36
37 0 52.0938 12.0552 628 81.965 121.08 326.003
38 0 52.1908 10.8257 565 84.3257 120.761 323.655
39 0 53.08 12.2457 650 81.0646 120.835 322.402
40 0 56.0528 11.9887 672 80.7961 120.42 321.552
41 0 57.0656 11.3904 650 81.66 120.694 320.457
42 0 60.1407 13.6181 819 77.1648 121.076 319.072
43 0 62.0821 12.0969 751 78.8202 121.047 319.298
44 0 64.0639 12.909 827 76.9722 120.779 318.513
45 0 65.1074 13.255 863 76.3627 120.497 315.904
46 0 68.0657 11.8856 809 77.9802 120.419 316.487
47 0 72.0685 14.6805 1058 72.206 120.095 316.144
48 0 73.1172 13.1159 959 74.8634 120.137 314.951
49 0 75.0968 14.2483 1070 74 119.882 311.07
50 0 77.0431 12.4216 957 76.6301 119.61 311.31
51 0 83.0809 13.0234 1082 74.7144 120.12 308.296
52 1 43.0691 10.843 467 76.7088 119.499 326.544
53 0 44.0945 11.3619 501 76.9441 120.341 326.982
54 0 44.0718 11.0955 489 77.8814 120.059 327.098
55 0 47.0298 14.0762 662 71.5181 120.153 327.273
56 0 48.1025 13.3673 643 74.4448 120.241 321.992
57 0 47.077 11.7892 555 78.4505 120.013 321.339
58 0 51.1344 13.6308 697 74.5811 120.129 321.568
59 0 52.0591 13.7344 715 74.8168 119.344 321.796
60 0 54.1407 11.858 642 77.5841 119.966 321.263
61 0 56.0534 13.3979 751 74.6671 119.625 322.208
62 0 57.053 13.1807 752 75.6503 119.416 320.628
63 0 58.2491 13.3221 776 76.1134 119.302 319.242
64 0 60.0268 13.2941 798 75.817 119.916 320.967
65 0 63.0652 13.2878 838 75.4093 119.802 320.604
66 0 62.0524 12.4089 770 77.7883 119.674 319.358
67 0 65.0848 13.7667 896 74.7734 119.107 320.248
68 0 63.0328 13.1995 832 78.0204 118.501 318.544
69 0 69.0952 15.0083 1037 73.5342 119.821 318.646
70 0 68.2017 14.4718 987 75.3232 119.523 318.532
71 0 72.0991 14.7297 1062 75.2768 119.54 314.404
72 0 73.0842 13.4366 982 77.5214 119.264 315.877
73 0 77.0786 13.869 1069 76.8803 119.697 314.103
74 0 78.0801 13.6783 1068 77.3221 119.791 313.599
75 1 43.0185 11.4834 494 80.0486 120.723 328.694
76 0 42.0487 11.0586 465 80.9613 119.441 327.662
77 0 45.0156 12.7289 573 77.8394 119.335 326.979
78 0 45.0589 12.5613 566 79.394 119.178 327.085
79 0 46.0515 12.2906 566 80.182 120.102 327.196
80 0 49.1098 12.299 604 79.0944 120.182 327.2
81 0 49.0199 13.4843 661 77.8956 120.405 326.074
82 0 50.0352 12.1914 610 80.5426 120.482 325.37
83 0 51.0423 12.95 661 80.2194 120.231 322.961
84 0 54.0843 11.8334 640 80.5438 119.747 324.373
85 0 55.1905 12.5928 695 80.0115 119.822 323.396
86 0 58.1354 12.7289 740 78.7176 120.223 323.774
87 0 58.1194 13.5239 786 78.0458 119.67 324.128
88 0 60.0761 12.3677 743 80.4805 119.297 321.289
89 0 63.0422 12.1506 766 79.8238 119.738 323.879
90 0 66.1335 12.9435 856 79.0187 119.598 320.6
91 0 67.1078 14.0818 945 77.2931 119.897 321.013
92 0 68.183 12.8478 876 79.1301 119.977 321.551
93 0 71.1535 13.4076 954 78.021 120.16 318.391
94 0 72.0688 13.9728 1007 77.5631 120.43 317.81
95 0 76.2312 14.6397 1116 75.2195 120.038 317.376
96 0 77.1489 13.0916 1010 78.4683 120.115 316.668
97 0 82.1788 14.3468 1179 75.296 120.134 316.379
98 0 81.1756 12.3313 1001 79.3177 120.219 316.234
99 0 84.0941 14.1151 1187 76.5307 119.794 311.915
100 0 86.1586 13.0689 1126 77.341 120.226 312.514
101 1 46.0696 11.7431 541 74.7006 120.277 332.932
102 0 45.0918 11.2437 507 75.7081 119.949 333.621
103 0 45.1332 12.0754 545 76.3798 120.141 331.417
104 0 47.0344 11.7361 552 77.0779 120.277 330.978
105 0 49.0917 12.1609 597 75.799 119.72 331.005
106 0 49.0959 12.8931 633 74.2101 119.31 331.504
107 0 51.2122 11.9893 614 76.1482 119.44 330.64
108 0 54.0913 14.5125 785 70.5809 119.507 330.433
109 0 55.2356 13.3609 738 72.5352 120.111 329.928
110 0 55.0772 13.127 723 73.6362 120.094 327.779
111 0 56.1067 11.6029 651 76.3856 120.338 326.628
112 0 59.1535 12.7465 754 73.4867 119.61 327.446
113 0 61.0568 15.0679 920 69.8652 119.608 327.351
114 0 61.108 12.9934 794 73.2935 119.242 326.895
115 0 63.1429 12.6538 799 73.403 119.407 327.411
116 0 65.1236 12.2383 797 74.2284 119.595 323.167
117 0 68.0332 12.685 863 73.0104 119.861 324.158
118 0 69.1118 11.778 814 74.7445 120.205 323.731
119 0 73.1092 14.1159 1032 70.8614 119.71 321.266
120 0 74.1112 14.1679 1050 71.3124 120.026 319.814
121 0 78.2299 13.1024 1025 72.1063 120.136 320.24
122 0 77.192 12.579 971 73.9897 119.464 318.36
123 0 82.1291 13.5275 1111 71.8254 119.867 315.197
124 0 83.2203 13.1218 1092 72.0302 120.136 317.27
125 1 46.0738 11.8723 547 70.883 120.616 335.022
126 0 45.1009 12.1505 548 71.1916 120.148 334.288
127 0 48.0656 11.3387 545 71.6037 119.411 334.714
128 0 48.1237 11.4497 551 72.6751 119.617 332.557
129 0 51.1201 12.4217 635 70.7874 119.521 332.164
130 0 51.1789 12.427 636 71.7547 119.208 329.824
131 0 54.064 13.2806 718 69.9415 119.259 329.238
132 0 55.1489 12.7473 703 70.4865 119.575 328.612
133 0 56.1102 12.2794 689 70.7504 120.026 329.797
134 0 58.1068 12.5459 729 71.6543 119.671 326.486
135 0 58.2102 11.7677 685 73.5182 119.86 325.266
136 0 63.0939 12.5052 789 71.1483 119.833 325.248
137 0 64.139 12.4261 797 71.734 118.956 323.597
138 0 66.0622 12.4428 822 71.6338 119.706 323.892
139 0 67.1801 11.8934 799 72.8586 119.314 322.169
140 0 73.174 13.3107 974 69.2423 118.534 323.21
141 0 70.0525 12.5763 881 72.941 118.806 317.986
142 0 75.1537 13.9847 1051 69.4729 119.1 320.015
143 0 74.158 11.9744 888 74.205 118.774 315.979
144 0 80.1255 13.3665 1071 71.1419 119.204 314.504
145 0 81.1238 12.9555 1051 71.9781 120.349 312.452
146 0 84.0997 13.7337 1155 70.8009 120.741 309.386
147 0 88.0783 12.9884 1144 71.2098 120.684 311.939
148 1 45.0394 8.65908 390 75.3949 120.833 330.705
149 0 46.0806 11.1761 515 72.5223 120.47 328.94
150 0 47.1376 11.477 541 72.2939 120.349 326.484
151 0 47.1183 11.0997 523 72.6616 119.784 326.866
152 0 50.0844 11.6404 583 71.4614 120.156 325.52
153 0 53.0489 12.4037 658 70.5228 120.287 320.486
154 0 52.1149 11.6665 608 72.278 119.944 322.016
155 0 55.0435 12.8262 706 70.0467 119.915 320.916
156 0 54.0567 11.4879 621 72.7907 120.424 318.691
157 0 60.0785 11.9677 719 70.4631 120.341 318.826
158 0 61.0822 12.1148 740 70.3189 120.397 319.245
159 0 61.0678 11.8229 722 71.2742 120.259 319.59
160 0 63.0674 11.131 702 71.6239 119.218 319.591
161 0 66.1456 12.9865 859 68.5774 119.068 316.632
162 0 66.0731 11.9262 788 69.4886 119.566 318.798
163 0 69.0893 13.1135 906 67.9989 119.31 316.857
164 0 71.0663 12.7487 906 69.0817 119.177 314.597
165 0 74.0992 12.9826 962 68.1601 118.533 315.506
166 0 75.2065 13.443 1011 67.5262 118.57 314.34
167 0 78.1272 12.5052 977 68.4422 119.421 315.822
168 0 80.0609 12.3406 988 68.8269 119.382 312.434
169 0 82.0776 12.5491 1030 68.6748 119.633 307.527
170 1 44.0596 9.26019 408 71.5466 119.748 329.049
171 0 46.1137 11.1247 513 69.575 119.604 325.257
172 0 45.1377 9.74795 440 72.0182 118.995 326.43
173 0 49.2077 11.421 562 69.5356 118.52 323.891
174 0 51.1099 11.759 601 68.1531 119.165 323.953
175 0 52.1303 13.5238 705 66.5234 119.135 321.332
176 0 55.1063 12.1402 669 68.423 119.918 321.544
177 0 55.0676 12.53 690 68.213 119.922 320.587
178 0 57.0477 13.7253 783 66.0996 119.71 319.155
179 0 59.1581 13.9626 826 66.161 119.387 317.826
180 0 61.1128 12.9269 790 66.757 118.757 319.544
181 0 63.1667 13.6939 865 65.9168 119.173 316.225
182 0 65.0206 13.4726 876 65.7511 119.384 318.161
183 0 66.0653 14.1678 936 65.0694 119.879 315.339
184 0 67.1839 12.2351 822 67.4903 119.401 315.944
185 0 68.0852 12.4403 847 67.9268 119.285 312.307
186 0 72.1147 13.1319 947 66.1214 119.056 312.986
187 0 73.0829 11.8632 867 68.0865 119.165 311.13
188 0 75.1442 11.804 887 67.9763 119.565 311.536
189 0 78.0484 12.0566 941 67.2816 119.766 309.548
190 1 40.0209 9.76989 391 68.399 119.934 328.207
191 0 44.0435 12.2152 538 65.4517 119.805 325.537
192 0 45.0218 11.3501 511 66.3268 119.458 327.425
193 0 44.0355 10.4688 461 68.5336 119.623 325.855
194 0 47.0626 11.1129 523 67.4207 120.136 326.436
195 0 48.1741 11.5 554 67.6318 119.845 323.769
196 0 45.2225 11.167 505 70.7782 119.812 321.125
197 0 51.2281 12.2784 629 67.6359 120.321 322.143
198 0 54.1269 12.0088 650 67.3569 119.829 323.028
199 0 55.1046 10.8884 600 69.64 119.768 320.322
200 0 57.0387 12.2198 697 67.3185 119.356 320.798
201 0 58.0728 11.675 678 67.8702 118.763 322.367
202 0 59.1423 11.9542 707 68.826 118.871 318.204
203 0 60.0771 11.5685 695 69.5022 119.25 317.724
204 0 65.1184 12.27 799 67.229 119.549 317.079
205 0 65.1974 12.5925 821 66.7954 119.186 316.039
206 0 68.0622 12.4445 847 66.8028 119.831 315.797
207 0 72.1077 13.7433 991 64.0293 120.078 314.909
208 0 72.1439 12.5582 906 65.3333 119.33 316.171
209 0 75.1752 16.4416 1236 60.068 119.137 314.395
210 0 77.1239 13.1736 1016 64.747 119.19 311.969
211 1 42.0715 10.7674 453 64.5651 119.958 329.466
212 0 43.0741 10.7721 464 65.3384 119.981 326.653
213 0 46.0521 11.4436 527 65.0342 120.123 323.924
214 0 43.0612 10.2645 442 68.4186 119.751 323.33
215 0 48.1141 11.93 574 64.784 119.862 323.113
216 0 50.0917 13.1958 661 63.3222 119.691 322.711
217 0 52.0301 12.4736 649 63.5716 118.965 322.458
218 0 51.1048 11.7014 598 65.4281 119.199 320.657
219 0 54.133 11.8782 643 64.3142 119.309 321.532
220 0 57.0549 11.708 668 62.9431 119.142 321.665
221 0 58.1559 12.2258 711 63.1842 118.495 318.404
222 0 60.0622 11.6379 699 63.4821 119.052 319.1
223 0 61.1799 12.7329 779 61.9782 118.682 317.42
224 0 61.1469 10.6301 650 64.6046 118.394 317.574
225 0 66.0552 11.8537 783 62.1941 118.642 313.839
226 0 67.0924 12.3859 831 61.6053 119.297 313.091
227 0 69.0624 11.4824 793 62.604 119.561 313.706
228 0 71.1164 11.3617 808 62.1931 119.333 315.401
229 0 74.1831 13.3049 987 59.612 119.874 314.14
230 0 74.107 10.0395 744 64.0753 120.196 310.778
231 0 79.0361 11.5264 911 60.8814 120.203 310.045
232 1 41.0346 11.5512 474 61.6519 120.278 322.616
233 0 45.0726 12.0028 541 59.9982 119.429 324.978
234 0 44.0823 11.297 498 61.3072 119.749 325.028
235 0 45.1758 11.7984 533 60.5666 119.957 324.57
236 0 46.1321 11.3804 525 61.4648 119.375 323.261
237 0 48.1028 11.7249 564 61.3688 119.239 322.355
238 0 48.1105 10.7461 517 62.7253 118.868 320.253
239 0 50.1452 11.3869 571 61.3555 118.811 321.758
240 0 49.1114 10.5678 519 63.262 118.906 321.037
241 0 53.1008 11.6759 620 61.1774 119.235 320.842
242 0 56.0798 13.7661 772 58.3575 119.266 319.098
243 0 57.0923 11.5953 662 61.0801 118.476 317.698
244 0 61.1736 11.3775 696 60.5833 118.803 319.783
245 0 62.0465 11.5397 716 60.3534 118.637 319.45
246 0 62.1002 13.0756 812 59.4249 118.9 318.287
247 0 63.1437 11.26 711 60.9958 118.923 317.726
248 0 66.0428 13.1733 870 59.3575 118.668 313.607
249 0 67.0547 12.5122 839 60.205 118.795 313.634
250 0 68.0844 14.2911 973 58.5622 118.827 310.149
251 0 72.3487 11.6657 844 61.3709 119.063 313.075
252 0 73.0429 13.1703 962 60.3534 119.244 312.395
253 0 75.192 12.9136 971 60.0546 119.526 315.3
254 0 79.0575 13.1929 1043 59.8811 119.115 314.802
255 0 81.1136 14.4242 1170 58.4265 118.595 313.279
256 0 81.1207 11.7479 953 63.1574 118.502 311.012
257 0 87.1267 12.9352 1127 61.5705 118.273 306.585
258 0 87.0795 12.2876 1070 62.9757 119.203 304.533
259 0 90.1973 12.517 1129 62.6971 119.563 302.04
260 0 94.0927 12.1051 1139 62.547 119.473 305.136
261 0 100.194 13.414 1344 60.8185 119.472 302.155
262 0 100.12 12.7147 1273 62.4234 118.987 296.58
263 0 106.316 12.5475 1334 62.8823 119.27 294.735
264 1 40.1008 11.496 461 61.6681 118.477 324.041
265 0 42.0629 10.8409 456 61.8399 119.136 326.732
266 0 41.0276 11.5532 474 62.6203 119.616 326.2
267 0 43.1133 13.1746 568 59.9595 118.525 325.224
268 0 46.0349 13.2074 608 58.4836 118.012 325.819
269 0 45.1237 12.0779 545 62.2367 118.701 322.418
270 0 45.1122 10.5293 475 63.6947 119.202 324.838
271 0 49.089 11.0412 542 62.2934 119.288 323.81
272 0 48.0913 14.0358 675 58.56 119.184 324.825
273 0 53.1141 10.4492 555 62.8991 118.917 322.151
274 0 52.0904 11.8448 617 61.9514 118.893 320.677
275 0 54.0897 12.165 658 61.6109 118.93 320.502
276 0 54.0739 11.7802 637 62.6656 119.024 317.744
277 0 57.1385 11.5334 659 62.0789 119.385 319.31
278 0 59.1048 11.6065 686 62.621 118.776 316.72
279 0 61.0445 12.8759 786 60.5356 118.555 316.523
280 0 62.1013 10.9176 678 63.5501 118.889 315.574
281 0 66.1355 13.4572 890 60.018 118.647 316.044
282 0 65.0878 11.7533 765 62.4706 118.532 314.758
283 0 68.0447 12.1832 829 61.9131 118.054 312.79
284 0 71.0539 13.145 934 59.9347 117.597 315.203
285 0 71.1227 12.2746 873 62.3196 117.229 310.259
286 0 75.1048 13.621 1023 60.3402 117.819 308.905
287 0 76.1072 13.4416 1023 61.2717 118.208 307.296
288 0 80.0837 12.9489 1037 61.3086 118.999 308.886
289 0 84.0424 14.1595 1190 59.616 118.86 308.27
290 0 86.0707 12.4665 1073 62.9748 118.939 304.187
291 0 86.1696 12.87 1109 62.4986 118.915 304.817
292 0 92.1406 13.0127 1199 62.0926 118.972 305.024
293 0 91.1092 12.1612 1108 63.8547 118.625 300.177
294 1 47.0869 10.1939 480 64.4813 119.35 323.1
295 0 52.1061 11.6877 609 59.7406 119.594 326.42
296 0 51.0284 12.2089 623 60.5425 119.016 322.754
297 0 54.0778 12.1307 656 61.1677 118.622 318.575
298 0 54.0252 11.1429 602 62.4551 118.915 318.87
299 0 56.13 11.8653 666 61.8634 119.674 320.796
300 0 58.1723 11.3284 659 63.2428 119.106 316.687
301 0 60.1083 11.3296 681 62.9119 119.831 317.449
302 0 62.1199 12.17 756 61.3108 119.44 315.97
303 0 64.1174 13.0542 837 60.5436 119.079 313.919
304 0 66.2982 13.1829 874 59.833 119.324 313.939
305 0 67.0659 11.9435 801 61.9001 118.891 311.539
306 0 70.0517 11.5201 807 62.1797 119.457 312.242
307 0 73.0407 12.938 945 60.2328 119.384 311.34
308 0 71.1035 10.112 719 64.0014 119.498 312.337
309 0 76.1385 11.4003 868 62.0518 119.336 311.758
310 0 80.1228 12.7804 1024 59.7139 118.294 312.923
311 0 81.18 12.9096 1048 59.7968 119.159 313.179
312 0 83.0672 12.8932 1071 60.2241 119.055 309.045
313 0 87.0666 14.8048 1289 57.9333 118.647 308.275
314 0 87.2524 11.6215 1014 62.6893 118.467 305.031
315 0 91.131 12.9923 1184 60.31 118.335 305.837
316 0 92.1906 10.5 968 63.8595 118.113 304.899
317 1 51.1206 10.9349 559 62.7191 117.946 321.508
318 0 52.2107 12.1048 632 61.2247 117.875 319.972
319 0 53.0872 11.1703 593 63.1669 118.079 320.243
320 0 54.1097 11.1625 604 63.6772 117.81 318.93
321 0 56.1192 10.9766 616 63.961 117.894 319.825
322 0 59.0837 13.4386 794 60.8955 118.671 318.015
323 0 61.1129 12.5996 770 62.5273 118.17 315.684
324 0 64.0496 12.5372 803 62.1395 117.956 315.817
325 0 68.105 12.3633 842 60.462 118.286 319.292
326 0 67.1285 12.4686 837 62.3059 118.299 317.792
327 0 68.0459 12.8002 871 62.7313 118.631 312.084
328 0 72.0911 14.5372 1048 60.2719 118.257 312.46
329 0 74.0786 12.6352 936 62.7895 118.098 313.192
330 0 76.188 12.2985 937 63.5496 117.76 313.691
331 0 75.0686 12.8016 961 64.0229 118.279 310.691
332 0 79.0728 12.8616 1017 63.6834 118.66 310.382
333 0 79.125 12.9795 1027 64.5891 117.942 308.214
334 0 83.1138 12.4889 1038 64.7794 117.886 307.619
335 1 44.061 12.1196 534 63.5187 118.582 325.013
336 0 45.077 10.959 494 66.1356 119.184 326.136
337 0 47.0398 11.3733 535 66.3421 119.95 325.282
338 0 48.045 10.7816 518 67.1506 119.373 324.985
339 0 49.0836 11.4499 562 66.0409 118.808 324.948
340 0 50.0991 10.0002 501 69.1397 119.369 323.411
341 0 53.0383 11.8405 628 66.129 119.887 323.046
342 0 53.0996 12.6178 670 65.7 120.116 321.842
343 0 54.1261 13.3946 725 64.9862 119.779 319.041
344 0 58.1095 11.9602 695 66.5813 119.567 319.043
345 0 59.0527 11.3119 668 67.8278 119.692 318.455
346 0 59.1051 11.1835 661 68.2269 119.148 317.218
347 0 60.1486 11.9039 716 67.2179 118.823 315.521
348 0 63.0425 12.4836 787 65.7548 118.612 316.247
349 0 65.0945 11.9979 781 66.1818 117.78 314.248
350 0 66.0961 13.087 865 64.6925 117.95 313.068
351 0 67.1964 10.8786 731 67.9193 117.611 313.283
352 0 72.0339 12.5913 907 65.1896 117.546 310.318
353 0 72.1731 12.8995 931 66.1353 117.391 308.368
354 0 74.1224 12.8571 953 65.9895 118.265 307.398
355 0 76.0626 12.0164 914 67.1182 119.025 309.514
356 1 40.0303 10.1923 408 66.9485 119.784 327.539
357 0 42.029 10.9448 460 67.1152 119.041 325.185
358 0 39.0127 9.35594 365 69.0521 118.063 319.255
359 0 42.0078 10.6409 447 68.0447 118.796 319.461
360 0 43.0203 10.4834 451 67.9933 117.962 314.933
361 0 46.0952 13.7758 635 63.5276 119.194 318.376
362 0 48.2385 12.687 612 65.1356 118.526 323.278
363 0 50.1228 10.993 551 68.0363 119.034 324.392
364 0 48.0875 10.98 528 69.1477 118.867 324.58
365 0 50.0828 12.0201 602 67.49 118.007 322.065
366 0 53.1128 11.3532 603 67.8922 118.625 322.405
367 0 52.0969 11.9969 625 67.5504 118.347 322.56
368 0 55.0629 12.6583 697 66.0846 118.39 321.023
369 0 54.0503 12.0073 649 68.6333 118.584 320.126
370 0 60.0759 14.4983 871 62.9885 118.068 318.087
371 0 57.0711 11.985 684 68.2646 117.855 318.098
372 0 60.1052 13.0272 783 66.4138 118.022 315.534
373 0 64.0641 13.7362 880 64.6807 117.742 315.193
374 0 63.0364 13.516 852 65.9272 117.932 313.883
375 0 65.0497 12.9439 842 66.6283 118.295 313.361
376 0 66.031 12.3124 813 68.5929 118.363 309.419
377 0 70.0749 13.3286 934 66.3362 118.245 311.526
378 0 71.0423 13.3582 949 66.9589 118.017 309.949
379 0 73.0731 12.2754 897 68.1951 118.26 310.583
380 1 39.1014 12.6594 495 67.0263 118.842 326.489
381 0 42.0284 11.9681 503 67.6998 118.905 323.125
382 0 44.0909 12.3155 543 66.6943 117.72 315.65
383 0 44.0663 11.8458 522 67.9387 117.912 316.584
384 0 46.064 12.7648 588 66.4847 118.053 318.211
385 0 48.0558 11.9653 575 67.3322 118.066 320.499
386 0 49.1337 13.2089 649 66.0647 118.405 318.28
387 0 52.1154 14.3336 747 63.174 118.451 320.609
388 0 52.2029 12.9112 674 66.4036 118.383 318.619
389 0 55.0477 13.4247 739 65.3248 118.464 317.317
390 0 55.0793 10.966 604 68.8924 118.455 317.49
391 0 61.1642 13.4556 823 64.6136 118.934 316.2
392 0 59.0779 12.8305 758 66.1939 119.162 318.012
393 0 61.0658 11.7578 718 67.1128 119.04 319.786
394 0 64.0387 12.2894 787 66.8145 118.592 317.874
395 0 66.157 11.6239 769 66.3173 118.744 312.48
396 0 68.0743 13.4265 914 64.6411 118.437 311.76
397 0 71.0679 14.1836 1008 63.3948 118.882 309.846
398 0 73.1249 13.9351 1019 63.5074 118.395 312.995
399 0 75.1864 12.5289 942 65.5403 118.424 310.132
400 0 78.1859 13.5574 1060 63.7377 118.431 311.192
401 0 82.351 13.7946 1136 62.8856 118.625 309.816
402 0 84.0816 13.7961 1160 62.2233 118.892 309.018
403 1 45.1541 11.6933 528 64.4375 118.261 325.438
404 0 46.1119 12.0793 557 62.7594 118.643 326.858
405 0 48.0643 11.7343 564 64.3138 118.608 325.8
406 0 51.048 12.929 660 62.2091 118.785 325.033
407 0 50.0501 11.7083 586 65.2031 119.121 323.363
408 0 55.06 12.9858 715 62.5846 119.032 325.013
409 0 54.0632 11.579 626 66.2061 119.324 320.773
410 0 58.0372 12.0785 701 64.2867 119.214 321.996
411 0 59.1513 12.3074 728 64.9162 119.489 319.674
412 0 60.1575 12.5504 755 65.4384 120.183 318.791
413 0 62.1094 12.478 775 65.3884 119.77 316.461
414 0 65.0602 13.7565 895 62.5575 119.532 319.697
415 0 66.2114 13.7287 909 63.418 119.694 316.968
416 0 68.1939 13.2563 904 64.4735 119.753 313.956
417 0 72.262 12.5931 910 65.1099 119.645 312.225
418 0 73.07 12.2485 895 65.6693 119.283 312.213
419 0 75.0833 12.1865 915 65.4962 118.944 313.781
420 0 79.1461 13.7088 1085 63.5475 118.745 309.725
421 0 79.0849 12.4803 987 65.6839 118.912 309.76
422 1 45.1126 9.90853 447 66.1096 118.447 328.159
423 0 43.0328 10.2945 443 67.1151 118.58 328.67
424 0 46.0748 12.2193 563 64.7531 119.002 325.609
425 0 45.032 11.6584 525 67.4019 118.362 320.693
426 0 49.0112 12.3033 603 64.3532 118.294 324.27
427 0 50.0452 11.09 555 67.0162 118.362 324.351
428 0 52.0784 11.8859 619 66.9354 118.882 321.585
429 0 53.1594 12.566 668 66.5524 118.648 320.981
430 0 54.0606 11.5056 622 67.9341 118.783 319.542
431 0 56.0423 11.9731 671 67.1669 118.337 320.113
432 0 57.0273 12.7658 728 67.3901 118.332 316.805
433 0 60.1535 13.3326 802 65.1571 118.33 319.55
434 0 62.0744 13.6288 846 65.6832 118.888 315.014
435 0 64.034 12.915 827 65.7703 118.473 317.724
436 0 64.0764 12.2042 782 68.0512 119.087 315.357
437 0 65.049 12.5136 814 68.102 118.832 314.854
438 0 70.0458 13.3341 934 65.5717 118.836 315.896
439 0 69.0434 11.7462 811 69.3095 118.852 314.517
440 0 73.0341 13.9387 1018 65.9067 119.309 311.329
441 0 74.0854 12.3371 914 68.4004 118.962 311.255
442 0 77.1014 13.3979 1033 67.5605 118.91 310.37
443 0 83.1241 13.6423 1134 65.5882 119.159 312.375
444 1 43.1391 11.4513 494 70.6093 118.796 326.996
445 0 45.0305 12.8135 577 68.3951 118.92 325.86
446 0 46.0521 13.1807 607 68.9967 118.977 322.71
447 0 48.0854 12.4778 600 69.3767 119.867 324.178
448 0 51.0903 12.977 663 68.7466 119.151 320.799
449 0 52.0761 12.7698 665 69.3609 119.373 315.844
450 0 52.165 11.847 618 71.6812 119.251 311.442
451 0 56.1041 11.853 665 70.9639 119.314 309.874
452 0 58.1455 11.9184 693 70.6364 120.027 309.297
453 0 60.0532 11.9894 720 70.1694 119.193 310.947
454 0 61.0669 14.6397 894 66.1521 119.81 311.482
455 0 62.1728 13.0604 812 69.5505 118.68 308.304
456 0 65.2035 13.0975 854 68.678 119.094 308.964
457 0 69.1555 12.9563 896 67.4007 119.328 312.092
458 0 70.0852 12.7559 894 68.5 119.389 310.802
459 0 74.209 13.5428 1005 67.1095 119.008 309.951
460 0 76.08 13.4595 1024 67.2363 119.023 308.446
461 0 77.1215 14.6652 1131 65.6773 119.627 307.864
462 0 78.1257 12.9919 1015 68.1911 119.686 306.744
463 0 85.2017 14.0608 1198 65.7329 119.34 304.7
464 0 85.1824 12.5261 1067 67.7676 119.346 305.274
465 1 45.0646 13.3586 602 67.1229 119.321 322.346
466 0 46.0275 13.5571 624 66.9615 119.306 323.349
467 0 46.0224 11.9942 552 69.5072 118.674 324.688
468 0 48.0639 11.984 576 69.8125 118.847 322.856
469 0 51.0484 12.831 655 68.3374 119.115 321.73
470 0 51.0505 11.8902 607 70.6787 118.208 320.881
471 0 54.0206 13.1802 712 68.073 117.808 320.143
472 0 54.0435 12.9155 698 69.7149 117.414 318.265
473 0 56.0401 11.6524 653 71.196 117.758 317.874
474 0 59.0785 12.1533 718 70.0014 118.006 316.565
475 0 63.059 12.8927 813 68.4514 118.416 315.985
476 0 61.1078 12.6989 776 70.4768 118.112 313.744
477 0 66.1841 12.9941 860 68.8977 118.215 314.488
478 0 67.0693 15.1038 1013 64.7927 118.506 316.239
479 0 70.0696 13.3724 937 68.4098 119.091 312.866
480 0 73.1022 14.0351 1026 67.6384 119.033 309.428
481 0 76.1514 13.3418 1016 67.6368 119.183 310.221
482 0 78.1615 13.3953 1047 68.1452 119.214 307.004
483 0 84.1106 10.8191 910 70.256 119.544 306.636
484 0 83.1083 12.0084 998 69.3066 119.128 303.921
485 1 45.1466 12.2047 551 67.6116 119.174 322.617
486 0 48.1444 12.1509 585 67.3368 119.174 323.198
487 0 50.0369 13.0903 655 66.3344 119.521 321.907
488 0 53.0389 11.7084 621 67.9549 119.717 320.058
489 0 53.0806 11.3412 602 69.2076 119.714 318.352
490 0 56.0914 13.6028 763 65.7221 119.511 318.004
491 0 58.203 13.556 789 65.6324 119.343 317.407
492 0 58.1016 11.893 691 68.8408 119.333 312.792
493 0 61.1297 13.9212 851 65.4583 119.897 313.875
494 0 65.1356 12.1439 791 67.914 119.723 314.099
495 0 66.2042 12.5068 828 67.1316 119.95 314.692
496 0 68.149 12.502 852 67.2218 119.133 314.657
497 0 70.1102 12.7086 891 67.4905 118.798 311.322
498 0 71.0921 12.9691 922 66.7863 118.672 313.174
499 0 75.091 13.4237 1008 66.0079 118.648 312.556
500 0 77.0681 14.2601 1099 64.5578 119.039 312.157
501 0 81.1571 13.1227 1065 65.9305 119.019 310.812
502 0 83.0819 12.6622 1052 66.7709 119.626 308.459
503 0 88.0929 12.7593 1124 65.8897 119.925 307.442
504 0 87.0393 11.9716 1042 67.7678 119.771 306.102
505 0 94.1259 13.8113 1300 64.27 119.559 304.254
506 0 97.1573 13.2568 1288 65.2438 119.111 300.853
507 0 102.147 14.8708 1519 62.4727 118.846 301.205
508 1 55.0541 11.3525 625 66.4272 118.427 321.531
509 0 56.1161 13.8107 775 63.7639 119.102 318.648
510 0 58.1201 12.0268 699 66.1459 119.016 317.99
511 0 61.1488 12.674 775 64.9368 119.853 317.681
512 0 63.0908 14.2176 897 62.6934 119.789 316.163
513 0 65.0617 13.7101 892 63.083 119.861 315.911
514 0 66.0521 11.1881 739 66.3275 120.118 314.997
515 0 66.054 12.3535 816 65.7659 120.022 313.93
516 0 69.1713 12.5052 865 64.5272 120.234 313.198
517 0 71.0452 12.3865 880 66.5716 119.19 309.952
518 0 73.1364 11.9093 871 67.1366 119.734 309.844
519 0 77.0789 12.5326 966 65.6077 119.427 309.686
520 0 77.1909 12.2424 945 67.1365 119.276 305.259
521 0 82.06 12.1375 996 66.7239 119.191 305.28
522 0 80.1397 10.9184 875 69.0103 119.181 302.841
523 0 89.154 12.4167 1107 65.196 119.125 303.92
524 0 90.1053 12.219 1101 66.3524 119.001 299.633
525 1 51.0306 10.4643 534 67.4288 119.532 321.642
526 0 51.0707 11.2589 575 66.3391 119.063 320.271
527 0 55.0806 12.3455 680 64.7191 119.631 319.99
528 0 56.1058 11.5853 650 66.2092 119.091 318.866
529 0 60.1448 11.7716 708 64.8672 119.257 317.223
530 0 62.0751 12.8554 798 63.1855 119.254 316.544
531 0 62.071 12.389 769 64.5644 118.861 316.008
532 0 64.0221 12.1052 775 65.2129 118.428 314.836
533 0 65.1142 12.2554 798 65.0602 119.033 314.475
534 0 68.0557 12.9453 881 63.8888 118.247 313.742
535 0 72.0949 12.6084 909 64.3036 118.229 311.025
536 0 73.0951 12.7916 935 64.3316 118.316 309.51
537 0 75.1163 14.0049 1052 62.3413 118.699 309.273
538 0 79.0939 13.6547 1080 61.6824 119.763 309.817
539 0 78.0932 12.1649 950 64.9168 119.74 305.444
540 0 83.1188 12.825 1066 62.8208 119.441 306.554
541 0 86.2143 13.9304 1201 60.9101 119.276 305.284
542 0 89.2028 12.7238 1135 62.4493 119.222 303.818
543 0 90.0954 13.0639 1177 61.6287 119.014 304.364
544 0 98.1126 12.0372 1181 61.5648 119.273 303.381
545 0 97.0584 12.5285 1216 62.7426 119.03 297.646
546 0 105.237 14.0255 1476 59.3652 118.643 298.917
547 0 108.145 11.9747 1295 62.4015 119.182 296.297
548 1 55.0837 11.7095 645 61.7628 119.26 317.645
549 0 56.2349 13.3547 751 59.8695 118.992 316.168
550 0 59.0554 12.8693 760 59.9789 119.328 315.774
551 0 58.1089 13.0617 759 60.5863 119.104 314.369
552 0 63.0931 14.5499 918 57.8704 119.054 313.58
553 0 64.1385 13.0811 839 59.6103 119.044 313.859
554 0 66.0978 14.6752 970 58.1175 118.963 312.611
555 0 66.0439 12.2646 810 61.1889 118.944 312.269
556 0 69.1757 12.7646 883 60.2446 119.223 311.7
557 0 72.1676 12.8035 924 60.3106 119.239 308.978
558 0 71.1217 14.9462 1063 58.2926 118.849 309.987
559 0 74.1338 12.0188 891 61.9203 118.879 307.659
560 0 79.2597 13.0079 1031 59.4239 118.919 310.975
561 0 79.1235 14.0666 1113 58.8482 118.36 309.896
562 0 83.1253 12.9684 1078 60.2477 118.47 307.067
563 0 84.0433 12.9695 1090 61.4055 118.094 304.717
564 1 45.1174 11.193 505 63.6198 117.891 324.834
565 0 48.0682 12.3783 595 62.7866 118.111 322.709
566 0 50.041 12.7296 637 61.0675 117.738 324.942
567 0 49.0989 12.9331 635 63.222 117.82 321.713
568 0 54.0321 14.2878 772 60.4585 118.123 322.232
569 0 53.0514 13.2701 704 63.3324 117.712 319.849
570 0 54.0569 12.5054 676 64.9231 117.87 318.516
571 0 59.1086 13.3483 789 62.5856 118.503 319.97
572 0 57.0498 12.3927 707 65.4413 118.564 317.4
573 0 62.0487 15.0849 936 61.1538 118.187 316.584
574 0 61.1297 13.5941 831 64.0048 118.759 315.425
575 0 64.1579 13.4356 862 63.2401 118.833 317.814
576 0 65.1026 13.1024 853 64.5416 118.975 313.183
577 0 69.0479 15.1924 1049 60.7359 118.908 315.137
578 0 70.0671 13.0018 911 63.6575 118.71 305.596
579 0 73.1024 13.6111 995 62.3839 119.166 306.935
580 1 38.0912 12.4701 475 63.6779 118.92 321.291
581 0 39.0228 12.0699 471 64.2272 118.817 320.803
582 0 39.0183 11.5331 450 66.4 118.333 319.449
583 0 43.0474 12.3817 533 63.9869 118.345 321.034
584 0 43.0345 13.0128 560 65.1661 117.941 319.727
585 0 45.0864 11.6443 525 66.0571 117.72 321.299
586 0 45.0457 13.2532 597 65.5126 118.191 319.228
587 0 48.0853 12.6026 606 65.6584 118.517 320.078
588 0 47.0294 13.8424 651 65.8433 118.478 319.177
589 0 47.062 11.9204 561 69.0107 118.025 318.74
590 0 51.2068 12.7717 654 67.4266 118.757 316.829
591 0 54.0924 13.0517 706 66.5807 118.739 318.756
592 0 55.0522 12.5154 689 67.1495 118.723 319.27
593 0 57.0734 12.0371 687 67.9461 118.785 317.75
594 0 58.0484 13.6782 794 66.8212 118.759 316.3
595 0 60.091 12.8472 772 68.0518 118.516 313.876
596 0 63.0764 14.2843 901 65.3407 118.723 313.966
597 0 65.234 13.4133 875 66.1166 118.441 313.638
598 0 66.0397 14.6881 970 65.4825 118.635 310.311
599 0 67.0303 14.4114 966 65.4058 118.344 313.993
600 0 70.0424 15.6905 1099 63.253 118.631 312.771
601 0 75.1038 14.3535 1078 64.9898 119.18 310.625
602 0 75.0393 13.1664 988 66.6609 119.037 309.922
603 1 40.0569 8.38806 336 69.6994 118.875 328.72
604 0 41.0492 11.9369 490 67.8429 119.004 324.308
605 0 42.0247 11.6598 490 69.098 118.92 324.602
606 0 44.0177 12.4041 546 67.6575 119.174 323.617
607 0 48.0331 12.9494 622 66.1254 119.428 322.553
608 0 50.1637 13.6553 685 64.927 119.55 321.309
609 0 52.0313 16.836 876 60.7477 119.081 317.595
610 0 53.0429 12.8387 681 65.6652 119.485 321.758
611 0 53.0833 13.6201 723 66.1535 119.123 319.16
612 0 56.0737 13.4823 756 65.8585 119.44 319.771
613 0 57.045 13.3579 762 66.8215 119.442 317.713
614 0 53.0292 11.918 632 67.7326 117.856 262.028
615 0 62.1285 15.6772 974 62.4949 118.774 317.975
616 0 63.0676 12.8909 813 67.9114 118.415 314.977
617 0 65.1467 12.3721 806 68.6303 118.344 315.404
618 0 67.1273 13.9884 939 66.5729 118.475 312.872
619 0 68.0537 13.2395 901 67.7214 118.4 312.425
620 0 71.1126 12.656 900 68.3167 118.364 310.879
621 0 72.1296 15.1533 1093 65.2049 118.274 310.185
622 0 75.0638 14.6808 1102 65.5027 118.527 307.146
623 0 78.0555 12.7473 995 67.9397 118.355 306.869
624 0 82.0858 12.4626 1023 67.4516 118.382 307.27
625 0 84.1638 15.5411 1308 63.7248 118.067 305.22
626 1 44.0672 10.3932 458 70.738 118.216 322.221
627 0 47.1218 13.3272 628 65.0239 118.166 323.76
628 0 47.0306 14.0334 660 65.6682 118.323 320.788
629 0 49.0333 13.0728 641 66.234 118.649 321.142
630 0 51.0331 13.0896 668 66.8189 118.355 317.507
631 0 52.035 13.0297 678 66.2434 117.864 316.829
632 0 55.0239 12.7036 699 66.176 118.302 317.558
633 0 56.093 11.1957 628 67.8726 118.225 317.876
634 0 57.0451 12.3061 702 67.7877 118.437 315.335
635 0 60.0234 13.3448 801 65.578 118.692 315.624
636 0 65.1341 12.3438 804 66.1057 118.877 314.785
637 0 64.0708 13.6099 872 64.2122 118.477 315.248
638 0 66.0575 13.0341 861 65.8606 118.839 310.361
639 0 69.0615 11.4825 793 67.0025 118.562 312.628
640 0 71.0428 12.0491 856 66.4825 118.819 310.237
641 0 74.0765 14.3365 1062 63.2778 118.567 308.112
642 1 38.101 11.2595 429 63.5245 118.254 327.503
643 0 42.0458 11.7491 494 63.249 118.46 325.601
644 0 42.0264 13.0394 548 62.4051 118.106 321.903
645 0 43.0562 12.5882 542 62.4354 118.103 319.744
646 0 45.0511 12.4081 559 62.771 118.436 322.39
647 0 45.0715 11.6925 527 63.6546 118.391 323.281
648 0 46.0696 11.3741 524 64.5095 118.632 320.349
649 0 51.0109 14.3499 732 59.8784 118.079 320.149
650 0 52.1279 12.431 648 62.3596 118.12 320.028
651 0 54.0335 12.7884 691 62.4211 117.654 317.645
652 0 56.0704 12.1454 681 62.9838 117.8 317.637
653 0 58.0969 13.684 795 61.5321 117.66 315.55
654 0 59.0653 10.9878 649 64.6317 117.998 315.797
655 0 62.1707 12.3853 770 62.5623 118.466 314.968
656 0 63.1161 12.279 775 63.0735 118.188 314.697
657 0 67.2255 13.12 882 61.4705 118.11 313.983
658 0 68.1161 12.8604 876 62.0913 118.034 310.447
659 0 71.1736 12.7716 909 62.0605 117.718 308.124
660 0 74.1593 12.0282 892 62.639 117.618 309.6
661 0 75.0313 12.7947 960 62.6885 117.882 304.843
662 0 76.0499 13.2545 1008 61.7659 117.981 307.859
663 0 79.0509 11.9417 944 63.8591 118.57 304.54
664 1 42.0351 11.086 466 64.4678 117.886 324.3
665 0 46.0878 13.3224 614 60.4495 118.231 324.567
666 0 45.0419 11.789 531 64.1883 118.469 322.307
667 0 50.1222 13.507 677 61.2171 118.105 323.603
668 0 49.1478 12.6557 622 63.6624 117.995 320.875
669 0 50.0822 12.9587 649 63.7211 118.223 321.26
670 0 54.1664 13.957 756 61.4802 118.139 319.524
671 0 54.056 12.2836 664 64.3479 118.041 318.11
672 0 55.0952 10.9991 606 66.0479 118.01 318.464
673 0 58.0741 12.7596 741 64.1188 117.509 313.472
674 0 61.0862 12.6542 773 62.9845 117.624 318.925
675 0 63.0784 12.6668 799 62.97 117.433 314.672
676 0 63.1444 12.3843 782 63.9118 117.94 309.575
677 0 67.1264 15.7017 1054 59.5901 117.628 310.065
678 0 65.2092 13.265 865 63.7225 117.628 306.674
679 0 69.1505 13.044 902 63.918 118.222 307.088
680 0 71.0689 14.3382 1019 62.1472 118.265 305.926
681 0 71.0584 14.5514 1034 62.4952 118.041 304.383
682 0 77.1573 13.5567 1046 62.9293 118.057 303.059
683 0 78.119 14.4523 1129 61.9814 117.713 303.146
684 0 81.123 14.9649 1214 60.4629 117.329 305.298
685 0 83.0955 14.6097 1214 61.6474 117.551 301.17
686 0 87.1063 13.4204 1169 63.4337 117.762 296.298
687 0 89.1776 13.7927 1230 62.2976 117.893 298.072
688 1 48.0639 10.7149 515 67.9379 118.254 313.942
689 0 51.0635 14.5114 741 63.197 118.036 312.428
690 0 54.0477 12.896 697 64.5323 118.775 312.432
691 0 55.0564 13.4226 739 64.1908 118.221 311.793
692 0 54.0475 13.5621 733 65.2401 118.407 309.25
693 0 57.1058 13.5888 776 63.9691 118.175 310.251
694 0 60.1596 12.7162 765 64.7255 117.834 309.877
695 0 64.0659 13.2208 847 63.0307 118.392 309.443
696 0 64.1002 13.5257 867 63.5721 118.173 304.957
697 0 66.0753 13.8176 913 63.1785 118.118 306.072
698 0 69.0946 13.4019 926 62.933 118.247 305.519
699 0 70.1894 14.4039 1011 61.4659 119.134 305.621
700 0 71.1269 14.5374 1034 62.7766 118.468 299.941
701 0 76.2056 14.264 1087 61.9503 118.262 300.372
702 0 77.1001 14.319 1104 62.8922 119.128 299.629
703 0 80.0645 13.1519 1053 64.0294 118.935 299.613
704 1 44.0073 12.248 539 65.0186 118.75 316.26
705 0 44.0835 13.1795 581 65.7453 118.558 314.176
706 0 45.1593 13.1756 595 65.6471 119.294 314.437
707 0 47.1165 13.8593 653 64.9464 118.827 314.178
708 0 49.1443 12.6973 624 65.6058 117.987 313.848
709 0 51.0247 14.9731 764 63.4751 118.749 310.916
710 0 53.0894 13.9011 738 64.9634 118.344 310.57
711 0 53.0365 13.9715 741 64.166 118.572 308.916
712 0 55.0539 13.1507 724 64.2403 118.62 310.311
713 0 59.1083 14.7018 869 61.786 118.573 310.762
714 0 58.0599 12.4871 725 65.8497 118.668 308.23
715 0 60.058 12.9708 779 65.2028 119.393 308.234
716 0 63.095 14.7397 930 62.957 119.182 306.869
717 0 64.065 14.2043 910 64.0297 118.937 304.566
718 0 65.0528 13.881 903 64.6334 119.483 306.348
719 0 68.0173 15.8636 1079 61.6914 119.164 306.454
720 0 71.1433 15.6585 1114 61.6095 119.496 303.465
721 0 72.0819 13.8315 997 64.33 119.311 302.125
722 0 75.0649 13.7748 1034 64.3443 119.199 302.637
723 0 79.1289 13.8508 1096 63.823 118.787 303.246
724 0 81.1792 13.538 1099 63.8326 118.778 304.088
725 1 41.0601 10.9839 451 65.3259 118.395 321.47
726 0 40.0672 13.5023 541 65.7153 118.455 319.405
727 0 44.0812 14.5187 640 62.3687 118.873 322.198
728 0 43.0935 12.9486 558 66.095 118.398 319.328
729 0 46.0725 14.5857 672 63.9122 118.368 318.418
730 0 47.0933 14.7155 693 64.0952 118.137 318.255
731 0 48.0473 13.6948 658 66.0562 118.225 317.939
732 0 51.1727 15.0275 769 62.7035 118.792 320.105
733 0 50.0665 12.7231 637 67.3532 118.022 319.036
734 0 54.0917 14.4754 783 64.7995 117.835 317.618
735 0 55.0731 13.3459 735 66.9129 118.144 317.558
736 0 56.2296 14.2452 801 65.9151 118.598 317.886
737 0 59.1946 14.7986 876 64.4772 118.459 318.831
738 0 60.0807 12.5997 757 68.7437 118.143 316.008
739 0 62.1042 14.0409 872 66.2592 118.095 317.364
740 0 65.2534 14.9417 975 65.1333 117.988 317.883
741 0 65.1484 14.6435 954 66.1824 117.943 317.005
742 0 69.072 14.275 986 66.072 117.933 316.441
743 0 70.1796 13.6079 955 66.977 118.341 317.146
744 0 72.0652 13.3907 965 67.5523 118.312 316.767
745 0 76.3413 14.147 1080 66.6241 118.432 314.181
746 0 79.1312 14.3812 1138 66.2381 118.65 313.221
747 0 81.2404 12.383 1006 68.8459 118.635 312.884
748 0 84.1308 17.7105 1490 61.8725 119.374 314.248
749 0 87.0907 14.548 1267 66.2463 118.796 310.006
750 1 48.102 12.4943 601 66.3444 118.839 330.554
751 0 49.1376 11.7832 579 68.2573 118.618 329.705
752 0 53.2732 14.0596 749 63.4753 118.495 331.463
753 0 52.3242 12.1359 635 66.211 118.713 330.62
754 0 52.1076 12.8388 669 67.7324 118.426 326.448
755 0 55.2353 12.9989 718 65.6379 118.708 328.765
756 0 59.1728 12.793 757 65.5667 118.316 327.041
757 0 59.1266 14.5958 863 64.6222 118.586 324.557
758 0 60.1625 13.7295 826 65.7409 118.166 322.909
759 0 60.1394 11.7228 705 69.1688 118.525 321.962
760 0 64.2904 12.3969 797 67.2622 118.714 323.858
761 0 64.1371 14.0948 904 65.9546 118.72 323.646
762 0 70.2364 13.4403 944 66.1028 118.603 321.425
763 0 70.0515 13.2759 930 65.3677 118.902 321.187
764 0 73.2583 15.7934 1157 62.5039 118.838 320.037
765 0 73.3077 12.7545 935 66.6299 119.199 319.795
766 0 77.0673 13.0665 1007 66.6783 119.275 318.893
767 1 41.266 12.7708 527 65.3472 118.619 336.945
768 0 45.1367 12.5618 567 65.1587 118.802 337.363
769 0 45.1152 11.3265 511 67.7886 118.732 337.341
770 0 44.1663 11.2756 498 68.7349 118.153 336.297
771 0 48.1654 11.419 550 66.6818 118.293 339.558
772 0 49.1037 13.3391 655 66.4763 118.734 336.725
773 0 49.1874 12.1576 598 69.0485 119.005 336.288
774 0 51.123 11.5604 591 68.6514 118.827 338.932
775 0 52.038 12.2218 636 69.717 118.347 336.222
776 0 56.1503 11.9501 671 69.5007 117.797 337.227
777 0 57.0596 12.5658 717 68.6499 117.644 337.194
778 0 59.0506 12.447 735 69.4721 117.586 336.433
779 0 59.1251 12.0592 713 70.2959 117.987 336.551
780 0 63.1372 14.0963 890 67.5809 117.779 335.053
781 0 64.0275 12.604 807 69.9157 118.483 334.767
782 0 65.1078 12.1644 792 70.8169 118.467 332.785
783 0 69.0609 13.4374 928 69.2565 118.769 330.53
784 0 71.1178 12.8519 914 70.0821 118.736 331.475
785 0 74.2115 12.5587 932 70.0139 118.579 330.811
786 1 42.1259 11.3707 479 68.9311 118.95 343.804
787 0 44.0297 11.4922 506 68.581 118.858 346.012
788 0 45.1369 12.2516 553 69.047 118.888 342.309
789 0 46.0991 10.9763 506 70.8142 118.719 342.132
790 0 48.1175 10.9108 525 70.7257 118.787 340.354
791 0 51.1071 12.1901 623 67.6083 118.567 340.791
792 0 51.0959 12.6038 644 67.3059 118.742 339.707
793 0 55.1166 12.2105 673 67.5082 118.988 338.795
794 0 57.079 11.7206 669 67.7668 119.145 338.045
795 0 56.1212 10.8693 610 69.4934 119.111 336.675
796 0 60.1165 13.923 837 64.8746 119.088 334.147
797 0 61.1557 13.0487 798 66.1779 119.024 331.733
798 0 63.1012 12.583 794 66.4748 118.252 331.349
799 0 65.1036 12.5492 817 65.5961 118.251 332.976
800 0 68.1387 11.6967 797 66.6913 118.728 330.439
801 0 71.0476 13.6247 968 64.0764 118.479 329.215
802 0 71.0934 12.1108 861 66.4495 118.958 327.699
803 0 75.0915 10.7602 808 66.9356 119.08 330.123
804 1 41.1035 10.6074 436 64.1835 119.679 345.023
805 0 42.0438 11.9637 503 63.674 119.151 343.187
806 0 44.0282 10.9248 481 64.21 119.052 344.944
807 0 46.1264 11.3818 525 63.6971 119.128 342.589
808 0 44.0924 10.5233 464 66.1056 119.31 342.45
809 0 49.076 11.6146 570 63.9298 118.747 341.047
810 0 49.1946 12.542 617 63.2804 119.306 340.05
811 0 49.0895 11.6929 574 65.2125 119.894 340.821
812 0 53.0252 12.8618 682 63.0191 119.566 338.754
813 0 54.0737 12.409 671 63.8972 119.824 336.04
814 0 57.0546 13.7588 785 61.1529 119.302 337.659
815 0 59.1309 12.5146 740 62.3932 119.136 335.793
816 0 61.1274 13.5782 830 61.5108 119.314 334.493
817 0 60.2065 11.8426 713 63.5035 119.941 335.177
818 0 63.2536 13.0585 826 61.8596 119.884 335.12
819 0 65.06 13.3723 870 61.6172 119.545 332.408
820 0 67.1159 13.3649 897 61.7425 119.517 330.492
821 0 69.1191 12.587 870 62.2299 119.575 331.831
822 0 73.3003 12.974 951 61.959 119.642 330.088
823 1 37.1637 9.63305 358 62.8045 119.506 347.031
824 0 42.0449 11.1072 467 59.9036 119.717 347.48
825 0 42.0957 11.3313 477 60.7987 119.698 345.811
826 0 41.051 11.0107 452 63.0199 119.812 345.097
827 0 46.072 12.6541 583 60.048 119.501 344.568
828 0 47.0633 11.7714 554 61.4856 119.022 342.509
829 0 47.0696 12.4709 587 61.4123 119.327 341.487
830 0 50.1028 12.8935 646 60.3824 119.712 341.695
831 0 52.0462 11.4514 596 61.2752 119.815 340.923
832 0 53.0983 12.9006 685 60.235 119.964 341.762
833 0 53.1084 11.0152 585 63.0359 119.926 339.564
834 0 53.1159 9.65812 513 65.3236 119.639 339.041
835 0 56.1025 12.1028 679 62.215 119.716 337.826
836 0 58.1571 13.2228 769 60.87 119.713 335.501
837 0 62.1119 11.9945 745 61.4349 119.815 334.74
838 0 64.1407 13.6419 875 59.7189 119.496 333.409
839 0 65.1809 11.9513 779 62.0719 119.436 331.838
840 0 67.0825 12.1939 818 61.7139 119.41 332.303
841 0 68.176 12.9664 884 61.1708 119.267 330.471
842 0 73.0773 14.3683 1050 60.1962 119.685 326.845
843 0 75.1044 13.7009 1029 61.0573 119.481 325.797
844 0 76.2629 11.8275 902 63.4634 119.333 326.062
845 1 37.0475 8.42161 312 64.9647 120.212 346.285
846 0 40.1477 11.5075 462 62.3636 119.827 343.701
847 0 44.0748 11.4124 503 62.0557 119.817 343.696
848 0 44.1382 14.364 634 59.3265 119.519 342.12
849 0 46.0694 11.7866 543 62.1436 118.888 342.074
850 0 48.1389 12.734 613 61.3524 119.511 339.698
851 0 46.0844 11.9997 553 63.6112 119.302 339.014
852 0 51.117 12.2855 628 62.5 119.194 338.073
853 0 51.0988 13.3271 681 61.5184 119.122 337.382
854 0 54.0458 13.1555 711 60.744 119.241 337.173
855 0 55.0741 12.2562 675 62.5259 119.194 334.298
856 0 58.1093 13.4402 781 60.822 118.624 329.53
857 0 56.1167 13.4719 756 61.6548 118.485 320.831
858 0 60.2019 13.0893 788 61.4391 118.499 318.279
859 0 62.1612 13.8189 859 60.2468 118.813 319.127
860 0 64.1583 14.3551 921 59.9359 119.481 314.721
861 0 65.0382 12.5157 814 61.8575 118.467 314.909
862 0 68.1097 14.1977 967 60.4933 118.499 311.328
863 0 71.0916 13.0536 928 61.6196 118.339 309.703
864 0 70.1456 11.3193 794 64.0957 118.283 310.223
865 1 35.0722 8.04056 282 66.3972 119.131 326.34
866 0 37.0286 11.2886 418 63.4402 118.584 324.292
867 0 43.0753 13.3023 573 59.7731 118.347 325.551
868 0 45.0782 13.7539 620 59.3048 118.292 323.852
869 0 44.0232 11.2895 497 62.1972 119.147 324.404
870 0 49.186 12.0563 593 61.027 119.152 324.145
871 0 48.1165 11.8878 572 62.0017 119.154 322.981
872 0 50.0894 11.4396 573 62.6702 119.354 321.466
873 0 50.1061 11.775 590 61.5915 119.468 323.364
874 0 52.1169 12.165 634 62.4558 119.2 319.134
875 0 55.1142 13.6988 755 59.7351 118.865 321.317
876 0 55.0632 12.295 677 61.9985 118.976 320.566
877 0 59.1136 14.5652 861 59.1382 119.423 318.028
878 0 62.0757 12.6136 783 61.1648 119.332 318.534
879 0 63.0925 14.9463 943 58.6914 119.255 318.166
880 0 66.1246 14.3214 947 59.5111 119.516 315.247
881 0 68.1122 13.1548 896 60.808 119.41 316.066
882 0 69.0597 13.6114 940 61.0053 119.438 313.467
883 0 69.0404 14.1656 978 61.0164 119.425 311.47
884 0 70.1274 12.3917 869 63.4085 119.25 310.677
885 0 73.1042 13.8159 1010 61.4307 119.577 311.007
886 0 77.0862 13.4784 1039 61.05 118.983 310.194
887 1 41.0905 11.2435 462 63.0519 119.284 326.446
888 0 43.2465 11.2148 485 62.3546 118.977 326.252
889 0 44.1961 11.7884 521 63.5835 118.727 324.086
890 0 46.0733 11.2864 520 63.3231 118.385 325.288
891 0 47.0792 11.64 548 63.8157 118.839 323.495
892 0 48.0325 11.6171 558 63.4552 117.941 322.64
893 0 49.0228 12.28 602 64.1013 118.327 318.287
894 0 52.1751 11.6914 610 64.123 118.305 320.944
895 0 56.1544 11.9848 673 63.7533 118.355 318.71
896 0 57.1172 13.5511 774 61.9289 118.052 318.685
897 0 58.1839 12.512 728 63.8846 118.552 316.095
898 0 61.033 13.3043 812 62.2401 118.389 316.516
899 0 63.0501 14.3378 904 61.5642 118.413 313.61
900 0 64.1098 14.5532 933 59.7535 118.058 319.27
901 0 67.0839 12.9539 869 62.4833 118.768 316.204
902 0 69.1107 12.8924 891 62.2435 118.467 316.872
903 0 73.1322 13.2773 971 62.6262 118.421 313.62
904 0 74.1463 14.8086 1098 60.9536 118.199 313.124
905 0 78.054 14.3362 1119 61.2154 118.578 310.356
906 1 41.1028 11.7997 485 62.4289 118.375 328.188
907 0 41.1024 11.3132 465 63.9355 118.325 328.654
908 0 42.012 12.425 522 63.9349 118.46 326.027
909 0 45.0968 15.2117 686 59.1341 118.864 328.656
910 0 42.1207 12.6066 531 65.3352 118.584 324.872
911 0 48.0539 14.6294 703 60.6885 118.495 325.91
912 0 48.0647 12.7328 612 64.5082 118.763 323.312
913 0 51.0768 14.8991 761 60.0092 119.246 325.428
914 0 51.0621 12.3575 631 64.8384 118.51 321.899
915 0 53.078 13.2447 703 63.4424 118.175 321.199
916 0 55.0582 12.6593 697 64.2869 118.044 320.277
917 0 57.0603 14.1429 807 62.715 117.509 318.622
918 0 56.07 11.4143 640 65.9625 117.983 318.903
919 0 61.1776 11.5402 706 64.9448 118.494 317.786
920 0 60.1123 12.6763 762 64.748 118.361 315.412
921 0 62.1599 13.594 845 63.5207 118.742 316.304
922 0 66.1008 15.552 1028 60.1839 118.764 314.659
923 0 68.0651 13.634 928 62.5679 118.957 313.289
924 0 71.1118 13.3592 950 62.9832 119.033 312.866
925 1 37.0366 11.1241 412 65.8155 118.791 326.803
926 0 40.0221 12.0933 484 62.3843 119.095 329.457
927 0 41.1018 11.873 488 63.6025 119.201 327.928
928 0 44.0283 13.1733 580 62.4362 119.109 327.541
929 0 45.1405 12.9152 583 63.3945 118.727 324.858
930 0 47.1512 12.8947 608 63.0115 119.025 325.671
931 0 49.0793 13.2642 651 62.6406 118.504 323.96
932 0 51.0426 12.95 661 62.7337 117.643 322.507
933 0 52.0625 13.2149 688 63.1047 117.746 321.382
934 0 54.0522 13.2465 716 62.9455 117.823 321.518
935 0 57.1531 13.2626 758 63.2005 118.123 319.826
936 0 60.055 16.335 981 58.476 118.492 322.762
937 0 59.0455 14.04 829 62.3052 117.879 319.758
938 0 60.3132 12.3024 742 64.4919 117.91 319.41
939 0 63.0956 13.2497 836 62.9306 118.197 318.37
940 0 62.0888 12.2566 761 65.1012 118.385 316.76
941 0 67.1916 13.3052 894 63.094 117.987 314.558
942 0 70.0556 12.7756 895 63.924 117.745 313.875
943 0 71.0618 13.3405 948 63.5527 118.229 313.407
944 0 75.1146 13.7523 1033 63.1917 118.174 312.628
945 1 41.0202 12.7498 523 63.8853 117.738 329.31
946 0 41.0926 12.3623 508 65.4567 117.689 329.315
947 0 43.0907 13.019 561 65.6168 117.34 327.492
948 0 44.097 14.264 629 64.0652 117.677 326.827
949 0 46.0966 13.3849 617 65.0956 117.968 326.256
950 0 47.0123 14.6345 688 63.7224 117.997 326.054
951 0 51.1173 14.3004 731 63.777 117.324 324.112
952 0 51.227 13.4695 690 65.6449 117.462 323.31
953 0 53.2241 13.058 695 65.6058 117.846 324.876
954 0 56.1794 12.5135 703 66.3713 117.809 324.297
955 0 55.0238 14.1393 778 64.6067 117.208 323.213
956 0 58.061 15.1048 877 62.7777 117.91 320.54
957 0 61.0735 15.0966 922 62.8666 117.654 321.269
