time division length width area intensity CMx CMy
0 0 62.1144 9.88499 614 63.7427 1180.46 451.658
1 0 66.0222 11.0872 732 61.8265 1180.68 451.131
2 0 67.0405 11.8436 794 60.806 1181.12 451.28
3 0 67.0686 9.72138 652 63.5905 1181.27 450.827
4 0 70.1723 11.5003 807 61.5316 1181.12 448.067
5 0 72.0535 9.95093 717 62.6123 1181.37 451.071
6 0 75.1569 11.6024 872 61.2592 1181.23 448.575
7 0 78.0433 11.0323 861 61.2009 1180.29 449.876
8 0 82.017 11.266 924 60.8019 1180.58 447.491
9 0 82.0608 12.113 994 60.7254 1180.37 444.999
10 0 84.078 12.6549 1064 60.2481 1179.4 442.589
11 0 86.0653 10.3875 894 63.3456 1178.98 442.996
12 0 89.0863 11.4496 1020 62.2412 1179.15 440.633
13 1 45.0796 8.34079 376 64.0532 1179.44 463.524
14 0 48.09 11.0002 529 61.673 1179.36 460.117
15 0 50.0263 10.4145 521 61.9463 1178.96 462.509
16 0 51.0661 9.4975 485 63.4763 1178.79 458.938
17 0 54.0225 11.8469 640 60.325 1179.15 459.573
18 0 55.17 11.6368 642 60.5031 1178.89 457.735
19 0 56.0412 11.4915 644 60.9425 1179.18 457.856
20 0 59.0403 11.5176 680 60.9676 1179.63 457
21 0 61.0512 13.1201 801 58.628 1179.99 457.381
22 0 62.0396 10.9607 680 61.6735 1179.52 453.537
23 0 66.0863 14.5265 960 57.6208 1179.15 452.288
24 0 64.0191 11.4185 731 61.0246 1179.23 454.49
25 0 65.1112 10.5972 690 62.8014 1179.54 451.364
26 0 69.1473 9.51592 658 63.4894 1179.39 450.59
27 0 71.0435 12.5979 895 60.0436 1178.73 449.63
28 0 72.0854 8.91998 643 64.521 1178.64 449.047
29 0 75.0596 12.3102 924 60.6353 1179.07 446.917
30 0 79.0875 12.3534 977 59.8321 1178.42 450.024
31 0 81.0826 11.0011 892 61.9933 1178.44 446.759
32 1 45.049 10.2333 461 60.3991 1177.84 464.607
33 0 48.0441 9.82431 472 60.8411 1178.33 462.197
34 0 47.0207 8.31548 391 62.6343 1178.72 463.639
35 0 49.0466 10.0925 495 61.5414 1178.56 459.665
36 0 52.1353 12.2949 641 59.7582 1179.09 460.073
37 0 53.0228 11.7119 621 60.1546 1178.92 460.643
38 0 52.0573 10.5653 550 62.9564 1178.72 455.464
39 0 56.0321 11.8147 662 60.6208 1178.78 457.68
40 0 57.1024 10.6826 610 62.5672 1178.54 455.052
41 0 60.0325 10.7275 644 62.1988 1178.85 456.62
42 0 63.1085 12.2804 775 60.2865 1179.06 453.706
43 0 62.0328 9.65619 599 64.4775 1178.88 452.721
44 0 63.024 10.1231 638 63.9749 1178.72 453.174
45 0 67.0706 11.063 742 62.4879 1178.52 449.425
46 0 69.1416 11.6572 806 62.1625 1178.45 449.986
47 0 73.1061 12.6255 923 59.6425 1178.2 453.538
48 0 72.0666 12.8631 927 60.384 1178.13 451.42
49 0 74.0586 10.8293 802 63.303 1177.81 447.097
50 0 77.0304 12.4886 962 61.2048 1177.69 446.508
51 0 81.1205 11.7603 954 61.8239 1178.15 446.165
52 0 82.1168 10.5094 863 62.8806 1177.29 445.975
53 0 86.0665 9.96903 858 64.2657 1178 443.993
54 0 86.0508 10.3195 888 64.1779 1177.83 442.602
55 0 93.212 12.8846 1201 60.2215 1177.7 441.134
56 0 95.1039 12.439 1183 61.2959 1177.7 436.974
57 1 48.0227 10.3076 495 62.8283 1177.87 459.897
58 0 52.0303 9.95573 518 62.1062 1177.98 461.145
59 0 54.0755 11.3175 612 60.4248 1177.23 459.204
60 0 55.0304 10.5941 583 61.9605 1177.84 459.218
61 0 57.0551 13.1802 752 58.9309 1177.41 456.814
62 0 57.0433 11.6052 662 60.6662 1177.31 458.935
63 0 58.0719 11.6752 678 61.5546 1177.26 457.437
64 0 59.0527 10.6176 627 62.8884 1177.72 456.018
65 0 62.1532 11.89 739 60.9188 1177.5 456.747
66 0 63.0948 12.0612 761 61.0512 1177.49 455.464
67 0 66.0746 10.7454 710 61.907 1176.96 454.718
68 0 69.2147 13.3209 922 58.8785 1176.32 452.797
69 0 69.1773 11.5645 800 61.1063 1177.55 453.429
70 0 73.1249 12.5949 921 60.2682 1177.4 450.91
71 0 74.0609 12.4357 921 60.6254 1177.32 447.861
72 0 75.0707 13.2142 992 59.8065 1177.14 448.403
73 0 77.1166 12.3709 954 61.0241 1177.53 444.742
74 0 81.1055 12.3543 1002 60.4381 1177.66 448.673
75 0 80.0954 10.0006 801 64.2659 1178.42 446.607
76 0 84.0858 12.844 1080 60.7037 1177.22 445.034
77 0 87.1325 12.5097 1090 61.1697 1176.96 442.521
78 0 89.1017 11.7618 1048 62.4723 1176.83 441.918
79 0 89.1017 11.7731 1049 139.154 1176.82 441.919
80 0 95.1187 12.2689 1167 62.2879 1177.71 437.301
81 0 100.103 13.4162 1343 60.3448 1178.2 440.155
82 0 102.081 13.0092 1328 62.0286 1178.29 436.259
83 0 104.125 12.5234 1304 62.9678 1178.02 433.722
84 0 106.148 12.3884 1315 63.4426 1177.56 432.546
85 0 111.048 11.8057 1311 63.8322 1177.52 430.947
86 1 59.0353 11.7726 695 62.4532 1178.21 457.891
87 0 59.0525 12.599 744 62.4059 1177.69 457.341
88 0 61.0807 11.7386 717 62.5955 1177.31 457.109
89 0 62.1994 11.3184 704 63.8509 1177.78 456.686
90 0 64.0452 10.5238 674 64.8902 1177.62 454.325
91 0 69.0371 12.4715 861 61.8595 1177.93 454.894
92 0 69.1413 10.4279 721 64.8044 1178.06 452.383
93 0 71.0254 11.4325 812 63.3781 1178.17 452.115
94 0 71.0811 11.4095 811 63.9162 1178.27 450.441
95 0 76.0447 10.507 799 63.6871 1178.11 452.931
96 0 78.1098 12.9689 1013 61.2389 1178.02 446.361
97 0 81.0768 12.9137 1047 60.9589 1178.08 448.602
98 0 83.071 13.7714 1144 59.8103 1178.15 448.059
99 0 85.1343 12.4274 1058 61.2864 1177.68 445.74
100 0 87.1791 10.5415 919 63.7334 1178.07 445.46
101 1 46.0195 10.2348 471 61.4119 1178.06 464.454
102 0 46.0508 9.94555 458 62.1659 1177.82 464.061
103 0 48.0281 12.1804 585 59.0991 1177.99 465.509
104 0 48.1242 10.8885 524 62.4656 1178.02 460.952
105 0 50.1392 11.9667 600 60.4217 1177.54 461.955
106 0 52.0497 12.5841 655 59.5908 1177.11 461.4
107 0 53.0519 10.8008 573 62.6963 1177.22 460.024
108 0 54.0377 11.9546 646 60.3003 1177.5 461.76
109 0 57.0615 12.3376 704 60.1335 1177.8 460.114
110 0 58.0464 12.3694 718 60.8816 1178.02 458.801
111 0 60.0833 10.3689 623 62.6661 1178.22 460.213
112 0 61.0453 11.1393 680 62.3603 1177.38 456.784
113 0 64.0685 11.597 743 61.5585 1177.35 455.956
114 0 65.1118 11.5033 749 61.5928 1177.19 456.347
115 0 64.1049 9.60925 616 64.3734 1177.32 456.469
116 0 70.1075 13.1227 920 59.5239 1177.51 453.504
117 0 69.0476 10.4421 721 63.7018 1177.69 452.836
118 0 74.2179 12.0591 895 61.057 1177.82 452.914
119 0 74.182 11.8358 878 61.5273 1177.43 451.448
120 0 74.0751 10.0979 748 63.6243 1177.78 451.817
121 0 78.0739 10.5797 826 62.5654 1177.79 451.531
122 0 81.0935 11.6779 947 61.4995 1177.28 447.748
123 0 83.0685 10.6539 885 61.8655 1177.77 450.31
124 1 43.0274 11.2719 485 59.3835 1178.23 467.649
125 0 45.0269 11.8152 532 59.3008 1178.3 466.338
126 0 47.0636 11.6013 546 59.859 1177.9 464.233
127 0 47.0421 14.3488 675 57.1467 1177.08 464.006
128 0 48.0168 12.4956 600 58.9583 1177.32 463.427
129 0 50.1521 12.1431 609 58.4696 1177.05 464.023
130 0 52.0872 12.6135 657 58.9072 1177.06 461.659
131 0 53.0605 11.0251 585 60.5538 1177.13 462.561
132 0 54.1044 12.3465 668 59.012 1177.58 460.501
133 0 55.0586 12.7864 704 59.2045 1177.79 458.045
134 0 55.0246 12.3763 681 59.5844 1177.5 460.176
135 0 58.0463 10.75 624 60.8365 1177.78 460.433
136 0 57.056 12.6542 722 59.4861 1177.63 459.247
137 0 59.0481 10.991 649 61.1649 1176.81 459.274
138 0 61.0696 13.3127 813 58.754 1177.51 456.438
139 0 62.2685 9.97294 621 62.6184 1177.11 455.952
140 0 64.0215 12.2147 782 59.7916 1176.23 454
141 0 67.0459 13.0657 876 58.6712 1176.74 454.25
142 0 67.0747 11.3157 759 60.8195 1176.84 452.722
143 0 69.1232 11.8484 819 60.3516 1176.5 450.888
144 0 71.1029 12.5171 890 59.0303 1176.87 450.778
145 0 75.0817 11.4808 862 60.5023 1178.11 449.816
146 0 76.0528 14.0955 1072 57.389 1178.63 450.024
147 0 77.2525 11.9608 924 60.1299 1178.35 447.818
148 0 81.2353 12.2361 994 59.7143 1178.07 445.017
149 0 84.133 11.8978 1001 60.2687 1177.72 445.355
150 0 86.0577 13.0959 1127 59.1482 1177.5 442.006
151 0 87.0694 11.3128 985 61.2944 1177.68 441.835
152 0 90.1014 10.5659 952 61.9989 1178.04 442.939
153 0 92.0908 11.5321 1062 61.4256 1177.91 438.685
154 0 94.174 11.5637 1089 61.3783 1177.64 436.516
155 0 101.139 13.2392 1339 58.6744 1177.8 438.122
156 0 104.072 12.3569 1286 59.8779 1178.17 435.782
157 0 105.135 12.4316 1307 60.6251 1178.25 431.186
158 0 109.132 11.3257 1236 61.5663 1178.21 435.13
159 0 111.118 11.7083 1301 61.6426 1178.11 431.593
160 0 116.08 12.0606 1400 60.9643 1177.11 427.406
161 0 119.212 12.2639 1462 60.6553 1176.73 426.307
162 0 122.102 13.8245 1688 59.3525 1177.33 423.086
163 0 126.116 12.1079 1527 61.6614 1177.05 419.621
164 1 60.0666 10.8546 652 61.1825 1177.23 454.483
165 0 64.1295 9.83947 631 61.2377 1176.54 456.621
166 0 64.1127 12.1037 776 59.6959 1176.61 453.557
167 0 65.0907 10.1243 659 62.041 1177.34 454.833
168 0 69.1066 11.3159 782 60.5 1177.35 453.939
169 0 70.0813 10.816 758 61.6385 1177.6 452.296
170 0 74.0366 12.6829 939 59.4515 1177.58 449.05
171 0 77.1768 12.3224 951 59.2702 1177.57 450.785
172 0 80.2075 11.969 960 59.5052 1176.88 450.327
173 0 80.1478 10.3184 827 61.5865 1176.55 448.17
174 0 85.1596 11.7309 999 60.2392 1176.87 445.197
175 0 88.0591 11.1402 981 60.9246 1176.83 444.631
176 0 93.1222 14.1642 1319 57.2108 1177.77 443.182
177 1 41.0308 11.7716 483 58.7143 1177.94 466.692
178 0 42.0389 10.7282 451 60.4235 1177.84 465.071
179 0 42.0262 9.87479 415 61.3518 1177.66 466.446
180 0 45.0633 11.0733 499 60.6253 1176.87 463.269
181 0 47.0354 11.5232 542 59.6199 1177.42 464.577
182 0 48.0621 12.4214 597 59.2747 1177.52 463.168
183 0 50.1079 11.6349 583 60.4082 1177.94 462.4
184 0 49.0645 12.7791 627 60.1276 1177.34 460.04
185 0 50.1262 11.3713 570 61.1035 1177.24 462.156
186 0 53.0615 12.0426 639 60.7872 1176.97 459.546
187 0 55.0673 13.0749 720 59.2417 1177.3 458.913
188 0 57.053 10.9197 623 61.6998 1177.55 459.096
189 0 57.1058 11.8377 676 61.2559 1177.67 457.623
190 0 59.1597 11.9 704 60.8835 1177.47 457.432
191 0 59.0579 11.1078 656 62.4345 1177.49 455.271
192 0 62.0584 12.8589 798 59.401 1177.5 456.516
193 0 64.0598 11.9576 766 60.7441 1177.57 453.709
194 0 67.1121 12.8144 860 59.5128 1177.97 453.992
195 0 68.041 12.566 855 59.7661 1177.75 453.253
196 0 70.0804 13.1706 923 59.1636 1178.03 452.724
197 0 73.0874 11.0553 808 61.4208 1178.22 451.729
198 0 74.1067 12.1312 899 60.1858 1177.91 451.496
199 1 39.0344 11.6052 453 59.7461 1178.03 465.565
200 0 39.0489 11.9082 465 59.3957 1177.46 467.613
201 0 41.0648 12.809 526 58.6217 1177.02 465.738
202 0 41.129 11.5004 473 60.5095 1177.12 465.148
203 0 44.0309 12.2187 538 59.448 1177.42 463.649
204 0 46.1773 11.1094 513 61.0819 1177.7 462.76
205 0 44.0806 10.6169 468 62.2222 1177.3 460.532
206 0 47.036 11.6081 546 60.9066 1177.99 461.599
207 0 48.1456 10.676 514 60.5253 1178.13 462.304
208 0 51.0838 11.4909 587 58.8807 1177.45 460.06
209 0 51.0517 11.6548 595 58.6286 1177.33 461.027
210 0 54.0494 10.6939 578 60.0052 1177.16 458.128
211 0 54.0531 11.5257 623 59.0835 1177.72 459.587
212 0 57.0856 10.7383 613 60.0163 1177.76 457.292
213 0 60.0229 11.4456 687 58.8734 1177.83 456.348
214 0 59.0413 10.9415 646 59.7399 1177.75 453.599
215 0 63.0844 11.3182 714 58.1947 1177.77 456.196
216 0 63.1601 11.9537 755 58.551 1177.59 454.546
217 0 65.0769 11.448 745 58.5544 1176.85 453.703
218 0 68.0703 10.7683 733 59.3533 1177.05 453.468
219 0 68.113 10.0568 685 60.0088 1177.12 450.634
220 0 71.0784 11.4099 811 58.5869 1177.19 449.751
221 0 72.0355 12.1051 872 58.1594 1176.44 445.658
222 0 75.0427 12.0598 905 58.1536 1177.11 446.713
223 0 78.0914 11.9604 934 58.2345 1176.65 445.231
224 0 80.1356 10.5696 847 59.6068 1176.19 439.74
225 1 42.0697 10.5539 444 58.0586 1176.44 462.063
226 0 43.1392 11.5904 500 57.464 1177.11 463.79
227 0 45.017 10.5738 476 57.3613 1177.34 464.821
228 0 45.0387 11.6566 525 57.8362 1177.05 460.059
229 0 46.0668 11.7004 539 57.6456 1177.72 461.913
230 0 46.0707 10.5924 488 59.75 1177.9 459.756
231 0 48.0809 11.4806 552 58.4221 1177.76 458.877
232 0 49.0692 11.3717 558 58.6631 1177.62 459.539
233 0 49.0356 10.1967 500 60.092 1177.26 460.256
234 0 54.111 11.8091 639 57.6463 1177.54 457.87
235 0 55.0786 13.7258 756 56.0926 1177.9 456.259
236 0 55.0553 11.6973 644 58.3944 1177.42 457.688
237 0 56.0546 9.95458 558 60.1254 1177.06 459.005
238 0 56.0423 13.0972 734 57.6226 1177.08 455.331
239 0 55.1659 9.82492 542 61.6956 1176.79 456.009
240 0 59.082 11.9664 707 59.2419 1176.84 455.117
241 0 60.0763 11.269 677 60.1787 1177.02 452.601
242 0 60.038 11.7592 706 59.7139 1176.93 453.472
243 0 64.0323 13.3526 855 58.1193 1176.41 451.414
244 0 65.1148 10.3049 671 60.8033 1176.3 454.057
245 0 68.0835 11.4859 782 59.3146 1176.08 455.324
246 0 69.0273 12.9659 895 59.0335 1176.18 449.43
247 0 72.1044 11.5111 830 60.1614 1176.26 450.44
248 0 73.0944 12.4633 911 59.9638 1175.95 449.398
249 0 73.0897 12.1631 889 60.6794 1176.11 446.72
250 0 78.1039 11.9328 932 60.8412 1176.53 445.768
251 0 80.1699 11.1264 892 62.0717 1176.72 446.168
252 0 84.0599 12.1461 1021 61.2723 1176.99 445.074
253 0 83.1449 11.9791 996 61.5432 1177.27 446.252
254 0 88.1569 11.1392 982 62.5214 1176.66 443.771
255 0 91.1635 12.3185 1123 61.244 1176.29 443.05
256 0 93.0567 11.5199 1072 62.2136 1176.32 442.979
257 0 97.1577 10.3234 1003 63.5274 1175.81 442.927
258 0 100.185 13.1557 1318 60.9454 1176.68 439.359
259 0 105.135 13.4875 1418 60.3575 1176.93 440.202
260 1 61.1241 11.3867 696 63.4741 1176.89 457.399
261 0 62.1222 12.1213 753 62.6813 1176.97 456.675
262 0 64.0394 13.3355 854 61.4801 1176.71 455.684
263 0 67.0265 11.5477 774 63.0904 1176.81 456.482
264 0 65.0591 11.6663 759 64.3794 1175.61 452.609
265 0 69.085 13.4762 931 62.0451 1176.14 454.557
266 0 70.167 12.6555 888 63.1903 1176.63 452.378
267 0 70.0279 11.3812 797 65.6813 1176.13 450.563
268 0 75.1383 12.0578 906 63.9691 1175.7 452.418
269 0 79.2112 11.9175 944 64.5222 1176.49 450.41
270 0 77.0716 12.8711 992 64.371 1176.83 450.857
271 0 80.0783 12.0257 963 65.8505 1176.78 447.306
272 0 83.1375 13.7363 1142 63.4834 1176.76 446.952
273 0 85.1112 13.3472 1136 64.184 1176.46 445.53
274 0 87.1831 12.0436 1050 66.1533 1176.57 444.887
275 0 89.1192 13.5998 1212 64.7913 1176.49 443.794
276 0 90.1294 11.2838 1017 67.9164 1176.46 443.484
277 0 93.0977 11.3537 1057 67.9177 1176.86 442.962
278 0 100.104 12.6968 1271 66.5696 1176.22 440.235
279 0 98.0925 11.6217 1140 68.836 1175.98 438.733
280 0 102.128 13.9727 1427 66.0624 1176.19 437.275
281 0 108.113 12.2927 1329 67.526 1176.05 440.516
282 0 109.209 13.1765 1439 67.7769 1175.85 434.66
283 0 111.091 15.7979 1755 64.6222 1175.28 432.642
284 0 114.17 14.0142 1600 67.5469 1174.88 432.001
285 0 117.199 12.995 1523 69.6244 1174.7 430.323
286 1 57.0444 9.71173 554 72.0199 1175.11 460.664
287 0 60.0322 10.7609 646 70.5108 1175.68 459.698
288 0 63.0509 10.5153 663 71.0407 1176.4 460.181
289 0 64.0511 13.6141 872 68.2523 1176.26 455.852
290 0 66.0421 11.3867 752 70.4574 1176.5 458.717
291 0 64.0534 12.0837 774 71.4044 1176.36 456.562
292 0 69.0809 12.1452 839 71.6615 1176.51 454.446
293 0 70.111 11.5959 813 72.3001 1176.27 454.977
294 0 71.0786 11.438 813 72.0959 1176.34 457.438
295 0 72.1177 11.19 807 73.3866 1176.63 453.198
296 0 76.0286 12.4427 946 71.0296 1176.25 453.067
297 0 78.0885 11.7687 919 72.7356 1176.49 449.578
298 0 80.0553 11.8793 951 73.408 1176.94 447.169
299 0 82.1034 12.5452 1030 72.4039 1177.11 448.294
300 0 87.1178 12.7184 1108 71.4865 1176.57 447.873
301 0 88.1668 12.2949 1084 72.9391 1177.11 446.185
302 0 90.0892 12.421 1119 73.1626 1176.61 444.215
303 0 93.1285 11.5217 1073 74.0447 1176.31 445.156
304 0 97.0764 12.8662 1249 72.6245 1176.46 443.235
305 0 99.0881 11.7169 1161 74.5401 1176.06 441.124
306 0 100.113 11.2373 1125 75.88 1176.51 439.459
307 0 103.085 12.9408 1334 73.8081 1176.53 438.971
308 0 108.176 12.4057 1342 74.1364 1176.78 439.501
309 0 110.21 12.0951 1333 75.096 1176.61 436.833
310 0 111.094 11.2608 1251 77.2822 1175.54 433.731
311 0 115.114 13.2304 1523 74.7827 1176.43 430.223
312 0 121.135 13.0681 1583 74.2211 1176.35 432.299
313 0 120.128 12.0039 1442 77.0305 1176.15 427.94
314 0 123.135 11.9219 1468 76.3794 1175.93 431.315
315 1 61.0288 11.1587 681 74.1865 1176.29 462.388
316 0 62.0492 12.7963 794 72.7229 1176 458.14
317 0 63.0286 11.0109 694 75.3674 1175.8 457.024
318 0 64.0331 12.2749 786 73.5076 1175.83 455.919
319 0 65.2195 11.883 775 73.7535 1175.74 456.332
320 0 66.0252 12.0409 795 74.444 1175.7 452.508
321 0 69.08 12.1453 839 73.2205 1175.77 454.998
322 0 71.0697 11.1299 791 73.885 1176.42 455.657
323 0 73.1255 12.9914 950 72.06 1175.58 451.056
324 0 74.0794 12.8376 951 71.5047 1175.36 452.223
325 0 78.1317 12.4789 975 72.0349 1175.7 449.997
326 0 78.0868 11.897 929 73.451 1175.74 448.756
327 0 81.0967 11.7391 952 72.9359 1175.88 448.887
328 0 80.0437 9.55728 765 75.1569 1175.53 451.889
329 0 84.0919 10.9166 918 74.4641 1175.38 446.784
330 0 86.1557 10.806 931 74.9388 1175.17 443.393
331 0 90.1583 11.4576 1033 72.9042 1175.57 444.728
332 0 93.065 11.6693 1086 73.1252 1176.16 441.152
333 0 97.1438 12.6513 1229 71.4557 1175.62 441.624
334 0 100.099 11.3088 1132 72.2429 1175.77 442.891
335 0 100.12 11.4662 1148 73.6733 1175.89 438.003
336 0 106.249 12.066 1282 72.2441 1176.54 437.715
337 1 55.0642 10.8601 598 71.4732 1177.44 461.58
338 0 58.0407 12.4051 720 69.6694 1177.15 460.383
339 0 58.1557 10.9705 638 71.7461 1176.35 460.354
340 0 59.087 11.3223 669 72.5172 1176.96 456.661
341 0 60.0817 10.3526 622 73.3794 1177.42 457.484
342 0 66.1152 11.0413 730 70.7329 1177.72 457.951
343 0 65.027 10.5033 683 73.1728 1177.31 452.663
344 0 68.0386 12.7869 870 69.454 1177.24 451.276
345 0 68.0532 10.0803 686 73.8309 1177.24 450.175
346 0 69.0827 10.7842 745 72.5087 1176.7 447.703
347 0 75.0691 12.0955 908 69.7214 1176.44 448.018
348 0 76.0734 11.2917 859 70.8754 1176.13 445.137
349 0 76.0455 12.2164 929 70.0936 1175.79 444.919
350 0 82.0668 11.3444 931 69.8528 1176.04 445.547
351 0 85.056 10.6283 904 70.7876 1175.78 442.608
352 0 85.1749 10.8013 920 70.1946 1175.67 441.08
353 1 41.0351 9.65028 396 69.1212 1175.73 464.803
354 0 41.0577 9.20656 378 69.9312 1176.34 462.389
355 0 41.1132 9.63194 396 70.4268 1176.89 460.245
356 0 43.049 9.43112 406 68.8473 1177.17 462.549
357 0 46.1417 10.4027 480 67.6312 1176.45 459.344
358 0 46.0507 10.5319 485 67.9361 1175.52 457.99
359 0 48.0358 10.8044 519 67.2081 1176.43 458.225
360 0 50.0168 9.73672 487 68.1622 1176.35 458.768
361 0 50.0277 10.3143 516 67.9903 1176.65 456.545
362 0 54.1139 12.1965 660 65.1348 1176.59 456.065
363 0 56.0947 9.78702 549 67.7978 1177.16 457.51
364 0 57.0769 10.4946 599 66.3222 1176.96 457.706
365 0 59.0481 10.5169 621 66.6409 1176.09 453.415
366 0 61.0504 10.7288 655 66.0443 1176.68 453.834
367 0 60.0818 9.67015 581 68.1807 1176.59 451.375
368 0 64.0574 10.0379 643 67.2364 1176.63 450.586
369 0 69.1122 10.7796 745 65.5638 1176.72 451.619
370 0 70.0361 9.78067 685 66.3664 1176.28 450.905
371 0 71.0558 10.1329 720 66.9694 1175.87 446.724
372 0 75.1443 11.0188 828 65.4372 1176.22 447.343
373 0 77.0399 9.85203 759 67.1897 1175.8 443.603
374 0 81.2301 11.3382 921 65.1857 1176.05 444.704
375 1 42.0132 12.2342 514 61.9981 1176.54 465.13
376 0 43.0594 11.8673 511 64.2759 1176.5 459.644
377 0 45.0298 10.6596 480 64.8375 1176.36 461.754
378 0 45.0349 10.4363 470 66.1128 1175.99 460.555
379 0 49.0241 11.7901 578 63.8322 1176.26 460.133
380 0 50.0421 10.9508 548 65.8504 1176.64 458.172
381 0 51.041 12.1863 622 63.8151 1176.75 457.404
382 0 51.0405 13.6754 698 62.3138 1176.04 457.278
383 0 55.1258 12.2629 676 63.5266 1176.1 456.481
384 0 56.1018 12.2991 690 63.087 1176.42 456.149
385 0 57.0299 12.1515 693 63.4127 1176.41 454.372
386 0 60.0411 12.3082 739 62.9418 1176.6 453.908
387 0 61.0961 9.64055 589 66.8081 1176.23 453.531
388 0 64.0598 11.4736 735 63.7061 1176.4 453.982
389 0 67.1318 12.9596 870 61.4897 1176.52 452.947
390 0 67.1228 11.2182 753 63.5007 1176.37 453.501
391 0 68.145 12.4587 849 62.4122 1176.83 451.476
392 0 72.0722 12.0296 867 62.0819 1176.98 453.532
393 0 75.0394 12.087 907 62.5755 1176.85 449.934
394 0 77.1509 10.4082 803 64.9178 1176.37 446.762
395 1 41.0483 10.3049 423 64.4492 1176.87 464.217
396 0 41.0449 12.4254 510 62.351 1176.41 463.486
397 0 44.135 11.6008 512 62.0957 1176.72 465.135
398 0 43.0525 11.1492 480 63.7188 1176.33 462.544
399 0 45.0344 12.1241 546 62.3791 1176.55 462.658
400 0 48.0253 11.6605 560 63.0625 1176.6 460.696
401 0 48.043 11.6146 558 62.8781 1176.82 461.477
402 0 51.0201 12.4265 634 61.1814 1176.98 459.454
403 0 50.0163 11.9361 597 63.0067 1176.43 456.219
404 0 52.042 11.1064 578 64.0173 1176.55 454.498
405 0 54.0471 10.3613 560 64.9357 1176.52 456.363
406 0 56.0514 10.9364 613 64.1746 1176.75 456.951
407 0 57.1451 12.162 695 63.5036 1176.93 453.071
408 0 60.0461 11.308 679 63.7158 1176.97 453.725
409 0 59.1092 10.7428 635 65.4551 1177.01 451.564
410 0 62.0325 11.4134 708 64.3065 1176.98 450.045
411 0 64.0633 11.9101 763 63.6737 1177.34 448.809
412 0 67.1003 12.3248 827 62.8815 1177.99 447.977
413 0 70.0502 10.6923 749 64.0868 1177.78 449.586
414 0 72.0471 11.2288 809 63.6576 1177.27 447.794
415 0 73.059 11.1143 812 64.3879 1177.68 444.983
416 0 74.0672 10.2475 759 64.9552 1177.79 445.742
417 0 79.1686 12.9976 1029 61.3994 1177.7 441.809
418 0 80.0628 10.5043 841 65.1558 1177.32 441.046
419 1 45.0714 9.11886 411 64.6934 1176.98 461.029
420 0 46.0448 11.2716 519 62.9075 1176.61 456.709
421 0 48.0273 10.5773 508 63.7598 1177.05 456.717
422 0 49.0537 12.8431 630 60.5032 1176.4 455.351
423 0 49.064 10.2927 505 64.2317 1176.45 457.123
424 0 52.0618 9.9305 517 63.735 1176.79 457.315
425 0 52.0156 8.45901 440 65.8864 1176.36 455
426 0 58.0213 10.9098 633 62.0869 1176.53 454.09
427 0 59.1104 11.3516 671 61.6334 1176.51 452.985
428 0 61.0724 11.1343 680 61.6044 1176.72 450.482
429 0 62.0113 11.4334 709 61.3554 1176.46 451.362
430 0 64.1513 9.89847 635 63.3827 1176.66 447.654
431 0 66.0658 11.3523 750 61.2533 1176.51 446.788
432 0 71.0449 12.3302 876 59.3196 1176.52 449.713
433 0 70.0483 10.0788 706 62.2904 1176.22 447.843
434 0 72.0304 10.8426 781 61.1985 1176.69 447.923
435 0 74.0852 10.7579 797 61.522 1176.27 443.066
436 0 79.0566 11.4475 905 60.2475 1176.8 443.017
437 1 39.0161 9.79084 382 61.288 1176.72 463.34
438 0 40.0775 9.25706 371 60.9272 1176.56 465.261
439 0 42.0263 10.4934 441 60.1156 1176.71 463.481
440 0 45.0447 9.34628 421 61.1591 1176.9 463.499
441 0 45.0646 11.6056 523 58.4379 1176.63 462.914
442 0 46.0828 10.7849 497 59.7163 1176.71 460.841
443 0 49.051 11.0293 541 59.3993 1176.73 459.913
444 0 49.0833 10.635 522 60.2548 1176.39 460.544
445 0 49.034 10.2786 504 61.2063 1176.75 458.476
446 0 51.0962 11.6838 597 59.7873 1176.77 456.37
447 0 56.0458 11.6512 653 58.4043 1177.59 457.711
448 0 54.0916 10.9629 593 60.6374 1176.97 452.973
449 0 54.0546 8.62091 466 63.2382 1177.16 455.324
450 0 59.1244 10.8754 643 60.2022 1177.25 455.011
451 0 62.1059 11.899 739 58.6942 1177.14 452.402
452 0 61.0459 11.3193 691 59.848 1177.87 452.064
453 0 66.0407 12.8406 848 57.3113 1177.09 449.375
454 0 68.0689 10.3278 703 59.5149 1177.6 450.427
455 0 67.0442 9.29237 623 61.0193 1176.56 447.194
456 0 73.0862 11.507 841 57.8823 1176.93 448.367
457 1 39.0643 9.29238 363 58.8264 1177.58 466.284
458 0 39.0149 10.4575 408 57.6103 1177.57 466.125
459 0 41.0393 11.2575 462 57.0779 1176.97 465.426
460 0 44.0441 11.3523 500 56.256 1177.18 465.196
461 0 45.0264 11.7487 529 56.1342 1177.52 462.853
462 0 48.0678 12.3159 592 55.1199 1177.78 462.493
463 0 46.0859 11.305 521 57.405 1177.44 460.559
464 0 48.035 11.6582 560 57.4464 1177.3 458.021
465 0 53.1014 9.69843 515 58.3689 1177.05 459.383
466 0 52.0464 11.8932 619 56.5218 1177.12 456.428
467 0 53.0834 10.5118 558 57.8118 1176.84 459.036
468 0 55.0816 12.5813 693 55.7547 1176.81 455.051
469 0 58.0846 9.34843 543 58.7624 1177.06 457.571
470 0 61.042 12.516 764 55.3024 1176.08 454.525
471 0 62.2504 11.1164 692 56.8613 1176 453.344
472 0 61.0504 11.5806 707 56.7214 1175.53 455.24
473 0 66.0774 12.9696 857 54.9323 1175.81 452.772
474 0 69.0747 11.9725 827 55.4788 1176.17 452.481
475 0 70.1466 12.4596 874 55.1636 1176.37 449.76
476 0 68.1973 10.4696 714 58.091 1176.22 448.165
477 0 72.0536 11.7551 847 56.2727 1176.19 448.71
478 0 73.1045 12.8446 939 55.2577 1176.48 446.001
479 0 77.1132 11.5674 892 55.8688 1177.05 449.571
480 0 80.0279 10.1715 814 57.5086 1177.06 445.713
481 0 84.0868 12.0946 1017 55.355 1177.14 441.779
482 0 84.0661 11.6099 976 56.4959 1176.89 439.69
483 0 88.1672 10.9565 966 56.9172 1177.37 439.176
484 0 91.0552 11.6413 1060 56.2425 1176.92 434.839
485 1 46.1352 11.618 536 55.5 1176.89 461.356
486 0 46.0529 10.0754 464 57.3642 1176.86 461.312
487 0 48.0129 12.1009 581 55.2857 1177.13 460.136
488 0 52.0272 11.4363 595 56.0403 1177.44 458.924
489 0 51.0259 11.0336 563 57.0337 1177.49 457.696
490 0 52.0567 11.2185 584 57.2055 1177.36 455.503
491 0 54.0779 12.0197 650 56.1154 1177.14 456.237
492 0 55.0889 11.5994 639 56.8372 1176.92 455.872
493 0 58.1037 12.7703 742 55.4555 1177.62 455.474
494 0 62.0641 12.8255 796 55.0327 1177.32 453.035
495 0 63.0681 10.8296 683 57.3514 1177.54 452.473
496 0 63.1129 11.4557 723 57.101 1176.66 448.835
497 0 65.0578 12.1738 792 56.1389 1176.35 448.664
498 0 69.0977 11.983 828 56.0676 1176.23 446.376
499 0 74.0432 13.6812 1013 53.8292 1176.13 447.32
500 0 73.1343 12.4839 913 55.7218 1176.61 445.211
501 1 36.0438 10.5427 380 58.0737 1176.64 459.192
502 0 37.0574 9.20195 341 58.1848 1177.23 461.906
503 0 41.014 10.4842 430 57.0674 1177.47 460.105
504 0 45.097 10.6659 481 56.6071 1177.35 458.245
505 0 45.0594 11.6513 525 56.1752 1177.13 457.789
506 0 47.0672 12.2803 578 55.2664 1176.66 456.794
507 0 47.0478 11.0526 520 57.1058 1176.67 453.56
508 0 48.0905 11.6655 561 56.8093 1176.25 452.866
509 0 52.1841 11.2486 587 56.4685 1176.89 454.101
510 0 50.058 9.44904 473 59.296 1176.85 451.507
511 0 51.0687 10.1236 517 59 1177.49 451.217
512 0 54.0891 10.9079 590 57.9492 1177.38 449.707
513 0 54.0701 10.6898 578 58.6661 1177.44 449.317
514 0 57.0622 8.72732 498 60.2972 1177.54 446.823
515 0 61.1078 13.3044 813 55.599 1177.64 446.872
516 0 63.1075 13.3582 843 55.4935 1177.8 445.934
517 0 66.1071 13.0848 865 56.496 1176.88 446.585
518 0 67.0527 11.4835 770 58.6558 1177.03 442.488
519 0 70.0946 11.1992 785 58.5758 1176.95 443.517
520 0 74.09 11.8235 876 57.468 1176.8 444.909
521 0 74.0965 13.1315 973 56.9877 1176.82 441.896
522 1 41.0426 11.2566 462 57.974 1176.81 458.864
523 0 44.0207 11.7445 517 57.0174 1176.8 459.309
524 0 44.0251 13.356 588 55.6531 1176.6 458.442
525 0 44.0522 8.76232 386 61.8446 1177.13 458.699
526 0 47.0735 14.6579 690 55.7536 1176.93 455.461
527 0 46.028 10.776 496 59.9718 1177.29 456.558
528 0 50.1214 12.0308 603 58.0862 1176.89 455.275
529 0 51.0499 11.4398 584 58.9829 1177.08 453.962
530 0 51.041 10.6189 542 60.3321 1176.85 452.592
531 0 54.0489 11.5266 623 59.5361 1176.62 452.039
532 0 56.1407 12.6646 711 58.7384 1176.18 448.797
533 0 56.0788 11.1985 628 60.6799 1176.57 449.549
534 0 62.0529 11.4741 712 59.0449 1175.81 451.049
535 0 61.1458 10.8593 664 60.4503 1175.92 449.937
536 0 64.2226 11.9584 768 59.1198 1175.92 448.896
537 0 67.0454 11.8875 797 58.8407 1176.26 450.363
538 0 69.0883 12.6215 872 58.3486 1177.35 447.175
539 0 72.1017 11.0816 799 59.4756 1177.43 448.254
540 0 72.1195 10.7461 775 60.8761 1177.01 444.022
541 0 77.0837 12.4799 962 58.5811 1176.91 445.726
542 1 42.0362 11.2998 475 58.4442 1176.89 462.956
543 0 43.0686 13.0257 561 57.3405 1176.8 461.16
544 0 44.0562 12.6883 559 58.0805 1176.94 460.19
545 0 45.0716 11.271 508 60.0748 1176.84 460.039
546 0 48.0311 11.2219 539 59.9981 1176.32 458.855
547 0 48.0604 13.6287 655 57.2214 1177.15 459.098
548 0 50.0548 12.2066 611 58.9542 1176.9 458.038
549 0 52.0614 13.5609 706 57.483 1176.89 456.636
550 0 54.0313 11.0862 599 60.6327 1177.15 455.441
551 0 55.0942 12.5603 692 58.6373 1177.15 455.189
552 0 57.0481 13.4097 765 57.1569 1176.96 456.221
553 0 57.13 11.115 635 61.1181 1176.7 452.436
554 0 63.1341 12.022 759 58.7339 1176.78 455.327
555 0 61.0621 12.0042 733 59.7176 1176.65 453.206
556 0 64.0588 11.6299 745 60.0926 1176.95 451.95
557 0 68.1099 12.3771 843 58.4199 1177.05 450.499
558 0 68.1006 12.0851 823 58.8809 1176.52 451.578
559 0 73.1896 11.723 858 59.2879 1176.64 447.237
560 0 74.0891 14.6445 1085 56.3604 1176.76 450.019
561 0 76.1279 10.7451 818 60.6259 1176.18 447.663
562 0 80.247 12.8104 1028 58.2286 1176.51 443.247
563 0 81.0491 12.3876 1004 58.4721 1176 447.458
564 0 83.2142 12.1013 1007 59.0745 1175.78 443.05
565 1 43.1469 13.5815 586 56.4676 1176.19 462.754
566 0 44.2611 9.73767 431 60.993 1175.92 461.719
567 0 45.1188 12.9214 583 57.6844 1175.86 459.794
568 0 46.0608 10.573 487 60.1602 1176.28 460.616
569 0 47.1736 12.4858 589 58.073 1176.06 460.873
570 0 49.0392 11.7253 575 58.9009 1175.89 459.896
571 0 51.0788 12.0794 617 58.4506 1176.64 459.293
572 0 53.0925 10.6983 568 59.7306 1176.89 458.474
573 0 51.071 10.6127 542 60.7583 1176.4 453.633
574 0 56.0483 11.8648 665 58.4361 1176.89 456.077
575 0 56.0872 12.748 715 57.7986 1176.78 454.787
576 0 59.0805 11.6621 689 58.6459 1176.86 451.186
577 0 59.0812 11.188 661 59.4614 1176.79 452.225
578 0 61.0839 11.8689 725 58.2455 1176.5 453.036
579 0 62.0405 10.0257 622 60.3987 1176.86 448.13
580 0 65.0574 11.4668 746 58.5134 1176.62 447.145
581 0 69.245 11.3366 785 58.2854 1176.58 445.761
582 0 72.1781 11.5825 836 57.3708 1176.25 447.197
583 0 73.0613 9.97792 729 58.5226 1176.18 448.593
584 0 76.0642 10.8724 827 58.3978 1175.65 441.139
585 1 40.0286 11.6667 467 55.1285 1175.77 462.863
586 0 37.057 8.8782 329 58.5441 1176.18 461.498
587 0 40.0402 10.8141 433 56.9376 1176.41 459.952
588 0 41.0468 9.28208 381 57.8924 1176.46 461.969
589 0 42.0055 8.97501 377 58.2626 1175.89 460.164
590 0 44.0301 10.5383 464 57.556 1176.62 457.414
591 0 46.0758 10.7866 497 57.3139 1176.46 457.867
592 0 48.0161 11.8502 569 56.5431 1176.77 456.833
593 0 49.0767 10.5142 516 57.8295 1176.68 454.777
594 0 50.1603 10.4664 525 58.2152 1176.8 453.57
595 0 51.2036 11.3273 580 57.3569 1176.52 455.152
596 0 53.1071 11.0155 585 58.4 1176.63 452.757
597 0 53.0539 12.0443 639 57.4147 1176.39 453.03
598 0 58.1433 12.6584 736 56.3492 1176.52 452.882
599 0 59.0944 10.6271 628 58.7357 1176.15 452.686
600 0 62.1277 10.3496 643 58.7636 1176.39 450.163
601 0 65.1333 12.4514 811 57.0395 1176.93 450.065
602 0 66.1262 10.9185 722 58.3753 1176.79 449.467
603 0 70.1887 11.7113 822 57.7153 1176.66 448.113
604 0 74.1192 12.4259 921 56.8404 1176.64 446.871
605 1 34.1079 7.44697 254 60.5354 1176.86 465.433
606 0 36.0123 9.49676 342 59.3012 1176.82 461.354
607 0 39.08 10.5425 412 57.466 1177.22 462.629
608 0 40.1194 10.9673 440 57.5614 1177.19 460.793
609 0 43.0635 11.5875 499 56.5972 1176.73 458.297
610 0 45.132 10.9235 493 57.2008 1177.04 460.201
611 0 44.1068 9.83975 434 59.0668 1176.81 458.647
612 0 45.0737 11.9582 539 57.3043 1177.21 458.965
613 0 46.1605 11.33 523 58.0382 1177.33 458.625
614 0 49.0796 10.6765 524 58.8836 1176.46 458.174
615 0 50.1099 11.2952 566 58.2138 1176.75 457.473
616 0 51.0643 13.297 679 56.9102 1176.38 455.663
617 0 54.078 11.7053 633 58.4139 1176.26 455.861
618 0 56.0811 11.1267 624 58.8814 1176.44 454.516
619 0 58.0374 11.5787 672 59.4524 1176.24 451.122
620 0 61.0565 13.0043 794 57.4282 1176.4 451.126
621 0 62.0329 11.6874 725 59.0441 1176.12 451.708
622 0 64.1686 11.797 757 59.1519 1176.41 449.948
623 0 65.1566 9.71506 633 61.327 1176.29 449.798
624 0 67.0967 10.3284 693 60.8139 1176.39 447.143
625 0 71.0329 13.7964 980 56.8102 1176.02 447.476
626 0 75.0703 10.2038 766 60.3538 1176.2 445.572
627 0 76.089 11.2106 853 59.4267 1176.06 445.756
628 1 40.0361 10.6654 427 57.7541 1176.32 463.644
629 0 39.0641 10.598 414 58.0411 1176.72 465.271
630 0 43.1258 11.2462 485 57.5856 1176.26 461.353
631 0 42.0556 11.247 473 58.4524 1175.78 461.799
632 0 45.02 11.7726 530 57.6094 1176.27 461.013
633 0 46.1624 12.5427 579 56.7306 1176.33 460.335
634 0 46.0442 10.9243 503 59.4553 1176.58 458.352
635 0 50.1066 12.2738 615 57.1675 1176.75 457.798
636 0 50.1111 12.4723 625 57.2304 1176.9 458.594
637 0 54.0584 12.69 686 57.0335 1176.56 454.751
638 0 54.0431 11.3798 615 58.5301 1176.96 455.976
639 0 55.0262 12.1942 671 57.4888 1176.61 455.051
640 0 58.0816 11.1223 646 58.5573 1176.83 453.337
641 0 58.0304 11.425 663 58.2308 1176.52 453.736
642 0 58.0201 10.8066 627 60.0797 1175.92 450.502
643 0 63.2763 11.6473 737 58.0326 1176.16 450.855
644 0 65.0947 10.5692 688 59.3372 1175.85 450.477
645 0 69.119 11.5453 798 57.7243 1176.11 449.248
646 0 69.2114 11.9778 829 58.2232 1176.03 445.607
647 0 70.132 11.1932 785 59.3172 1176.26 447.75
648 1 36.0256 10.2427 369 59.4092 1176.29 462.024
649 0 38.0148 11.3903 433 58.0624 1175.83 462.58
650 0 41.1222 9.7271 400 59.71 1175.9 461.19
651 0 42.0298 10.1119 425 59.0306 1175.52 460.581
652 0 43.0905 9.72372 419 60.1384 1175.76 458.933
653 0 43.0919 9.65378 416 60.1106 1175.43 459.264
654 0 45.0314 11.2588 507 58.2998 1175.93 457.876
655 0 47.0717 10.7283 505 58.8139 1176.43 455.931
656 0 49.2301 12.0658 594 56.8098 1176.1 457.507
657 0 51.2097 9.31464 477 59.8763 1176.1 457.216
658 0 51.0379 12.7944 653 56.7351 1176.02 455.459
659 0 54.0351 10.8448 586 58.6826 1175.66 452.529
660 0 57.0185 11.8909 678 57.4218 1175.69 452.913
661 0 58.0638 11.7801 684 57.7018 1175.57 451.674
662 0 57.0544 13.7413 784 56.5599 1176 448.571
663 0 59.0604 10.2607 606 59.901 1176.37 447.969
664 0 63.1051 12.1543 767 57.5684 1175.82 447.346
665 0 64.0912 10.6255 681 59.4875 1175.98 446.264
666 0 67.0624 14.0615 943 55.4963 1176.13 447.901
667 1 31.028 9.05634 281 60.1922 1176.23 464.103
668 0 34.009 12.3497 420 57.2548 1176.04 461.89
669 0 36.0534 12.2873 443 56.4515 1176.23 463.837
670 0 37.0628 10.6306 394 58.4188 1176.15 461.122
671 0 39.081 12.3333 482 55.7427 1176.19 462.434
672 0 41.1553 10.0352 413 57.661 1176.08 461.634
673 0 39.0396 9.40072 367 59.5695 1175.8 457.946
674 0 43.0145 13.1118 564 54.7961 1175.48 459.422
675 0 45.0285 11.6815 526 56.6369 1175.38 454.776
676 0 46.0818 11.8485 546 55.641 1175.97 458.313
677 0 46.0258 10.4941 483 58.118 1175.71 454.785
678 0 51.0505 11.2242 573 56.0663 1175.69 456.742
679 0 48.1104 10.3928 500 57.72 1176.24 456.52
680 0 55.1105 10.0162 552 57.4004 1176.28 454.946
681 0 54.1486 10.0095 542 57.3229 1176.05 452.915
682 0 56.0217 10.3174 578 56.6055 1176.04 454.83
683 0 56.0313 10.2264 573 57.9494 1175.68 450.211
684 0 60.0916 10.9 655 56.9099 1175.51 449.592
685 0 60.0591 11.3888 684 56.5804 1175.73 447.484
686 0 62.1489 10.5553 656 56.7744 1176.02 449.104
687 0 67.0305 11.2784 756 55.6217 1176.14 447.922
688 0 69.0458 10.0368 693 57.1876 1176.2 446.286
689 0 71.0958 10.3663 737 56.9525 1176.26 442.764
690 1 37.0379 10.4758 388 55.6057 1176.84 461.191
691 0 38.0632 9.90457 377 56.6658 1176.19 460.202
692 0 40.1214 8.15026 327 58.8654 1176.52 459.703
693 0 40.0794 9.15683 367 57.9346 1176.07 458.068
694 0 41.0217 10.3116 423 57.0709 1175.87 456.019
695 0 41.0717 10.0799 414 57.5725 1176.46 455.464
696 0 43.0201 11.6922 503 56.0278 1176.08 454.813
697 0 45.0445 10.0123 451 57.7095 1176.1 455.53
698 0 47.0584 10.7526 506 57.3834 1176.28 453.399
699 0 49.1393 10.399 511 57.6888 1177.04 451.642
700 0 53.1082 11.9756 636 55.8145 1176.43 449.912
701 0 52.1135 10.976 572 57.6731 1176.06 449.797
702 0 52.1183 10.7832 562 58.7171 1177.07 453.025
703 0 52.0864 8.5243 444 61.7342 1176.75 450.885
704 0 54.1121 10.5522 571 60.3485 1176.52 448.468
705 0 56.0188 10.4251 584 59.7894 1176.62 450.358
706 0 61.2218 11.8749 727 58.1994 1177.24 448.268
707 0 58.062 11.126 646 60.3498 1176.72 446.105
708 0 63.0721 10.813 682 59.8812 1175.86 444.195
709 0 66.0702 11.5635 764 59.1531 1176.56 443.437
710 0 68.0956 12.4531 848 58.546 1176.29 443.848
711 0 70.0521 10.8348 759 58.8353 1176.52 442.718
712 0 72.0664 12.988 936 56.8291 1176.6 441.696
713 0 75.0434 11.4467 859 58.4598 1176.6 440.959
714 1 41.0326 10.1139 415 58.5783 1176.86 460.292
715 0 39.0762 11.1833 437 58.8581 1177.29 457.524
716 0 41.0795 12.0742 496 57.6593 1177.3 457.718
717 0 43.1245 9.97112 430 59.6163 1177.07 456.619
718 0 44.0656 10.439 460 59.5891 1177.43 455.32
719 0 45.0557 10.5869 477 59.0147 1177.23 456.512
720 0 46.0144 12.4744 574 57.8537 1177.47 453.638
721 0 48.0508 10.0727 484 60.1384 1177.29 452.818
722 0 49.1532 10.3147 507 60.0118 1177.23 451.367
723 0 51.0349 11.7763 601 58.5408 1176.74 451.85
724 0 53.0245 11.6173 616 58.6331 1176.71 451.417
725 0 54.0598 11.8942 643 57.8709 1176.33 451.134
726 0 56.1254 10.5122 590 59.6559 1176.26 449.507
727 0 60.1276 12.7895 769 56.827 1176.79 449.078
728 0 59.0386 13.1439 776 57.1546 1176.4 446.41
729 0 59.0458 12.2278 722 58.4391 1176.27 444.607
730 0 62.0723 10.5039 652 59.9801 1176.02 444.561
731 0 63.1607 10.3229 652 60.2439 1176.04 443.298
732 0 67.1076 12.1298 814 57.5147 1176.62 443.419
733 0 68.0413 11.0815 754 58.9204 1175.88 442.499
734 0 73.0511 11.2524 822 58.1545 1175.49 441.214
735 0 72.1334 11.1044 801 58.9513 1175.97 438.046
736 0 74.1767 9.77396 725 60.0497 1176.41 438.777
737 0 77.1072 12.3983 956 57.3222 1176.29 437.157
738 0 82.035 10.8247 888 58.2444 1175.99 437.921
739 0 84.1189 10.5208 885 58.0034 1175.97 437.163
740 1 40.0905 11.0749 444 57.5743 1175.81 453.324
741 0 43.2418 9.71282 420 58.3619 1175.9 453.507
742 0 44.037 10.4685 461 57.8547 1175.78 451.234
743 0 44.1528 11.9358 527 56.4934 1176.28 450.087
744 0 48.0824 11.4595 551 55.8566 1176.14 451.826
745 0 48.0994 11.3307 545 56.4807 1176.21 450.272
746 0 48.0207 10.4122 500 57.54 1176.52 449.858
747 0 51.0533 10.3813 530 57.4302 1176.51 448.583
748 0 55.0898 11.7989 650 55.4508 1177.23 448.126
749 0 54.0645 9.67362 523 57.4876 1176.52 447.388
750 0 57.099 10.5081 600 56.745 1176.55 444.58
751 0 60.0814 11.2681 677 55.8685 1176.21 444.721
752 0 61.0598 13.0364 796 54.1709 1175.96 445.062
753 0 61.0577 9.59747 586 57.7526 1176.34 440.592
754 0 65.1327 10.8548 707 55.8303 1175.96 443.358
755 0 65.1325 11.6532 759 55.7444 1176.22 441.418
756 0 72.0833 12.0555 869 54.4948 1175.93 442.341
757 0 72.0572 10.8525 782 56.1803 1176.27 440.573
758 0 71.0485 9.23313 656 58.1555 1175.82 435.572
759 0 76.2274 10.8622 828 56.2911 1176.4 438.895
760 1 40.0481 8.46481 339 57.9322 1176.46 455.487
761 0 45.1626 11.1818 505 56.099 1176.48 453.574
762 0 46.0662 10.6152 489 56.771 1176.41 453.843
763 0 46.0485 11.553 532 55.062 1176.64 452.274
764 0 49.0603 11.5368 566 54.742 1176.57 451.594
765 0 51.1236 10.6409 544 55.9926 1176.89 448.903
766 0 49.0512 9.54104 468 57.5385 1177.07 448.622
767 0 54.0529 11.5443 624 55.016 1176.46 446.335
768 0 58.1448 11.8669 690 54.4159 1176.48 447.987
769 0 58.0994 11.5492 671 54.8107 1176.26 446.575
770 0 62.067 11.8098 733 53.8117 1175.67 447.656
771 0 63.1198 11.2801 712 54.3596 1175.93 447.765
772 0 66.0934 11.8469 783 54.2095 1176.31 443.997
773 0 67.1164 14.6015 980 51.4337 1176.53 445.353
774 0 69.1719 14.2833 988 52.1387 1176.44 441.086
775 0 73.0796 11.2343 821 54.0414 1175.91 446.311
776 0 75.1158 10.4106 782 55.5793 1175.29 443.189
777 0 79.1443 11.7507 930 53.9903 1175.35 441.809
778 0 79.0682 14.0512 1111 52.8353 1175.29 437.789
779 0 83.1111 12.5013 1039 54.102 1175.53 438.967
780 0 86.0713 10.1544 874 56.4291 1175.3 437.954
781 0 89.1746 12.6718 1130 53.9628 1176.07 438.318
782 0 92.1641 11.9244 1099 55.3085 1176.01 435.016
783 1 51.0596 10.8501 554 55.8249 1176.42 453.7
784 0 53.0728 12.0401 639 55.2332 1176.37 452.818
785 0 53.026 14.0686 746 54.1193 1176.24 449.5
786 0 58.0415 12.4049 720 55.1861 1176.24 451.179
787 0 57.0738 13.0533 745 55.5651 1176.23 449.236
788 0 62.0698 14.2259 883 53.2559 1176.35 451.271
789 0 64.1454 13.2667 851 54.5946 1176.1 448.622
790 0 67.0906 13.996 939 54.1225 1176.25 446.415
791 0 67.0777 11.9563 802 55.8229 1175.85 445.782
792 0 69.1234 11.6024 802 56.6571 1176.08 442.282
793 0 74.4341 13.3272 992 54.6542 1176.51 444.411
794 0 76.1252 14.0558 1070 54.4131 1176.58 442.149
795 0 78.1202 12.6984 992 56.0111 1176.38 440.715
796 0 78.0917 11.6786 912 57.7029 1176.65 438.899
797 0 84.2261 13.4281 1131 55.4341 1176.44 436.744
798 0 89.2567 12.7722 1140 55.9351 1175.76 437.701
799 0 90.1305 12.138 1094 57.2386 1175.77 435.9
800 1 47.0521 12.178 573 56.2182 1176.37 457.389
801 0 47.0723 11.4717 540 57.9407 1176.15 456.735
802 0 49.0561 13.0259 639 56.9875 1176.72 455.864
803 0 51.0333 11.5611 590 58.7932 1176.69 453.871
804 0 52.0384 10.8189 563 59.9059 1176.96 453.435
805 0 53.0776 10.9651 582 59.6306 1176.59 454.521
806 0 57.1487 10.7964 617 59.5737 1176.4 452.668
807 0 61.0973 16.5474 1011 53.6785 1176.54 451.672
808 0 61.0567 12.2509 748 58.6377 1176.87 450.152
809 0 63.1106 12.7237 803 58.3113 1176.21 451.878
810 0 66.0835 11.9848 792 59.3523 1176.76 448.393
811 0 68.2273 13.1179 895 59.0883 1177.39 446.849
812 0 70.0552 12.7471 893 59.5252 1177.09 446.474
813 0 71.0865 13.2093 939 59.2194 1177.38 445.977
814 0 74.2642 12.2132 907 60.3727 1176.97 444.326
815 0 77.0581 11.7314 904 61.0111 1176.59 442.196
816 0 79.1203 12.0323 952 61.4968 1176.64 438.73
817 1 42.1336 12.4366 524 58.6431 1177.52 459.677
818 0 45.0705 12.5581 566 58.2827 1177.34 460.3
819 0 44.1049 10.475 462 61.8268 1177.26 458.344
820 0 46.0267 11.9061 548 60.115 1177.4 458.214
821 0 48.0981 11.9132 573 60.4834 1177.18 457.037
822 0 50.063 12.2246 612 60.0588 1177.26 455.25
823 0 51.1279 12.5372 641 59.5866 1176.8 455.833
824 0 48.0257 11.3064 543 62.2173 1176.95 454.193
825 0 53.059 12.3447 655 60.655 1176.94 453.145
826 0 55.0518 11.4619 631 61.9667 1177.1 450.477
827 0 56.0671 11.7538 659 61.3748 1176.81 449.906
828 0 58.1322 11.491 668 60.8114 1176.43 452.275
829 0 62.2572 11.8701 739 60.5237 1176.62 448.976
830 0 63.082 11.6674 736 60.466 1177.12 449.408
831 0 62.1362 12.1507 755 60.8199 1177.17 446.752
832 0 68.0567 12.2104 831 60.2623 1177.32 446.089
833 0 67.0976 11.6696 783 61.3895 1177.42 444.822
834 0 72.2361 12.4038 896 59.7411 1177.11 445.372
835 0 71.1335 11.7666 837 61.454 1177.13 443.789
836 0 75.0957 9.84077 739 62.7808 1177.19 443.945
837 0 77.0505 12.3166 949 60.8188 1177.25 439.804
838 0 84.1605 13.3792 1126 58.4893 1177 442.149
839 0 88.1085 11.6447 1026 60.8382 1176.89 439.492
840 1 45.0303 11.2147 505 60.4653 1177.28 457.782
841 0 48.0309 10.9513 526 60.6293 1176.94 457.344
842 0 51.0481 13.0269 665 58.9278 1177.33 455.653
843 0 51.0523 11.9877 612 61.4118 1177.17 454.163
844 0 51.092 12.1937 623 61.801 1177.11 452.449
845 0 55.1031 11.8868 655 61.5084 1177.54 453.585
846 0 56.0444 10.9199 612 62.7908 1177.22 453.029
847 0 57.049 12.8135 731 60.9767 1177.19 451.793
848 0 58.0275 10.8741 631 63.6656 1176.91 449.762
849 0 60.1075 11.8288 711 62.1336 1176.28 450.197
850 0 64.0847 11.8749 761 61.9803 1176.97 447.929
851 0 65.0937 11.2914 735 63.1673 1176.65 447.278
852 0 73.098 12.8047 936 60.2051 1176.57 445.267
853 0 72.4063 13.1895 955 59.9979 1176.59 446.504
854 0 74.101 12.7934 948 61.4736 1176.7 440.635
855 0 76.0836 11.5136 876 62.4623 1176.75 444.194
856 0 78.0491 12.9918 1014 61.1154 1176.25 441.431
857 0 82.1563 14.2046 1167 59.6872 1176.34 440.303
858 1 42.1332 10.0396 423 62.3712 1176.44 458.674
859 0 44.0751 10.9813 484 62.3264 1176.82 458.132
860 0 45.1145 12.5459 566 61.0159 1177.4 457.779
861 0 47.087 11.5955 546 62.8095 1176.6 454.363
862 0 48.102 11.3509 546 62.9103 1176.62 456.121
863 0 52.0371 11.5687 602 62.6628 1176.23 453.591
864 0 51.0889 12.0574 616 63.0244 1176.25 451.365
865 0 52.2102 13.9053 726 60.8251 1176.7 453.864
866 0 55.0542 11.3525 625 64.2256 1176.45 450.358
867 0 57.0475 12.4107 708 62.8517 1176.1 449.181
868 0 58.0607 12.7108 738 63.3943 1176.12 446.885
869 0 61.0305 12.3217 752 63.5106 1176.75 446.658
870 0 64.104 12.3861 794 63.0126 1176.86 448.343
871 0 66.0675 14.8636 982 60.1538 1176.89 447.444
872 0 68.273 12.0545 823 64 1177.13 443.64
873 0 70.0923 11.3137 793 64.8197 1177.16 443.918
874 0 73.1331 11.7184 857 64.5239 1176.97 442.744
875 0 74.1197 13.2623 983 63.296 1176.79 441.09
876 0 76.0715 12.738 969 64.5439 1176.82 437.456
877 1 39.0448 10.3983 406 65.2438 1177.33 458.244
878 0 44.0582 11.6891 515 63.6 1177.4 456.509
879 0 44.0565 12.1435 535 63.0897 1177.21 457.432
880 0 47.0317 11.3753 535 64.4766 1177.6 455.523
881 0 50.0388 11.591 580 63.8328 1177.56 454.793
882 0 50.0406 13.8887 695 61.8475 1177.47 451.777
883 0 52.0667 12.5416 653 62.9923 1177.27 452.593
884 0 53.0371 12.3687 656 63.4162 1177.18 451.253
885 0 58.1037 11.2385 653 63.7596 1177.6 450.219
886 0 59.0884 11.4066 674 62.9392 1176.96 451.806
887 0 58.1387 12.711 739 62.2179 1176.99 449.484
888 0 63.0251 11.2812 711 63.1252 1176.81 447.696
889 0 64.1239 12.8657 825 61.3115 1176.38 448.038
890 0 66.1583 11.8201 782 63.1266 1175.96 442.127
891 0 68.0496 10.8891 741 64.2024 1176.38 445.332
892 0 70.1566 12.6289 886 62.2483 1175.55 441.345
893 0 73.0928 11.8343 865 62.6231 1176.04 442.288
894 0 75.1497 10.8983 819 64.2833 1175.99 439.84
895 0 77.0967 12.1406 936 63.0759 1176.2 436.621
896 0 83.2121 12.2939 1023 61.8631 1175.94 438.5
897 1 43.0823 11.1647 481 60.8773 1176.49 456.119
898 0 42.011 11.616 488 61.9385 1176.27 456.24
899 0 44.0562 10.3731 457 63.7615 1176.47 454.473
900 0 48.0426 11.2192 539 61.4675 1175.95 455.972
901 0 50.0542 11.7073 586 60.9966 1176.55 455.235
902 0 49.0412 12.9483 635 60.9591 1176.4 451.901
903 0 52.061 11.8131 615 61.4114 1176.35 452.928
904 0 52.0755 9.79347 510 64.698 1176.08 450.202
905 0 53.0666 11.6834 620 63.0742 1176.53 447.513
906 0 56.0693 10.1838 571 63.9299 1176.18 448.366
907 0 58.0431 12.0428 699 61.6395 1176.24 447.166
908 0 61.054 13.3816 817 60.1444 1176.55 446.805
909 0 64.105 10.202 654 63.6315 1176.7 445.433
910 0 65.0767 11.0178 717 62.2162 1176.32 446.131
911 0 66.0714 10.4584 691 63.1114 1176.27 443.592
912 0 68.0665 13.9569 950 59.1737 1176.73 442.841
913 0 73.0976 13.2699 970 59.0021 1177.18 442.761
914 0 74.0249 12.6444 936 59.9028 1176.27 440.547
915 0 77.1634 11.0933 856 61.354 1175.97 436.826
916 0 78.0668 11.9129 930 60.1323 1175.93 438.07
917 0 80.0519 9.91857 794 62.4975 1175.27 434.668
918 0 86.069 11.1306 958 60.3528 1175.77 434.86
919 1 45.0359 9.74778 439 60.2346 1176.35 453.33
920 0 47.0517 10.6479 501 59.5689 1176.23 450.89
921 0 48.059 9.59238 461 60.1844 1176.88 454.215
922 0 51.1239 11.0516 565 58.4602 1176.62 452.181
923 0 51.0715 9.90768 506 59.9427 1176.79 450.775
924 0 54.1585 11.7987 639 57.8983 1177.05 449.161
925 0 55.1891 10.618 586 58.9147 1176.65 449.498
926 0 57.0261 12.3452 704 57.5043 1176.82 448.244
927 0 55.0668 10.006 551 60.2613 1177.11 447.766
928 0 59.0603 11.7676 695 57.1957 1176.71 449.553
929 0 60.1162 11.7606 707 57.8345 1176.49 446.728
930 0 65.0671 11.5573 752 57.5146 1176.66 445.129
931 0 64.1087 12.4008 795 57.2063 1176.23 442.535
932 0 67.1188 12.2618 823 56.7315 1175.56 445.768
933 0 71.0484 12.7941 909 56.3949 1175.58 441.835
934 1 39.0158 9.81653 383 58.423 1175.52 457.269
935 0 40.0766 11.6277 466 56.8391 1175.83 457.582
936 0 43.0941 12.2755 529 55.9168 1176.19 457.955
937 0 42.0666 10.1743 428 58.7477 1175.57 456.1
938 0 45.032 10.437 470 57.7085 1175.7 457.326
939 0 48.0855 11.1052 534 57.1498 1176 457.633
940 0 48.0423 10.2618 493 58.86 1176.13 454.298
941 0 48.0201 10.8496 521 57.9693 1175.98 454.236
942 0 51.0394 10.7368 548 58.1296 1175.54 451.675
943 0 55.0809 13.0717 720 55.4056 1176.18 452.828
944 0 54.1067 12.7156 688 56.6541 1175.97 448.574
945 0 55.0437 10.9004 600 58.33 1175.51 448.952
946 0 59.0951 12.0315 711 55.9311 1175.38 451.809
947 0 56.0556 9.66897 542 59.6273 1175.15 448.544
948 0 63.0918 12.6324 797 55.6913 1175.41 448.173
949 0 64.0557 11.0997 711 57.3193 1175.68 447.176
950 0 65.1885 11.275 735 57.3279 1175.87 444.737
951 0 67.1114 10.5794 710 58.1887 1175.26 443.008
952 0 69.0473 12.3683 854 56.1967 1175.31 443.498
953 0 70.1563 11.3461 796 57.8807 1175.61 440.736
954 0 72.0876 8.3232 600 60.3967 1175.54 440.197
955 1 41.1208 10.2381 421 56.2375 1174.92 457.653
956 0 44.0192 12.4718 549 53.9927 1175.74 455.65
957 0 45.0721 9.69558 437 56.7643 1175.65 452.858
