time division length width area intensity CMx CMy
0 0 39.0765 9.62215 376 68.4149 1330.14 486.003
1 0 41.0362 9.65002 396 67.2778 1330.19 485.854
2 0 43.0552 11.613 500 63.5 1331.04 485
3 0 45.0614 11.0738 499 63.519 1331.48 485.852
4 0 45.0331 11.5915 522 64.1513 1330.99 483.877
5 0 44.0621 10.8483 478 66.6297 1331.02 484.067
6 0 49.0916 11.7739 578 64.8339 1330.76 484.782
7 0 48.0549 10.8626 522 67.1973 1329.9 482.381
8 0 50.1101 11.9936 601 65.6589 1330.2 480.715
9 0 51.0859 12.1168 619 65.7544 1330.06 480.267
10 0 53.118 12.6134 670 64.8821 1329.08 478.861
11 0 54.0619 12.2452 662 65.5317 1328.83 479.82
12 0 56.0781 11.4305 641 66.3729 1328.95 478.953
13 0 56.0863 10.9652 615 67.9203 1329.06 478.216
14 0 58.0603 14.106 819 63.149 1329.02 477.917
15 0 59.0575 12.0391 711 66.0675 1328.41 478.572
16 0 61.0913 13.0133 795 64.5635 1328.48 477.264
17 0 63.0441 10.7068 675 67.7348 1328.78 474.176
18 0 67.1346 12.6462 849 63.6572 1328.47 476.098
19 0 66.1385 11.9597 791 65.9254 1328.91 470.799
20 0 70.0801 12.8853 903 64.1118 1329.45 470.272
21 0 74.0674 11.4085 845 65.5148 1329.47 470.934
22 0 74.1572 12.2443 908 64.4802 1329.33 470.992
23 0 76.054 12.2676 933 64.8735 1328.79 469.003
24 0 77.0911 10.7016 825 66.4509 1328.8 466.261
25 0 79.14 11.0943 878 66.3702 1329.31 465.286
26 0 82.093 11.0972 911 66.0143 1329.11 462.504
27 0 85.0958 11.2226 955 64.5518 1328.46 465.36
28 1 41.0659 8.69335 357 66.5154 1328.73 483.146
29 0 47.0254 10.1647 478 62.5418 1328.93 484.642
30 0 44.0549 9.10229 401 65.2344 1328.35 482.042
31 0 47.0234 10.6543 501 63.2395 1328.44 484.321
32 0 48.0333 10.8258 520 63.3192 1327.72 481.554
33 0 50.0205 8.67645 434 65.735 1328.01 480.15
34 0 53.047 10.6132 563 62.3304 1328.31 480.124
35 0 55.0352 11.9196 656 62.4451 1327.87 478.305
36 0 54.0167 10.793 583 64.5695 1328.33 479.211
37 0 57.0865 12.3497 705 61.566 1328.39 478.471
38 0 57.0139 10.9272 623 63.9968 1328.07 475.884
39 0 59.0378 13.0086 768 60.9258 1328.4 476.117
40 0 61.1502 10.6786 653 63.4977 1328.01 474.228
41 0 62.0681 9.47346 588 64.7364 1328.37 474.804
42 0 64.0532 11.709 750 61.7667 1328.59 474.807
43 0 67.0885 11.1644 749 61.8144 1328.81 472.251
44 0 69.0563 10.0787 696 62.8649 1328.92 471.935
45 0 69.1005 10.463 723 62.5491 1328.79 471.286
46 0 70.1093 9.05729 635 63.7654 1328.79 467.422
47 0 71.2066 8.98794 640 63.5562 1328.45 468.986
48 1 34.0414 7.87276 268 61.806 1328.42 489.104
49 0 38.0668 8.38 319 61.4357 1328.35 487.364
50 0 38.0078 9.62959 366 60.4098 1328.33 484.022
51 0 41.0493 8.69686 357 60.8179 1328.78 485.216
52 0 44.0287 11.9922 528 56.7576 1327.89 483.212
53 0 48.1235 11.2627 542 57.4373 1328.26 485.86
54 0 47.0381 11.0549 520 58.8654 1327.87 485.508
55 0 50.0425 11.9898 600 57.6833 1327.87 483.583
56 0 51.0591 13.4746 688 55.8445 1327.91 482.017
57 0 53.1048 12.0893 642 56.9626 1327.9 483.773
58 0 56.107 13.4921 757 55.4254 1328.03 480.301
59 0 55.0552 11.6429 641 58.4431 1327.34 478.894
60 0 59.0519 11.7862 696 57.3261 1327.94 480.45
61 0 57.0785 10.9673 626 59.3115 1327.7 478.974
62 0 59.0672 10.7166 633 59.1896 1327.4 478.981
63 0 61.0543 11.76 718 57.9373 1327.45 479.597
64 0 64.0802 13.2646 850 56.3541 1327.93 475.662
65 0 64.1749 12.3257 791 57.737 1327.7 475.877
66 0 68.0714 15.1018 1028 54.2043 1327.7 475.12
67 0 68.0583 11.9163 811 58.1196 1327.12 474.896
68 0 71.1138 13.0355 927 56.5782 1326.75 472.845
69 0 73.1635 11.4265 836 58.4187 1327.79 470.646
70 0 75.0514 12.6047 946 56.9218 1327.6 471.804
71 0 75.1075 11.3304 851 58.5499 1327.49 470.235
72 0 78.1591 12.9863 1015 56.201 1327.39 471.79
73 0 81.0823 13.0238 1056 56.357 1327.85 468.213
74 1 40.0229 9.39463 376 58.4814 1327.94 489.402
75 0 40.0294 11.1418 446 56.3296 1328.76 490.161
76 0 43.0992 12.6917 547 55.5503 1327.39 486.009
77 0 44.03 10.7654 474 57.0802 1327.26 485.888
78 0 44.0186 9.83675 433 58.3834 1327.12 487.261
79 0 44.0186 9.74587 429 123.981 1327.07 487.266
80 0 48.0895 11.3746 547 57.415 1327.67 485.044
81 0 51.0756 11.9235 609 56.4286 1328.17 483.269
82 0 50.1357 11.2495 564 57.9681 1328.11 483.853
83 0 52.1053 11.6495 607 57.3196 1328.03 482.575
84 0 51.0329 11.3848 581 58.1239 1327.56 481.998
85 0 54.053 12.0252 650 57.3615 1327.47 480.494
86 0 56.016 11.7288 657 57.6925 1327.95 480.543
87 0 58.171 11.4146 664 57.5934 1327.3 480.992
88 0 59.046 12.1092 715 56.9119 1327.2 478.406
89 0 60.0352 10.7937 648 58.3935 1327.57 478.878
90 0 62.1227 11.6061 721 57.5673 1327.49 473.821
91 0 63.0824 11.0173 695 58.1309 1327.72 477.79
92 0 65.1191 12.623 822 56.5012 1327.81 475.979
93 0 67.0613 11.3926 764 58.216 1328.11 474.408
94 0 68.0925 10.9263 744 59.3051 1328.2 474.567
95 0 72.0965 12.1504 876 57.7979 1327.88 472.107
96 1 39.0504 10.3968 406 57.7192 1328.01 490.825
97 0 39.1401 9.93866 389 58.9794 1328.2 489.594
98 0 40.0797 10.8783 436 58.1766 1328.24 489.819
99 0 41.0186 9.38599 385 59.6286 1327.85 490.023
100 0 44.04 11.7166 516 57.4922 1328.32 487.019
101 0 44.0568 10.8042 476 58.6891 1327.99 486.553
102 0 43.166 11.2357 485 59.5052 1327.7 484.237
103 0 48.0429 11.011 529 58.4442 1328.1 485.45
104 0 48.072 11.6908 562 58.0409 1328.26 485.84
105 0 50.1516 10.7275 538 59.0929 1327.73 484.338
106 0 52.0858 12.4026 646 57.6053 1327.28 483.104
107 0 53.026 11.6547 618 58.8139 1327.42 483.942
108 0 53.1329 11.4806 610 59.9213 1327.54 480.784
109 0 55.1158 10.7229 591 60.8342 1327.97 483.003
110 0 54.1332 11.7488 636 60.9843 1328.15 480.08
111 0 58.102 12.8567 747 59.1205 1328.4 480.212
112 0 60.0559 13.1211 788 59.3668 1327.5 479.293
113 0 62.0602 12.5362 778 60.1247 1327.43 478.928
114 0 59.214 11.0447 654 63.367 1327.29 477.133
115 0 64.1177 12.4771 800 60.8675 1327.43 477.776
116 0 67.0672 15.1639 1017 57.7011 1327.64 475.028
117 0 67.0485 12.3344 827 61.9214 1327.86 475.204
118 0 67.0759 12.1653 816 62.4461 1328.02 474.402
119 0 71.0566 12.9896 923 61.2568 1327.67 474.737
120 1 36.0149 12.4671 449 61.3942 1328.2 490.795
121 0 36.0256 10.4648 377 63.3501 1328.2 491.459
122 0 39.0511 12.4452 486 60.5658 1327.5 491.191
123 0 40.0304 10.1673 407 64.5823 1328.15 489.233
124 0 43.048 13.241 570 60.7491 1328.18 487.911
125 0 40.0523 10.4114 417 64.9664 1328.37 488.353
126 0 44.0436 11.7157 516 62.4477 1327.95 489.477
127 0 42.0886 11.1194 468 65.3419 1327.14 486.359
128 0 46.1877 11.7347 542 63.8469 1327.3 484.982
129 0 48.0756 15.3092 736 59.3356 1327.02 484.163
130 0 47.0868 11.5319 543 65.0424 1326.96 482.956
131 0 47.0883 11.0431 520 65.7942 1326.98 482.004
132 0 52.0768 12.3856 645 63.2341 1327.47 480.425
133 0 56.04 12.9193 724 61.4378 1327.62 480.482
134 0 55.0192 12.3593 680 63.8868 1327.45 478.044
135 0 56.1162 11.7969 662 64.284 1327.7 477.523
136 0 59.0451 13.3288 787 62.1741 1327.72 478.108
137 0 61.0818 12.3441 754 63.5796 1326.83 476.199
138 0 63.0502 12.7993 807 62.5527 1327.49 476.731
139 0 64.0809 14.2008 910 61.3044 1327.2 475.725
140 0 66.1594 13.6337 902 62.3404 1326.44 474.792
141 0 67.0885 12.4462 835 64.1305 1326.72 474.848
142 0 69.0341 12.4866 862 64.442 1327.01 472.619
143 0 72.0896 14.3433 1034 61.8143 1326.72 471.331
144 0 72.1348 12.4766 900 64.5944 1327.15 470.362
145 0 76.1662 12.499 952 64.5788 1328.29 470.907
146 0 78.0862 13.5491 1058 63.0359 1328.75 470.131
147 0 79.079 12.3168 974 65.1869 1328.56 469.476
148 0 83.1089 13.729 1141 63.0465 1328.16 468.419
149 0 83.0977 11.3601 944 66.3422 1327.9 469.43
150 1 40.0365 10.8151 433 67.3741 1327.33 486.275
151 0 45.0813 11.0911 500 65.446 1327.64 487.554
152 0 46.0834 10.7414 495 65.5899 1328.03 488.016
153 0 44.0454 10.58 466 68.1459 1328.03 486.219
154 0 46.0309 14.5554 670 62.9388 1327.73 486.163
155 0 49.0459 12.6004 618 64.6537 1327.72 485.798
156 0 49.0357 12.9497 635 64.874 1328.18 484.274
157 0 51.1957 14.1027 722 63.2604 1328.27 482.666
158 0 50.031 12.2924 615 66.8358 1328.42 481.361
159 0 53.0459 13.5166 717 64.6527 1328.26 481.64
160 0 54.0608 12.0975 654 66.3899 1327.33 482.497
161 0 55.0718 12.3657 681 66.5051 1327.04 479.628
162 0 59.0741 14.4564 854 63.123 1327.7 479.437
163 0 61.0328 13.419 819 64.2137 1327.58 477.907
164 0 58.1326 12.1447 706 67.4844 1327.54 476.824
165 0 62.0452 12.0719 749 67.0427 1326.9 477.45
166 0 66.0936 13.5263 894 64.6957 1327.01 476.216
167 0 66.0481 14.2926 944 64.0922 1327.72 476.368
168 0 67.0451 13.2896 891 65.9596 1327.49 475.162
169 0 69.1043 12.17 841 67.5446 1327.86 473.75
170 0 71.1321 12.8775 916 67.5186 1327.89 471.842
171 0 75.182 14.7243 1107 64.3686 1327.86 471.043
172 0 78.0996 13.1627 1028 66.1654 1327.23 471.714
173 0 79.0551 14.1294 1117 65.4324 1326.88 468.187
174 0 79.1745 12.845 1017 67.528 1327.35 468.411
175 0 84.0776 15.6403 1315 63.6745 1327.35 466.225
176 1 38.0527 10.3015 392 69.2883 1328.22 488.304
177 0 43.0357 10.4564 450 67.4356 1328.12 489.838
178 0 42.1319 10.6095 447 69.6398 1328.08 485.356
179 0 44.049 10.3521 456 68.8882 1327.65 487.243
180 0 46.1039 10.9535 505 69.0178 1327.06 485.907
181 0 46.0693 12.8285 591 67.3486 1327.4 483.47
182 0 48.0342 11.1379 535 68.9346 1327.67 484.12
183 0 49.0538 10.9879 539 69.397 1328.1 483.814
184 0 50.0203 11.1555 558 68.7581 1327.74 482.677
185 0 54.0679 13.4461 727 65.0275 1327.52 482.527
186 0 55.0568 12.478 687 66.9622 1327.35 480.07
187 0 56.0261 12.9761 727 66.2696 1327.5 478.026
188 0 57.0382 11.9569 682 68.1305 1327.85 477.532
189 0 58.0607 11.3674 660 68.4242 1327.98 478.836
190 0 59.103 11.4715 678 67.9602 1327.88 477.96
191 0 61.0703 11.7897 720 67.4111 1327.87 477.714
192 0 65.0655 12.2338 796 66.3781 1327.88 476.383
193 0 67.1034 12.9502 869 65.359 1327.95 475.614
194 0 69.0729 13.0297 900 65.2344 1328.24 474.899
195 0 69.1763 11.1888 774 68.3256 1328.09 472.404
196 0 72.1024 13.2589 956 65.1412 1328.29 471.488
197 1 35.1069 11.2229 394 65.0305 1328.57 489.482
198 0 36.0557 9.59627 346 68.0376 1328 488.393
199 0 41.0774 12.1478 499 62.521 1328.11 488.467
200 0 42.0301 13.0859 550 61.1436 1327.71 488.189
201 0 42.039 11.6321 489 62.8834 1327.23 489.834
202 0 42.0456 11.3686 478 64.2008 1327.3 486.981
203 0 43.044 11.7089 504 63.8214 1327.69 484.2
204 0 45.0858 12.1546 548 62.6423 1327.9 485.498
205 0 47.0189 11.6974 550 62.5236 1327.54 486.193
206 0 49.1322 11.0518 543 63.4936 1328.24 483.74
207 0 48.0181 11.8497 569 62.4798 1328.46 481.111
208 0 52.0566 12.3327 642 59.9922 1327.68 482.617
209 0 53.0585 12.5333 665 60.1113 1327.54 480.647
210 0 52.0256 10.7831 561 62.4991 1327.61 481.241
211 0 54.0306 11.4935 621 61.9452 1328.01 479.791
212 0 54.0357 11.4739 620 62.0194 1328.23 479.679
213 0 59.0561 12.7337 752 59.4375 1328.32 481.016
214 0 60.0509 13.0389 783 59.4559 1328.2 479.407
215 0 63.0799 13.0945 826 58.7978 1328.2 479.228
216 0 59.0399 11.9072 703 61.7795 1328.09 476.777
217 0 65.0618 13.71 892 58.8027 1327.24 475.827
218 0 64.0323 10.932 700 62.5557 1327.47 475.534
219 0 67.0258 10.7869 723 62.462 1327.63 475.68
220 0 69.0384 11.4864 793 61.6318 1327.57 473.758
221 1 37.0174 10.0223 371 61.9111 1327.02 489.008
222 0 38.0335 11.0429 420 60.6857 1327.37 488.445
223 0 36.0139 10.6903 385 61.6026 1327.06 487.699
224 0 39.0225 10.5068 410 61.4707 1326.76 486.822
225 0 40.0336 11.2406 450 60.5844 1326.62 486.716
226 0 44.036 11.5133 507 59.4517 1327.33 486.181
227 0 43.0671 11.7259 505 59.7248 1327.57 486.519
228 0 45.1024 12.5492 566 59.3958 1326.99 485.175
229 0 45.19 10.4226 471 61.4459 1327.71 486.072
230 0 49.038 12.4597 611 59.3273 1327.99 483.61
231 0 48.0429 12.0309 578 60.763 1327.92 479.488
232 0 52.0847 11.6925 609 60.266 1327.58 482.8
233 0 54.0286 12.6044 681 59.3554 1327.54 481.399
234 0 57.1472 13.299 760 58.0987 1327.82 479.876
235 0 56.1699 12.7648 717 59.0893 1328.04 479.17
236 0 59.0783 13.4906 797 57.1104 1327.54 481.228
237 0 58.0911 12.446 723 59.7012 1327.24 478.398
238 0 61.0707 14.5078 886 56.526 1327.26 478.67
239 0 65.0856 12.0303 783 59.0549 1326.92 478.125
240 0 65.039 12.1312 789 59.6553 1327.02 476.653
241 0 68.0601 12.7975 871 58.1309 1327.24 475.681
242 0 70.1648 13.3258 935 57.6599 1327.02 474.474
243 0 69.0552 10.9622 757 61.2034 1326.74 472.576
244 0 73.2157 12.6612 927 58.8932 1326.87 470.517
245 1 38.1056 9.4212 359 61.8802 1326.55 488.089
246 0 41.0553 10.2301 420 60.3357 1326.52 490.226
247 0 41.0632 11.9815 492 59.2967 1326.54 487.949
248 0 44.0516 12.4173 547 58.4132 1326.27 485.949
249 0 43.1381 11.9848 517 60.0522 1326.45 481.76
250 0 46.0465 12.9434 596 58.0403 1326.88 483.936
251 0 43.0554 9.91746 427 62.8525 1327.22 483.499
252 0 51.1443 13.2566 678 57.0206 1327.41 483.928
253 0 49.0325 12.1144 594 59.303 1327.67 483.663
254 0 50.0613 12.8842 645 58.3101 1327.09 485.332
255 0 52.1321 12.3916 646 59.6486 1326.72 482
256 0 54.0558 12.7461 689 59.7475 1326.69 480.761
257 0 55.1848 12.8659 710 59.838 1326.3 481.215
258 0 55.115 11.3218 624 62.1747 1327.11 480.269
259 0 59.1648 11.9328 706 61.4943 1327.55 479.588
260 0 61.0266 12.5683 767 61.189 1327.38 479.073
261 0 62.0946 13.2379 822 60.1095 1327.35 478.866
262 0 62.066 11.5522 717 62.8033 1326.95 477.481
263 0 66.0642 13.8956 918 59.4695 1327.31 475.572
264 0 66.0431 12.1587 803 62.3998 1326.09 475.227
265 0 69.1062 12.6183 872 61.7936 1326.6 471.554
266 0 70.0523 11.9197 835 62.7928 1326.88 472.641
267 0 73.0431 12.9376 945 61.4339 1326.45 471.041
268 0 75.0814 13.199 991 60.7255 1326.12 468.37
269 0 77.0446 12.2656 945 62.1746 1326.9 469.515
270 0 80.0573 11.6791 935 62.3914 1327.19 469.923
271 1 41.0394 9.77109 401 64.1147 1327.17 487.347
272 0 40.0149 9.87131 395 65.1468 1327.04 487.018
273 0 44.0244 12.1524 535 62.5458 1326.78 484.279
274 0 44.0446 11.3521 500 62.926 1326.89 485.452
275 0 49.0213 14.0143 687 59.0757 1326.91 484.908
276 0 45.0164 11.4625 516 63.5116 1326.83 483.465
277 0 51.0691 13.3349 681 60.3363 1327.29 482.661
278 0 53.0572 12.6279 670 61.097 1326.62 483.709
279 0 52.0777 11.6173 605 63.1884 1326.31 482.334
280 0 54.0415 12.1018 654 62.2691 1326.75 481.601
281 0 57.0462 12.2883 701 62.0243 1326.6 479.902
282 0 56.0938 12.8535 721 61.8779 1326.44 478.727
283 0 56.0685 12.128 680 62.9765 1325.73 479.529
284 0 60.0556 13.1711 791 61.3161 1325.49 478.384
285 0 61.0374 11.0916 677 64.0886 1325.16 475.251
286 0 64.1033 13.5718 870 60.7103 1325.57 475.608
287 0 66.1765 12.4516 824 62.074 1326.02 476.454
288 0 69.1508 13.391 926 60.6285 1326.76 475.252
289 0 69.1307 12.6427 874 61.667 1326.66 474.994
290 0 74.0832 12.9719 961 61.127 1326.82 472.294
291 0 76.1021 12.2861 935 61.8214 1326.78 472.304
292 1 37.1325 11.3916 423 63.8652 1326.93 489.754
293 0 40.0586 11.9824 480 63.1875 1326.59 488.625
294 0 41.0336 12.2582 503 63.0457 1326.69 489.085
295 0 43.0725 12.3977 534 62.9101 1326.98 487.187
296 0 45.0838 11.5784 522 63.0785 1326.72 487.789
297 0 45.0175 11.6621 525 64.2 1326.99 484.684
298 0 48.0394 13.2599 637 61.5259 1327.29 484.214
299 0 49.0199 12.0971 593 63.0523 1327.4 485.051
300 0 51.0621 13.6109 695 61.295 1326.98 483.458
301 0 53.0434 11.7828 625 63.4528 1327.39 483.086
302 0 54.027 11.7534 635 63.5701 1326.94 481.609
303 0 56.0776 12.5719 705 62.1603 1326.7 482.146
304 0 56.1843 12.1564 683 63.6501 1326.76 478.892
305 0 56.1594 13.1768 740 62.3541 1326.54 477.657
306 0 60.1271 13.6378 820 61.2634 1327.01 477.127
307 0 62.1026 13.1879 819 61.4408 1326.95 477.491
308 0 64.0493 14.0829 902 60.061 1327.13 478.952
309 0 64.1092 12.6659 812 62.6995 1327.1 475.347
310 0 66.0889 13.4365 888 61.5664 1325.99 476.965
311 0 70.0438 14.648 1026 59.6218 1326.89 475.776
312 0 72.0453 13.7136 988 61.2227 1326.98 472.594
313 0 73.0674 13.0154 951 62.4132 1326.72 471.534
314 0 76.08 15.8386 1205 58.6415 1326.51 472.223
315 0 78.0573 13.0673 1020 61.9304 1326.53 471.666
316 1 38.0427 12.4071 472 63.4131 1326.22 484.803
317 0 43.0473 11.9171 513 61.9571 1326.04 487.645
318 0 44.1425 11.8933 525 62.7181 1326.02 485.731
319 0 44.0612 14.1167 622 60.9035 1326.07 484.887
320 0 45.0715 12.7353 574 62.9094 1326.01 484.39
321 0 49.0972 12.017 590 63.2186 1326.02 483.803
322 0 49.0386 13.5811 666 62.1622 1326.68 482.878
323 0 48.1132 13.6553 657 63.2801 1325.92 482.076
324 0 51.2532 13.1699 675 63.1852 1325.74 481.775
325 0 53.0256 15.1436 803 61.198 1326.14 479.953
326 0 56.1506 14.7639 829 61.3788 1326.18 477.809
327 0 57.239 13.3126 762 62.7887 1326.28 479.28
328 0 58.0635 13.0891 760 63.7737 1325.99 478.526
329 0 60.0489 12.7396 765 64.5869 1325.72 478.342
330 0 61.0523 14.2173 868 63.2684 1325.61 477.395
331 0 63.1548 13.5857 858 64.2529 1326 475.836
332 0 66.0579 16.2888 1076 60.8216 1326.62 474.962
333 0 66.0718 14.9383 987 63.2746 1326.1 474.545
334 0 69.0372 13.7897 952 64.4527 1326.22 475.209
335 0 71.1698 13.4467 957 64.9478 1326.4 472.604
336 0 74.0796 14.4979 1074 63.2607 1327.01 472.394
337 1 38.0444 13.6945 521 63.6948 1327.78 487.756
338 0 40.1509 13.9225 559 62.1556 1327.28 490.1
339 0 41.0926 13.4818 554 62.8845 1326.74 489.812
340 0 40.0829 13.8712 556 64.4047 1327.23 486.86
341 0 40.0309 11.5161 461 67.1866 1327.75 487.011
342 0 43.074 14.0456 605 63.3983 1327.91 486.653
343 0 44.0359 10.5142 463 68.2441 1327.68 485.762
344 0 45.0226 12.5048 563 65.8917 1327.55 484.249
345 0 49.1288 13.8208 679 63.0133 1327.51 484.99
346 0 49.0655 13.6145 668 64.3293 1327.08 482.397
347 0 52.0453 13.5843 707 63.7808 1326.83 483.13
348 0 53.0341 14.0099 743 63.1575 1326.44 483.275
349 0 56.1008 13.957 783 63.0971 1326.18 481.799
350 0 57.0358 12.6061 719 65.5396 1326.4 479.426
351 0 57.0501 13.3917 764 64.7251 1326.11 478.335
352 0 60.0656 14.7672 887 62.3551 1326.05 476.505
353 0 62.0813 13.7884 856 63.6916 1326.11 477.09
354 0 63.0514 13.5921 857 63.9207 1326.49 476.264
355 0 63.0886 13.5999 858 64.535 1327.09 473.4
356 0 68.1698 13.8918 947 63.4055 1327.45 474.556
357 0 69.0534 13.7285 948 64.2532 1326.66 473.315
358 0 72.1084 13.2717 957 64.7001 1325.84 470.22
359 0 75.065 15.4266 1158 61.829 1326.69 468.525
360 1 38.0656 11.7166 446 66.2332 1326.57 488.341
361 0 40.1034 13.0413 523 64.3212 1327.07 487.319
362 0 40.0999 12.419 498 65.5241 1326.89 486.667
363 0 41.1446 12.0307 495 65.1919 1327.3 489.883
364 0 43.1534 14.5991 630 62.6746 1327.15 487.967
365 0 45.0575 13.5382 610 63.841 1326.31 487.193
366 0 45.0805 12.9102 582 65.2027 1326.91 486.746
367 0 47.2226 13.087 618 64.479 1326.77 486.186
368 0 49.0334 12.6444 620 64.9194 1326.88 485.177
369 0 49.0768 13.0408 640 65.4062 1326.99 485.147
370 0 50.0307 12.5123 626 66.0687 1326.62 482.688
371 0 52.1012 14.0304 731 64.026 1326.37 481.026
372 0 55.0663 14.0376 773 63.2096 1326.64 480.135
373 0 57.1565 13.7517 786 63.4453 1326.19 479.218
374 0 59.2822 14.3888 853 62.8288 1326.42 477.599
375 0 61.073 13.3283 814 63.6314 1326.67 477.939
376 0 64.1471 14.3576 921 62.4853 1326.73 474.22
377 0 64.0954 13.1835 845 64.142 1326.66 473.86
378 0 65.0597 12.527 815 65.3337 1326.27 472.499
379 0 69.1267 12.6579 875 64.872 1326.54 471.465
380 0 70.1305 12.0062 842 65.7221 1326.95 471.855
381 0 74.1025 13.036 966 64.3033 1327.04 469.522
382 0 76.1384 12.9632 987 64.4357 1326.28 470.351
383 0 77.1579 12.8568 992 64.8952 1326.5 468.469
384 0 81.1239 13.4362 1090 63.7716 1326.83 467.056
385 0 83.109 13.368 1111 63.9208 1326.67 466.762
386 1 41.0172 11.5561 474 65.4283 1326.82 485.747
387 0 42.0516 11.9853 504 65.006 1326.66 484.643
388 0 42.0371 10.5621 444 67.6081 1326.61 484.649
389 0 46.1058 13.0569 602 64.5748 1326.92 483.379
390 0 44.1349 12.5524 554 65.7509 1326.68 483.365
391 0 48.1074 12.7215 612 65.2026 1327.16 480.273
392 0 47.0324 12.9485 609 65.8374 1327.25 480.933
393 0 51.0605 12.5733 642 65.6044 1327.14 480.076
394 0 53.1104 13.4813 716 64.3645 1326.66 479.01
395 0 55.0468 12.3168 678 65.5531 1327.1 479.876
396 0 58.0909 12.9452 752 64.5638 1326.65 479.535
397 0 58.1718 13.271 772 64.772 1327.08 478.912
398 0 61.0669 13.7554 840 63.6524 1326.65 479.569
399 0 61.1721 13.5029 826 65.5363 1326.78 476.243
400 0 65.1345 13.7562 896 64.3906 1326.84 475.369
401 0 65.2147 13.7546 897 64.8796 1327 475.881
402 0 69.1316 13.9155 962 63.9896 1327.2 474.96
403 0 70.0472 14.5616 1020 63.9775 1326.63 472.574
404 0 73.1757 14.308 1047 64.2311 1326.78 470.215
405 0 77.0922 15.1377 1167 63.4807 1326.98 470.129
406 0 78.0242 12.6499 987 66.9828 1326.99 469.728
407 1 36.0913 10.9722 396 68.7172 1327.41 486.76
408 0 37.0322 11.2605 417 67.8345 1327.2 487.772
409 0 40.0349 12.9637 519 65.79 1327.43 487.081
410 0 39.1398 11.4462 448 69.2143 1327.42 487.357
411 0 39.1398 11.4973 450 148.938 1326.41 487.347
412 0 43.1056 12.8986 556 67.1565 1328.42 485.797
413 0 44.023 14.6287 644 65.705 1328.15 483.025
414 0 47.1586 13.0835 617 66.765 1327.72 484.062
415 0 48.0279 13.6379 655 66.7099 1328.03 483.237
416 0 50.0331 13.3712 669 66.9731 1328.07 482.312
417 0 50.0215 12.9144 646 68.2616 1328.03 480.923
418 0 52.0555 13.0054 677 67.9365 1327.66 481.309
419 0 55.1591 14.2497 786 65.1336 1327.29 481.968
420 0 55.039 13.445 740 67.7257 1327.04 478.861
421 0 58.068 13.6047 790 67.0595 1327.34 478.447
422 0 59.1764 12.7754 756 68.8386 1326.76 476.737
423 0 60.0684 14.5667 875 66.5726 1326.82 476.133
424 0 60.0441 13.1903 792 68.7386 1327.02 475.537
425 0 65.0376 13.8228 899 66.7086 1326.63 477.551
426 0 68.0373 15.2269 1036 64.9498 1326.93 475.475
427 0 68.0865 13.0422 888 68.4482 1326.89 474.395
428 0 71.0218 13.6155 967 67.2823 1327.08 473.993
429 0 73.1277 13.6337 997 67.678 1326.9 468.61
430 0 73.0755 12.6718 926 69.4622 1327.03 469.296
431 0 79.0449 13.8908 1098 66.5264 1326.83 470.621
432 1 43.0843 11.9765 516 66.4225 1326.91 488.541
433 0 46.0506 12.3777 570 67.4561 1326.66 484.944
434 0 45.0709 12.203 550 68.5909 1327.11 484.94
435 0 47.0442 12.095 569 67.8155 1326.68 484.682
436 0 49.0443 12.4989 613 67.5188 1327.35 483.558
437 0 51.0497 12.1646 621 68.4219 1326.95 482.319
438 0 52.0472 14.2371 741 65.5614 1326.88 481.58
439 0 54.0692 12.8724 696 67.2701 1326.92 482.096
440 0 54.2339 13.7368 745 66.894 1327.1 479.698
441 0 56.0838 13.9434 782 65.7123 1326.98 480.769
442 0 58.1036 13.1489 764 67.3992 1326.83 477.394
443 0 62.1882 13.7004 852 65.7277 1326.98 478.419
444 0 60.0337 12.9094 775 67.9148 1326.65 478.107
445 0 65.0519 14.7113 957 64.5569 1326.85 475.905
446 0 66.0492 13.5202 893 66.9507 1326.88 472.151
447 0 68.1144 13.0075 886 67.2348 1327.67 473.876
448 0 71.0979 13.4041 953 66.2267 1327.21 473.69
449 0 74.1102 12.5084 927 67.7691 1327.39 470.59
450 0 77.1006 11.7768 908 68.8778 1327.29 470.782
451 1 39.0139 10.6629 416 69.0288 1327.31 487.726
452 0 40.0822 11.7758 472 67.572 1327.92 487.648
453 0 42.1036 13.253 558 65.3226 1327.3 486.762
454 0 43.0172 12.6926 546 65.8645 1327.86 485.573
455 0 46.1252 13.6151 628 63.5717 1326.89 484.927
456 0 47.0955 13.5045 636 64.4969 1327.25 482.11
457 0 48.0561 12.8392 617 65.013 1327.42 483.3
458 0 50.0591 12.3454 618 64.9353 1327.57 484.4
459 0 51.0598 13.4744 688 64.5087 1327.05 481.993
460 0 54.0483 13.0069 703 64.5007 1327.16 481.226
461 0 52.1715 12.5739 656 66.3887 1327.77 478.145
462 0 55.1609 13.7779 760 64.1961 1327.83 478.117
463 0 56.0458 13.8101 774 64.4083 1327.48 477.432
464 0 60.2705 13.2237 797 64.2447 1327.5 476.731
465 0 60.029 12.6939 762 65.7323 1327.36 475.021
466 0 62.0531 12.1992 757 66.1374 1327.4 475.552
467 0 66.0669 13.6982 905 63.2707 1326.88 474.748
468 0 67.1365 13.8673 931 63.7433 1327.09 473.182
469 0 70.0783 14.1699 993 62.6455 1327.23 472.739
470 0 71.077 13.8301 983 63.2035 1326.38 472.121
471 1 36.0358 13.0703 471 62.3015 1326.05 487.667
472 0 37.0241 12.2623 454 62.4604 1325.77 489.405
473 0 39.1055 13.0672 511 61.9413 1325.91 487.331
474 0 39.0705 10.7498 420 64.2095 1326.38 487.343
475 0 42.0701 12.3365 519 61.5703 1326.62 487.052
476 0 41.05 11.2302 461 64.1996 1326.19 485.618
477 0 42.0329 12.2047 513 62.3782 1326.42 487.049
478 0 43.0303 13.4324 578 61.3875 1326.85 483.576
479 0 43.0785 10.3532 446 65.3049 1327.35 484.298
480 0 46.042 12.2062 562 62.1673 1327.2 484.747
481 0 49.024 13.7076 672 60.5476 1327.39 480.47
482 0 49.0746 13.4489 660 61.1727 1327.24 481.286
483 0 49.0765 12.8371 630 62.1746 1327.85 479.735
484 0 51.0239 11.0536 564 64.0177 1327.32 478.275
485 0 52.0734 12.1943 635 62.8173 1327.22 478.419
486 0 56.1086 13.3491 749 60.478 1327.28 479.952
487 0 57.1736 13.2054 755 60.6874 1327.46 480.147
488 0 58.1249 14.5721 847 59.6387 1327.65 478.035
489 0 62.1277 11.5086 715 62.9035 1327.63 476.487
490 0 62.0517 12.264 761 62.6925 1327.43 473.466
491 0 64.078 13.3899 858 61.2611 1327.22 476.009
492 0 66.1262 12.0376 796 63.103 1327.2 473.761
493 0 70.1403 12.4607 874 62.6705 1327.7 471.09
494 1 35.0361 10.6462 373 63.0188 1327.34 489.338
495 0 38.0363 10.6214 404 62.745 1327.77 486.995
496 0 38.029 12.9638 493 60.0264 1326.9 488.446
497 0 41.0253 12.4314 510 60.8157 1326.65 486.51
498 0 40.1427 11.9075 478 62.2469 1326.66 485.496
499 0 44.037 12.8755 567 60.2787 1326.42 485.279
500 0 42.0499 10.9156 459 63.8998 1326.83 484.878
501 0 46.0726 11.764 542 61.3487 1327.02 486.358
502 0 47.0701 11.4085 537 62.797 1327.54 483.555
503 0 48.0557 12.6312 607 61.4778 1327.91 482.613
504 0 51.0532 12.5359 640 61.1219 1327.72 480.948
505 0 52.123 13.353 696 59.8261 1327.4 482.481
506 0 52.1286 12.5267 653 61.5926 1327.01 479.784
507 0 54.0289 13.2707 717 60.5258 1326.92 478.596
508 0 57.0301 13.0107 742 60.3922 1326.61 480.639
509 0 56.2307 11.3283 637 62.7143 1327.18 478.835
510 0 60.092 13.3462 802 60.5723 1327.16 476.855
511 0 61.1129 12.6651 774 61.4638 1327.9 473.293
512 0 63.0513 11.0862 699 63.1288 1327.71 472.926
513 0 65.1443 13.8001 899 60.5695 1327.87 473.369
514 0 67.0761 13.194 885 61.113 1327.99 471.547
515 0 71.1059 12.5165 890 61.1551 1328.05 474.065
516 0 72.1173 12.133 875 62.3577 1328.18 470.455
517 0 74.0659 12.6644 938 63.4723 1327.49 468.651
518 1 37.0575 11.3877 422 63.2915 1327.71 486.384
519 0 36.0484 10.375 374 65.016 1327.39 487.794
520 0 37.0508 11.6327 431 65.0928 1327.3 484.643
521 0 39.0562 11.1378 435 65.5057 1327.25 485.023
522 0 40.0448 11.9366 478 64.9247 1327.32 482.837
523 0 41.0295 10.3097 423 66.5532 1327.2 482.799
524 0 44.0372 10.6047 467 65.0578 1327.27 483.824
525 0 45.1095 9.7762 441 66.6485 1327.67 483.54
526 0 46.0369 10.2092 470 65.8064 1327.47 481.94
527 0 48.1497 11.7965 568 64.3574 1327.83 478.826
528 0 49.0326 11.3598 557 64.605 1327.49 478.982
529 0 52.0587 11.2373 585 64.3248 1327.66 477.997
530 0 54.0699 11.0598 598 64.0468 1327.48 479.124
531 0 54.0866 12.0732 653 63.8882 1327.24 476.58
532 0 55.0567 10.4256 574 66.4094 1326.8 474.875
533 0 59.0511 10.7026 632 65.5016 1327.21 475.905
534 0 60.0324 12.1434 729 63.9561 1326.46 472.953
535 0 63.0617 12.0041 757 63.6658 1326.45 472.606
536 0 63.0479 10.4048 656 65.8125 1326.37 472.47
537 0 67.0455 11.0373 740 64.5973 1326.79 472.72
538 0 69.0581 11.5265 796 63.9585 1327.96 470.232
539 0 71.061 10.0618 715 65.9916 1327.99 467.58
540 0 76.0522 12.1495 924 62.9394 1327.69 466.89
541 0 76.1114 12.981 988 62.413 1327.43 466.073
542 0 77.1413 11.1743 862 64.8689 1327.4 464.657
543 0 83.0366 11.7298 974 63.4784 1327.11 462.828
544 0 83.0621 11.8586 985 63.8193 1327.36 460.851
545 1 43.0267 9.52896 410 64.678 1327.28 480.978
546 0 47.0925 12.571 592 60.7145 1326.92 481.689
547 0 47.0794 11.7886 555 62.6342 1327.69 479.84
548 0 49.1191 11.9505 587 62.0835 1327.32 476.888
549 0 49.1442 11.5985 570 62.2386 1327.39 478.728
550 0 51.0534 13.6915 699 59.2003 1327.67 476.302
551 0 55.0657 11.2956 622 61.4148 1327.76 475.527
552 0 56.0635 13.895 779 58.1913 1327.69 476.528
553 0 57.0486 11.8495 676 60.8595 1327.5 472.682
554 0 60.0751 11.2692 677 60.0384 1327.35 476.643
555 0 62.144 11.8917 739 60.0365 1327.33 471.786
556 0 64.1199 13.1472 843 58.4911 1327.51 470.181
557 0 65.101 12.9952 846 58.857 1327.57 468.93
558 0 69.2213 13.7674 953 57.085 1327.24 468.923
559 0 72.2498 13.9378 1007 56.7746 1327.31 467.495
560 0 73.1686 12.5874 921 57.9349 1327.34 467.72
561 0 75.1752 12.2514 921 58.3572 1326.78 466.788
562 0 76.1837 12.0367 917 58.5224 1327.2 463.393
563 0 82.1406 14.6578 1204 55.0332 1326.78 463.816
564 0 84.1864 10.5837 891 59.22 1326.52 459.572
565 0 87.1813 10.5757 922 58.9772 1326.74 461.35
566 1 44.0184 11.4952 506 54.5652 1326.95 484.302
567 0 42.0347 11.7284 493 55.5477 1326.82 482.41
568 0 44.0116 12.3376 543 54.6575 1327.18 481.177
569 0 46.0478 10.8148 498 55.7671 1326.89 479.898
570 0 49.0648 11.7396 576 54.4479 1326.84 478.134
571 0 49.076 10.0049 491 56.11 1327.51 478.953
572 0 51.0839 10.1598 519 55.5568 1327.71 477.736
573 0 53.1026 11.3366 602 54.5349 1327.25 475.64
574 0 55.108 11.7406 647 53.8022 1327.71 474.955
575 0 58.1108 11.2544 654 54.0994 1327.75 474.769
576 0 58.1482 11.8318 688 53.6599 1327.69 472.247
577 0 58.118 9.66998 562 55.7669 1327.64 470.665
578 0 61.2519 10.2854 630 54.7508 1327.42 470.705
579 0 64.1202 12.2426 785 52.7605 1327.87 470.386
580 0 66.1954 10.2726 680 54.3971 1327.44 464.743
581 0 67.3221 10.4126 701 54.1526 1327.49 465.465
582 0 70.1041 9.40031 659 54.3869 1327.12 467.478
583 0 72.1533 12.515 903 52.155 1326.91 463.317
584 0 72.1554 11.3921 822 53.3078 1326.51 464.895
585 0 77.1065 10.1678 784 53.9171 1326.39 462.457
586 0 78.1494 12.3098 962 52.1861 1326.79 464.337
587 0 82.1552 12.1599 999 52.2733 1327.12 460.479
588 0 86.166 10.6306 916 53.976 1327.02 457.335
589 0 88.1043 10.567 931 53.9785 1326.75 459.419
590 0 92.2214 10.5724 975 53.9672 1327.21 455.329
591 1 46.0638 9.8559 454 50.848 1327.45 483.579
592 0 47.051 11.0731 521 51.7294 1327.64 479.858
593 0 49.031 9.36142 459 52.9869 1327.53 480.71
594 0 50.0678 10.2461 513 53.7563 1327.54 477.384
595 0 53.0542 11.1961 594 52.968 1327.17 476.689
596 0 55.0748 10.9487 603 52.9585 1327.32 475.849
597 0 56.0208 10.9959 616 52.8571 1326.79 474.594
598 0 59.0654 11.7836 696 52.5158 1326.82 473.496
599 0 57.0896 8.49541 485 55.8124 1326.56 472.775
600 0 62.0661 13.3245 827 50.838 1326.89 473.154
601 0 66.0489 12.3999 819 51.9414 1327.33 471.372
602 0 65.1007 10.9062 710 53.2775 1327.27 472.625
603 0 67.1309 10.9488 735 53.4231 1327.28 471.852
604 0 70.107 12.6806 889 52.0056 1327.06 469.772
605 0 71.1336 11.3448 807 53.3643 1327.21 468.177
606 0 72.1597 10.9202 788 53.8376 1327.29 468.67
607 0 77.1171 12.4486 960 52.3573 1327.45 462.896
608 0 79.0611 11.6872 924 53.25 1327.48 464.008
609 0 81.166 10.7927 876 54.2591 1326.96 463.136
610 0 83.0671 10.967 911 54.303 1327.28 461.561
611 0 87.1133 11.8811 1035 53.7865 1326.99 459.924
612 0 87.1411 10.6723 930 55.1258 1327.26 459.656
613 1 44.058 9.4421 416 55.6082 1327.5 482.959
614 0 47.0399 11.9048 560 53.85 1326.49 478.989
615 0 49.1619 12.2046 600 53.4883 1326.65 478.012
616 0 50.0316 11.073 554 55.0235 1326.49 478.462
617 0 48.0981 10.6033 510 56.5941 1326.25 475.973
618 0 53.0608 12.4574 661 54.3676 1326.55 477.127
619 0 54.0515 10.3235 558 56.5824 1326.37 476.935
620 0 54.1 12.1442 657 55.1918 1326.41 474.967
621 0 55.0176 9.57876 527 57.9108 1326.12 475.615
622 0 62.0889 12.4338 772 54.2319 1326.5 475.435
623 0 61.0925 11.8181 722 56.0665 1326.41 472.201
624 0 64.1895 12.354 793 55.4161 1326.43 470.353
625 0 65.081 13.3987 872 54.5745 1326.15 468.534
626 0 69.0345 13.9785 965 53.6694 1326.27 470.185
627 0 73.1476 12.5226 916 54.5 1326.36 470.322
628 0 72.2106 13.7099 990 54.1859 1326.43 470.198
629 0 74.2034 11.3337 841 56.9798 1326.59 467.573
630 0 79.0793 15.2126 1203 52.6126 1326.5 463.74
631 0 80.0532 11.3425 908 56.8954 1326.03 465.414
632 1 40.0202 12.0189 481 56.8191 1326.42 482.301
633 0 42.0471 12.6763 533 55.8968 1326.4 483.006
634 0 46.0184 12.495 575 55.0591 1326.51 484.442
635 0 46.0346 10.7528 495 57.7232 1326.59 480.325
636 0 48.0681 12.5863 605 55.3174 1326.84 481.919
637 0 48.0376 13.3229 640 55.5016 1326.59 478.158
638 0 49.0239 11.6474 571 57.5324 1326.94 478.436
639 0 52.1458 14.3636 749 54.4072 1326.66 476.776
640 0 55.0497 12.6794 698 55.9699 1326.97 477.633
641 0 53.0686 13.5862 721 55.595 1326.59 478.043
642 0 55.0532 11.5525 636 58.6211 1326 473.558
643 0 58.0885 12.5154 727 56.707 1326.32 476.443
644 0 60.1176 14.4217 867 55.1234 1326.06 472.984
645 0 63.0378 13.2619 836 55.9916 1326.15 474.376
646 0 63.0895 11.8245 746 58.1394 1326.38 473.062
647 0 65.0564 14.1108 918 55.0664 1326.57 473.386
648 0 68.0558 13.0187 886 56.7957 1326.52 470.435
649 0 71.1199 12.1907 867 57.5975 1326.17 469.036
650 0 74.1042 13.0222 965 56.2021 1326.19 469.751
651 1 37.0466 11.499 426 56.2207 1325.99 486.866
652 0 37.1123 10.6434 395 57.3392 1325.96 486.078
653 0 40.0749 12.9008 517 54.4487 1325.81 486.839
654 0 43.2288 12.8618 556 54.7698 1326.25 483.786
655 0 40.0974 11.3973 457 57.4836 1326.82 483.731
656 0 42.0324 11.3008 475 56.7874 1326.65 483.962
657 0 45.0624 11.4286 515 57.1165 1326.45 481.101
658 0 49.0439 13.5593 665 53.994 1326.44 481.783
659 0 49.1008 11.8124 580 56.7914 1326.16 479.074
660 0 50.2095 11.0935 557 56.3968 1326.22 482.469
661 0 51.0351 13.5201 690 55.4319 1326.18 477.245
662 0 51.0472 12.1652 621 56.8631 1326.44 474.802
663 0 55.0709 12.5838 693 56.2785 1326.95 475.437
664 0 59.1793 15.6136 924 52.8182 1326.24 474.16
665 0 59.155 12.6278 747 56.091 1326.57 474.491
666 0 60.0439 11.5082 691 57.2156 1326.63 475.883
667 0 60.0652 11.9204 716 57.2053 1326.86 475.689
668 0 63.0917 13.2981 839 56.1812 1326.68 471.272
669 0 67.2137 13.7174 922 55.0119 1326.73 472.223
670 0 68.078 12.3388 840 56.5179 1326.59 468.596
671 0 71.0521 13.4268 954 55.4706 1326.46 469.128
672 0 69.0414 12.717 878 57.0205 1326.33 466.411
673 0 73.0419 11.7193 856 57.6449 1326.18 466.827
674 0 74.0691 11.3003 837 58.5257 1325.88 466.114
675 0 80.1087 11.9837 960 57.1583 1325.78 464.231
676 0 80.1296 12.8292 1028 56.7763 1326.29 462.628
677 0 84.1355 13.086 1101 56.3351 1326.13 462.124
678 0 83.1299 11.2715 937 59.2647 1325.91 459.58
679 1 43.0632 10.2175 440 57.1568 1326.5 483.85
680 0 42.0478 9.48921 399 59.7995 1326.81 481.383
681 0 47.0455 12.3285 580 55.1448 1326.62 481.259
682 0 46.0363 11.4258 526 57.1939 1326.51 481.578
683 0 48.062 12.5255 602 56.2143 1326.17 480.836
684 0 49.0811 12.245 601 57.371 1325.96 477.145
685 0 50.0544 11.8471 593 57.796 1326.24 477.005
686 0 50.0395 11.5709 579 58.3869 1326.57 477.508
687 0 55.0196 12.0321 662 56.7447 1326.62 478.411
688 0 56.0334 12.9209 724 56.4075 1326.83 474.535
689 0 57.077 12.8423 733 56.4366 1326.8 474.005
690 0 58.043 12.1289 704 57.2599 1327.44 472.268
691 0 60.0596 12.371 743 57.3365 1326.92 470.533
692 0 64.1414 12.2074 783 56.6156 1326.9 473.877
693 0 62.0853 11.7419 729 58.1125 1326.84 471.01
694 0 65.0601 11.0667 720 58.4389 1326.39 471.368
695 0 68.1213 11.8465 807 57.3742 1327 468.649
696 0 71.1218 11.5717 823 57.6501 1326.78 467.55
697 0 73.0852 10.3988 760 59.0118 1326.75 465.253
698 0 74.098 11.7007 867 58.2088 1326.97 463.379
699 0 79.0699 12.5712 994 57.0382 1327.6 462.781
700 0 82.1876 12.9825 1067 56.3805 1326.95 461.3
701 1 42.0296 10.2547 431 59.9211 1326.69 481.216
702 0 44.0308 9.47065 417 60.2062 1327.45 482.062
703 0 43.0818 9.40072 405 61.842 1327.45 480.247
704 0 47.0332 11.056 520 59.8327 1326.83 479.537
705 0 47.0946 12.4643 587 58.4736 1326.88 479.22
706 0 48.0189 10.8707 522 60.8008 1327.16 476.923
707 0 51.099 12.2703 627 59.11 1326.74 476.47
708 0 52.0207 11.0341 574 60.9669 1325.96 473.315
709 0 53.0634 11.8726 630 60.0079 1326.54 473.856
710 0 52.0716 11.1385 580 61.9138 1326.34 470.433
711 0 57.0532 13.1982 753 57.0412 1326.8 471.699
712 0 58.066 12.1241 704 58.8878 1327.23 469.969
713 0 59.1136 11.8924 703 59.3428 1327.35 468.28
714 0 61.1165 11.7317 717 59.6276 1326.95 469.384
715 0 62.037 11.2836 700 60.7657 1327.61 466.241
716 0 66.0692 12.0782 798 59.3396 1327.57 466.895
717 0 66.0815 11.5766 765 60.1882 1327.27 466.308
718 0 69.0797 11.7545 812 59.7586 1327.72 466.679
719 0 73.1063 12.3792 905 58.4122 1327.45 466.636
720 1 35.0544 9.69922 340 60.6412 1327.77 482.6
721 0 36.0649 11.4793 414 59.7802 1327.57 480.029
722 0 37.036 9.47726 351 61.7407 1327.4 480.88
723 0 39.0293 10.9405 427 60.5667 1327.22 480.508
724 0 41.1138 12.4046 510 58.4412 1327.2 479.496
725 0 43.2679 11.2092 485 59.2082 1326.82 478.806
726 0 44.1434 10.3979 459 61.2244 1326.83 479.501
727 0 43.0916 11.2551 485 60.9113 1326.9 478.563
728 0 47.0448 14.178 667 56.8861 1326.52 477.009
729 0 45.0325 11.1475 502 61.0717 1326.5 477.89
730 0 51.0604 13.2784 678 57.5324 1326.48 477.622
731 0 50.1459 12.6232 633 59.1738 1326.5 476.359
732 0 51.0433 14.2232 726 58.0496 1326.95 473.569
733 0 53.0774 13.5839 721 58.3537 1326.27 475.699
734 0 54.0946 11.9236 645 60.6899 1325.94 473.357
735 0 54.0946 11.9051 644 133.803 1324.95 473.352
736 0 55.1158 12.4647 687 60.687 1326.9 473.956
737 0 56.0624 12.3434 692 61.1879 1326.69 472.711
738 0 58.0916 14.0468 816 59.3922 1326.38 470.494
739 0 60.1207 12.8907 775 60.3381 1326.42 472.183
740 0 63.1007 13.1853 832 60.0421 1326.09 468.715
741 0 64.0819 12.8273 822 61.1119 1326.31 468.749
742 0 66.0956 11.1808 739 62.452 1326.14 467.539
743 0 66.074 12.0471 796 62.0528 1326.44 466.059
744 0 70.1169 13.449 943 59.8802 1326.64 469.152
745 0 74.104 13.508 1001 59.5355 1326.62 466.406
746 0 75.2965 12.5769 947 60.9356 1326.73 465.794
747 1 37.1509 11.2245 417 62.2494 1326.59 483.823
748 0 38.0811 11.1079 423 62.513 1327.44 484.863
749 0 38.0706 11.216 427 63.0726 1326.84 482.686
750 0 41.0392 13.8892 570 59.2702 1326.76 481.819
751 0 40.0504 13.0586 523 61.4436 1326.43 482.103
752 0 42.1039 13.2054 556 61.6331 1326.08 479.987
753 0 43.105 11.3212 488 63.1311 1326.56 480.754
754 0 44.1988 14.0728 622 60.0997 1326.36 479.511
755 0 44.1086 13.7615 607 60.7792 1326.3 478.885
756 0 50.2175 13.2822 667 60.0525 1326.24 477.439
757 0 50.0507 15.1646 759 58.61 1326.67 476.652
758 0 50.2071 13.1256 659 61.5827 1326.15 474.612
759 0 53.1647 15.0664 801 58.9538 1326.7 474.717
760 0 52.077 14.805 771 59.7886 1326.58 476.278
761 0 57.1193 13.1829 753 60.9854 1326.71 476.394
762 0 57.1421 13.5452 774 60.6977 1326.84 475.84
763 0 59.1944 15.2379 902 57.7871 1327.09 474.548
764 0 59.2493 14.0592 833 59.6999 1326.97 472.371
765 0 63.2042 13.5751 858 59.7681 1327.27 472.347
766 0 65.2871 15.3323 1001 58.2068 1327.36 472.249
767 0 66.084 13.0743 864 60.8912 1326.73 471.074
768 0 67.2702 16.3074 1097 58.2808 1326.9 469.114
769 0 69.0482 13.8888 959 61.0865 1326.69 467.613
770 0 75.3354 14.2032 1070 59.9299 1326 468.627
771 0 77.3148 13.4127 1037 59.8033 1326.16 472.722
772 1 36.2454 12.6361 458 61.4585 1326.45 487.712
773 0 38.3172 13.8319 530 62.0491 1326.89 483.549
774 0 41.1999 12.4272 512 62.8281 1326.6 483.633
775 0 41.131 13.9554 574 62.0714 1326.21 482.368
776 0 43.0811 12.7666 550 63.46 1325.41 483.405
777 0 45.1351 13.7587 621 61.9259 1325.47 481.918
778 0 47.2328 12.8301 606 62.8564 1325.46 480.736
779 0 46.1596 14.5365 671 61.4799 1325.83 482.364
780 0 49.188 14.1295 695 62.154 1325.65 478.416
781 0 50.0322 13.2914 665 62.5383 1326.4 481.197
782 0 51.2215 14.1542 725 62.6455 1326.33 477.454
783 0 51.1238 13.0076 665 65.4827 1326.66 475.851
784 0 54.1821 14.2113 770 62.8896 1326.52 476.722
785 0 57.1735 14.7621 844 62.8448 1326.54 474.225
786 0 57.4321 14.2255 817 63.4296 1326.64 475.454
787 0 61.1441 14.6212 894 62.8993 1326.51 473.192
788 0 62.3242 14.2481 888 63.6081 1326.73 473.116
789 0 63.0851 14.8213 935 63.1027 1326.56 473.395
790 0 66.218 13.9841 926 64.7063 1326.49 470.673
791 0 70.1258 15.13 1061 62.5316 1326.42 469.773
792 0 71.298 14.7971 1055 63.7839 1326.54 467.223
793 0 75.1725 14.6197 1099 63.8353 1326.83 468.274
794 0 74.1213 13.8827 1029 66.3499 1326.98 465.099
795 0 79.6452 16.2973 1298 62.188 1326.84 465.582
796 0 81.1476 14.1224 1146 65.6745 1327.08 463.908
797 1 44.2688 14.2312 630 65.1016 1326.94 482.108
798 0 46.1238 17.0844 788 62.1421 1326.19 480.397
799 0 48.2043 12.6752 611 67.4599 1326.23 481.268
800 0 48.2125 12.9842 626 67.6182 1326.6 481.31
801 0 47.2811 13.6841 647 68.7141 1326.32 478.19
802 0 52.3296 16.7018 874 62.3673 1326.83 480.944
803 0 52.2148 12.5252 654 69.0061 1327 479.026
804 0 55.3388 15.1973 841 65.3567 1327.19 477.547
805 0 57.2692 14.9644 857 65.2474 1326.91 477.54
806 0 57.2773 13.3561 765 67.3725 1326.62 478.099
807 0 61.3893 13.0153 799 67.3517 1326.78 476.549
808 0 60.1588 13.5973 818 68.1577 1327.09 473.65
809 0 65.2158 15.165 989 65.2275 1326.38 472.866
810 0 66.5961 13.6344 908 67.9813 1327.09 470.683
811 0 68.5047 14.8019 1014 66.9832 1327.52 470.599
812 0 71.2155 14.3087 1019 67.1776 1327.42 470.877
813 1 37.1817 14.335 533 66.1238 1327.48 485.218
814 0 37.2322 13.7784 513 67.0019 1326.9 486.115
815 0 39.2729 13.4953 530 68.2038 1326.68 482.811
816 0 41.144 12.3712 509 69.4303 1327.06 483.179
817 0 43.3811 12.8627 558 67.7545 1327.58 483.177
818 0 44.2012 13.7779 609 67.266 1327.41 482.575
819 0 47.3398 14.0262 664 65.747 1327.36 482.258
820 0 47.2898 13.5124 639 67.0782 1327.3 481.787
821 0 49.2967 14.5243 716 65.6117 1327.45 481.11
822 0 48.2322 13.1033 632 68.7959 1327.43 480.6
823 0 49.438 14.3614 710 67.3408 1327 480.346
824 0 52.1593 15.1076 788 65.9086 1327.14 478.11
825 0 53.3294 13.576 724 68.3536 1327.21 476.707
826 0 54.2503 13.9907 759 67.8854 1327.38 475.277
827 0 57.3181 14.9865 859 66.2678 1326.95 474.617
828 0 59.3059 13.9952 830 66.7349 1326.7 475.571
829 0 59.3282 12.709 754 69.7692 1326.82 473.21
830 0 64.3714 14.1523 911 66.6685 1327.36 473.71
831 0 64.31 13.2172 850 68.7447 1327.47 470.826
832 0 68.336 14.736 1007 65.7607 1327.6 473.676
833 0 69.3361 14.0331 973 67.6125 1327.58 468.486
834 0 72.37 15.324 1109 65.8467 1327.36 466.739
835 0 74.302 15.2486 1133 66.2295 1327.41 466.317
836 1 38.1908 13.5635 518 67.1313 1327.19 485.546
837 0 39.449 10.6467 420 70.7429 1327.4 484.06
838 0 39.4541 11.8872 469 70.0107 1327.05 483.923
839 0 40.2927 12.6574 510 69.7255 1327.08 482.016
840 0 42.3532 12.1833 516 69.6628 1327.2 482.824
841 0 41.274 12.2111 504 70.4048 1327.01 482.2
842 0 47.1819 13.0135 614 68.3453 1327.5 481.438
843 0 44.3999 11.937 530 71.6491 1327.45 479.443
844 0 49.2695 14.918 735 66.2163 1327.25 481.018
845 0 50.4284 14.476 730 67.1096 1327.68 481.023
846 0 51.4391 14.0554 723 67.574 1327.43 479.884
847 0 53.3618 15.423 823 65.1337 1327.42 478.9
848 0 54.1889 14.2649 773 66.9897 1327.16 476.511
849 0 57.4522 15.5085 891 65.3232 1326.56 476.024
850 0 57.0615 14.6333 835 66.7784 1327.25 475.331
851 0 60.1735 14.6576 882 66.1043 1326.93 475.482
852 0 62.375 14.1723 884 67.0611 1326.8 474.271
853 0 63.2268 15.4523 977 65.3019 1326.83 473.076
854 0 64.1234 14.3785 922 67.4165 1326.95 470.739
855 0 68.2011 16.466 1123 64.2921 1327.06 469.416
856 0 69.3022 14.5883 1011 66.9515 1326.65 470.239
857 0 71.3308 14.4257 1029 67.4606 1326.71 468.716
858 0 74.5111 13.9174 1037 67.837 1326.63 469.1
859 0 76.2848 15.3241 1169 66.8982 1326.98 464.928
860 0 79.4105 14.6958 1167 67.8749 1327.61 465.249
861 0 81.2468 14.3144 1163 68.7558 1326.84 463.885
862 0 83.1173 14.6901 1221 68.9238 1326.76 461.691
863 0 86.6013 14.6187 1266 69.3736 1326.33 460.571
864 0 88.0968 14.8133 1305 68.8176 1326.63 459.519
865 0 92.1843 15.2629 1407 68.5345 1326.99 459.633
866 0 93.2581 14.0149 1307 70.7842 1326.71 458.806
867 1 49.314 14.8031 730 67.1192 1326.34 481.071
868 0 46.2172 14.2804 660 68.85 1326.37 481.797
869 0 47.0204 13.441 632 72.0127 1326.99 479.285
870 0 49.1126 13.8661 681 71.304 1327.18 480.126
871 0 53.3944 14.3648 767 70.0639 1327.12 477.522
872 0 53.2565 13.3317 710 72.5451 1327.48 477.711
873 0 53.2802 15.015 800 71.0113 1327.49 476.381
874 0 54.1112 13.8788 751 73.036 1327.42 474.076
875 0 57.2375 13.907 796 73.0565 1327.11 475.053
876 0 59.2347 14.451 856 72.6086 1327.17 474.139
877 0 60.1082 14.3741 864 72.0521 1327.6 473.353
878 0 63.5702 15.6363 994 70.2716 1327.64 471.531
879 0 65.1241 13.7583 896 72.6551 1327.55 471.018
880 0 67.2391 14.9913 1008 70.377 1327.88 471.191
881 0 68.0603 14.6341 996 71.4388 1327.75 469.448
882 0 71.0865 16.487 1172 69.5734 1327.72 465.214
883 0 73.2056 14.4115 1055 71.8351 1327.65 465.652
884 0 76.2491 14.6494 1117 71.5148 1327.4 464.385
885 1 36.0677 14.3896 519 71.0443 1327.68 483.212
886 0 38.0753 13.1581 501 72.4232 1327 483.196
887 0 40.2217 11.5858 466 74.2446 1327.02 483.017
888 0 41.1015 13.2598 545 72.2073 1326.95 482.917
889 0 40.1522 12.6269 507 74.0217 1326.61 482.371
890 0 42.1847 12.9431 546 73.2546 1326.1 482.167
891 0 44.1566 13.6786 604 73.1556 1326.6 480.219
892 0 45.306 13.2874 602 72.3272 1325.69 481.691
893 0 45.4176 14.2456 647 72.4606 1326.43 479.201
894 0 46.5101 14.255 663 73.1765 1326.3 478.377
895 0 50.1654 15.5884 782 69.8708 1326.54 479.417
896 0 53.1326 16.0165 851 69.2456 1326.22 477.753
897 0 52.0969 14.0699 733 72.1105 1326.79 479.347
898 0 55.2287 13.8515 765 71.9961 1326.52 479.169
899 0 55.2555 15.2202 841 71.9941 1326.63 475.516
900 0 57.2785 14.735 844 71.8235 1326.29 477.177
901 0 58.1843 15.6915 913 71.5027 1326.84 477.392
902 0 62.4332 14.8799 929 72.5371 1326.76 474.064
903 0 63.2213 15.1848 960 71.9115 1326.42 476.133
904 0 66.2929 14.27 946 73.5137 1326.42 474.346
905 0 66.2975 15.0081 995 73.2764 1326.87 472.207
906 0 68.6646 14.5927 1002 73.8144 1326.62 471.994
907 0 72.2189 14.5945 1054 74.1366 1326.57 469.542
908 0 76.377 17.3743 1327 69.9736 1326.68 469.291
909 0 75.2507 14.7773 1112 75.4559 1327.02 467.504
910 0 78.4288 15.7595 1236 73.6715 1326.8 465.498
911 0 79.1728 15.3209 1213 74.8681 1326.59 465.976
912 0 83.3395 15.6108 1301 74.1776 1327.12 465.545
913 0 86.1909 16.069 1385 73.678 1327.46 462.595
914 0 88.367 15.2319 1346 74.8284 1326.67 463.29
915 1 41.048 14.3491 589 76.6893 1326.43 481.942
916 0 42.182 14.9827 632 76.0665 1326.22 481.984
917 0 44.174 13.6506 603 76.7081 1325.69 483.479
918 0 44.1193 12.5569 554 80.2924 1326.17 481.032
919 0 46.2659 14.8706 688 76.4738 1326.61 481.374
920 0 48.4272 15.5698 754 76.0292 1326.53 481.419
921 0 49.1088 13.7857 677 80.0753 1327.14 480.003
922 0 48.1818 14.1962 684 80.4518 1326.91 479.411
923 0 51.3448 14.7045 755 79.0967 1327.2 478.328
924 0 53.2518 14.2155 757 79.6499 1327.38 478.055
925 0 54.1568 14.2918 774 79.6059 1326.94 477.59
926 0 56.1772 14.5611 818 79.4156 1327.13 477.424
927 0 58.4068 13.9196 813 79.7023 1327.31 477.921
928 0 60.2415 14.5747 878 79.4009 1327.07 475.925
929 0 62.4794 14.4528 903 79.3721 1326.77 474.378
930 0 63.3858 14.1988 900 79.7478 1327.1 475.39
931 0 66.3573 14.7987 982 79.4481 1326.61 472.017
932 0 66.2461 14.5669 965 79.6456 1325.82 472.974
933 0 70.3923 15.3994 1084 78.7362 1326.02 468.548
934 0 72.3889 14.2563 1032 80.9264 1325.97 468.296
935 0 74.4674 15.7384 1172 78.3729 1326.29 465.218
936 0 77.4163 14.0668 1089 80.3893 1326.47 467.663
937 0 80.2569 15.1513 1216 78.3701 1326.03 465.755
938 0 81.4899 14.738 1201 79.572 1326.04 465.31
939 0 84.5403 14.9278 1262 78.3994 1326.35 465.159
940 0 85.3185 14.3111 1221 80.2449 1326.62 461.546
941 0 89.3781 14.3212 1280 79.8953 1326.23 460.514
942 0 92.299 15.439 1425 78.1053 1326.04 459.347
943 0 95.1803 15.7806 1502 77.7477 1326.54 457.123
944 0 97.2017 14.5162 1411 79.4394 1326.36 458.485
945 0 99.3377 14.0531 1396 80.798 1325.84 456.102
946 0 103.326 13.7332 1419 80.8767 1325.75 456.562
947 1 46.1508 13.2825 613 79.7259 1325.51 483.737
948 0 43.3408 12.0902 524 83.8588 1325.79 484.637
949 0 43.3148 13.6905 593 85.8297 1326.18 482.916
950 0 45.1901 14.2288 643 84.423 1326.37 485.143
951 0 43.0963 14.5024 625 87.9056 1325.75 484.859
952 0 43.1511 14.484 625 89.0176 1325.96 485.464
953 0 43.3991 14.1478 614 90.741 1326.21 484.795
954 0 46.2679 14.0702 651 89.3886 1326.29 484.67
955 0 44.4193 14.5432 646 91.1734 1325.45 483.201
956 0 45.2188 13.4457 608 92.0461 1326.23 483.643
957 0 47.211 15.4201 728 88.1168 1326.11 482.01
