time division length width area intensity CMx CMy
0 0 72.1469 11.5597 834 57.0743 886.556 508.007
1 0 72.1114 10.0677 726 58.4077 886.636 509.183
2 1 38.0923 11.1309 424 54.3491 886.191 526.55
3 0 39.0938 9.92485 388 56.5876 885.858 525.219
4 0 39.0294 10.2231 399 56.5639 885.817 524.596
5 0 40.0285 10.4426 418 55.8421 885.766 524.321
6 0 42.0458 10.3934 437 55.1854 885.053 526.314
7 0 43.0501 9.75608 420 56.8429 885.433 523.495
8 0 44.0711 10.2108 450 55.3711 885.504 525.798
9 0 46.0639 10.9847 506 55.2826 886.265 522.395
10 0 48.0585 11.5484 555 54.5099 886.405 523.564
11 0 50.0541 11.108 556 55.25 886.277 522.887
12 0 52.1351 11.8922 620 54.5742 886.145 519.677
13 0 54.0588 12.3014 665 53.418 886.573 523.586
14 0 53.0635 9.98803 530 56.9094 885.36 522.97
15 0 56.0981 12.2642 688 54.5422 885.102 522.089
16 0 56.1197 10.834 608 56.4309 884.87 521.586
17 0 59.1302 12.65 748 54.9345 885.528 519.449
18 0 59.0252 13.723 810 54.0444 885.678 516.638
19 0 59.0545 10.1601 600 57.57 885.275 519.402
20 0 62.0914 12.1434 754 56.1804 884.94 517.179
21 0 65.0639 13.5866 884 54.2036 885.055 516.274
22 0 65.1208 12.2849 800 56.2275 884.616 515.16
23 0 67.0548 11.6472 781 57.0896 885.52 512.672
24 0 68.1764 11.4849 783 57.1277 885.12 514.439
25 0 73.0863 11.2333 821 56.5847 885.812 516.21
26 0 74.0791 12.9321 958 56.5042 885.822 509.683
27 0 76.0938 13.7068 1043 55.6836 885.734 510.543
28 0 78.1843 12.8159 1002 57.0639 884.649 508.812
29 0 79.048 9.62706 761 60.8279 885.993 510.955
30 0 82.0884 12.8398 1054 57.796 885.346 509.786
31 0 85.1268 12.0879 1029 58.9125 885.258 506.728
32 1 43.0377 12.4542 536 57.2201 885.597 527.763
33 0 41.0199 9.94638 408 61.0221 886.451 526.309
34 0 44.0616 13.2542 584 57.2928 886.584 525.829
35 0 45.0146 10.6632 480 59.7417 886.588 526.35
36 0 46.1534 11.7434 542 59.0314 885.775 525.456
37 0 47.0299 12.8429 604 58.7053 886.356 522.571
38 0 47.0556 9.94567 468 62.2244 886.628 523.906
39 0 49.1261 11.8878 584 59.7791 886.176 522.205
40 0 52.107 12.2824 640 59.4234 887.2 522.267
41 0 50.0322 10.7131 536 61.0299 887.382 522.647
42 0 54.2567 11.3903 618 60.5696 887.568 521.521
43 0 55.0566 12.0421 663 60.6033 886.906 519.451
44 0 57.032 12.5544 716 60.2207 887.522 518.511
45 0 58.0518 11.3175 657 60.7565 886.985 520.28
46 0 60.0608 12.0711 725 60.2538 887.341 519.143
47 0 62.0686 12.5023 776 60.1972 887.573 518.233
48 0 64.1445 11.1155 713 61.101 887.755 519.959
49 0 65.1297 13.5422 882 60.2381 887.881 515.431
50 0 67.0822 12.4921 838 61.2148 887.378 515.325
51 0 69.091 11.7237 810 63.2926 887.098 512.264
52 0 71.1691 11.6062 826 62.9939 887.133 511.598
53 0 74.1701 13.132 974 62.0565 887.805 510.924
54 0 77.0609 12.3279 950 62.9853 887.325 511.616
55 0 77.1266 13.5621 1046 63.4646 887.64 508.505
56 0 80.0723 9.71622 778 67.3265 887.788 506.54
57 0 85.0696 13.5771 1155 62.8519 887.529 508.006
58 1 45.0395 11.3456 511 64.9119 888.074 525.023
59 0 47.0569 11.688 550 64.0836 888.493 525.756
60 0 46.0556 12.7889 589 64.2377 888.53 523.681
61 0 48.0341 12.2829 590 64.7102 887.541 523.253
62 0 50.0534 11.4478 573 65.5288 887.48 521.551
63 0 50.0206 9.81595 491 67.3136 887.442 521.578
64 0 52.036 11.5689 602 65.809 887.583 518.703
65 0 54.0407 12.3056 665 65.0165 888.595 519.37
66 0 55.14 10.8814 600 66.825 887.487 519.702
67 0 57.0587 11.9701 683 65.7408 887.921 518.473
68 0 60.1022 11.131 669 66.0493 887.892 519.48
69 0 62.069 12.325 765 65.1307 887.88 518.578
70 0 65.0914 13.0586 850 64.68 887.462 517.741
71 0 66.0729 12.2895 812 67.0246 887.539 514.836
72 0 69.0684 13.1609 909 65.5622 887.855 513.785
73 0 68.0713 12.2078 831 67.1552 887.917 513.647
74 0 73.0541 13.2368 967 65.6949 887.577 512.614
75 0 73.0659 11.3596 830 67.9458 886.867 513.005
76 0 77.1689 12.9456 999 67.028 887.935 509.972
77 0 78.1408 12.3495 965 67.2694 887.486 511.917
78 0 82.0683 12.6967 1042 67.6708 887.243 509.683
79 0 84.0967 12.8067 1077 68.5042 887.73 506.84
80 0 85.0688 12.6721 1078 69.0668 888.273 507.914
81 1 38.017 10.9951 418 68.7273 888.665 528.34
82 0 40.0498 11.1861 448 69.3705 889.342 527.529
83 0 42.015 10.3772 436 69.8486 889.174 528.415
84 0 44.0903 12.6785 559 68.3435 888.887 526.066
85 0 44.0348 13.2395 583 68.3276 888.755 526.479
86 0 46.0355 11.817 544 69.3879 888.752 525.877
87 0 45.032 12.258 552 69.8279 888.42 525.178
88 0 49.0323 12.9098 633 68.5545 888.297 524.324
89 0 51.0425 12.4602 636 69.5236 888.814 523.517
90 0 51.2196 13.4128 687 68.7351 888.854 523.029
91 0 52.0208 13.3024 692 70.2153 888.069 519.915
92 0 55.0889 13.6325 751 69.0573 889.161 520.635
93 0 58.187 13.8003 803 68.8443 889.107 521.13
94 0 60.0471 12.69 762 70.9619 889.542 519.731
95 0 60.0902 12.1318 729 71.439 889.247 520.158
96 0 62.079 13.1284 815 71.0908 888.663 517.912
97 0 64.0902 12.4668 799 72.597 888.663 516.189
98 0 66.0873 12.6651 837 71.8041 888.606 517.969
99 0 67.0536 11.9158 799 73.3792 888.748 513.046
100 0 70.0661 13.0734 916 71.1321 888.564 514.414
101 0 71.0893 12.1959 867 72.7532 888.947 512.61
102 0 74.0656 12.6914 940 71.8202 889.09 512.756
103 0 74.1574 11.988 889 73.6524 889.147 510.411
104 1 36.02 10.3276 372 73.5511 889.484 527.535
105 0 40.0393 12.8873 516 69.5116 888.725 525.87
106 0 39.0417 11.2188 438 71.9292 888.868 526.205
107 0 40.0152 11.6955 468 72.0235 888.143 525.419
108 0 41.0182 11.2145 460 72.0848 888.126 524.893
109 0 42.1106 13.2033 556 69.6061 888.286 523.275
110 0 45.0491 11.7649 530 69.7151 888.394 525.647
111 0 45.0468 12.0541 543 71.1179 888.492 522.912
112 0 44.0514 9.42081 415 73.8627 888.145 523.186
113 0 45.0731 9.67317 436 74.0459 888.849 520.326
114 0 49.0563 11.8232 580 71.0379 888.66 520.45
115 0 50.0256 10.1348 507 72.6982 888.759 522.667
116 0 48.1847 10.6258 512 73.9043 888.922 520.789
117 0 54.0809 11.4458 619 71.8659 888.997 519.669
118 0 54.068 11.4116 617 72.7164 888.742 516.658
119 0 53.028 10.3719 550 74.6018 889.127 517.3
120 0 59.0468 11.3977 673 72.208 888.828 517.749
121 0 59.0332 11.5359 681 71.9736 889.357 517.888
122 0 64.0381 11.3838 729 71.7791 888.492 516.598
123 0 61.1016 12.4547 761 72.0933 888.026 514.411
124 0 65.0525 12.2363 796 71.1068 888.569 515.812
125 0 65.0739 11.2334 731 73.6101 888.793 514.29
126 0 71.0519 12.1038 860 72.3558 888.56 512.61
127 0 71.1565 12.9292 920 72.0641 888.848 512.118
128 0 70.0404 11.1507 781 74.5467 888.005 512.625
129 0 75.1034 12.3563 928 73.9774 887.644 508.029
130 0 75.0644 11.5767 869 75.2612 887.658 509.314
131 0 79.1466 12.4579 986 74.8174 886.799 505.818
132 0 79.0533 10.7649 851 76.5147 886.935 508.093
133 0 85.0834 13.9745 1189 72.603 887.338 503.925
134 0 83.0667 11.0754 920 77.1826 887.995 505.697
135 0 91.0692 12.2764 1118 75.3238 888.513 501.038
136 0 91.1774 11.867 1082 76.1811 888.814 501.064
137 0 92.113 12.9298 1191 74.2317 888.917 503.404
138 0 99.0741 9.69981 961 77.9781 888.154 503.824
139 0 100.155 12.4407 1246 75.5498 887.416 500.379
140 0 99.128 12.0148 1191 77.576 887.538 495.585
141 0 102.069 11.8057 1205 77.7983 888.166 496.381
142 0 106.131 12.7578 1354 76.5473 888.212 492.905
143 0 110.08 12.6908 1397 76.3565 887.911 493.289
144 0 111.122 11.6358 1293 77.8206 887.717 493.556
145 0 114.253 11.2382 1284 78.6192 887.974 489.632
146 1 56.013 10.2119 572 77.1259 888.687 517.323
147 0 61.0628 11.7093 715 74.6434 888.634 514.614
148 0 60.085 10.7681 647 76.7821 887.893 515.468
149 0 63.0146 11.8703 748 75.0936 888.579 513.996
150 0 68.039 11.3758 774 75.5685 887.977 512.72
151 0 67.0757 11.0323 740 76.5919 888.291 512.373
152 0 68.0381 11.0967 755 77.5444 887.709 510.244
153 0 68.0442 10.6108 722 78.5873 887.496 510.625
154 0 70.0708 10.9889 770 76.9182 888.068 513.578
155 1 36.0213 11.1878 403 74.9156 888.638 527.02
156 0 36.0297 11.1297 401 76.0998 888.581 527.219
157 0 40.0336 12.8392 514 72.5953 888.198 526.722
158 0 41.0527 11.6192 477 73.9434 888.237 526.629
159 0 41.0258 12.6262 518 74.1525 888.139 525.728
160 1 88.0314 12.416 1093 75.8801 888.058 504.557
161 0 89.0453 11.1067 989 79.2164 887.579 500.376
162 0 93.167 11.3882 1061 78.3073 888.147 500.574
163 0 95.0798 11.9479 1136 77.7183 888.709 499.396
164 1 48.0804 12.8743 619 73.7383 888.582 520.942
165 0 46.0309 9.16776 422 80.1422 888.668 519.014
166 0 50.0562 11.587 580 75.5879 888.953 518.436
167 0 51.0574 11.6731 596 76.0822 888.68 518.29
168 0 52.047 10.9324 569 76.4517 889.246 518.735
169 0 55.043 10.9914 605 76.1901 888.762 515.405
170 0 57.0901 11.6132 663 75.5113 888.668 515.916
171 0 58.0527 10.7661 625 76.6736 888.379 513.363
172 0 60.0878 10.9839 660 76.053 888.759 513.444
173 0 62.0654 10.4889 651 76.6068 888.725 512.264
174 0 62.0552 10.9258 678 76.413 888.757 510.664
175 0 66.0656 10.0052 661 76.7852 888.607 510.44
176 0 67.0178 8.52013 571 78.8039 889.014 507.268
177 0 70.1276 9.82495 689 77.18 888.193 507.179
178 0 73.0914 10.138 741 76.9663 888.555 505.034
179 0 75.0327 10.1156 759 76.9368 888.39 504.702
180 1 36.0167 9.55113 344 76.093 887.663 524.767
181 0 41.0238 12.5781 516 70.1105 887.793 526.093
182 0 43.018 12.8318 552 70.0091 888.317 524.272
183 0 45.0165 10.2851 463 73.2808 887.765 525.322
184 0 45.0319 12.6577 570 70.8053 887.077 522.6
185 0 46.1172 11.2539 519 72.0443 887.247 523.649
186 0 49.0684 10.4344 512 73.3008 887.277 522.83
187 0 49.0499 11.1315 546 72.0788 886.793 521.159
188 0 51.0296 10.9544 559 71.9982 886.358 521.914
189 0 54.0624 10.8763 588 71.9881 886.094 519.272
190 0 54.0605 12.56 679 70.3829 885.835 518.898
191 0 56.0263 11.0305 618 71.7848 885.481 520.1
192 0 60.0539 11.7561 706 70.1742 885.367 519.101
193 0 61.0731 12.8535 785 69.0306 885.465 518.132
194 0 61.0558 12.2511 748 69.1471 885.608 519.094
195 0 65.0263 12.9486 842 68.0404 886.226 517.966
196 0 66.0851 12.9984 859 68.4226 885.361 514.538
197 0 68.0702 12.9131 879 67.9135 885.356 513.727
198 0 72.0295 12.8836 928 68.0841 884.768 512.815
199 0 72.0534 11.7274 845 69.3811 884.947 512.669
200 0 75.0997 14.1279 1061 65.8143 885.244 510.853
201 0 76.1233 12.0331 916 68.7085 885.929 511.644
202 0 81.1035 11.923 967 68.1727 885.377 512.863
203 0 82.0544 12.5526 1030 67.5505 885.147 509.235
204 0 87.0418 13.8209 1203 65.4904 884.722 508.678
205 1 43.0501 10.964 472 67.9047 884.79 530.083
206 0 44.0301 11.9464 526 66.7015 884.977 529.829
207 0 45.0391 11.3013 509 67.9941 885.379 529.562
208 0 48.0798 13.7896 663 64.8899 884.846 528.268
209 0 48.0723 12.6268 607 65.9951 884.858 529.843
210 0 49.057 11.5988 569 68.2988 884.954 529.148
211 0 51.0648 12.7877 653 65.9755 884.354 526.6
212 0 53.0966 12.2418 650 67.3877 883.666 525.734
213 0 54.1023 12.2546 663 67.1011 884.323 526.652
214 0 57.1624 12.8231 733 66.191 883.132 525.907
215 0 58.0911 13.41 779 66.0359 883.244 522.748
216 0 60.0326 11.8769 713 67.2945 882.774 523.544
217 0 59.024 11.9951 708 68 882.908 522.941
218 0 61.1032 13.649 834 65.964 883.094 519.47
219 0 65.0491 14.0356 913 64.989 882.702 518.92
220 0 67.0883 13.2065 886 65.8657 883.333 518.199
221 0 69.0388 11.9063 822 66.9854 883.628 518.15
222 0 73.1283 13.3874 979 65.2942 882.499 516.169
223 0 73.0813 12.8213 937 66.1323 883.586 515.834
224 0 76.0476 11.4534 871 68.3984 882.875 513.241
225 0 78.0424 10.9812 857 69.1225 882.506 509.582
226 0 83.0968 12.3952 1030 66.6505 882.493 508.85
227 0 87.0551 13.1526 1145 65.0463 881.697 508.81
228 0 87.1196 12.9248 1126 66.4423 882.169 506.38
229 1 47.0298 11.8436 557 64.5853 882.176 526.199
230 0 46.0574 11.6377 536 66.2705 883.004 524.759
231 0 49.0143 10.5888 519 66.79 883.289 524.349
232 0 49.094 12.3844 608 65.852 882.829 521.498
233 0 52.0685 8.25835 430 69.3256 883.333 525.037
234 0 55.0148 11.5423 635 65.578 882.575 521.71
235 0 56.0663 11.7718 660 65.903 883.121 518.453
236 0 57.0958 11.7697 672 65.6339 883.229 518.295
237 0 60.0523 11.873 713 64.324 883.165 518.431
238 0 59.0793 10.3759 613 67.2675 882.953 514.029
239 0 64.0873 13.4036 859 62.482 883.705 515.399
240 0 65.0707 11.1417 725 64.9241 883.865 515.465
241 0 69.1535 12.4361 860 63.0116 884.033 513.077
242 0 71.1347 12.7083 904 62.6095 883.362 511.999
243 0 75.1421 11.8176 888 62.9764 883.651 510.68
244 0 76.1035 12.6407 962 62.2796 883.844 508.895
245 0 79.0731 12.0521 953 62.8132 883.247 506.664
246 0 80.1433 11.3297 908 63.5308 883.327 507.221
247 0 85.1799 12.996 1107 61.6152 883.763 504.439
248 0 86.1705 11.9995 1034 62.2118 884.267 506.785
249 0 91.0579 13.0906 1192 60.5545 884.164 505.332
250 1 44.0251 10.5849 466 60.8197 884.502 526.948
251 0 47.0315 11.5454 543 59.6556 884.291 524.256
252 0 46.0203 10.604 488 62.0984 884.705 522.865
253 0 49.1365 11.6003 570 60.3579 884.567 523.526
254 0 50.0269 11.194 560 60.2161 884.852 524.271
255 0 51.0432 11.0103 562 60.4431 885.343 523.827
256 0 52.0634 11.0826 577 61.1005 884.837 522.87
257 0 54.0751 10.0231 542 61.9889 885.066 521.834
258 0 56.0674 10.1842 571 60.7391 884.736 523.832
259 0 57.0386 10.5367 601 61.3461 884.088 521.005
260 0 58.0959 10.7753 626 60.7428 884.177 519.118
261 0 61.1722 15.252 933 55.0268 884.388 518.449
262 0 63.0601 11.8617 748 58.4398 884.135 518.551
263 0 64.1275 12.6311 810 58.2741 884.556 515.794
264 0 64.058 9.66312 619 60.7658 884.265 518.034
265 0 70.0786 11.6155 814 58.2432 884.244 518.985
266 0 72.0857 12.5129 902 57.898 884.033 515.389
267 0 72.1268 10.6063 765 60.1529 884.159 512.942
268 0 75.0922 11.8787 892 58.7276 884.205 512.771
269 0 77.0947 12.0242 927 58.6893 883.848 511.712
270 0 79.1015 11.5674 915 58.8142 883.462 512.957
271 0 82.0743 9.04059 742 61.6051 882.899 512.181
272 1 40.0534 9.36249 375 60.0427 883.533 530.453
273 0 44.0992 10.2269 451 59.1131 882.876 529.064
274 0 46.0384 9.49207 437 59.3272 882.975 531.4
275 0 46.1034 11.6477 537 57.7821 882.877 530.248
276 0 48.1024 12.4734 600 57.4117 882.977 527.438
277 0 50.068 11.1249 557 58.4327 882.846 528.693
278 0 50.0814 11.3216 567 58.9471 882.647 526.675
279 0 50.0729 11.1637 559 59.5492 882.401 525.785
280 0 53.0421 10.4257 553 59.4684 882.895 528.749
281 0 54.0599 10.8583 587 59.6474 882.746 526.223
282 0 58.03 11.4424 664 58.9548 882.839 525.02
283 0 58.0899 12.5495 729 58.8861 882.021 522.635
284 0 59.0619 9.58317 566 61.4011 882.071 525.281
285 0 62.0177 10.9969 682 59.8534 881.598 525.059
286 0 66.0847 12.7261 841 58.2806 881.938 522.954
287 0 65.1146 12.3782 806 59.5199 881.847 522.463
288 0 69.0768 12.8408 887 59.6437 881.998 518.932
289 0 71.1377 13.1716 937 59.0021 881.566 518.832
290 0 72.0433 12.7146 916 60.2544 881.434 518.551
291 0 75.1407 13.7875 1036 59.5473 881.87 516.74
292 0 78.096 12.0237 939 60.7614 881.656 519.545
293 0 79.0551 12.9277 1022 61.0969 881.514 515.004
294 1 40.0502 11.2109 449 60.657 882.517 534.065
295 0 42.0739 10.1488 427 62.0726 882.173 533.251
296 0 43.0273 10.993 473 61.6152 881.569 531.632
297 0 43.0593 11.6351 501 61.6367 881.345 530.253
298 0 46.0241 12.4283 572 60.3287 882.39 529.921
299 0 44.1018 9.29667 410 65.5293 881.668 529.488
300 0 47.0431 11.2238 528 62.8409 881.705 528.831
301 0 50.068 13.0622 654 60.4006 881.731 526.843
302 0 50.0235 11.7545 588 63.2585 881.401 526.726
303 0 52.0517 11.4309 595 62.995 882.484 526.578
304 0 52.0391 13.6628 711 61.0098 882.136 523.504
305 0 55.0599 11.9143 656 62.1997 881.84 525.259
306 0 55.0732 10.7675 593 63.8769 881.712 524.45
307 0 59.0531 12.294 726 62.0262 881.529 521.988
308 0 59.0388 10.654 629 64.4706 881.833 520.68
309 0 63.0659 11.7338 740 63.0568 881.765 519.877
310 0 64.053 11.3968 730 63.0548 881.834 520.915
311 0 67.1158 13.0968 879 61.4209 882.125 518.567
312 0 67.0295 10.2492 687 65.4614 882.338 516.376
313 0 70.0561 12.3901 868 63.1774 882.266 515.104
314 0 72.1058 11.2612 812 65.0246 881.421 513.562
315 0 74.0369 10.3732 768 66.0768 881.118 512.904
316 0 77.0433 10.4357 804 66.0609 882.286 513.694
317 1 42.0221 10.3993 437 63.9886 881.824 529.469
318 0 43.0582 10.3581 446 64.2982 882.121 527.814
319 0 43.0218 10.0414 432 64.6481 882.88 529.37
320 0 47.0539 12.6876 597 61.8141 882.972 526.558
321 0 47.0498 12.2424 576 62.9722 883.219 525.453
322 0 48.0268 11.5144 553 63.5371 882.955 526.201
323 0 50.0132 9.65746 483 65.5797 882.505 527.176
324 0 52.0386 10.9918 572 63.4948 882.752 527.439
325 0 54.1127 12.9729 702 61.6496 882.501 523.454
326 0 55.0724 11.385 627 64.0606 881.895 523.016
327 0 55.0404 12.5362 690 62.9884 881.067 521.503
328 0 59.1427 11.8696 702 62.6425 882.053 522.607
329 0 60.056 12.2885 738 62.103 882.245 523.358
330 0 61.0696 11.1676 682 63.6569 882.155 522.512
331 0 63.0754 13.3333 841 61.9679 882.573 518.386
332 0 65.1791 12.7035 828 62.6341 882.239 519.101
333 0 68.0323 12.2295 832 62.9591 881.875 517.733
334 0 70.077 12.1581 852 63.3709 881.789 515.565
335 1 35.0149 10.9382 383 61.0601 882.251 533.697
336 0 36.0558 9.84585 355 62.4169 881.907 533.335
337 0 36.0236 10.4931 378 63.0344 882.132 531.22
338 0 34.0314 8.96232 305 65.341 882.279 532.203
339 0 38.045 11.5127 438 61.4452 883.1 531.345
340 0 39.0682 10.904 426 62.5094 882.42 531.404
341 0 41.0287 11.1873 459 62.5011 882.431 529.928
342 0 44.0483 11.1014 489 61.9755 882.239 529.703
343 0 44.0563 10.8044 476 63.0126 881.964 527.782
344 0 42.038 9.13459 384 65.7526 882.464 527.76
345 0 46.0669 10.9189 503 62.5149 882.779 528.702
346 0 45.0795 9.8049 442 65.4796 882.88 526.394
347 0 49.0236 10.0564 493 64.6308 883.138 524.988
348 0 48.0201 11.0579 531 63.5198 883.104 526.75
349 0 49.0844 9.47348 465 66.1204 882.508 524.065
350 0 52.0348 11.6845 608 62.8339 882.447 523.632
351 0 55.0286 11.5576 636 62.2814 882.586 522.541
352 0 53.0322 10.6916 567 63.1093 882.508 522.854
353 0 58.0558 11.0756 643 62.2722 882.342 520.63
354 0 58.0353 10.8038 627 63.2185 882.951 518.644
355 0 59.0859 10.0701 595 63.0319 881.746 519.109
356 0 63.1094 11.0918 700 61.2043 881.714 518.486
357 0 64.0772 10.9243 700 62.1543 882.003 517.137
358 0 66.0808 10.1694 672 62.7083 882.731 514.135
359 0 66.0913 9.89539 654 61.9266 883.277 515.338
360 0 70.0528 9.83544 689 61.926 882.531 512.756
361 0 71.066 8.21771 584 63.7106 882.603 513.563
362 1 34.0446 10.8975 371 58.3935 882.167 530.547
363 0 36.1049 8.30912 300 60.56 882.28 530.043
364 0 39.0581 10.4972 410 58.8098 882.588 528.739
365 0 41.0563 10.3517 425 58.0682 882.195 530.367
366 0 39.0223 9.07174 354 60.4576 882.788 528.98
367 0 42.0353 10.2295 430 58.8628 882.247 528.226
368 0 40.0738 10.7552 431 59.239 883.102 528.483
369 0 41.1588 9.79135 403 60.4963 882.154 527.519
370 0 45.0616 9.54249 430 59.8674 882.442 526.737
371 0 44.0316 10.1291 446 59.8072 882.549 526.821
372 0 47.0129 10.0823 474 59.7384 882.175 525.046
373 0 48.1086 9.1044 438 59.9041 882.438 525.233
374 0 48.0615 9.90397 476 59.8761 882.116 523.17
375 0 50.0732 9.92547 497 58.9839 882.396 521.765
376 0 53.0292 11.9368 633 56.5814 882.897 522.213
377 0 55.0796 10.6391 586 57.9522 883.051 522.677
378 0 55.0905 10.4011 573 58.6963 882.838 519.461
379 0 56.1205 11.5466 648 57.7083 882.671 519.179
380 0 59.0783 11.2393 664 57.9744 881.982 516.62
381 0 61.0838 10.7066 654 58.4602 881.988 518.913
382 0 61.1999 10.2941 630 59.0508 881.732 517.006
383 0 64.0975 10.5152 674 58.4362 882.076 516.114
384 0 65.1126 9.70626 632 59.6788 881.756 515.079
385 0 67.0617 8.81278 591 60.7462 881.323 513.389
386 0 70.2628 9.53563 670 60.006 881.688 510.322
387 0 73.1417 9.76188 714 59.6317 881.853 511.018
388 0 75.1273 9.58374 720 59.9389 881.99 511.608
389 0 77.1826 11.3368 875 58.0994 881.749 508.592
390 0 80.3506 10.6658 857 59.0863 881.58 506.839
391 1 39.0404 8.58086 335 59.8478 880.863 528.567
392 0 42.0569 10.248 431 58.1647 881.784 529.107
393 0 44.0476 10.2616 452 58.7013 882.312 525.615
394 0 42.114 9.9017 417 60.3453 882.417 526.77
395 0 46.0102 11.3018 520 58.6942 881.912 523.817
396 0 49.0348 10.9922 539 58.7106 881.878 525.885
397 0 50.0271 11.8336 592 58.0811 882.292 524.434
398 0 53.0426 9.86001 523 59.914 882.6 525.547
399 0 51.0539 13.378 683 57.4934 882.346 522.845
400 0 53.0442 10.5384 559 59.8283 882.8 521.907
401 0 55.0672 13.1657 725 56.7255 882.818 520.309
402 0 56.0419 11.7055 656 58.5076 883.035 521.934
403 0 58.0657 12.1587 706 57.9164 882.853 519.677
404 0 60.102 12.146 730 58.289 882.356 517.908
405 0 61.0482 11.7448 717 58.9707 882.293 517.845
406 0 62.1076 13.38 831 57.651 882.466 516.402
407 0 65.0919 11.1381 725 59.0041 882.746 519.033
408 0 67.2382 11.7642 791 59.0038 883.13 516.341
409 0 68.0765 11.5458 786 59.3931 883.078 514.999
410 0 70.132 11.2645 790 59.8152 882.623 515.337
411 0 72.1695 12.2351 883 59.265 882.613 512.204
412 0 77.0739 12.261 945 58.528 882.623 512.886
413 0 77.1636 10.9248 843 60.3274 882.66 512.647
414 0 80.1174 12.7313 1020 58.4559 882.47 512.79
415 0 82.0553 11.736 963 59.9564 882.4 508.593
416 1 37.1203 8.89002 330 62.1212 882.294 530.455
417 0 42.0847 11.7145 493 59.5903 882.617 528.144
418 0 44.1067 10.656 470 59.3979 882.243 530.506
419 0 44.0349 11.3319 499 60.3186 882.561 528.028
420 0 45.0458 11.7436 529 59.3913 882.04 527.03
421 0 46.0599 11.0725 510 60.7784 882.459 524.743
422 0 46.0468 9.72924 448 61.75 882.083 526.75
423 0 49.031 11.9312 585 59.2034 882.373 524.315
424 0 50.1345 13.4638 675 57.5674 882.173 524.421
425 0 53.0527 11.7242 622 59.4823 881.455 520.442
426 0 52.0353 10.9157 568 60.4736 882.055 523.56
427 0 56.0766 11.2168 629 60.4785 882.706 520.809
428 0 56.0898 11.642 653 60.2358 882.522 519.565
429 0 58.0487 10.8013 627 60.1818 882.963 522.833
430 0 61.0582 15.1822 927 56.5491 882.984 517.927
431 0 62.095 11.5146 715 60.5469 883.242 517.273
432 0 65.0418 12.8533 836 59.427 882.299 515.055
433 0 67.0498 13.2886 891 58.7306 882.497 515.888
434 0 71.0635 13.8186 982 58.3778 882.532 514.455
435 0 71.0966 12.7995 910 60.2956 882.182 514.126
436 0 76.2467 12.2235 932 60.5461 881.867 512.232
437 0 76.148 12.4363 947 61.2492 882.42 512.458
438 0 76.0817 12.1711 926 62.4492 882.504 511.108
439 0 81.0794 11.5072 933 62.717 882.054 509.625
440 0 83.199 13.5458 1127 60.9166 881.74 509.619
441 1 42.0444 11.9635 503 62.4692 881.223 526.284
442 0 47.0627 11.8353 557 61.6176 881.093 528.77
443 0 48.023 11.7027 562 61.7989 881.13 528.167
444 0 49.0505 11.8245 580 62.1983 881.16 526.595
445 0 51.1156 11.3468 580 62.1431 881.091 526.122
446 0 52.0167 11.7847 613 62.9706 881.522 523.827
447 0 53.0441 11.9335 633 62.3428 881.515 523.711
448 0 55.0574 13.4768 742 60.6173 881.367 523.693
449 0 58.0439 11.2329 652 62.5583 882.032 523.683
450 0 55.1271 10.9021 601 64.4443 882.067 519.889
451 0 59.1698 9.6502 571 65.0123 881.566 521.151
452 0 63.0166 12.3936 781 62.1012 881.371 520.129
453 0 63.1683 11.7622 743 62.9879 881.358 521.445
454 0 65.0638 10.313 671 65.155 881.534 519.024
455 0 68.0527 12.5197 852 62.6761 880.725 515.843
456 0 71.1798 12.644 900 63.2867 881.328 515.274
457 0 71.042 11.7958 838 64.3926 881.192 512.652
458 0 76.0542 12.4779 949 63.5574 881.354 512.772
459 1 37.0144 8.6723 321 65.8224 881.368 529.86
460 0 41.0448 10.9636 450 63.5 881.82 529.258
461 0 42.0374 11.7039 492 63.3333 881.904 528.065
462 0 42.016 11.3528 477 63.7442 881.375 528.927
463 0 44.085 12.2037 538 62.9108 881.695 528.993
464 0 47.0371 11.0976 522 64.1475 881.508 527.098
465 0 46.051 9.90207 456 65.568 882.175 527.675
466 0 49.1073 10.5076 516 64.7267 881.517 526.901
467 0 51.0675 10.163 519 65.7823 881.36 526.83
468 0 53.1147 11.1457 592 64.3412 881.22 527.069
469 0 53.1217 11.1442 592 65.4882 881.027 523.382
470 0 55.0921 10.673 588 65.6207 881.043 524.874
471 0 57.0537 11.4278 652 64.8911 881.258 522.775
472 0 59.0699 11.3256 669 64.7294 881.155 522.943
473 0 60.1228 11.8258 711 64.1266 881.88 523.345
474 0 61.0952 12.2432 748 64.8061 881.611 520.592
475 0 63.0748 13.0004 820 63.7915 881.211 519.948
476 0 65.0347 10.9788 714 65.8571 881.291 519.815
477 0 67.0349 11.9788 803 65.2428 881.583 518.721
478 0 70.0815 11.6721 818 65.4218 881.126 517.311
479 0 72.0501 12.4219 895 64.1777 881.627 515.555
480 0 75.0926 12.2915 923 64.2936 881.046 516.71
481 0 75.1351 11.9252 896 65.4051 881.235 513.85
482 0 79.0568 13.5472 1071 63.0887 881.57 513.689
483 1 40.0361 11.9892 480 62.7146 881.856 532.16
484 0 40.0342 11.8649 475 63.4737 881.832 530.688
485 0 41.0756 10.8824 447 64.528 881.756 531.174
486 0 41.0842 12.5596 516 62.6783 881.88 530.798
487 0 42.032 10.9916 462 65.3182 881.548 529.015
488 0 45.0761 12.3569 557 63.1544 881.131 529.42
489 0 46.0873 11.3263 522 64.4234 881.95 527.941
490 0 46.063 10.6593 491 65.7699 880.943 527.988
491 0 47.0364 10.8427 510 64.6098 881.151 529.441
492 0 51.1056 11.5447 590 64.2831 881.136 526.551
493 0 52.0806 10.503 547 65.1481 881.83 526.106
494 0 52.0802 9.38936 489 65.7669 881.098 527.096
495 0 55.262 12.5765 695 63.059 881.295 523.676
496 0 56.0313 11.7434 658 63.7933 881 525.044
497 0 57.0402 12.0266 686 63.7886 881.28 523.663
498 0 60.1109 10.2311 615 65.2829 881.486 524.483
499 0 59.0922 10.8475 641 66.3089 880.651 520.713
500 0 64.0582 11.8954 762 63.7336 880.936 523.076
501 0 65.0916 12.8588 837 63.2043 880.36 520.795
502 0 66.0833 12.3178 814 64.4681 880.541 518.681
503 0 67.0693 12.2411 821 64.5201 880.872 519.837
504 0 70.2195 11.5495 811 65.9815 880.804 514.477
505 0 74.0797 12.77 946 63.7822 881.129 515.429
506 1 34.0202 8.70071 296 66.5777 881.132 534.878
507 0 36.0285 11.9072 429 63.7855 880.783 531.79
508 0 37.035 11.2326 416 64.6538 880.075 530.748
509 0 38.0975 11.2081 427 64.6745 880.581 530.412
510 0 39.053 10.7546 420 65.0476 880.971 530.7
511 0 41.0233 12.3345 506 63.3241 880.644 531.482
512 0 41.123 12.8395 528 63.4186 880.625 529.78
513 0 41.0891 11.2439 462 65.7035 881.024 530.738
514 0 45.0345 11.3469 511 64.7339 880.675 530.826
515 0 45.035 11.3245 510 65.3059 881.308 527.751
516 0 48.0695 11.9619 575 64.2122 881.216 528.363
517 0 48.0297 11.9926 576 64.7222 881.278 526.486
518 0 47.027 10.696 503 67.2843 880.489 527.779
519 0 51.0671 10.6918 546 66.3828 881.571 528.267
520 0 51.1046 11.5645 591 66.6007 881.162 525.809
521 0 54.0466 12.0267 650 65.5969 881.503 525.369
522 0 55.0773 12.0558 664 66.0181 881.36 525.164
523 0 56.1378 10.7592 604 66.8245 881.311 526.654
524 0 58.2041 10.5835 616 67.6153 881.607 522.974
525 0 61.1243 11.2557 688 67.0901 881.451 520.211
526 0 63.1202 12.0881 763 66.3683 881.182 519.726
527 0 67.0567 11.96 802 65.6185 880.358 519.94
528 0 68.1217 12.0079 818 65.6296 880.576 521.117
529 0 71.0326 13.2615 942 64.5796 880.95 517.497
530 1 35.0189 11.7936 413 65.1671 881.354 535.126
531 0 37.0344 10.4767 388 67.3402 881.735 533.343
532 0 38.0358 10.4375 397 66.0403 881.186 535.642
533 0 37.0592 10.8475 402 67.0597 880.983 531.955
534 0 40.1625 11.0551 444 65.6734 881.007 532.881
535 0 42.0175 12.1616 511 64.2211 880.853 532.562
536 0 42.0439 11.488 483 66.0683 880.965 530.203
537 0 46.0364 11.5126 530 65 881.289 529.689
538 0 47.0278 10.9722 516 65.5678 880.926 527.866
539 0 47.1117 11.5258 543 65.5359 880.67 526.134
540 0 47.0278 11.9079 560 65.6786 880.329 525.998
541 0 49.0286 11.1976 549 65.4281 880.423 527.115
542 0 52.0938 12.5735 655 63.4427 880.527 525.98
543 0 53.0368 11.954 634 64.8328 879.979 523.838
544 0 54.0925 11.5543 625 64.8288 880.293 525.09
545 0 56.0372 10.6358 596 66.3322 880.51 521.537
546 0 61.108 12.6825 775 62.8026 880.303 523.566
547 0 59.0943 12.5562 742 64.4218 880.36 521.66
548 0 61.0736 10.692 653 66.7534 880.141 518.156
549 0 63.0776 11.1291 702 66.6709 879.989 518.359
550 0 67.1126 12.1289 814 65.2862 880.495 517.423
551 1 32.0808 11.4399 367 64.2153 880.706 535.55
552 0 35.0794 11.2317 394 63.901 880.145 535.873
553 0 32.0749 10.2261 328 66.75 880.482 535.061
554 0 34.0545 10.1308 345 67.629 880.797 533.67
555 0 35.09 9.63238 338 68.3609 881.115 530.716
556 1 77.2062 10.7116 827 69.532 880.514 511.917
557 0 83.1954 12.9334 1076 66.7444 880.793 510.328
558 0 84.0815 12.8328 1079 67.278 880.146 508.427
559 0 87.3132 12.0715 1054 67.7742 880.139 510.591
560 1 43.0589 11.2869 486 66.858 880.938 530.239
561 0 45.0197 11.8837 535 66.1421 879.535 529.174
562 0 46.1343 11.8784 548 66.115 879.754 528.962
563 0 47.0898 11.4887 541 66.5508 879.889 528.373
564 0 48.0305 12.7003 610 65.7525 879.921 527.356
565 0 50.0518 11.9276 597 65.7253 879.727 525.727
566 0 51.0409 11.383 581 65.8985 880.759 527.203
567 0 54.0977 11.812 639 65.3521 880.895 525.844
568 0 57.0245 13.012 742 63.942 880.26 524.131
569 0 57.0452 10.8335 618 66.7767 880.078 522.833
570 0 59.0585 11.7003 691 65.754 880.373 521.997
571 0 61.0651 12.282 750 65.2133 880.267 521.492
572 0 64.0474 11.9911 768 65.8789 880.647 520.061
573 0 63.0729 11.3678 717 67.5356 880.788 518.975
574 0 67.1636 11.7623 790 66.5342 880.92 518.004
575 0 67.1073 9.44756 634 70.4306 880.517 517.246
576 1 34.066 10.3916 354 67.1554 880.203 532.743
577 0 37.0662 9.90121 367 66.8801 879.708 532.896
578 0 38.0444 10.9083 415 65.9446 881.169 531.773
579 0 39.0701 11.569 452 63.958 881.1 533.768
580 0 41.0779 12.5372 515 63.7689 881.788 530.821
581 0 43.1472 10.4758 452 65.9624 881.5 531.164
582 0 44.0937 11.2488 496 65.1694 882.302 529.262
583 0 44.0866 11.6589 514 65.4572 882.243 528.202
584 0 44.0308 9.10726 401 68.5087 882.155 528.628
585 0 48.0737 11.94 574 63.9111 881.706 528.2
586 0 47.0396 11.2033 527 65.7894 881.556 526.596
587 0 50.0251 10.6147 531 66.7797 881.407 525.322
588 0 52.0492 10.8551 565 65.6761 881.152 524.287
589 0 54.1082 10.6269 575 65.4157 881.123 525.426
590 0 55.0627 11.0783 610 65.4475 881.211 523.521
591 0 56.1015 11.0871 622 65.3537 880.442 522.264
592 0 56.044 10.6702 598 66.3846 881.1 520.719
593 0 60.1175 13.1409 790 62.5772 880.98 518.686
594 0 63.124 11.8814 750 62.824 880.841 519.657
595 0 65.1388 11.7595 766 63.3211 880.815 517.086
596 0 65.1082 11.4425 745 63.8685 881.201 514.891
597 0 67.0522 12.0951 811 62.6732 881.199 515.793
598 0 69.1458 11.8301 818 62.7384 881.719 513.306
599 0 72.1485 9.78538 706 65.0312 881.613 511.494
600 0 74.0772 11.7715 872 62.9037 882.037 512.563
601 0 76.0609 10.9912 836 64.2117 880.658 507.091
602 0 79.0966 12.1244 959 62.8634 881.242 507.865
603 1 41.0634 9.8628 405 62.1704 881.363 527.289
604 0 40.0251 10.0187 401 62.5935 881.299 526.803
605 0 45.0335 9.3708 422 63.0355 881.28 527.81
606 0 46.0793 9.85257 454 62.4427 882.007 526.053
607 0 46.0236 9.42995 434 63.9124 881.73 524.306
608 0 48.168 9.42535 454 63.5 882.026 525.315
609 0 52.0719 11.2153 584 61.3356 881.517 523.06
610 0 51.0291 11.5424 589 61.343 881.778 522.91
611 0 53.0798 10.8139 574 62.1812 881.862 522.683
612 0 53.1489 10.6869 568 62.8662 881.697 521.343
613 0 58.1066 11.8575 689 60.5399 881.196 519.884
614 0 58.0664 11.0219 640 62.0625 881.467 519.155
615 0 62.0983 10.6283 660 61.8591 881.797 520.905
616 0 63.1391 12.5754 794 60.1071 881.64 518.387
617 0 63.0686 11.1307 702 62.1282 881.785 518.536
618 0 65.0867 11.4002 742 62.2534 881.121 516.301
619 0 66.0658 11.201 740 62.25 880.924 515.235
620 0 69.0682 10.9312 755 62.494 880.922 514.97
621 0 71.0503 11.5552 821 62.0633 880.811 513.326
622 0 74.1911 12.1848 904 61.0918 881.14 512.033
623 0 77.0851 10.1965 786 63.2506 880.776 511.333
624 0 81.0709 12.3102 998 60.9068 881.141 508.697
625 0 81.0645 10.5472 855 63.6667 880.991 506.791
626 1 41.0469 10.9387 449 61.4098 881.354 526.325
627 0 42.0146 12.4004 521 59.9674 880.858 527.171
628 0 41.0718 9.2034 378 64.0344 881.183 526.529
629 0 46.044 9.99044 460 61.6478 880.815 526.096
630 0 46.0755 10.2875 474 60.9789 881.321 525.819
631 0 48.0903 10.21 491 61.4705 881.387 524.12
632 0 50.0278 11.3937 570 60.0211 881.286 522.712
633 0 51.061 10.4777 535 61.2206 881.901 523.17
634 0 52.0489 10.567 550 61.1145 881.302 524.244
635 0 53.0849 10.8129 574 61.3397 880.859 520.082
636 0 56.0649 10.0954 566 61.1996 881.124 521.832
637 0 58.0377 9.59721 557 61.7253 880.066 520.452
638 0 60.0259 10.4122 625 60.5664 880.802 519.902
639 0 63.0635 12.0831 762 58.2362 880.979 517.739
640 0 63.093 10.6826 674 60.1528 880.818 516.215
641 0 64.0856 10.3924 666 60.8363 880.998 518.021
642 0 69.0734 13.4205 927 57.2729 881.197 514.441
643 0 70.0976 12.3114 863 58.6489 881.11 512.725
644 0 72.133 11.4372 825 59.7479 880.937 511.868
645 0 75.0487 12.9916 975 58.0072 881.581 511.329
646 0 76.1827 10.4223 794 61.2935 880.581 508.812
647 0 79.1365 12.1309 960 59.1573 881.386 508.225
648 0 83.1294 11.019 916 60.5852 881.524 508.231
649 1 40.0065 9.67342 387 60.8424 881.145 527.987
650 0 42.06 10.5563 444 59.5338 881.005 528.149
651 0 43.0434 10.2919 443 60.526 881.639 528.212
652 0 45.0291 10.5932 477 60.0503 881.01 527.876
653 0 44.0262 9.56249 421 62.4774 881.109 526.002
654 0 46.1085 10.9307 504 61.2698 880.623 524.274
655 0 47.1035 11.1669 526 60.9278 880.365 523.43
656 0 49.0947 9.69554 476 62.0777 880.853 522.571
657 0 52.148 12.6371 659 58.7678 881.686 524.42
658 0 52.0713 10.332 538 62.2007 881.444 521.794
659 0 55.144 12.6215 696 59.2917 880.795 520.315
660 0 57.0795 11.5803 661 60.525 880.974 519.958
661 0 57.1435 13.5974 777 58.4183 881.35 519.637
662 0 59.1551 11.5121 681 61.0514 880.517 519.298
663 0 62.0766 11.8241 734 60.3597 880.999 518.753
664 0 63.0983 11.5534 729 61.6132 880.285 516.587
665 0 66.0675 11.1401 736 61.0815 881.067 517.529
666 0 66.0369 10.5699 698 62.351 880.924 514.54
667 0 71.0469 13.4277 954 58.6017 880.28 515.899
668 0 73.1572 12.644 925 59.8843 881.082 511.595
669 0 77.2635 13.1239 1014 59.0552 880.762 511.315
670 0 78.0805 12.1413 948 60.3597 881.568 511.709
671 0 81.1345 12.128 984 60.2459 881.346 510.59
672 0 81.1096 11.4783 931 61.1547 881.475 509.902
673 0 84.1109 11.6037 976 60.792 881.534 505.974
674 0 87.1165 10.1588 885 62.2407 880.845 507.277
675 0 90.1413 11.4709 1034 61.5977 881.318 501.809
676 1 47.0554 12.0496 567 58.9647 881.27 523.219
677 0 48.1117 11.4733 552 60.2482 881.851 523.527
678 0 50.0879 8.5849 430 62.8884 881.898 525.753
679 0 53.0724 12.0213 638 59.2273 881.702 522.205
680 0 52.0561 11.1995 583 60.2659 881.254 524.089
681 0 56.2453 12.4277 699 59.2861 881.961 520.379
682 0 57.1788 12.8544 735 58.9769 881.928 520.199
683 0 58.135 10.0456 584 61.536 882.262 522.887
684 0 60.0664 12.2032 733 59.6589 881.337 519.523
685 0 62.0467 12.3778 768 59.5977 881.255 518.224
686 0 64.0789 12.7187 815 58.3264 881.702 520.169
687 0 67.1234 13.2592 890 58.8506 882.048 515.775
688 0 68.0454 12.4917 850 60.1129 881.771 515.084
689 0 70.1606 11.3169 794 61.8413 882.098 513.853
690 0 72.0941 11.3602 819 61.2405 882.046 511.446
691 0 76.105 10.9454 833 61.4766 882.01 513.125
692 0 79.0827 12.4047 981 60.371 882.071 511.507
693 0 81.0861 12.3326 1000 60.117 881.51 510.193
694 0 83.123 11.7898 980 60.8357 882.009 507.483
695 1 41.068 9.35034 384 61.4974 881.086 529.865
696 0 43.0514 10.3597 446 60.8632 880.767 529.594
697 0 44.1012 10.0678 444 61.4459 881.538 528.939
698 0 46.0731 11.612 535 60.8654 881.439 525.333
699 0 46.0804 10.0694 464 61.944 881.429 527.959
700 0 49.0549 11.1508 547 60.9653 880.797 525.715
701 0 52.0348 13.6063 708 57.5819 881.157 525.908
702 0 52.1554 12.5778 656 59.7302 881.517 521.491
703 0 53.0491 12.5921 668 60.2665 880.316 520.677
704 0 56.1332 11.2946 634 61.3013 880.17 522.289
705 0 58.0258 12.3566 717 60.1576 880.483 520.272
706 0 59.0575 11.2941 667 61.099 880.315 522.585
707 0 59.0942 11.5917 685 61.2964 880.689 521.079
708 0 62.0768 12.4684 774 60.2145 881.262 517.473
709 0 64.1821 13.8201 887 58.7114 881.468 518.648
710 0 67.1258 12.6926 852 60.5775 880.741 517.141
711 0 68.0287 12.2448 833 61.6591 881.08 513.17
712 0 71.1442 11.7648 837 61.4767 880.76 515.513
713 0 73.21 13.1813 965 60.0197 881.264 513.977
714 0 76.2164 11.9397 910 61.3956 880.426 511.131
715 0 79.1806 11.5938 918 61.7974 881.003 510.312
716 0 82.2615 12.2536 1008 61.0367 881.393 509.493
717 0 82.1698 11.5736 951 62.3155 880.656 509.257
718 0 86.0737 12.8262 1104 59.9946 880.905 509.625
719 1 46.1842 11.1943 517 59.971 881.13 529
720 0 45.0675 10.7616 485 61.8804 881.142 526.744
721 0 47.0767 12.0867 569 60.5483 880.508 526.286
722 0 49.1134 12.013 590 59.6356 880.663 527.037
723 0 49.0789 12.2252 600 60.7217 880.567 522.883
724 0 51.0336 12.6387 645 59.7659 880.442 524.264
725 0 54.1122 11.7903 638 59.8981 880.564 524.386
726 0 55.063 14.0566 774 57.4406 881.074 523.45
727 0 56.1107 11.5308 647 60.4683 881.121 522.75
728 0 56.068 11.272 632 60.9794 880.956 522.073
729 0 60.0895 10.9836 660 60.6485 881.145 521.526
730 0 63.0931 12.2676 774 59.0633 881.375 521.43
731 0 63.0682 13.0177 821 58.9208 881.417 518.755
732 0 61.1021 10.8343 662 62.2795 881.701 519.515
733 0 66.0721 12.3502 816 59.9975 881.453 519.626
734 0 68.0812 13.0579 889 59.0236 881.002 518.201
735 0 71.1407 13.1008 932 58.7811 881.286 517.586
736 0 73.0808 12.5067 914 59.7779 881.643 516.633
737 0 76.3095 15.3192 1169 56.6681 881.456 514.427
738 0 75.3032 9.82694 740 62.9554 881.739 513.178
739 0 79.3908 10.7317 852 62.1444 882.165 513.131
740 0 80.1161 11.4084 914 61.8556 882.54 510.309
741 0 83.0836 12.1203 1007 61.2056 881.972 506.868
742 1 40.0609 9.83503 394 60.2284 881.914 532.873
743 0 44.1386 10.5803 467 60.4625 882.062 527.807
744 0 43.1194 9.99551 431 62.1972 880.791 526.974
745 0 45.2208 10.9684 496 61.4577 881.29 525.554
746 0 49.0497 11.5597 567 59.7231 881.626 527.444
747 0 47.1391 11.307 533 61.6642 881.801 524.869
748 0 51.1281 11.0116 563 60.0195 881.989 526.54
749 0 54.1309 11.3798 616 60.1266 882.24 524.024
750 0 54.0796 11.3536 614 60.3485 881.637 522.596
751 0 57.1317 11.8673 678 57.6873 882.209 525.953
752 0 57.0893 11.7885 673 59.1976 881.236 522.703
753 0 59.0606 12.9528 765 58.1817 881.549 520.429
754 0 60.2674 10.47 631 60.5689 881.192 521.7
755 0 63.238 13.2041 835 57.3641 881.556 520.315
756 0 64.1489 12.1436 779 58.6906 881.367 518.927
757 0 66.1 13.767 910 57.1615 880.955 515.974
758 0 67.2587 11.0915 746 60.0349 881.324 517.174
759 0 70.2852 11.1972 787 60.0508 881.163 515.771
760 0 72.1265 13.4902 973 57.5355 880.459 514.301
761 0 74.2385 12.8505 954 58.7987 880.926 513.563
762 0 77.0965 11.985 924 60.0996 881.844 511.613
763 0 77.1419 10.6816 824 62.1978 882.004 508.607
764 0 79.0571 11.8269 935 61.5037 881.997 507.364
765 0 83.2121 11.9935 998 61.3928 881.426 507.451
766 1 42.0569 10.4858 441 58.2585 881.655 528.596
767 0 42.0614 9.72389 409 59.0342 881.729 527.67
768 0 44.1823 10.0719 445 58.0494 881.726 529.51
769 0 45.0402 10.8348 488 58.4467 881.971 527.639
770 0 47.0852 11.0863 522 57.1648 881.856 527.728
771 0 47.0554 10.647 501 57.9002 882.271 527.413
772 0 50.0984 10.6191 532 58.109 881.669 526.289
773 0 49.125 9.56744 470 58.6723 881.715 527.881
774 0 53.1122 11.6358 618 56.8414 881.218 525.455
775 0 51.0667 10.1436 518 59.4305 881.125 524.871
776 0 57.1089 10.7514 614 56.3876 881.63 525.935
777 0 59.1342 12.497 739 55.6089 881.116 521.782
778 0 59.1034 11.3361 670 56.8403 881.922 519.646
779 0 60.0641 8.22455 494 59.4899 881.964 523.619
780 0 62.1433 8.94707 556 59.714 881.586 520.426
781 0 63.1002 9.25512 584 60.1045 881.253 516.152
782 0 65.0604 9.34516 608 59.9112 881.12 517.176
783 0 68.1106 11.2024 763 57.8519 881.602 517.418
784 0 72.0843 11.0149 794 58.0668 881.622 515.717
785 0 72.1247 9.24787 667 59.8786 881.75 516.568
786 0 74.1948 9.70418 720 60.0069 881.847 512.919
787 0 77.0944 10.2601 791 59.6966 881.436 510.891
788 0 79.1726 11.2413 890 59.1663 881.388 507.191
789 0 81.0909 9.65583 783 61.341 880.773 510.411
790 0 86.1636 10.8515 935 59.7005 880.16 509.978
791 0 83.2295 8.32637 693 63.1631 880.747 503.268
792 1 45.2248 8.2698 374 59.2807 880.917 528.136
793 0 43.0527 7.10756 306 60.4118 881.438 529.359
794 0 48.107 8.54345 411 58.7932 882.007 529.124
795 0 48.0884 7.9229 381 60.8871 881.68 524.543
796 0 50.1008 10.399 521 58.2131 881.555 526.031
797 0 52.0945 8.73413 455 59.3604 881.404 526.956
798 0 53.0901 9.53096 506 58.7213 881.356 524.208
799 0 56.0669 9.41732 528 58.4886 881.339 522.587
800 0 57.0933 8.59996 491 58.613 881.552 525.375
801 0 57.1332 8.33141 476 59.7227 880.933 522.511
802 0 58.1072 9.43084 548 59.3412 881.162 521.078
803 0 60.0803 10.2363 615 58.0423 880.859 523.636
804 0 60.2123 6.94211 418 62.2225 880.866 516.172
805 0 64.107 8.68861 557 60.2065 881.054 515.628
806 0 66.093 7.2171 477 62.153 880.916 516.205
807 0 67.1953 9.52447 640 60.2266 880.742 513.578
808 0 71.0621 10.0335 713 59.9734 881.041 513.414
809 0 74.0806 10.7451 796 58.8078 881.107 512.22
810 0 75.0665 8.39256 630 60.9778 880.852 515.244
811 0 76.1494 10.6764 813 59.7368 881.192 512.21
812 0 79.2343 9.55394 757 61.1321 881.955 510.288
813 0 82.0709 10.0767 827 60.8416 881.596 506.175
814 0 84.2211 9.7719 823 61.582 881.204 510.629
815 0 87.2166 8.80567 768 63.1484 880.889 508.064
816 0 87.158 8.23792 718 65.5306 881.37 504.72
817 0 92.1827 8.25534 761 65.7043 881.555 504.325
818 0 93.2037 9.89231 922 65.4219 881.324 499.974
819 0 97.2401 9.98559 971 64.8229 881.444 502.447
820 0 100.193 10.9789 1100 63.93 881.221 502.579
821 0 101.168 9.00482 911 67.2558 881.484 498.047
822 0 102.181 7.4965 766 69.4648 881.043 493.396
823 1 52.0358 8.60946 448 63.4688 880.268 524.339
824 0 53.0333 9.46574 502 62.4422 880.496 523.01
825 0 55.114 8.40077 463 63.7797 880.795 524.644
826 0 55.0855 6.88022 379 64.971 880.712 524.42
827 0 58.0702 6.28549 365 65.4027 881.304 522.811
828 0 60.1482 8.64531 520 63.3942 881.488 518.642
829 0 61.1007 9.27977 567 62.1905 881.54 515.755
830 0 60.0564 5.84451 351 65.9943 881.735 514.519
831 0 59.0583 6.1634 364 65.5989 881.277 507.033
832 0 60.0477 6.79459 408 64.7525 881.35 510.042
833 0 62.0733 5.25185 326 65.5184 881.77 503.46
834 1 0 0 0 -nan 0 0
835 0 0 0 0 -nan -nan -nan
836 1 49.0472 3.75149 184 67.5054 881.516 497.549
837 1 30.0542 5.62317 169 66.5799 882.367 482.953
838 1 44.0354 6.8354 301 65.5382 881.841 489.213
839 1 28.0149 9.60203 269 64.2082 882.175 479.126
840 1 4 4 16 59 880.562 504.688
841 1 0 0 0 -nan -nan -nan
842 0 0 0 0 -nan -nan -nan
843 1 36.0169 5.49742 198 63.8838 881.354 520.197
844 0 44.0516 6.49238 286 62.9441 881.888 524.822
845 0 52.0629 8.77784 457 64.1619 881.974 474.379
846 0 52.0707 8.35403 435 64.6138 881.738 472.057
847 0 55.1416 9.77483 539 63.0278 882.171 470.675
848 0 57.0825 11.1418 636 61.7956 881.686 467.676
849 0 57.029 8.89021 507 64.2939 882.201 465.645
850 0 59.1088 9.72783 575 63.0244 882.04 465.092
851 0 60.035 9.67768 581 63.4148 882.363 461.2
852 0 45.1269 4.03307 182 66.7198 881.06 513.357
853 0 59.0854 7.90381 467 62.2441 881.773 513.587
854 0 64.0882 8.33226 534 61.558 881.511 516.341
855 0 64.1009 8.45542 542 61.6107 881.421 516.887
856 0 66.1313 8.96701 593 60.285 881.695 517.806
857 0 69.1556 10.4402 722 58.8463 881.194 514.765
858 0 71.1451 9.79688 697 59.9067 881.509 515.65
859 0 75.0996 9.9601 748 59.5361 881.683 514.54
860 0 77.0998 9.13103 704 61.2798 880.933 512.349
861 0 79.1235 9.04914 716 62.3198 881.577 512.081
862 0 82.1016 10.1216 831 61.1215 881.507 513.2
863 0 85.1143 10.7268 913 60.1194 880.174 512.754
864 1 40.012 8.37248 335 61.5075 881.209 530.988
865 0 42.052 10.7962 454 59.0683 881.313 527.544
866 0 45.0352 11.3245 510 58.6471 881.049 529.233
867 0 46.0519 9.55444 440 60.2545 881.207 528.223
868 0 47.048 9.43717 444 61.0968 882.293 528.185
869 0 50.0551 11.0678 554 58.6155 881.486 528.081
870 0 49.0713 10.2504 503 60.5785 880.899 525.256
871 0 51.0526 11.5763 591 59.3452 881.09 524.966
872 0 54.011 10.7015 578 60.3287 881.149 525.657
873 0 55.0303 10.576 582 60.354 881.357 523.813
874 0 56.0196 9.87155 553 61.0976 881.06 523.414
875 0 57.1246 10.2233 584 61.1918 880.757 521.969
876 0 58.0406 9.51059 552 62.5507 881.321 521.574
877 0 61.0817 11.4764 701 59.5478 881.99 519.362
878 0 59.0302 9.63913 569 61.7786 881.111 520.743
879 0 63.0835 10.1294 639 61.6854 881.343 517.923
880 0 64.0667 10.2393 656 61.404 881.695 517.578
881 0 66.0989 10.3481 684 61.7734 881.472 514.829
882 0 65.0791 10.2183 665 62.4752 881.238 512.866
883 0 68.0319 8.20203 558 64.457 881.654 514.548
884 0 71.1039 10.1401 721 62.724 881.172 510.452
885 0 71.1014 7.83388 557 65.3968 881.458 508.088
886 0 73.0507 9.76035 713 63.6648 880.924 509.836
887 0 78.1165 10.6764 834 61.9185 881.917 511.904
888 0 77.0249 4.77768 368 68.9294 881.696 497.274
889 1 50.0158 2.87909 144 71.9375 881.653 490.111
890 0 52.0332 6.45741 336 67.3899 881.357 487.039
891 1 62.1601 4.69755 292 70.024 881.695 487.887
892 1 51.0557 10.3612 529 63.1796 882.195 480.287
893 0 55.0948 8.5489 471 65.0531 881.361 479.947
894 0 55.0444 10.3371 569 63.0615 880.898 476.221
895 0 56.0493 10.1518 569 63.3269 880.072 475.854
896 0 56.0293 13.1003 734 60.391 880.732 471.584
897 0 58.1277 10.0641 585 63.6274 880.759 468.147
898 0 59.0817 10.2231 604 63.404 880.934 468.051
899 0 63.0502 12.149 766 61.1005 881.174 465.755
900 0 65.1235 9.32076 607 63.8451 881.478 463.056
901 0 66.0929 10.2886 680 63.0926 881.254 459.863
902 0 68.0543 9.77161 665 63.4857 881.516 456.508
903 0 67.0853 10.8519 728 62.6291 881.676 453.092
904 0 76.1094 5.09792 388 66.4562 881.637 480.219
905 1 0 0 0 -nan -nan -nan
906 1 24.0128 6.99626 168 60.1429 880.81 494.565
907 1 37.1163 6.3584 236 61.9195 881.085 497.945
908 0 38.0928 8.3743 319 64.4451 881.141 419.113
909 0 39.0484 5.65965 221 63.086 881.452 497.882
910 0 43.1015 8.58439 370 60.3297 881.424 495.624
911 0 41.0701 8.71681 358 61.0978 881.411 495.732
912 1 0 0 0 -nan -nan -nan
913 0 0 0 0 -nan -nan -nan
914 1 39.0656 8.88249 347 56.0922 881.876 534.072
915 0 37.0515 9.41932 349 56.5989 881.166 532.691
916 0 41.0277 10.3101 423 55.6288 880.629 532.972
917 0 42.0154 10.3296 434 55.7212 880.926 532.164
918 0 44.0504 8.8989 392 57.4541 881.076 528.763
919 0 42.1274 9.54247 402 57.8557 880.59 530.313
920 0 45.111 10.1306 457 56.5624 880.768 530.252
921 0 46.1117 8.91314 411 57.365 880.513 530.453
922 0 48.0598 10.8199 520 56.3654 880.419 525.737
923 0 49.1281 10.5439 518 56.222 880.149 528.135
924 0 50.106 8.34231 418 58.933 880.249 524.175
925 0 53.071 10.7215 569 56.0035 880.705 524.497
926 0 53.0668 11.0239 585 56.6462 880.78 523.687
927 0 54.0748 9.78275 529 57.4386 880.96 523.682
928 0 56.2233 9.48005 533 57.4278 880.747 523.664
929 0 58.0879 11.2588 654 56.5138 879.992 519.39
930 0 61.1633 9.51551 582 57.756 880.254 520.942
931 0 62.0853 11.5003 714 55.993 880.388 518.534
932 0 66.1376 11.3098 748 56.3783 880.451 516.682
933 0 65.1047 9.4156 613 58.0587 880.883 517.94
934 0 66.1277 9.16409 606 58.5825 880.743 518.333
935 0 71.2368 11.9741 853 55.6624 880.892 512.932
936 0 72.1217 10.5793 763 57.5256 880.76 512.708
937 0 73.1366 9.66684 707 58.5714 880.462 514.041
938 0 77.178 11.0524 853 57.1501 880.775 510.843
939 0 78.1149 11.0478 863 57.5828 881.072 509.437
940 1 38.0614 9.3533 356 57.8286 880.837 528.843
941 0 38.1192 6.84694 261 61.3103 880.609 526.433
942 0 42.0748 10.006 421 58.4157 881.088 528.632
943 0 42.0289 10.0169 421 58.2589 880.891 529.603
944 0 44.1185 10.1091 446 58.5134 882.043 528.695
945 0 43.0309 9.85339 424 59.0259 881.7 528.45
946 0 44.0214 10.1087 445 59.1214 882.043 526.4
947 0 46.039 9.55712 440 60.2636 881.734 525.9
948 0 46.0609 11.398 525 58.3371 882.389 527.295
949 0 49.2005 10.1828 501 59.6687 882.637 524.393
950 0 50.0203 10.7556 538 58.448 881.632 525.147
951 0 51.1002 9.72598 497 59.7143 881.821 527.151
952 0 54.0946 10.1304 548 59.062 882.86 523.495
953 0 52.0512 11.1813 582 58.8282 882.342 522.277
954 0 57.1152 13.0613 746 56.3338 881.905 521.729
955 0 55.1088 9.67178 533 60.9343 881.698 520.075
956 0 59.0479 11.804 697 58.6456 880.98 519.156
957 0 60.1757 11.1507 671 59.0343 882.06 520.393
958 0 63.1644 10.3698 655 59.7374 881.498 519.405
959 0 64.1744 10.565 678 60.3112 881.442 515.569
960 0 67.1877 11.7135 787 59.3634 881.257 513.408
961 0 71.2175 11.7949 840 58.5155 881.78 517.508
962 0 70.0698 10.4324 731 60.974 881.845 514.305
963 0 73.0865 11.6437 851 60.0635 882.163 514.679
964 0 78.0522 13.2476 1034 57.3704 882.19 514.25
965 1 38.0863 10.2136 389 59.3445 881.213 529.913
966 0 40.0689 10.432 418 59.0191 880.988 530.995
967 0 40.045 9.23961 370 59.8486 881.559 533.189
968 0 43.0304 10.2486 441 59.4354 881.526 529.449
969 0 44.014 11.201 493 59.071 881.949 528.051
970 0 44.0219 11.2217 494 59.3016 881.931 529.328
971 0 46.0186 9.69173 446 60.8184 882.188 528.527
972 0 48.047 10.1775 489 59.4785 882.01 529.945
973 0 49.0356 11.2775 553 59.4177 881.879 527.752
974 0 50.0401 10.7114 536 59.3246 881.819 527.198
975 0 51.0455 12.1656 621 57.8196 881.573 528.536
976 0 53.0331 10.2954 546 60.1832 881.714 525.401
977 0 54.0334 12.3072 665 58.5098 881.58 523.803
978 0 56.1038 11.4074 640 59.4797 881.839 525.877
979 0 56.0617 12.1116 679 59.4271 882.476 521.58
980 0 59.0761 11.7476 694 59.4193 881.601 520.896
981 0 59.0625 9.70159 573 61.2897 881.794 523.178
982 0 62.0711 11.5513 717 59.41 882.186 518.519
983 0 63.1356 9.97852 630 61.0619 881.827 520.87
984 0 67.0785 10.7188 719 59.9221 881.857 518.999
985 0 68.0688 10.3425 704 61.2884 882.22 515.259
986 0 70.1441 11.6902 820 58.5585 882.796 517.278
987 0 73.106 11.5859 847 58.8123 881.972 518.504
988 0 76.1031 12.6145 960 58.0854 882.156 513.157
989 0 77.1632 11.6118 896 59.0268 881.819 514.983
990 1 40.0671 9.2345 370 58.6405 881.784 532.724
991 0 41.0138 10.8988 447 57.7651 882.154 530.745
992 0 41.036 9.28453 381 59.3858 881.688 531.276
993 0 42.0249 9.51816 400 59.1775 882.86 528.682
994 0 44.0272 10.6071 467 58.1092 882.373 529.266
995 0 46.0173 9.49643 437 58.7346 882.339 527.924
996 0 47.0382 11.9477 562 56.8897 882.139 527.324
997 0 49.0664 9.96608 489 59.2802 882.609 529.174
998 0 50.0212 10.9354 547 58.6654 881.978 529.516
999 0 53.0869 10.6241 564 59.2004 881.177 526.457
1000 0 55.0832 12.1997 672 57.3066 881.5 524.543
1001 0 57.064 12.1618 694 57.2406 881.981 525.395
1002 0 57.1033 10.4547 597 59.5142 882.312 524.449
1003 0 60.0869 11.6831 702 57.7165 882.812 523.368
1004 0 62.113 10.4004 646 59.6238 882.022 522.825
1005 0 63.1105 12.5177 790 57.181 881.753 520.687
1006 0 64.0694 11.191 717 59.318 881.24 520.621
1007 0 67.1709 10.8827 731 59.5103 881.434 520.546
1008 0 67.08 10.7484 721 59.7601 881.327 520.822
1009 0 70.0408 10.808 757 59.6275 881.196 519.984
1010 0 72.1577 10.6988 772 60.0427 881.817 516.589
1011 0 75.0719 12.2682 921 58.1444 881.87 516.339
1012 0 75.07 11.7357 881 59.3314 882.246 515.314
1013 0 80.1533 11.7899 945 58.4825 882.035 515.898
1014 0 81.1554 11.632 944 59.429 881.416 513.798
1015 0 81.1388 11.0305 895 60.1598 881.912 509.545
1016 1 45.0329 9.94828 448 58.8036 881.585 533.304
1017 0 43.0226 10.2504 441 59.5873 881.58 531.274
1018 0 45.0583 11.6516 525 57.4552 881.985 532.726
1019 0 46.0475 10.0114 461 59.3774 881.427 531.395
1020 0 49.0644 10.9856 539 57.6308 881.453 531.432
1021 0 50.042 9.79177 490 59.8796 881.449 528.037
1022 0 52.1493 11.2562 587 58.3186 881.072 528.201
1023 0 52.1387 10.568 551 59.6552 881.319 525.655
1024 0 54.1672 11.4276 619 58.433 880.869 526.294
1025 0 58.1225 11.493 668 57.7395 881.416 527.264
1026 0 57.088 11.456 654 58.1498 881.443 526.358
1027 0 57.1561 9.58777 548 60.2737 881.066 524.513
1028 0 59.1227 10.233 605 59.6496 879.969 524.784
1029 0 62.0829 10.6148 659 59.1229 880.775 523.76
1030 0 68.0833 11.2216 764 57.6715 880.255 521.969
1031 0 67.0655 10.6612 715 58.5385 880.337 522.425
1032 0 70.1296 11.2934 792 57.947 879.828 520.23
1033 0 71.0886 10.8034 768 58.3294 880.356 516.237
1034 0 73.1154 11.1878 818 57.6834 880.276 515.557
1035 0 75.2338 9.23786 695 59.1842 880.419 517.088
1036 0 79.1397 11.3849 901 57.2131 880.013 514.532
1037 1 39.0483 10.6535 416 56.2163 879.668 532.897
1038 0 40.0268 8.3444 334 57.515 879.482 535.356
1039 0 42.0465 10.5122 442 56.552 878.683 532.188
1040 0 44.0734 8.41778 371 58.6523 878.491 530.763
1041 0 45.0772 10.2934 464 56.7004 878.476 532.429
1042 0 45.0328 10.6589 480 57.4938 879.56 532.429
1043 0 47.0331 9.84412 463 57.406 879.421 530.279
1044 0 51.079 12.7058 649 54.4453 879.556 528.633
1045 0 50.0214 8.65629 433 59.1501 879.206 526.284
1046 0 49.0371 8.68729 426 59.4601 879.11 525.106
1047 0 55.031 11.648 641 56.3869 879.41 526.661
1048 0 56.0924 10.0014 561 58.0588 879.619 527.068
1049 0 57.0326 9.17019 523 59.1778 880.507 527.57
1050 0 59.0755 11.3245 669 57.1973 879.468 525.714
1051 0 63.0631 13.9226 878 54.3747 879.738 525.074
1052 0 63.0363 11.6441 734 57.9183 879.154 523.531
1053 0 66.1362 12.0055 794 58 879.568 521.841
1054 0 66.0907 12.2105 807 58.4374 879.326 520.47
1055 0 71.0661 12.4251 883 58.1291 879.526 520.741
1056 0 70.0839 9.31741 653 62.0077 879.804 521.006
1057 0 73.079 12.4386 909 58.7327 879.828 518.751
1058 0 76.0576 11.6622 887 59.3472 879.945 518.365
1059 0 79.1597 11.7737 932 59.735 879.454 515.82
1060 0 81.1175 12.3278 1000 59.492 879.659 516.074
1061 0 82.1199 13.2976 1092 58.8086 880.106 516.548
1062 0 82.1895 10.9381 899 62.1635 879.25 516.317
1063 0 85.1901 10.3416 881 62.8524 879.918 514.496
1064 1 46.0614 12.0274 554 59.4513 880.148 534.549
1065 0 47.047 11.2441 529 60.8166 879.996 533.531
1066 0 49.0416 11.9286 585 59.8906 881.038 532.479
1067 0 50.0486 12.4679 624 59.2724 881.019 532.234
1068 0 52.0522 12.1225 631 60.0174 880.848 530.593
1069 0 50.0757 10.0049 501 62.8323 881.058 532.367
1070 0 52.0219 9.76512 508 63.3898 881.032 531.191
1071 0 57.134 13.7746 787 58.2122 880.98 527.976
1072 0 57.1231 11.1163 635 61.926 880.968 528.428
1073 0 57.0535 10.8495 619 62.5396 880.724 526.667
1074 0 63.0878 11.5553 729 60.3923 880.61 528.691
1075 0 64.0398 12.4454 797 60.005 880.467 526.594
1076 0 65.104 10.5523 687 62.0306 881.125 526.706
1077 0 69.0503 10.8472 749 61.6035 880.676 524.672
1078 0 69.1817 11.8095 817 61.4614 880.715 521.159
1079 0 72.0808 12.2918 886 61.0113 880.146 521.377
1080 0 76.1377 12.438 947 60.811 880.548 518.337
1081 0 76.0828 11.3298 862 62.9548 879.893 518.821
1082 0 82.1981 11.9346 981 61.5219 880.073 517.381
1083 0 80.0315 10.7333 859 63.83 880.41 514.984
1084 0 85.112 12.09 1029 62.0049 880.364 513.778
1085 0 85.1225 10.8197 921 64.1184 880.415 510.587
1086 1 45.0742 10.2276 461 62.1996 880.803 532.223
1087 0 45.0856 10.1806 459 61.7429 881.355 533.776
1088 0 47.1056 12.5463 591 59.4027 880.548 533.076
1089 0 47.0337 10.2692 483 62.6646 881.275 532.772
1090 0 50.1112 10.337 518 62.2954 881.068 531.286
1091 0 51.1128 10.3692 530 63.166 881.04 528.747
1092 0 54.1873 11.774 638 60.7351 880.893 528.453
1093 0 55.1323 12.8781 710 59.9084 880.746 525.41
1094 0 56.0244 12.673 710 59.9451 881.476 525.072
1095 0 58.0544 11.627 675 61.0074 881.64 525.723
1096 0 63.0613 12.2896 775 59.1858 881.261 525.023
1097 0 63.0495 10.8803 686 61.1079 881.292 523.026
1098 0 66.1169 11.4343 756 60.5728 880.483 521.168
1099 0 66.0435 12.4312 821 59.6212 881.088 518.887
1100 0 70.0919 11.0997 778 60.5951 880.778 520.105
1101 0 69.2107 11.0532 765 61.0314 880.021 517.684
1102 0 74.1043 11.4433 848 60.2642 880.329 518.159
1103 0 76.0592 11.2807 858 60.7762 880.362 516.53
1104 0 79.2255 12.5086 991 59.3461 880.312 516.487
1105 0 81.1274 11.3525 921 60.9902 880.48 514.687
1106 0 84.092 12.1177 1019 59.8479 879.902 511.522
1107 0 86.1305 11.2272 967 61.0083 879.666 510.707
1108 0 90.1647 12.1223 1093 60.0101 880.908 506.575
1109 1 47.0815 9.85524 464 59.4871 881.183 532.084
1110 0 49.2411 10.9461 539 58.1299 881.558 532.386
1111 0 50.075 10.9636 549 58.4608 881.481 530.59
1112 0 51.0842 9.82692 502 59.99 881.54 530.303
1113 0 52.0939 10.0588 524 60.3206 881.256 527.414
1114 0 55.1175 9.63396 531 60.9642 880.704 522.503
1115 0 57.0829 11.7723 672 58.4628 881.07 524.524
1116 0 57.0703 9.93511 567 59.6332 881.153 523.67
1117 0 60.0548 13.8041 829 55.0277 881.695 523.811
1118 0 60.0846 10.0359 603 59.3267 881.63 523.828
1119 0 65.0576 12.2661 798 55.921 880.685 522.778
1120 0 66.0431 12.2344 808 56.5953 881.228 518.412
1121 0 68.1576 12.0163 819 57.072 881.484 516.375
1122 0 70.0939 11.0994 778 57.5771 881.03 519.044
1123 0 73.13 10.0506 735 58.6313 881.167 518.23
1124 0 77.0687 11.0291 850 57.1635 881.713 516.355
1125 0 78.156 12.0016 938 56.5075 881.732 515.689
1126 0 81.1783 11.0128 894 58.2304 881.113 513.221
1127 0 83.0766 11.2667 936 58.0053 881.102 510.958
1128 1 44.2111 7.78086 344 57.4855 881.192 532.622
1129 0 45.0528 10.0993 455 55.9209 881.629 530.793
1130 0 47.0159 11.1452 524 54.8569 881.922 530.574
1131 0 47.042 9.60844 452 56.885 881.022 528.535
1132 0 51.0559 12.359 631 53.8384 881.65 529.2
1133 0 52.0574 10.2771 535 55.3252 880.723 529.441
1134 0 50.0486 8.5517 428 57.6192 880.97 529.467
1135 0 52.1356 10.0315 523 56.7744 881.285 523.572
1136 0 56.2809 11.2649 634 54.9968 881.033 525.167
1137 0 56.2038 9.91036 557 56.9354 880.984 522.971
1138 0 59.17 10.2248 605 56.1901 880.911 523.197
1139 0 62.0864 11.1458 692 54.7254 881.231 523.405
1140 0 62.067 10.3276 641 56.8284 881.084 520.211
1141 0 64.0611 10.5993 679 55.9205 881.523 520.1
1142 0 69.0767 12.6236 872 53.961 881.501 517.185
1143 0 68.2155 11.7275 800 55.1888 881.075 515.301
1144 0 69.1152 10.6055 733 56.7844 881.146 516.243
1145 0 72.1134 10.1091 729 56.8038 881.004 518.11
1146 0 75.2274 13.519 1017 53.3284 881.699 518.235
1147 0 78.1173 11.854 926 55.0983 881.092 515.302
1148 0 79.1334 11.2721 892 56.2937 880.641 512.67
1149 0 82.1157 10.6313 873 56.8236 880.759 512.911
1150 0 83.0735 11.6162 965 56.542 880.758 508.919
1151 1 39.143 9.65689 378 57.3333 880.989 531.397
1152 0 42.058 9.60578 404 56.854 880.465 531.602
1153 0 43.0494 10.4299 449 56.3898 881.056 530.902
1154 0 45.0792 10.2708 463 56.514 881.324 529.268
1155 0 46.0353 11.3608 523 55.8241 881.772 527.155
1156 0 47.0267 12.6099 593 55.199 881.29 525.191
1157 0 46.0439 9.40406 433 59.1524 881.296 524.85
1158 0 51.0502 12.3996 633 55.7093 881.553 526.882
1159 0 53.1446 12.2684 652 55.816 881.962 524.801
1160 0 54.0443 11.2315 607 57.0346 881.537 526.089
1161 0 55.0774 11.62 640 56.1 881.575 527.705
1162 0 59.0824 11.5601 683 55.6969 881.034 523.262
1163 0 60.0818 11.2846 678 56.7316 881.109 522.336
1164 0 62.032 12.5742 780 55.4013 880.887 521.399
1165 0 62.0707 11.9058 739 56.0041 880.911 521.157
1166 0 65.0952 11.8903 774 56.0452 880.789 519.267
1167 0 65.0292 11.5794 753 57.1673 881.689 516.876
1168 0 71.1199 12.95 921 55.0022 881.737 518.18
1169 0 72.1209 12.0492 869 56.1438 881.338 519.275
1170 0 76.1047 12.4959 951 55.7792 881.175 515.849
1171 0 78.2463 13.5853 1063 54.9229 881.47 514.885
1172 0 79.1316 12.3592 978 56.184 881.002 512.909
1173 0 82.2841 12.9308 1064 55.2603 880.794 513.363
1174 0 84.2157 11.1262 937 57.5294 881.237 511.602
1175 0 88.1935 12.4499 1098 55.7432 881.398 508.406
1176 0 89.1874 12.3784 1104 56.221 881.37 507.346
1177 0 92.1188 10.747 990 57.9495 881.773 507.089
1178 0 95.0649 11.9077 1132 57.205 881.9 501.101
1179 0 99.1269 10.3705 1028 58.7967 881.728 501.233
1180 1 47.0459 7.8434 369 57.6531 881.144 529.062
1181 0 50.1056 8.90121 446 57.4215 880.57 527.004
1182 0 50.0473 10.7898 540 56.3093 881.515 527.38
1183 0 53.0962 12.0348 639 55.3114 881.164 523.479
1184 0 57.0804 12.351 705 54.4199 881.438 524.722
1185 0 56.0727 12.0379 675 55.1304 881.225 523.341
1186 0 57.0158 12.0318 686 55.4111 881.15 522.389
1187 0 59.1093 12.7222 752 54.1529 880.895 521.176
1188 0 61.0711 11.0527 675 55.5067 881.068 522.985
1189 0 62.1008 10.5796 657 56.8904 881.559 521.03
1190 0 66.1031 12.3897 819 54.9951 881.43 517.256
1191 0 67.0133 10.6098 711 56.9564 881.097 518.458
1192 0 70.0712 12.3303 864 55.316 881.04 517.559
1193 0 73.1371 11.3759 832 56.2139 881.65 516.919
1194 0 72.0544 11.1721 805 56.8745 881.784 512.722
1195 0 77.1683 12.8162 989 54.0142 881.672 513.649
1196 0 79.0578 11.8141 934 55.4475 881.075 512.444
1197 0 81.2056 12.1666 988 55.2723 880.51 510.235
1198 0 83.11 11.7435 976 55.9314 880.467 510.654
1199 0 86.1037 14.889 1282 53.0499 880.775 510.308
1200 0 88.1997 12.3016 1085 55.8581 881.679 507.754
1201 0 95.1647 17.5801 1673 45.1458 881.017 512.775
1202 0 94.0969 12.2852 1156 55.9836 881.407 505.273
1203 0 97.2218 11.3041 1099 57.0537 881.603 506.116
1204 0 99.0503 11.4083 1130 57.3681 880.435 503.099
1205 1 52.0577 11.1991 583 54.4031 880.866 526.391
1206 0 53.1034 11.2987 600 54.7817 881.085 523.773
1207 0 57.2714 10.8606 622 53.5916 880.818 527.215
1208 0 56.0601 10.8812 610 55.1918 881.913 523.092
1209 0 57.1236 11.3613 649 54.2681 881.897 526.054
1210 0 60.1896 11.198 674 55.1128 881.067 520.755
1211 0 59.1247 9.9789 590 56.4475 880.547 520.924
1212 0 61.1756 10.9194 668 55.8623 880.84 521.234
1213 0 63.1193 10.8366 684 56.0088 880.876 522.206
1214 0 66.1175 10.1184 669 56.5456 881.685 522.016
1215 0 69.1679 12.9106 893 54.1747 880.854 516.595
1216 0 69.1519 11.8579 820 55.8756 881.099 516.452
1217 0 73.1223 10.5987 775 56.56 881.413 519.739
1218 0 74.0847 11.9323 884 55.7738 880.957 517.031
1219 0 75.1884 10.2675 772 58.0907 880.791 514.442
1220 0 78.0721 9.92672 775 58.0929 880.724 515.057
1221 0 81.1902 11.4053 926 56.9438 880.847 510.907
1222 0 83.1068 11.8041 981 56.7095 880.941 510.781
1223 0 86.1663 11.118 958 57.4144 880.774 510.977
1224 1 43.0196 11.0415 475 55.1116 882.013 532.261
1225 0 44.0537 10.7596 474 56.673 882.517 530.063
1226 0 46.1109 10.8434 500 56.104 882.584 530.33
1227 0 50.0647 10.9658 549 56.4299 882.872 528.036
1228 0 50.078 9.62498 482 57.9606 882.311 525.272
1229 0 52.1034 10.1529 529 58.1342 881.76 526.548
1230 0 55.105 10.0717 555 58.4559 882.202 523.798
1231 0 55.0611 10.0071 551 58.2287 881.855 527.642
1232 0 58.051 10.6458 618 57.9013 882.325 524.239
1233 0 58.0609 10.0067 581 58.5198 881.919 524.134
1234 0 59.0219 13.0121 768 55.4414 881.723 523.854
1235 0 61.0717 10.8725 664 57.9322 881.589 521.682
1236 0 61.0415 10.5338 643 58.5288 881.252 520.742
1237 0 66.0561 11.8838 785 56.5427 881.311 521.222
1238 0 67.0994 11.0284 740 57.4419 881.315 518.157
1239 0 71.1716 12.0132 855 56.2749 881.085 515.315
1240 0 73.0851 10.8093 790 57.3962 881.48 517.678
1241 0 73.1276 11.5962 848 56.6887 881.193 519.848
1242 0 73.0905 9.3309 682 59.9897 881.346 511.956
1243 0 77.1478 11.3808 878 58.0934 882.523 511.432
1244 0 80.1502 10.6176 851 58.7039 881.969 512.329
1245 0 83.072 11.9655 994 57.0754 881.306 512.07
1246 1 43.0222 6.92666 298 60.0738 880.879 531.081
1247 0 45.0286 11.5482 520 56.0462 881.788 528.027
1248 0 50.0565 11.0475 553 56.1013 882.282 527.477
1249 0 51.1343 10.3257 528 57.464 881.706 527.99
1250 0 49.0266 10.994 539 58.1224 881.913 525.254
1251 0 51.0581 11.105 567 56.6667 882.106 524.09
1252 0 53.1164 10.7876 573 57.3002 881.579 524.562
1253 0 55.0711 10.786 594 57.0168 882.237 524.113
1254 0 58.2132 11.2002 652 57.0123 881.652 522.926
1255 0 59.0555 10.8881 643 57.3033 881.759 522.268
1256 0 62.1686 11.0184 685 56.8073 881.407 522.044
1257 0 65.1447 13.3549 870 54.3851 881.505 519.243
1258 0 63.0646 9.91047 625 58.1664 882.064 519.485
1259 0 70.119 11.3521 796 56.1168 881.641 518.309
1260 0 69.1033 12.3728 855 56.1123 881.86 515.511
1261 0 72.1426 11.4357 825 56.7067 880.531 516.813
1262 0 75.1211 10.1303 761 58.0591 880.593 511.919
1263 0 77.1657 10.471 808 57.6708 880.978 511.25
1264 0 82.1034 14.0676 1155 54.1108 880.68 513.28
1265 0 81.0435 11.4136 925 57.52 881.304 511.966
1266 1 42.1795 9.19878 388 58.4459 882.309 532.098
1267 0 43.1055 11.5762 499 56.4589 882.19 530.88
1268 0 43.0979 11.7407 506 57.0553 882.071 528.245
1269 0 44.0414 11.6027 511 57.09 881.783 528.761
1270 0 47.0657 11.707 551 57.029 881.243 528.459
1271 0 48.0265 10.64 511 57.9824 880.761 527.794
1272 0 48.073 11.7738 566 57.1943 881.237 528.083
1273 0 49.0698 13.2261 649 56 881.211 526.079
1274 0 52.0363 11.3959 593 57.2715 880.821 529.449
1275 0 52.1871 12.9534 676 56.7515 881.274 526.126
1276 0 55.0846 11.673 643 58.1042 881.182 524.124
1277 0 56.0697 11.1112 623 58.5907 882.022 526.552
1278 0 58.1175 11.2875 656 59.0457 881.471 524.002
1279 0 60.0306 11.5774 695 58.7381 881.03 523.15
1280 0 61.1026 10.9979 672 59.9077 881.631 522.746
1281 0 61.1653 11.052 676 59.9512 880.442 523.354
1282 0 64.1601 11.1596 716 60.5475 881.351 517.278
1283 0 66.0453 9.75088 644 61.9224 880.807 517.026
1284 0 70.0616 12.3605 866 59.1028 880.975 517.666
1285 0 71.0464 11.4995 817 60 881.86 519.562
1286 0 73.091 12.3955 906 59.9945 881.894 514.287
1287 0 77.0994 11.8937 917 60.1887 882.348 515.63
1288 0 80.0805 11.6508 933 60.4116 881.132 514.866
1289 0 80.1196 10.8588 870 61.8874 881.831 513.549
1290 0 84.0366 10.3645 871 62.4501 881.699 509.79
1291 0 87.1397 11.0742 965 61.8114 882.35 507.933
1292 1 48.0525 8.74045 420 62.6071 881.664 531.719
1293 0 50.1591 10.6461 534 61.1685 881.092 529.378
1294 0 51.0799 10.9241 558 60.9749 880.387 528.188
1295 0 55.0414 11.5004 633 59.8215 881.065 525.52
1296 0 56.2768 11.9232 671 59.6587 881.779 526.721
1297 0 56.0598 10.2569 575 61.3426 881.033 523.81
1298 0 59.1855 11.6245 688 59.9549 880.837 521.314
1299 0 59.0426 10.3993 614 61.0309 881.081 523.42
1300 0 63.0847 12.19 769 58.593 881.451 523.815
1301 0 63.0981 9.47731 598 61.5351 881.339 520.726
1302 0 65.0814 9.38824 611 61.3519 881.668 522.169
1303 0 69.11 11.952 826 58.937 880.683 519.962
1304 0 70.1312 12.4196 871 58.0689 880.635 518.179
1305 0 73.105 10.9842 803 59.4047 881.715 517.872
1306 0 73.3071 10.4219 764 60.3848 881.343 516.308
1307 0 77.1918 10.4156 804 60.2463 881.791 514.292
1308 0 80.0616 10.5294 843 60.2444 881.579 510.307
1309 0 84.0895 11.0359 928 58.6175 881.168 513.843
1310 0 86.1595 10.8752 937 59.6094 881.386 509.548
1311 0 89.1243 13.0155 1160 57.3414 881.702 504.47
1312 0 93.1265 10.5233 980 59.5582 881.607 505.811
1313 0 95.1499 8.83868 841 61.5708 881.493 505.404
1314 1 48.0741 8.5701 412 60.3811 881.578 527.231
1315 0 48.061 9.17583 441 59.8526 881.313 527.81
1316 0 51.0753 10.6901 546 58.3114 881.026 525.306
1317 0 53.0203 11.9388 633 56.9321 881.068 526.218
1318 0 52.1 10.1727 530 58.9811 881.053 523.987
1319 0 56.1034 11.0154 618 57.9579 881.325 524.497
1320 0 59.1587 11.9847 709 56.5374 881.35 525.14
1321 0 59.0945 11.5239 681 57.4596 881.758 523.355
1322 0 60.0407 11.4422 687 57.9956 881.137 520.3
1323 0 62.0687 10.6978 664 58.7831 880.429 519.294
1324 0 68.066 11.959 814 57.1179 880.963 518.673
1325 0 69.0442 11.2971 780 57.8423 880.977 516.944
1326 0 70.0812 11.7293 822 57.4343 881.214 516.652
1327 0 75.1071 12.9149 970 55.6155 880.906 514.51
1328 0 76.0548 11.7678 895 56.8246 881.345 514.065
1329 0 78.1015 12.4838 975 56.238 881.227 511.4
1330 0 82.1354 13.1855 1083 55.7544 881.503 512.029
1331 0 83.1078 10.9978 914 58.2429 881.318 510.315
1332 0 88.1962 12.9031 1138 56.2074 880.927 510.207
1333 0 90.073 12.723 1146 56.5017 880.714 509.711
1334 0 92.1174 12.3864 1141 57.3637 881.443 507.34
1335 1 50.0182 13.1352 657 55.3531 881.804 527.898
1336 0 47.0475 9.77736 460 58.7 882.302 529.233
1337 0 49.0381 10.502 515 58.435 881.654 530.34
1338 0 53.0547 11.818 627 58.008 881.172 526.85
1339 0 54.0474 11.8785 642 58.2617 881.005 527.083
1340 0 55.0255 10.3588 570 59.621 880.933 526.549
1341 0 57.0912 11.9633 683 58.7204 881.209 523.035
1342 0 59.16 11.2238 664 58.7349 881.506 524.003
1343 0 62.0697 12.7115 789 57.2877 881.066 520.655
1344 0 62.0854 10.7433 667 59.5487 881.507 518.804
1345 0 65.1263 11.8078 769 58.3368 880.51 519.576
1346 0 67.1114 12.0397 808 58.4394 880.483 516.717
1347 0 71.1207 12.6264 898 57.6648 881.086 514.105
1348 0 71.0233 12.2073 867 58.3991 881.539 515.126
1349 0 74.1192 12.2236 906 58.3786 882.052 513.179
1350 0 77.1477 10.5771 816 59.7904 881.559 515.178
1351 0 79.0798 9.88875 782 61.234 882.531 513.348
1352 0 83.1438 12.2799 1021 58.9657 881.604 512.265
1353 0 86.1137 12.2629 1056 58.8134 880.835 511.626
1354 0 90.173 12.9529 1168 58.2842 881.423 510.354
1355 0 92.1994 14.4578 1333 57.0803 881.05 509.434
1356 1 46.1527 10.9419 505 60.1842 880.952 528.784
1357 0 47.3141 11.5822 548 59.6916 881.69 530.75
1358 0 48.0225 10.9532 526 59.9696 882.049 531.511
1359 0 51.0223 11.2108 572 60.1241 881.872 528.771
1360 0 53.1784 11.6401 619 59.3845 882.1 527.953
1361 0 51.1256 10.5231 538 61.9405 882.076 525.506
1362 0 55.0928 10.7092 590 61.8475 881.361 525.412
1363 0 57.1495 12.7035 726 59.2879 881.157 524.895
1364 0 59.1402 12.1068 716 60.1592 881.529 525.172
1365 0 60.0822 11.0182 662 61.2145 881.893 524.988
1366 0 62.0951 13.3827 831 59.0794 881.584 522.41
1367 0 65.3371 11.9381 780 60.3974 881.888 520.706
1368 0 64.1298 10.432 669 62.583 881.166 519.386
1369 0 68.203 12.4628 850 60.2941 881.506 519.822
1370 0 69.1549 12.2045 844 61.0557 881.563 519.941
1371 0 74.0924 12.1065 897 60.6934 881.949 520.585
1372 0 75.167 12.1064 910 61.4582 881.596 516.964
1373 0 75.1436 11.6577 876 63.0217 881.467 514.422
1374 0 81.1735 12.9476 1051 60.3939 881.139 516.97
1375 0 80.1906 11.6847 937 63.079 881.2 512.028
1376 0 85.2733 13.3922 1142 61.0841 880.997 512.301
1377 0 85.1805 11.7398 1000 63.532 881.277 510.808
1378 0 89.3534 13.262 1185 61.6911 881.062 511.949
1379 0 91.1174 12.4784 1137 63.4213 882.099 509.772
1380 0 93.2017 12.5105 1166 64.1312 881.207 508.074
1381 0 98.306 13.7021 1347 62.265 881.48 508.933
1382 0 98.2236 11.1175 1092 67.0989 881.282 505.649
1383 0 103.089 13.4156 1383 64.2328 881.022 505.43
1384 0 106.098 13.3838 1420 64.7 881.014 502.062
1385 0 108.12 13.337 1442 65.509 881.661 502.232
1386 1 56.063 11.2909 633 64.8483 881.774 528.594
1387 0 57.115 10.5927 605 66.1322 881.35 528.187
1388 0 59.0903 12.134 717 64.8898 881.819 528.614
1389 0 60.0449 12.9903 780 64.5487 882.442 526.59
1390 0 63.0613 12.4958 788 64.7208 882.286 527.769
1391 0 63.1003 12.2662 774 66.0724 881.236 524.026
1392 0 64.1201 12.1335 778 67.2429 881.384 523.906
1393 0 68.0223 13.7161 933 64.5702 881.632 520.591
1394 0 70.0964 11.8979 834 67.5863 881.729 522.11
1395 0 72.1742 12.3313 890 67.1674 881.66 520.076
1396 0 74.2186 12.7192 944 66.9619 881.963 517.861
1397 0 72.0513 10.9367 788 70.3134 881.607 517.975
1398 0 74.084 11.3115 838 69.8628 881.507 514.748
1399 0 77.0869 11.1952 863 69.9015 881.185 512.338
1400 0 75.045 12.3259 925 71.6043 881.203 514.964
1401 1 36.0344 10.3512 373 75.6273 882.201 534.367
1402 0 36.0223 9.04995 326 78.184 881.383 536.236
1403 0 35.0237 8.42286 295 81.2373 881.908 535.719
1404 0 38.0238 11.335 431 74.6009 880.673 493.253
1405 0 36.0634 10.1765 367 81.1308 880.749 534.06
1406 0 37.0473 10.1222 375 79.6933 880.733 532.053
1407 0 37.0156 9.23934 342 80.4708 880.863 532.202
1408 0 45.0553 11.7411 529 74.0378 881.078 489.333
1409 0 45.0749 13.0893 590 72.2085 881.353 487.834
1410 0 47.016 11.0388 519 74.8593 881.748 484.514
1411 0 49.0396 13.7032 672 70.5952 881.857 484.411
1412 0 49.0467 11.9478 586 72.6672 881.582 477.572
1413 0 49.0736 12.573 617 74.4749 881.339 479.744
1414 1 77.2142 9.18226 709 79.4796 881.45 486.439
1415 1 51.0666 13.688 699 74.6896 881.941 477.927
1416 1 77.1762 10.3141 796 80.5188 881.249 486.918
1417 0 72.0628 11.5732 834 78.9736 881.26 481.258
1418 0 81.1106 12.0083 974 78.7023 880.968 483.667
1419 0 82.0816 13.5719 1114 74.8402 880.693 477.72
1420 1 69.114 11.6764 807 80.539 881.226 473.498
1421 0 71.1223 10.7421 764 85.3743 881.466 475.911
1422 0 67.0351 11.1732 749 85.9506 881.328 473.013
1423 0 67.0392 8.69641 583 92.2127 880.357 470.252
1424 0 77.0941 7.35465 567 94.6614 881.437 479.82
1425 0 72.1135 10.0952 728 86.6937 881.654 462.155
1426 0 70.0579 12.9036 904 83.6726 881.647 462.75
1427 0 67.0906 11.0746 743 87.214 881.798 457.281
1428 1 48.0319 12.8665 618 92.3155 881.346 454.644
1429 1 128.307 15.0421 1930 79.4326 881.289 491.23
1430 0 127.277 14.7317 1875 80.8005 881.631 489.148
1431 0 135.272 16.7809 2270 75.7084 881.145 484.428
1432 0 133.238 17.0747 2275 77.5679 880.872 491.016
1433 0 128.637 14.5681 1874 71.238 881.008 481.944
1434 0 124.277 11.8687 1475 79.6115 881.47 491.374
1435 0 122.262 12.1542 1486 79.9838 881.655 491.867
