time division length width area intensity CMx CMy
0 0 36.0287 9.21487 332 61.6145 1189.64 529.834
1 0 37.0582 12.4129 460 58.0435 1189.5 527.246
2 0 37.0524 10.0938 374 61.0241 1189.55 528.497
3 0 37.0196 11.2103 415 59.8795 1189.04 529.966
4 0 37.0659 10.4678 388 61.4974 1189.05 529.505
5 0 39.0322 10.4785 409 61.555 1188.75 527.895
6 0 40.0653 11.9804 480 60.5792 1188.1 527.394
7 0 42.0441 12.0588 507 59.5483 1188.54 528.225
8 0 42.086 11.9992 505 60.4772 1188.92 528.252
9 0 41.0296 11.0164 452 62.4226 1189.54 528.734
10 0 44.0357 12.8078 564 59.8209 1189.25 527.246
11 0 43.0639 13.956 601 58.8968 1189.38 527.077
12 0 43.0542 12.1707 524 61.8664 1189.12 528.557
13 0 43.1001 10.3944 448 64.1451 1189.57 527.609
14 0 46.085 11.4571 528 62.7576 1188.39 528.061
15 0 46.1247 12.4012 572 62.1958 1188.17 527.28
16 0 48.0641 11.5887 557 62.8061 1188.14 529.185
17 0 45.0755 9.27332 418 67.1914 1188.61 527.622
18 0 49.0453 12.5394 615 62.5756 1188.88 525.834
19 0 48.099 9.87546 475 65.5032 1188.19 527.69
20 0 49.0915 12.8128 629 63.3943 1188.09 524.137
21 0 52.039 10.7996 562 64.9537 1188.25 525.484
22 0 51.1004 11.6829 597 63.7236 1187.67 525.397
23 0 56.1023 12.8159 719 61.9611 1188.68 524.834
24 0 54.1726 11.7956 639 65.0673 1188.09 522.602
25 0 57.2114 12.917 739 63.5548 1188.88 521.832
26 0 56.127 11.1711 627 65.8565 1188.92 523.01
27 0 59.0876 11.4068 674 65.7136 1188.61 522.843
28 0 60.0864 11.7497 706 66.2535 1187.62 519.459
29 0 64.1274 12.8338 823 63.5431 1189.07 522.694
30 0 64.1585 11.908 764 66.2749 1188.35 519.657
31 0 67.1386 12.6157 847 64.9268 1188.31 519.548
32 0 67.0945 13.1307 881 65.504 1188.31 517.653
33 0 69.2005 13.4537 931 64.8152 1189.15 517.516
34 0 70.0612 12.0609 845 67.0935 1189.25 517.865
35 0 73.08 11.9458 873 66.9381 1189.41 516.165
36 0 74.284 12.4118 922 66.4566 1188.6 516.668
37 0 77.0831 11.7276 904 68.9812 1189 512.708
38 0 77.1185 11.022 850 70.0306 1189.41 514.473
39 0 79.1225 14.0162 1109 66.0126 1188.88 513.454
40 0 82.2356 10.4456 859 69.8463 1189.85 515.282
41 0 83.1463 11.8105 982 69.1303 1190.07 511.863
42 0 85.1423 12.8373 1093 68.3257 1190.37 509.279
43 0 86.0578 12.8053 1102 68.9692 1189.74 508.331
44 1 152.228 14.1959 2161 68.6478 1190.05 475.838
45 0 156.283 15.5935 2437 66.3574 1189.66 476.276
46 0 158.208 12.8122 2027 70.2205 1189.96 475.547
47 0 163.317 12.7299 2079 70.4839 1190.15 474.75
48 0 167.377 13.2336 2215 69.8939 1190.37 475.303
49 0 171.272 14.007 2399 70.4185 1190.49 468.486
50 0 177.26 14.6226 2592 69.0289 1189.99 470.174
51 0 180.304 12.8061 2309 72.5842 1189.67 465.873
52 0 184.464 13.092 2415 72.3391 1189.71 462.04
53 0 189.185 12.8076 2423 72.969 1190.44 462.485
54 0 194.256 13.1836 2561 73.1484 1189.93 460.211
55 0 200.398 14.4513 2896 72.1948 1190.31 458.118
56 0 201.24 12.9547 2607 74.9843 1190.32 457.446
57 1 217.418 10.7305 2333 75.5799 1190.15 467.276
58 0 218.318 12.7474 2783 75.1728 1190.63 459.433
59 0 215.41 12.9381 2787 76.761 1190.95 450.295
60 0 223.329 12.8868 2878 77.2033 1191.15 448.4
61 0 228.336 13.9969 3196 75.6927 1190.1 447.882
62 0 235.251 14.1211 3322 76.2324 1190.1 441.77
63 0 239.45 13.9236 3334 76.9781 1190.11 439.47
64 0 246.325 13.5106 3328 77.0382 1190.23 441.596
65 0 253.59 14.7877 3750 75.6195 1191.3 440.567
66 0 257.243 13.7924 3548 79.1528 1190.25 432.909
67 0 262.461 13.5373 3553 79.4897 1190.45 433.675
68 0 269.404 14.4615 3896 79.5038 1190.59 425.892
69 1 217.402 13.6383 2965 81.7032 1190.59 447.676
70 0 222.4 13.7545 3059 80.9487 1190.01 449.286
71 0 229.314 14.8705 3410 79.4877 1190.2 444.763
72 0 235.332 14.6771 3454 80.3645 1190.51 439.595
73 0 240.269 13.7179 3296 81.5115 1190.5 439.365
74 0 245.44 13.8853 3408 82.3107 1190.13 435.453
75 0 250.254 12.7471 3190 84.2329 1189.48 435.675
76 0 260.526 13.3422 3476 82.8377 1190.6 433.311
77 0 267.494 13.9592 3734 82.6872 1190.06 424.774
78 0 275.59 15.1275 4169 81.4507 1189.91 418.781
79 0 283.277 13.9369 3948 83.2594 1190.4 420.393
80 0 290.365 15.6734 4551 81.3083 1190.86 412.215
81 0 298.252 14.3234 4272 84.2952 1191.24 407.714
82 1 260.475 13.1529 3426 85.58 1191.8 430.264
83 0 268.436 12.8112 3439 87.1559 1191.62 421.574
84 0 275.447 13.135 3618 86.7269 1191.4 425.013
85 0 282.529 11.2484 3178 90.5434 1191.22 421.54
86 1 246.291 14.5032 3572 85.0781 1191.34 434.314
87 0 255.585 14.0697 3596 86.5039 1190.97 426.354
88 0 264.537 13.3176 3523 87.9302 1190.81 419.6
89 0 270.343 13.0316 3523 88.899 1191.39 415.46
90 1 220.245 11.4464 2521 86.2527 1191.26 451.016
91 0 226.222 10.0565 2275 88.9952 1190.61 443.305
92 1 177.168 12.5982 2232 81.97 1191.63 463.887
93 1 135.083 12.1851 1646 82.9866 1191.54 481.54
94 0 140.154 12.315 1726 82.157 1191.96 481.689
95 0 143.147 11.4777 1643 82.7876 1191.73 476.226
96 0 149.239 12.4766 1862 80.9108 1191.11 474.328
97 0 155.148 11.8854 1844 81.2918 1191.09 472.258
98 0 160.225 12.7009 2035 80.0634 1191.28 470.059
99 0 165.131 12.5355 2070 79.6937 1191.24 465.518
100 0 170.159 11.4011 1940 80.7691 1191.13 467.71
101 0 175.151 12.3836 2169 79.965 1191.45 458.164
102 0 180.272 11.466 2067 80.4877 1191.63 464.108
103 0 185.179 11.848 2194 80.4047 1191.77 455.73
104 0 192.219 11.7158 2252 80.2793 1191.9 451.416
105 0 201.203 13.6926 2755 76.3147 1191.17 452.452
106 0 205.298 11.6513 2392 79.9574 1191.57 449.095
107 0 210.317 11.6253 2445 80.0143 1190.6 447.421
108 1 105.095 12.1414 1276 76.6983 1190.66 497.295
109 0 110.084 11.0915 1221 78.1843 1190.73 494.901
110 1 40.0462 11.7115 469 74.081 1191.03 528.642
111 0 40.0106 11.6469 466 73.8412 1191.12 529.453
112 0 44.0292 12.4236 547 72.5101 1190.91 525.112
113 0 44.0743 12.252 540 72.8148 1191.21 525.552
114 0 47.0186 12.5269 589 70.8014 1191.17 526.029
115 0 48.0291 12.7423 612 71.0507 1191.36 524.969
116 0 48.0354 12.5532 603 72.1808 1191.53 523.554
117 0 51.022 12.132 619 71.9079 1191.57 523.187
118 0 52.0452 12.0664 628 71.9045 1191.37 521.917
119 0 53.0394 11.3689 603 73.2007 1191.68 521.02
120 0 56.039 12.5448 703 70.6202 1191.4 519.925
121 0 57.0661 10.2863 587 72.4974 1192.04 522.003
122 0 60.14 12.6372 760 69.8092 1191.08 517.443
123 0 61.0399 12.6147 770 69.7312 1190.72 516.249
124 0 64.0592 12.7694 818 68.7433 1191.03 517.477
125 0 67.0524 13.3776 897 67.2497 1191.62 516.962
126 0 69.0649 13.6538 943 67.1877 1191.33 514.805
127 0 70.0883 11.9706 839 69.6877 1191.48 513.788
128 0 72.0881 13.8719 1000 67.82 1190.61 510.096
129 0 73.0873 12.3414 902 69.6696 1190.25 508.661
130 0 78.0851 13.6262 1064 66.454 1190.25 512.233
131 0 79.1481 12.205 966 69.8727 1189.43 507.093
132 1 40.0416 11.4131 457 69.1225 1189.67 526.652
133 0 41.0875 10.6602 438 70.4543 1190.02 526.251
134 0 42.0094 11.307 475 70.8147 1190.69 524.448
135 0 44.0851 11.7273 517 70.1141 1191.27 523.097
136 0 44.06 11.1439 491 71.4216 1191.44 523.114
137 0 47.0725 12.024 566 69.6678 1191.67 521.35
138 0 49.0579 11.7616 577 69.3276 1190.75 521.839
139 0 48.0507 11.1341 535 70.7271 1190.17 520.329
140 0 54.0517 13.4316 726 66.0744 1190.29 519.123
141 0 56.0501 11.9001 667 68.3718 1190.89 518.067
142 0 55.1398 11.4436 631 68.5468 1190.79 519.334
143 0 57.0159 13.2244 754 67.3634 1190.67 515.765
144 0 60.187 12.6273 760 67.2855 1190.38 515.003
145 0 62.1603 12.7252 791 66.5335 1190.68 514.561
146 0 64.062 12.9406 829 66.298 1191.23 512.292
147 0 65.1576 12.2779 800 67.6075 1191.23 514.11
148 0 69.0621 12.7422 880 66.1739 1190.51 512.223
149 0 70.0447 12.3207 863 66.7729 1190.97 510.407
150 0 74.0588 12.9897 962 65.9875 1190.62 508.038
151 0 73.1361 11.7042 856 68.3633 1190.81 507.946
152 0 77.0807 12.8177 988 66.9474 1190.22 506.099
153 0 79.13 12.8144 1014 67.1854 1190.18 504.831
154 1 39.0262 10.7364 419 67.938 1190.84 526.212
155 0 40.0636 12.1806 488 65.7541 1191.23 525.084
156 0 40.0429 10.4638 419 68.8115 1191.03 525.38
157 0 43.0159 12.0421 518 65.5444 1190.81 526.075
158 0 44.0797 12.9311 570 65.0912 1190.96 523.405
159 1 19.0114 4.3658 83 77.8313 1191.16 512.169
160 1 47.0619 12.6854 597 65.5796 1190.74 523.487
161 0 49.0531 13.1898 647 63.8872 1190.34 524.278
162 0 49.0326 13.44 659 64.8513 1190.89 521.417
163 0 50.0382 12.4905 625 66.1072 1191.51 521.278
164 0 53.0575 12.6278 670 65.7955 1191.32 521.002
165 0 54.1562 12.6486 685 65.6029 1191.33 519.69
166 0 53.1422 11.441 608 67.7303 1191.75 520.24
167 0 56.0308 12.9572 726 65.6625 1191.47 519.193
168 0 56.0487 12.507 701 67.1184 1191.87 517.385
169 0 59.0269 10.8256 639 68.7152 1191.54 516.889
170 0 61.0315 14.2877 872 64.7626 1191.46 514.52
171 0 63.054 14.6858 926 63.2775 1191.21 514.787
172 0 65.1699 13.2577 864 65.8588 1191.33 513.722
173 0 67.05 13.3632 896 65.5156 1191.49 513.683
174 0 69.0745 12.6385 873 66.0034 1191.43 513.434
175 0 69.0711 12.9432 894 66.4094 1191.32 509.984
176 0 72.14 13.3352 962 64.9636 1191.63 512.292
177 0 74.058 13.1789 976 66.0738 1191.03 508.275
178 1 39.0641 9.9324 388 65.4536 1191.34 529.237
179 0 41.0261 10.9199 448 66.1116 1191.13 526.04
180 0 41.0663 11.8589 487 64.6817 1190.36 526.702
181 0 39.0337 10.7855 421 68.1211 1190.55 524.696
182 0 42.0768 10.8848 458 66.5742 1191.07 525.301
183 0 41.1285 11.6464 479 67.5971 1190.5 523.079
184 0 44.0942 10.9311 482 66.5311 1189.84 525.454
185 0 47.0149 11.2943 531 65.6704 1189.98 524.953
186 0 47.0354 11.4169 537 65.9106 1190.05 523.905
187 0 51.1252 11.775 602 63.6312 1189.61 523.591
188 0 49.0167 11.4043 559 65.8014 1189.15 521.682
189 0 53.0755 11.5684 614 64.6222 1188.86 521.08
190 0 52.1082 12.2246 637 64.2606 1188.54 519.138
191 0 56.0448 11.9369 669 63.3513 1188.21 521.173
192 0 57.0261 10.8021 616 64.9545 1188.02 520.292
193 0 56.0624 10.524 590 65.7881 1188.41 518.942
194 0 57.1054 11.7502 671 64.386 1188.43 517.751
195 0 61.0577 12.9713 792 62.4293 1188.96 517.601
196 0 63.1206 13.1811 832 61.6346 1188.07 517.611
197 0 66.0428 12.8099 846 61.7719 1188.04 516.638
198 0 68.041 13.1832 897 61.5886 1187.59 514.987
199 0 69.0791 11.856 819 63.0403 1187.72 514.579
200 0 71.0655 10.9758 780 63.568 1188.04 513.013
201 0 74.1264 12.3168 913 62.5958 1188.76 512.387
202 0 76.0623 11.1882 851 64.0975 1188.12 511.992
203 1 40.0625 9.5351 382 62.9581 1187.88 531.385
204 0 40.0499 9.38828 376 64.4548 1187.45 529.287
205 0 42.0661 11.9574 503 61.4294 1187.63 530.06
206 0 43.0293 10.2024 439 63.7312 1187.92 530.699
207 0 46.0196 11.3865 524 61.9065 1188.1 530.401
208 0 46.048 9.46838 436 64.7615 1187.47 530.278
209 0 48.0222 11.7446 564 62.3298 1187.69 528.83
210 0 48.0753 10.0883 485 64.8454 1187.64 527.8
211 0 51.0429 13.283 678 60.1209 1187.04 526.72
212 0 55.0387 12.1733 670 61.091 1186.39 525.354
213 0 55.0578 12.2962 677 60.8715 1187.05 526.168
214 0 54.0615 11.006 595 62.926 1185.78 525.575
215 0 57.0715 12.3004 702 61.1467 1185.83 524.613
216 0 58.0563 10.1281 588 63.3435 1185.3 523.109
217 0 60.041 11.2756 677 61.9867 1185.38 521.934
218 0 64.0585 11.4427 733 61.2415 1185.8 521.158
219 0 64.0898 13.325 854 58.6312 1185.43 521.349
220 0 67.0571 9.79762 657 62.4688 1186.17 518.75
221 0 69.1212 12.0368 832 60.1154 1186.55 515.749
222 0 70.1131 12.109 849 60.1272 1185.32 516.958
223 0 73.1595 12.0558 882 60.2562 1186.31 514.999
224 0 76.1713 11.8811 905 59.8309 1185.6 514.551
225 0 76.0732 11.226 854 61.4778 1185.38 511.104
226 0 80.0886 9.71424 778 62.9936 1185.2 508.632
227 1 43.0501 9.15212 394 60.1142 1184.85 529.657
228 0 42.0424 9.91857 417 60.5036 1185.03 527.794
229 0 44.0877 11.2049 494 59.2206 1184.94 525.67
230 0 46.0613 9.5742 441 60.6077 1185.78 526.166
231 0 48.0859 10.0445 483 59.735 1186.01 525.623
232 0 50.0211 11.6351 582 58.8574 1185.59 522.162
233 0 50.0228 11.4948 575 59.1391 1185.93 522.16
234 0 51.0334 10.1894 520 60.5077 1185.49 519.963
235 0 52.0707 10.9851 572 59.986 1185.88 519.138
236 0 55.0744 10.9307 602 59.2741 1185.92 519.218
237 0 56.0232 11.1918 627 58.504 1185.96 517.346
238 0 59.0967 10.7789 637 58.686 1185.59 516.695
239 0 61.0728 9.90621 605 58.838 1186.42 519.617
240 0 62.0775 12.5972 782 56.7481 1186.52 515.402
241 0 63.0315 10.2171 644 58.8975 1186.63 514.975
242 0 67.049 11.8719 796 56.8342 1185.95 514.251
243 0 68.0616 12.2683 835 56.4503 1186.23 511.89
244 0 69.0557 8.81897 609 60.3366 1186.44 507.644
245 0 72.081 12.1114 873 56.268 1185.82 507.085
246 0 74.0357 9.60347 711 58.8664 1185.84 510.567
247 0 76.2217 12.0832 921 57.0804 1186.22 507.178
248 0 81.0696 12.2857 996 56.0602 1186.87 506.516
249 0 81.2137 11.1804 908 57.022 1186.71 508.154
250 0 84.1024 10.2732 864 58.5093 1187.02 504.544
251 0 87.0902 10.9656 955 57.8597 1186.91 503.117
252 0 91.2482 12.9318 1180 55.3025 1186.97 504.03
253 0 94.1057 13.4317 1264 55.2073 1187.02 502.379
254 1 49.0974 10.6319 522 55.5709 1187.3 525.123
255 0 49.1361 9.60596 472 57.3983 1187.76 523.087
256 0 50.1886 9.12557 458 57.3646 1187.29 522.934
257 0 52.107 11.2653 587 55.1584 1187.6 522.838
258 0 55.0697 9.84208 542 55.9613 1187.27 524.114
259 0 55.1182 10.6498 587 55.7854 1186.69 522.797
260 0 59.0496 13.3955 791 52.2642 1186.87 521.876
261 0 58.1073 10.1192 588 55.949 1186.85 520.269
262 0 60.1018 10.632 639 55.277 1186.75 519.745
263 0 63.0703 12.2244 771 53.9235 1187.19 518.339
264 0 65.1588 12.4005 808 53.5743 1186.9 518.411
265 0 69.0364 11.8343 817 54.0906 1186.79 517.829
266 0 66.0878 11.6663 771 55.1025 1186.73 514.921
267 0 69.1751 10.3505 716 56.0964 1186.67 516.222
268 0 72.1269 10.3706 748 56.0013 1186.63 515.463
269 0 76.0924 11.0392 840 55.3452 1186.32 515.099
270 0 79.1891 10.8474 859 55.2817 1185.85 513.598
271 0 78.117 10.5099 821 56.7917 1185.57 512.759
272 1 39.0847 8.72463 341 56.3372 1186.09 531.56
273 0 42.0767 9.45892 398 55.2035 1185.45 532.46
274 0 44.0189 9.31417 410 54.9317 1185.66 533.288
275 0 44.0514 9.39812 414 55.8816 1185.57 531.65
276 0 47.0554 11.1358 524 54.021 1185.69 531.471
277 0 48.0697 10.4016 500 55.256 1185.28 527.942
278 0 49.028 10.6062 520 55.3692 1185.05 530.273
279 0 48.0698 10.0479 483 56.3085 1184.84 530.108
280 0 50.0449 11.13 557 55.3914 1185.34 527.282
281 0 52.0395 10.3383 538 55.7825 1185.2 528.362
282 0 53.1296 10.352 550 56.4109 1185.07 525.456
283 0 57.113 9.33237 533 56.3265 1184.35 528.595
284 0 57.0538 11.1824 638 55.3511 1184.54 522.387
285 0 61.0703 9.34988 571 56.4904 1183.97 524.112
286 0 62.0385 10.3807 644 55.3447 1184.32 523.09
287 0 65.045 12.6835 825 52.9333 1184.2 521.371
288 0 65.0206 9.35088 608 55.8865 1184.47 521.35
289 0 67.0366 13.2763 890 52.427 1184.04 516.881
290 0 70.1096 10.1127 709 55.5529 1183.87 518.574
291 0 73.0593 12.0998 884 53.2749 1184.21 514.342
292 0 76.0949 12.5238 953 52.8478 1184.11 515.171
293 0 76.1667 12.2888 936 53.3365 1183.89 514.804
294 0 80.1153 11.6582 934 53.8158 1184.79 513.752
295 0 81.1074 13.6979 1111 52.4077 1184.64 509.171
296 0 86.1378 11.8763 1023 53.8045 1183.98 509.025
297 1 40.015 9.79632 392 54.4056 1183.78 532.286
298 0 45.0318 10.9256 492 53.6972 1184.87 529.524
299 0 44.0187 10.3365 455 54.9187 1184.02 529.431
300 0 46.0576 11.4205 526 54.5779 1184.04 526.489
301 0 44.0468 9.69424 427 56.5597 1184.64 526.592
302 0 44.0977 8.63991 381 58.9423 1184.14 525.78
303 0 51.0191 11.7799 601 54.3461 1184.98 526.153
304 0 51.0768 12.5889 643 53.9938 1184.43 525.734
305 0 53.0908 10.6422 565 56.1451 1184.2 524.506
306 0 53.0745 10.6454 565 56.8301 1184.33 524.543
307 0 57.1104 13.4126 766 53.765 1184.33 522.396
308 0 58.0951 10.6894 621 56.8003 1184.26 522.417
309 0 59.051 11.2615 665 56.4887 1184.39 519.737
310 0 61.1362 12.693 776 54.6495 1184.45 520.231
311 0 62.1107 12.9929 807 54.6159 1184.91 518.483
312 0 63.102 11.1565 704 56.6932 1185 517.179
313 0 67.0473 11.8871 797 55.5558 1185 517.895
314 0 67.0616 11.8846 797 56.1493 1184.16 517.688
315 0 69.054 12.6568 874 55.4588 1183.98 516.201
316 0 73.1651 12.4103 908 55.5418 1185.02 514.086
317 0 75.0351 11.9411 896 56.4364 1184.53 510.66
318 0 77.0252 12.4634 960 56.1708 1184.74 511.391
319 0 81.1481 13.5801 1102 54.5082 1185.52 511.299
320 0 82.1457 13.2934 1092 55.4405 1185.6 510.564
321 0 85.1396 13.4837 1148 55.6612 1185.77 506.229
322 0 87.1845 11.7452 1024 57.1123 1185.83 511.169
323 1 47.0466 11.3292 533 56.0019 1185.39 528.274
324 0 50.0192 12.1353 607 53.7694 1185.5 530.084
325 0 50.1005 9.38115 470 58.6319 1185.41 526.581
326 0 53.1167 11.3335 602 56.9103 1184.52 525.909
327 0 53.1118 12.05 640 56.9141 1183.85 523.234
328 0 53.1063 11.7688 625 56.1648 1184.85 523.184
329 0 58.1066 13.5957 790 53.6608 1184.54 523.153
330 0 57.0802 12.1758 695 55.5439 1184.41 524.614
331 0 60.0471 12.0738 725 56.2441 1184.99 522.116
332 0 59.0454 11.2795 666 58.0916 1184.55 522.287
333 0 61.0374 11.8452 723 57.2185 1184.28 521.578
334 0 63.1003 11.553 729 58.1495 1184.12 518.908
335 0 65.0644 14.2321 926 55.0346 1184.44 520.546
336 0 66.0551 11.1119 734 59.2125 1184.09 517.165
337 0 67.1085 12.5618 843 58.7699 1184.09 515.694
338 0 71.1565 13.6741 973 56.9198 1184.39 515.494
339 0 71.0598 11.807 839 59.4196 1185.1 515.996
340 0 73.0548 11.6214 849 59.8445 1184.31 514.874
341 0 74.1066 12.3066 912 60.33 1184.27 512.492
342 0 80.1444 13.2636 1063 58.2258 1183.95 510.333
343 0 80.1731 13.5706 1088 58.6471 1183.87 507.689
344 0 84.0324 12.7927 1075 58.8912 1184.34 509.014
345 0 87.0666 13.1623 1146 58.5358 1184.67 510.037
346 0 88.0817 11.4553 1009 61.2944 1184.75 504.697
347 1 45.0352 9.72573 438 60.4954 1185.24 529.717
348 0 48.0298 10.4518 502 60.5797 1185.11 526.87
349 0 49.1138 10.6691 524 60.3912 1184.75 527.84
350 0 48.0324 9.93079 477 62.587 1184.46 524.78
351 0 51.075 11.8845 607 59.6392 1184.86 525.491
352 0 52.2712 12.2247 639 59.8372 1184.7 521.434
353 0 53.0829 12.0001 637 59.7206 1184.46 523.518
354 0 56.018 10.0503 563 62.135 1185.39 521.897
355 0 58.0513 12.1961 708 58.7952 1184.14 523.141
356 0 61.0397 11.8284 722 59.072 1184.15 521.374
357 0 61.0488 12.8586 785 58.9541 1184.76 520.223
358 0 61.0746 13.1642 804 58.3818 1185.32 519.757
359 0 65.1405 13.0027 847 57.7296 1185.95 519.398
360 0 66.2071 11.8869 787 59.6544 1185.2 518.729
361 0 66.0459 9.99305 660 61.2591 1185.24 520.671
362 0 68.1101 10.4537 712 61.8848 1184.91 513.549
363 0 72.1007 12.7738 921 58.7514 1184.94 515.344
364 0 74.2217 11.7082 869 59.6594 1185.39 515.999
365 0 75.085 12.1196 910 59.7857 1185.02 513.394
366 0 78.1195 14.1322 1104 57.5426 1185.6 511.801
367 0 78.0726 11.1947 874 61.7162 1185.03 511.438
368 0 79.0759 12.5449 992 60.4829 1185.93 509.925
369 0 83.1677 12.3606 1028 60.4698 1184.97 507.623
370 1 44.0649 12.005 529 59.9773 1185.25 527.609
371 0 43.2337 10.663 461 61.987 1185.23 528.416
372 0 47.0686 12.0675 568 60.7782 1184.82 526.674
373 0 49.0267 11.4224 560 60.8768 1185.22 526.389
374 0 50.0243 11.6343 582 61.2457 1184.58 526.459
375 0 52.0184 11.9189 620 60.95 1185.14 525.071
376 0 52.0361 11.9917 624 61.0946 1185.4 524.335
377 0 52.0718 12.694 661 61.2194 1185.5 523.523
378 0 54.1503 11.0249 597 63.6047 1185.22 521.759
379 0 57.0289 12.2043 696 62.046 1185.04 521.44
380 0 54.0845 10.6315 575 65.0017 1184.38 520.635
381 0 60.0703 12.219 734 62.3188 1184.47 519.758
382 0 59.0315 10.1471 599 65.9215 1184.22 518.239
383 0 62.0478 10.9593 680 64.3926 1184.34 515.925
384 0 64.1181 12.7265 816 61.9167 1184.39 517.167
385 0 66.0582 10.7027 707 64.6902 1183.92 513.689
386 0 66.0551 11.7175 774 63.5103 1184.47 514.903
387 0 70.2418 12.2292 859 62.4878 1184.53 513.977
388 0 73.0368 12.8976 942 62.2516 1184.68 511.895
389 0 73.1144 11.1332 814 64.3833 1184.45 509.896
390 0 76.0752 11.0549 841 64.3424 1184.41 508.918
391 0 80.173 11.0262 884 64.0057 1183.63 503.785
392 0 80.0968 9.53846 764 66.6819 1184.41 505.694
393 1 39.0634 8.6014 336 66.3988 1185.04 526.839
394 0 43.0248 9.41318 405 65.3531 1185.33 526.494
395 0 47.148 10.5201 496 63.2319 1184.8 528.002
396 0 46.053 11.313 521 63.6296 1184.82 524.482
397 0 48.0384 10.3459 497 64.9376 1184.95 525.163
398 0 51.049 12.7525 651 61.0937 1185.17 526.017
399 0 52.0667 12.8489 669 61.5097 1185.09 525.121
400 0 54.1693 11.5933 628 61.8153 1185.49 524.519
401 0 55.0861 13.8692 764 60.089 1185.59 520.493
402 0 56.241 12.0375 677 62.2703 1185.57 520.95
403 0 58.0212 12.9608 752 61.1888 1185.59 520.936
404 0 60.0916 11.6156 698 62.9212 1185.01 520.799
405 0 64.1421 12.4723 800 61.07 1185.1 519.5
406 0 64.1658 13.2469 850 60.6282 1185.17 517.072
407 0 67.1241 12.678 851 61.2056 1185.45 517.592
408 0 67.0385 13.0224 873 60.8465 1185.92 517.948
409 0 69.1954 12.2841 850 61.8682 1185.75 515.406
410 0 70.0625 12.1606 852 61.8592 1185.52 516.039
411 0 73.0895 11.9032 870 62.0552 1185.43 516.466
412 0 77.0815 13.4273 1035 59.8338 1185.39 511.794
413 0 78.1249 12.9408 1011 60.9476 1185.45 511.425
414 0 80.0726 13.3004 1065 60.8479 1185.26 510.777
415 0 83.129 12.8234 1066 60.925 1185.06 509.584
416 0 85.068 14.0828 1198 59.9658 1184.76 507.641
417 0 87.1615 13.4807 1175 60.7336 1185.2 505.951
418 1 45.0441 10.3232 465 62.086 1184.78 529.396
419 0 46.0416 10.8597 500 61.8 1185.08 528.414
420 0 47.0428 12.1166 570 61.207 1184.76 526.495
421 0 49.0245 12.7283 624 59.9263 1185.2 526.293
422 0 50.0731 10.964 549 62.6721 1184.85 524.526
423 0 51.1066 10.39 531 62.1318 1185.09 527.241
424 0 54.0459 12.2119 660 60.6545 1184.9 522.812
425 0 55.1051 10.9972 606 61.3515 1184.22 524.774
426 0 56.1568 12.3048 691 60.5499 1184.7 522.004
427 0 59.0558 11.8363 699 61.4249 1185.52 521.465
428 0 61.0786 13.3598 816 58.7684 1185.3 522.469
429 0 62.0627 12.4229 771 60.2361 1185.73 520.997
430 0 64.0948 12.9652 831 59.4067 1185.71 520.667
431 0 64.017 10.2941 659 62.9924 1185.9 520.304
432 0 66.2143 11.795 781 61.0704 1184.9 517.703
433 0 69.0464 11.6878 807 61.0843 1185.09 516.747
434 0 71.2095 12.3579 880 60.2432 1185.14 514.775
435 0 74.133 12.2752 910 60.144 1184.8 514.255
436 0 77.067 12.3918 955 59.4492 1184.44 513.216
437 0 78.1355 11.672 912 60.3169 1185.15 514.091
438 0 80.0655 14.0135 1122 58.0472 1185.15 509.334
439 0 82.0619 11.8203 970 60.6856 1184.7 509.664
440 0 87.1171 11.9953 1045 60.021 1184.39 509.1
441 0 88.1611 11.5924 1022 60.1595 1183.73 511.243
442 1 45.0752 10.3383 466 59.8326 1183.66 530.185
443 0 45.063 9.96382 449 60.4989 1183.92 530.768
444 0 47.0154 10.7199 504 59.7163 1183.63 529.934
445 0 47.0921 10.3627 488 60.6762 1183.75 528.428
446 0 52.0551 11.3341 590 59.0254 1183.99 526.614
447 0 50.0919 11.0397 553 60.1844 1184.53 526.729
448 0 53.0736 12.2471 650 58.8677 1184.23 525.435
449 0 53.0691 11.4756 609 59.9179 1184.92 525.107
450 0 55.0363 11.3743 626 60.0335 1184.96 523.136
451 0 57.0836 10.1781 581 60.6816 1184.33 523.773
452 0 59.0717 11.5961 685 59.6701 1184.07 522.454
453 0 60.0385 10.5766 635 60.8142 1184.11 522.288
454 0 64.0671 11.7065 750 59.276 1184.22 520.272
455 0 63.0552 12.0529 760 58.7118 1183.42 523.804
456 0 65.126 12.7445 830 58.7446 1183.95 520.963
457 0 65.1596 11.1572 727 60.8487 1183.93 516.201
458 0 67.0359 11.382 763 60.2778 1183.94 517.837
459 0 71.0562 11.9061 846 60.2518 1184.03 513.928
460 0 71.109 11.9113 847 60.4829 1184.25 515.95
461 0 75.2638 12.9013 971 60.0463 1184.49 512.145
462 0 77.0958 11.6478 898 61.9488 1183.96 511.04
463 0 80.0854 12.2869 984 60.9553 1184.18 512.665
464 0 82.1805 11.925 980 62.4041 1184.14 510.412
465 0 85.114 12.5949 1072 61.3974 1184.67 510.197
466 0 86.066 13.1643 1133 61.474 1184.15 506.959
467 0 88.0601 11.9577 1053 63.3504 1183.96 505.941
468 0 92.1136 12.4412 1146 62.5305 1183.82 506.764
469 0 94.0936 12.36 1163 63.2365 1183.75 503.855
470 0 93.0832 11.2695 1049 64.734 1183.71 505.93
471 1 48.1098 12.035 579 62.0656 1184.16 528.176
472 0 48.039 9.72127 467 63.8073 1183.98 530.253
473 0 51.0408 10.423 532 65.3327 1184.63 526.31
474 0 52.1266 11.2419 586 64.4915 1184.44 526.505
475 0 56.2696 9.66775 544 65.6195 1184.03 525.812
476 0 56.0983 11.2481 631 63.9287 1184.01 523.556
477 0 58.0589 11.5745 672 63.625 1184.33 523.851
478 0 59.1456 10.6855 632 64.6693 1183.91 524.218
479 0 61.0416 10.8778 664 64.7786 1184.33 518.794
480 0 63.0709 13.0964 826 62.0133 1183.74 519.448
481 0 66.1199 12.2202 808 62.87 1183.86 519.871
482 0 67.0473 11.6187 779 63.3068 1184.13 518.262
483 0 66.0731 11.3208 748 64.9692 1184.47 515.953
484 0 71.0558 11.2869 802 64.4327 1184.37 516.378
485 0 74.1549 11.0849 822 63.9209 1184.29 516.97
486 0 77.1772 12.0891 933 62.8585 1184.3 515.732
487 0 80.1075 12.5456 1005 62.8259 1183.95 513.421
488 0 81.1426 12.5951 1022 62.7045 1183.57 513.092
489 0 84.0355 11.5665 972 64.1111 1184.51 511.987
490 0 85.0838 11.4828 977 64.3941 1183.57 511.238
491 0 89.1398 12.5645 1120 62.7964 1183.66 509.888
492 1 45.0466 12.9643 584 61.3836 1183.91 530.342
493 0 45.0156 10.352 466 64.8755 1184.66 528.738
494 0 48.0697 12.045 579 62.6321 1183.71 527.25
495 0 50.1114 11.654 584 62.5771 1184.14 528.606
496 0 50.0204 12.0151 601 62.6805 1183.82 527.983
497 0 50.1174 12.4308 623 62.6196 1184.23 527.464
498 0 50.019 9.57637 479 65.8956 1184.37 527.426
499 0 54.1767 11.8317 641 63.1123 1183.58 523.955
500 0 54.1301 10.8627 588 63.9745 1183.79 525.228
501 0 57.1002 11.1733 638 63.6458 1183.12 524.398
502 0 61.2407 12.0345 737 62.3365 1183.33 523.791
503 0 62.1371 13.615 846 60.8759 1183.69 520.741
504 0 62.0397 10.4127 646 64.7306 1183.6 521.152
505 0 66.0976 13.238 875 60.9451 1183.84 518.445
506 0 66.0845 11.9998 793 62.7188 1183.78 518.478
507 0 70.0509 14.0898 987 60.0527 1183.46 515.797
508 0 71.241 10.6119 756 64.3082 1182.54 514.19
509 0 76.1121 11.7984 898 62.882 1183.18 510.949
510 0 77.0328 11.8261 911 63.1372 1183.45 511.411
511 0 81.0574 13.1388 1065 61.507 1183.24 511.131
512 0 82.0728 12.0137 986 62.8327 1183.08 511.78
513 0 85.0581 11.9213 1014 63.5158 1183.54 509.151
514 1 45.0484 10.7884 486 61.5473 1183.34 531.753
515 0 45.1035 10.354 467 63.1799 1184.1 528.807
516 0 48.074 11.2119 539 61.2839 1184.16 530.206
517 0 47.0492 11.6899 550 61.5818 1184.11 528.398
518 0 48.0202 12.0782 580 61.6776 1183.42 527.95
519 0 52.0251 11.3214 589 61.6078 1184.27 528.136
520 0 53.064 11.8159 627 61.5805 1183.91 525.994
521 0 54.0456 11.1942 605 61.4215 1184.22 528.474
522 0 58.0888 13.8409 804 58.2189 1184.17 525.903
523 0 57.0639 11.3907 650 61.7846 1184.07 524.175
524 0 56.0326 11.0471 619 62.8772 1184.46 524.83
525 0 61.0444 12.1387 741 60.5708 1184.28 524.327
526 0 63.1619 12.9983 821 60.3142 1183.91 521.82
527 0 66.1338 12.8225 848 59.9198 1183.05 521.634
528 0 66.1481 12.9709 858 60.8974 1183.44 520.617
529 0 69.1637 11.8993 823 62.0693 1183.78 519.339
530 0 69.1474 12.5674 869 61.8044 1184.1 520.259
531 0 72.0637 12.9052 930 60.7785 1184.38 519.239
532 0 75.1393 12.9892 976 61.1045 1183.85 515.045
533 0 76.2294 12.7903 975 61.9846 1183.8 511.984
534 0 79.0834 12.8978 1020 61.7226 1183.65 512.226
535 0 82.1003 12.7649 1048 61.916 1183.38 511.321
536 1 41.0356 11.1123 456 62.5088 1183.56 533.436
537 0 43.0397 10.7807 464 63.3621 1183.91 531.272
538 0 45.0659 11.1836 504 62.7083 1183.67 530.546
539 0 44.0498 11.1238 490 64.1102 1183.49 528.124
540 0 49.193 11.4244 562 63.0854 1182.9 527.036
541 0 49.0763 13.4892 662 61.1027 1183.15 527.023
542 0 49.1226 10.9726 539 63.961 1183.2 527.317
543 0 54.0299 13.1594 711 60.685 1182.82 526.294
544 0 52.0338 10.6661 555 64.3045 1182.82 525.885
545 0 57.0498 12.7433 727 61.4966 1183.02 521.593
546 0 57.0207 11.8203 674 62.8412 1182.77 523.457
547 0 60.0444 13.4234 806 60.3325 1182.96 522.947
548 0 61.0355 12.2388 747 61.6198 1182.93 524.258
549 0 61.0731 10.512 642 64.6573 1182.53 518.352
550 0 65.0439 12.0995 787 62.2503 1183.17 517.882
551 0 66.1139 12.2667 811 61.9272 1183.31 520.731
552 0 69.1814 11.0723 766 63.3577 1182.81 519.149
553 0 72.07 11.8912 857 61.5134 1183.16 519.834
554 0 74.1335 11.1825 829 63.731 1183.53 515.023
555 0 77.0698 11.535 889 62.7896 1183.77 514.55
556 1 41.047 11.6939 480 61.3667 1183.56 532.444
557 0 39.0137 9.79142 382 64.5654 1183.93 531.16
558 0 42.0365 10.4671 440 63.2977 1183.08 530.402
559 0 43.0748 12.8149 552 61.3913 1183.26 529.533
560 0 45.0131 11.841 533 62.1013 1183.7 528.319
561 0 46.03 12.7525 587 61.0596 1182.28 529.392
562 0 48.1021 13.8247 665 59.7474 1182.72 529.463
563 0 48.1161 12.262 590 62.3475 1182.74 527.332
564 0 50.1385 12.9641 650 61.0262 1182.78 527.714
565 0 50.0847 11.0812 555 64.0432 1182.54 524.351
566 0 54.1188 12.1584 658 61.1581 1183.6 525.555
567 0 55.0867 12.4349 685 61.3022 1183.57 523.34
568 0 56.0358 11.6533 653 62.5421 1182.9 523.349
569 0 59.0473 12.6678 748 60.5201 1182.95 520.108
570 0 59.0705 12.3073 727 60.8377 1183.12 523.127
571 0 62.0331 13.7668 854 59.0246 1183 521.682
572 0 63.0666 11.4641 723 62.1577 1183.31 519.412
573 0 66.1415 12.5488 830 59.9289 1183.42 519.167
574 0 67.0473 11.9468 801 61.3383 1183.48 516.884
575 0 72.0848 12.7073 916 60.1496 1182.9 516.198
576 0 72.093 12.2758 885 60.1435 1182.63 518.838
577 0 77.11 12.4757 962 59.4771 1182.41 514.916
578 0 79.0705 11.4581 906 61.0464 1183.52 511.278
579 0 80.1144 11.6833 936 60.9252 1183.66 512.214
580 1 41.0588 9.71778 399 60.6967 1184.65 531.87
581 0 43.1247 11.1769 482 59.9108 1184.23 528.822
582 0 41.0397 10.3071 423 62.2246 1185.13 528.253
583 0 47.0522 10.9028 513 60.2456 1185.01 527.811
584 0 49.0838 12.4481 611 58.2177 1184.76 527.447
585 0 49.0437 11.9893 588 59.5051 1184.4 525.371
586 0 49.0523 11.4572 562 60.9609 1184.38 523.174
587 0 50.0517 11.0086 551 61.5535 1183.98 523.076
588 0 54.1454 11.0628 599 60.7696 1183.81 523.065
589 0 55.0478 10.6998 589 60.893 1183.87 524.061
590 0 58.0456 12.6452 734 58.6648 1184.03 521.418
591 0 60.0753 11.8518 712 59.5098 1183.23 521.751
592 0 61.0724 11.5437 705 60.2128 1183.73 517.993
593 0 64.0397 12.2424 784 58.6952 1183.58 519.389
594 0 64.1167 11.7598 754 59.821 1183.58 516.55
595 0 65.0788 10.4028 677 61.1743 1183.58 516.86
596 0 69.091 11.2026 774 59.792 1183.66 514.071
597 0 70.0845 12.385 868 59.0979 1183.66 512.054
598 0 73.1182 10.5856 774 59.7959 1184.33 514.132
599 0 76.0502 12.2682 933 58.1747 1184.27 513.29
600 0 76.0969 11.1437 848 59.7924 1184.59 511.748
601 0 80.1938 11.759 943 58.8293 1183.43 509.686
602 1 40.1218 9.52101 382 59.7932 1184.26 528.181
603 0 41.0234 10.0918 414 59.2222 1184.58 526.727
604 0 45.1032 9.84409 444 58.7095 1184.73 527.736
605 0 46.0643 11.9832 552 56.6993 1184.52 526.774
606 0 47.0677 12.4714 587 56.3475 1185.21 525.382
607 0 47.0593 10.5186 495 58.9879 1184.91 526.477
608 0 50.1176 11.5528 579 58.7168 1184.78 523.073
609 0 48.1618 10.7139 516 59.7597 1184.43 522.483
610 0 51.1057 10.5663 540 60.1907 1184.47 523.828
611 0 53.1038 10.1123 537 60.3482 1184.82 523.227
612 0 53.0832 11.8305 628 58.8806 1184.5 521.271
613 0 57.0932 11.6126 663 58.187 1184.18 521.84
614 0 58.1197 11.5968 674 58.3175 1184.31 520.849
615 0 61.0605 11.4477 699 58.5722 1184.69 519.369
616 0 60.1226 11.5431 694 58.9438 1184.42 518.875
617 0 61.1432 11.4812 702 59.8889 1184.56 514.93
618 0 66.0934 12.5126 827 58.1596 1183.9 514.855
619 0 70.135 11.2355 788 59.2995 1183.75 514.491
620 0 73.1607 10.8802 796 59.951 1183.78 513.682
621 0 73.0928 11.9027 870 59.0506 1183.7 512.226
622 0 77.1482 9.78636 755 61.3735 1184.04 510.437
623 0 77.1208 10.9698 846 60.8818 1183.76 507.768
624 1 39.0573 10.5486 412 59.9393 1184.75 529.061
625 0 42.1718 10.1727 429 60.3776 1184.41 526.632
626 0 43.0372 11.1299 479 58.8664 1184.45 527.257
627 0 43.0596 10.7061 461 60.4122 1183.9 526.43
628 0 44.149 10.3966 459 60.5142 1183.91 527.669
629 0 44.0618 10.4399 460 60.5717 1183.48 525.463
630 0 47.2697 11.7834 557 59.544 1183.7 522.858
631 0 47.0265 10.611 499 61.7776 1184.26 521.603
632 0 50.1314 9.4751 475 61.7242 1184.09 524.64
633 0 52.1355 11.8154 616 60.0325 1184.89 523.044
634 0 53.0455 13.9126 738 57.607 1184.34 524.018
635 0 52.0294 9.24478 481 63.8212 1183.86 522.353
636 0 55.0212 11.8682 653 60.7458 1183.97 519.286
637 0 57.1114 10.7334 613 61.6232 1182.88 520.654
638 0 58.0472 12.2659 712 60.2107 1183.59 520.152
639 0 62.0528 11.7319 728 60.9052 1183.73 517.482
640 0 63.1658 11.8418 748 60.3275 1183.47 519.314
641 0 66.1056 10.9068 721 61.7295 1183.65 517.497
642 0 68.2615 13.5801 927 59.0582 1183.92 515.424
643 0 68.1308 12.1824 830 60.7482 1183.74 515.274
644 0 68.1961 11.0857 756 62.5741 1183.63 510.943
645 0 74.1374 11.0336 818 61.6712 1184.37 513.111
646 0 78.1154 11.3678 888 61.4369 1183.48 511.524
647 0 77.133 10.5791 816 62.9669 1184.07 511.312
648 0 81.0791 10.4836 850 63.04 1184.4 507.556
649 0 84.1236 12.4579 1048 60.792 1183.81 507.476
650 1 46.084 12.347 569 59.2021 1183.89 526.473
651 0 48.0959 9.68898 466 61.2897 1184.36 528.642
652 0 49.2671 11.6508 574 60.7561 1183.7 524.209
653 0 50.2623 10.8033 543 61.5672 1183.79 524.192
654 0 53.1253 10.8988 579 61.057 1183.46 523.58
655 0 53.1617 11.0982 590 61.1576 1183.35 522.542
656 0 53.0885 11.4149 606 60.1584 1183.7 523.248
657 0 55.1423 10.4094 574 62.5767 1184.32 519.685
658 0 58.1851 11.79 686 60.2376 1184.31 519.364
659 0 59.0723 10.9865 649 60.6379 1183.61 520.464
660 0 63.3557 11.7906 747 59.925 1183.94 515.869
661 0 62.0636 11.3432 704 60.8011 1184.05 516.722
662 0 64.2854 9.33338 600 63.0617 1183.33 515.868
663 0 67.0968 12.3106 826 59.8051 1183.8 513.459
664 0 69.0846 11.1747 772 61.5984 1183.13 512.608
665 0 69.1198 11.8056 816 60.0319 1183.8 512.363
666 0 74.1258 13.1668 976 58.1506 1183.92 512.387
667 0 76.1444 11.163 850 59.9941 1183.04 512.808
668 0 75.1182 11.6749 877 59.9806 1183.77 512.107
669 0 78.2165 11.6472 911 59.9791 1183.56 506.959
670 1 37.117 9.40269 349 61.4728 1184.52 527.579
671 0 40.0405 10.1397 406 60.367 1184.27 528.138
672 0 42.0457 11.9394 502 58.0837 1184.52 527.781
673 0 43.1269 11.8488 511 58.501 1184.45 525.139
674 0 44.0659 13.4798 594 56.5791 1183.6 526.635
675 0 44.0486 10.6927 471 60.3227 1184.27 525.673
676 0 47.0523 11.179 526 58.8802 1184.15 524.169
677 0 47.0229 11.4838 540 58.9852 1184.82 523.319
678 0 49.1448 11.049 543 58.9282 1184.95 524.179
679 0 52.0819 11.6163 605 58.2479 1184.64 524.289
680 0 51.0219 12.1712 621 57.9968 1184.15 523.662
681 0 54.0375 12.917 698 57.4584 1185.01 520.496
682 0 55.1347 12.6599 698 58.0788 1184.79 519.102
683 0 59.0532 12.04 711 57.7904 1185.35 520.695
684 0 59.085 12.2705 725 58.3986 1184.28 517.64
685 0 60.1872 10.7166 645 59.9411 1184.26 517.595
686 0 62.1496 10.8287 673 59.3061 1184.58 517.296
687 0 66.2454 13.3745 886 56.7607 1184.88 516.137
688 0 68.1103 12.1714 829 57.7696 1184.75 516.504
689 0 70.1056 13.066 916 57.1627 1185.03 513.915
690 0 69.0634 10.9609 757 59.2853 1184.98 512.013
691 0 75.0782 11.3482 852 57.9883 1184.89 512.799
692 1 38.049 10.8281 412 57.9515 1185.13 528.808
693 0 39.052 10.4732 409 57.5819 1184.58 529.159
694 0 41.0527 11.5218 473 56.1564 1185.01 529.507
695 0 41.0428 9.59973 394 58.9568 1184.5 529.467
696 0 44.0826 11.4104 503 57.1014 1183.89 527.328
697 0 43.0473 11.2202 483 58.325 1184.86 525.012
698 0 46.0323 11.1226 512 57.9141 1184.62 527.022
699 0 46.0341 12.2083 562 57.4751 1184.71 525.954
700 0 49.0514 12.9456 635 55.8976 1184 524.874
701 0 49.0708 12.6756 622 57.172 1184.32 523.333
702 0 50.0216 14.0739 704 55.3253 1184.53 524.658
703 0 53.0556 12.7037 674 57.0015 1183.46 522.392
704 0 52.1039 11.9185 621 58.6216 1183.33 520.747
705 0 55.0331 12.6651 697 57.6069 1183.71 521.956
706 0 56.0352 13.7414 770 56.6948 1183.54 520.24
707 0 58.0515 11.0075 639 58.5775 1183.99 523.89
708 0 59.0405 11.7208 692 59.3064 1184.39 518.159
709 0 61.0532 11.6783 713 58.7083 1184.7 519.834
710 0 64.1869 13.819 887 56.2379 1183.96 520.935
711 0 66.0736 12.5769 831 58.781 1184.29 514.635
712 0 68.0852 12.4109 845 135.324 1185.29 515.025
713 0 70.0614 12.8031 897 58.6254 1184.43 511.987
714 0 72.1201 11.9246 860 59.5081 1183.41 513.657
715 0 75.183 14.1787 1066 56.9446 1184.05 512.763
716 0 76.0572 11.8858 904 59.4027 1184.46 512.982
717 0 78.0539 10.8259 845 60.5195 1183.7 513.192
718 0 83.1489 11.7019 973 59.5468 1184.01 510.601
719 1 41.0322 10.1871 418 59.9258 1184.4 532.237
720 0 41.0196 8.45936 347 62.6657 1184.35 528.697
721 0 44.0879 11.6812 515 59.734 1183.56 527.138
722 0 45.0383 12.1674 548 59.219 1183.83 528.365
723 0 48.0722 12.6268 607 58.8418 1183.68 524.685
724 0 47.1829 12.992 613 59.106 1183.54 524.093
725 0 48.0758 11.2947 543 61.1216 1183.61 524.147
726 0 51.0622 12.71 649 59.1433 1183.89 520.901
727 0 51.0247 11.7002 597 60.0084 1184.01 523.963
728 0 53.0505 10.7822 572 60.257 1183.57 522.526
729 0 55.0424 10.4101 573 60.7557 1184.03 520.447
730 0 57.0475 11.5868 661 59.826 1184.06 519.07
731 0 63.1016 14.2786 901 55.5061 1184.24 521.662
732 0 62.0638 11.1498 692 59.7399 1184.21 518.1
733 0 66.1333 12.4899 826 58.3729 1184.1 516.051
734 0 69.1255 13.0053 899 57.2903 1183.46 517.663
735 0 71.4098 12.8134 915 57.2492 1183.57 516.96
736 0 72.0421 10.8825 784 59.2334 1184.06 516.7
737 0 77.0768 13.4282 1035 56.4609 1183.69 514.106
738 0 77.0372 11.8514 913 58.2092 1184.09 514.034
739 0 79.1685 9.63767 763 60.2883 1184.53 513.877
740 0 81.2288 12.7048 1032 57.907 1185.1 512.462
741 0 86.2794 11.8336 1021 58.669 1184.57 510.049
742 0 88.1994 12.0409 1062 58.3258 1183.87 509.196
743 0 93.1465 14.3967 1341 56.0626 1184.36 505.793
744 0 94.1629 12.0005 1130 58.6398 1183.17 503.96
745 1 51.3255 10.2483 526 59.3859 1183.46 527.148
746 0 52.1157 12.0693 629 57.9603 1184.03 524.773
747 0 52.0514 11.2773 587 59.4429 1184.28 525.855
748 0 53.2247 14.2603 759 56.9473 1184.46 524.277
749 0 51.0283 11.2682 575 61.2574 1184.57 521.95
750 0 58.0616 12.4006 720 58.7194 1183.93 521.288
751 0 62.1339 11.9741 744 58.8212 1184.52 521.93
752 0 66.2044 12.7937 847 57.5891 1183.63 521.149
753 0 66.189 13.3255 882 58.0068 1183.83 519.967
754 0 68.1433 13.501 920 58.4467 1183.61 518.255
755 0 70.1609 15.2364 1069 56.6408 1183.93 517.927
756 0 71.1662 12.3373 878 59.4556 1183.75 519.449
757 0 76.125 14.3448 1092 57.9396 1183.24 514.759
758 0 80.1281 13.0042 1042 59.9443 1183.75 513.535
759 0 83.1852 13.5841 1130 58.5478 1183.57 514.795
760 0 84.2438 13.3304 1123 59.7667 1182.93 511.926
761 0 86.1434 14.4062 1241 59.4069 1183.38 511.342
762 0 87.1217 11.6159 1012 62.8617 1184.29 512.403
763 0 93.1488 12.9685 1208 61.6449 1184.33 508.539
764 1 49.0175 11.5673 567 61.9577 1184.46 530.023
765 0 49.045 12.2133 599 62.0985 1183.92 530.252
766 0 50.1937 13.3483 670 61.8448 1183.67 527.782
767 0 54.1408 13.1139 710 60.4606 1183.6 528.437
768 0 53.1727 11.4344 608 63.6283 1183.73 527.026
769 0 53.103 13.1819 700 62.1986 1183.87 525.731
770 0 58.203 12.6454 736 61.6481 1183.93 525.624
771 0 57.132 14.2302 813 59.7688 1184.56 525.884
772 0 59.1259 12.9892 768 62.1992 1183.97 522.238
773 0 62.1358 12.3439 767 62.1486 1183.8 522.153
774 0 66.1372 13.7139 907 59.8368 1183.33 522.706
775 0 67.1971 13.825 929 60.2433 1183.38 520.51
776 0 67.2478 12.5208 842 62.1793 1183.77 518.49
777 0 70.2114 13.8297 971 59.9331 1183.42 520.338
778 0 73.1045 13.5833 993 60.2638 1184.17 517.016
779 0 76.1315 13.4241 1022 60.6536 1184.05 514.696
780 0 79.1803 13.5514 1073 60.8453 1183.86 513.054
781 0 79.1395 11.0943 878 64.262 1183.54 508.913
782 0 85.1974 13.1107 1117 61.7816 1183.41 509.465
783 1 44.141 11.6898 516 62.2171 1184.07 531.541
784 0 44.0372 11.3995 502 63.2052 1184.12 529.751
785 0 45.063 12.5602 566 62.765 1184.11 528.034
786 0 48.074 12.4184 597 61.9598 1184.12 528.047
787 0 50.0715 12.8416 643 61.6936 1183.84 527.053
788 0 53.1635 11.4552 609 63.3169 1183.65 525.841
789 0 51.0222 11.9948 612 63.8562 1183.03 526.044
790 0 55.198 13.5874 750 61.3427 1182.74 525.424
791 0 57.1524 13.1053 749 61.9212 1183.15 524.151
792 0 58.043 14.2653 828 60.715 1182.74 522.952
793 0 61.037 13.5164 825 61.0521 1183.26 522.189
794 0 63.1564 12.7778 807 61.3804 1183.79 522.242
795 0 67.056 12.6909 851 61.6604 1183.77 521.169
796 0 68.1434 13.002 886 61.1964 1183.56 520.062
797 0 72.2689 16.0235 1158 57.709 1183.43 517.028
798 0 74.127 15.1767 1125 58.5431 1183.54 518.372
799 0 75.06 15.854 1190 58.3471 1183.84 517.003
800 0 79.1682 14.3618 1137 59.8056 1183.88 516.182
801 0 82.2109 13.8668 1140 60.8184 1183.24 513.511
802 0 84.1812 14.1243 1189 60.7023 1183.56 513.006
803 0 87.104 13.9833 1218 60.9122 1183.3 511.562
804 0 90.1931 14.0144 1264 60.7342 1183.31 509.966
805 0 92.1842 12.8655 1186 62.4806 1183.34 507.84
806 0 96.1402 12.9706 1247 62.2727 1183.27 506.293
807 0 98.0743 13.8976 1363 61.5671 1183.14 506.434
808 1 47.0488 12.3489 581 62.5215 1183.29 530.186
809 0 50.0197 12.9749 649 62.0139 1183.51 529.516
810 0 52.0578 14.0805 733 60.5771 1183.19 527.622
811 0 53.0511 12.3843 657 62.9863 1183.5 527.244
812 0 55.0565 11.6062 639 62.8279 1184.48 529.016
813 0 57.0741 13.0883 747 61.9813 1184.12 522.752
814 0 58.0932 12.4283 722 63.2313 1183.74 522.026
815 0 61.0321 13.7305 838 61.3413 1183.39 523.4
816 0 64.0892 13.2004 846 62.1336 1183.7 521.975
817 0 63.0888 14.5826 920 61.6717 1183.96 519.472
818 0 66.1365 13.0941 866 62.694 1184 520.273
819 0 70.1001 14.0513 985 61.3086 1183.97 518.5
820 0 73.0785 14.7102 1075 60.4856 1183.89 518.219
821 0 72.0407 11.9793 863 64.4021 1183.98 516.896
822 0 75.0699 12.162 913 64.563 1183.65 515.022
823 0 78.0947 14.0342 1096 62.5137 1182.76 511.568
824 0 83.172 14.5602 1211 61.5161 1183.05 512.834
825 0 84.0987 13.6387 1147 63.0087 1183.06 511.22
826 0 87.064 12.3243 1073 64.3504 1183 509.309
827 0 89.2051 11.8827 1060 65.4264 1183.49 506.821
828 0 93.1176 12.0278 1120 64.8188 1183.79 506.74
829 1 47.0693 12.0673 568 64.8856 1183.81 526.993
830 0 53.0594 13.8524 735 61.6313 1184.1 527.426
831 0 52.032 12.2232 636 64.4686 1183.65 524.94
832 0 54.1294 13.9665 756 62.1032 1183.65 523.488
833 0 56.0237 12.227 685 64.1562 1184.13 523.54
834 0 60.0935 13.1795 792 62.0998 1184.3 523.501
835 0 60.2038 14.2018 855 61.5754 1184.03 523.008
836 0 63.1132 13.4362 848 62.6038 1183.97 520.559
837 0 65.1083 14.2685 929 61.3208 1184.27 521.695
838 0 68.1989 13.6659 932 62.2006 1184.06 519.777
839 0 70.102 12.439 872 63.6353 1184.02 518.138
840 0 73.0751 14.2593 1042 61 1184.28 518.21
841 0 78.152 13.9344 1089 61.0441 1184.03 516.428
842 0 78.101 14.1611 1106 61.4322 1184.61 516.504
843 0 80.1271 13.1167 1051 63.0733 1184.61 513.888
844 0 84.1184 13.3859 1126 62.6332 1184.91 511.356
845 0 86.0751 15.1844 1307 60.58 1184.3 510.246
846 0 89.1588 13.0554 1164 62.6246 1184.23 511.637
847 0 92.0904 13.7148 1263 63.0554 1184.72 504.01
848 0 95.1566 11.9487 1137 64.9965 1184.23 506.93
849 0 99.2366 12.2233 1213 64.3537 1184.23 505.303
850 1 50.0674 11.844 593 64.0438 1184.44 528.933
851 0 51.1176 14.1634 724 61.9378 1184.72 527.684
852 0 54.0784 13.8687 750 62.652 1184.21 524.564
853 0 56.0287 13.618 763 62.3997 1184.67 524.67
854 0 58.0643 13.4506 781 61.5877 1184.37 526.917
855 0 58.1643 13.1868 767 62.5424 1184.15 525.138
856 0 61.0784 12.5904 769 63.2042 1184.32 522.746
857 0 62.0671 13.2115 820 62.6768 1184.01 521.49
858 0 65.0627 13.4486 875 62.5326 1184.2 520.546
859 0 68.0218 12.79 870 63.3138 1184.44 520.04
860 0 70.1671 12.4702 875 63.528 1183.67 520.383
861 0 74.3592 14.43 1073 62.1575 1184.46 518.956
862 0 73.2047 13.8652 1015 63.9754 1184.23 516.495
863 0 75.1356 12.8035 962 65.1393 1182.85 517.354
864 0 77.0588 11.887 916 66.6365 1183.31 515.079
865 0 81.088 13.4175 1088 64.7206 1183.68 511.562
866 0 85.1291 13.7556 1171 63.3937 1183.43 512.365
867 0 86.1564 13.0344 1123 64.6696 1183.58 511.917
868 0 90.1872 14.2038 1281 63.2756 1184.7 511.076
869 1 43.2813 10.2585 444 67.7838 1183.72 530.91
870 0 42.0733 10.9333 460 67.7522 1183.35 530.867
871 0 43.0144 11.6938 503 66.8986 1183.41 530.038
872 0 45.0219 12.1052 545 66.0844 1183.6 530.42
873 0 47.1224 12.6479 596 65.9765 1183.99 528.372
874 0 49.0933 14.2586 700 64.12 1183.55 527.131
875 0 49.103 12.0767 593 67.4469 1183.2 525.602
876 0 51.0716 13.5104 690 65.0565 1183.58 528.271
877 0 54.1441 14.6276 792 63.3333 1184.41 524.836
878 0 53.0423 11.6134 616 67.3523 1183.39 522.31
879 0 57.1376 12.7062 726 65.5179 1183.69 521.201
880 0 60.0599 14.1192 848 63.6592 1184.08 522.269
881 0 60.0741 11.5025 691 67.3415 1183.8 521.093
882 0 65.0586 12.6501 823 65.548 1183.67 520.29
883 0 64.0583 12.8789 825 65.8582 1184.23 520.742
884 0 67.0873 14.6824 985 63.869 1183.6 517.199
885 0 69.0469 12.3394 852 66.7465 1183.93 518.68
886 0 72.0892 13.9411 1005 64.7841 1183.47 515.982
887 0 74.041 13.1549 974 66.0698 1184.28 514.345
888 0 80.135 12.8034 1026 65.424 1184.22 514.092
889 0 79.0541 12.3839 979 66.8642 1184.34 513.203
890 0 81.0983 13.1445 1066 65.8818 1183.99 509.963
891 0 84.1116 14.1122 1187 64.8736 1184.24 511.176
892 0 87.0798 14.8944 1297 63.2814 1184.54 509.232
893 1 41.0728 10.7857 443 68.3521 1184.12 528.135
894 0 45.1061 12.1048 546 64.9799 1183.76 530.205
895 0 43.1032 11.6465 502 67.488 1182.9 527.261
896 0 46.0334 12.0999 557 65.9174 1183.56 527.824
897 0 48.0786 13.5403 651 64.6098 1183.57 525.504
898 0 51.045 12.6359 645 64.9922 1183.67 524.771
899 0 51.0779 13.3326 681 64.4097 1184.03 526.361
900 0 53.068 12.7761 678 64.3614 1184.22 525.973
901 0 55.0781 11.2567 620 66.0226 1183.91 524.934
902 0 57.0511 15.8805 906 60.4856 1184.24 522.073
903 0 60.0638 13.8686 833 62.1381 1184.38 522.945
904 0 62.041 12.8464 797 63.3275 1184.54 521.164
905 0 63.1151 12.1049 764 63.9921 1184 517.7
906 0 67.1609 11.9861 805 63.482 1184.38 518.33
907 0 67.0563 10.8416 727 64.8872 1184.17 518.186
908 0 69.1021 14.2977 988 60.832 1183.84 518.795
909 0 72.0924 12.6643 913 63.5246 1184.35 515.518
910 0 74.0257 13.2927 984 62.8089 1184.35 513.778
911 0 79.1109 13.7402 1087 61.9522 1184.43 511.811
912 0 80.0704 13.5256 1083 62.6667 1184.37 511.235
913 0 83.0584 13.2798 1103 61.7842 1184.91 513.739
914 1 43.0582 11.4961 495 62.1717 1184.53 533.162
915 0 43.0664 12.4691 537 61.3054 1183.87 532.492
916 0 47.1335 11.8387 558 60.6595 1183.36 532.597
917 0 47.0701 12.8957 607 60.1862 1183.82 531.374
918 0 47.0339 12.6505 595 60.5227 1183.65 531.276
919 0 50.0661 12.5234 627 60.7799 1183.02 529.134
920 0 50.076 12.4211 622 60.4662 1183.44 530.506
921 0 51.1012 12.2306 625 60.6224 1182.77 528.376
922 0 54.0935 13.9019 752 59.4109 1182.95 524.376
923 0 54.1988 12.0482 653 61.0199 1182.76 527.968
924 0 57.0364 12.6761 723 59.9917 1182.85 525.799
925 0 58.0712 12.588 731 60.9658 1183.18 522.337
926 0 60.2501 13.8091 832 59.5481 1183.26 524.377
927 0 62.0648 11.8908 738 61.7724 1183.41 523.854
928 0 63.0452 12.5148 789 61.2256 1183.31 523.632
929 0 66.1182 13.9145 920 60.1196 1182.69 520.982
930 0 66.095 12.1189 801 63.206 1182.77 519.045
931 0 69.165 13.0557 903 61.5028 1183.02 520.045
932 0 70.1699 13.7523 965 62.1285 1183.08 519.258
933 0 74.2005 15.5794 1156 59.6557 1183.47 517.744
934 0 76.0834 12.276 934 63.5161 1183.31 516.119
935 0 77.0961 13.4767 1039 62.5274 1183.76 514.874
936 0 77.1756 11.3896 879 65.6792 1183.61 514.539
937 0 81.0883 12.0363 976 65.1045 1183.3 514.324
938 0 83.1256 13.6059 1131 63.6118 1183.77 511.472
939 0 87.0864 12.6885 1105 64.6968 1183.77 509.874
940 0 86.1744 13.171 1135 65.0141 1183.44 509.023
941 0 92.1394 14.6734 1352 62.6672 1183.18 508.33
942 0 94.3405 13.7587 1298 64.5015 1183.6 504.938
943 0 96.2029 14.1472 1361 64.0962 1183.38 504.359
944 0 97.1351 14.2173 1381 64.6836 1184.39 504.064
945 0 104.105 14.7735 1538 63.34 1183.98 500.771
946 0 107.158 14.222 1524 63.8445 1184.31 502.771
947 0 108.106 13.57 1467 65.7226 1183.98 500.337
948 1 56.07 15.7304 882 62.542 1184.67 525.705
949 0 62.1276 13.5045 839 64.1645 1185 526.523
950 0 62.1116 12.3166 765 66.5869 1184.25 523.982
951 0 66.0622 13.4267 887 65.4667 1184.41 522.537
952 0 65.0307 13.0092 846 67.4291 1185.3 521.377
953 0 70.207 13.275 932 66.0987 1184.83 520.981
954 0 71.0397 14.3863 1022 65.8943 1184.43 518.709
955 0 74.0788 14.0661 1042 65.8656 1184.14 517.202
956 0 76.1569 13.5378 1031 67.1106 1183.65 518.124
957 0 77.0773 13.3373 1028 67.4864 1184.68 517.154
958 0 78.047 12.2875 959 70.0386 1184.13 513.45
959 0 84.1343 14.0014 1178 66.9677 1184.12 515.829
960 0 84.2924 13.1091 1105 69.6805 1183.84 512.245
961 1 44.1097 12.1062 534 69.4551 1184.61 533.215
962 0 46.0911 12.3668 570 69.0386 1184.61 533.556
963 0 47.0806 13.4875 635 67.9921 1184.85 532.775
964 0 48.2669 13.674 660 68.7939 1184.96 530.408
965 0 49.2204 14.3639 707 67.3083 1183.68 531.453
966 0 51.2686 13.7316 704 68.4531 1183.41 530.001
967 0 53.0988 13.748 730 68.5452 1184.03 528.941
968 0 54.0507 15.6705 847 66.1499 1183.99 527.824
969 0 57.1322 14.6327 836 66.695 1184.32 528.327
970 0 59.2643 14.0051 830 67.5831 1184.26 526.181
971 0 58.1335 13.9678 812 68.2217 1184.43 525.972
972 0 63.1888 14.971 946 66.425 1184.35 524.146
973 0 66.1789 13.4333 889 68.5411 1184.11 522.319
974 0 67.238 14.0694 946 66.8351 1184.07 522.962
975 0 67.1598 12.4032 833 70.1633 1183.96 521.683
976 1 36.2967 12.5631 456 67.3882 1183.97 536.958
977 0 37.1966 13.4421 500 67.71 1183.74 535.028
978 0 35.0695 13.4875 473 68.7315 1184.17 535.886
979 0 40.0366 12.5885 504 68.6786 1184.8 535.399
980 0 40.0756 12.8008 513 69.2066 1183.87 534.698
981 0 42.0772 12.8811 542 69.6531 1184.24 531.998
982 0 40.1895 10.8984 438 72.7603 1184.43 532.881
983 0 45.0146 12.707 572 69.035 1184.2 533.238
984 0 42.2442 12.333 521 71.3935 1184.1 531.461
985 0 46.0889 13.3004 613 70.3377 1184.74 529.323
986 0 48.1078 14.2804 687 68.1164 1185.13 530.428
987 0 48.1101 12.4714 600 71.0183 1184.38 531.393
988 0 47.1308 12.2849 579 72.7858 1184.65 528.829
989 0 51.1787 13.5799 695 70.3266 1184.17 528.797
990 0 54.1999 14.5941 791 68.4703 1183.69 527.752
991 0 55.1473 13.7994 761 68.8423 1184.21 528.597
992 0 57.277 14.037 804 69.3085 1183.79 526.667
993 0 55.18 12.9757 716 71.8087 1184.64 524.996
994 0 58.1005 14.4233 838 69.2876 1184.4 526.39
995 0 62.0683 13.614 845 70.0462 1184.57 524.743
996 0 65.3208 12.7218 831 71.0602 1184.41 524.896
997 0 64.0998 12.6989 814 72.8944 1184.65 522.178
998 0 68.2172 13.6769 933 70.3548 1183.96 523.029
999 0 69.2674 14.2636 988 69.7581 1183.34 522.502
1000 0 72.1282 13.4621 971 70.8105 1183.57 520.197
1001 0 72.2813 12.7004 918 72.3682 1184.05 519.674
1002 0 76.109 13.0602 994 72.1358 1184.32 516.743
1003 1 37.2743 11.6166 433 71.3949 1184.94 538.051
1004 0 38.1853 13.9321 532 69.4135 1184.2 536.306
1005 0 38.1814 11.9168 455 71.4044 1183.96 538.27
1006 0 39.2628 12.7856 502 72.2331 1183.64 535.038
1007 0 39.1541 13.4086 525 71.5162 1183.79 536.718
1008 0 41.1525 12.1256 499 72.2405 1183.64 536.679
1009 0 42.1016 13.0399 549 71.4317 1183.41 536.419
1010 0 43.1465 13.6048 587 70.5724 1184.22 535.267
1011 0 45.2057 12.7196 575 72.5687 1184.37 533.104
1012 0 47.2527 13.7135 648 71.0247 1184.44 533.039
1013 0 49.0631 13.6966 672 70.5506 1184.38 532.36
1014 0 50.0792 11.5417 578 72.9879 1183.59 532.666
1015 0 51.2794 13.9237 714 69.7297 1184.19 531.274
1016 0 54.0473 13.6732 739 68.3315 1183.55 533.704
1017 0 53.0782 13.3388 708 70.5607 1183.68 530.825
1018 0 57.3848 12.6688 727 70.5543 1183.91 530.912
1019 0 54.1781 12.8096 694 71.938 1183.37 528.896
1020 0 58.2148 14.2232 828 69.9372 1183.37 527.871
1021 1 131.254 13.0434 1712 72.7278 1183.41 496.649
1022 0 135.47 11.9805 1623 72.5798 1183.14 500.6
1023 0 137.25 11.6575 1600 76.1912 1183.29 490.034
1024 0 147.402 13.7108 2021 72.4864 1183.25 489.99
1025 0 148.28 11.1141 1648 76.3774 1183.76 488.186
1026 1 110.238 11.2484 1240 75.3766 1183.63 508.648
1027 0 114.405 12.9539 1482 74.2928 1183.32 503.408
1028 0 116.231 13.6625 1588 74.8123 1182.29 499.686
1029 1 75.278 12.1417 914 75.6127 1183.12 520.58
1030 0 76.2321 12.0028 915 76.0623 1182.57 519.704
1031 0 77.2442 11.5866 895 77.2972 1182.57 518.339
1032 0 80.1699 11.3634 911 77.1976 1182.29 519.663
1033 0 85.4151 13.5807 1160 74.2319 1182.85 517.047
1034 0 85.2583 12.1044 1032 75.3876 1182.64 519.496
1035 0 89.4656 12.5635 1124 75.3834 1182.91 515.211
1036 0 92.1676 13.4754 1242 74.9742 1182.59 512.366
1037 0 94.4896 13.6735 1292 74.031 1181.89 512.51
1038 1 48.3354 11.4202 552 76.9873 1181.72 532.716
1039 0 50.1217 12.8687 645 75.0465 1181.28 531.434
1040 0 53.342 12.9166 689 74.6096 1181.43 531.074
1041 0 56.2994 12.771 719 74.1405 1181.27 530.821
1042 0 54.3756 12.8366 698 75.1705 1182.06 530.596
1043 0 57.3284 12.629 724 74.3246 1181.88 528.256
1044 0 60.1602 12.5 752 73.7633 1181.84 527.73
1045 0 61.2318 12.0852 740 74.4432 1181.53 524.827
1046 0 65.1565 12.0172 783 73.3346 1181.55 526.215
1047 0 66.3941 12.3204 818 73.0746 1181.94 526.306
1048 0 68.173 11.3095 771 73.716 1182.17 526.135
1049 0 72.146 13.3757 965 71.1762 1183.1 520.416
1050 0 74.2137 12.2349 908 72.3337 1182.14 520.415
1051 0 78.3398 13.467 1055 70.5232 1182.37 518.649
1052 0 81.3349 11.6801 950 71.9463 1181.79 520.263
1053 1 43.1784 12.1357 524 69.5248 1182.32 536.849
1054 0 44.3321 14.0981 625 67.6272 1182.12 536.154
1055 0 47.1652 13.0817 617 67.9595 1182.41 536.893
1056 0 48.349 12.1616 588 68.5782 1182.61 536.825
1057 0 46.2475 12.4763 577 69.8458 1182.7 534.22
1058 0 50.1368 13.3236 668 66.8832 1182.82 535.145
1059 0 51.2266 13.7038 702 67.7009 1182.39 531.956
1060 0 51.1796 12.5441 642 68.7492 1182.44 534.536
1061 0 55.0927 15.0292 828 65.535 1182.92 533.855
1062 0 55.1777 14.9336 824 65.6396 1182.15 533.652
1063 0 57.2771 12.9546 742 67.7803 1182.72 532.74
1064 0 60.1564 14.1631 852 66.6303 1182.94 529.055
1065 0 62.2574 12.3359 768 67.2539 1182.58 533.94
1066 0 61.3451 14.2636 875 67.5589 1183.62 526.576
1067 0 63.1539 13.0475 824 68.193 1183.5 528.427
1068 0 68.1253 13.5045 920 67.2326 1183.41 525.436
1069 0 70.3036 15.5184 1091 64.6682 1183.58 525.705
1070 0 71.3353 13.1071 935 68.3968 1183.69 524.755
1071 0 73.1704 13.5437 991 67.5802 1183.56 524.693
1072 0 78.2999 13.2439 1037 68.0376 1183.42 522.552
1073 0 80.338 14.7253 1183 65.6222 1183.25 522.802
1074 0 82.1701 13.399 1101 68.1635 1183.18 518.626
1075 0 84.2572 12.806 1079 68.9314 1183.03 518.643
1076 0 85.1113 12.0548 1026 69.9893 1183.53 518.512
1077 0 89.2941 14.3123 1278 67.356 1183.21 516.124
1078 1 50.3957 12.4812 629 68.9444 1183.09 535.03
1079 0 50.3768 14.2923 720 68.0472 1182.77 532.425
1080 0 54.5387 14.9068 813 65.9619 1182.99 533.62
1081 0 54.2114 13.7241 744 68.8723 1182.54 530.675
1082 0 57.3909 13.5562 778 67.9859 1182.47 531.2
1083 0 59.1298 12.9715 767 68.9974 1182.93 530.164
1084 0 59.2525 13.5015 800 68.9062 1182.8 527.342
1085 0 60.1404 13.6181 819 68.2088 1183.02 529.99
1086 0 64.2299 13.8098 887 68.0744 1182.97 526.592
1087 0 68.1598 15.9625 1088 64.2252 1183.6 526.716
1088 0 69.1925 12.5592 869 68.1415 1182.58 527.551
1089 0 74.289 14.8474 1103 65.6555 1183.26 524.258
1090 0 73.2792 14.6017 1070 66.9589 1183.21 523.284
1091 0 77.2848 14.0907 1089 67.6198 1183.3 520.604
1092 0 80.178 14.1435 1134 66.9339 1183.16 521.429
1093 0 82.2572 13.8833 1142 67.1708 1183.04 519.035
1094 0 85.2386 15.8848 1354 64.0753 1183.84 519.054
1095 0 87.2681 13.6018 1187 67.6883 1183.94 515.852
1096 0 87.2461 12.8373 1120 68.5875 1183.48 514.028
1097 0 92.185 14.395 1327 66.2977 1183.46 511.974
1098 1 46.2704 13.7453 636 66.0503 1182.74 535.47
1099 0 48.1425 14.4155 694 63.9885 1183.35 535.839
1100 0 48.1775 12.537 604 67.8725 1182.99 533.088
1101 0 50.2899 12.6665 637 66.865 1182.47 533.22
1102 0 53.1433 14.7526 784 65.389 1182.66 529.71
1103 0 54.1817 12.0151 651 67.4255 1182.62 531.57
1104 0 55.2334 13.8684 766 66.2441 1182.62 527.88
1105 0 57.4184 12.6789 728 67.2239 1182.92 529.628
1106 0 60.1837 14.7548 888 64.2241 1182.3 528.215
1107 0 62.2586 13.3154 829 66.7805 1182.06 522.514
1108 0 62.1785 13.2361 823 67.1871 1183.3 524.597
1109 0 66.2642 13.5216 896 65.9408 1183.34 524.301
1110 0 69.4233 13.3097 924 66.0736 1183.69 522.161
1111 0 70.2405 12.628 887 66.8004 1183.65 522.643
1112 0 72.3228 12.3059 890 67.3494 1183.69 520.648
1113 0 75.2065 14.8923 1120 65.0205 1183.54 517.121
1114 0 77.1992 12.8628 993 67.3414 1182.98 515.332
1115 0 79.168 13.8945 1100 66.6345 1183.27 514.772
1116 0 83.2966 14.1903 1182 65.4932 1183.37 514.98
1117 0 85.3346 13.91 1187 65.8265 1184 512.967
1118 0 88.2285 13.4877 1190 66.458 1183.81 513.384
1119 0 90.1753 13.1854 1189 67.032 1182.86 509.914
1120 0 94.236 14.1984 1338 66.1472 1183.49 507.577
1121 1 51.1885 14.2219 728 65.0151 1183.79 530.791
1122 0 53.1556 14.8244 788 64.6878 1183.39 528.737
1123 0 54.2405 11.6518 632 68.2832 1183.47 530.407
1124 0 55.2265 13.0734 722 68.2729 1184 525.76
1125 0 59.6342 13.3984 799 66.776 1184.07 527.87
1126 0 58.3807 12.9666 757 68.9458 1183.45 524.676
1127 0 62.3775 13.274 828 67.43 1183.48 525.256
1128 0 64.3614 13.0202 838 68.222 1183.14 523.63
1129 0 67.2205 12.8235 862 67.4988 1183.8 523.23
1130 0 68.2963 13.0168 889 67.8639 1183.96 521.292
1131 0 73.1936 13.717 1004 66.6076 1183.05 517.838
1132 0 77.4238 14.5433 1126 64.9387 1183.74 519.631
1133 0 80.3408 13.9779 1123 65.4132 1183.25 519.426
1134 0 81.2774 16.253 1321 63.0674 1183.07 518.576
1135 0 82.4614 13.2062 1089 67.5142 1183.8 514.624
1136 0 87.2763 14.0817 1229 66.0895 1183.57 512.802
1137 0 89.1783 15.2616 1361 65.0213 1183.4 513.303
1138 0 91.3102 13.142 1200 67.2467 1183.22 511.648
1139 0 95.1288 15.5263 1477 64.8781 1183.61 509.21
1140 0 97.4068 13.305 1296 67.6536 1183.54 511.562
1141 0 98.3085 13.3254 1310 68.0511 1183.68 504.729
1142 0 106.476 16.013 1705 63.7548 1183.94 506.647
1143 1 53.5219 13.4711 721 66.9209 1183.6 528.856
1144 0 52.3726 12.0101 629 69.6089 1183.68 530.35
1145 0 53.5099 13.5302 724 68.8425 1183.43 527.762
1146 0 57.1938 16.4703 942 64.9183 1184.29 527.017
1147 0 59.3491 14.1704 841 67.1772 1183.38 526.679
1148 0 62.1224 14.729 915 66.3027 1183.15 527.13
1149 0 63.3285 13.3589 846 68.8499 1183.15 525.645
1150 0 63.3689 13.524 857 69.2964 1183.28 524.144
1151 0 67.2427 15.3474 1032 67.1172 1183.1 522.41
1152 0 70.193 16.3122 1145 65.0751 1182.71 522.231
1153 0 72.1949 14.724 1063 67.0574 1183.25 523.062
1154 0 74.2678 14.9863 1113 67.3046 1183.57 520.625
1155 0 77.2049 13.2893 1026 68.9756 1183.88 518.415
1156 0 76.1808 14.2424 1085 68.2424 1183.36 517.689
1157 0 82.0958 14.41 1183 67.7675 1183.58 514.987
1158 0 84.291 13.833 1166 67.8825 1183.83 518.219
1159 0 87.2079 13.6226 1188 68.6852 1184.13 515.901
1160 0 90.4265 15.7697 1426 65.7258 1183.67 515.207
1161 0 92.5451 14.9765 1386 67.4603 1183.64 512.684
1162 0 97.2464 14.7049 1430 67.4042 1183.12 509.329
1163 0 98.3791 14.1392 1391 67.9605 1183.29 511.061
1164 0 101.416 14.0017 1420 68.9042 1183.08 506.698
1165 1 49.1878 14.7801 727 66.4704 1183.24 530.458
1166 0 52.2186 14.2861 746 67.8686 1183.34 530.933
1167 0 49.1153 13.2749 652 70.2853 1184.14 530.84
1168 0 51.0837 13.0961 669 70.8595 1184.25 530.126
1169 0 53.224 14.035 747 69 1183.6 530.648
1170 0 57.1845 13.6226 779 69.6842 1183.68 529.055
1171 0 56.1724 13.601 764 70.5092 1183.74 529.391
1172 0 59.1494 14.1844 839 69.4267 1183.51 529.404
1173 0 61.3303 13.9572 856 70.215 1183.36 528.896
1174 0 61.1673 12.9971 795 72.2843 1183.87 527.897
1175 0 65.142 15.3204 998 69.0902 1183.9 527.045
1176 0 67.3282 14.2734 961 70.9521 1183.79 525.876
1177 0 70.115 14.7329 1033 70.4414 1184.28 525.92
1178 0 72.1702 14.6875 1060 71.6726 1184.53 522.542
1179 0 74.1489 13.0009 964 73.9429 1184.33 521.918
1180 0 76.182 15.988 1218 70.8268 1183.37 520.515
1181 0 78.1844 13.903 1087 73.9945 1182.89 519.672
1182 0 81.1626 16.0788 1305 71.623 1183.84 517.506
1183 0 84.1985 15.4041 1297 72.3315 1183.56 517.571
1184 0 86.2866 15.2515 1316 73.1619 1183.82 514.957
1185 0 87.1578 14.8122 1291 74.0558 1183.51 512.778
1186 0 92.2777 15.2908 1411 72.9936 1183.61 512.505
1187 0 95.1401 14.5575 1385 73.8404 1183.12 510.812
1188 0 98.2878 15.2003 1494 72.6794 1183.4 510.037
1189 0 102.196 14.4721 1479 73.7045 1183.77 510.659
1190 0 105.3 14.2355 1499 74.5217 1183.68 507.621
1191 0 108.281 15.2011 1646 73.1391 1183.32 506.305
1192 1 56.1972 14.3068 804 73.8196 1183.55 529.974
1193 0 58.2496 13.7512 801 75.0649 1184.1 529.33
1194 0 59.1631 13.1163 776 76.8595 1184.14 525.612
1195 0 61.1387 13.5266 827 75.6022 1183.93 526.565
1196 0 64.2488 14.3349 921 74.3616 1183.49 525.036
1197 0 65.1328 16.0902 1048 72.541 1183.05 525.39
1198 0 67.2802 14.8484 999 73.4695 1182.94 526.518
1199 0 71.4016 13.7672 983 74.7965 1183.15 524.599
1200 0 71.276 13.6091 970 76.034 1184.13 521.786
1201 0 79.1482 15.5657 1232 62.4894 1183.3 525.289
1202 0 77.2499 14.4725 1118 74.7791 1183.93 520.725
1203 0 79.5608 14.1527 1126 75.1199 1184.09 519.248
1204 0 84.3515 15.0798 1272 72.7901 1183.16 518.864
1205 0 84.3515 15.0323 1268 157.1 1181.16 518.868
1206 0 88.0527 13.4238 1182 75.4196 1183.19 516.27
1207 0 90.1998 12.9934 1172 75.9864 1183.17 513.479
1208 1 44.1268 14.7529 651 71.8679 1184.13 535.318
1209 0 48.2287 13.6641 659 73.3323 1184.25 532.546
1210 0 49.3177 12.754 629 73.2305 1183.86 533.626
1211 0 50.3481 13.3074 670 72.5687 1183.19 533.534
1212 0 51.2334 14.6194 749 71.6462 1183.56 532.579
1213 0 53.1972 13.7789 733 72.1446 1183.61 531.876
1214 0 54.2355 13.9392 756 72.1878 1184.42 529.894
1215 0 57.3032 14.6938 842 69.3397 1183.79 529.733
1216 0 58.3286 13.3211 777 71.556 1183.83 529.431
1217 0 60.2475 14.2081 856 70.4065 1183.97 528.068
1218 0 63.3488 15.1384 959 68.1794 1183.64 528.884
1219 0 63.3484 12.7706 809 72.4846 1183.43 525.258
1220 0 66.2775 13.1266 870 71.1483 1183.33 525.833
1221 0 67.2556 13.0398 877 72.1471 1183.35 522.865
1222 0 67.3668 10.7917 727 75.4374 1183.54 521.283
1223 0 73.3994 13.3652 981 71.4944 1183.33 519.674
1224 0 76.2559 13.7039 1045 70.6421 1184.04 519.895
1225 0 78.4288 11.8451 929 73.1141 1184.66 518.398
1226 0 81.2927 14.2079 1155 70.1628 1184.74 516.007
1227 0 83.2383 13.9119 1158 70.4447 1185 517.146
1228 0 84.3082 12.395 1045 72.8536 1184.37 515.312
1229 1 44.3464 13.7553 610 69.4131 1183.78 535.257
1230 0 45.1678 12.996 587 71.293 1184.16 535.353
1231 0 49.2713 13.0502 643 70.9378 1184.24 532.334
1232 0 50.4026 13.5906 685 69.9752 1184.48 533.283
1233 0 52.4959 12.8201 673 69.0951 1184.12 534.149
1234 0 53.3321 13.7816 735 69.5932 1183.86 531.958
1235 0 53.5221 14.1437 757 70.5178 1183.85 529.273
1236 0 55.3914 14.6232 810 68.6926 1183.58 530.301
1237 0 55.1934 13.6792 755 71.7126 1183.64 526.901
1238 0 58.3244 13.4249 783 70.3934 1183.66 528.966
1239 0 61.5092 14.9083 917 67.8441 1183.57 527.474
1240 0 62.4636 13.1757 823 70.61 1183.97 525.892
1241 0 64.3112 12.3618 795 71.1799 1183.72 525.523
1242 0 66.3784 13.7846 915 69.4721 1183.98 524.425
1243 0 69.2264 14.9076 1032 68.312 1185.13 522.781
1244 0 70.3896 13.5531 954 70.7034 1184.59 520.56
1245 0 73.3269 12.042 883 71.1586 1183.89 523.758
1246 0 75.2914 13.202 994 70.7022 1183.47 520.16
1247 0 79.3235 13.426 1065 70.2131 1184.41 519.192
1248 0 81.4655 13.2326 1078 70.0482 1184.81 519.613
1249 0 84.5382 13.8636 1172 70.058 1184.05 516.689
1250 0 85.228 14.0682 1199 70.7473 1184.28 515.172
1251 0 87.1215 12.9015 1124 71.8932 1184.66 514.943
1252 0 92.5365 13.2272 1224 70.6422 1184.28 515.203
1253 1 47.2186 13.2363 625 69.4288 1184.73 535.048
1254 0 46.1169 13.0104 600 72.04 1184.21 532.867
1255 0 46.2165 14.1075 652 71.4294 1184.32 532.158
1256 0 49.2304 12.7766 629 72.6948 1183.93 532.173
1257 0 51.196 13.3995 686 71.9286 1184.05 530.886
1258 0 50.2759 12.7695 642 72.5608 1184.56 531.656
1259 0 53.1799 14.2159 756 70.619 1184.1 531.712
1260 0 56.3965 14.5044 818 69.709 1184.44 529.966
1261 0 59.3909 14.0426 834 69.8669 1183.07 528.735
1262 0 59.4244 14.1019 838 70.1862 1183.32 527.956
1263 0 60.268 13.7718 830 71.1651 1183.57 524.87
1264 0 62.235 13.5776 845 70.6142 1183.22 527.42
1265 0 65.499 14.7483 966 69.1335 1183.84 525.629
1266 0 67.1061 12.3238 827 71.9214 1184.4 527.227
1267 0 70.2561 14.1198 992 69.9314 1184.38 525.181
1268 0 72.1948 14.8072 1069 69.043 1184.38 521.703
1269 0 72.2074 12.8934 931 72.5263 1184.18 520.169
1270 0 74.3635 14.4426 1074 70.6266 1183.41 519.069
1271 0 79.1877 13.8405 1096 70.6624 1183.06 518.218
1272 0 81.3274 14.5215 1181 69.4928 1183.59 518.171
1273 0 82.2996 11.0572 910 74.1857 1183.39 516.387
1274 0 86.2512 14.1216 1218 69.9031 1183.27 515.7
1275 0 89.3321 13.6009 1215 70.8897 1183.53 513.669
1276 1 43.2307 12.8612 556 72.9406 1183.67 534.329
1277 0 45.2057 14.7327 666 69.9354 1184.62 535.17
1278 0 46.4147 13.6379 633 72.1169 1183.83 533.513
1279 0 46.2888 13.3294 617 73.2545 1183.44 532.613
1280 0 49.1596 12.7951 629 74.2639 1184.22 530.005
1281 0 51.2073 16.5015 845 68.0485 1183.06 531.676
1282 0 52.2146 14.766 771 71.227 1183.94 527.844
1283 0 55.203 14.5282 802 70.3703 1183.45 530.025
1284 0 56.3168 14.3119 806 70.1005 1183.54 530.742
1285 0 55.1983 14.2396 786 71.3321 1184.4 528.706
1286 0 59.1786 14.8365 878 70.5604 1184.49 526.836
1287 0 63.1256 16.586 1047 67.4394 1184.96 525.829
1288 0 64.3107 14.6165 940 70.2266 1183.79 524.25
1289 0 65.215 15.2419 994 70.168 1184.48 526.176
1290 0 67.2393 14.8276 997 70.1665 1184.4 524.947
1291 0 70.3432 14.1876 998 71.3457 1184.76 522.62
1292 0 71.4029 14.3692 1026 70.9591 1183.97 523.878
1293 0 74.4014 15.6045 1161 69.6753 1183.53 521.363
1294 0 76.3333 14.7642 1127 71.1659 1182.73 516.681
1295 0 78.1977 13.4275 1050 72.641 1183.47 516.124
1296 0 81.4928 13.8294 1127 72.0914 1183.97 518.056
1297 0 84.565 13.9538 1180 71.6441 1183.32 515.494
1298 0 89.1922 15.8086 1410 68.6348 1183.2 513.905
1299 0 91.2639 15.0333 1372 69.1006 1183.6 515.152
1300 1 42.1146 10.7564 453 73.6865 1183.77 534.684
1301 0 44.4101 13.6005 604 69.8907 1183.77 534.248
1302 0 46.3448 13.6369 632 69.6092 1184.23 535.424
1303 0 44.263 13.7813 610 71.0393 1183.2 533.887
1304 0 45.3172 12.2691 556 73.4532 1182.98 532.653
1305 0 48.2003 15.1659 731 68.0438 1184.34 534.546
1306 0 50.3411 15.097 760 68.646 1183.88 531.662
1307 0 50.2547 14.5061 729 70.4486 1184.37 530.787
1308 0 51.2355 14.5992 748 69.7955 1184.01 531.463
1309 0 54.1759 13.0132 705 70.8539 1183.7 530.515
1310 0 53.4571 13.6558 730 71.589 1183.88 527.608
1311 0 57.2069 14.4738 828 69.5169 1184.34 527.804
1312 0 60.3266 14.0237 846 70.266 1184.13 524.712
1313 0 63.3207 14.7661 935 69.0406 1184.17 525.519
1314 0 62.148 12.3576 768 71.97 1184.06 524.904
1315 0 67.2749 14.2401 958 68.2756 1183.94 526.146
1316 0 67.2583 16.0575 1080 67.6565 1183.74 522.797
1317 0 71.3239 14.7496 1052 68.1084 1183.68 522.634
1318 0 73.2874 13.6586 1001 69.0999 1183.78 521.249
1319 0 74.3965 13.7506 1023 69.2493 1184.14 521.077
1320 0 76.4547 13.2104 1010 69.7475 1184.03 519.497
1321 0 80.2975 14.0104 1125 68.3724 1184.43 519.191
1322 0 82.4488 14.8577 1225 67.4678 1183.93 514.384
1323 0 84.2407 13.5801 1144 69.3059 1183.08 514.676
1324 0 89.1762 15.0825 1345 66.6461 1183.7 514.877
1325 0 89.7064 13.5553 1216 68.3141 1183.79 514.858
1326 1 48.3662 12.6121 610 66.4705 1184.02 534.043
1327 0 47.3013 15.0524 712 65.0913 1183.73 530.733
1328 0 48.4885 12.3534 599 68.2337 1184.01 531.13
1329 0 48.5428 13.7199 666 66.2793 1184.15 531.27
1330 0 50.2368 12.1823 612 68.1193 1184.16 530.237
1331 0 55.2686 15.5604 860 62.657 1184.08 531.18
1332 0 57.2807 14.2631 817 64.3146 1183.82 529.809
1333 0 55.2564 14.0255 775 65.6052 1183.55 529.984
1334 0 55.3906 12.3667 685 68.1869 1184.2 526.828
1335 0 60.1628 13.53 814 66.9496 1184.43 526.361
1336 0 60.2651 14.4362 870 66.1161 1184.89 524.931
1337 0 65.1742 14.0393 915 65.6022 1184.3 526.027
1338 0 66.2401 11.8206 783 68.5415 1184.02 523.194
1339 0 70.6354 13.2228 934 66.1906 1183.63 523.843
1340 0 70.5399 13.9354 983 66.0041 1183.61 521.192
1341 0 74.2971 14.9669 1112 64.6906 1183.82 520.839
1342 0 74.2447 12.7147 944 68.1006 1184.12 518.449
1343 0 76.2188 12.6216 962 67.8347 1183.46 517.8
1344 0 79.2521 14.6242 1159 64.8412 1184.18 518.567
1345 0 79.229 12.8488 1018 67.8762 1183.09 517.566
1346 0 85.2018 13.2744 1131 66.7692 1182.94 517.354
1347 0 85.2726 14.483 1235 65.9838 1183.63 514.326
1348 0 89.2658 11.9867 1070 68.4776 1184.06 515.38
1349 0 90.4052 13.9483 1261 67.1705 1184.5 511.512
1350 1 41.1452 13.027 536 67.4552 1184.12 536.545
1351 0 42.2338 11.9809 506 70.2984 1184.96 535.241
1352 0 42.1886 11.2827 476 71.187 1184.06 535.124
1353 0 44.1402 11.3729 502 70.4582 1183.3 535.042
1354 0 45.1746 12.8612 581 68.5938 1183.87 535.325
1355 0 46.0825 12.9767 598 69.9448 1183.47 532.132
1356 0 48.1473 15.4941 746 66.9464 1183.51 532.599
1357 0 49.3632 12.2763 606 71.6106 1184.05 530.109
1358 0 53.1637 13.0352 693 69.1039 1184.46 531.817
1359 0 54.2598 12.2558 665 70.2737 1184.33 530.241
1360 0 57.1265 12.096 691 69.67 1184.61 531.502
1361 0 58.4003 13.1164 766 69.9295 1184.74 527.896
1362 0 59.178 14.8704 880 68.3955 1183.83 527.083
1363 0 62.1209 13.361 830 69.453 1183.66 527.822
1364 0 62.2851 14.4818 902 69.8049 1184.14 523.586
1365 0 64.3264 10.8976 701 73.5963 1184.24 524.923
1366 0 69.1064 14.3402 991 69.33 1184.05 523.047
1367 0 70.2046 12.549 881 70.7866 1184.27 525.28
1368 0 72.416 14.0438 1017 70.4326 1183.59 519.972
1369 0 73.2614 12.9263 947 72.1436 1184.15 521.128
1370 0 79.0941 15.0327 1189 68.4701 1184.22 522.089
1371 0 79.0836 14.0358 1110 71.2496 1184.52 517.826
1372 0 80.1255 15.638 1253 69.4286 1184.23 517.792
1373 0 85.186 14.0633 1198 70.5309 1184.11 517.858
1374 0 88.1987 13.5943 1199 71.4796 1183.73 514.912
1375 0 89.1506 15.5804 1389 68.9417 1183.84 512.805
1376 1 43.2742 13.6802 592 70.4544 1183.69 534.747
1377 0 44.2345 12.8181 567 72.0317 1183.99 533.993
1378 0 46.3319 15.7127 728 67.7335 1183.73 534.528
1379 0 48.1377 14.0846 678 68.8791 1184.73 535.736
1380 0 49.1571 13.8129 679 70.4433 1183.83 532.817
1381 0 50.2172 14.278 717 69.7085 1184.18 532.31
1382 0 52.0735 12.1367 632 72.212 1184.05 532.312
1383 0 52.1236 12.1442 633 72.7583 1183.72 530.051
1384 0 54.2647 14.0607 763 69.426 1183.68 530.879
1385 0 54.1354 14.0758 762 69.8976 1184.35 529.517
1386 0 57.1649 12.6476 723 70.8728 1184.32 528.553
1387 0 58.1094 12.9755 754 70.5318 1183.61 527.784
1388 0 58.1875 13.3706 778 69.7661 1184.26 528.661
1389 0 63.1827 13.8646 876 68.5114 1185.12 526.888
1390 0 64.1188 14.1456 907 67.9416 1184.81 526.838
1391 0 64.2006 12.6634 813 69.4219 1183.72 526.324
1392 0 67.1501 14.9069 1001 67.1359 1183.97 524.498
1393 0 67.1799 13.7095 921 68.8903 1184.24 523.436
1394 0 71.0766 15.6592 1113 66.2102 1184.18 522.191
1395 0 73.1092 13.049 954 69.1667 1184.04 521.208
1396 0 74.1683 13.1862 978 68.7464 1184.55 521.233
1397 0 79.2622 13.4112 1063 67.8241 1183.95 520.135
1398 0 80.1022 14.3442 1149 66.5274 1184.11 516.296
1399 0 81.0653 15.21 1233 65.2271 1183.79 517.088
1400 0 85.1025 14.1241 1202 66.2662 1183.73 515.81
1401 0 86.5063 13.9412 1206 66.5912 1184.53 515.196
1402 0 92.3406 14.1433 1306 65.2802 1183.74 516.322
1403 0 95.1137 15.1608 1442 63.2039 1184.14 517.25
1404 1 43.2414 13.7831 596 65.8188 1183.59 536.762
1405 0 47.2908 13.6602 646 64.9071 1183.17 535.666
1406 0 48.3492 12.5752 608 65.7862 1183.31 536.092
1407 0 47.2556 14.0089 662 65.9184 1183.55 533.332
1408 0 51.5173 15.0629 776 63.6559 1183.93 532.958
1409 0 54.2355 14.1052 765 63.7007 1184.05 531.966
1410 0 55.1964 14.6386 808 63.0099 1184.69 532.861
1411 0 56.2056 15.1408 851 62.9048 1184.51 529.848
1412 0 57.2381 15.322 877 63.106 1184.37 527.4
1413 0 60.2154 14.4315 869 63.5282 1183.99 524.877
1414 0 61.1684 15.4819 947 62.4182 1184 527.143
1415 0 62.2801 12.9094 804 65.357 1184.65 528.272
1416 0 62.1558 13.0157 809 65.5674 1183.87 526.044
1417 0 65.3136 13.9787 913 63.989 1183.89 524.244
1418 0 65.0651 12.28 799 66.1214 1183.57 522.426
1419 0 70.4192 14.5557 1025 62.6332 1183.3 523.478
1420 0 72.4563 14.6985 1065 62.1981 1183.95 520.189
1421 0 74.3852 14.2501 1060 63.0292 1184.2 521.15
1422 0 76.366 12.7937 977 64.2436 1183.98 522.963
1423 0 81.3464 13.633 1109 62.6023 1183.04 520.715
1424 0 82.1423 13.6714 1123 62.9804 1184.11 518.373
1425 0 84.3744 13.5231 1141 63.2971 1184.6 515.92
1426 0 86.1873 14.9442 1288 62.0637 1184.44 514.123
1427 0 88.2424 13.8142 1219 63.2633 1184.54 513.55
1428 1 46.1061 13.6207 628 61.9554 1184.12 537.143
1429 0 46.0943 13.7544 634 62.4101 1183.99 535.582
1430 0 47.2041 14.4267 681 61.2819 1184.27 535.382
1431 0 49.1825 14.131 695 61.154 1183.72 535.191
1432 0 49.3015 14.1984 700 61.4457 1183.92 535.719
1433 0 49.2638 14.6964 724 62.0428 1183.76 532.646
1434 0 51.2434 14.7726 757 61.6552 1184.14 530.485
1435 0 50.4905 12.5172 632 64.4256 1184.22 530.209
1436 0 56.091 16.1167 904 59.167 1184.41 531.363
1437 0 54.0587 15.5202 839 60.5697 1183.98 528.086
1438 0 58.2228 14.4274 840 60.9952 1184.59 529.408
1439 0 59.0993 13.7227 811 61.4883 1184.25 526.661
1440 0 63.1374 15.4267 974 59.0298 1184.45 527.362
1441 0 65.2768 14.4921 946 60.2304 1184.39 526.674
1442 0 70.0681 13.6867 959 60.1616 1183.98 526.718
1443 0 68.0725 13.6325 928 61.4677 1184.28 523.008
1444 0 70.1557 14.2825 1002 60.9471 1184.08 522.056
1445 0 71.1931 15.4088 1097 59.8706 1184.42 521.057
1446 0 75.1492 14.5976 1097 60.5479 1184.47 521.793
1447 0 76.2048 13.6737 1042 61.9261 1184.15 517.826
1448 0 79.0464 16.0539 1269 58.5524 1183.63 520.065
1449 0 83.1317 14.6154 1215 60.4263 1182.8 515.809
1450 0 85.3861 14.1943 1212 61.0446 1183.37 516.688
1451 0 87.0659 13.6334 1187 62.0379 1184.25 514.599
1452 0 89.1381 12.3067 1097 63.227 1183.69 516.536
1453 1 44.0382 11.2857 497 63.7143 1184.41 533.891
1454 0 46.0739 13.869 639 60.5822 1184.38 533.804
1455 0 48.1869 13.3231 642 61.0592 1184.49 534.755
1456 0 48.1496 12.1081 583 62.2624 1184.03 534.086
1457 0 48.0952 11.4149 549 64.2951 1183.91 531.891
1458 0 53.2756 12.7075 677 61.0842 1183.96 533.371
1459 0 54.1518 12.4465 674 62.2582 1183.99 532.509
1460 0 55.2807 12.6084 697 62.0674 1183.94 531.749
1461 0 56.2396 14.7227 828 59.6196 1184.31 530.525
1462 0 60.1297 14.951 899 59.2169 1184.67 530.994
1463 0 58.1584 15.3374 892 60.8386 1184.62 527.321
1464 0 61.0861 14.144 864 61.2477 1184.69 528.821
1465 0 62.135 12.9396 804 63.0361 1184.29 526.397
1466 0 62.1083 13.9112 864 62.2859 1183.31 522.677
1467 0 66.1266 13.9732 924 62.1017 1183.84 523.609
1468 0 65.0832 15.3035 996 61.1857 1184.07 522.694
1469 0 70.2605 15.6133 1097 59.876 1183.81 521.902
1470 0 69.1046 12.7199 879 64.4653 1183.47 518.248
1471 0 73.3695 12.5665 922 63.5824 1183.59 519.648
1472 0 74.3385 13.7883 1025 62.6176 1184.01 517.665
1473 0 79.2323 11.927 945 64.0815 1183.47 516.619
1474 0 82.2393 13.4242 1104 61.7509 1184.22 518.041
1475 0 83.119 13.9198 1157 61.745 1183.73 515.44
1476 0 85.1708 13.7371 1170 62.4274 1183.37 512.044
1477 0 89.1237 13.4869 1202 61.525 1184.41 514.641
1478 0 93.1302 14.528 1353 60.221 1184.33 510.947
1479 0 94.2586 13.6009 1282 61.6778 1184.39 508.83
1480 0 94.3294 14.2055 1340 61.341 1184 509.94
1481 0 99.2912 12.5187 1243 62.6074 1183.41 506.823
1482 0 101.122 13.0734 1322 62.3169 1183.62 506.529
1483 1 51.1204 14.4169 737 60.3053 1184.06 529.947
1484 0 51.0614 11.8877 607 62.7232 1184.39 532.091
1485 0 55.3208 13.5573 750 60.324 1184.43 531.599
1486 0 58.3038 12.898 752 62.0186 1184.67 528.628
1487 0 58.2731 13.8143 805 61.7366 1184.86 526.421
1488 0 62.2412 12.9175 804 62.4639 1183.82 526.51
1489 0 61.212 12.6609 775 63.8219 1183.66 526.466
1490 0 62.3406 14.0198 874 62.9005 1184.01 523.596
1491 0 64.2833 14.7005 945 62.381 1184.31 524.381
1492 0 67.284 16.1851 1089 60.7714 1183.8 522.32
1493 0 68.1812 13.0241 888 64.5619 1183.99 519.122
1494 0 71.091 13.7992 981 63.4985 1184.37 521.383
1495 0 74.2873 13.044 969 64.6481 1183.82 517.201
1496 0 77.2534 13.6693 1056 63.8655 1183.32 517.616
1497 0 79.1635 16.068 1272 61.0991 1184.06 517.046
1498 0 82.5007 15.4181 1272 61.8836 1183.83 515.046
1499 0 85.2676 14.7535 1258 62.5708 1184.3 516.382
1500 0 90.2902 15.0625 1360 61.3853 1184.14 512.308
1501 0 90.361 12.5829 1137 64.0405 1183.62 514.946
1502 0 95.4932 11.9171 1138 64.3137 1183.4 513.745
1503 1 49.1184 13.8237 679 61.43 1183.39 533.576
1504 0 49.3372 14.7353 727 61.11 1183.35 532.278
1505 0 52.1146 10.9374 570 65.8368 1183.38 531.074
1506 0 52.1146 10.995 573 152.241 1184.37 531.246
1507 0 50.1649 14.4723 726 62.9545 1183.61 531.737
1508 0 55.1494 14.4154 795 62.717 1183.65 530.025
1509 0 57.2794 14.4904 830 63.2964 1183.57 526.308
1510 0 56.2615 13.5617 763 64.73 1182.97 527.035
1511 0 60.132 13.9194 837 63.3656 1183.74 526.442
1512 0 61.0559 15.0518 919 62.2274 1183.38 524.14
1513 0 65.1336 13.8638 903 62.8284 1183.12 523.45
1514 0 67.1936 15.1651 1019 61.6909 1183.07 521.115
1515 0 68.1236 14.004 954 62.6405 1183.62 522.194
1516 0 72.067 16.9148 1219 59.8991 1183.92 517.341
1517 0 75.2576 15.6263 1176 61.1395 1183.72 518.907
1518 0 77.1194 15.2231 1174 61.7973 1184.02 520.08
1519 0 78.1704 12.9205 1010 64.6119 1184.24 517.595
1520 0 84.2351 14.3171 1206 62.6443 1182.72 514.965
1521 0 82.1769 14.0064 1151 63.8827 1183.31 514.81
1522 0 88.3608 14.52 1283 62.8831 1183.03 513.053
1523 0 89.3454 17.5723 1570 59.5866 1183.53 512.06
1524 0 93.6026 13.7817 1290 64.1264 1183.61 509.007
1525 0 94.1651 13.8374 1303 64.2517 1183.34 507.172
1526 0 100.19 15.3708 1540 61.6214 1183.42 507.959
1527 0 103.125 14.4388 1489 62.912 1183.92 505.633
1528 0 107.31 15.2083 1632 61.617 1183.8 505.719
1529 0 114.154 15.9434 1820 60.4071 1183.75 505.954
1530 0 113.338 14.4788 1641 62.7081 1183.59 502.498
1531 0 116.146 14.2924 1660 63.2675 1183.38 499.053
1532 0 118.228 13.9307 1647 64.0024 1182.82 500.337
1533 0 124.236 16.5169 2052 60.79 1183.22 496.687
1534 0 129.22 16.9324 2188 60.5334 1183.6 493.494
1535 0 131.388 15.5189 2039 62.3541 1183.41 491.482
1536 0 136.143 13.5886 1850 63.7757 1183.51 495.695
1537 0 141.476 14.0942 1994 63.8716 1183.28 486.918
1538 0 139.174 13.8173 1923 65.2304 1183.52 482.914
1539 0 148.311 14.8067 2196 63.9317 1182.85 484.722
1540 0 152.172 16.7376 2547 62.0055 1182.57 478.225
1541 0 156.288 14.2301 2224 64.5728 1182.71 477.521
1542 0 162.178 15.5138 2516 63.1777 1182.71 477.964
1543 1 82.1303 12.8698 1057 66.6613 1183.21 515.65
1544 0 86.1336 13.0263 1122 66.6872 1183.13 515.702
1545 0 85.2434 13.6081 1160 65.8517 1183.35 515.514
1546 0 87.0874 14.5256 1265 65.9968 1183.9 512.906
1547 0 90.1576 15.4618 1394 65.2461 1183.89 509.521
1548 0 90.0844 13.8093 1244 66.9068 1183.29 511.317
1549 0 95.1945 13.6563 1300 66.5431 1183.77 511.968
1550 0 96.1712 15.462 1487 65.226 1183.58 509.572
1551 0 99.2543 14.881 1477 65.9831 1183 505.972
1552 0 106.454 13.837 1473 66.738 1182.98 505.386
1553 0 108.116 15.4464 1670 65.2605 1183.13 503.531
1554 0 114.083 13.7005 1563 67.0697 1182.73 500.976
1555 0 116.304 15.5712 1811 65.5213 1182.39 501.493
1556 0 121.499 13.7614 1672 68.0867 1182.46 495.151
1557 0 119.346 12.7947 1527 69.0648 1183 499.912
1558 0 130.239 15.9784 2081 64.8861 1182.83 499.175
1559 0 126.186 12.6876 1601 70.7183 1182.51 493.645
1560 0 139.246 14.3272 1995 67.8155 1183.35 495.361
1561 0 146.281 15.5044 2268 65.9903 1183.48 495.802
1562 0 147.152 15.3243 2255 67.7481 1182.91 488.471
1563 0 151.155 15.3617 2322 68.1938 1182.47 487.286
1564 0 156.309 15.4886 2421 68.3565 1183.12 487.384
1565 0 160.176 14.8587 2380 70.0828 1182.93 480.752
1566 0 167.24 15.2236 2546 69.2333 1182.38 482.145
1567 1 79.1992 13.99 1108 73.7238 1182.55 517.042
1568 0 84.1246 14.4785 1218 71.8662 1182.7 519.618
1569 0 84.1683 14.5185 1222 73.5475 1183.03 516.998
1570 0 84.1843 13.4111 1129 75.7493 1182.05 514.339
1571 0 88.1511 13.7151 1209 75.8875 1182.29 513.322
1572 0 90.2015 13.6916 1235 75.8146 1182.88 513.958
1573 0 92.5021 15.1888 1405 74.4178 1183.38 512.083
1574 0 93.1183 13.746 1280 76.218 1182.56 513.148
1575 0 94.1399 15.5195 1461 74.3634 1183.06 511.854
1576 0 101.223 17.0614 1727 72.5078 1182.95 509.723
1577 0 104.19 15.2605 1590 75.4415 1182.64 509.282
1578 0 107.141 15.4469 1655 75.8314 1182.91 508.688
1579 0 110.192 15.709 1731 76.5228 1183.58 506.336
1580 0 112.276 14.6514 1645 78.6802 1183.23 505.582
1581 0 113.233 15.552 1761 79.0301 1183.68 500.865
1582 0 116.397 16.9506 1973 76.8981 1183.98 502.841
1583 0 118.265 14.5098 1716 81.5262 1182.94 501.307
1584 0 122.409 15.0642 1844 81.3276 1183.18 499.278
1585 0 126.314 15.3665 1941 80.6708 1183.48 502.873
1586 0 130.217 15.4204 2008 81.1853 1183.95 498.104
1587 0 136.209 12.657 1724 84.8005 1183.6 499.537
1588 0 135.69 14.1942 1926 84.7788 1183.09 494.763
1589 0 139.414 14.6542 2043 84.8399 1182.43 490.112
1590 0 145.369 14.8725 2162 84.4676 1182.56 491.239
1591 0 146.339 14.6577 2145 86.5361 1183.06 484.404
1592 0 151.306 16.1329 2441 84.1995 1183.5 484.958
1593 0 156.392 15.7041 2456 84.8392 1183.62 484.503
1594 0 162.339 16.4409 2669 83.9221 1183.53 481.501
1595 0 164.266 15.1888 2495 86.1262 1183.76 481.683
1596 0 168.414 14.8503 2501 86.8185 1183.57 482.668
1597 0 173.498 14.784 2565 87.3524 1182.79 478.707
1598 0 176.444 13.8458 2443 89.1576 1183.69 476.344
1599 0 183.514 15.2032 2790 86.309 1183.15 477.884
1600 0 188.451 14.8898 2806 87.4444 1183.24 471.706
1601 1 81.2285 14.0099 1138 97.9069 1183.45 517.98
1602 0 84.3802 16.2597 1372 93.5809 1182.45 518.195
1603 0 85.458 14.475 1237 96.8165 1183.1 518.392
1604 0 88.3368 15.4975 1369 96.1264 1183.12 515.189
1605 0 89.3198 15.2038 1358 97.8498 1182.32 515.037
1606 0 93.3927 15.2153 1421 97.8529 1183.56 516.413
1607 1 155.377 16.5404 2570 92.8183 1183.37 485.641
1608 0 157.281 15.1385 2381 96.3205 1182.37 483.196
1609 0 161.248 15.7274 2536 95.8371 1183.18 481.51
1610 0 166.59 15.7273 2620 95.9786 1182.69 478.706
1611 0 171.507 16.2093 2780 94.8781 1182.96 478.538
1612 0 175.505 15.9426 2798 95.9199 1182.6 477.308
1613 0 182.834 16.0473 2934 95.6561 1182.88 474
1614 0 185.812 16.1507 3001 96.4418 1182.89 471.049
1615 0 188.554 15.3856 2901 98.0741 1183.59 470.729
1616 0 197.865 16.1171 3189 96.8953 1182.75 466.247
1617 0 201.366 15.7127 3164 98.1628 1182.92 465.029
1618 0 206.924 16.0107 3313 97.6007 1183.35 462.984
1619 0 213.458 16.3358 3487 97.5736 1183.57 457.652
1620 0 219.894 15.7667 3467 98.2596 1183.34 455.232
1621 0 224.57 16.1998 3638 97.2757 1183.29 452.89
1622 0 231.557 16.0738 3722 97.8232 1183.22 447.911
1623 0 235.708 14.9677 3528 99.8336 1182.98 448.443
1624 1 197.468 15.6177 3084 99.1819 1183.06 468.844
1625 0 203.55 14.4976 2951 101.75 1183.37 465.773
1626 0 209.64 14.606 3062 100.995 1183.25 461.258
1627 0 216.691 14.4953 3141 100.336 1182.97 461.065
1628 1 171.883 16.4764 2832 97.9078 1182.83 480.671
1629 0 171.603 15.4892 2658 101.57 1182.97 473.864
1630 0 177.262 14.6958 2605 101.752 1182.68 476.079
1631 0 184.312 15.4955 2856 100.189 1182.36 473.164
1632 0 187.425 16.1291 3023 99.3814 1183.17 469.934
1633 0 193.498 15.1165 2925 100.01 1183.63 472.282
1634 0 199.831 15.1128 3020 99.4434 1183.24 469.389
1635 0 203.972 14.2862 2914 100.917 1183.75 469.015
1636 0 208.461 14.7462 3074 101.286 1183.87 462.124
1637 0 213.311 14.9219 3183 101.373 1182.95 458.029
1638 0 220.575 14.4667 3191 102.571 1183.01 456.612
1639 1 158.284 14.0444 2223 105.516 1182.99 483.127
1640 0 162.434 14.8244 2408 103.696 1183.17 480.836
1641 0 165.352 14.7383 2437 103.442 1183.77 480.97
1642 0 169.344 14.3849 2436 105.399 1183.57 475.741
1643 0 175.306 15.1107 2649 103.496 1183.51 475.015
1644 0 181.227 14.9316 2706 103.201 1183.47 472.099
1645 0 185.499 15.2292 2825 102.143 1183.19 472.016
1646 0 190.42 16.0488 3056 100.128 1182.53 469.093
1647 0 193.483 14.9936 2901 103.396 1182.57 466.041
1648 0 199.452 15.4172 3075 101.793 1182.97 464.794
1649 0 205.664 15.6469 3218 101.421 1183.25 463.18
1650 0 210.453 15.6709 3298 100.941 1183.69 461.903
1651 0 210.454 13.9983 2946 105.022 1182.95 461.056
1652 1 223.405 15.9665 3567 100.718 1183.14 455.885
1653 0 228.688 15.7726 3607 101.192 1182.74 452.777
1654 0 233.831 15.2204 3559 102.26 1182.63 449.743
1655 0 241.593 15.791 3815 101.055 1182.92 443.819
1656 1 178.594 13.6791 2443 105.376 1183.05 476.091
1657 0 184.51 13.6849 2525 104.906 1183.08 475.76
1658 0 189.515 13.8459 2624 104.695 1182.95 468.795
1659 0 197.495 15.5093 3063 100.616 1183.11 464.75
1660 0 202.308 15.7582 3188 100.45 1182.5 463.779
1661 0 208.579 14.5509 3035 101.584 1182.34 461.288
1662 0 213.296 14.14 3016 101.861 1182.77 462.904
1663 0 218.474 14.853 3245 101.116 1183.38 456.757
1664 0 224.476 14.2554 3200 102.667 1183.04 451.435
1665 0 234.515 15.1632 3556 99.5726 1183.05 451.113
1666 0 240.678 15.2486 3670 100.483 1182.68 445.59
1667 0 249.389 15.0808 3761 100.129 1182.68 442.899
1668 0 257.343 16.138 4153 98.2933 1182.94 437.37
1669 0 265.374 15.5215 4119 99.3693 1182.71 430.947
1670 0 273.475 15.7345 4303 99.5366 1182.42 428.112
1671 0 281.508 15.4916 4361 99.6687 1182.6 426.27
1672 0 289.884 15.5993 4522 98.7218 1182.85 421.216
1673 1 211.672 14.4374 3056 101.075 1182.93 460.005
1674 0 215.383 14.7272 3172 101.74 1182.74 453.493
1675 0 221.558 14.4206 3195 102.206 1183.03 455.936
1676 0 226.605 14.0774 3190 102.934 1182.91 455.998
1677 0 231.504 14.4361 3342 103.741 1183.22 446.579
1678 0 237.49 13.7269 3260 104.229 1182.8 445.83
1679 0 246.37 13.6259 3357 104.572 1181.8 442.986
1680 0 251.427 14.3222 3601 102.272 1182.15 441.135
1681 0 257.445 14.3021 3682 103.216 1182.41 436.862
1682 0 266.396 15.796 4208 99.3477 1182.51 434.725
1683 0 276.646 16.3458 4522 97.9843 1182.76 430.556
1684 0 281.292 14.5116 4082 103.113 1182.8 424.67
1685 1 208.306 12.7649 2659 105.502 1182.82 462.075
1686 0 217.541 14.0433 3055 102.446 1183.34 457.83
1687 0 223.37 14.5185 3243 102.459 1182.86 453.948
1688 0 230.491 14.981 3453 100.553 1183.1 454.302
1689 0 236.647 13.8519 3278 102.662 1183.01 451.358
1690 0 242.38 13.2395 3209 103.313 1182.59 450.982
1691 0 251.56 14.2471 3584 102.586 1182.7 439.754
1692 0 260.476 14.1318 3681 101.595 1183.09 437.923
1693 0 268.367 14.7447 3957 99.8605 1183.06 434.201
1694 0 276.574 14.7664 4084 99.3362 1182.96 432.159
1695 1 211.844 13.5382 2868 100.093 1183.1 463.838
1696 0 219.616 13.9425 3062 98.3912 1182.23 457.898
1697 0 224.677 14.0557 3158 99.9424 1182.91 453.444
1698 0 233.477 15.0207 3507 96.4089 1183.34 455.123
1699 0 238.486 13.4222 3201 98.9994 1182.6 449.075
1700 0 247.56 14.5338 3598 97.2866 1182.67 445.285
1701 0 255.767 13.9776 3575 98.3704 1183.35 438.439
1702 0 262.705 14.069 3696 97.8923 1183.2 435.144
1703 0 272.84 16.2733 4440 92.0705 1182.59 434.478
1704 0 280.588 13.6891 3841 97.2723 1182.41 430.073
1705 0 290.72 15.4788 4500 93.8116 1182.35 415.943
1706 0 298.598 14.9331 4459 94.1355 1183.11 422.855
1707 0 306.498 13.8696 4251 96.9814 1183 413.025
1708 0 317.919 14.1325 4493 95.3908 1182.75 409.923
1709 0 324.592 13.5863 4410 96.507 1182.9 404.26
1710 1 264.475 13.8198 3655 94.1669 1182.57 438.361
1711 0 272.858 13.5675 3702 94.3925 1181.9 432.995
1712 0 279.862 14.0462 3931 93.8489 1181.71 426.032
1713 0 287.722 14.5766 4194 92.4382 1181.96 421.515
1714 0 296.624 15.1539 4495 91.1219 1182.32 417.854
1715 0 308.162 16.1344 4972 88.35 1182.09 413.071
1716 0 314.713 14.8548 4675 91.0742 1182.46 413.035
1717 0 324.986 14.776 4802 91.3488 1182.44 408.289
1718 0 334.918 15.0873 5053 90.4821 1182.71 401.213
1719 0 344.87 16.7309 5770 87.388 1182.09 392.868
1720 0 346.668 15.6547 5427 89.3764 1183.06 383.875
1721 0 357.914 16.4341 5882 88.3946 1183.08 380.882
1722 1 309.603 10.6394 3294 93.6879 1183.41 437.103
1723 0 309.668 14.3347 4439 91.0998 1183 412.252
1724 0 317.844 13.5759 4315 91.734 1183.33 416.539
1725 0 327.611 13.9403 4567 91.1312 1182.97 409.146
1726 0 338.96 13.1786 4467 92.5021 1182.5 394.816
1727 0 350.845 13.8095 4845 90.7191 1182.66 399.6
1728 0 358.765 13.7388 4929 91.5725 1182.97 388.912
1729 0 367.838 14.0143 5155 91.5564 1182.84 372.178
1730 0 382.09 13.7455 5252 90.8319 1183.09 380.289
1731 0 393.015 14.2921 5617 89.293 1182.75 373.967
1732 1 365.913 10.6965 3914 92.5549 1183.22 414.613
1733 0 364.768 9.78978 3571 91.5279 1182.82 425.018
1734 0 366.814 10.0841 3699 90.312 1182.73 423.679
1735 0 367.959 13.9853 5146 87.2231 1182.66 395.074
1736 0 376.716 13.6947 5159 88.2301 1182.97 388.772
1737 0 387.889 13.094 5079 89.9301 1183.11 368.793
1738 0 413.375 15.5621 6433 85.3606 1183.29 352.098
1739 0 421.377 17.5069 7377 80.8926 1183.4 357.584
1740 0 431.131 16.2224 6994 83.9249 1183.95 343.953
1741 0 435.602 17.7019 7711 81.8369 1183.83 339.282
1742 1 11.0447 8.60144 95 62.8421 1182.52 552.568
1743 0 13.0059 14.3012 186 58.2581 1183.12 552.188
1744 0 13.0831 12.0767 158 58.3165 1183.06 552.152
1745 0 12.0501 12.3651 149 59.9329 1183.6 551.463
1746 0 12.0204 10.7318 129 60.2636 1183.76 552.907
1747 0 14.2416 12.9199 184 57.2337 1182.95 552.25
1748 0 13.024 8.36915 109 61.4771 1182.92 551.807
1749 0 12.0049 10.7456 129 61.9457 1182.64 552.132
1750 0 13.0601 12.4042 162 60.5988 1182.78 551.518
1751 0 14.3391 11.2978 162 60.5988 1183.19 551.877
1752 0 16.0941 11.06 178 61.3146 1183.28 551.848
1753 0 15.0271 13.9747 210 58.4381 1182.93 552.243
1754 0 15.0154 12.92 194 60.6959 1183.18 551.289
1755 0 15.0225 9.71876 146 61.1918 1183.26 553.432
1756 0 15.2962 13.7289 210 59.3905 1183.2 551.495
1757 0 17.2274 14.3376 247 57.3846 1182.92 552.287
1758 0 18.2023 12.3611 225 58.5022 1182.88 551.147
1759 0 15.4946 13.9403 216 58.1296 1183.44 551.907
1760 0 17.2967 12.8348 222 59.3514 1183.59 551.694
1761 0 17.2749 14.414 249 57.6145 1184.1 551.699
1762 0 15.2127 14.1986 216 57.8889 1183.77 551.722
1763 0 17.2368 12.4733 215 58.0186 1184.4 551.637
1764 0 17.5274 12.1524 213 58.446 1183.99 551.131
1765 0 17.3364 14.4782 251 56.5538 1183.37 551.845
1766 0 16.2736 9.89334 161 59.1118 1183.29 553.081
1767 0 16.0745 11.1979 180 59.1611 1183.77 551.85
1768 0 17.6965 13.9011 246 56.0691 1183.55 551.577
1769 0 17.4193 14.0074 244 56.9221 1184.41 550.791
1770 0 18.5825 13.3459 248 56.254 1184.27 550.726
1771 0 17.1165 13.0868 224 57.5312 1183.67 550.406
1772 0 18.2581 13.3092 243 56.6626 1183.28 550.169
1773 0 15.1054 11.2542 170 59.8059 1183.37 552.282
1774 0 17.2107 11.9693 206 57.8058 1184.15 551.296
1775 0 17.5596 13.2691 233 56.2275 1183.51 551.403
1776 0 17.0146 14.2231 242 56.6405 1182.9 550.649
1777 0 16.0069 10.8703 174 59.2874 1183.71 551.207
1778 0 17.2473 12.0599 208 58.149 1183.79 550.303
1779 0 19.2163 11.1364 214 57.3692 1183.13 551.668
1780 0 15.0771 13.7957 208 58.0192 1182.88 550.269
1781 0 19.322 15.0606 291 54.2302 1183.3 550.873
1782 0 18.0183 11.2108 202 57.203 1183.67 552.302
1783 0 17.1849 11.1144 191 56.3037 1183.6 551.445
1784 0 16.1769 11.9306 193 56.3368 1183.5 550.803
1785 0 15.0648 11.2846 170 56.3647 1183.91 551.294
1786 0 18.1008 10.9387 198 54.5505 1183.9 551.95
1787 0 15.3296 11.0897 170 54.2471 1183.75 552.059
1788 0 17.4961 8.57335 150 55.7133 1183.6 550.693
1789 0 16.0663 11.7015 188 54.2074 1182.53 549.713
1790 0 15.1589 11.6763 177 54.1073 1182.97 550.328
1791 0 16.0303 12.2892 197 54.1929 1182.92 550.345
1792 0 20.3455 11.3047 230 52.0522 1183.36 552.152
1793 0 17.0269 11.5699 197 54.1726 1182.8 550.472
1794 0 18.0729 10.7897 195 54.2256 1183.37 550.097
1795 0 17.0702 12.0678 206 53.8544 1183.01 550.568
1796 0 17.0928 12.9879 222 53.2928 1182.37 549.207
1797 0 17.0499 12.6101 215 52.7767 1182.95 551.972
1798 0 17.0711 13.3559 228 51.8377 1182.9 550.452
1799 0 18.1477 12.5636 228 52.4605 1182.51 548.588
1800 0 19.052 13.0695 249 51.4297 1182.71 548.426
1801 0 18.6911 12.5728 235 53.0426 1183.34 548.889
1802 0 16.0097 13.929 223 53.9238 1182.91 549.413
1803 0 19.5005 9.99974 195 55.6462 1182.63 548.974
1804 0 15.0075 12.9935 195 54.9538 1183.15 549.892
1805 0 17.2041 11.9739 206 55.0097 1183.05 549.859
1806 0 17.0164 12.9874 221 54.5068 1183.36 549.14
1807 0 17.1142 13.556 232 54.0647 1182.69 549.004
1808 0 20.0812 13.8438 278 52.6799 1183.01 549.835
1809 0 20.4163 11.7064 239 54.1674 1184.03 548.243
1810 0 18.0094 12.1048 218 55.078 1183.8 549.684
1811 0 17.0817 13.6403 233 54.3004 1182.38 548.18
1812 0 17.3771 13.4085 233 54.3391 1183.84 548.691
1813 0 18.1157 9.54974 173 55.4566 1182.96 549.364
1814 0 19.088 13.6211 260 52.7038 1183.35 549.762
1815 0 15.1376 10.4376 158 55.6266 1183.61 550.589
1816 0 17.3558 12.4454 216 52.3796 1183.48 550.574
1817 0 17.0246 13.3336 227 51.2335 1183.26 550.352
1818 0 17.3798 9.78148 170 53.7765 1183.78 551.106
1819 0 15.1839 10.2082 155 53.3548 1183.5 551.736
1820 0 13.0491 6.43724 84 55.0238 1183.32 552.917
1821 0 17.0911 10.8244 185 51.8162 1184.11 550.465
1822 0 14.0052 8.49685 119 53.7143 1182.97 551.891
1823 0 15.186 10.9969 167 52.018 1183.58 550.713
1824 0 17.061 15.0636 257 49.6887 1182.95 549.455
1825 0 16.0182 10.2384 164 51.8232 1182.27 551.579
1826 0 16.1851 11.1213 180 51.8833 1182.23 550.111
1827 0 16.2973 14.1741 231 49.1212 1183.03 549.749
1828 0 16.1587 13.6149 220 49.7909 1181.96 550.441
1829 0 16.0125 9.05542 145 51.2069 1182.68 551.579
1830 0 15.0376 8.57851 129 53.2636 1182.87 551.318
1831 0 15.0107 14.2565 214 50.4953 1182.84 550.15
1832 0 14.0173 10.9865 154 51.2208 1182.77 550.987
1833 0 17.133 11.0897 190 50.3842 1182.46 549.884
1834 0 15.0755 10.2816 155 51.2839 1182.53 550.406
1835 0 16.0154 12.1133 194 49.2835 1182.1 550.268
1836 0 17.0503 14.1347 241 46.9793 1182.65 550.954
1837 0 17.5053 6.51233 114 50.3246 1183.12 552.395
1838 0 16.0339 13.222 212 46.8962 1183.18 552.208
1839 0 15.1135 14.8212 224 45.6875 1182.91 551.754
1840 0 16.0338 12.0995 194 46.6546 1182.18 551.376
1841 0 16.0292 14.4736 232 45.6853 1181.94 550.478
1842 0 17.0113 9.58188 163 47.4724 1182.19 551.902
1843 0 15.0058 10.8625 163 47.2577 1182.62 552.742
1844 0 15.0555 12.7528 192 47.5417 1182.74 550.141
1845 0 15.0086 6.7295 101 49.7723 1182.52 552.297
1846 0 17.2305 10.7368 185 47.6595 1181.72 550.681
1847 0 16.0224 10.4229 167 46.8802 1182.32 550.976
1848 0 14.0202 10.4135 146 48.1027 1182.71 550.315
1849 0 14.0257 10.053 141 48.3121 1182.09 551.064
1850 0 16.0951 9.56811 154 47.4091 1181.75 551.078
1851 0 15.0166 11.1876 168 46.375 1182.08 551.857
1852 0 14.0257 8.3418 117 47.6667 1181.74 552.838
1853 0 17.1026 8.01046 137 47.7445 1181.91 552.102
1854 0 17.0401 10.2112 174 47.2069 1181.91 550.799
1855 0 17.0064 14.4651 246 45.439 1182.25 549.756
1856 0 14.0062 5.71177 80 49.7 1182.35 551.525
1857 0 15.0546 15.4769 233 45.3562 1182.46 550.223
1858 0 16.0223 11.0471 177 47.1356 1182.24 551.695
1859 0 17.0377 11.5039 196 46.6122 1181.85 550.571
1860 0 15.0056 15.0611 226 44.9292 1181.58 549.673
1861 0 16.0811 15.6706 252 43.8492 1181.68 550.766
1862 0 12.0451 6.72471 81 48.963 1181.89 550.741
1863 0 15.0619 12.349 186 45.8978 1181.83 548.828
1864 0 14.0164 15.5532 218 44.9037 1182.35 550.275
1865 0 13.0964 5.80313 76 49.6711 1181.39 551.447
1866 0 14.0238 6.41766 90 49.1556 1181.82 549.011
1867 0 14.0789 13.1402 185 45.0649 1181.02 551.341
1868 0 16.2024 12.529 203 45.6305 1181.67 548.33
1869 0 17.1171 10.5158 180 46.3056 1182.02 550.311
1870 0 15.0446 8.24214 124 48.8145 1182.39 551.508
1871 0 14.022 9.4138 132 48.0985 1182.57 550.227
1872 0 15.3018 13.9199 213 46.0423 1182.72 549.746
1873 0 20.0252 10.6865 214 45.4252 1181.81 551.108
1874 0 16.0124 14.3639 230 45.687 1181.89 548.174
1875 0 13.026 11.976 156 48.4936 1182.27 549.276
1876 0 15.1631 10.8157 164 47.6707 1182.27 550.622
1877 0 15.0285 9.0495 136 48.375 1182.21 550.706
1878 0 15.0641 12.6792 191 47.2304 1182.54 549.068
1879 0 15.0105 13.324 200 47.015 1181.62 550.015
1880 0 14.0427 9.61356 135 49.9333 1182.31 550.415
1881 0 15.1045 12.3804 187 48.1497 1181.48 550.69
1882 0 16.0123 8.99306 144 48.8125 1181.72 551.333
1883 0 16.2592 12.4237 202 47.9752 1182.38 550.124
1884 0 16.026 10.2958 165 49.4727 1181.99 550.333
1885 0 16.0384 13.1559 211 48.4692 1181.49 550.175
1886 0 13.2339 8.31196 110 51.5818 1182.1 551.391
1887 0 15.0342 11.1745 168 50.6726 1182.02 549.506
1888 0 13.1435 13.1624 173 51.5202 1181.18 550.52
1889 0 15.011 9.65959 145 52.1034 1181.74 550.124
1890 0 15.0084 11.3937 171 50.6257 1182.34 551.485
1891 0 18.0415 13.1364 237 49.5949 1182.67 549.743
1892 0 17.2093 12.6095 217 51.1935 1181.99 549.115
1893 0 15.0258 10.3821 156 53.3333 1181.88 550.256
1894 0 17.0286 13.8003 235 51.5064 1182.28 548.319
1895 0 13.135 8.22229 108 56.6944 1181.55 549.935
1896 0 16.0036 13.372 214 53.0935 1182.54 549.458
1897 0 16.0208 14.2315 228 51.9561 1182.91 548.544
1898 0 16.0412 9.22621 148 54.5946 1182.78 549.345
1899 0 15.2294 10.5717 161 55.3913 1182.48 549.553
1900 0 16.0545 14.3262 230 52.7783 1182.74 549.213
1901 0 16.1581 13.306 215 54.0837 1182.14 549.405
1902 0 15.011 9.99268 150 55.56 1182.45 550.013
1903 0 16.0574 9.90195 159 57.3208 1182.14 549.811
1904 0 15.126 9.9828 151 58.0265 1182.77 549.715
1905 0 17.05 12.0821 206 56.0194 1182.47 549.005
1906 0 17.0229 10.339 176 57.3352 1183.25 548.42
1907 0 15.1299 9.98026 151 58.4371 1182.48 549.629
1908 0 15.0476 11.8291 178 57.7416 1182.42 548.725
1909 0 16.0185 11.674 187 57.3155 1183.06 547.642
1910 0 15.111 12.9045 195 57.1026 1183.14 548.215
1911 0 17.059 11.4895 196 57.199 1183.9 546.944
1912 0 15.0076 11.2609 169 57.0355 1182.91 549.225
1913 0 17.0369 11.9153 203 57.3103 1182.79 547.813
1914 0 16.3885 9.88498 162 58.6358 1183.33 547.87
1915 0 14.0115 9.20673 129 60.7829 1181.95 549.046
1916 0 15.079 6.89703 104 61.0865 1182.66 549.135
1917 0 16.4363 12.3507 203 57.064 1182.81 547.956
1918 0 15.1823 9.55059 145 59.2 1182.29 548.959
1919 0 14.0436 9.89778 139 59.2734 1182.06 549.597
1920 0 15.4409 13.2765 205 57.9366 1183.24 549.088
1921 0 15.0939 7.61897 115 60.6522 1183.15 548.8
1922 0 17.2109 9.64502 166 59.0422 1182.98 549.874
1923 0 14.0179 9.05986 127 59.8504 1183.09 548.984
1924 0 14.3901 11.7442 169 58.2663 1183.23 549.811
1925 0 15.2008 11.8415 180 57.6389 1183.14 549.722
1926 0 13.1144 4.95639 65 61.8769 1184.54 551.492
1927 0 15.0604 12.0182 181 56.4751 1183.61 549.166
1928 0 15.3261 14.4198 221 54.8552 1183.51 549.303
1929 0 13.0879 11.1554 146 56.2877 1183.06 550.829
1930 0 13.1372 6.16571 81 59.6667 1182.77 550.951
1931 0 16.0173 10.5511 169 56.503 1182.83 551.408
1932 0 15.0101 10.1932 153 56.4575 1182.6 551.575
