time division length width area intensity CMx CMy
0 0 41.0392 10.161 417 44.4724 1339.36 523.108
1 0 39.0453 9.37372 366 44.7404 1339.04 523.497
2 0 43.0249 10.3428 445 44.1281 1339.28 521.856
3 0 43.0772 10.7017 461 44.2581 1338.83 525.111
4 0 44.0915 12.7462 562 43.1655 1339.11 523.311
5 0 44.1162 13.0337 575 42.9235 1339.21 524.715
6 0 46.044 10.1207 466 46.3884 1338.1 522.468
7 0 45.2335 11.098 502 45.3904 1338.63 524.61
8 0 47.0449 11.4146 537 44.8678 1338.75 522.236
9 0 49.0302 14.2565 699 42.329 1339.51 523.585
10 0 50.1594 12.5998 632 43.3908 1339.26 523.78
11 0 50.0843 9.92326 497 45.996 1338.9 520.773
12 0 53.1409 11.159 593 45.1046 1339.12 521.295
13 0 52.0544 10.8924 567 45.5996 1339.35 518.27
14 0 57.0879 13.9259 795 44.9723 1338.36 519.077
15 0 57.0821 12.3681 706 46.7436 1338.14 519.602
16 0 60.1937 14.8022 891 45.2682 1338.17 518.884
17 0 58.059 9.8176 570 48.4596 1338.32 520.065
18 0 61.086 10.4607 639 48.6244 1338.68 515.75
19 0 64.1741 13.7906 885 46.904 1338.55 515.046
20 0 64.1801 10.8289 695 50.3209 1337.96 514.778
21 0 66.0923 12.4523 823 48.8384 1338.32 515.593
22 0 67.0806 11.1359 747 51.1714 1337.78 513.544
23 0 69.09 11.2317 776 50.7165 1338.66 511.503
24 0 71.0608 11.2158 797 51.8469 1338.15 511.393
25 0 73.1936 10.0692 737 52.4573 1338.75 508.009
26 0 77.0783 12.7922 986 50.4767 1339.12 508.569
27 0 79.1714 12.214 967 51.7849 1338.8 508.093
28 0 80.093 11.3368 908 54.707 1337.78 504.558
29 0 81.1932 11.799 958 52.5334 1339.13 507.133
30 0 84.1688 11.6552 981 54.2416 1338.43 504.462
31 0 87.2607 12.0329 1050 54.2371 1338.44 503.828
32 0 90.1546 10.9811 990 54.4273 1338.49 506.675
33 0 94.112 13.0802 1231 52.3217 1339.39 504.044
34 0 94.2776 15.0725 1421 51.6024 1339.57 500.894
35 0 97.2753 11.2156 1091 55.0422 1339.56 499.993
36 0 102.266 12.0763 1235 55.6227 1338.88 499.355
37 0 105.262 12.6256 1329 55.5892 1339.47 494.831
38 0 107.197 12.2578 1314 56.5837 1339.67 491.688
39 0 110.146 12.6014 1388 56.8696 1339.2 494.26
40 0 114.209 11.2863 1289 58.5679 1340.03 485.372
41 0 115.171 11.2962 1301 58.1191 1340.3 489.713
42 0 119.237 12.4962 1490 57.9121 1340.69 486.242
43 0 122.426 11.3701 1392 60.2399 1340 484.623
44 0 127.175 13.1158 1668 59.06 1340.57 479.051
45 0 133.136 11.5071 1532 61.2546 1340.08 479.103
46 0 135.199 12.7294 1721 60.1941 1340.49 476.231
47 0 137.193 12.5007 1715 60.3971 1340.66 479.376
48 0 140.106 10.9988 1541 63.523 1340.77 467.945
49 0 149.298 13.1147 1958 60.5975 1341.02 475.982
50 1 69.1442 9.08247 628 58.965 1339.8 509.548
51 0 73.1537 10.0337 734 58.6744 1339.71 509.913
52 0 75.2646 9.52639 717 58.3124 1339.47 510.841
53 0 74.0944 10.1222 750 57.9573 1340.36 507.813
54 0 78.1484 11.0687 865 58.7156 1340.09 505.091
55 0 82.2131 11.1296 915 58.1585 1340.41 504.812
56 1 179.306 12.3421 2213 65.1582 1340.89 454.995
57 0 181.257 9.57202 1735 68.6092 1340.59 453.321
58 0 187.411 12.2405 2294 65.765 1341.15 450.877
59 0 193.252 12.0568 2330 64.6288 1341.54 454.196
60 0 199.195 13.5094 2691 64.2256 1341.84 446.451
61 1 147.351 11.5303 1699 66.0271 1340.56 465.988
62 0 152.194 11.6759 1777 65.7169 1340.57 467.486
63 0 156.179 11.0258 1722 66.3856 1340.57 470.232
64 0 162.246 12.5735 2040 64.6441 1340.77 467.881
65 0 166.26 11.8609 1972 65.8595 1341.71 457.988
66 0 172.263 12.7944 2204 66.4111 1340.87 458.606
67 0 175.252 10.8473 1901 68.969 1340.96 454.154
68 0 183.272 12.3587 2265 67.5205 1341.13 450.831
69 0 189.246 12.571 2379 67.525 1341.13 450.53
70 0 195.286 12.1975 2382 68.652 1340.66 444.161
71 0 203.196 13.2631 2695 67.4289 1340.9 444.427
72 0 208.206 12.43 2588 69.1843 1341.19 435.481
73 1 138.302 9.63113 1332 67.7568 1340.85 471.622
74 0 142.281 11.421 1625 66.1588 1340.64 473.89
75 1 71.0704 9.07551 645 62.8651 1339.29 509.567
76 0 72.1797 7.52289 543 63.989 1340.29 503.055
77 0 77.1426 11.4723 885 59.9266 1340.25 507.285
78 0 82.0961 12.0469 989 58.8271 1340.16 509.096
79 0 82.101 8.96457 736 62.8818 1340.22 501.798
80 0 84.0809 8.68211 730 62.2356 1340.69 500.216
81 0 87.0684 12.3236 1073 58.2777 1341.5 501.564
82 0 85.1025 11.6918 995 58.7508 1341.88 496.748
83 0 91.1659 9.18106 837 62.7611 1341.63 489.8
84 0 94.3071 7.99516 754 63.9377 1341.33 492.259
85 0 93.2045 6.95245 648 65.0417 1341 491.935
86 0 99.1821 11.1008 1101 61.3261 1341.47 491.841
87 0 102.094 9.16799 936 64.187 1340.98 489.196
88 0 109.359 12.1983 1334 61.3516 1341.06 487.897
89 0 113.182 10.0723 1140 62.9596 1341.56 486.228
90 0 115.196 11.1462 1284 62.6277 1341.54 481.661
91 0 120.143 10.4459 1255 64.5904 1340.87 483.422
92 0 119.182 8.60871 1026 64.1326 1341.69 485.055
93 0 128.168 12.2027 1564 62.0448 1341.91 481.025
94 0 131.132 9.73828 1277 64.9734 1342.23 475.612
95 0 134.189 10.4032 1396 64.7858 1342.06 475.077
96 0 134.171 9.94997 1335 67.9393 1341.65 464.539
97 0 141.343 12.36 1747 63.5238 1341.69 478.367
98 0 142.185 10.0433 1428 68.0518 1341.58 469.326
99 0 147.335 12.1899 1796 65.3742 1341.7 471.043
100 0 151.222 11.6782 1766 66.8211 1341.69 467.117
101 0 154.338 12.207 1884 66.8376 1342.03 465.903
102 0 159.189 11.7973 1878 66.7833 1342.13 466.57
103 0 161.213 11.8725 1914 67.373 1342.27 461.191
104 0 160.335 8.6631 1389 67.4968 1342.17 472.204
105 1 265.434 13.9507 3703 67.9943 1342.01 413.961
106 0 270.472 13.6576 3694 68.4088 1342.47 409.099
107 0 282.368 14.8069 4181 67.3057 1341.5 407.765
108 1 140.199 11.3339 1589 66.4701 1341.1 467.123
109 0 145.315 10.7904 1568 66.8438 1341.23 466.76
110 0 150.22 12.2021 1833 64.9749 1341.37 467.873
111 1 161.325 7.85373 1267 67.7064 1341.27 471.809
112 0 159.172 8.96514 1427 68.8858 1341.15 461.43
113 0 165.265 12.8763 2128 65.3708 1341.77 457.599
114 0 173.231 10.4427 1809 67.7535 1341.53 454.902
115 0 177.2 9.41872 1669 69.5434 1341.73 449.582
116 0 184.273 10.0503 1852 69.2597 1341.92 446.473
117 0 190.293 12.5123 2381 65.9038 1342.13 450.855
118 0 187.275 9.15232 1714 69.5694 1341.71 450.831
119 1 203.337 10.9375 2224 68.9514 1342.18 440.241
120 0 206.273 9.60863 1982 71.0525 1341.92 435.093
121 0 217.349 11.4654 2492 68.118 1342.47 437.3
122 0 218.491 10.5908 2314 70.3838 1341.59 436.741
123 1 185.242 11.628 2154 67.3932 1341.22 457.975
124 0 194.222 12.9852 2522 66.8204 1341.63 447.396
125 0 199.389 12.6938 2531 66.7965 1342.14 446.331
126 0 203.371 13.3057 2706 66.888 1341.89 441.845
127 1 116.37 8.08625 941 69.2285 1341.73 469.98
128 0 128.275 10.6022 1360 66.5625 1340.87 477.739
129 0 133.179 12.3744 1648 65.0079 1340.7 474.697
130 0 137.195 11.9684 1642 64.9202 1340.66 476.837
131 0 142.247 11.3746 1618 67.2862 1339.91 469.572
132 0 147.249 12.0137 1769 66.0113 1339.98 469.336
133 0 153.272 13.016 1995 64.5449 1340.42 467.56
134 0 158.417 12.6375 2002 63.6084 1341.24 468.621
135 0 160.216 10.3048 1651 66.8116 1341.57 457.303
136 0 167.631 11.06 1854 65.8468 1341.95 451.264
137 0 172.346 11.3957 1964 65.7154 1342.16 447.374
138 0 174.261 11.1729 1947 66.942 1341.36 448.425
139 0 184.24 14.4322 2659 62.6664 1340.86 459.305
140 0 187.371 12.3605 2316 66.0574 1340.91 446.313
141 0 194.272 11.9626 2324 66.5271 1341.5 442.995
142 0 201.395 12.3886 2495 65.9463 1341.49 437.735
143 1 172.231 13.3483 2299 64.2988 1341.24 456.363
144 0 176.247 11.9207 2101 65.6321 1341.09 462.089
145 1 67.1395 12.5113 840 54.9143 1340.96 513.169
146 0 67.2088 10.1921 685 56.4526 1341.07 512.432
147 0 67.1273 9.96614 669 58.3991 1341.09 507.143
148 0 70.1654 4.64616 326 65.4724 1339.95 504.733
149 0 73.2651 9.13123 669 60.1809 1340.78 505.695
150 0 75.1531 8.94174 672 62.9196 1340.48 501.397
151 0 75.1699 8.23468 619 63.6688 1340.74 499.742
152 0 79.1261 8.90983 705 63.8965 1340.35 499.922
153 0 84.236 11.0523 931 60.0677 1340.36 506.195
154 0 85.1625 10.5328 897 61.1761 1340.76 499.604
155 0 87.1807 11.6884 1019 59.4161 1341.45 496.184
156 0 91.0835 11.3961 1038 60.5549 1341.35 495.584
157 0 95.2063 12.016 1144 59.9012 1341.1 494.733
158 0 99.2334 11.5385 1145 59.8585 1341.16 494.782
159 0 103.213 10.9482 1130 60.3265 1340.97 496.446
160 0 104.115 10.5844 1102 61.882 1340.95 490.071
161 0 110.238 12.2372 1349 60.6412 1340.64 492.158
162 0 113.363 12.0321 1364 60.7434 1341.27 485.878
163 0 117.135 10.4068 1219 62.1641 1341.7 479.539
164 0 118.144 11.1559 1318 61.673 1341.58 480.995
165 1 128.285 12.823 1645 59.676 1341.87 480.828
166 1 56.0519 7.01136 393 57.827 1341.02 509.748
167 0 62.118 11.8806 738 54.5718 1341.36 507.749
168 0 64.1156 8.50027 545 56.3064 1341.52 508.163
169 0 66.105 11.2094 741 55.3968 1341.4 508.575
170 0 69.115 10.4174 720 56.6625 1341.34 505.642
171 0 71.2062 10.7715 767 56.2738 1341.07 507.757
172 0 72.0763 8.82398 636 59.0314 1341.22 501.407
173 0 79.1764 10.8113 856 56.2675 1341.53 504.515
174 0 80.2487 9.85686 791 58.5487 1341.55 498.528
175 0 80.1864 7.53245 604 62.1109 1341.25 492.096
176 0 86.1405 9.06658 781 59.2125 1341.64 496.567
177 1 38.0154 8.44395 321 52.0436 1340.5 523.162
178 0 39.0355 8.50508 332 51.7801 1340.85 523.75
179 0 40.0808 9.00682 361 52.5457 1340.76 520.859
180 0 44.1598 8.8995 393 53.4809 1340.11 522.725
181 0 44.0737 9.48412 418 53.8708 1340.15 519.921
182 0 45.0366 7.52721 339 53.8584 1340.45 520.145
183 0 47.0992 11.6987 551 52.8639 1340.6 519.289
184 0 50.0866 12.0192 602 52.6163 1340.09 521.653
185 0 50.1018 10.1394 508 54.5709 1339.83 518.098
186 0 50.0811 7.52778 377 57.8992 1339.8 513.249
187 0 54.1225 11.6218 629 54.7059 1339.74 513.844
188 0 54.1075 8.50159 460 59.4174 1338.93 513.526
189 0 60.1694 12.631 760 55.8605 1339.3 513.996
190 0 61.084 12.2454 748 56.7834 1339.06 514.995
191 0 62.0599 11.505 714 58.402 1338.52 513.246
192 0 65.0833 11.493 748 58.4011 1338.25 514.519
193 0 70.2003 11.5242 809 58.3201 1338.59 511.685
194 0 71.1368 12.5252 891 57.3692 1338.86 508.042
195 0 71.2167 10.2364 729 59.6461 1339.06 506.978
196 0 76.1378 13.5938 1035 57.1546 1338.53 506.89
197 0 78.1584 12.6538 989 58.2599 1338.59 504.727
198 0 81.1594 10.3747 842 62.139 1337.9 503.9
199 0 83.1523 10.2102 849 61.4405 1337.93 505.89
200 0 86.1877 12.8557 1108 58.0199 1338.55 504.371
201 0 88.1525 10.5839 933 60.1929 1339.04 497.237
202 0 91.1648 11.5286 1051 60.0314 1338.57 498.806
203 1 41.2485 10.2792 424 53.375 1337.79 528.314
204 0 44.1612 10.2579 453 54.4989 1337.58 528.079
205 0 44.0291 9.24389 407 55.6044 1337.39 526.946
206 0 47.0218 10.6334 500 53.532 1337.94 526.692
207 0 47.1397 8.57027 404 55.4752 1337.89 524.114
208 0 51.0844 10.7078 547 54.4461 1337.7 524.609
209 0 54.042 10.9729 593 53.3794 1337.69 525.823
210 0 55.0885 11.0005 606 54.0875 1338 524.644
211 0 56.0262 10.7093 600 56.2233 1337.38 519.42
212 0 60.1264 10.8605 653 57.0658 1336.85 521.052
213 0 59.0724 7.05914 417 60.0144 1337.1 517.259
214 0 65.0486 12.2063 794 57.5894 1336.38 516.361
215 0 67.0807 10.1519 681 59.1542 1336.42 517.774
216 0 68.0488 10.5806 720 60.1306 1336.03 515.033
217 0 71.0835 10.9308 777 59.704 1336.26 512.085
218 0 76.0833 13.2355 1007 56.0963 1336.69 516.747
219 0 77.0795 13.1293 1012 57.7836 1336.18 510.059
220 0 80.2719 11.2991 907 59.3197 1336.77 509.158
221 0 83.0782 11.8202 982 58.4745 1336.96 507.981
222 0 86.1462 12.4323 1071 59.423 1335.94 507.906
223 0 85.1233 10.0795 858 62.0793 1336.71 505.28
224 1 44.0787 8.30333 366 57.3962 1335.87 530.044
225 0 46.0371 6.95092 320 60.2219 1335.6 528.588
226 0 46.0348 9.31904 429 59.2844 1335.58 525.371
227 0 50.1018 10.8579 544 58.011 1335.09 526.254
228 0 50.0338 12.3916 620 57.55 1335.54 522.644
229 0 52.0699 11.0044 573 58.7836 1335.27 522.63
230 0 53.0487 10.6317 564 57.1241 1336.17 523.571
231 0 55.0316 11.8659 653 56.2726 1336.45 519.835
232 0 56.0457 11.7047 656 57.6723 1336.02 518.657
233 0 59.0447 10.6699 630 57.9937 1336.38 517.881
234 0 61.0552 10.7771 658 58.9863 1335.78 517.787
235 0 63.0574 11.6561 735 57.7469 1336.47 514.893
236 0 64.0423 12.4137 795 57.6025 1336.46 512.868
237 0 66.0769 10.5786 699 59.4306 1336.41 511.658
238 0 70.1197 11.8654 832 58.0649 1336.22 511.936
239 0 67.124 10.9797 737 59.3392 1336.91 505.909
240 0 73.0381 12.4182 907 57.1422 1337.19 507.218
241 0 75.0569 11.5646 868 58.0127 1337.24 506.475
242 0 79.0595 11.5862 916 58.7915 1336.52 501.725
243 0 83.0901 11.313 940 59.3681 1336.96 501.735
244 0 86.155 12.5471 1081 57.8335 1337.19 499.698
245 0 88.0823 11.932 1051 59.1503 1336.57 500.812
246 0 91.115 11.8422 1079 59.5857 1336.7 496.292
247 0 92.0897 9.53418 878 62.5934 1336.93 493.14
248 0 94.0776 11.7669 1107 59.14 1337.52 493.241
249 0 101.133 12.9829 1313 57.1622 1337.51 494.525
250 0 101.129 8.81057 891 61.936 1337.57 492.371
251 1 47.0757 8.87932 418 55.8206 1337.23 519.916
252 0 48.0735 9.46467 455 54.8857 1337.56 519.444
253 0 48.0412 8.65924 416 55.6082 1337.32 520.332
254 0 52.0614 11.1599 581 52.7676 1337.92 518.155
255 0 52.0577 10.2194 532 52.8797 1338.42 517.688
256 0 52.0648 8.9888 468 55.1944 1337.87 515.835
257 0 56.0543 9.41943 528 53.964 1338.06 516.617
258 0 60.1019 8.36912 503 55.338 1337.64 514.918
259 0 63.0877 10.9055 688 53.4041 1337.39 515.084
260 0 65.0712 9.57412 623 55.0128 1337.39 510.571
261 0 65.0614 12.1116 788 52.0381 1337.65 514.523
262 0 70.0612 11.2901 791 52.5234 1337.51 511.971
263 0 71.178 11.5766 824 52.8677 1337.85 508.352
264 0 73.1057 8.80916 644 55.7717 1337.47 504.972
265 0 76.1972 11.1815 852 52.8721 1337.6 511.29
266 0 81.1082 12.5758 1020 52.3167 1337.51 506.13
267 0 81.1081 10.0483 815 55.1877 1337.45 501.977
268 0 83.258 10.2092 850 55.04 1337.54 502.622
269 0 88.0929 7.74183 682 58.371 1337.06 498.884
270 0 96.1982 10.7071 1030 55.3243 1336.84 497.729
271 1 45.1044 5.34316 241 55.2822 1335.72 524.805
272 0 50.06 8.64961 433 52.06 1336.3 524.873
273 0 51.1403 10.1094 517 51.7002 1335.78 525.845
274 0 53.136 10.7648 572 51.0927 1336.13 524.397
275 0 55.1009 10.6532 587 51.2709 1336.03 523.869
276 0 56.107 12.2801 689 50.6604 1336.35 520.865
277 0 60.2604 11.5167 694 50.9395 1335.97 522.761
278 0 61.3061 10.7983 662 52.6903 1335.93 520.198
279 0 63.1216 10.3293 652 52.9739 1335.71 520.58
280 0 64.0742 10.4254 668 52.8174 1336.17 519.286
281 0 66.1035 11.724 775 51.6155 1336.07 518.463
282 0 71.1202 12.6265 898 51.1793 1336.07 517.39
283 0 74.1872 11.4575 850 53.1941 1335.36 516.694
284 0 75.1182 11.1424 837 53.773 1335.44 512.173
285 0 80.3162 13.0609 1049 51.7026 1335.04 514.716
286 0 81.2795 11.9341 970 53.0268 1335.41 510.49
287 0 85.158 11.2144 955 54.1738 1335.18 509.345
288 0 87.3208 11.8528 1035 53.8889 1335.42 503.958
289 0 91.4464 12.8491 1175 52.8553 1335.08 504.292
290 0 91.1446 10.5656 963 55.9439 1334.81 503.999
291 1 43.0924 7.4491 321 53.215 1334.83 528.053
292 0 44.1033 8.11731 358 53.4441 1334.65 525.888
293 0 46.118 8.15299 376 52.992 1334.57 528.074
294 0 48.1065 9.35425 450 51.1133 1335.5 525.267
295 0 49.07 10.4748 514 51.393 1335.32 524.019
296 0 53.0787 10.1736 540 51.7444 1334.74 525.143
297 0 54.1024 12.2545 663 50.27 1334.55 523.759
298 0 55.0758 9.02392 497 52.5936 1335.2 523.111
299 0 59.0618 10.853 641 51.7941 1334.6 523.802
300 0 60.1523 13.5988 818 49.5379 1334.79 519.738
301 0 62.1044 10.1281 629 52.4102 1334.71 520.243
302 0 64.1103 9.79562 628 53.8201 1334.44 519.072
303 0 64.1196 12.8354 823 50.2394 1335.44 518.294
304 0 67.1189 9.28203 623 53.26 1335.12 517.17
305 0 69.1552 11.438 791 51.9418 1334.89 515.904
306 0 72.1183 11.7446 847 52.183 1334.88 513.955
307 0 74.0544 11.316 838 52.4248 1334.8 514.757
308 0 77.3749 10.8304 838 52.599 1334.87 512.973
309 0 78.1342 10.226 799 54.2441 1334.85 505.884
310 0 80.0413 11.1442 892 52.9215 1335.05 507.726
311 0 82.0664 9.0049 739 55.3207 1335.34 503.252
312 0 83.1482 9.42895 784 53.9094 1335.55 505.597
313 0 88.1288 9.86057 869 54.0564 1335.47 501.249
314 0 92.2159 11.2237 1035 53.4319 1334.71 502.392
315 1 42.0586 8.10773 341 51.1085 1334.55 525.935
316 0 40.0251 4.32228 173 53.3468 1335.32 522.798
317 0 44.0728 7.55569 333 51.9399 1335.05 524.58
318 0 44.0384 6.90306 304 52.9868 1335.13 521.803
319 0 49.031 7.7502 380 51.1263 1335.76 519.945
320 0 49.1578 7.01821 345 51.0087 1335.94 523.562
321 0 50.0403 4.57631 229 54.8297 1335.87 514.266
322 0 51.0808 9.94503 508 49.6614 1336 519.484
323 0 54.0583 8.00988 433 51.7113 1335.53 517.762
324 0 54.0946 8.70697 471 51.2102 1335.67 516.055
325 0 57.0556 9.16649 523 51.1377 1335.56 516.895
326 0 62.175 9.61801 598 51.4214 1335.02 516.555
327 0 64.0598 11.2707 722 50.9114 1334.51 517.151
328 0 62.1785 9.77831 608 51.7977 1335.26 513.339
329 0 68.089 11.25 766 49.7833 1335.54 513.744
330 0 67.1549 8.8899 597 52.866 1335.35 508.948
331 0 71.1154 9.61817 684 51.6813 1335.81 510.142
332 0 73.095 9.64498 705 51.8454 1335.53 511.279
333 0 72.1106 8.0432 580 54.2431 1335.13 506.024
334 0 78.084 10.9754 857 51.2614 1335.24 505.502
335 0 78.0687 9.06894 708 53.3701 1335.38 503.582
336 0 84.0993 11.0702 931 51.3802 1335.04 504.184
337 0 85.0779 9.28561 790 53.5557 1335.16 498.962
338 1 43.0165 7.88069 339 50.5487 1335.28 526.156
339 0 37.037 2.943 109 54.4495 1335.81 522.248
340 0 45.0796 7.67531 346 51.0954 1335.38 520.864
341 0 46.1556 9.72797 449 50.2227 1335.18 522.561
342 0 48.0803 8.79778 423 52.0733 1334.73 521.931
343 0 52.0968 9.52073 496 51.0625 1334.72 521.062
344 0 53.1591 10.4968 558 49.6183 1335.2 520.183
345 0 53.0291 8.71219 462 51.1991 1335.41 518.299
346 0 53.0951 8.70137 462 51.5433 1335.47 517.861
347 0 56.1004 12.0498 676 47.4157 1336.11 521.513
348 0 59.0417 9.45095 558 50.7581 1335.78 515.174
349 0 61.1135 9.27781 567 51.1376 1335.45 516.825
350 0 63.1367 9.29729 587 51.891 1335.3 513.063
351 0 62.105 8.88817 552 52.5833 1335.46 511.929
352 0 70.1817 10.1166 710 49.9563 1335.63 512.589
353 0 67.114 8.94002 600 52.3367 1335.4 510.853
354 0 72.27 9.13242 660 51.4364 1336.16 508.979
355 0 74.1521 11.0314 818 50.6675 1335.04 510.344
356 0 76.2069 10.3796 791 51.3995 1335.02 508.445
357 0 78.1376 9.39368 734 52.9946 1335.23 507.744
358 0 82.0853 10.2211 839 51.6186 1335.79 506.281
359 0 83.1356 11.0903 922 49.7961 1336.53 507.854
360 1 43.0693 8.14965 351 48.9487 1335.47 529.103
361 0 44.0836 9.48198 418 48.7512 1335.52 526.1
362 0 47.1379 7.78566 367 50.4959 1335.34 525.717
363 0 46.0999 10.0217 462 48.658 1335.9 524.504
364 0 49.0899 11.4077 560 46.8768 1336.45 523.339
365 0 48.0509 9.55237 459 49.1874 1336.04 522.124
366 0 53.2292 11.3472 604 47.4917 1336.19 520.455
367 0 53.105 8.83156 469 49.7932 1335.5 522.795
368 0 52.051 8.18427 426 50.3474 1336.42 518.864
369 0 57.0768 10.372 592 49.8784 1335.83 517.142
370 0 59.158 10.5649 625 49.2272 1335.95 518.917
371 0 60.1083 9.94871 598 50.0635 1336.02 516.057
372 0 62.1001 10.7729 669 50.0583 1335.73 515.674
373 0 62.0564 10.0393 623 50.3804 1335.9 515.244
374 0 63.2486 9.9607 630 51.4317 1335.63 512.111
375 0 68.1578 10.5931 722 49.7673 1335.93 514.512
376 0 73.1493 13.2059 966 46.8106 1336.61 513.082
377 0 69.1323 8.92491 617 51.7536 1336.47 510.585
378 0 72.0989 9.81984 708 50.8644 1336.2 511.71
379 0 78.0905 11.0897 866 49.8568 1336.19 509.181
380 0 78.1394 10.4941 820 51.6951 1335.36 506.901
381 1 39.0284 10.787 421 47.7482 1335.23 527.428
382 0 39.0449 10.1166 395 49.3165 1334.74 526.433
383 0 41.033 8.77343 360 49.1333 1335.21 529.756
384 0 43.0522 8.89618 383 50.2742 1334.79 527.467
385 0 46.0684 11.2659 519 48.3584 1334.68 528.513
386 0 45.0332 11.2362 506 49.0731 1335.26 524.794
387 0 49.024 10.1379 497 49.1569 1335.37 524.179
388 0 49.0544 11.9663 587 47.678 1335.48 524.705
389 0 48.0845 9.5873 461 51.1714 1335.18 521.18
390 0 54.1132 10.7552 582 49.1924 1335.38 522.833
391 0 55.0303 10.8667 598 50.0134 1334.63 521.577
392 0 55.0461 9.19229 506 51.6186 1335.18 519.488
393 0 57.136 11.4814 656 48.9543 1335.73 519.053
394 0 56.0799 9.86094 553 50.5624 1335.78 517.049
395 0 59.0888 10.7465 635 50.2394 1335.25 517.595
396 0 62.0755 10.0362 623 50.8331 1335.36 515.066
397 0 62.0892 9.5991 596 51.3926 1335.54 515.04
398 0 66.1088 10.3163 682 50.2214 1335.82 514.937
399 0 69.1564 11.38 787 49.9403 1335.61 514.438
400 0 71.1304 9.72861 692 50.9436 1336.16 509.049
401 0 73.202 10.5598 773 50.4981 1336.16 511.876
402 0 74.0541 10.4788 776 51.1353 1336.34 506.974
403 0 78.1222 9.77955 764 51.4058 1336.19 509.153
404 0 80.1126 11.7585 942 50.7505 1335.78 504.507
405 0 80.0934 8.72731 699 54.1602 1335.65 503.026
406 1 38.0128 10.3386 393 47.9949 1335.71 530.308
407 0 37.017 7.07783 262 51.126 1335.64 528.084
408 0 40.0613 9.63523 386 49.0389 1336.49 524.85
409 0 44.1127 10.2238 451 48.2151 1336.25 527.721
410 0 41.084 7.81327 321 51.9315 1335.65 525.735
411 0 47.0775 9.53747 449 50.1737 1335.89 526.791
412 0 46.0406 10.0781 464 50.2091 1335.78 525.537
413 0 47.0457 10.1816 479 50.5449 1335.98 521.708
414 0 50.0192 10.2361 512 51.2793 1335.79 520.93
415 0 51.0323 11.3066 577 49.9428 1335.8 524.237
416 0 50.0492 9.85031 493 52.215 1335.5 519.966
417 0 54.125 10.8453 587 50.5196 1335.91 522.734
418 0 57.1105 11.7317 670 50.4507 1335.68 519.512
419 0 56.0942 10.7676 604 51.5579 1335.72 520.002
420 0 59.1042 10.9975 650 51.7538 1335.48 517.789
421 0 62.087 10.1954 633 52.1817 1335.67 516.021
422 0 63.1398 10.9756 693 52.2035 1335.71 512.847
423 0 64.104 10.1866 653 52.3292 1335.79 516.908
424 0 69.1337 11.2825 780 51.2974 1335.59 514.26
425 0 69.186 11.1728 773 52.9599 1334.98 511.652
426 0 72.1346 10.827 781 52.5391 1335.45 511.123
427 0 71.2357 9.82654 700 53.23 1336.1 509.891
428 1 34.0838 8.65515 295 50.739 1335.57 527.705
429 0 37.0483 7.8546 291 49.3711 1335.87 531.237
430 0 37.1804 9.11772 339 49.3068 1336.04 527.785
431 0 34.0786 5.546 189 52.3968 1336.04 529.095
432 0 39.0419 7.68406 300 52.5133 1335.48 526.61
433 0 40.051 11.5353 462 48.9199 1335.79 527.874
434 0 41.0454 8.77077 360 50.7722 1335.65 529.194
435 0 43.0784 10.0514 433 51.1663 1335.39 526.813
436 0 46.0516 10.8791 501 50.6347 1335.11 526.381
437 0 46.0628 9.24824 426 50.5962 1335.47 528.615
438 0 48.0767 8.50724 409 52.3496 1335.53 524.655
439 0 48.0865 11.0634 532 49.9662 1335.47 527.632
440 0 51.0697 9.26185 473 52.9366 1335.05 524.108
441 0 53.0663 13.1157 696 50.1422 1334.71 524.559
442 0 53.0949 11.4135 606 52.8086 1334.4 520.784
443 0 55.1338 11.8802 655 52.4595 1334.69 520.186
444 0 59.1319 11.5674 684 52.4883 1334.59 520.968
445 0 56.1145 9.58754 538 54.8941 1334.41 521.519
446 0 60.0528 11.2568 676 53.3565 1334.74 519.254
447 0 63.1684 11.4773 725 52.8469 1335.06 518.519
448 0 65.075 12.0784 786 52.9822 1334.82 516.943
449 0 66.1325 12.1574 804 52.3831 1335.58 516.215
450 0 68.0551 12.3282 839 52.8772 1335.7 512.831
451 0 70.0771 13.1712 923 52.6966 1335.05 513.013
452 0 72.1148 12.3276 889 54.3723 1334.77 512.685
453 1 36.0139 8.46895 305 54.0852 1334.38 530.18
454 0 41.0635 11.5187 473 51.4905 1334.89 529.393
455 0 43.0572 10.3815 447 52.9799 1334.08 530.087
456 0 41.0373 9.35733 384 54.5755 1334.7 527.893
457 0 42.0658 10.1745 428 53.5187 1334.7 528.353
458 0 43.109 9.51078 410 55.4244 1334.66 524.773
459 0 43.0657 9.2649 399 55.8471 1334.52 524.283
460 0 48.0612 11.2565 541 53.4067 1335.01 523.078
461 0 50.0647 10.7661 539 53.1744 1335.16 525.115
462 0 48.0477 9.51137 457 55.7287 1334.56 523.613
463 0 52.0132 10.0936 525 53.981 1334.89 524.215
464 0 51.0768 8.90816 455 55.8527 1334.63 519.881
465 0 53.0958 9.41694 500 54.69 1335.27 519.69
466 0 53.0739 8.1019 430 56.7628 1334.72 518.828
467 0 58.1198 10.0826 586 54.7338 1334.54 518.456
468 0 59.0862 10.4254 616 54.4058 1334.48 518.828
469 0 63.0606 9.26094 584 54.4075 1334.34 520.921
470 0 63.0607 8.65833 546 55.8883 1334.49 516.714
471 0 65.1053 9.44624 615 54.2276 1334.58 518.686
472 0 68.077 10.8554 739 53.5413 1334.63 515.574
473 0 66.158 10.8226 716 53.574 1335.33 512.5
474 0 72.0798 9.50336 685 53.8584 1335.05 516.302
475 0 75.1036 12.2897 923 52.7129 1334.76 512.367
476 0 79.0771 8.06807 638 55.8511 1334.7 511.987
477 1 35.0393 8.79013 308 50.5195 1334.84 529.341
478 0 37.0325 7.4259 275 52.0255 1334.43 530.833
479 0 39.1175 8.61507 337 50.8427 1334.89 528.386
480 0 36.0939 8.31165 300 52.59 1334.4 525.623
481 0 41.0414 5.36044 220 52.8955 1334.45 530.927
482 0 40.0604 7.33892 294 52.449 1334.69 528.347
483 0 43.0918 8.44707 364 51.6209 1335.02 524.937
484 0 42.0848 8.07892 340 52.55 1334.79 525.682
485 0 44.0205 5.11126 225 55.3022 1334.87 524.16
486 0 46.0505 6.01514 277 54.9856 1334.92 522.231
487 0 51.0361 9.18958 469 51.597 1334.72 525.972
488 0 52.231 9.99406 522 51.8563 1334.45 522.889
489 0 51.0331 8.48469 433 52.9261 1335.16 521.178
490 0 54.0318 9.17978 496 53.6008 1334.46 519.282
491 0 54.1336 6.50243 352 56.4574 1334.53 517.44
492 0 58.047 8.94103 519 53.842 1334.64 518.961
493 0 60.0944 8.28697 498 53.3233 1335.23 518.857
494 0 61.0497 9.36942 572 53.9458 1334.58 514.24
495 0 68.0931 11.5283 785 50.8892 1335.02 514.71
496 0 69.1139 9.82437 679 53.1959 1334.65 512.091
497 0 71.1262 9.64482 686 52.7143 1335 514.875
498 0 73.0751 12.0971 884 50.8292 1335.25 511.842
499 1 36.0208 8.60615 310 49.3355 1334.33 530.958
500 0 37.0108 5.83614 216 50.9213 1334.43 532.477
501 0 40.0888 7.33372 294 50.5918 1333.83 532.361
502 0 38.0167 6.73388 256 52.7734 1333.9 526.309
503 0 43.0327 7.66858 330 51.3333 1334.26 527.876
504 0 45.0622 9.43141 425 50.1882 1334.29 526.616
505 0 45.0163 7.24182 326 52.5092 1334.4 520.88
506 0 46.0205 9.95209 458 50.1659 1334.41 522.293
507 0 46.0468 6.44996 297 53.4882 1334.15 521.609
508 0 50.0859 9.06442 454 52.0242 1333.4 522.145
509 0 50.0219 8.11645 406 52.8916 1334 518.892
510 0 51.0357 9.56193 488 50.7992 1334.47 521.656
511 0 55.0453 8.33859 459 51.9216 1334.19 522.009
512 0 56.0342 8.5662 480 52.4438 1333.96 516.856
513 0 56.0352 7.76298 435 53.2115 1334.38 517.979
514 0 62.0303 10.6722 662 50.2749 1334.11 518.671
515 0 60.0595 9.02438 542 51.2915 1334.76 517.828
516 0 66.0444 10.7503 710 50.0197 1334.8 512.639
517 0 66.0716 9.7016 641 51.1763 1334.81 512.644
518 0 72.0978 9.4455 681 51.9985 1334.04 512.8
519 0 68.1371 6.97124 475 54.5474 1334.91 507.56
520 1 35.0128 9.71074 340 46.4412 1334.21 532.079
521 0 35.0199 7.56712 265 48.8415 1334.23 529.155
522 0 35.0577 8.92814 313 47.1565 1334.21 531.613
523 0 37.0071 9.07935 336 46.3006 1334.51 532.866
524 0 40.0499 6.84147 274 47.865 1334.55 529.347
525 0 40.0526 7.44023 298 47.5638 1334.65 529.617
526 0 38.0235 7.91616 301 48.3754 1334.37 525.99
527 0 44.0436 10.4669 461 46.5531 1333.75 528.597
528 0 46.0546 8.64192 398 48.6633 1333.82 526.771
529 0 45.0553 7.03579 317 50.2871 1334.12 523.297
530 0 49.0273 9.81085 481 47.3139 1334.47 528.279
531 0 47.0891 10.066 474 48.443 1334.67 520.331
532 0 52.0466 7.28194 379 50.4142 1334.21 519.594
533 0 53.0366 9.54057 506 49.2846 1334.28 519.674
534 0 54.0483 11.6932 632 47.4051 1334.41 522.766
535 0 56.0815 8.86211 497 50.2495 1333.98 518.171
536 0 57.0972 9.51009 543 49.4751 1334.82 519.273
537 0 59.1006 10.1522 600 48.5883 1334.99 517.878
538 0 63.1217 9.33118 589 49.7521 1334.69 515.194
539 0 62.1361 9.75279 606 49.7063 1334.39 516.658
540 0 66.0502 9.82585 649 49.3205 1334.08 518.598
541 0 68.1008 12.5256 853 47.347 1334.14 517.148
542 0 70.0561 9.22118 646 50.2988 1334.22 513.265
543 0 72.1797 10.1136 730 50.0315 1333.81 513.671
544 0 75.0361 9.66202 725 50.5821 1334.04 509.921
545 1 37.0262 6.02277 223 48.3812 1333.65 533.323
546 0 41.1053 8.00384 329 47.921 1333.61 530.787
547 0 41.2022 10.3392 426 46.216 1333.9 528.92
548 0 41.0696 8.93605 367 48.0381 1333.55 529.305
549 0 45.0808 9.80462 442 47.914 1333.81 527.688
550 0 46.0364 8.36295 385 48.3506 1334.34 525.901
551 0 40.1214 7.55209 303 50.0363 1334.56 518.99
552 0 48.0786 10.1501 488 48.4201 1333.96 523.891
553 0 36.2453 7.47683 271 52.3985 1334.13 519.026
554 0 39.0077 6.81917 266 53.0865 1334.64 518.207
555 0 39.0945 7.9295 310 51.8581 1335.01 516.681
556 1 55.2182 9.56207 528 48.7803 1334.26 521.794
557 0 57.1605 10.4093 595 48.1849 1334.73 520.571
558 0 56.1421 11.2928 634 48.6104 1334.06 522.188
559 0 60.1314 10.7099 644 48.9922 1334.12 519.239
560 0 61.3101 9.05234 555 49.9261 1334.62 518.341
561 0 63.0868 11.286 712 49.5126 1333.48 517.333
562 0 65.0747 13.8917 904 47.1117 1333.86 518.222
563 0 63.1377 8.26765 522 52.751 1333.91 515.326
564 0 67.0743 9.81002 658 51.5547 1333.99 513.628
565 0 72.1318 11.5067 830 49.8386 1333.98 512.199
566 0 73.1099 9.87555 722 50.9363 1334.87 509.681
567 0 75.1087 9.85239 740 50.9189 1334.95 511.232
568 0 75.0352 11.4613 860 50.5616 1334.32 512.844
569 1 42.0907 11.2376 473 48.093 1333.95 528.97
570 0 42.0895 7.0564 297 51.3569 1334.03 530.189
571 0 44.1413 11.146 492 48.3211 1334.22 530.949
572 0 45.0819 10.9578 494 48.9069 1334.71 528.741
573 0 44.099 9.90952 437 50.508 1334.65 528.183
574 0 46.1093 9.93291 458 50.9651 1334.75 525.954
575 0 49.0537 10.4375 512 51.9355 1334.28 523.592
576 0 49.0357 9.19738 451 53.7251 1333.89 524.51
577 0 51.0206 12.1715 621 51.4589 1333.79 523.535
578 0 53.0524 11.6112 616 51.1786 1335.12 520.347
579 0 51.0799 9.86689 504 53.4385 1334.94 519.931
580 0 56.119 11.4222 641 50.9033 1335.54 517.892
581 0 58.0395 12.5432 728 50.2843 1335.36 519.805
582 0 60.1172 11.0118 662 50.8943 1336.26 516.346
583 0 61.0486 11.8103 721 49.9778 1336.08 517.259
584 0 62.0977 11.5624 718 51.0446 1336.06 514.568
585 0 66.0759 10.5939 700 52.0957 1335.81 515.363
586 0 68.0889 12.2487 834 51.1847 1335.58 511.978
587 0 70.0624 11.2186 786 52.4962 1335.31 512.589
588 0 69.0717 10.7859 745 53.6537 1335.1 508.132
589 0 72.0571 11.4631 826 52.6065 1335.08 511.299
590 0 73.0465 11.3626 830 53.612 1335.01 505.896
591 0 77.1528 11.1467 860 53.6616 1334.25 508.051
592 0 78.1302 10.8537 848 54.2323 1334.7 501.901
593 0 80.129 11.4066 914 53.8425 1334.73 503.739
594 0 83.1677 11.074 921 53.3963 1334.62 506.574
595 0 90.1264 12.9485 1167 51.2999 1334.81 506.46
596 1 42.1418 8.70868 367 51.594 1334.99 526.204
597 0 43.051 8.98935 387 51.1085 1335.02 527.478
598 0 44.0371 7.81159 344 52.2674 1335.22 522.651
599 0 45.061 10.852 489 49.8057 1335.39 521.82
600 0 47.067 10.1982 480 49.4375 1335.8 523.256
601 0 51.1019 10.6454 544 50.8419 1334.1 523.704
602 0 50.0704 10.2056 511 51.3151 1334.75 522.008
603 0 50.3729 8.67529 437 52.2334 1334.83 523.865
604 0 54.1007 11.3677 615 49.8016 1335.09 519.87
605 0 52.0944 7.83194 408 53.6078 1334.87 521.593
606 0 55.1772 11.2547 621 49.8857 1335.49 518.992
607 0 55.0971 9.63753 531 51.919 1335.39 519.094
608 0 57.1119 10.2255 584 51.4589 1335.46 516.543
609 0 59.1249 9.8943 585 52.388 1335.06 514.055
610 0 59.0527 9.68626 572 52.729 1334.94 516.565
611 0 63.1171 10.9162 689 51.2743 1335.35 514.756
612 0 67.0647 11.6306 780 50.6026 1335.26 515.488
613 0 67.1484 10.5885 711 52.2377 1334.75 513.399
614 0 69.0667 11.7278 810 50.8469 1335 513.719
615 0 69.1107 10.7364 742 52.5283 1335.38 509.062
616 0 75.1188 11.5683 869 51.504 1335.18 511.312
617 0 73.0751 10.4276 762 53.458 1335.14 507.646
618 0 77.0653 11.2891 870 53.2023 1334.69 504.911
619 0 82.0828 12.2559 1006 52.2594 1334.51 506.384
620 0 85.0749 13.5293 1151 51.5143 1334.48 503.436
621 0 86.1392 11.9806 1032 53.2112 1334.43 504.179
622 1 43.0673 8.77696 378 50.3519 1334.46 528.071
623 0 44.0493 9.69369 427 50.7728 1334.29 527.41
624 0 44.0717 11.7082 516 49.2636 1334.86 524.63
625 0 42.059 7.22793 304 53.8717 1334.43 524.451
626 0 46.0412 12.2282 563 49.1155 1334.8 524.226
627 0 50.0355 9.67313 484 51.9938 1334.38 523.295
628 0 49.0415 9.11472 447 52.1745 1334.42 524.018
629 0 52.0646 10.4486 544 51.4651 1334.36 521.526
630 0 53.0819 10.6439 565 51.9611 1334.5 520.342
631 0 52.0235 9.0536 471 53.2357 1334.57 520.138
632 0 57.0117 9.87517 563 51.8508 1334.58 521.044
633 0 56.1215 9.53289 535 52.6561 1335.13 516.968
634 0 57.0898 9.2661 529 53.2401 1334.68 518.389
635 0 61.0956 10.3608 633 52.9084 1334.5 515.128
636 0 61.0919 8.65908 529 54.2684 1334.86 515.871
637 0 67.0885 10.7172 719 52.8303 1334 514.7
638 0 69.0619 10.2662 709 53.0959 1334.59 513.068
639 0 71.0902 11.1408 792 52.1768 1334.63 513.809
640 1 32.0164 8.08961 259 50.1853 1334.64 529.568
641 0 36.0108 6.3592 229 50.2533 1334.59 532.782
642 0 34.0812 7.71686 263 50.8061 1334.95 530.015
643 0 37.2129 9.96967 371 48.7493 1334.82 530.795
644 0 40.0698 8.18572 328 51.0762 1334.64 527.366
645 0 36.066 7.40309 267 51.3071 1335 529.109
646 0 39.0209 8.40574 328 52.2896 1333.84 527.966
647 0 40.0235 8.66991 347 50.634 1334.69 528.164
648 0 44.0598 11.3709 501 47.7345 1335.28 529.192
649 0 43.039 11.2456 484 49.5165 1334.67 526.754
650 0 44.1034 9.90854 437 50.1785 1334.72 528.378
651 0 44.0814 9.732 429 50.0793 1335.14 525.923
652 0 46.0381 10.6868 492 50.1972 1334.81 525.301
653 0 47.0978 11.9751 564 49.133 1335.07 525.128
654 0 47.0198 9.69804 456 52.4189 1334.18 524.346
655 0 48.1476 10.2186 492 52.2317 1333.91 523.193
656 0 52.4577 9.93182 521 51.7255 1334.41 523.321
657 0 49.0314 8.40278 412 53.665 1334.84 521.117
658 0 52.0459 9.62612 501 52.6248 1334.8 520.13
659 0 53.1084 8.28495 440 53.5341 1334.05 524.83
660 0 54.1323 8.2206 445 55.5955 1334.49 517.798
661 0 58.0701 10.6423 618 52.5178 1334.76 520.061
662 0 58.1367 11.3009 657 53.0244 1334.09 519.548
663 0 60.0199 9.93004 596 54.7399 1334.4 517.384
664 0 64.0342 9.68233 620 55.6161 1333.98 518.332
665 0 65.0514 10.1458 660 54.9258 1334.67 513.97
666 0 65.0893 8.75721 570 56.6474 1334.48 515.089
667 0 69.0478 12.3248 851 54.2421 1333.86 515.8
668 0 70.0343 10.7804 755 55.8212 1334.49 512.725
669 0 72.1132 10.0398 724 57.6367 1334.29 510.979
670 0 73.0421 9.66566 706 57.7422 1334.97 510.745
671 0 75.0636 10.8708 816 57.1961 1334.83 511.395
672 0 77.0811 10.8327 835 57.4383 1335.07 509.109
673 0 81.0377 11.254 912 56.8761 1334.99 510.229
674 0 82.1749 12.6194 1037 56.4889 1334.52 509.007
675 0 85.1062 12.69 1080 56.4454 1334.91 507.514
676 1 41.0797 10.7596 442 53.2421 1334.72 529.032
677 0 42.1355 7.87934 332 55.0602 1335.31 525.271
678 0 44.0544 7.55883 333 55.042 1335.22 527.508
679 0 45.1397 8.59554 388 54.6778 1334.92 527.296
680 0 46.0725 8.11765 374 55.7139 1334.65 526.61
681 0 48.0938 9.128 439 54.4579 1335.44 526.091
682 0 50.1517 9.01265 452 55.5642 1335.29 524.338
683 0 51.0394 8.8755 453 54.894 1335.69 523.428
684 0 53.136 11.7058 622 54.4646 1334.95 521.725
685 0 55.0993 11.6335 641 55.1139 1335.13 521.702
686 0 56.1011 10.2137 573 56.3787 1335.37 519.384
687 0 58.0436 11.2674 654 55.5306 1335.77 519.934
688 0 60.1384 10.1932 613 57.6819 1335.59 518.47
689 0 61.0755 10.0531 614 57.6107 1335.79 518.279
690 0 65.1394 10.8383 706 56.8484 1336.08 513.992
691 0 65.0792 10.7254 698 57.106 1335.8 518.553
692 1 33.0306 9.41551 311 53.2283 1335.6 533.704
693 0 37.0849 8.06258 299 55.0736 1334.99 533.759
694 0 36.0846 6.5956 238 56.3992 1335.31 532.45
695 0 37.0691 8.33579 309 57.4045 1334.9 529.307
696 0 39.1302 8.9445 350 56.2743 1334.42 532.943
697 0 39.0765 7.03747 275 57.9527 1335.08 531.513
698 0 41.1953 9.68556 399 56.7193 1335.27 528.494
699 0 43.1349 10.0151 432 56.588 1335.62 527.757
700 0 43.069 9.17133 395 58.119 1334.76 529.329
701 0 45.0901 8.42756 380 59.3342 1334.95 528.363
702 0 47.1078 9.38273 442 58.8801 1335.39 526.394
703 0 50.1599 10.6858 536 58.4832 1334.4 527.787
704 0 51.0763 10.9836 561 57.984 1334.35 528.307
705 0 52.07 11.3501 591 58.731 1334.62 524.629
706 0 54.263 11.2231 609 58.8424 1334.41 524.619
707 0 56.031 11.2973 633 57.9542 1334.85 524.265
708 0 57.1011 11.2257 641 58.0234 1335.23 523.03
709 0 56.1423 10.5803 594 58.9343 1335.45 520.173
710 0 59.1553 10.5147 622 59.8489 1334.77 520.736
711 0 60.1142 7.58556 456 62.3947 1334.75 521.068
712 0 60.1142 7.56892 455 144.073 1334.74 521.211
713 0 67.1601 10.5569 709 59.6925 1335.16 515.908
714 0 67.1331 8.14799 547 63.5923 1334.21 516.126
715 1 35.0147 7.08275 248 57.3065 1334.32 533.935
716 0 36.0166 7.99631 288 56.4931 1334.66 532.677
717 0 38.0135 9.10204 346 54.896 1334.35 536.676
718 0 35.0707 7.6417 268 58.5634 1334.41 532.194
719 0 39.0416 8.37567 327 55.8226 1334.85 533.483
720 0 40.0191 9.67039 387 55.2016 1335.16 530.643
721 0 40.0433 11.1379 446 54.6547 1334.45 533.101
722 0 42.1366 9.3268 393 56.8397 1334.42 530.204
723 0 43.0525 8.22251 354 59.2571 1334.34 528.842
724 0 45.126 9.57321 432 57.2176 1334.26 530.248
725 0 45.0965 9.33553 421 58.1639 1334.16 529.549
726 0 47.121 11.8206 557 55.6463 1334.63 527.442
727 0 48.1411 10.3861 500 56.492 1334.49 528.97
728 0 49.1087 9.97787 490 57.8245 1334.2 527.749
729 0 49.0446 11.3162 555 56.7676 1334.73 526.393
730 0 51.0924 10.5104 537 57.6723 1334.71 523.976
731 0 51.0975 8.25872 422 60.5 1334.64 523.431
732 0 55.138 11.4622 632 55.7975 1334.93 525.785
733 0 56.1055 10.9971 617 56.7164 1334.82 525.734
734 0 55.1105 10.2158 563 58.9787 1334.32 522.476
735 0 60.0926 11.033 663 56.2097 1334.48 523.523
736 0 57.0823 8.72425 498 58.9779 1334.97 521.169
737 0 60.1304 10.7267 645 56.3364 1334.85 522.181
738 0 62.1671 8.36456 520 57.7481 1335 522.129
739 0 65.0731 9.32797 607 57.1862 1335.45 519.3
740 1 30.0659 9.57895 288 49.3681 1335.65 538.014
741 0 33.0162 10.5706 349 49.7794 1335.29 536.424
742 0 35.0561 10.6401 373 50.756 1334.74 534.024
743 0 33.0361 9.35341 309 51.4757 1334.85 535.518
744 0 37.0886 9.38294 348 53.8592 1334.1 533.966
745 0 38.0668 11.6374 443 51.4334 1334.46 532.535
746 0 37.0075 8.94414 331 53.3021 1334.58 531.535
747 0 39.0689 12.2348 478 50.4414 1335.2 531.038
748 0 38.0304 8.59839 327 54.0183 1335.07 527.988
749 0 38.0398 7.1767 273 55.315 1334.95 528.993
750 0 44.0398 12.08 532 50.7049 1334.94 528.434
751 0 42.0828 10.8596 457 50.7987 1335.34 531.177
752 0 44.044 10.0354 442 54.0747 1334.56 526.484
753 0 45.0547 12.0742 544 52.3199 1334.72 526.671
754 0 46.0413 11.1205 512 53.375 1334.52 524.145
755 0 49.0675 10.5569 518 52.8108 1334.93 525.145
756 0 50.0521 11.488 575 52.1113 1334.67 526.23
757 0 54.0122 11.3863 615 52.6585 1334.24 524.803
758 0 53.1482 9.87804 525 54.0724 1334.65 523.943
759 0 56.0305 11.5116 645 52.4093 1334.45 523.122
760 0 56.0325 12.4927 700 52.9486 1333.9 520.873
761 0 58.0601 9.71407 564 55.2908 1334.2 519.372
762 0 60.0317 10.0613 604 53.457 1335.14 522.202
763 0 61.0713 11.5439 705 53.3291 1335.28 516.258
764 0 62.0727 11.5026 714 53.5714 1335.12 516.027
765 0 64.0847 8.84767 567 57.1499 1334.78 516.088
766 0 68.0461 10.8897 741 54.7031 1334.61 517.026
767 0 67.0924 8.10822 544 58.761 1334.33 510.184
768 0 72.0872 11.6942 843 54.6714 1334.52 514.553
769 0 74.073 12.3392 914 54.372 1334.72 513.728
770 0 75.1252 10.955 823 55.6525 1334.72 509.583
771 1 34.0266 6.20103 211 53.8863 1334.94 532.863
772 0 37.051 8.52878 316 53.4335 1334.54 531.63
773 0 38.0364 9.28059 353 52.8074 1334.51 533.807
774 0 39.0611 8.2691 323 55.065 1333.98 533.146
775 0 40.0351 9.09201 364 55.0192 1333.92 529.739
776 0 42.0326 8.94544 376 53.859 1334.55 528.71
777 0 44.0141 11.36 500 52.662 1334.24 528.304
778 0 44.0478 12.0097 529 51.1588 1335.03 528.733
779 0 45.018 10.3292 465 53.5677 1334.8 526.572
780 0 48.0661 11.4634 551 52.6443 1334.69 526.719
781 0 46.0734 9.50657 438 55.0959 1334.35 526.306
782 0 49.0802 10.7986 530 54.0604 1334.3 523.891
783 0 51.0444 12.4206 634 51.8533 1334.66 522.019
784 0 53.0408 9.80378 520 53.5442 1334.89 520.1
785 0 53.1209 10.3726 551 53.412 1334.96 519.817
786 0 56.0603 12.0228 674 51.8872 1334.96 522.037
787 0 56.0745 10.4147 584 53.9486 1334.41 519.247
788 0 59.0756 10.8336 640 53.7219 1334.55 517.317
789 0 63.0451 12.0073 757 53.1598 1333.9 519.764
790 0 62.1022 10.6437 661 55.5703 1333.46 516.262
791 0 67.2567 12.9058 868 52.5841 1334.13 516.279
792 0 68.091 13.2029 899 52.7786 1333.67 517.626
793 0 68.1827 10.5892 722 55.1828 1333.94 513.093
794 0 72.0808 12.4444 897 52.9777 1334.7 510.777
795 0 75.1349 11.1533 838 54.3389 1334.4 510.58
796 0 76.1227 11.2581 857 55.2112 1334.32 508.727
797 1 36.0251 11.3532 409 51.1222 1334 532.022
798 0 39.1331 11.9592 468 49.9145 1334.24 532.724
799 0 39.1001 9.20713 360 52.4472 1333.99 531.711
800 0 39.074 8.29196 324 53.679 1334.39 528.627
801 0 42.0545 10.6053 446 51.9731 1333.89 531.276
802 0 42.0972 9.43056 397 53.4559 1333.92 530.161
803 0 43.1033 10.3472 446 53.4933 1333.9 528.61
804 0 47.0394 12.2025 574 51.1794 1333.98 528.183
805 0 49.0919 10.9183 536 52.2575 1334 526.039
806 0 49.0264 11.5652 567 52.3051 1333.99 526.205
807 0 48.0546 10.8627 522 53.9521 1333.75 524.469
808 0 53.0595 11.5342 612 52.9183 1333.91 525.761
809 0 55.0861 10.5834 583 53.4271 1333.87 526.432
810 0 55.113 10.1609 560 54.6232 1333.68 524.773
811 0 55.0425 10.4465 575 54.5374 1334.13 522.776
812 0 58.0219 11.3061 656 52.718 1334.85 524.05
813 0 59.1027 12.9267 764 52.5759 1334.76 522.038
814 0 61.1115 11.3399 693 55.1154 1334.33 518.124
815 0 63.1175 10.7419 678 56.1239 1334.01 519.386
816 0 67.0812 13.0588 876 54.1347 1334.5 518.841
817 0 69.1282 13.5545 937 53.603 1334.64 519.815
818 0 70.0902 12.327 864 55.419 1334.68 516.068
819 0 74.0807 11.9059 882 55.2902 1334.64 517.836
820 0 76.1086 14.9917 1141 52.8124 1334.7 517.96
821 0 78.0858 12.6912 991 55.4046 1334.76 515.81
822 1 42.0436 10.8934 458 54.1048 1334.1 532.828
823 0 41.0809 9.44478 388 57.317 1333.11 531.716
824 0 45.0336 12.1465 547 53.9616 1333.66 531.943
825 0 45.0403 9.56921 431 56.4687 1333.6 532.021
826 0 49.1333 11.3162 556 55.2896 1333.77 528.543
827 0 48.0688 9.54882 459 56.3137 1334.08 530.418
828 0 51.0241 12.1119 618 54.3317 1334.44 527.969
829 0 53.1561 11.0053 585 54.9214 1334.39 528.448
830 0 55.1952 12.8272 708 53.6638 1334.71 525.556
831 0 54.0472 10.5463 570 57.3246 1334.06 524.798
832 0 56.0726 11.5743 649 56.2435 1334.18 525.361
833 0 59.0717 12.6964 750 54.048 1334.61 525.285
834 0 60.1599 12.3338 742 54.6267 1334.85 521.853
835 0 64.0661 11.0199 706 55.5071 1334.65 523.22
836 0 66.1307 12.067 798 55.3183 1334.66 520.495
837 0 66.0531 10.2493 677 56.9645 1334.77 520.539
838 0 69.1784 12.2003 844 55.8791 1334.74 518.339
839 0 70.0549 11.6337 815 56.9558 1334.73 515.796
840 0 71.1732 9.94757 708 58.1102 1334.73 518.429
841 0 75.0688 11.4295 858 57.8788 1334.6 513.364
842 0 77.218 11.2927 872 57.4553 1335.21 513.443
843 0 78.0986 10.3075 805 59.1652 1335.12 512.344
844 0 81.2334 13.2212 1074 56.014 1335.6 510.886
845 0 84.0735 10.1935 857 59.0105 1334.84 510.363
846 0 86.1266 11.0419 951 59.2471 1334.75 506.736
847 0 89.0701 12.3049 1096 57.4626 1335.49 507.988
848 0 90.1227 10.6965 964 59.7334 1334.97 507.75
849 0 95.123 12.815 1219 57.7309 1334.96 506.084
850 0 97.0933 11.216 1089 59.1928 1334.99 506.357
851 0 101.132 11.0252 1115 59.0027 1335.07 504.329
852 0 102.142 13.7358 1403 58.0563 1334.86 499.926
853 1 50.0681 9.0277 452 57.9358 1334.94 525.584
854 0 50.1162 10.2562 514 56.9008 1334.71 525.109
855 0 54.0932 10.8886 589 56.1969 1334.58 526.691
856 0 57.0577 12.1281 692 55.5159 1334.8 522.994
857 0 58.0807 12.3277 716 56.2374 1334.53 521.286
858 0 59.2 10.8446 642 57.7835 1334.77 521.85
859 0 61.0993 12.3897 757 56.4544 1335 519.552
860 0 62.2142 11.155 694 59.2378 1334.32 517.555
861 0 66.1078 12.9637 857 57.3921 1334.97 520.561
862 0 67.0889 10.9109 732 60.0533 1334.77 519.391
863 0 71.1322 11.0639 787 61.5121 1333.53 517.333
864 0 74.0412 10.2105 756 60.5807 1334.1 520.804
865 0 74.1628 12.4995 927 60.1251 1334.31 514.491
866 0 78.213 12.0824 945 60.5344 1334.18 514.459
867 1 40.033 11.1658 447 56.4743 1334.06 533.112
868 0 38.0915 9.08339 346 58.1156 1334.73 531.642
869 0 39.0969 7.46863 292 61.5753 1333.63 531.377
870 0 42.0519 9.89253 416 59.4832 1333.69 532.243
871 0 43.0466 9.03672 389 60.3933 1333.67 531.45
872 0 46.0652 9.26947 427 58.6885 1333.85 533.199
873 0 46.0772 11.4156 526 57.8251 1334.25 530.846
874 0 49.0955 9.12507 448 59.5714 1333.64 530.366
875 0 50.0638 9.6477 483 60.1801 1333.58 528.824
876 0 50.0707 12.043 603 57.6119 1334.13 527.799
877 0 51.0631 10.0268 512 57.6074 1334.51 528.281
878 0 55.1245 10.3221 569 57.8453 1333.98 528.974
879 0 57.169 11.3523 649 57.4638 1334.29 525.333
880 0 58.144 10.3708 603 58.1476 1334.46 523.509
881 0 59.1296 10.5869 626 58.8435 1334.31 522.821
882 0 61.0623 10.5138 642 59.567 1334.28 520.567
883 0 63.1364 11.4039 720 57.8972 1334.88 519.086
884 0 62.0592 9.58761 595 60.1899 1334.25 521.072
885 0 66.0548 10.6578 704 59.5071 1334.44 518.403
886 0 69.0972 10.4346 721 60.4161 1334.04 516.75
887 0 71.068 11.2287 798 58.7268 1334.91 518.046
888 0 72.1089 10.9973 793 59.4792 1334.76 515.852
889 0 74.1589 8.96723 665 61.6376 1334.83 512.962
890 0 81.148 10.4131 845 59.8899 1334.68 515.608
891 0 79.2761 10.3184 818 61.2787 1334.83 512.042
892 1 91.1054 7.04678 642 63.9081 1335.07 505.65
893 0 93.1762 8.32831 776 62.3093 1334.62 511.053
894 0 92.1305 8.75932 807 62.9988 1334.25 508.746
895 0 92.1031 10.9551 1009 62.1724 1333.45 506.75
896 1 43.0639 9.40464 405 58.4543 1333.88 529.657
897 0 43.0683 10.495 452 57.8916 1333.92 530.285
898 0 46.0477 10.8149 498 57.3574 1334.09 528.737
899 0 45.047 9.76758 440 57.825 1334.27 529.161
900 0 47.0301 10.8016 508 56.5846 1334.59 528.425
901 0 50.1993 10.4185 523 56.5182 1334.31 530.281
902 0 50.1021 11.5564 579 56.171 1334.64 527.865
903 0 53.0684 10.9481 581 56.9122 1334.78 526.188
904 0 55.0508 11.4621 631 55.8859 1334.97 527.396
905 0 57.087 11.3161 646 57.2121 1334.56 523.646
906 0 58.0722 9.88424 574 58.7997 1334.88 519.678
907 0 59.0767 8.97138 530 59.6642 1334.61 521.992
908 0 63.1218 10.8362 684 57.8918 1334.28 524.605
909 0 64.0431 10.2119 654 58.8456 1334.89 523.748
910 1 105.136 11.7942 1240 62.1597 1335.1 501.365
911 0 107.187 10.0852 1081 64.1517 1335.22 502.429
912 0 110.231 12.8185 1413 62.7806 1335.28 497.108
913 0 110.109 11.5795 1275 63.8071 1335.64 496.801
914 0 114.11 10.4022 1187 64.6175 1335.11 499.121
915 0 119.152 11.9091 1419 63.2283 1334.52 501.643
916 0 122.171 10.7554 1314 65.7451 1334.02 498.326
917 0 125.197 11.2462 1408 65.6357 1334.39 495.364
918 0 130.114 12.6044 1640 63.639 1334.47 494.89
919 0 133.365 11.5248 1537 66.4268 1333.93 488.913
920 1 83.2272 9.74441 811 65.2392 1334.01 513.466
921 0 87.0912 10.8048 941 65.2795 1333.55 510.358
922 1 43.0441 11.8948 512 57.9785 1333.63 534.504
923 0 46.0581 11.0296 508 59.9843 1333.37 532.039
924 0 47.0644 10.73 505 60.802 1333.55 529.558
925 0 49.0345 11.8692 582 58.6924 1334.05 530.457
926 0 49.0334 11.7063 574 59.8118 1334.03 529.561
927 0 51.0456 10.9902 561 60.0998 1334.1 528.742
928 0 53.0364 11.5392 612 60.933 1334.03 527.322
929 0 56.1269 12.739 715 61.2224 1333.58 525.287
930 0 57.0599 11.2689 643 63.3437 1333.57 524.908
931 0 60.0452 11.2249 674 62.727 1333.91 524.869
932 0 60.0732 10.9699 659 63.5114 1333.91 525.137
933 0 63.0684 12.0663 761 62.092 1334.3 522
934 0 65.0767 10.6029 690 64 1334.22 522.096
935 0 65.1473 8.56521 558 66.6434 1334.49 518.927
936 1 36.0949 9.94601 359 58.1922 1334.23 537.632
937 0 36.0223 8.71683 314 61.4936 1333.91 535.404
938 0 37.0288 9.53311 353 60.5807 1334.35 533.414
939 0 39.1036 10.7407 420 58.1833 1334.5 535.562
940 0 40.0662 8.91025 357 61.7871 1334.18 533.381
941 0 43.0532 10.2664 442 61.1109 1334 531.88
942 0 43.1032 9.74405 420 61.4095 1334.42 532.276
943 0 43.0292 9.76081 420 62.5214 1334.34 530.229
944 0 45.0483 12.4755 562 56.9982 1335.3 531.21
945 0 48.0817 10.5861 509 59.8428 1335.02 529.098
946 0 45.0622 8.01116 361 63.169 1335.06 525.981
947 0 47.0743 10.7915 508 61.0335 1334.82 525.132
948 0 51.0563 9.02924 461 60.872 1335.2 524.69
949 0 51.1197 10.8764 556 58.6097 1335.93 525.505
950 0 55.0874 9.92967 547 60.2907 1335.1 525.099
951 0 54.1582 11.0417 598 59.5702 1335.38 524.465
952 0 54.0461 9.14034 494 60.8117 1336.25 517.571
953 0 57.0908 12.5414 716 57.9916 1335.79 519.152
954 0 60.0417 7.62803 458 64.2031 1335.25 514.157
955 0 60.0237 9.01311 541 63.5323 1335.03 516.616
956 0 61.0432 10.1567 620 63.2048 1334.57 515.815
957 1 30.0196 6.12933 184 59.5109 1335.35 531.212
958 0 30.0713 6.68412 201 60.592 1334.82 530.517
959 0 32.007 10.0915 323 58.4892 1334.95 531.421
960 0 40.014 9.24676 370 67.2811 1334.87 493.027
961 0 41.058 10.1076 415 65.5325 1335.45 492.851
962 0 42.0484 11.0111 463 64.8035 1335.53 490.978
963 1 71.0486 8.24787 586 65.1468 1335.67 495.375
964 1 46.0374 9.75295 449 65.9243 1335.69 486.47
965 0 45.0438 9.59067 432 58.1088 1334.68 530.521
966 0 48.1707 11.7499 566 55.9346 1334.66 529.495
967 0 47.0311 11.7794 554 56.0289 1335.13 527.249
968 0 47.0565 11.1568 525 56.9448 1335.04 525.539
969 0 51.1053 9.92069 507 57.4043 1335.18 526.515
970 0 52.018 12.0535 627 55.3014 1335.27 526.174
971 0 52.0664 8.87329 462 59.0173 1335.13 523.307
972 0 54.1448 10.0287 543 57.6869 1335.14 523.379
973 0 57.1521 10.6733 610 56.7066 1335.16 522.574
974 0 60.075 10.7699 647 56.9892 1335.07 519.951
975 0 61.0677 11.4791 701 56.2981 1334.81 518.729
976 0 63.0424 10.9292 689 57.4586 1334.85 515.826
977 0 65.0298 12.0099 781 56.3393 1334.69 518.602
978 0 67.156 9.87254 663 57.5279 1334.99 517.919
979 0 71.1206 11.375 809 55.492 1335.7 515.371
980 0 73.0207 12.339 901 55.4895 1334.8 513.99
981 0 74.0772 9.28761 688 58.5974 1335.02 511.593
982 0 76.0787 10.0291 763 57.8113 1335.21 509.758
983 0 78.099 11.0885 866 57.0416 1334.97 509.711
984 0 83.244 11.16 929 56.549 1334.97 508.515
985 1 41.0297 8.60353 353 54.8187 1335.19 527.691
986 0 43.0274 9.6915 417 52.0815 1335.53 528.165
987 0 41.0751 7.69323 316 56.3513 1334.69 526.199
988 0 45.09 9.49212 428 53.2103 1335.28 526.306
989 0 49.1213 9.50707 467 53.9679 1334.94 526.621
990 0 49.103 10.0808 495 54.1414 1334.72 525.844
991 0 49.0205 9.60823 471 54.0191 1334.96 526.713
992 0 52.0593 10.0847 525 54.4381 1334.65 523.45
993 0 55.1025 10.1992 562 52.1619 1335.45 525.374
994 0 56.0846 12.4633 699 50.9742 1335.39 523.086
995 0 58.0618 11.6428 676 52.0133 1335.45 520.562
996 0 61.0727 11.0524 675 52.0281 1335.29 522.193
997 0 62.0856 12.0157 746 51.5858 1335.48 521.232
998 0 66.1338 11.1894 740 52.7054 1335 521.078
999 0 66.2476 11.14 738 54.4214 1334.29 516.611
1000 0 70.1795 11.4563 804 53.2102 1334.5 519.588
1001 0 68.0981 11.131 758 54.1807 1335.04 514.698
1002 0 71.0346 10.5442 749 54.4206 1335.15 515.434
1003 0 76.0418 11.4542 871 52.814 1335.81 514.08
1004 0 78.0767 9.00397 703 56.4495 1335.03 512.471
1005 0 80.1053 11.1104 890 54.6921 1335.05 512.958
1006 0 84.1742 11.3218 953 55.191 1334.46 508.699
1007 0 86.1107 11.7407 1011 54.7844 1334.66 508.511
1008 1 41.0836 9.76057 401 53.3441 1334.33 529.768
1009 0 44.0587 8.51138 375 54.3653 1334.05 530.709
1010 0 47.1877 10.1297 478 52.249 1334.79 529.891
1011 0 48.0157 9.51773 457 53.3304 1334.82 528.812
1012 0 49.0831 10.7165 526 51.6426 1335.17 529.971
1013 0 49.0457 9.60329 471 53.6752 1334.79 526.34
1014 0 52.0881 10.1943 531 53.6874 1334.19 528.861
1015 0 51.0469 9.10926 465 54.6946 1334.7 526.12
1016 0 56.0749 9.79048 549 54.3953 1334.14 526.59
1017 0 57.069 10.093 576 54.533 1334.18 524.368
1018 0 57.082 10.2659 586 54.6451 1334.57 522.234
1019 0 61.0594 13.1347 802 51.884 1334.41 522.3
1020 0 62.0985 11.4334 710 54.1662 1334.28 521.269
1021 0 63.0771 9.86094 622 56.0386 1334.32 517.188
1022 0 65.1097 10.5053 684 55.7339 1334.1 520.083
1023 0 69.0807 10.3068 712 55.4382 1334.18 521.154
1024 0 70.098 11.812 828 54.5507 1334.11 518.262
1025 0 71.1242 11.8244 841 54.1249 1334.7 517.103
1026 0 76.0983 11.9582 910 53.9253 1334.57 518.923
1027 0 77.0542 11.9137 918 54.7429 1334.22 515.486
1028 0 79.1838 10.7724 853 57.0199 1333.28 514.135
1029 0 82.1293 11.2749 926 55.9644 1334.07 511.971
1030 0 85.0601 11.0745 942 56.3907 1333.59 512.611
1031 1 42.0185 10.0194 421 53.5107 1333.36 534.684
1032 0 45.0483 11.5432 520 52.3731 1333.15 534.125
1033 0 45.0635 9.80839 442 54.457 1333.5 532.572
1034 0 47.0393 12.5427 590 52.1593 1333.53 530.832
1035 0 47.0477 11.3714 535 53.3757 1333.66 528.72
1036 0 50.1387 10.7901 541 54.2292 1333.54 528.484
1037 0 52.1275 11.1266 580 54.5948 1332.89 529.034
1038 0 52.075 11.3298 590 54.9559 1332.89 527.278
1039 0 57.1116 12.9571 740 53.4081 1332.4 526.847
1040 0 56.0318 10.1906 571 57.0928 1332.41 526.252
1041 0 59.1241 11.8226 699 55.2318 1332.21 526.252
1042 0 58.0498 10.3704 602 56.7625 1332.99 524.879
1043 0 62.1694 10.0049 622 56.4759 1332.83 523.36
1044 0 62.0964 9.80733 609 57.1133 1332.75 521.847
1045 0 67.0869 11.5075 772 55.2513 1332.6 521.229
1046 0 68.0487 11.286 768 55.3242 1332.58 521.465
1047 0 70.1543 11.2609 790 54.9759 1332.95 521.28
1048 0 73.0893 11.5612 845 54.5432 1333.26 519.359
1049 0 73.113 11.0651 809 54.246 1334.08 518.323
1050 0 76.1335 10.915 831 55.5872 1333.1 514.698
1051 0 77.0565 11.2126 864 55.0613 1333.3 516.02
1052 0 81.0769 11.4583 929 55.0205 1332.94 510.819
1053 0 85.0974 10.6114 903 56.0155 1333.16 511.86
1054 0 87.1069 11.1472 971 55.7683 1333.19 512.814
1055 1 43.059 10.1953 439 51.6446 1333.3 535.658
1056 0 41.0376 8.18761 336 53.4613 1333.45 534.545
1057 0 46.1188 10.4729 483 51.4493 1333.52 533.66
1058 0 45.113 11.2384 507 51.641 1333.59 529.976
1059 0 44.0469 8.67257 382 55.4712 1333.26 528.942
1060 0 49.0396 9.319 457 53.337 1333.06 532.558
1061 0 48.0406 8.68015 417 54.3717 1333.47 527.451
1062 0 52.0364 10.5503 549 52.7668 1333.05 531.39
1063 0 53.0816 8.77894 466 53.9249 1333.52 530.639
1064 0 54.0509 9.97209 539 53.59 1333.8 525.764
1065 0 57.0579 10.3404 590 53.4153 1333.47 525.119
1066 0 57.0869 9.93223 567 53.3034 1334.41 524.596
1067 0 60.086 12.1326 729 50.7682 1334.39 525.053
1068 0 63.0665 10.1797 642 53.3925 1334.38 521.472
1069 0 64.0549 10.772 690 52.1348 1334.72 523.904
1070 0 64.1587 9.00891 578 54.5917 1334.55 520.604
1071 0 68.1468 10.1986 695 53.7511 1334.66 518.318
1072 0 70.0543 9.97797 699 54.1674 1334.44 517.688
1073 0 74.0683 12.1914 903 51.9424 1334.33 517.587
1074 1 35.0235 9.67921 339 48.7375 1334.06 535.525
1075 0 37.0588 9.76826 362 48.6685 1334.05 536.84
1076 0 37.0837 9.46508 351 48.3048 1334.4 533.903
1077 0 40.0434 9.63954 386 48.5596 1334.24 535.593
1078 0 42.0528 8.37043 352 50.5369 1333.74 535.42
1079 0 44.0437 9.15001 403 50.0794 1333.63 534.782
1080 0 44.038 7.81144 344 51.7703 1333.88 531.369
1081 0 48.0289 8.89048 427 51.1944 1333.4 533.569
1082 0 49.0796 10.5339 517 49.9381 1333.74 532.88
1083 0 49.0335 10.3399 507 50.5838 1333.93 529.769
1084 0 46.03 6.43059 296 54.625 1333.64 527.791
1085 0 53.1562 10.0835 536 50.1698 1334.05 529.961
1086 0 51.1139 8.3539 427 52.9625 1333.95 525.471
1087 0 56.0593 10.1143 567 50.2134 1334.66 527.414
1088 0 57.1341 8.96137 512 51.6543 1333.8 529.914
1089 0 56.0252 9.03164 506 52.4091 1334.17 522.326
1090 0 61.1372 9.79764 599 52.1553 1334.16 522.285
1091 0 62.0414 8.18808 508 53.6969 1334.24 522.565
1092 0 62.0556 9.94269 617 51.765 1334.17 524.496
1093 0 68.07 11.6791 795 50.9094 1334.08 520.179
1094 0 66.1063 9.12167 603 52.8491 1334.75 519.146
1095 0 69.1255 8.10121 560 54.2946 1334.79 515.839
1096 1 31.0124 7.15843 222 49.3423 1334.27 538.441
1097 0 35.0318 9.47709 332 47.6235 1334.51 537.422
1098 0 36.0168 9.7732 352 48.0284 1333.72 538.534
1099 0 35.0243 6.56687 230 50.1783 1333.8 537.778
1100 0 37.0989 7.89782 293 50.9625 1333.51 533.464
1101 0 40.0354 8.31763 333 51.5916 1333.2 534.195
1102 0 42.0314 10.4684 440 49.4432 1333.42 533.995
1103 0 41.0331 8.1154 333 52.1532 1333.46 532.444
1104 0 44.0398 10.7857 475 49.9558 1333.52 532.819
1105 0 47.0404 9.88513 465 50.2817 1333.76 532.385
1106 0 47.0404 8.50332 400 52.6125 1333.11 531.05
1107 0 49.0307 8.03577 394 52.5279 1332.93 532.261
1108 0 49.131 9.34238 459 51.305 1334.03 528.246
1109 0 52.0485 12.8534 669 48.2466 1334.32 527.879
1110 0 52.11 9.84455 513 50.1852 1334.58 527.308
1111 0 55.0976 9.87338 544 49.5515 1334.5 529.789
1112 0 58.066 11.0908 644 48.8618 1334.61 527.368
1113 0 58.1035 11.7377 682 49.4282 1334.4 523.5
1114 0 60.0906 8.98643 540 52.4907 1333.95 521.613
1115 0 63.1595 10.1172 639 50.6823 1334.15 525.858
1116 0 65.1646 9.49902 619 52.4216 1334.15 519.435
1117 0 65.098 9.20152 599 51.7896 1334.82 519.977
1118 0 71.2429 10.9344 779 49.8447 1334.75 520.526
1119 0 70.1767 8.06536 566 53.4187 1333.87 519.894
1120 0 74.1746 9.96297 739 52.3965 1334.38 510.804
1121 0 77.2218 10.308 796 51.8191 1334.71 514.589
1122 1 36.0567 4.68706 169 51.9763 1334.23 534.929
1123 0 37.0525 8.06963 299 50.1237 1334.54 532.609
1124 0 38.0589 5.64914 215 51.9488 1335.13 533.158
1125 0 41.0502 10.2557 421 47.9667 1335.12 534.264
1126 0 42.0977 9.31168 392 50.3342 1334.59 531.39
1127 0 45.0784 9.98261 450 49.9 1334.58 532.391
1128 0 46.0502 9.59821 442 51.2511 1333.75 532.077
1129 0 47.0258 9.12266 429 51.4779 1334.34 530.014
1130 0 48.2135 8.77348 423 52.4184 1334.45 527.34
1131 0 51.0456 9.9323 507 52.8757 1333.79 527.661
1132 0 51.0799 8.86845 453 53.3907 1334.32 528.232
1133 0 54.1029 10.2397 554 52.4097 1334.07 527.377
1134 0 56.1156 9.8903 555 52.9766 1333.94 527.714
1135 0 57.0739 9.98705 570 52.6386 1334.75 521.995
1136 0 57.0558 10.5335 601 52.1564 1334.42 525.95
1137 0 60.1462 8.59572 517 54.4023 1334.34 522.979
1138 0 65.2542 10.7273 700 52.85 1334.16 520.701
1139 0 62.0609 6.68698 415 57.3398 1334.35 515.66
1140 0 70.2115 11.5508 811 51.5623 1334.39 522.033
1141 0 69.0865 9.95853 688 53.7427 1334.72 517.4
1142 0 72.0811 10.835 781 52.6415 1334.65 517.347
1143 0 75.1138 11.5824 870 52.6 1334.26 515.339
1144 0 78.1542 11.4261 893 52.1892 1334.57 517.12
1145 0 78.1634 10.0687 787 53.906 1334.32 515.997
1146 0 81.1148 10.9721 890 52.6292 1335.09 512.809
1147 0 84.1302 10.4243 877 54.3865 1334.32 509.737
1148 1 45.0389 8.43715 380 53.2605 1333.64 531.737
1149 0 45.0591 9.36549 422 53.4313 1333.86 531.009
1150 0 48.0352 11.7622 565 50.4195 1334.09 531.271
1151 0 49.0787 11.6955 574 51.3624 1333.96 529.505
1152 0 51.0499 9.55927 488 53.1701 1333.56 530.227
1153 0 52.0582 9.5086 495 52.4444 1334.11 528.863
1154 0 52.1143 10.6688 556 51.8957 1334.4 524.275
1155 0 54.0574 9.37893 507 52.4675 1334.69 525.185
1156 0 57.1195 12.185 696 50.5158 1334.38 522.938
1157 0 58.192 10.5169 612 52.0637 1334.54 520.544
1158 0 58.0809 9.46954 550 53.2164 1334.7 521.709
1159 0 62.0834 11.2429 698 51.1633 1335.16 521.07
1160 0 65.1066 14.2535 928 49.0647 1334.65 519.081
1161 0 67.1646 11.0177 740 51.5973 1334.56 522.366
1162 0 71.1924 12.2906 875 51.3349 1334.21 517.797
1163 0 72.1756 12.9268 933 51.477 1334.39 516.713
1164 0 76.196 13.6753 1042 50.8157 1334.27 515.105
1165 0 78.1425 11.5942 906 53.0419 1334.28 512.571
1166 0 80.1157 12.2573 982 52.9145 1334.3 512.432
1167 0 82.1122 10.8145 888 53.3119 1334.87 515.75
1168 1 42.117 5.88835 248 54.3548 1334.48 531.069
1169 0 42.0509 10.2495 431 51.6682 1334.2 532.831
1170 0 45.0629 7.96664 359 53.9944 1334.07 530.203
1171 0 49.0943 10.5919 520 51.0635 1334.32 531.621
1172 0 46.2299 9.8421 455 53.789 1334.02 527.429
1173 0 50.0795 11.342 568 52.1373 1333.82 527.66
1174 0 50.14 8.45632 424 54.2901 1334.34 524.656
1175 0 53.1865 9.72051 517 52.8491 1334.48 524.768
1176 0 52.0402 10.0499 523 53.5029 1334.45 522.811
1177 0 58.2103 10.5651 615 51.5415 1334.77 524.657
1178 0 60.0701 10.9539 658 51.3283 1335.08 524.397
1179 0 61.1232 10.258 627 52.4593 1334.95 523.609
1180 0 63.0849 11.5876 731 52.1628 1334.04 524.026
1181 0 65.0482 11.2839 734 53.7248 1333.71 519.774
1182 0 67.2405 9.94936 669 54.0807 1334.6 517.314
1183 0 70.1535 10.3487 726 53.7989 1334.1 518.634
1184 0 71.0743 10.6086 754 53.7175 1334.49 518.358
1185 0 75.0904 11.6793 877 53.3136 1334.34 513.668
1186 0 76.074 12.9348 984 52.436 1334.38 511.924
1187 0 80.1477 12.4146 995 52.9477 1334.02 512.13
1188 0 82.2699 11.6811 961 53.2674 1334.24 513.52
1189 0 86.1749 11.9408 1029 53.1603 1334.68 511.272
1190 1 48.0188 11.9953 576 49.3941 1334.46 530.72
1191 0 49.0376 10.0535 493 50.716 1333.99 532.708
1192 0 49.0448 11.2142 550 51.1582 1334.21 530.209
1193 0 49.0576 9.19328 451 52.878 1334.54 525.945
1194 0 54.0929 12.8668 696 48.9914 1334.93 527.894
1195 0 54.0562 11.6915 632 50.5095 1334.66 525.628
1196 0 56.0423 11.8482 664 51.1732 1334.17 524.752
1197 0 55.0652 6.31978 348 56.5776 1333.42 524.48
1198 0 59.101 10.9135 645 52.5519 1333.63 524.865
1199 0 61.0745 9.88956 604 53.2765 1333.91 521.283
1200 0 63.1741 12.0461 761 51.0749 1334.99 518.405
1201 0 66.1215 9.51279 629 43.2242 1334.41 527.603
1202 0 66.1586 9.90046 655 53.2458 1334.63 517.731
1203 0 68.0704 10.3275 703 52.3257 1334.99 517.478
1204 0 72.1239 11.4941 829 52.4089 1334.22 517.2
1205 0 73.0866 11.7121 856 52.7079 1334.09 514.756
1206 0 77.0915 11.6874 901 52.4994 1334.38 515.037
1207 0 80.1096 11.3345 908 53.0363 1334.34 513.151
1208 0 80.1334 11.3186 907 52.9956 1334.97 508.526
1209 0 84.0679 11.7167 985 52.6162 1335.11 508.589
1210 0 87.1574 11.5882 1010 53.4446 1334.74 504.553
1211 0 89.228 11.1288 993 54.1964 1334.1 504.871
1212 0 93.124 11.533 1074 54.2039 1334.53 504.084
1213 0 95.1675 10.5288 1002 56.012 1334.34 501.568
1214 0 97.087 11.2785 1095 54.8676 1335.15 499.693
1215 1 44.0312 5.74592 253 55.9526 1334.12 526.024
1216 0 47.0171 9.40084 442 52.7828 1334.59 526.034
1217 0 52.0085 8.7678 456 53.1206 1334.77 525.971
1218 0 54.0208 8.941 483 53.7681 1334.43 524.545
1219 0 56.0554 12.1665 682 51.5308 1334.5 522.87
1220 0 57.0991 11.2786 644 53.2826 1334.26 521.25
1221 0 61.1303 12.3343 754 52.1061 1334.47 521.183
1222 0 62.0992 9.95182 618 54.6796 1334.56 520.155
1223 0 62.0445 10.7987 670 54.6373 1334.26 519.63
1224 0 63.1075 9.28575 586 56.5085 1334.89 518.166
1225 0 66.0751 11.1388 736 54.4484 1335.63 516.181
1226 0 67.2028 10.2972 692 55.8526 1335.61 516.25
1227 0 67.035 8.50301 570 58.8088 1335.65 512.512
1228 0 69.1147 10.8515 750 57.488 1335.2 511.86
1229 0 74.0543 12.3423 914 56.9212 1334.55 514.166
1230 0 73.138 10.3366 756 59.4921 1335.01 515.086
1231 0 80.1083 11.3971 913 58.5444 1334.95 513.625
1232 0 80.1129 11.721 939 58.9191 1335.37 509.768
1233 0 83.2211 12.4848 1039 59.5005 1335.02 508.046
1234 0 85.0942 11.5049 979 61.141 1334.76 509.106
1235 0 88.0995 12.9967 1145 59.8341 1334.73 509.595
1236 0 90.159 13.6426 1230 60.3024 1334.52 506.546
1237 0 94.0732 15.3179 1441 58.1686 1334.78 506.708
1238 0 94.1464 12.3425 1162 62.5835 1334.53 504.385
1239 0 98.0855 14.3548 1408 60.2003 1334.5 502.727
1240 0 99.2144 13.5464 1344 61.3832 1334.95 500.951
1241 0 102.115 12.6523 1292 63.2051 1334.6 499.006
1242 0 102.1 11.8903 1214 64.9638 1334.8 497.526
1243 0 105.146 13.0105 1368 62.0322 1335.84 498.364
1244 0 109.076 13.6877 1493 61.6979 1335.6 499.76
1245 0 113.108 14.1635 1602 61.9151 1334.84 494.833
1246 0 117.333 14.5994 1713 61.6684 1334.48 496.633
1247 0 117.161 13.2041 1547 63.6102 1335.32 493.842
1248 0 120.181 13.7376 1651 62.9073 1335.66 492.01
1249 0 125.145 14.0557 1759 63.332 1335.06 490.027
1250 0 123.09 13.6323 1678 65.0262 1335.17 485.71
1251 0 127.206 13.3485 1698 64.9299 1335.5 486.196
1252 0 130.113 12.0203 1564 67.2839 1335.13 486.051
1253 0 133.214 14.9459 1991 62.786 1335.75 484.269
1254 0 135.14 13.2085 1785 66.0112 1335.09 485.469
1255 0 139.195 14.1815 1974 64.7442 1335.25 484.793
1256 0 140.202 12.9527 1816 67.3513 1334.91 481.022
1257 0 145.098 13.577 1970 65.6487 1334.99 482.596
1258 0 145.274 12.8585 1868 67.023 1335.4 476.737
1259 0 151.134 15.0132 2269 63.6258 1335.04 480.835
1260 0 152.221 13.0534 1987 66.8032 1335.42 478.106
1261 0 156.305 14.5165 2269 65.1745 1334.01 478.946
1262 0 158.189 14.2299 2251 65.9876 1334.13 475.08
1263 0 161.223 14.6567 2363 65.2124 1334.54 474.168
1264 0 163.165 13.0665 2132 68.1679 1334.02 468.708
1265 0 166.197 13.7789 2290 66.6568 1334.72 471.299
1266 0 168.176 13.1291 2208 66.8256 1335.29 471.538
1267 0 171.302 13.6776 2343 66.3965 1335.34 466.691
1268 0 174.149 13.7296 2391 66.7373 1335.28 459.843
1269 0 177.295 13.7962 2446 66.5303 1335 464.854
1270 0 179.279 12.7566 2287 68.3983 1334.38 460.41
1271 0 185.153 13.9668 2586 66.1771 1334 462.28
1272 0 184.231 13.4071 2470 66.9879 1334.46 455.68
1273 0 188.282 14.7651 2780 64.4155 1334.43 461.473
1274 0 191.258 12.8988 2467 66.8812 1334.2 460.024
1275 0 193.169 14.3087 2764 65.2091 1334.56 456.824
1276 0 198.252 13.0036 2578 67.0085 1334.55 453.991
1277 0 195.191 12.2188 2385 67.7769 1335.5 450.566
1278 0 201.23 13.5268 2722 66.1132 1334.9 450.749
1279 0 201.401 12.2492 2467 68.0535 1334.52 449.723
1280 0 205.279 13.9323 2860 65.9077 1335.25 447.262
1281 0 204.276 11.3719 2323 69.8011 1334.02 445.312
1282 0 210.235 13.5705 2853 66.4101 1334.94 444.638
1283 0 213.346 12.6039 2689 66.6731 1334.47 449.858
1284 0 218.251 14.2267 3105 64.3813 1334.62 446.642
1285 0 217.279 14.6586 3185 64.0003 1335.54 443.019
1286 0 218.255 13.8187 3016 64.9904 1335.56 443.078
1287 0 219.156 12.1375 2660 67.1541 1335.78 438.746
1288 0 223.205 12.2443 2733 67.2184 1334.66 435.252
1289 0 226.266 12.777 2891 66.1145 1335.41 434.936
1290 0 229.322 13.2216 3032 65.4337 1335.34 435.454
1291 0 229.392 13.7145 3146 64.583 1335.84 435.454
1292 0 230.328 12.734 2933 66.1568 1335.02 428.592
1293 0 238.253 14.5811 3474 63.4381 1334.65 430.502
1294 0 241.347 13.549 3270 64.1869 1333.85 438.785
1295 0 242.357 13.7566 3334 64.3002 1334.59 425.99
1296 0 243.49 13.1628 3205 65.0696 1335.1 426.511
1297 0 248.353 12.8929 3202 65.0696 1334.4 426.209
1298 0 252.308 13.6659 3448 63.8643 1334.25 424.02
1299 0 252.453 14.1294 3567 63.125 1334.7 422.424
1300 0 255.347 14.2668 3643 62.6945 1335 420.626
1301 0 255.316 13.3443 3407 64.1409 1334.9 418.467
1302 0 259.379 14.1338 3666 62.5003 1335.31 423.736
1303 0 262.206 13.1957 3460 64.1957 1334.31 417.927
1304 0 265.212 16.3265 4330 60.2852 1334.32 419.28
1305 0 266.23 14.5062 3862 62.0476 1335.37 413.627
1306 0 269.444 12.9266 3483 63.6141 1335.05 416.044
1307 0 271.322 13.8175 3749 62.6684 1335.46 414.82
1308 0 274.362 14.3314 3932 61.8227 1335.14 413.956
1309 0 274.597 13.671 3754 62.8881 1334.88 403.083
1310 0 280.404 14.6753 4115 61.1332 1335.02 412.822
1311 0 279.325 13.819 3860 62.0811 1335.4 407.568
1312 0 284.403 16.3606 4653 59.2628 1335.32 408.358
1313 0 285.456 14.2894 4079 61.9519 1335.24 403.704
1314 0 288.376 15.5804 4493 59.9775 1335.26 405.988
1315 0 290.372 14.6467 4253 60.8356 1335.02 400.468
1316 0 291.516 13.5739 3957 62.0778 1334.81 404.71
1317 0 294.561 15.0325 4428 60.5673 1334.87 396.913
1318 0 296.312 14.7749 4378 60.3639 1334.88 403.992
1319 0 301.365 16.3556 4929 58.6113 1335.25 399.321
1320 0 301.274 14.3391 4320 60.7069 1335.17 398.555
1321 0 305.572 14.8574 4540 60.2896 1335.53 395.257
1322 0 307.433 13.5509 4166 61.8769 1335.09 393.438
1323 0 311.459 17.0295 5304 58.3454 1334.29 386.933
1324 0 313.429 16.2971 5108 58.8645 1334.84 393.906
1325 0 312.283 17.1255 5348 57.894 1334.9 390.295
1326 0 315.318 16.2122 5112 58.8132 1335.09 388.138
1327 0 316.48 16.7467 5300 57.8966 1334.87 389.26
1328 0 318.569 18.0558 5752 56.142 1335.3 379.707
1329 0 324.43 19.243 6243 54.9121 1335.25 383.562
1330 0 322.584 16.8545 5437 57.5019 1335.41 379.615
1331 0 327.351 20.3665 6667 53.9024 1335.09 378.664
1332 0 328.531 18.0561 5932 56.3705 1334.89 378.777
1333 0 329.492 17.9246 5906 56.4389 1334.67 382.95
1334 0 331.503 16.6454 5518 57.8847 1335.49 380.147
1335 0 333.567 18.8898 6301 55.7824 1335.61 376.206
1336 0 334.402 18.3282 6129 56.0258 1336.02 372.37
1337 0 337.776 17.553 5929 56.7328 1335.45 372.497
1338 0 338.502 17.7517 6009 56.637 1335.19 379.124
1339 0 341.433 20.5077 7002 53.8827 1334.7 370.69
1340 0 343.459 17.5392 6024 56.6489 1334.89 372.87
1341 0 343.425 14.9407 5131 59.5258 1335.09 365.162
1342 0 346.563 19.0557 6604 54.8748 1335.25 380.13
1343 0 345.617 15.9483 5512 58.434 1334.75 365.523
1344 0 350.4 20.4395 7162 53.4443 1335.11 369.906
1345 0 351.517 18.0361 6340 56.329 1334.27 356.05
1346 0 353.593 16.4794 5827 57.9959 1334.18 363.822
