time division length width area intensity CMx CMy
0 0 60.0733 12.5014 751 66.775 432.458 443.75
1 0 62.0689 12.7117 789 66.7161 432.289 441.094
2 0 64.209 13.9233 894 65.0861 432.564 439.877
3 0 63.0937 10.9837 693 69.3535 432.156 443.394
4 0 67.0678 12.7483 855 66.8749 432.298 440.096
5 0 69.096 13.995 967 65.3268 431.944 439.816
6 0 70.0797 13.1707 923 66.662 431.683 440.412
7 0 73.2339 13.177 965 66.4756 430.755 438.577
8 0 76.1258 13.1099 998 66.7204 430.935 436.378
9 0 79.1179 14.3583 1136 64.9401 431.018 437.557
10 0 81.2374 13.8237 1123 65.9323 431.333 434.786
11 1 41.0751 11.5885 476 67.9265 431.145 453.876
12 0 43.0368 10.6653 459 69.9869 430.919 453.229
13 0 45.0913 13.7942 622 65.6158 430.611 453.543
14 0 45.1174 12.8997 582 67.5808 430.959 450.99
15 0 47.1837 12.6527 597 67.7353 430.588 453.106
16 0 49.0695 12.6555 621 67.7536 430.802 450.878
17 0 51.0586 12.6521 646 67.0062 430.039 451.906
18 0 53.137 12.4396 661 67.888 430.389 449.646
19 0 54.1472 13.4818 730 67.4603 430.575 447.708
20 0 55.0488 13.5879 748 67.6711 430.691 448.184
21 0 56.1482 13.215 742 68.6334 430.323 446.964
22 0 57.1 13.2749 758 68.7625 430.418 446.311
23 0 60.0987 12.9454 778 69.6131 430.63 444.514
24 0 62.161 13.5133 840 68.6155 430.669 445.405
25 0 63.147 12.9064 815 69.7571 429.816 444.881
26 0 66.0993 13.2982 879 69.4369 429.973 443.532
27 0 65.1697 13.8868 905 69.979 430.102 441.114
28 0 70.1032 14.3503 1006 68.1779 429.829 441.654
29 0 72.067 12.197 879 71.6962 429.975 440.482
30 0 75.248 15.2562 1148 67.2117 430.535 440.288
31 0 74.1525 12.9193 958 71.548 430.222 438.458
32 0 76.1876 13.493 1028 70.8161 429.986 439.157
33 0 80.1274 14.4145 1155 69.3221 429.59 436.211
34 0 81.0771 12.6423 1025 72.3239 429.193 435.32
35 0 87.2138 15.1811 1324 67.6473 429.091 436.347
36 0 90.1781 15.1256 1364 67.5499 429.779 437.073
37 0 93.2545 16.589 1547 66.8953 429.866 432.429
38 1 51.1354 13.4154 686 69.9898 430.318 451.797
39 0 52.1033 12.0338 627 71.882 430.748 451.241
40 0 52.0651 13.5215 704 71.0795 430.447 449.45
41 0 54.1052 13.252 717 69.9135 430.42 452.52
42 0 57.213 13.1614 753 70.5803 430.457 450.159
43 0 58.2061 14.3627 836 69.8158 429.984 448.348
44 0 60.1427 13.5012 812 71.4704 430.286 447.501
45 0 62.1468 11.859 737 72.7164 430.605 449.035
46 0 65.1692 14.9611 975 69.2267 429.972 445.153
47 0 66.1624 14.0261 928 70.1433 430.349 446.514
48 0 68.3351 14.3557 981 70.0449 430.646 444.766
49 0 68.2239 12.8841 879 73.1354 430.714 442.069
50 0 72.1033 13.6748 986 71.6694 430.826 442.066
51 0 71.1436 12.8754 916 74.0535 430.67 437.81
52 0 75.3186 13.9275 1049 71.1544 430.636 440.113
53 0 78.1881 13.4547 1052 71.9743 430.857 437.011
54 0 80.35 13.9515 1121 71.545 430.806 437.175
55 1 44.0319 11.6279 512 72.8652 430.828 455.078
56 0 44.0413 10.581 466 73.9807 430.899 456.483
57 0 46.0477 11.7921 543 72.9613 430.512 454.657
58 0 47.0429 12.9244 608 71.3322 430.118 454.089
59 0 46.0294 10.9713 505 74.9307 430.164 454.093
60 0 48.1945 11.6403 561 73.8235 429.715 453.036
61 0 50.0936 12.4367 623 72.5939 429.764 450.581
62 0 53.1057 13.5202 718 69.766 429.524 451.157
63 0 56.0701 13.3048 746 69.7828 429.559 450.31
64 0 56.0384 12.5628 704 71.0625 430.354 450.545
65 0 58.0349 13.3196 773 69.696 430.194 449.202
66 0 58.0929 11.7742 684 71.4401 430.763 450.247
67 0 61.117 14.0059 856 68.5479 430.651 447.612
68 0 63.0729 12.113 764 71.017 429.58 446.658
69 0 67.1261 15.4634 1038 65.4875 429.563 444.834
70 0 65.1253 11.0863 722 72.5914 429.903 446.145
71 0 66.0468 11.3102 747 72.6345 429.582 442.659
72 0 70.0953 11.6698 818 71.5623 429.917 441.262
73 0 74.0598 13.0705 968 69.2211 429.807 440.759
74 0 76.167 12.1312 924 70.5065 429.43 439.168
75 0 79.1793 11.5308 913 70.9288 429.757 439.226
76 1 43.1658 10.6102 458 70.1135 429.819 456.286
77 0 44.0574 10.1913 449 70.6592 429.483 457.236
78 0 45.0693 10.6503 480 71.3167 429.485 454.86
79 0 48.2187 11.7797 568 68.6197 429.373 454.627
80 0 49.1542 10.2941 506 71.8854 429.955 451.433
81 0 53.0882 11.7729 625 68.8352 430.026 452.066
82 0 52.1161 11.3784 593 69.9562 429.18 451.278
83 0 54.0952 11.0361 597 70.6985 429.219 451.106
84 0 56.2311 11.8084 664 69.625 429.327 449.733
85 0 58.1254 11.0279 641 70.9688 429.239 448.173
86 0 58.1407 11.6958 680 70.4368 429.804 447.791
87 0 62.0934 12.5617 780 68.6141 429.913 447.618
88 0 62.1755 12.336 767 69.3911 429.703 446.507
89 0 65.1127 13.4536 876 68.1313 429.048 442.969
90 0 66.1953 12.1761 806 69.8883 429.983 443.634
91 0 70.0806 11.7579 824 70.3143 429.529 441.924
92 0 71.1292 12.5687 894 68.8848 429.669 442.464
93 0 75.1614 11.5485 868 70.0392 429.513 440.907
94 0 75.0982 12.0242 903 70.1152 429.666 438.297
95 0 77.16 12.0788 932 70.1159 429.619 439.982
96 0 79.1317 11.1965 886 72.0034 429.828 435.08
97 0 83.0968 13.0811 1087 69.4259 429.556 435.121
98 0 85.1765 12.4448 1060 70.3396 429.179 436.357
99 0 91.2039 12.938 1180 69.2992 429.042 433.062
100 0 91.1377 12.1026 1103 71.1804 429.121 433.549
101 1 48.1384 9.22341 444 73.1149 429.34 454.975
102 0 49.1066 8.79719 432 75.3912 429.417 452.678
103 0 53.1064 11.0156 585 72.7299 429.169 451.156
104 0 55.0882 10.6919 589 72.8659 429.769 452.336
105 0 55.1306 11.8446 653 72.2833 429.375 450.801
106 0 56.226 11.0447 621 74.4251 429.391 449.799
107 0 58.0903 14.0815 818 70.4267 430.319 447.803
108 0 59.1802 12.3014 728 73.2225 429.316 447.276
109 0 63.1523 11.8285 747 73.3373 429.664 447.051
110 0 64.1955 12.68 814 72.8256 428.64 446.104
111 0 66.2496 11.7284 777 74.6911 429.237 444.385
112 0 68.0823 12.5436 854 73.856 429.783 442.877
113 0 70.0655 12.5597 880 73.3784 429.649 442.318
114 0 74.1447 13.2039 979 71.8458 429.789 441.821
115 0 75.2073 14.7459 1109 70.0766 430.481 439.799
116 0 77.1349 13.457 1038 71.8642 429.299 438.899
117 0 79.0951 12.5545 993 73.3444 429.624 437.611
118 0 82.1552 13.1337 1079 71.9768 429.753 436.858
119 0 84.1451 13.7025 1153 71.5785 428.918 434.63
120 0 89.1308 13.9458 1243 70.5261 429.213 435.241
121 1 44.0236 10.6761 470 74.1532 429.762 454.194
122 0 46.1449 10.7921 498 74.8795 429.532 453.673
123 0 47.0844 11.7236 552 73.2536 429.649 453.212
124 0 47.0929 11.2543 530 74.6283 428.957 452.647
125 0 50.0418 12.1698 609 73.6338 429.42 450.13
126 0 51.1561 11.9047 609 73.266 429.729 452.126
127 0 54.0638 11.5974 627 73.8198 429.51 451.163
128 0 54.037 11.4181 617 74.7942 429.571 449.089
129 0 55.1073 10.7971 595 75.8605 430.543 448.017
130 0 58.1355 12.1785 708 73.1088 429.948 447.61
131 0 62.0525 12.7311 790 71.438 429.634 446.795
132 0 58.1443 10.216 594 77.303 429.768 445.143
133 0 64.2396 12.1109 778 72.563 430.069 445.835
134 0 62.0555 11.3447 704 75.5156 430.822 444.163
135 0 66.0923 11.953 790 73.8025 430.859 442.219
136 0 66.1146 11.6616 771 74.6368 430.719 441.987
137 0 71.1623 12.3942 882 72.4751 431.099 441.845
138 0 73.0366 13.0756 955 71.6555 430.691 439.91
139 0 73.0903 12.1494 888 73.4448 430.061 438.43
140 0 78.1402 12.0041 938 73.1087 429.888 439.761
141 0 79.3261 12.2784 974 72.3193 429.85 440.194
142 0 80.1499 11.5658 927 74.9493 430.175 434.9
143 0 84.1167 12.4113 1044 72.9473 430.281 435.405
144 1 43.132 8.97246 387 70.2093 430.966 457.77
145 0 44.0261 10.1985 449 69.8909 430.401 454.512
146 0 44.0502 10.3064 454 70.0969 430.923 456.203
147 0 47.0988 10.4886 494 70.583 430.63 453.694
148 0 47.118 11.5879 546 69.5311 430.773 452.993
149 0 48.0813 10.8358 521 71.4702 430.217 452.226
150 0 51.0187 11.6624 595 70.084 430.319 450.022
151 0 49.0272 10.7083 525 72.8095 430.625 449.756
152 0 52.0388 10.4153 542 72.6919 430.945 450.541
153 0 53.1017 10.8283 575 72.1113 431.007 450.797
154 0 56.1024 11.8355 664 71.3976 431.483 448.315
155 0 57.0444 11.6576 665 71.1263 431.313 449.156
156 0 59.0533 10.9731 648 71.5448 430.918 448.394
157 0 60.1942 10.6655 642 73.1776 429.991 445.098
158 0 61.1614 11.7721 720 71.375 429.833 446.018
159 0 62.1416 10.1059 628 73.543 430.135 446.449
160 0 66.1627 11.502 761 70.6675 429.633 444.657
161 0 65.2105 11.5012 750 72.2813 429.548 440.953
162 0 71.124 12.204 868 68.9643 430.317 444.82
163 0 74.129 11.8172 876 69.5228 430.814 442.623
164 0 75.2455 12.3861 932 69.3863 430.237 439.486
165 0 75.2302 10.767 810 72.1457 430 440.736
166 0 78.1164 11.9437 933 70.1329 430.197 438.644
167 1 40.2141 8.82775 355 70.2986 430.341 459.563
168 0 42.2809 8.96386 379 70.1135 430.393 458.821
169 0 41.1176 9.80115 403 70 429.645 456.112
170 0 42.1303 9.06711 382 71.0759 430.154 457.039
171 0 44.143 9.87698 436 70.6995 430.479 454.904
172 0 46.1563 9.74949 450 70.6089 430.516 454.382
173 0 47.2458 10.7311 507 69.4418 430.089 455.016
174 0 50.1392 11.867 595 67.5513 429.897 452.476
175 0 50.2466 10.8067 543 69.6022 429.215 451.998
176 0 50.1898 11.2772 566 69.6784 429.664 452.277
177 0 50.2186 10.5539 530 70.2642 429.502 452.596
178 0 52.1757 10.9246 570 69.6825 429.025 451.421
179 0 56.3562 12.2081 688 67.1904 429.009 449.182
180 0 56.2788 10.2525 577 70.6898 428.652 449.007
181 0 56.2467 10.2762 578 70.526 427.879 449.462
182 0 59.2915 10.3388 613 70.0294 427.896 448.37
183 0 60.2969 10.2659 619 70.2068 428.331 448.83
184 0 61.2689 10.103 619 70.5848 428.464 448.336
185 0 62.0756 11.341 704 69.4247 428.206 444.369
186 0 64.1683 11.0023 706 69.7564 428.89 445.404
187 0 66.3742 11.4201 758 69.2401 429.075 444.466
188 0 68.2317 12.0618 823 67.8906 428.855 442.31
189 0 72.2351 11.8502 856 67.3178 429.072 443.742
190 0 70.3068 10.4542 735 70.8544 429.261 442.554
191 0 74.5213 10.1582 757 70.3989 429.432 443.036
192 0 76.2411 10.8734 829 68.9843 429.667 442.873
193 0 78.3138 11.7221 918 69.0185 429.803 438.613
194 0 79.3452 12.0108 953 68.5519 429.91 440.594
195 1 42.2708 9.51012 402 71.1194 430.177 457.731
196 0 44.3219 10.7396 476 69.6429 430.548 456.71
197 0 47.3808 9.66636 458 70.952 429.91 455.642
198 0 46.2203 10.1254 468 71.4893 430.374 454.654
199 0 48.3251 9.51886 460 72.4239 429.861 454.333
200 0 49.2166 10.1185 498 72.1024 430.048 452.837
201 0 51.1726 9.94674 509 69.4028 430.466 452.839
202 0 50.1093 9.00032 451 71.6053 430.723 453.508
203 0 51.0773 11.1204 568 69.6849 430.114 448.336
204 0 55.1774 10.4209 575 69.3026 430.466 453.237
205 0 55.1087 11.2142 618 69.9563 430.243 450.028
206 0 57.0479 10.9382 624 70.2244 430.046 450.296
207 0 58.2678 10.7778 628 70.621 429.852 447.172
208 0 59.1068 11.3862 673 68.9391 430.256 447.053
209 0 58.0611 10.11 587 72.6899 430.264 444.426
210 0 60.1025 10.948 658 71.3146 430.129 442.392
211 0 64.1108 12.1976 782 68.1164 429.583 443.253
212 0 66.1042 12.5257 828 68.4179 429.651 439.89
213 0 66.0641 11.2164 741 70.8232 429.749 441.516
214 0 69.1413 11.8887 822 69.9951 429.708 439.47
215 0 73.0766 12.179 890 69.0865 429.496 438.087
216 0 74.1051 12.1179 898 69.3352 429.638 438.941
217 0 76.1646 11.9741 912 69.625 429.704 438.818
218 0 77.1593 12.053 930 70.1075 429.301 435.43
219 0 78.0793 11.7701 919 70.3243 429.015 433.524
220 1 41.0479 9.18439 377 71.4934 428.889 453.798
221 0 42.0413 10.014 421 69.9287 428.458 453.819
222 0 42.0816 10.5272 443 69.8826 428.765 452.77
223 0 46.0569 12.8754 593 66.4199 428.535 449.58
224 0 45.0185 10.7956 486 69.5658 429.642 449.735
225 0 45.0605 10.9409 493 70.071 429.467 448.866
226 0 47.0426 10.4161 490 70.1918 429.698 449.5
227 0 50.0612 10.1276 507 69.998 429.006 449.047
228 0 49.0449 10.521 516 70.3372 429.091 447.822
229 0 50.0398 11.291 565 69.1788 428.804 445.646
230 0 52.0234 10.9374 569 68.1845 428.552 446.617
231 0 53.1904 10.8666 578 68.609 428.433 442.739
232 0 53.1225 10.5981 563 69.2309 428.236 445.97
233 0 55.1164 11.7751 649 67.0817 429.122 445.757
234 0 57.0602 11.1461 636 68.0582 429.316 443.009
235 0 58.1224 11.0629 643 68.2659 429.401 444.205
236 0 61.171 10.7077 655 68.0275 429.16 443.812
237 0 61.249 10.9716 672 67.7217 429.632 442.518
238 0 61.1921 11.1779 684 68.1228 429.548 441.535
239 0 62.1691 10.7127 666 68.9324 429.347 439.818
240 0 66.2711 12.3734 820 66.3415 428.952 437.03
241 0 69.1253 11.8046 816 66.652 429.105 436.199
242 0 72.134 12.8372 926 64.9633 428.972 437.069
243 0 71.2554 10.722 764 68.3508 428.664 435.178
244 0 73.1121 11.0926 811 68.2256 428.797 434.746
245 0 78.0403 12.8395 1002 65.1906 428.891 433.094
246 0 81.1798 12.3183 1000 65.347 429.186 434.132
247 1 44.1087 10.2247 451 66.8315 428.761 451.109
248 0 43.093 9.76957 421 68.6746 428.651 449.499
249 0 46.1375 10.1436 468 68.0342 428.551 446.746
250 0 48.0706 10.4222 501 66.7285 428.762 447.445
251 0 49.0586 11.6595 572 65.1451 428.997 448.18
252 0 50.1052 11.6555 584 65.5925 429.243 446.486
253 0 52.1459 11.2185 585 65.6376 428.894 446.361
254 0 53.198 11.2222 597 65.4975 428.677 447.35
255 0 53.0962 10.8859 578 66.8651 428.647 444.763
256 0 57.0726 11.6518 665 65.1684 428.695 443.994
257 0 54.0731 10.6337 575 67.513 428.906 442.826
258 0 60.112 11.9776 720 64.1819 429.128 443.739
259 0 59.1285 12.2445 724 64.895 429.192 440.684
260 0 62.0855 10.9204 678 65.7965 429.195 440.572
261 0 65.0646 12.111 788 63.6053 429.39 442.411
262 0 67.1022 11.2068 752 64.5332 429.084 437.953
263 0 68.1654 12.3523 842 63.0629 429.213 437.869
264 0 70.1205 12.6496 887 62.6888 428.991 438.034
265 0 71.1395 11.5266 820 64.5488 429.856 435.851
266 0 73.2973 12.0878 886 63.8725 429.901 437.223
267 0 77.184 12.2953 949 62.7387 429.375 436.171
268 0 77.1847 10.8571 838 65.099 429.582 433.646
269 0 82.2231 11.5661 951 63.715 430.449 432.205
270 0 81.3275 12.1238 986 63.1714 430.1 432.312
271 0 82.2238 10.6295 874 65.7906 429.881 426.166
272 0 88.1449 10.8117 953 64.7503 429.976 428.859
273 1 47.2309 8.13028 384 66.9818 429.74 447.909
274 0 50.1952 10.8775 546 64.707 430.073 445.196
275 0 50.1219 10.7338 538 64.9033 429.589 444.892
276 0 54.1809 12.4952 677 62.483 429.725 443
277 0 54.0686 12.2807 664 63.0723 429.464 442.983
278 0 56.1576 10.2034 573 66.0262 428.956 441.81
279 0 58.2263 11.7816 686 64.2362 428.684 441.676
280 0 59.1374 11.5494 683 64.3602 429.344 441.246
281 0 62.1136 11.479 713 64.2735 428.679 441.01
282 0 63.0913 10.8256 683 65.7482 428.618 439.001
283 0 65.0669 10.7582 700 65.8229 429.104 437.683
284 0 66.0615 10.6719 705 66.2397 428.946 439.088
285 0 68.0721 11.3997 776 65.768 429.394 436.041
286 0 70.057 10.7198 751 66.1345 429.072 439.312
287 0 73.0759 12.5212 915 64.4601 429.969 434.439
288 0 76.0964 13.1281 999 63.6677 429.298 434.634
289 0 78.0959 11.4987 898 65.9521 429.641 433.705
290 0 78.1794 10.3352 808 67.6795 429.198 432.614
291 0 81.0884 10.9263 886 67.5 429.778 432.668
292 1 46.0259 10.6896 492 66.502 429.945 450.222
293 0 48.053 11.4665 551 66.3721 430.229 448.949
294 0 49.0402 11.7862 578 66.0796 430.166 448.623
295 0 53.0662 12.1923 647 64.6847 429.668 447.536
296 0 53.0778 11.8128 627 65.1037 429.566 447.612
297 0 56.1778 12.3714 695 64.6144 429.447 444.02
298 0 57.1393 12.7758 730 64.3041 429.323 442.816
299 0 59.064 11.6484 688 65.5567 429.285 444.474
300 0 61.1403 11.5472 706 65.0042 429.041 443.88
301 0 62.0682 11.3101 702 64.7635 429.895 443.623
302 0 66.1308 11.7948 780 64.2385 429.785 439.964
303 0 67.0562 12.2584 822 63.5122 430.478 440.96
304 0 67.1328 11.5294 774 64.8114 430.57 440.043
305 0 69.1278 12.6722 876 63.387 430.397 437.414
306 0 71.1628 12.352 879 63.7759 429.314 436.947
307 0 73.0284 11.4202 834 65.0839 429.651 435.745
308 0 77.1839 13.6039 1050 61.46 429.461 435.908
309 0 77.1709 10.9368 844 64.9123 429.527 436.454
310 0 81.1688 11.9381 969 63.7059 429.361 433.932
311 0 81.1695 11.5807 940 64.4181 428.521 435.088
312 1 46.0189 12.8643 592 60.978 429.535 452.392
313 0 47.1267 11.2251 529 63.448 430.461 452.777
314 0 49.0808 12.7952 628 62.1242 430.123 449.803
315 0 50.0931 11.3788 570 63.6 429.835 448.975
316 0 51.0813 11.6873 597 63.8141 429.005 445.908
317 0 55.1704 13.1048 723 60.8617 428.787 445.952
318 0 55.0281 12.0666 664 62.7018 428.063 443.616
319 0 55.1537 11.4407 631 63.5658 428.339 441.555
320 0 59.2208 12.2254 724 62.5014 428.16 440.682
321 0 59.0953 11.6253 687 63.4134 428.53 442.642
322 0 62.0855 12.6922 788 62.1954 429.515 442.572
323 0 63.0964 12.1085 764 63.2893 429.406 440.916
324 0 65.0511 12.5593 817 62.6304 429.731 440.985
325 0 67.1601 13.0583 877 62.2953 429.761 436.648
326 0 70.0842 11.3863 798 64.0915 429.023 435.066
327 0 71.2065 10.8417 772 64.6995 429.126 436.47
328 0 75.1582 13.0125 978 61.9254 429.483 436.095
329 0 74.0928 10.5813 784 65.6913 429.255 434.046
330 0 80.1649 11.9254 956 63.4864 429.669 434.618
331 0 80.0973 12.0104 962 63.9854 429.861 430.54
332 0 82.131 13.4785 1107 63.0958 430.068 428.815
333 0 85.1641 12.0591 1027 64.481 430.394 431.242
334 0 89.086 11.5506 1029 64.9485 429.653 432.069
335 0 91.0798 12.3847 1128 64.5151 429.809 429.876
336 1 50.0395 11.7507 588 65.1429 429.697 448.386
337 0 52.0438 11.4135 594 66.1599 430.044 448.264
338 0 50.0554 10.4484 523 68.7151 429.252 447.256
339 0 56.1147 12.1359 681 65.2129 429.047 446.054
340 0 55.0513 11.3531 625 67.296 429.309 447.126
341 0 57.0884 12.0515 688 66.7558 429.275 445.552
342 0 60.0862 12.7317 765 66.5451 429.642 443.463
343 0 61.0901 11.9659 731 67.1765 429.782 443.702
344 0 64.0301 12.6659 811 66.4143 429.522 441.29
345 0 67.0945 14.0995 946 64.5655 429.635 439.067
346 0 67.1233 12.9165 867 66.5698 429.928 439.692
347 0 69.1175 12.1677 841 67.9524 429.515 437.151
348 0 70.1058 12.7522 894 67.7819 429.05 436.613
349 0 71.0628 11.0325 784 70.2755 429.365 436.296
350 0 74.0612 12.9487 959 67.7247 429.002 433.337
351 0 75.0629 10.711 804 70.9403 428.929 431.621
352 0 77.0942 10.3769 800 71.6162 428.674 429.534
353 0 75.0526 10.486 787 71.9822 428.183 427.255
354 0 72.0819 6.15966 444 76.7072 428.77 417.097
355 1 51.0483 10.3627 529 68.4216 429.193 448.38
356 0 54.0522 11.0079 595 67.6655 430.049 449.551
357 0 53.2583 11.172 595 67.558 429.948 449.709
358 0 54.0963 14.4927 784 62.9974 429.352 449.726
359 0 54.0892 11.5735 626 68.246 428.856 448.109
360 0 55.2421 10.0829 557 70.4129 429.325 447.447
361 0 58.0692 11.5207 669 68.6099 429.532 446.253
362 0 61.2328 13.4078 821 65.9001 429.817 445.123
363 0 64.2014 12.305 790 67.4076 430.57 445.905
364 0 64.198 11.9318 766 67.842 430.307 446.129
365 0 67.1307 14.1515 950 64.9126 429.587 443.329
366 0 69.1447 12.7125 879 67.0717 430.207 442.331
367 0 69.1319 13.0041 899 67.4661 430.321 438.675
368 0 73.1148 11.8854 869 67.7514 430.117 441.394
369 0 74.0776 13.2564 982 66.4073 429.876 437.801
370 0 79.107 12.363 978 66.7863 429.425 437.952
371 0 78.0603 11.568 903 68.6246 430.1 436.888
372 0 82.1086 12.6174 1036 67.0618 429.52 432.401
373 0 82.0654 12.5997 1034 68.1141 429.815 431.473
374 0 88.0697 12.5809 1108 67.2861 429.552 430.948
375 0 91.0648 12.1342 1105 68.2597 429.909 428.491
376 1 51.0314 11.4831 586 68.7167 430.439 443.828
377 0 54.1285 10.549 571 69.0263 430.366 445.063
378 0 55.1163 12.0835 666 68.1532 429.908 442.652
379 0 59.1288 12.9209 764 66.699 429.819 441.747
380 0 62.0991 11.8359 735 67.7429 429.339 441.253
381 0 62.0445 12.4588 773 66.6908 429.409 439.508
382 0 66.1664 11.8338 783 67.2465 429.383 439.05
383 0 67.0656 13.2258 887 65.4566 429.467 437.959
384 0 67.1035 11.2811 757 68.2734 429.285 437.476
385 0 70.0554 12.9183 905 65.9669 429.91 433.842
386 0 70.0592 11.162 782 68.7788 429.93 433.251
387 0 75.106 11.77 884 66.6165 429.731 434.759
388 0 76.0467 11.8743 903 67.2403 429.138 430.121
389 0 80.0673 13.1389 1052 64.904 429.56 429.556
390 0 84.2185 13.0731 1101 64.4487 429.9 431.043
391 0 86.0878 12.8706 1108 64.556 429.901 430.049
392 0 87.1469 13.2076 1151 64.8671 429.51 428.194
393 0 88.2039 12.0403 1062 66.7721 429.926 426.288
394 0 92.178 12.9966 1198 64.7905 429.972 426.174
395 0 93.1619 11.6679 1087 66.885 429.976 424.409
396 0 95.0876 11.9258 1134 66.7584 428.743 423.409
397 0 102.143 12.5608 1283 65.5113 429.274 421.098
398 0 105.1 12.7688 1342 65.0849 429.25 421.882
399 0 106.106 11.8843 1261 67.088 428.481 415.883
400 0 111.251 14.1572 1575 63.8527 429.054 416.576
401 0 113.257 12.2995 1393 66.1622 429.038 416.236
402 1 70.065 11.8461 830 66.4361 429.406 434.887
403 0 75.1776 12.3973 932 65.2586 429.069 435.258
404 0 76.1075 10.9056 830 67.0735 428.251 434.578
405 0 79.0847 11.6205 919 67.099 428.841 431.738
406 0 82.0556 12.3818 1016 65.9301 428.492 430.501
407 0 85.063 12.1557 1034 65.9323 428.779 431.196
408 0 86.1156 13.2496 1141 65.3804 428.876 427.649
409 0 90.0695 13.3453 1202 64.3436 429.053 430.367
410 0 92.1427 12.0031 1106 66.4051 429.217 428.675
411 0 94.1923 11.657 1098 67.3024 429.471 427.597
412 0 99.1693 13.4215 1331 64.8137 429.989 425.652
413 0 101.066 13.4664 1361 65.1999 429.239 423.057
414 0 104.101 12.6031 1312 66.5061 429.59 422.518
415 0 107.088 14.7169 1576 64.0133 429.758 419.166
416 0 111.186 13.311 1480 65.8243 429.799 418.317
417 0 116.093 13.6097 1580 65.1297 429.814 419.563
418 0 119.144 13.3536 1591 66.2665 429.565 415.695
419 0 122.177 12.7765 1561 67.214 429.726 414.216
420 0 122.204 12.25 1497 69.2298 428.986 408.719
421 0 128.246 12.5696 1612 68.7978 429.148 408.436
422 0 134.256 15.0384 2019 65.4205 429.032 405.045
423 1 79.0805 12.1522 961 66.4204 429.63 434.367
424 0 84.2046 12.6953 1069 65.0281 429.601 435.822
425 0 85.2703 12.091 1031 66.9418 429.399 432.423
426 0 88.1004 12.8263 1130 66.7221 428.552 429.904
427 0 90.0866 12.932 1165 67.0155 428.567 427.654
428 0 96.1295 13.3154 1280 65.6016 428.945 426.727
429 0 96.1408 11.5248 1108 68.2726 428.652 425.547
430 0 100.132 11.2452 1126 69.0622 428.542 423.291
431 0 103.211 11.7914 1217 68.1191 428.52 422.85
432 0 108.166 13.9415 1508 65.5723 428.271 419.17
433 0 110.072 12.2919 1353 67.5824 428.273 418.449
434 0 114.099 11.4287 1304 68.6166 428.464 417.596
435 0 118.16 13.1686 1556 66.5649 428.77 414.793
436 0 122.155 12.3695 1511 67.8981 429.12 413.841
437 0 125.199 12.3084 1541 68.7398 429.446 409.651
438 0 127.078 13.3068 1691 68.0514 429.446 404.983
439 0 134.224 12.576 1688 68.7322 429.333 405.719
440 0 138.137 13.5373 1870 67.3813 429.568 405.173
441 0 142.151 12.9932 1847 68.2231 429.661 404.089
442 1 72.0652 11.8226 852 63.4331 429.823 436.793
443 0 74.0826 10.3398 766 64.1514 429.693 439.346
444 0 77.1257 12.8232 989 61.9515 428.731 434.807
445 0 80.1293 11.8558 950 64.2221 429.122 434.424
446 0 83.0463 11.0902 921 65.317 429.249 431.765
447 0 85.1231 10.8314 922 64.5933 429.624 435.08
448 0 86.1104 11.0323 950 65.5495 429.249 430.457
449 0 88.234 10.7102 945 65.9608 429.14 429.874
450 0 92.0922 10.1529 935 66.4075 429.565 429.543
451 0 96.1254 10.5383 1013 65.1885 429.232 430.389
452 1 54.0745 10.467 566 62.8905 429.574 447.583
453 0 55.0432 9.93764 547 63.6837 429.673 448.152
454 0 59.1569 9.66921 572 63.2325 429.516 447.226
455 0 59.1209 10.8591 642 62.5 429.411 447.008
456 0 60.1075 9.9322 597 64.2864 429.042 444.275
457 0 61.1745 9.88974 605 64.7835 429.38 442.283
458 0 65.148 10.2229 666 63.9505 429.128 440.826
459 0 67.1969 11.0868 745 62.9718 429.451 441.251
460 0 66.155 10.7324 710 64.3338 429.451 439.701
461 0 71.1545 11.0745 788 63.2754 429.393 438.954
462 0 70.1713 9.00654 632 66.7104 429.226 438.093
463 0 74.1389 10.6692 791 64.7901 429.381 434.611
464 0 74.104 11.6998 867 63.6482 429.385 435.627
465 0 76.1692 10.7261 817 65.1603 429.569 434.149
466 0 76.0688 10.898 829 65.4946 429.255 430.364
467 0 83.1418 11.1737 929 63.7212 429.896 434.744
468 0 86.1239 11.5415 994 63.4678 429.585 429.943
469 0 86.0558 9.9238 854 65.2904 428.762 430.693
470 0 89.1544 11.0258 983 63.3449 428.805 430.465
471 0 91.19 10.6371 970 64.334 428.676 426.224
472 0 95.2017 10.8927 1037 64.2266 428.149 422.513
473 0 100.224 11.594 1162 62.6162 427.622 422.891
474 1 56.0782 9.96822 559 62.864 427.995 441.34
475 0 58.1187 9.15367 532 62.1692 427.962 444.485
476 0 61.1301 9.84785 602 62.0282 427.832 440.945
477 0 62.1533 9.13869 568 63.831 428.532 442.435
478 0 67.1192 11.3529 762 60.4344 428.623 440.965
479 0 66.1071 9.48461 627 63.4769 429.381 440.278
480 0 67.1303 11.1276 747 61.3481 428.665 438.928
481 0 69.1241 9.62038 665 63.4165 428.645 433.794
482 0 75.1682 12.6782 953 58.788 428.774 437.149
483 0 74.0482 10.7903 799 61.7171 429.322 434.976
484 0 77.1375 12.5879 971 59.4459 429.199 431.992
485 0 78.0772 11.0275 861 60.813 429.109 433.268
486 0 82.1571 11.1615 917 59.9248 429.16 432.667
487 0 82.0692 11.1369 914 61.0077 429.151 429.125
488 0 87.0844 12.1491 1058 59.1777 429.409 431.287
489 0 87.1733 10.9208 952 61.6176 429.404 426.519
490 0 90.094 10.4669 943 62.1527 428.731 428.887
491 0 93.0914 11.9775 1115 60.8798 429.074 428.179
492 0 95.1344 10.9004 1037 62.6085 428.954 424.126
493 0 99.1718 13.1287 1302 59.5822 428.472 421.114
494 1 56.0632 10.4882 588 61.3146 429.425 442.116
495 0 56.2317 10.8658 611 61.2275 429.214 439.989
496 0 58.0876 9.79555 569 62.2074 428.819 442.098
497 0 62.0226 12.4471 772 58.9443 428.293 438.89
498 0 62.0742 9.77862 607 62.1763 428.629 439.61
499 0 68.0979 11.4982 783 60.0587 428.543 438.312
500 0 68.219 10.4663 714 62.0322 427.761 438.097
501 0 70.0895 11.0716 776 61.393 427.193 437.72
502 0 71.0797 11.0721 787 61.925 427.59 437.23
503 0 76.1621 12.7229 969 58.7719 427.325 437.881
504 0 78.1074 11.5866 905 60.168 427.182 435.185
505 0 78.193 12.0343 941 60.509 427.355 431.426
506 0 82.0819 11.8297 971 60.1308 427.185 431.31
507 0 83.0858 8.85831 736 64.2554 427.74 426.511
508 0 88.0754 12.1941 1074 59.9339 428.032 429.953
509 0 89.0893 10.2369 912 61.4276 428.196 432.219
510 0 91.1314 11.6316 1060 60.4858 428.194 426.708
511 0 96.0802 10.9596 1053 61.0104 427.989 424.783
512 0 98.2638 9.90192 973 61.8438 428.238 425.961
513 0 100.107 10.7385 1075 61.4623 428.5 421.752
514 1 55.1417 11.552 637 60.6107 427.545 443.661
515 0 58.1011 11.9963 697 59.6413 427.494 441.829
516 0 59.0516 12.0911 714 59.7815 427.703 442.783
517 0 62.0682 10.6657 662 62.642 427.959 440.473
518 0 63.1083 12.0269 759 61.3412 428.203 441.344
519 0 65.1079 11.3657 740 62.977 427.369 437.351
520 0 68.097 12.8346 874 61.2563 427.78 438.684
521 0 68.1375 10.6549 726 64.6625 427.501 436.64
522 0 73.1338 12.2925 899 61.8954 427.176 437.436
523 0 74.1537 11.4222 847 63.647 427.407 435.116
524 0 76.258 12.2348 933 62.3869 427.04 434.102
525 0 78.1046 13.4307 1049 61.448 427.369 432.558
526 0 79.1066 12.0218 951 63.6036 427.941 431.381
527 0 81.1851 13.0073 1056 62.2074 427.714 430.799
528 0 82.0918 10.9268 897 65.3467 427.527 431.127
529 0 88.1824 13.37 1179 61.6539 428.003 427.922
530 0 87.1526 11.5544 1007 65.3863 427.447 425.359
531 0 91.0903 13.4153 1222 63.0728 427.7 424.403
532 0 92.2058 11.9732 1104 65.2926 427.629 422.078
533 1 46.0548 9.20641 424 66.5212 428.064 448.248
534 0 51.0876 9.10201 465 66.6129 427.714 446.288
535 0 52.1248 10.9353 570 64.9456 427.521 445.102
536 0 51.1631 10.2027 522 66.8372 427.672 444.314
537 0 54.0312 10.9196 590 66.2373 427.202 443.231
538 0 57.0667 12.1612 694 63.6787 428.346 444.965
539 0 58.1001 12.0826 702 64.7792 428.556 442.543
540 0 58.0113 10.3428 600 67.6083 428.652 441.803
541 0 63.0964 13.519 853 62.4607 428.604 441.683
542 0 61.1267 11.4189 698 67.1089 428.254 438.53
543 0 62.1824 9.82593 611 69.8314 427.696 437.9
544 0 67.1001 12.7571 856 65.4299 428.107 436.433
545 0 70.1516 12.359 867 65.737 427.659 436.167
546 0 72.1169 13.0344 940 64.8202 427.394 435.136
547 0 72.121 12.6593 913 66.3987 428.369 433.423
548 0 73.1304 12.6623 926 66.7343 428.149 433.414
549 0 76.1394 12.5165 953 66.4428 428.071 432.704
550 0 78.1702 12.6263 987 66.1925 428.379 432.127
551 0 81.0962 12.1954 989 66.6127 428.017 429.97
552 0 84.089 12.3441 1038 66.5568 428.103 428.312
553 0 86.1715 12.243 1055 66.5602 427.568 426.793
554 0 88.1494 10.9814 968 68.2417 427.911 427.959
555 1 50.0558 10.8879 545 65.3321 427.991 445.352
556 0 49.0476 12.3757 607 63.6392 427.638 445.753
557 0 50.0634 10.227 512 67.123 427.691 443.082
558 0 53.0305 11.0691 587 64.5264 427.32 446.559
559 0 53.0235 10.8631 576 66.0573 427.28 443.616
560 0 56.1125 11.9581 671 63.4709 427.483 444.987
561 0 58.063 11.0397 641 64.8487 427.207 442.855
562 0 57.0533 10.3587 591 66.6853 427.31 440.865
563 0 62.1723 12.2241 760 63.0263 427.274 440.337
564 0 62.1185 11.1561 693 65.7071 427.303 438.185
565 0 64.0732 11.5649 741 65.0715 427.414 439.432
566 0 65.18 10.4633 682 66.1891 426.96 440.757
567 0 66.0831 11.198 740 66.3095 426.616 436.608
568 0 65.0613 12.25 797 65.4931 426.617 435.881
569 0 70.1108 9.98419 700 67.4386 427.103 436.513
570 0 73.0808 11.672 853 65.1911 427.022 434.519
571 0 76.0886 11.3289 862 65.7645 426.676 435.549
572 0 76.0432 11.4409 870 66.4701 426.499 434.039
573 0 79.0644 11.2819 892 66.5482 426.646 431.715
574 0 79.0771 10.0788 797 68.9498 426.947 430.089
575 1 46.0406 11.7722 542 64.286 426.758 449.098
576 0 46.0613 10.2689 473 66.7526 426.624 446.372
577 0 49.1423 11.9042 585 65.1795 426.039 444.415
578 0 52.0406 11.4718 597 65.3367 426.551 445.771
579 0 53.0231 10.6935 567 66.6684 427.049 445.321
580 0 52.0324 11.3006 588 66.9269 428.046 443.94
581 0 56.179 11.3388 637 67.0471 428.579 442.496
582 0 57.0477 12.5158 714 65.5742 428.427 443.599
583 0 57.0287 11.0646 631 68.8447 428.227 440.971
584 0 61.1121 12.3543 755 66.902 428.335 439.899
585 0 63.0171 13.3932 844 65.4502 428.996 437.348
586 0 63.038 12.1514 766 68.1345 428.67 436.146
587 0 67.0491 10.9025 731 68.6785 428.425 438.144
588 0 67.2209 11.068 744 69.4395 428.276 435.194
589 0 71.0398 12.6267 897 66.9052 428.671 436.178
590 0 73.1792 12.1756 891 67.9461 429.028 433.334
591 0 74.1052 12.7387 944 67.2606 428.769 431.231
592 0 76.1204 11.8496 902 68.98 429.112 431.93
593 0 79.0697 11.0662 875 70.0491 428.758 430.832
594 0 81.2305 11.018 895 70.2503 428.958 430.706
595 1 46.029 10.4282 480 67.875 428.681 448.298
596 0 47.0891 9.95983 469 68.0171 428.891 448.791
597 0 47.0639 11.3888 536 67.1437 428.205 446.062
598 0 51.0915 12.9376 661 64.0106 428.44 446.694
599 0 51.0701 10.1821 520 67.7385 428.458 447.821
600 0 53.0671 11.1557 592 67.3953 428.441 445.032
601 0 56.0843 11.4471 642 67.2056 428.981 444.093
602 0 55.0736 11.9658 659 66.8938 428.58 443.95
603 0 56.044 11.7229 657 67.7489 428.562 443.035
604 0 60.0745 11.5024 691 68.013 428.153 441.252
605 0 60.0379 10.9264 656 68.7927 428.221 442.541
606 0 62.0341 12.2191 758 67.3734 428.441 440.818
607 0 65.0961 12.3202 802 67.1883 428.112 438.859
608 0 65.0893 12.2293 796 68.3405 428.783 436.786
609 0 67.1324 11.0975 745 69.4872 428.78 436.123
610 0 68.0755 11.8986 810 67.9704 428.604 437.177
611 0 70.0777 11.2875 791 68.7408 428.321 435.546
612 0 74.0651 12.7455 944 65.804 428.593 435.689
613 0 74.052 12.0051 889 67.5838 428.655 436.387
614 0 76.0447 10.7831 820 69.0915 428.454 434.557
615 0 78.0992 11.7799 920 67.8946 428.33 431.246
616 0 79.1603 11.1925 886 69.4537 428.712 430.817
617 0 82.1219 12.5301 1029 67.3304 428.332 429.626
618 0 83.2028 10.853 903 68.9524 428.322 433.198
619 0 88.2485 13.122 1158 66.1114 428.216 427.822
620 0 91.208 12.773 1165 65.8884 427.702 427.148
621 0 90.1675 11.1348 1004 68.5528 427.363 425.494
622 0 94.3451 10.4404 985 68.669 427.454 424.754
623 0 98.1453 12.4204 1219 65.2199 427.776 424.344
624 0 98.0776 10.9607 1075 67.4065 427.31 423.946
625 0 103.168 13.3084 1373 64.3736 427.261 417.923
626 0 105.176 12.3982 1304 65.7492 426.934 416.567
627 0 109.307 12.7988 1399 64.867 427.231 416.495
628 0 110.136 10.6595 1174 67.4532 427.52 417.893
629 1 57.1463 10.8843 622 64.201 427.579 441.977
630 0 56.175 10.0756 566 65.6184 427.249 441.993
631 0 60.057 11.8054 709 63.8618 427.471 441.628
632 0 61.1586 10.1866 623 65.6453 428.005 442.713
633 0 63.152 12.1136 765 63.9634 427.905 440.812
634 0 63.1692 10.4323 659 67.3672 427.654 439.566
635 0 64.0976 10.1408 650 68.34 428.122 439.335
636 0 66.1027 11.1947 740 65.627 428.608 439.478
637 0 68.0876 12.4252 846 66.9598 427.989 438.631
638 0 69.203 10.9244 756 68.9709 428.524 438.243
639 0 72.084 12.5687 906 67.3664 428.05 434.115
640 0 72.0935 11.1383 803 69.8792 428.062 435.646
641 0 75.1579 12.0546 906 68.8543 427.658 434.252
642 0 78.1193 12.5193 978 68.5521 427.879 433.288
643 0 80.1917 13.8917 1114 66.8052 428.24 433.565
644 0 81.1042 12.2188 991 70.107 428.178 431.904
645 0 86.1514 14.9388 1287 65.7879 427.839 431.211
646 0 88.2136 14.3742 1268 66.9913 427.811 429.485
647 0 88.2072 11.9718 1056 71.2907 427.754 428.429
648 0 92.2664 12.6265 1165 70.1124 427.827 428.045
649 0 95.4215 12.5339 1196 70.3637 427.405 427.314
650 0 95.418 12.2199 1166 71.3954 427.278 425.383
651 0 98.1769 12.8645 1263 70.5511 427.566 424.644
652 0 100.238 13.0489 1308 70.5986 427.331 421.272
653 0 103.38 12.2268 1264 71.5032 427.086 422.089
654 0 105.202 13.7545 1447 69.387 426.969 421.369
655 0 106.294 13.0863 1391 70.6226 427.22 423.581
656 0 106.165 13.479 1431 71.1286 427.044 421.441
657 0 106.241 12.8199 1362 72.572 427.437 420.738
658 0 109.294 11.2449 1229 74.8975 427.197 420.402
659 0 109.272 13.1324 1435 72.5199 427.178 418.328
660 0 110.343 13.1318 1449 73.2912 427.103 416.512
661 0 113.203 13.6481 1545 72.4887 427.016 415.711
662 0 114.204 13.8349 1580 72.1411 427.649 415.271
663 0 114.195 14.3964 1644 71.694 427.308 415.948
664 0 113.227 14.1221 1599 72.2764 427.091 417.499
665 0 113.213 12.8077 1450 75.371 427.326 412.879
666 0 116.147 13.0954 1521 74.4826 428.106 415.746
667 0 115.087 12.5557 1445 75.1751 428.226 416.047
668 0 118.159 13.7018 1619 73.6109 428.266 414.878
669 0 117.154 13.1706 1543 74.8775 428.04 414.282
670 0 120.23 13.4742 1620 74.2519 428.334 414.756
671 0 119.234 14.5596 1736 73.0092 428.19 410.312
672 0 120.218 13.5919 1634 74.7142 427.718 410.761
673 0 121.148 12.5467 1520 76.323 427.632 409.604
674 0 122.173 13.5955 1661 73.9205 427.742 413.963
675 0 122.127 14.2966 1746 73.3465 427.478 410.835
676 0 122.225 12.4279 1519 77.2883 428.101 409.463
677 0 125.081 13.1994 1651 75.2144 427.792 411.055
678 0 124.237 13.6594 1697 74.4838 427.507 412.405
679 0 124.14 14.2018 1763 73.9512 427.943 409.048
680 0 126.205 13.2641 1674 75.3817 428.251 409.652
681 0 126.273 15.0943 1906 72.5404 428.133 408.09
682 0 125.264 13.268 1662 75.725 427.58 407.026
683 0 125.253 14.6903 1840 72.8641 426.816 411.52
684 0 127.197 13.2314 1683 75.3007 427.361 409.075
685 0 127.197 13.7267 1746 74.3643 426.97 411.409
686 0 128.18 13.6136 1745 74.4808 426.57 410.979
687 0 130.183 15.7855 2055 70.9046 426.58 407.671
688 0 129.183 13.1132 1694 75.5732 427.155 408.266
689 0 130.186 14.0108 1824 73.8536 427.866 407.187
690 0 129.273 13.661 1766 74.4122 427.653 406.287
691 0 130.198 14.1016 1836 73.9559 427.657 406.9
692 0 131.254 14.3844 1888 73.3077 427.247 405.398
693 0 131.124 13.636 1788 74.1147 427.306 405.523
694 0 133.26 16.0738 2142 70.0976 427.365 405.386
695 0 132.107 12.8608 1699 75.5433 427.435 406.936
696 0 133.233 14.3734 1915 72.5264 427.281 407.768
697 0 133.223 12.7605 1700 75.9 427.51 403.725
698 0 135.226 13.629 1843 73.7374 427.356 403.673
699 0 135.164 14.3529 1940 72.5021 427.591 405.951
700 0 135.196 13.8022 1866 73.7862 427.605 403.975
701 0 136.229 13.3525 1819 74.3117 427.824 401.609
702 0 135.165 12.9693 1753 75.5779 428.452 406.264
703 0 136.128 13.3551 1818 75.0237 427.68 404.508
704 0 138.318 14.3221 1981 73.4851 427.999 403.601
705 0 137.274 13.7753 1891 74.6208 427.725 400.431
706 0 138.252 13.7357 1899 74.2686 428.431 403.444
707 0 139.181 14.2189 1979 73.385 428.077 401.762
708 0 139.233 13.797 1921 74.1171 427.61 397.184
709 0 140.256 14.0101 1965 73.1893 427.895 399.921
710 0 140.291 13.8284 1940 73.8247 427.866 397.92
711 0 140.281 13.1593 1846 72.4453 428.167 401.919
712 0 139.155 13.4311 1869 72.5243 428.049 398.272
713 0 138.389 12.0096 1662 74.8791 428.429 397.946
714 0 139.176 12.9333 1800 73.0206 427.878 399.283
715 0 143.265 15.9844 2290 67.1908 428.728 401.528
716 0 142.272 14.7815 2103 69.1797 428.785 403.146
717 0 144.194 13.6206 1964 70.835 428.087 398.046
718 0 144.248 14.378 2074 69.4643 428.606 399.748
719 0 142.185 13.0112 1850 72.1859 428.509 398.259
720 1 80.1244 12.0313 964 69.445 428.471 429.333
721 0 80.1186 11.0836 888 70.6745 428.929 428.824
722 0 81.2622 11.3091 919 69.4483 428.891 429.348
723 0 79.1597 11.3821 901 70.0777 428.139 428.484
724 0 81.2897 11.379 925 69.2757 428.411 428.882
725 0 80.1063 11.4847 920 69.662 427.641 428.051
726 0 81.1374 12.0536 978 68.728 428.144 428.674
727 0 84.2261 11.5997 977 68.2078 428.029 428.828
728 0 82.0912 11.9136 978 67.5542 427.581 429.797
729 0 82.1096 11.8744 975 68.3118 427.607 426.278
730 0 82.1473 12.3315 1013 67.4541 427.867 427.831
731 0 81.153 11.3243 919 69.1882 427.496 426.424
732 0 83.0588 12.0637 1002 67.3603 427.885 427.754
733 0 83.172 12.2517 1019 67.1374 428.213 427.143
734 0 81.1341 12.2636 995 67.5749 428.254 426.523
735 0 81.1527 11.4106 926 69.068 428.191 424.989
736 0 82.1177 11.5688 950 68.2253 428.541 425.946
737 0 84.0987 11.0822 932 68.632 428.589 426.826
738 0 83.1271 11.6448 968 67.9514 428.212 425.976
739 0 83.129 11.7889 980 67.3969 428.423 426.328
740 0 83.1863 12.1655 1012 66.4457 428.432 428.652
741 0 85.1492 12.4018 1056 66.4583 428.37 426.598
742 0 84.0984 11.2012 942 67.7484 428.156 426.018
743 0 85.1981 12.1599 1036 66.2693 427.804 427.067
744 0 84.108 12.8287 1079 65.7961 428.14 425.25
745 0 81.1442 10.8695 882 69.0907 428.167 424.81
746 0 84.1434 12.3955 1043 65.8658 428.715 426.911
747 0 85.0802 12.4823 1062 65.3701 428.813 426.375
748 0 85.0742 12.4715 1061 66.132 429.269 425.481
749 0 85.1997 13.3216 1135 64.9181 428.658 425.247
750 0 87.1677 12.5964 1098 65.5155 428.337 423.474
751 0 86.1365 12.5731 1083 65.2696 428.213 425.106
752 0 88.1016 12.0883 1065 65.9258 428.406 424.151
753 0 86.1845 11.8235 1019 65.8921 428.364 424.132
754 0 85.2182 11.8402 1009 66.2299 428.328 424.071
755 0 86.2335 12.0023 1035 66.1005 427.846 424.582
756 0 87.114 11.4448 997 66.331 428.689 423.897
757 0 88.1633 11.8303 1043 66.1467 429.149 424.095
758 0 86.2981 11.9701 1033 65.9826 428.514 422.885
759 0 87.1069 12.3756 1078 64.5965 428.486 423.506
760 0 88.1064 13.5291 1192 62.9287 428.841 425.327
761 0 89.0969 13.5134 1204 63.3264 428.452 426.419
762 0 88.1287 12.4023 1093 64.3458 427.827 423.6
763 0 91.1044 13.2266 1205 61.834 428.529 424.596
764 0 87.2366 11.3484 990 65.7929 428.258 420.069
765 0 89.2569 13.4555 1201 62.0791 428.349 422.038
766 0 88.1259 11.8353 1043 64.3615 427.875 425.091
767 0 89.1481 14.4591 1289 60.4344 428.123 420.915
768 0 91.2027 12.5216 1142 62.6856 428.236 422.654
769 0 91.1945 11.5577 1054 64.1584 428.605 421.637
770 0 91.1155 13.4445 1225 62.3535 427.793 421.768
771 0 89.1514 11.3851 1015 64.0897 427.595 424.071
772 0 91.1088 12.1723 1109 64.0604 427.568 423.602
773 0 90.0884 12.965 1168 61.8818 427.683 421.319
774 0 82.1185 16.5371 1358 52.5258 427.584 424.198
775 0 77.2957 12.5104 967 55.8428 427.507 422.349
776 0 78.2357 15.0187 1175 52.3685 427.534 428.77
777 0 78.1948 14.6301 1144 52.278 427.853 427.564
778 0 78.1687 13.586 1062 53.0744 427.808 430.214
779 0 78.1469 12.5277 979 54.3606 428.139 431.267
780 0 77.2039 12.3828 956 54.4341 427.972 429.471
