time division length width area intensity CMx CMy
0 0 40.0789 12.9744 520 54.0846 1113.91 528.679
1 0 42.0656 12.6707 533 54.5516 1114.04 527.919
2 0 42.0101 12.1399 510 55.5784 1113.85 527.004
3 0 44.0256 14.0373 618 53.2298 1113.56 527.846
4 0 42.0395 11.1086 467 57.9615 1113.39 526.884
5 0 44.0478 11.7372 517 57.2495 1113.22 527.074
6 0 45.0281 12.1258 546 57.1099 1112.55 526.687
7 0 47.0448 12.6475 595 56.5832 1112.75 525.807
8 0 46.0163 12.2565 564 57.8723 1113.07 525.239
9 0 49.0717 14.8966 731 54.5636 1113.59 526.176
10 0 49.0352 12.8479 630 57.7365 1113.52 524.37
11 0 51.0619 13.1605 672 57.5312 1113.46 524.909
12 0 52.0347 13.318 693 57.052 1113.49 525.771
13 0 53.0602 13.3245 707 57.5106 1113.83 524.058
14 0 55.0694 13.0018 716 58.0503 1112.53 522.168
15 0 55.0896 12.634 696 58.6149 1112.35 524.622
16 0 58.0586 14.7093 854 55.8536 1112.28 524.98
17 0 59.0703 12.9337 764 59.2212 1112.76 522.16
18 0 60.0337 13.6757 821 57.7929 1113 522.135
19 0 62.1251 12.7968 795 59.4164 1112.47 519.634
20 0 60.1188 12.0595 725 61.2331 1112.32 519.103
21 0 65.0964 14.2558 928 57.7511 1112.47 518.291
22 0 64.0217 12.1209 776 60.6688 1111.89 518.957
23 0 70.2091 13.3316 936 57.9829 1112.96 520.788
24 0 71.1481 12.4529 886 60.0948 1112.47 519.046
25 0 68.0984 11.1309 758 62.9644 1113.15 516.074
26 0 74.035 13.5341 1002 60.3363 1113.15 513.389
27 0 73.0746 11.2761 824 63.5485 1112.95 515.337
28 0 77.0801 13.3757 1031 61.3521 1111.87 513.851
29 0 79.0982 13.7298 1086 61.0571 1113.41 514.957
30 0 79.083 12.822 1014 63.6105 1112.55 511.826
31 1 40.0918 11.2991 453 64.7042 1112.56 530.587
32 0 43.0993 14.5014 625 60.128 1112.62 530.678
33 0 41.0159 11.6296 477 65.1866 1113.48 529.545
34 0 43.0925 13.3666 576 63.2309 1113.61 528.521
35 0 44.0796 12.0237 530 64.9208 1113.64 527.84
36 0 47.0339 12.2678 577 65.0901 1112.89 527.08
37 0 46.0413 13.249 610 64.6377 1113.34 525.851
38 0 48.0302 12.9502 622 64.8521 1113.86 525.979
39 0 50.0178 14.075 704 62.9205 1113.19 525.308
40 0 50.0993 11.1379 558 66.8477 1114.22 525.785
41 0 53.0597 11.8734 630 66.246 1114.42 524.11
42 0 54.0668 13.2799 718 65.7827 1114.74 520.737
43 1 115.252 11.6354 1341 66.1432 1113.98 500.299
44 0 118.205 14.2126 1680 64.9702 1114.53 491.092
45 1 61.0966 13.6178 832 65.512 1114.03 520.648
46 0 60.1001 12.9284 777 67.1042 1114.5 520.665
47 0 62.1185 12.5406 779 68.1605 1114.57 519.471
48 0 66.074 13.3335 881 67.0579 1114.86 519.065
49 0 66.2022 11.4196 756 70.6574 1115.02 518.587
50 0 71.1459 14.4632 1029 66.1953 1114.58 518.279
51 0 72.0705 12.2935 886 70.5564 1114.31 516.401
52 0 73.0506 12.594 920 70.3598 1114.19 516.854
53 0 75.0686 12.4419 934 71.9165 1114.9 514.151
54 1 36.0133 10.8016 389 73.491 1114.29 531.355
55 0 37.0198 11.5884 429 72.8625 1114.77 530.89
56 0 39.0187 11.8405 462 72.1104 1114.88 530.654
57 0 39.0586 12.6221 493 72.712 1114.67 529.392
58 0 38.0133 11.2592 428 75.4883 1115.07 529.458
59 0 44.1317 14.3661 634 69.1151 1115.48 528.222
60 0 44.0255 13.2878 585 72.1043 1115.76 526.978
61 0 44.0285 12.3556 544 73.2151 1114.56 528.382
62 0 47.0358 12.0759 568 73.1884 1114.64 526.96
63 0 48.0239 12.8686 618 72.0631 1114.56 525.943
64 0 50.0769 13.639 683 70.631 1114.69 525.523
65 0 51.0622 13.8067 705 71.7801 1115.73 523.97
66 0 51.0555 11.7323 599 74.9065 1114.76 524.758
67 0 57.045 13.7085 782 70.9591 1114.95 522.065
68 0 56.0304 12.636 708 74.1243 1115.07 520.34
69 0 59.054 12.7002 750 73.3293 1115.07 522.385
70 0 60.1049 12.8775 774 73.23 1114.45 522.072
71 0 63.0412 13.2136 833 72.5438 1114.61 520.712
72 0 62.0481 13.006 807 74.57 1114.99 516.814
73 0 67.1479 12.2416 822 73.7214 1115.01 519.073
74 0 70.0339 14.5358 1018 70.8252 1114.74 516.028
75 1 36.0361 11.1277 401 74.2394 1114.22 532.387
76 0 39.0522 12.0864 472 73.4873 1115.02 530.884
77 0 39.0118 12.7397 497 71.666 1114.71 532.014
78 0 41.0105 13.46 552 71.7264 1114.37 529.163
79 0 42.061 12.0064 505 74.5366 1115.01 528.905
80 0 42.0489 12.4617 524 74.166 1115.32 528.189
81 0 45.0216 12.1275 546 73.4139 1115.73 528.026
82 0 45.0389 11.923 537 73.7765 1116.32 528.277
83 0 45.0244 12.5265 564 74.2252 1116.12 525.092
84 0 48.0574 12.7556 613 72.6297 1115.78 526.396
85 0 48.0244 11.8273 568 73.338 1115.81 527.822
86 0 48.0318 11.5965 557 74.1382 1115.72 525.533
87 0 52.0775 11.6749 608 74.2747 1115.49 523.581
88 0 53.0652 12.2302 649 72.8829 1115.28 523.525
89 0 56.0278 12.4224 696 71.329 1115.97 523.631
90 0 55.0873 13.8689 764 70.5602 1115.82 522.712
91 0 57.0319 11.6426 664 73.4322 1115.25 521.532
92 0 59.0239 11.3513 670 72.7806 1116.22 521.843
93 0 60.0477 12.1237 728 72.1731 1116.15 521.562
94 0 63.1134 11.7091 739 73.1056 1116.51 518.34
95 0 66.0842 12.2571 810 71.642 1116.25 517.306
96 0 65.0219 12.2266 795 72.712 1115.62 514.097
97 0 69.0591 12.2214 844 71.4206 1115.72 516.838
98 0 74.1038 10.1344 751 74.3569 1115.76 514.764
99 0 72.0512 11.1726 805 71.8807 1115.81 515.174
100 0 76.0483 12.1107 921 72.0076 1115.76 510.396
101 0 79.0871 12.2144 966 71.4379 1116.02 509.715
102 0 81.0675 12.5328 1016 71.3258 1116.11 509.264
103 1 42.0117 11.0208 463 71.3305 1116.41 528.093
104 0 42.031 10.6588 448 71.6719 1116.65 527.536
105 0 41.0165 10.8737 446 72.7982 1115.83 526.908
106 0 43.0589 13.0751 563 69.2167 1116.21 526.607
107 0 45.0198 12.0613 543 70.0866 1115.29 527.031
108 0 45.1013 11.0418 498 71.255 1115.37 526.51
109 0 47.0724 11.2168 528 70.2367 1115.44 526.852
110 0 49.0668 11.7799 578 70.1228 1115.43 524.118
111 0 52.0403 9.3197 485 73.4144 1115.45 523.033
112 0 51.0305 11.1306 568 70.7553 1115.21 521.264
113 0 53.031 11.9176 632 69.8054 1115.61 520.984
114 0 55.016 12.978 714 68.1639 1115.56 520.078
115 0 56.0866 12.4985 701 69.1455 1115.79 517.606
116 0 60.0539 12.1391 729 68.978 1115.96 518.735
117 0 61.0355 13.0416 796 68.3869 1116 517.133
118 0 62.0699 11.2776 700 70.9886 1115.7 515.367
119 0 65.0418 11.1467 725 70.6014 1116.12 516.269
120 0 67.0961 12.0871 811 69.8113 1115.77 512.926
121 0 69.0358 12.1241 837 69.5078 1116.26 513.546
122 0 69.0707 11.9153 823 69.9623 1115.24 513.965
123 0 73.1582 13.2453 969 68.2312 1115 510.836
124 0 73.084 11.7126 856 70.5631 1115.41 510.374
125 0 76.0395 10.8891 828 71.8273 1115.82 509.057
126 0 80.1856 11.5233 924 70.2857 1115.51 509.292
127 0 81.1307 11.3644 922 69.6529 1115.72 510.594
128 1 41.0753 10.566 434 70.7419 1114.88 524.419
129 0 43.0399 10.618 457 70.0328 1114.72 523.696
130 0 43.022 10.5295 453 69.5784 1114.69 525.962
131 0 46.0861 10.9794 506 69.7964 1113.83 522.223
132 0 48.0708 11.2958 543 68.6151 1113.86 521.847
133 0 49.0119 10.9565 537 68.8994 1114.35 522.207
134 0 49.0536 10.2133 501 70.509 1115.02 521.535
135 0 51.0348 10.8945 556 68.9856 1115.55 521.086
136 0 52.0378 11.2034 583 69.5232 1115.78 518.998
137 0 55.0605 11.6599 642 68.4502 1115.95 517.603
138 0 56.0627 11.2553 631 68.9636 1115.13 517.854
139 0 56.0912 9.84112 552 71.3315 1114.51 517.583
140 0 60.0758 11.7685 707 68.1174 1114.63 515.472
141 0 61.0833 11.7872 720 68.4347 1115.16 515.106
142 0 63.05 11.8319 746 68.7158 1115.06 514.11
143 0 66.0535 11.6572 770 68.5727 1114.93 512.542
144 0 66.0379 11.5994 766 69.1815 1114.72 512.591
145 0 70.0394 11.8076 827 67.8622 1115.02 511.609
146 0 70.0511 11.6058 813 69.0234 1115.66 509.523
147 0 73.1219 11.4603 838 69.1671 1115.65 510.076
148 0 74.0769 12.0685 894 69.0302 1114.89 505.161
149 0 78.039 12.5322 978 67.6667 1115.46 506.645
150 0 80.0725 12.6385 1012 68.5128 1115.06 503.91
151 0 84.0617 12.3838 1041 68.6302 1115.18 503.925
152 1 42.034 10.7294 451 70.1242 1114.67 524.049
153 0 44.1086 11.109 490 69.8878 1114.45 523.684
154 0 47.1816 11.212 529 69.6257 1114.96 523.043
155 0 48.0608 11.5271 554 69.6137 1115.78 520.403
156 0 50.0109 11.6375 582 69.4897 1115.54 522.419
157 0 51.0297 11.4247 583 69.3122 1115.04 521.964
158 0 52.0961 10.7878 562 69.8505 1115.29 521.957
159 0 54.0952 12.9032 698 68.096 1115.04 519.298
160 0 54.056 10.9331 591 71.0948 1115.01 519.349
161 0 55.1018 10.9434 603 71.6252 1114.6 517.262
162 0 58.0509 11.9722 695 69.8734 1115.19 516.488
163 0 59.0978 11.6586 689 70.8273 1115.79 513.765
164 0 62.0446 12.1364 753 69.2523 1115.65 515.648
165 0 64.0914 11.0779 710 70.8887 1115.52 512.213
166 0 62.0903 10.4847 651 72.3241 1115.99 512.533
167 0 67.0162 13.4296 900 67.5133 1115.8 510.582
168 0 69.0888 11.3477 784 69.9133 1116.21 511.608
169 0 72.0557 11.4911 828 69.2162 1115.85 508.925
170 0 73.0806 11.1658 816 69.9877 1115.94 509.165
171 0 75.1498 11.0712 832 69.2788 1115.63 508.599
172 1 40.0416 12.512 501 64.99 1115.85 526.058
173 0 39.0407 10.1176 395 68.9165 1115.98 525.99
174 0 41.1393 11.6191 478 67.1653 1115.93 522.617
175 0 44.0658 10.3935 458 67.9192 1115.7 523.373
176 0 45.0256 11.5934 522 66.0517 1116.21 522.983
177 0 45.0292 10.8152 487 67.5216 1115.33 522.478
178 0 48.0175 11.3917 547 65.9689 1115.77 522.519
179 0 48.0687 11.7332 564 66.0886 1115.52 521.34
180 0 50.0294 12.3527 618 65.3867 1114.76 518.521
181 0 54.0374 13.102 708 63.517 1114.96 518.894
182 0 54.0974 11.5717 626 66.5623 1115.62 517.222
183 0 57.0174 10.488 598 67.2676 1114.86 518.854
184 0 57.1158 11.7305 670 66.0702 1114.13 517.216
185 0 58.066 11.5558 671 65.7407 1114.34 517.347
186 0 62.0417 11.3956 707 65.8982 1114.4 516.907
187 0 64.0984 11.9972 769 64.5358 1113.89 515.679
188 0 63.0519 11.0861 699 66.6538 1113.52 513.857
189 0 65.1207 11.3328 738 66.2927 1113.3 512.285
190 0 68.0655 11.4008 776 66.134 1113 510.133
191 1 34.0259 9.37521 319 65.2069 1112.59 530.884
192 0 38.0428 10.6459 405 63.7926 1112.4 529.682
193 0 37.0428 11.2572 417 63.6475 1112.74 529.249
194 0 40.0391 11.5138 461 61.9544 1112.84 531.152
195 0 42.0184 11.3046 475 62.861 1113.08 528.987
196 0 40.0207 9.12028 365 66.7863 1112.34 528.992
197 0 44.0229 9.74493 429 64.6457 1112.61 528.103
198 0 46.0717 12.2418 564 61.1773 1112.02 526.516
199 0 46.0263 10.972 505 62.4119 1112.08 528.529
200 0 47.0348 12.0337 566 61.3127 1112.47 526.998
201 0 47.0166 10.2092 480 64.0062 1113.16 527.267
202 0 50.0928 11.4188 572 61.8916 1112.57 527.038
203 0 51.0099 10.2137 521 62.5029 1112.37 528.042
204 0 53.1099 11.109 590 62.361 1111.96 525.086
205 0 55.0429 11.3729 626 61.7412 1112.07 525.674
206 0 55.0503 11.1353 613 62.1354 1112.19 525.421
207 0 56.0804 11.1625 626 62.3818 1112.43 523.024
208 0 58.0853 11.9824 696 60.3793 1111.88 523.399
209 0 62.0998 11.4815 713 60.7756 1111.85 523.834
210 0 62.0809 10.6796 663 61.6757 1112.06 524.443
211 0 63.0621 9.84743 621 62.6248 1111.49 522.845
212 0 64.0386 10.1657 651 62.4885 1110.87 519.851
213 0 65.0468 10.6539 693 61.9178 1111.55 519.794
214 0 69.0461 10.8913 752 60.6117 1110.33 520.89
215 0 72.0628 11.0459 796 60.7802 1110.35 518.794
216 0 74.0826 13.1205 972 58.5741 1109.76 514.361
217 0 74.04 9.9946 740 61.5041 1110.05 515.657
218 0 79.0977 11.5048 910 59.8286 1110.1 513.078
219 1 37.0261 9.91192 367 59.7738 1109.54 530.518
220 0 40.0284 10.2927 412 58.8811 1110.39 532.425
221 0 39.0618 9.65137 377 59.8833 1110.68 532.348
222 0 42.0861 10.4072 438 59.169 1109.48 530.776
223 0 44.1183 11.8092 521 57.5585 1110.5 529.937
224 0 45.0174 11.64 524 58.2653 1109.88 528.027
225 0 46.0357 11.5997 534 58.4008 1109.81 526.191
226 0 48.0312 10.8679 522 59.2529 1109.68 525.674
227 0 49.0616 10.9658 538 59.0781 1109 525.478
228 0 49.1189 10.159 499 60.6834 1109.29 523.19
229 0 51.0302 12.6396 645 56.9411 1109.13 524.076
230 0 52.053 11.9878 624 58.7244 1109.99 523.178
231 0 51.0538 10.2441 523 61.0076 1110.19 521.298
232 0 55.0853 12.163 670 58.4104 1109.62 521.422
233 0 58.0514 14.2288 826 55.6562 1110.13 521.092
234 0 57.1003 12.6619 723 58.1826 1109.31 519.564
235 0 61.0715 13.5743 829 56.7949 1109.97 519.649
236 0 61.1285 12.0566 737 59.2157 1110.01 517.356
237 0 63.1134 11.7883 744 59.086 1110.1 516.375
238 0 64.0594 12.9255 828 57.9807 1109.74 515.521
239 0 67.0415 11.7688 789 58.8935 1110.66 516.171
240 0 69.1282 11.5582 799 59.194 1110.86 513.651
241 0 70.08 12.3145 863 58.4635 1111.08 513.665
242 0 71.0449 10.416 740 60.4689 1110.35 512.25
243 1 36.1122 10.0243 362 58.9033 1110.65 529.011
244 0 36.0535 9.90196 357 59.9104 1110.98 528.776
245 0 38.0383 10.0425 382 59.7618 1110.23 527.848
246 0 39.0362 10.8617 424 59.7217 1110.37 527.384
247 0 40.0198 11.1945 448 59.683 1110.69 526.42
248 0 41.0238 10.0186 411 60.8978 1111.22 528.591
249 0 42.0232 10.399 437 60.5515 1111.12 527.547
250 0 46.0254 12.58 579 57.3195 1111.37 527.751
251 0 44.1415 10.6249 469 61.1151 1111.14 526.273
252 0 48.0613 11.6102 558 58.7276 1111.39 527.611
253 0 45.0143 9.84132 443 61.5914 1111.63 528.993
254 0 48.0526 11.9036 572 59.722 1111.65 524.442
255 0 50.0986 11.2578 564 60.1011 1112.26 526.23
256 0 50.1202 11.0135 552 60.7554 1111.83 526.478
257 0 54.0948 12.7554 690 58.987 1112.08 523.999
258 0 53.0301 10.0886 535 61.9514 1111.75 526.271
259 0 54.0638 12.3373 667 60.0375 1111.06 524.448
260 0 53.0504 9.9151 526 63.1331 1111.28 523.709
261 0 58.1377 11.8512 689 59.9869 1111.24 523.925
262 0 60.0614 10.1563 610 60.9967 1111.18 525.282
263 0 63.119 13.1181 828 58.9771 1111.56 520.446
264 0 65.0663 13.1865 858 58.5688 1111.19 519.495
265 0 67.0567 11.3784 763 60.5426 1111.21 522.017
266 0 66.0774 13.5447 895 59.3073 1111 518.063
267 0 70.0625 11.4041 799 61.428 1111.15 516.849
268 1 35.0771 8.21048 288 62.5625 1111.16 535.483
269 0 34.0192 9.84738 335 62.7463 1110.75 532.898
270 0 38.0517 8.93522 340 62.3176 1110.4 534.335
271 0 41.046 10.4273 428 60.9953 1110.07 533.418
272 0 42.0416 12.1308 510 59.4569 1110.55 531.941
273 0 42.0533 12.0323 506 60.0613 1109.84 532.427
274 0 42.0802 10.0047 421 62.3872 1110 532.162
275 0 43.0398 10.409 448 62.9621 1109.92 530.866
276 0 44.1008 10.9522 483 62.8986 1110.09 530.611
277 0 47.0442 9.88432 465 63.3677 1109.87 532.634
278 0 48.0596 11.5482 555 62.5838 1109.59 530.29
279 0 50.0521 11.7877 590 62.3864 1109.47 529.151
280 0 52.0322 11.243 585 62.6376 1109.92 530.451
281 0 52.074 10.6963 557 64.1023 1109.89 529.28
282 0 55.0317 12.3383 679 61.9912 1109.7 528.488
283 0 57.0348 11.6946 667 62.8831 1109.03 526.714
284 0 56.0724 11.6813 655 63.4977 1109.12 525.031
285 0 59.0496 12.3117 727 62.5488 1108.69 524.882
286 0 59.0545 11.6672 689 63.775 1108.97 524.743
287 0 63.0277 12.5818 793 62.8701 1108.99 521.694
288 0 64.0975 11.0457 708 63.9816 1109.04 523.494
289 0 66.047 12.7636 843 63.0902 1108.77 519.057
290 0 70.0534 12.2478 858 62.9604 1108.53 521.9
291 0 71.1797 12.8688 916 63.1638 1109.02 519.353
292 0 75.0562 12.5906 945 63.6995 1108.89 518.392
293 0 75.0607 12.5099 939 63.6944 1108.7 518.927
294 0 77.1037 11.5948 894 65.5324 1109.69 516.831
295 1 39.0473 9.16836 358 65.3324 1109.4 535.606
296 0 40.0412 11.4882 460 64.8565 1108.81 531.615
297 0 40.0659 10.0335 402 66.4801 1108.66 534.316
298 0 43.064 11.8196 509 65.0688 1109.61 530.497
299 0 42.0664 10.4834 441 68.0544 1108.59 531.277
300 0 43.0129 11.113 478 68.1025 1108.73 528.787
301 0 46.0324 12.4695 574 65.5993 1108.94 527.812
302 0 45.0351 11.7464 529 67.2949 1108.56 529.166
303 0 47.0305 12.4387 585 66.6342 1109.6 527.807
304 0 51.0977 11.9575 611 66.2537 1109.34 527.826
305 0 51.0396 12.1278 619 65.8853 1109.15 528.364
306 0 52.0435 10.6834 556 67.6637 1108.83 528.394
307 0 55.065 12.8757 709 65.5825 1108.77 524.195
308 0 57.0541 12.1814 695 66.423 1108.94 523.67
309 0 56.0579 12.2017 684 67.0775 1108.94 522.091
310 0 59.1527 11.9352 706 66.796 1109.03 521.69
311 0 61.0633 10.6447 650 68.3692 1109.45 521.609
312 0 60.0338 9.9444 597 69.7722 1109.65 518.568
313 0 63.0392 10.2159 644 69.7655 1109.51 516.986
314 0 67.2233 12.0345 809 66.9815 1108.68 517.832
315 0 69.0542 11.1941 773 68.2548 1108.31 515.494
316 0 68.0913 9.1348 622 71.5129 1109.31 513.569
317 0 72.1018 10.4158 751 69.5726 1108.78 513.878
318 0 74.0183 9.957 737 70.4247 1108.92 508.852
319 0 77.2266 11.0972 857 69.3489 1109.8 510.173
320 0 78.0743 10.1826 795 71.0428 1109.76 508.952
321 1 38.0304 8.28285 315 72.3143 1110.26 527.756
322 0 41.0583 11.642 478 67.1716 1110.2 528.395
323 0 42.013 9.66368 406 70.0197 1109.72 528.017
324 0 43.0788 10.9799 473 67.4947 1109.85 530.087
325 0 47.0367 11.6505 548 65.6715 1109.68 529.704
326 0 49.0642 11.5359 566 66.4823 1109.02 527.555
327 0 49.0408 11.9696 587 65.9267 1108.05 527.608
328 0 49.0557 10.3148 506 68.7075 1109.02 526.652
329 0 53.0513 10.028 532 68.9492 1109.2 526.239
330 0 55.0193 11.2688 620 66.7597 1108.98 525.966
331 0 54.0661 10.6351 575 68.8226 1109.49 524.223
332 0 58.0281 11.0636 642 67.324 1109.26 524.857
333 0 58.0617 10.4372 606 67.9472 1108.78 524.871
334 0 60.0499 11.2406 675 67.3348 1108.64 522.262
335 0 61.0624 11.2344 686 67.4154 1108.88 521.688
336 0 62.101 10.6601 662 68.1964 1108.54 521.438
337 0 66.1 11.18 739 67.6387 1108.83 520.028
338 0 68.0867 11.8819 809 67.0915 1108.88 519.512
339 0 70.1308 10.9795 770 68.2468 1109.72 518.039
340 0 72.0717 11.4747 827 67.4873 1108.94 517.771
341 0 73.0855 11.6439 851 68.8719 1108.99 514.585
342 1 39.0203 11.2506 439 64.8383 1108.6 532.77
343 0 41.0358 10.1131 415 67.6554 1108.36 530.593
344 0 42.0531 10.2252 430 67.0628 1108.83 530.807
345 0 43.0116 10.6018 456 67.3443 1109.08 530.5
346 0 43.0306 11.8753 511 66.7084 1109.1 528.288
347 0 45.0274 9.9495 448 69.3214 1109.46 529.386
348 0 47.0231 11.0584 520 67.2231 1109.52 530.088
349 0 49.0502 11.58 568 66.0493 1109.04 529.016
350 0 50.0808 11.3816 570 66.7368 1108.91 527.916
351 0 50.0917 11.8583 594 67.0741 1109.19 526.002
352 0 51.1076 9.60719 491 68.4766 1109.26 527.397
353 0 54.2568 11.7958 640 66.0297 1108.95 525.509
354 0 52.1811 11.0193 575 67.1844 1109.68 526.094
355 0 54.1227 10.8827 589 67.6808 1108.67 522.46
356 0 58.1464 11.557 672 65.1592 1108.6 523.476
357 0 59.1538 10.3966 615 67.8748 1108.89 520.953
358 0 62.1184 10.8502 674 66.3427 1109.58 520.209
359 0 62.0374 10.268 637 66.5447 1110.09 521.19
360 0 64.0765 10.3314 662 66.3701 1109.4 520.707
361 0 67.0508 11.7224 786 64.8257 1109.54 517.238
362 0 69.0692 12.5237 865 63.4266 1109.07 518.081
363 0 73.0862 11.7532 859 63.4831 1109.02 517.669
364 0 73.1673 11.4669 839 65.2646 1109.47 511.176
365 0 75.1504 10.459 786 66.2252 1109.17 511.616
366 0 80.1438 11.0427 885 65.4339 1109.67 511.499
367 0 83.0665 11.1718 928 65.4052 1109.07 510.732
368 0 85.0894 10.2128 869 66.8585 1109.96 509.527
369 0 87.2621 11.6087 1013 65.3139 1108.95 506.47
370 1 44.0651 9.41789 415 64.8024 1109.59 530.651
371 0 48.046 10.5108 505 63.6852 1109.66 528.661
372 0 50.0551 12.1266 607 62.5848 1109.23 526.575
373 0 50.068 10.7454 538 64.3309 1109.56 524.838
374 0 50.1008 11.2573 564 64.7128 1109.1 524.144
375 0 52.0413 10.9336 569 64.9455 1109.53 523.856
376 0 54.0591 11.2654 609 63.8736 1109.94 524.122
377 0 54.0971 10.3333 559 65.839 1110.09 523.25
378 0 58.1414 11.4548 666 63.6952 1109.75 523.384
379 0 57.0892 10.6325 607 65.14 1109.6 521.997
380 0 60.2051 11.6103 699 63.721 1108.62 520.104
381 0 62.0804 11.3885 707 63.5601 1108.74 518.338
382 0 65.1112 10.9812 715 64.0126 1108.42 518.913
383 0 67.1522 10.99 738 63.79 1108.88 518.114
384 0 69.0564 12.0916 835 62.6048 1108.53 516.996
385 0 68.1592 9.34577 637 65.81 1108.21 518.378
386 0 72.1686 10.7249 774 64.2687 1108.54 514.751
387 0 74.0878 10.69 792 64.7336 1108.72 514.183
388 0 76.1569 10.7279 817 64.8176 1108.9 511.557
389 0 79.1086 10.0242 793 65.348 1108.6 511.546
390 1 38.141 9.12403 348 64.681 1108.6 532.764
391 0 43.0535 10.3592 446 62.6704 1107.97 529.922
392 0 42.0268 10.2792 432 64.4653 1108.65 529.025
393 0 45.0804 10.3149 465 63.3376 1109.35 528.151
394 0 46.1331 12.0087 554 61.7419 1109.66 527.426
395 0 46.0541 10.4442 481 64.42 1109.45 526.266
396 0 48.0297 10.7642 517 63.8607 1109.53 524.41
397 0 50.0348 11.7118 586 61.8686 1109.71 527.585
398 0 51.0682 10.7895 551 64.0744 1109.93 524.78
399 0 54.1209 10.6059 574 63.9338 1109.62 522.498
400 0 56.1181 10.0859 566 63.4647 1110.16 523.463
401 0 57.1223 11.3266 647 61.8022 1110.02 520.125
402 0 60.0846 11.0178 662 62.2946 1110.3 521.566
403 0 61.0694 12.2647 749 60.5634 1110.08 520.218
404 0 62.0587 10.8123 671 62.462 1109.59 520.759
405 0 65.0549 11.0983 722 61.3296 1109.59 520.341
406 0 66.0681 10.4286 689 62.1756 1109.61 519.92
407 0 68.0336 11.7883 802 60.591 1109.82 516.874
408 0 71.0295 11.8965 845 60.129 1110.27 517.316
409 0 73.1209 12.2263 894 60.1365 1110.29 513.294
410 0 75.1125 11.7024 879 61.0569 1109.96 511.892
411 0 79.0765 11.8746 939 59.787 1109.92 513.181
412 1 39.0551 9.29456 363 62.7273 1109.92 528.669
413 0 41.0314 9.99234 410 62.4073 1110.02 527.468
414 0 44.0697 11.323 499 60.2445 1109.62 528.848
415 0 46.0847 11.4789 529 59.1815 1109.45 527.265
416 0 47.0678 10.5805 498 61.261 1109.35 528.251
417 0 49.0579 13.3923 657 58.003 1109.78 526.379
418 0 52.0229 12.0716 628 58.707 1109.42 528.664
419 0 50.126 10.0946 506 62.0296 1109.76 527.838
420 0 52.149 11.9849 625 59.976 1109.3 525.875
421 0 56.0521 11.5072 645 60.5798 1109.7 524.825
422 0 55.0467 11.0633 609 62.1544 1109.26 522.373
423 0 58.0232 12.5467 728 59.6813 1109.55 521.413
424 0 58.0375 11.0963 644 61.2593 1109.31 523.242
425 0 60.0402 10.9427 657 61.9498 1108.56 519.269
426 0 63.1055 13.1526 830 58.9157 1109.09 520.314
427 0 65.034 12.6703 824 59.8993 1109.73 519.027
428 0 64.0678 10.7698 690 63.1275 1109.58 516.751
429 0 68.0595 11.534 785 61.3159 1110.13 517.254
430 0 71.0424 12.8093 910 59.289 1110.04 518.907
431 0 70.0361 11.4084 799 62.2466 1110.37 517.263
432 0 73.1435 12.6464 925 60.5049 1109.49 515.209
433 0 79.1078 13.0202 1030 59.432 1109.55 512.79
434 0 80.1061 13.7942 1105 58.6932 1109.71 513.637
435 0 83.124 10.9716 912 62.8761 1109.21 510.567
436 1 45.0401 11.7451 529 62.2306 1108.86 526.811
437 0 45.0184 10.0626 453 64.2826 1109.68 530.391
438 0 49.0225 12.1781 597 62.2161 1109.69 527.935
439 0 49.0517 11.5184 565 62.7699 1109.3 527.926
440 0 51.033 13.8342 706 60.4518 1109.02 525.085
441 0 53.0161 10.6949 567 63.9347 1108.2 526.67
442 0 55.0728 12.0023 661 62.4418 1108.11 524.873
443 0 55.0322 12.0657 664 62.5889 1108.29 524.006
444 0 58.0608 11.4363 664 63.4006 1108.31 523.739
445 0 57.0828 13.3841 764 61.356 1108.12 523.238
446 0 61.0367 12.386 756 62.6323 1108.4 520.745
447 0 62.1167 12.5248 778 62.3393 1108.61 518.774
448 0 64.0565 12.6607 811 62.1874 1108.36 519.307
449 0 66.0633 11.9431 789 62.4208 1109.14 519.937
450 0 66.0788 13.7714 910 61.1593 1109.16 517.09
451 0 67.083 13.3417 895 62.2715 1108.57 515.427
452 0 71.1809 13.9504 993 61.1782 1108.35 515.667
453 0 74.1228 14.1657 1050 60.9295 1108.39 516.257
454 0 76.0555 13.74 1045 61.7349 1108.5 514.518
455 0 74.074 11.4075 845 65.2024 1107.68 513.22
456 0 80.1141 12.27 983 64.1485 1108.31 512.589
457 0 80.0721 12.1016 969 64.6914 1108.22 509.593
458 1 39.0087 10.3567 404 66.3441 1108.44 529.572
459 0 41.0681 12.321 506 64.6878 1108.4 528.045
460 0 43.0427 11.477 494 65.1417 1108.63 528.708
461 0 44.0382 12.8071 564 64.2908 1108.89 526.895
462 0 46.0498 12.2693 565 64.554 1108.34 528.596
463 0 46.0221 11.8421 545 65.1541 1108.57 528.659
464 0 49.0665 11.2704 553 66.0163 1108.44 525.503
465 0 50.0762 13.2798 665 63.4256 1108.96 525.562
466 0 52.1437 12.1587 634 64.4432 1108.32 525.536
467 0 55.134 11.9708 660 64.1712 1108.35 526.344
468 0 55.0732 12.9464 713 63.9972 1108.07 524.438
469 0 58.0752 13.0348 757 63.3316 1108.06 523.872
470 0 59.0655 12.9517 765 64.085 1107.96 522.329
471 0 59.1022 12.2161 722 65.2659 1108.34 522.663
472 0 62.1903 13.9572 868 62.8859 1108.23 518.995
473 0 63.0956 13.2973 839 63.8045 1108.79 521.15
474 0 66.1225 13.7472 909 63.637 1108.57 520.129
475 0 67.1382 14.7308 989 62.9727 1108.34 517.957
476 0 70.0405 13.6064 953 63.979 1108.29 515.556
477 0 72.0338 13.0633 941 64.8565 1108.58 516.731
478 0 74.2546 12.1205 900 66.3611 1108.15 516.18
479 0 76.0951 13.1283 999 64.7237 1108.61 515.457
480 0 78.0603 12.1188 946 66.9049 1108.08 513.228
481 0 80.1129 13.6807 1096 64.7053 1108.21 513.649
482 0 86.1254 14.2234 1225 63.3045 1108.51 512.85
483 1 40.0072 10.3731 415 68.0289 1108.97 529.482
484 0 45.0857 11.2896 509 65.5776 1108.7 530.633
485 0 45.0769 10.8481 489 66.8487 1108.68 529.863
486 0 45.1711 11.2904 510 67.2157 1108.86 528.998
487 0 48.0488 12.1543 584 65.9024 1108.35 527.694
488 0 48.0804 11.3768 547 67.4369 1108.03 527.718
489 0 48.0468 9.55319 459 70.3072 1108.98 528.285
490 0 51.0511 13.5354 691 64.9305 1107.99 526.588
491 0 53.0843 12.0751 641 66.8378 1108.18 525.552
492 0 57.0693 12.7038 725 65.1462 1108.19 525.359
493 0 56.0898 11.9095 668 66.765 1108.92 524.486
494 0 58.0544 12.5744 730 65.7822 1108.19 523
495 0 60.1159 12.3096 740 66.0919 1108.42 522.854
496 0 59.0765 12.1876 720 67.0819 1108.08 523.114
497 0 61.0546 13.578 829 64.9288 1108.58 522.549
498 0 66.0556 13.3524 882 65.1202 1108.73 519.929
499 0 65.0376 11.9931 780 67.1987 1107.87 519.359
500 0 68.0746 12.9123 879 66.2662 1108.07 516.258
501 0 72.0427 12.1595 876 66.5091 1107.5 517.184
502 0 75.0826 13.292 998 64.8287 1107.62 516.34
503 0 75.0668 12.5755 944 66.965 1108.09 515.249
504 0 77.0886 13.2315 1020 66.1392 1108.01 512.667
505 0 78.0775 11.9112 930 68.1043 1108.22 511.819
506 0 83.0813 13.553 1126 66.2318 1108.26 509.066
507 0 82.1082 12.0573 990 69.0475 1107.78 508.672
508 1 44.0436 10.7167 472 67.4576 1107.15 529.362
509 0 44.0429 11.1028 489 67.3886 1107.65 528.883
510 0 45.0407 8.96967 404 69.4802 1108.27 530.8
511 0 45.1219 11.0811 500 69.684 1107.82 528.04
512 0 49.0792 12.327 605 66.562 1107.71 528.848
513 0 49.0333 12.2162 599 68.4908 1108.03 526.902
514 0 51.0206 11.9951 612 68.5915 1107.83 526.75
515 0 51.0407 11.7945 602 68.6296 1108.62 528.002
516 0 51.0605 12.2991 628 69.2866 1108.41 523.092
517 0 57.1491 12.8436 734 66.1335 1108.56 525.782
518 0 56.0648 12.6639 710 67.9845 1107.72 525.656
519 0 58.0425 12.6115 732 67.9071 1108.74 524.911
520 0 60.0408 14.2736 857 65.6184 1108.41 522.86
521 0 58.0678 11.6243 675 70.9467 1108.53 519.702
522 0 63.0722 13.0802 825 68.9345 1108.49 523.115
523 0 65.0592 12.5424 816 69.0257 1108.49 520.186
524 0 67.0418 12.5146 839 69.1657 1108.74 519.321
525 0 68.0792 12.6177 859 68.9884 1108.64 519.168
526 0 72.0748 12.7368 918 68.7102 1108.33 517.419
527 0 75.0562 13.1235 985 67.9046 1107.32 518.194
528 0 74.1868 13.1695 977 69.002 1107.64 517.548
529 0 78.0843 13.5495 1058 68.3223 1108.01 516.703
530 0 80.1214 13.5669 1087 69.2042 1108.29 513.502
531 0 83.0405 12.6083 1047 70.4747 1108.73 513.95
532 0 82.0614 12.6125 1035 71.343 1108.27 511.735
533 0 87.1521 12.3348 1075 71.8288 1108.05 510.643
534 0 89.0827 12.943 1153 70.7181 1107.98 510.862
535 0 92.0716 13.8696 1277 69.5897 1107.83 509.085
536 0 95.113 13.8677 1319 70.1152 1108.03 507.391
537 0 96.2437 12.9879 1250 71.3 1108.27 507.884
538 0 96.0989 12.3727 1189 73.2052 1108.06 503.86
539 0 101.109 12.3629 1250 72.4656 1107.76 505.042
540 1 52.066 12.3689 644 71.0761 1107.32 525.172
541 0 57.065 12.6522 722 70.3213 1107.39 525.548
542 0 56.052 13.9157 780 69.0615 1107.55 525.899
543 0 58.0573 11.5403 670 72.6119 1107.25 523.566
544 0 58.0553 12.1781 707 71.6195 1107.33 523.279
545 0 60.0658 11.7538 706 72.1841 1107.6 522.695
546 0 62.0644 13.2926 825 70.0218 1107.39 520.525
547 0 63.0687 12.415 783 71.0447 1107.48 521.268
548 0 66.0252 13.1616 869 69.3751 1107.23 521.236
549 0 68.0202 12.805 871 70.0379 1107.15 519.01
550 0 70.0451 11.4498 802 70.7606 1107.68 520.428
551 0 71.0577 11.3147 804 71.3881 1107.66 518.766
552 0 73.1044 12.1333 887 71.0676 1107.09 514.64
553 0 74.0707 11.5565 856 72.0993 1107.59 515.97
554 0 76.0791 11.4749 873 72.7537 1107.81 514.525
555 0 81.0776 13.4809 1093 69.8298 1108.05 509.245
556 0 82.2288 12.6476 1040 71.0788 1107.48 510.081
557 0 84.0609 11.6939 983 71.8179 1107.86 512.717
558 0 86.0438 10.9712 944 73.1992 1107.24 510.589
559 0 89.0803 12.5841 1121 71.5183 1107.18 508.319
560 0 92.1218 13.3627 1231 70.1348 1107.73 508.267
561 1 48.0734 11.5448 555 71.7261 1106.37 527.78
562 0 51.0546 13.5345 691 69.055 1106.81 526.809
563 0 52.0766 11.5407 601 71.6256 1106.86 527.007
564 0 54.032 11.9559 646 71.113 1106.84 526.577
565 0 55.1554 12.3832 683 70.6208 1106.81 523.905
566 0 55.039 10.4108 573 72.9791 1107.77 524.363
567 0 60.1255 13.4718 810 68.3728 1107.79 523.074
568 0 60.0585 10.6729 641 72.2917 1107.25 523.616
569 0 63.0796 14.6165 922 67.2245 1107.21 521.013
570 0 64.1252 12.3508 792 70.226 1107.44 521.22
571 0 68.109 12.7443 868 69.8744 1107.33 518.455
572 0 69.0484 12.8026 884 69.2262 1107.76 518.699
573 0 70.1089 12.8657 902 70.4645 1107.66 518.134
574 0 74.1118 12.0629 894 71.3524 1107.8 517.346
575 0 77.0645 12.0808 931 71.5252 1107.39 516.777
576 0 78.0603 11.9651 934 71.3876 1107.05 516.271
577 0 81.1248 13.0046 1055 70.346 1106.83 513.797
578 0 83.0886 12.3964 1030 72.5272 1108.08 510.474
579 0 86.1688 12.1738 1049 72.4166 1108.15 510.766
580 0 88.1783 12.2933 1084 73.2758 1108.78 510.433
581 1 46.0282 12.2968 566 68.9841 1108.58 532.325
582 0 45.1042 11.551 521 73.071 1109.41 528.808
583 0 49.1361 12.8012 629 69.5246 1109.48 530.493
584 0 50.0952 11.7975 591 72.4315 1109.35 527.538
585 0 50.1014 11.2971 566 73.1254 1108.89 526.698
586 0 52.0868 11.4424 596 73.4211 1108.71 525.926
587 0 54.0187 11.4775 620 73.6887 1108.42 525.147
588 0 54.043 12.5271 677 70.8671 1108.2 526.012
589 0 57.0956 11.8573 677 72.7149 1108.34 523.25
590 0 56.0246 11.2272 629 74.2194 1108.12 521.839
591 0 61.0882 12.2937 751 72.0506 1107.56 520.485
592 0 65.0457 11.4535 745 72.4188 1108.03 519.835
593 0 65.0909 12.3059 801 71.7228 1107.83 518.172
594 0 68.1294 11.9625 815 71.5239 1107.89 519.125
595 0 70.0733 10.8458 760 73.6158 1108.01 515.717
596 0 75.1557 13.6251 1024 67.6064 1108.3 517.8
597 0 76.1656 11.9214 908 71.0826 1108.12 514.955
598 0 79.064 11.3452 897 71.8205 1108.84 514.311
599 0 79.1121 9.66982 765 74.3895 1108.78 513.75
600 1 39.1002 10.9974 430 70.7163 1109.19 530.267
601 0 42.0469 10.9402 460 70.1674 1107.8 529.944
602 0 43.0558 12.5419 540 68.3278 1108.32 530.9
603 0 43.0348 11.5488 497 70.5533 1108.59 527.954
604 0 41.0733 10.9073 448 72.7879 1108.65 527.147
605 0 46.0824 12.2389 564 69.8812 1108.65 528.057
606 0 48.143 11.8605 571 69.6935 1109.18 527.398
607 0 49.0249 10.872 533 71.4034 1109.13 526.448
608 0 46.0109 11.3886 524 72.1622 1109.23 523.811
609 0 49.0367 9.78859 480 72.8188 1108.69 525.01
610 0 52.0459 11.5859 603 69.7496 1108.76 525.197
611 0 54.0627 10.9133 590 70.083 1109.07 524.132
612 0 55.0433 13.0988 721 67.2899 1108.86 522.968
613 0 58.153 11.1602 649 67.9522 1108.37 525.002
614 0 59.0518 11.1936 661 68.5008 1108.55 521.424
615 0 61.178 12.7497 780 66.9346 1108.9 519.953
616 0 61.1301 12.3671 756 67.9868 1108.71 519.549
617 0 65.1217 13.1446 856 65.5432 1108.89 518.94
618 0 68.1374 11.4328 779 67.7933 1108.16 518.182
619 0 70.1123 12.3373 865 66.5618 1108.05 517.208
620 0 72.0721 11.5717 834 67.4424 1108 517.269
621 0 75.1265 11.6603 876 66.476 1107.86 516.549
622 0 78.1316 11.647 910 66.4835 1108.22 513.076
623 0 79.0758 10.7112 847 68.222 1108.09 511.425
624 0 82.2488 11.2585 926 67.4212 1108.39 510.572
625 0 83.1851 10.5548 878 68.762 1108.28 509.571
626 0 86.1172 11.9837 1032 66.6599 1108.29 507.845
627 0 88.0934 11.2948 995 67.8884 1107.8 504.096
628 0 93.1312 12.2408 1140 65.6623 1108.26 506.517
629 1 49.1752 10.6151 522 65.9674 1107.87 525.914
630 0 47.0255 10.6325 500 67.542 1108.13 524.072
631 0 51.1288 10.9919 562 65.911 1108.08 524.198
632 0 53.0534 11.9691 635 64.274 1108.01 523.373
633 0 51.08 11.3743 581 65.8055 1108.64 523.203
634 0 55.0611 11.1694 615 65.3171 1108.17 521.366
635 0 56.0971 11.1414 625 65.0496 1107.86 521.016
636 0 59.0384 11.8567 700 63.6157 1108.26 519.95
637 0 60.1058 10.1155 608 65.1431 1107.17 519.84
638 0 63.1182 11.7716 743 63.1884 1107.79 516.907
639 0 64.1267 10.9315 701 63.689 1107.85 517.986
640 0 66.0647 12.0791 798 62.5689 1107.64 513.375
641 0 71.1598 12.1557 865 61.7399 1107.95 515.56
642 0 72.063 11.3928 821 63.0767 1108.09 514.92
643 0 71.1327 11.4715 816 63.2255 1107.97 514.404
644 0 78.0828 11.7952 921 62.1477 1107.86 509.676
645 0 80.2187 12.6903 1018 61.0079 1108.53 509.918
646 0 83.1682 11.6631 970 62.3835 1107.67 509.33
647 0 83.2043 9.98746 831 64.2623 1108.48 510.017
648 1 44.0801 9.48275 418 63.0909 1108.89 528.23
649 0 48.0839 12.7069 611 59.1915 1108.39 526.825
650 0 48.0697 11.1713 537 60.8641 1108.53 527.972
651 0 48.1061 10.4768 504 62.5873 1109.03 526.76
652 0 50.0596 10.5474 528 62.4413 1108.31 522.449
653 0 51.0317 11.8946 607 60.8979 1108.46 523.193
654 0 53.1067 11.1662 593 61.6206 1107.82 522.705
655 0 56.0167 12.9604 726 59.4601 1107.4 520.074
656 0 56.1018 11.2474 631 60.8605 1108.1 522.35
657 0 58.0162 12.5655 729 60.3813 1108.72 518.849
658 0 61.0358 11.2065 684 61.3611 1108.62 519.117
659 0 64.0513 12.4119 795 59.7145 1107.87 517.933
660 0 63.1511 9.16848 579 63.6356 1108.2 518.235
661 0 66.0727 11.5327 762 61.252 1108.35 513.79
662 0 70.1856 12.1677 854 60.0433 1107.65 514.135
663 0 71.0834 12.2673 872 60.0883 1107.99 513.006
664 0 73.0297 11.064 808 61.4344 1107.45 514.835
665 0 77.0686 11.5092 887 60.2221 1108.1 514.065
666 0 81.0647 12.6566 1026 59.2271 1108.09 512.556
667 0 81.0595 11.9295 967 60.8625 1107.32 506.558
668 0 83.1193 10.7677 895 62.5642 1108.17 504.855
669 1 42.0552 10.51 442 61.8009 1107.99 525.866
670 0 45.0163 9.46323 426 61.6549 1108.8 527.641
671 0 47.052 9.11758 429 61.9534 1108.51 528.058
672 0 49.0693 11.7589 577 60.201 1108.68 523.735
673 0 50.0458 12.2488 613 60.1289 1108.63 523.855
674 0 53.106 12.3338 655 59.5267 1107.91 523.763
675 0 55.1051 11.3783 627 60.7464 1108.52 521.794
676 0 54.085 10.4835 567 62.134 1108.29 523.339
677 0 56.0374 10.7785 604 62.8311 1109.04 521.321
678 0 55.0184 11.7052 644 62.0295 1109.13 521.758
679 0 60.1016 12.9115 776 60.3763 1108.8 518.571
680 0 62.0878 11.5965 720 61.7333 1108.51 519.108
681 0 64.081 11.9692 767 61.9844 1109.14 516.146
682 0 64.1523 12.0339 772 62.1593 1109.15 516.478
683 0 68.0793 12.0888 823 61.4277 1109.48 516.881
684 0 69.0576 10.7447 742 63.279 1108.53 515.631
685 0 71.0518 11.4705 815 62.9018 1108.45 513.863
686 0 73.0673 11.989 876 62.016 1108.91 511.112
687 0 76.0804 11.7507 894 62.5615 1109.1 510.899
688 0 78.0931 11.6015 906 62.4912 1109 512.149
689 0 81.0613 12.4227 1007 61.8044 1109.44 510.762
690 0 82.1177 10.0953 829 64.3172 1109.32 508.45
691 0 88.0375 11.5519 1017 62.3963 1109.31 506.255
692 1 49.0312 10.8502 532 62.7312 1109.5 524.017
693 0 49.0823 8.57743 421 64.2708 1109 526.572
694 0 52.0852 10.9052 568 62.1937 1109.28 523.287
695 0 49.1082 9.22453 453 65.2075 1108.72 520.856
696 0 55.0639 12.7307 701 60.2725 1108.41 522.387
697 0 57.0462 9.48354 541 64.403 1109.13 521.224
698 0 57.1601 10.3044 589 63.4958 1109.09 521.256
699 0 59.0292 12.7395 752 60.8271 1109.09 519.195
700 0 61.0268 10.8968 665 62.3308 1108.4 517.961
701 0 63.1329 12.9568 818 60.2653 1108.63 515.737
702 0 65.077 11.8629 772 61.4171 1108.78 516.405
703 0 68.1068 13.2292 901 59.0211 1107.64 518.284
704 0 70.1614 11.5305 809 61.3572 1107.63 514.377
705 0 73.1404 12.6196 923 60.3359 1107.8 511.831
706 0 74.0965 11.9439 885 61.0983 1107.82 512.254
707 0 76.1046 10.4593 796 62.2487 1108.17 511.57
708 0 78.252 11.7824 922 61.4414 1108.58 509.661
709 0 80.2324 10.5942 850 62.2859 1108.8 508.793
710 0 83.1009 11.7809 979 61.192 1108.11 508.915
711 0 89.1831 12.6145 1125 60.1431 1108.33 507.276
712 1 41.0354 6.77463 278 65.5396 1108.05 528.475
713 0 43.0155 11.0425 475 62.0358 1108.61 526.219
714 0 46.0211 10.4952 483 63.2588 1107.86 523.516
715 0 48.0151 13.0792 628 59.6497 1108.35 523.799
716 0 48.0322 12.0336 578 61.2734 1108.9 522.253
717 0 50.0641 10.6863 535 62.8692 1108.02 522.493
718 0 52.1085 12.0326 627 61.4705 1108.37 521.035
719 0 53.1491 13.7349 730 59.1151 1108.78 520.596
720 0 55.0707 12.0391 663 60.7134 1108.58 520.667
721 0 56.1182 11.4401 642 61.5794 1107.88 519.125
722 0 59.0637 13.1892 779 59.3209 1108.25 517.822
723 0 59.0555 11.7008 691 61.4211 1107.9 515.498
724 0 64.0631 11.2858 723 60.8672 1107.87 515.198
725 0 66.0609 10.8839 719 61.3143 1107.94 515.142
726 0 67.0573 13.7345 921 58.3637 1108.32 512.693
727 0 69.1126 12.1541 840 59.7048 1108.29 512.344
728 0 73.0822 11.1381 814 60.5688 1107.97 511.059
729 0 73.1419 11.3068 827 60.2297 1108.26 510.012
730 0 77.1787 12.2443 945 58.9132 1108.37 508.895
731 0 80.059 10.9794 879 60.2901 1108.47 505.744
732 0 83.0999 11.1552 927 59.8662 1108.62 505.328
733 0 88.0678 13.5805 1196 56.954 1108.39 504.972
734 1 44.1231 11.4226 504 58.5337 1107.87 522.466
735 0 45.0092 12.4197 559 57.4329 1108.06 524.344
736 0 47.1172 12.8403 605 57.514 1108.61 521.268
737 0 49.0527 11.5794 568 58.5951 1108.41 522.447
738 0 50.1279 11.8098 592 58.1943 1108.77 520.419
739 0 53.0591 11.5908 615 58.1089 1109.02 520.847
740 0 55.1009 12.3047 678 57.4159 1109.67 519.802
741 0 54.154 11.0056 596 59.2852 1109.12 517.785
742 0 57.0941 11.9977 685 58.0365 1108.45 518.489
743 0 58.0913 11.2237 652 58.8083 1108.86 515.917
744 0 61.147 11.7913 721 57.6311 1107.67 516.714
745 0 63.0372 11.2156 707 58.2617 1108.09 515.477
746 0 62.0503 9.66958 600 60.0133 1108.62 512.617
747 0 65.0967 11.1373 725 58.8676 1108.6 511.102
748 0 69.1513 11.9593 827 57.6022 1108.81 510.398
749 0 71.0385 9.64265 685 59.9664 1109.12 508.958
750 0 73.2627 12.23 896 57.5145 1108.46 510.24
751 0 75.0385 12.6602 950 56.8695 1108.93 509.468
752 0 79.035 12.4375 983 57.3296 1108.04 505.705
753 0 82.1703 12.6688 1041 56.9145 1108.18 503.588
754 0 84.1957 10.9388 921 58.81 1107.9 500.896
755 0 89.1214 12.2978 1096 57.2172 1108.23 503.621
756 0 93.2512 13.1795 1229 56.0163 1108.11 502.569
757 0 94.1451 13.851 1304 56.2446 1107.6 499.488
758 0 97.0794 13.3602 1297 56.778 1108.11 498.894
759 0 99.156 12.4249 1232 58.0455 1107.88 496.723
760 0 102.137 11.935 1219 58.7769 1107.23 494.289
761 1 52.0676 11.5043 599 57.5359 1107.9 522.332
762 0 53.1609 10.8162 575 57.9287 1108.99 521.89
763 0 54.0405 11.2693 609 57.954 1109.02 522.054
764 0 59.0488 12.3965 732 57.0683 1108.89 516.623
765 0 59.1385 11.2448 665 58.1489 1108.38 518.589
766 0 63.115 10.8532 685 58.2467 1108.08 514.394
767 0 64.2761 13.7843 886 55.0169 1108.09 515.668
768 0 68.0478 12.4324 846 56.4397 1108.3 512.05
769 0 69.036 11.2405 776 57.9652 1108.44 514.459
770 0 72.139 12.1294 875 57.1794 1108.34 511.994
771 0 73.116 11.7895 862 57.9559 1109.13 509.822
772 0 78.0734 11.6813 912 57.568 1108.39 511.63
773 0 81.1885 12.6126 1024 56.5469 1108.22 510.332
774 0 79.1763 12.8953 1021 57.3644 1107.85 509.102
775 0 83.0883 11.1929 930 59.1989 1107.67 504.273
776 0 84.2589 9.83872 829 60.2606 1108.17 505.637
777 0 90.0994 12.2975 1108 58.1291 1107.87 502.645
778 0 92.1623 11.1 1023 59.3187 1108.61 499.313
779 1 46.0818 9.13592 421 58.9121 1108.45 526.539
780 0 48.027 10.619 510 58.9804 1108.31 523.547
781 0 49.0544 10.1724 499 58.8958 1108.1 523.349
782 0 53.1127 10.9955 584 57.4178 1107.86 524.474
783 0 52.1249 12.6427 659 57.0607 1108.48 521.719
784 0 55.0804 11.9099 656 57.3384 1108.45 520.784
785 0 55.0692 10.6048 584 58.6935 1108.63 518.817
786 0 58.0213 11.0132 639 58.2191 1108.48 518.072
787 0 59.0738 10.5123 621 58.4412 1108.21 515.646
788 0 63.0637 13.5577 855 54.7883 1108.24 518.151
789 0 65.0496 11.4836 747 57.4364 1107.54 516.024
790 0 66.0746 13.0459 862 56.0104 1107.14 515.357
791 0 67.0877 10.3447 694 59.1268 1107.49 513.643
792 0 72.1638 10.8365 782 57.7622 1107.11 512.922
793 0 77.0471 12.2522 944 55.7733 1107.89 512.257
794 0 76.0655 11.5821 881 57.1419 1108.32 506.918
795 0 80.105 13.2701 1063 55.3471 1108.16 509.72
796 0 83.1157 10.8523 902 58.1397 1108.11 507.574
797 0 85.1042 11.339 965 57.858 1107.74 504.491
798 0 87.2863 11.7544 1026 57.3908 1108.03 506.161
799 1 43.0859 10.862 468 57.3889 1108.28 524.769
800 0 46.0196 10.1044 465 57.4753 1108.35 526.264
801 0 48.0426 11.2817 542 56.6402 1107.68 524.817
802 0 49.057 10.3961 510 57.4941 1108.12 525.484
803 0 49.1289 10.4012 511 58.002 1107.8 524.454
804 0 51.0788 11.8836 607 56.9292 1107.85 521.369
805 0 55.0561 11.9333 657 55.6271 1107.91 522.717
806 0 53.1409 12.194 648 56.4722 1107.82 521.557
807 0 56.0698 11.8424 664 56.6521 1107.57 521.961
808 0 57.0747 11.8441 676 56.4645 1107.67 520.704
809 0 58.0612 11.6257 675 57.3615 1107.86 515.827
810 0 62.0628 10.9889 682 57.3182 1107.38 517.74
811 0 61.0613 10.6287 649 57.8505 1107.8 517.667
812 0 63.0433 11.8807 749 56.9893 1108.66 515.085
813 0 68.0916 12.116 825 55.9418 1108.54 515.702
814 0 69.1302 11.8761 821 57.0694 1108.04 514.22
815 0 74.1057 12.0234 891 56.193 1107.76 513.401
816 0 72.0574 12.726 917 56.5922 1108.19 511.858
817 0 74.0761 11.5287 854 58.0375 1108.31 510.345
818 0 78.0568 10.582 826 58.8184 1108.37 509.69
819 0 77.0477 10.5649 814 59.0491 1108.28 509.468
820 0 79.0636 11.6742 923 58.3196 1108.17 505.913
821 1 42.0311 9.54056 401 56.2843 1108.51 531.117
822 0 45.2223 10.1056 457 56.9344 1108 527.576
823 0 44.0875 10.4111 459 56.6863 1107.14 527.471
824 0 46.101 10.9325 504 56.6448 1107.39 525.2
825 0 45.022 10.084 454 58.6828 1107.44 525.009
826 0 49.1209 12.0315 591 55.4467 1107.61 525.743
827 0 51.0324 12.2863 627 55.1994 1108.07 525.714
828 0 51.0866 10.8639 555 56.7658 1108.3 522.914
829 0 50.0252 10.2748 514 57.6401 1108.21 524.344
830 0 56.1061 11.2644 632 55.9272 1108.42 522.859
831 0 56.0179 11.1214 623 56.4912 1107.95 521.559
832 0 56.2819 12.3308 694 55.889 1107.97 518.486
833 0 60.059 12.2713 737 55.4668 1108.38 518.927
834 0 59.0557 11.0404 652 57.0844 1108.47 520.169
835 0 64.1009 12.4491 798 55.1291 1108.38 519.074
836 0 64.0669 11.3631 728 57.1401 1108.24 515.5
837 0 65.0975 11.9359 777 56.1377 1108.56 516.672
838 0 67.1806 11.5658 777 57.0425 1108.54 516.915
839 0 70.1488 11.8177 829 56.8963 1108.54 512.842
840 0 71.194 10.7312 764 57.5406 1108.6 514.983
841 0 74.1714 10.2196 758 58.3786 1108.29 510.317
842 0 76.033 11.5739 880 57.1068 1109.07 513.633
843 0 78.0615 10.5302 822 58.4416 1109.1 512.54
844 0 79.1169 12.3235 975 57.1046 1109.19 507.445
845 0 84.0498 9.64905 811 58.4784 1108.67 510.515
846 0 86.21 12.0172 1036 57.193 1108.56 505.435
847 0 88.0754 9.35562 824 59.2197 1109.26 507.928
848 0 91.1342 10.501 957 58.9864 1108.67 505.239
849 1 46.1116 11.0818 511 57.2524 1108.67 526.56
850 0 49.1257 9.95406 489 58.5194 1108.73 524.143
851 0 49.0631 11.3323 556 57.4029 1108.86 522.63
852 0 49.0546 10.947 537 57.8845 1108.56 522.922
853 0 52.1354 11.988 625 56.5648 1108.97 523.683
854 0 52.086 10.0603 524 57.7614 1108.77 524.468
855 0 56.0391 9.3863 526 58.6939 1108.67 518.331
856 0 58.0563 11.041 641 56.9641 1108.71 519.257
857 0 58.1569 10.0074 582 58.0825 1108.31 516.474
858 0 62.0508 11.5873 719 56.4854 1108.59 517.067
859 0 64.0284 10.917 699 56.9328 1108.7 515.641
860 0 67.0813 12.537 841 55.459 1108.05 513.505
861 0 70.1351 12.3904 869 56.4085 1108.7 514.314
862 0 72.1669 9.89374 714 58.6331 1108.6 514.524
863 0 74.246 13.563 1007 55.2433 1107.11 511.217
864 0 75.0711 12.7213 955 56.0754 1107.76 511.208
865 0 79.2218 12.7364 1009 55.782 1107.92 507.939
866 0 81.1609 10.7071 869 57.8803 1107.76 505.516
867 0 84.1648 10.8596 914 57.5492 1107.97 503.631
868 0 86.0714 11.7112 1008 57.6458 1108.97 502.312
869 0 87.0928 12.5154 1090 56.722 1108.03 504.915
870 0 91.0782 13.0986 1193 56.4937 1107.59 501.702
871 1 46.1032 11.0405 509 57.2043 1107.63 524.896
872 0 46.1077 8.1982 378 60.3201 1107.9 522.466
873 0 51.1446 8.73993 447 59.8881 1108.24 524.025
874 0 51.0615 10.5167 537 58.5922 1107.75 520.592
875 0 53.0732 10.7776 572 58.2518 1107.67 523.031
876 0 55.1412 12.06 665 57.4451 1107.99 520.98
877 0 57.0986 9.47484 541 59.719 1108.65 519.497
878 0 59.1454 11.2773 667 57.6147 1107.68 519.541
879 0 61.126 11.9589 731 57.2107 1108.08 516.248
880 0 61.0248 10.2909 628 59.1768 1108.28 516.83
881 0 64.0754 12.3292 790 57.6278 1107.99 515.339
882 0 67.0463 11.4846 770 58.061 1108.14 518.639
883 0 70.1061 12.2101 856 57.2407 1108.51 517.509
884 0 71.1453 12.2004 868 58.0265 1108.07 514.954
885 0 72.0919 11.8737 856 59.0572 1108.18 512.88
886 0 76.097 11.8533 902 59.1208 1107.74 510.316
887 0 78.0903 12.1526 949 58.8736 1108.64 513.842
888 0 83.1652 12.7818 1063 58.3885 1108.53 508.34
889 1 40.0477 11.1367 446 58.9843 1108.84 530.61
890 0 44.0456 13.0774 576 57.3993 1108.67 528.681
891 0 45.1588 11.7585 531 58.533 1108.58 529.964
892 0 47.1321 11.1177 524 59.4752 1109.12 528.057
893 0 51.113 12.443 636 57.6132 1108.64 528.209
894 0 50.0709 11.1242 557 59.5045 1108.13 527.731
895 0 50.1049 13.0726 655 58.7099 1107.2 524.034
896 0 54.2333 13.2575 719 57.9666 1107.96 522.96
897 0 54.0757 9.7271 526 61.7985 1107.98 524.222
898 0 55.0746 11.3301 624 60.8125 1108.08 523.287
899 0 58.1728 11.0017 640 60.7484 1108.3 524.644
900 0 59.141 15.0826 892 56.9978 1108.6 520.754
901 0 62.1243 14.0847 875 57.9863 1108.25 522.029
902 0 64.2487 11.7979 758 60.7269 1108.51 520.715
903 0 64.1282 12.5998 808 60.9295 1108.67 518.191
904 0 66.2016 11.2535 745 62.1785 1108.86 519.569
905 0 67.1662 12.7296 855 61.2819 1108.28 517.108
906 0 71.0496 13.0472 927 60.4779 1108.73 517.51
907 0 72.1495 12.8067 924 61.118 1108.56 516.935
908 0 72.091 11.0971 800 63.6725 1108.07 517.211
909 0 74.1654 11.8519 879 63.7008 1108.86 515.542
910 0 77.1135 12.0601 930 63.4871 1108.84 515.392
911 0 80.1454 12.2902 985 63.5269 1108.96 513.748
912 0 82.2002 12.725 1046 63.6415 1108.89 513.764
913 0 84.2736 11.1304 938 64.4702 1109.39 515.46
914 0 84.3638 10.7985 911 65.7717 1108.85 513.612
915 1 133.35 11.2786 1504 66.0778 1108.11 490.533
916 1 92.2445 13.4859 1244 62.9863 1107.63 509.569
917 0 93.372 11.2668 1052 66.1017 1108.06 509.32
918 0 96.1623 14.1948 1365 62.9502 1108.08 506.877
919 1 49.2606 12.1395 598 64.3662 1107.6 528.318
920 0 51.1586 9.969 510 66.5157 1107.95 528.674
921 0 51.0902 12.3703 632 64.0902 1107.28 528.052
922 0 52.2237 11.8146 617 65.1021 1107.41 527.969
923 0 55.0657 11.4227 629 64.531 1107.27 528.221
924 0 54.1793 10.8898 590 66.5559 1107.31 524.537
925 0 58.0389 12.819 744 65.0269 1107.68 521.137
926 0 60.1209 12.2087 734 65.6785 1107.74 523.529
927 0 61.1949 12.501 765 65.9229 1107.89 521.128
928 0 63.2619 13.4994 854 64.7518 1107.61 521.504
929 0 64.1847 11.4202 733 68.1446 1107.09 518.387
930 0 68.1763 13.6704 932 64.8895 1107.32 520.378
931 1 37.0357 10.9894 407 67.5774 1107.73 532.477
932 0 37.0814 10.7871 400 69.08 1107.69 533.045
933 0 41.0966 10.8768 447 66.6398 1107.93 534.264
934 0 40.0814 11.302 453 68.5364 1107.93 532.181
935 0 40.0892 12.1728 488 68.1188 1108.31 530.27
936 0 44.1453 12.0058 530 67.0774 1108.14 531.138
937 0 44.14 11.826 522 68.5 1107.93 530.155
938 0 45.0773 11.5357 520 69.5769 1108.3 528.84
939 0 48.1417 12.8787 620 67.1064 1108.31 529.155
940 0 46.1207 11.4916 530 70.8283 1108.09 527.54
941 0 49.0585 13.1883 647 68.2798 1107.84 527.309
942 0 51.0363 12.9516 661 68.8608 1108.18 528.141
943 0 51.0851 12.3324 630 70.8889 1107.92 525.51
944 0 53.237 12.8294 683 70.6384 1108.99 524.665
945 0 55.06 11.9143 656 71.2988 1108.61 525.346
946 0 56.1584 11.6813 656 72.0808 1108.87 522.255
947 0 58.0569 11.0409 641 72.5569 1108.52 522.785
948 0 60.2639 12.8269 773 70.6197 1109.23 519.942
949 0 62.1157 11.3015 702 71.4957 1109.49 523.338
950 0 64.0622 14.0801 902 68.8093 1108.72 518.798
951 0 68.1271 13.4161 914 68.7604 1108.9 518.973
952 0 69.0358 12.3414 852 70.2077 1109.85 517.561
953 0 70.0481 13.7049 960 68.1646 1109.22 516.503
954 0 72.0857 13.0955 944 69.2542 1108.93 514.898
955 0 75.064 11.5901 870 70.6184 1108.74 513.724
956 0 78.1132 13.8773 1084 67.6199 1108.18 514.344
957 0 80.0945 12.273 983 69.6887 1109.16 511.76
958 1 42.1713 12.0224 507 67.8008 1108.66 531.466
959 0 43.0326 12.6183 543 68.6611 1108.65 528.216
960 0 45.0786 14.0643 634 66.5789 1108.44 527.101
961 0 45.0642 10.6958 482 70.8402 1109 526.851
962 0 48.015 12.3711 594 66.9091 1109.09 529.586
963 0 48.1005 11.5175 554 69.4477 1109.21 525.63
964 0 50.1381 12.7647 640 67.3062 1109.23 526.767
965 0 51.042 11.9901 612 68.4706 1108.11 525.062
966 0 53.0246 12.2962 652 68.3543 1107.97 523.094
967 0 56.0341 12.4745 699 67.1588 1108.46 523.448
968 0 57.1361 11.5864 662 67.4894 1108.42 525.356
969 0 59.0648 12.8842 761 66.4047 1108.74 522.769
970 0 59.0917 12.0491 712 67.8357 1108.6 521.515
971 0 64.1153 12.9142 828 66.8925 1108.9 518.114
972 0 65.1135 11.9484 778 68.0964 1108.67 518.97
973 0 65.131 11.07 721 69.6533 1108.54 515.811
974 0 68.2058 13.4153 915 66.2131 1108.56 517.553
975 0 69.1166 12.0087 830 68.5831 1108.3 514.617
976 0 75.0599 12.3635 928 67.416 1108.34 515.584
977 0 74.0569 10.627 787 70.2249 1108.14 514.936
978 0 78.1512 12.1943 953 69.2707 1108.45 511.644
979 0 80.0989 13.371 1071 68.4211 1109.11 511.277
980 0 82.1106 13.2504 1088 69.0432 1108.26 507.198
981 0 84.1313 13.0748 1100 68.7945 1108.62 511.882
982 0 86.1722 12.2197 1053 70.1643 1108.94 510.722
983 1 44.117 11.2655 497 72.2173 1108.63 528.994
984 0 47.0737 11.089 522 72.4981 1108.67 527.306
985 0 48.102 12.8685 619 71.3635 1109.07 525.031
986 0 51.0677 13.9227 711 68.2996 1109.51 526.349
987 0 53.054 12.7606 677 70.644 1108.72 526.513
988 0 52.0691 12.4642 649 70.6425 1108.95 526.9
989 0 56.0531 12.2027 684 71.5804 1108.65 523.525
990 0 57.1043 13.0288 744 70.3078 1108.18 524.457
991 0 58.0529 12.9537 752 70.5984 1108.59 522.219
992 0 61.1255 14.3312 876 68.6678 1108.23 521.606
993 0 64.0375 13.1485 842 69.6021 1109.19 521.025
994 0 67.0384 14.0666 943 68.6935 1108.87 519.625
995 0 69.0511 13.3235 920 69.4533 1108.87 517.663
996 0 69.1852 13.1242 908 70.3381 1108.94 518.664
997 0 72.1279 13.7118 989 70.178 1109.14 516.2
998 0 77.0818 14.4262 1112 68.7374 1108.5 516.677
999 0 79.3092 15.9881 1268 66.765 1107.81 514.507
1000 0 81.1687 12.5664 1020 71.1431 1107.97 514.202
1001 0 84.1894 13.2677 1117 70.1486 1108.46 514.776
1002 1 43.0524 13.379 576 68.8698 1108.87 532.347
1003 0 44.0576 12.9603 571 70.3117 1109.42 531.886
1004 0 46.0786 13.5204 623 69.6244 1108.8 530.4
1005 0 46.0572 12.8102 590 71.0814 1108.63 530.402
1006 0 48.107 13.1998 635 71.285 1108.1 529.753
1007 0 48.1102 14.446 695 69.9338 1108.41 529.794
1008 0 52.0824 11.3282 590 72.4441 1108.02 529.025
1009 0 52.1761 11.6528 608 72.8273 1107.9 529.319
1010 0 54.0616 11.8013 638 72.9028 1108.63 527.503
1011 0 56.1031 13.2435 743 70.9946 1108.8 528.126
1012 0 58.1452 12.7096 739 72.0244 1108.93 527.123
1013 0 61.2274 15.3853 942 68.0584 1108.88 524.055
1014 0 61.2612 13.4833 826 70.7627 1108.08 525.494
1015 0 64.1099 12.6657 812 71.4323 1108.62 522.466
1016 0 65.1899 12.4559 812 72.1158 1108.09 523.791
1017 0 70.1874 13.122 921 70.3149 1108.01 523.121
1018 0 73.1388 14.1512 1035 69.0657 1108.32 520.672
1019 0 73.5719 14.1222 1039 69.3234 1107.95 520.142
1020 0 75.4364 12.3415 931 72.2825 1107.72 519.02
1021 0 79.1786 12.857 1018 71.002 1107.79 518.042
1022 0 80.0611 13.4023 1073 71.1864 1107.67 513.685
1023 0 84.2519 13.5071 1138 71.007 1107.79 514.576
1024 1 44.0649 11.9143 525 71.3543 1107.61 533.89
1025 0 45.2418 12.1127 548 71.3212 1108.25 532.801
1026 0 47.0997 13.3759 630 69.8968 1108.15 532.976
1027 0 48.1626 14.0981 679 69.1326 1107.85 530.448
1028 0 47.0866 11.9355 562 72.6922 1106.7 530.532
1029 0 51.1907 12.9516 663 69.7858 1107.65 531.374
1030 0 51.133 12.7511 652 70.6549 1107.16 529.791
1031 0 52.0646 13.3104 693 70.1299 1107.14 529.83
1032 0 54.2952 13.2977 722 69.6898 1106.87 528.432
1033 0 56.4027 10.5491 595 72.1563 1107.23 529.498
1034 0 58.1217 11.3383 659 71.1836 1107.15 528.202
1035 0 62.0875 13.7226 852 67.0974 1107.4 527.016
1036 0 62.1824 12.8975 802 69.0037 1107.12 524.961
1037 0 63.4348 14.1563 898 67.461 1106.46 524.561
1038 0 68.165 13.746 937 66.5699 1106.23 524.889
1039 0 66.0642 11.3526 750 70.076 1105.77 525.508
1040 0 70.1302 13.0899 918 68.9161 1105.91 519.821
1041 0 73.193 13.1297 961 68.2737 1105.67 519.815
1042 0 77.3646 13.6367 1055 67.7896 1106.64 519.782
1043 0 76.1267 12.5843 958 69.2964 1106.3 517.925
1044 0 79.1693 12.8459 1017 69.1455 1106.27 514.839
1045 1 38.0463 12.6425 481 68.3576 1106.11 535.809
1046 0 39.0935 11.2039 438 69.8493 1106.08 536.683
1047 0 39.0299 13.8356 540 67.6482 1106.58 535.026
1048 0 43.1233 13.2411 571 68.2609 1106.85 534.345
1049 0 43.147 12.1445 524 70.0267 1107.59 534.63
1050 0 42.0407 12.4641 524 70.1794 1106.59 535.107
1051 0 45.102 13.3697 603 68.8889 1106.84 535.091
1052 0 47.2106 14.7848 698 67.2794 1106.41 532.213
1053 0 48.1226 13.3409 642 69.9704 1106.76 532.268
1054 0 49.0798 12.4084 609 71.642 1106.56 530.737
1055 0 51.0946 13.1716 673 69.8484 1106.76 533.514
1056 0 52.1539 13.6902 714 69.6106 1107.29 531.209
1057 0 53.1192 13.9874 743 69.109 1107.13 531.814
1058 0 58.1044 14.7149 855 67.0561 1107.21 530.131
1059 0 58.3166 14.6099 852 68.1878 1106.81 528.343
1060 0 59.1483 12.5955 745 70.2483 1106.78 530.177
1061 0 60.1154 12.0601 725 71.7462 1107.26 528.363
1062 0 62.064 12.3582 767 71.7536 1106.5 526.023
1063 0 67.1215 14.2875 959 67.8311 1107.17 529.153
1064 0 67.0978 12.7724 857 70.6931 1107.34 526.688
1065 0 69.1155 13.1808 911 71.022 1107.08 524.899
1066 0 73.248 12.956 949 70.6786 1107.96 523.316
1067 0 75.2319 14.4752 1089 68.6758 1107.95 521.014
1068 0 78.2443 15.3621 1202 67.1614 1107.96 521.357
1069 0 80.0995 14.1949 1137 68.9543 1108.02 519.916
1070 0 83.2244 15.0677 1254 68.0391 1108.11 521.167
1071 1 38.0931 13.3883 510 70.6078 1107.99 539.094
1072 0 40.0195 12.5689 503 71.1789 1107.87 540.33
1073 0 42.0777 13.4751 567 69.7601 1107.74 539.071
1074 0 42.177 12.9454 546 71.337 1107.69 537.137
1075 0 44.1201 13.2819 586 70.4044 1107.38 537.128
1076 0 45.0469 14.3406 646 69.7415 1108.09 536.135
1077 0 47.0177 14.5477 684 68.5453 1107.73 535.658
1078 0 49.3397 14.4306 712 68.4031 1107.74 535.053
1079 0 50.0288 13.932 697 70.3773 1107.27 533.815
1080 0 51.1334 13.8853 710 70.4606 1107.53 532.032
1081 0 55.1025 15.3351 845 66.8201 1106.96 533.787
1082 0 55.0679 14.019 772 69.4495 1107.02 533.038
1083 0 57.1053 14.6922 839 68.6973 1107.46 530.646
1084 0 57.1666 13.0846 748 70.9305 1107.35 529.659
1085 0 60.0498 14.4713 869 69.3118 1107.52 528.937
1086 0 63.1312 14.6045 922 68.3091 1107.56 528.138
1087 0 66.0951 15.2659 1009 67.0743 1108.09 527.354
1088 0 66.0937 14.5853 964 68.3745 1107.18 526.67
1089 0 69.0711 14.2607 985 68.2325 1107.95 527.9
1090 0 71.183 13.079 931 70.4458 1107.75 525.424
1091 0 72.1368 12.6842 915 72.0131 1107.85 521.141
1092 0 76.1508 14.4056 1097 69.051 1107.7 522.571
1093 0 78.0996 13.8285 1080 70.0204 1107.61 520.741
1094 1 36.0323 12.017 433 71.7483 1108.46 538.344
1095 0 38.083 12.6303 481 71.1414 1108.5 537.726
1096 0 41.1997 13.4467 554 69.0866 1108.15 537.852
1097 0 39.1218 13.2407 518 71.0869 1108.22 537.05
1098 0 43.176 15.101 652 67.0813 1107.3 536.997
1099 0 43.2294 13.5324 585 69.8086 1107.95 535.116
1100 0 44.1298 14.7519 651 68.5131 1107.62 534.983
1101 0 45.157 14.97 676 68.5814 1107.06 533.584
1102 0 47.1189 15.1744 715 67.9035 1107.31 533.938
1103 0 48.3409 14.4805 700 68.4686 1107.31 533.829
1104 0 47.1259 14.005 660 70.7136 1107.23 530.408
1105 0 50.317 15.3626 773 67.925 1107.51 532.035
1106 0 52.1583 13.1906 688 70.7049 1106.8 530.965
1107 0 53.2236 12.9078 687 71.0189 1106.65 529.623
1108 0 56.5677 14.0186 793 69.3569 1108.03 528.435
1109 0 60.3762 15.039 908 67.206 1107.91 527.794
1110 0 58.1387 15.1878 883 68.3024 1108.4 526.967
1111 0 59.5172 14.0464 836 70.2464 1108.26 526.838
1112 0 62.3508 14.6911 916 68.9542 1108.35 524.306
1113 0 64.3477 13.2561 853 71.2685 1108.18 525.278
1114 0 68.4289 15.0521 1030 68.5505 1107.53 521.658
1115 0 69.3 14.8485 1029 69.4966 1107.83 521.115
1116 0 70.5012 13.7019 966 71.383 1107.86 519.769
1117 0 73.3002 15.3478 1125 68.992 1108.58 519.749
1118 0 73.1729 13.7073 1003 72.3141 1108.35 518.057
1119 0 79.3854 15.2043 1207 69.2154 1107.6 518.265
1120 0 80.2778 15.7453 1264 69.197 1108.15 515.65
1121 0 82.3565 15.0322 1238 70.6292 1108.35 515.21
1122 0 84.3559 16.5845 1399 68.4796 1107.88 515.552
1123 1 39.276 11.5592 454 75.1167 1108.18 535.317
1124 0 44.1955 13.1688 582 70.9794 1108.6 535.634
1125 0 43.2033 12.8231 554 74.0542 1108.7 532.854
1126 0 45.3097 13.1981 598 74.2408 1108.18 532.294
1127 0 49.1489 14.6087 718 71.1602 1108.18 533.685
1128 0 49.4181 14.0637 695 72.6604 1107.72 531.248
1129 0 50.3572 14.7347 742 70.9043 1108.4 532.837
1130 0 51.2879 14.4283 740 72.477 1108.56 529.574
1131 0 53.3815 13.8625 740 73.1946 1107.67 529.003
1132 0 53.4216 13.1595 703 74.8649 1108.37 526.276
1133 0 56.1473 13.144 738 73.5827 1107.95 530.183
1134 0 59.1434 13.9661 826 72.2433 1107.62 527.188
1135 0 61.2308 13.9636 855 72.669 1108.37 524.302
1136 0 63.421 13.1975 837 73.2951 1108.31 526.084
1137 0 64.1621 14.3387 920 72.0946 1107.99 524.18
1138 0 67.1525 13.313 894 73.8624 1107.78 520.07
1139 0 70.2539 14.3622 1009 71.6868 1108.08 521.34
1140 0 72.0973 15.8952 1146 69.8918 1107.96 520.93
1141 0 75.5558 14.8235 1120 70.8732 1108.3 517.872
1142 0 76.3286 14.5162 1108 71.3005 1108.35 518.866
1143 0 79.1058 13.8296 1094 71.8665 1107.95 516.635
1144 0 82.2104 14.0615 1156 71.5363 1108.04 514.998
1145 0 87.1753 14.2586 1243 70.7562 1107.81 514.253
1146 0 89.1922 15.5731 1389 69.0554 1108.61 513.127
1147 0 92.3603 13.7072 1266 70.7741 1107.81 512.54
1148 1 46.1384 12.4842 576 72.2951 1107.64 533.212
1149 0 48.1404 13.8553 667 70.5292 1107.76 533.472
1150 0 48.1347 13.6284 656 70.9482 1107.89 532.989
1151 0 49.2059 12.905 635 72.926 1107.73 530.458
1152 0 51.2402 14.4223 739 70.5507 1107.24 530.989
1153 0 53.1985 15.4328 821 68.3995 1107.69 531.508
1154 0 54.4777 14.74 803 70.0398 1108.13 530.605
1155 0 56.2155 14.9247 839 69.615 1108.32 528.302
1156 0 55.341 13.4259 743 72.3405 1107.89 525.9
1157 0 59.307 14.3154 849 69.9329 1108.37 528.11
1158 0 62.1734 13.6393 848 71.1875 1108.38 525.376
1159 0 63.4734 14.3682 912 70.2741 1108.73 525.749
1160 0 64.3635 13.9209 896 71.3538 1108.14 523.191
1161 0 67.3783 13.4465 906 71.5265 1108.19 524.892
1162 0 69.4689 14.0207 974 70.5503 1107.73 522.062
1163 0 70.3955 14.2623 1004 70.763 1107.87 521.558
1164 0 71.2115 13.832 985 72.13 1107.69 519.761
1165 0 75.193 15.653 1177 69.1342 1107.76 517.29
1166 0 77.3341 14.8447 1148 70.5375 1107.73 516.225
1167 0 78.0681 14.3336 1119 71.7149 1108.45 515.34
1168 0 84.1651 14.5904 1228 70.3404 1108.69 516.905
1169 0 84.1683 13.4611 1133 72.6646 1108.1 512.145
1170 0 86.1159 14.5037 1249 71.0777 1108.05 513.231
1171 0 88.3496 13.6277 1204 72.5731 1108.16 511.761
1172 0 91.491 13.4767 1233 72.8929 1107.79 508.211
1173 0 95.1577 14.4602 1376 71.516 1107.7 510.235
1174 1 48.1138 12.99 625 72.5792 1108.2 531.294
1175 0 48.3515 11.6646 564 74.4255 1108.18 530.858
1176 0 50.2089 12.8862 647 73.5734 1108.25 528.269
1177 0 52.249 13.761 719 72.8178 1108.69 528.252
1178 0 55.3246 13.7371 760 72.1237 1108.96 531.029
1179 0 53.2056 12.6114 671 75.7064 1108.7 526.66
1180 0 56.2651 11.7302 660 75.4742 1107.72 529.42
1181 0 58.3649 13.3642 780 74.4897 1107.38 527.044
1182 0 61.3487 13.4477 825 74.2812 1108.25 525.556
1183 0 64.4077 14.6722 945 72.5905 1107.95 525.11
1184 0 66.2632 14.5933 967 72.4654 1108.31 525.847
1185 0 67.4956 13.3194 899 74.8231 1107.94 523.851
1186 0 67.4241 14.5794 983 74.527 1108 521.831
1187 0 72.3428 15.4542 1118 72.0411 1107.69 520.437
1188 0 73.3332 14.0046 1027 75.2483 1107.8 519.387
1189 0 76.2217 14.1298 1077 75.2516 1108.34 518.564
1190 0 77.348 13.0837 1012 77.5079 1108.03 515.868
1191 0 83.2288 15.0789 1255 73.6542 1107.87 517.261
1192 0 85.1936 15.365 1309 73.2017 1107.83 517.905
1193 0 86.2559 14.0976 1216 75.653 1108.49 516.104
1194 0 91.197 14.6935 1340 74.2881 1108.61 514.548
1195 0 93.3202 15.4736 1444 73.0956 1108.48 511.838
1196 1 47.2976 13.3622 632 74.6519 1107.91 533.533
1197 0 48.3524 12.2641 593 77.253 1107.46 534.214
1198 0 51.3883 14.478 744 74.3105 1107.29 532.552
1199 0 51.1832 14.4383 739 74.5399 1107.64 533.599
1200 0 53.1156 15.2498 810 73.4222 1108.62 532.049
1201 0 56.0769 16.2455 911 61.3128 1107.96 534.964
1202 0 56.3227 14.9496 842 75.1449 1108.27 530.071
1203 0 56.297 13.3222 750 77.728 1108.5 530.349
1204 0 60.3147 15.071 909 75.0946 1107.59 527.393
1205 0 61.1864 13.4507 823 77.1823 1107.53 529.191
1206 0 61.2158 14.114 864 78.2882 1107.65 525.865
1207 0 66.2359 14.1162 935 76.7166 1107.66 525.311
1208 0 67.2552 14.4822 974 77.3306 1108.57 523.498
1209 0 70.116 14.476 1015 76.9764 1108.62 523.762
1210 0 71.113 14.8918 1059 76.577 1108.3 522.283
1211 0 73.2091 14.5201 1063 77.5165 1107.7 521.528
1212 0 73.2061 13.9333 1020 78.7314 1108 522.661
1213 0 78.4294 15.6829 1230 74.9878 1108 521.804
1214 0 79.381 14.5249 1153 78.1197 1108.75 517.173
1215 0 81.129 14.2859 1159 78.2364 1108.1 516.687
1216 0 84.2306 15.3863 1296 75.9892 1108.38 517.325
1217 0 87.1154 17.0004 1481 73.7549 1108.44 513.735
1218 0 89.1422 14.1908 1265 77.9257 1107.9 513.013
1219 0 94.1841 16.0006 1507 74.4094 1107.91 511.693
1220 0 97.1189 15.1773 1474 75.2049 1107.71 512.345
1221 0 97.1145 14.313 1390 77.6791 1107.9 507.447
1222 0 101.21 13.9414 1411 77.4996 1108.06 508.047
1223 0 104.524 14.8292 1550 76.1032 1107.76 505.546
1224 0 109.27 14.7616 1613 75.421 1108.44 504.729
1225 0 112.328 15.3657 1726 75.0365 1109.12 500.601
1226 0 115.256 15.2877 1762 74.7821 1109.17 501.952
1227 0 118.182 13.6738 1616 77.3806 1109.32 499.227
1228 0 122.316 14.7569 1805 75.6399 1108.83 497.437
1229 0 126.204 15.7126 1983 74.1488 1108.17 496.829
1230 0 132.229 15.4278 2040 74.3564 1108.61 494.688
1231 0 136.116 14.8256 2018 75.3523 1108.45 493.12
1232 0 141.236 15.1094 2134 74.537 1108.92 491.286
1233 0 144.758 14.3273 2074 75.8939 1108.4 488.018
1234 0 145.208 14.8201 2152 76.2607 1108.28 482.478
1235 0 151.354 13.3329 2018 78.3484 1108.17 482.898
1236 0 159.204 16.3941 2610 73.0153 1108.03 481.012
1237 1 70.1033 13.1235 920 78.075 1108.31 523.39
1238 0 73.2023 14.2209 1041 76.1806 1108.11 520.098
1239 0 75.0733 14.7056 1104 75.0018 1108.12 520.841
1240 0 76.5114 16.0107 1225 73.5674 1108.56 519.016
1241 0 76.1957 13.5834 1035 78.2454 1108.2 516.488
1242 0 82.3587 15.7968 1301 73.4719 1108.48 517.822
1243 0 83.2207 15.2606 1270 74.037 1109.5 517.846
1244 0 85.3666 14.1742 1210 76.1975 1109.12 514.148
1245 0 88.2917 14.5087 1281 74.9446 1108.41 514.317
1246 0 92.3882 14.4932 1339 74.8163 1107.93 510.969
1247 0 94.2025 14.4158 1358 74.8284 1108.71 509.175
1248 0 96.2118 13.9484 1342 75.9449 1109.19 507.16
1249 0 101.564 14.7197 1495 74.515 1108.45 504.736
1250 0 105.367 14.2455 1501 75.2572 1108.62 503.83
1251 0 107.222 14.2509 1528 75.2192 1109.02 501.853
1252 0 109.242 12.9163 1411 77.146 1108.6 501.076
1253 1 67.1615 14.7257 989 73.7674 1109.31 524.956
1254 0 67.302 12.912 869 78.8377 1108.55 521.077
1255 0 72.572 14.3719 1043 75.743 1108.73 520.054
1256 0 74.1754 14.2365 1056 75.767 1108.45 519.547
1257 0 77.3613 14.1544 1095 76.0621 1108.44 518.552
1258 0 79.2359 13.2011 1046 77.087 1108.94 516.731
1259 0 81.2363 13.7131 1114 76.4865 1108.42 516.592
1260 0 82.3137 13.8738 1142 76.289 1108.91 515.081
1261 0 88.7233 15.2384 1352 73.2308 1107.48 511.951
1262 0 92.1602 14.1601 1305 74.1234 1107.6 513.487
1263 0 93.2901 14.0529 1311 74.6308 1107.89 510.108
1264 0 95.4291 14.0733 1343 74.5949 1107.52 509.497
1265 0 99.1723 14.3488 1423 73.967 1108.18 506.537
1266 0 102.319 14.2789 1461 73.6242 1108.78 507.077
1267 0 105.233 15.0713 1586 72.4187 1108.82 504.629
1268 1 53.2617 12.3165 656 74.2104 1108.68 530.354
1269 0 53.2317 14.4839 771 72.6304 1108.47 527.957
1270 0 55.4095 14.3658 796 72.9359 1107.88 528.293
1271 0 57.3835 14.4118 827 72.8138 1107.54 526.519
1272 0 58.3461 13.4713 786 73.8791 1108.02 526.609
1273 0 62.2819 13.6316 849 72.3204 1107.88 527.638
1274 0 64.4147 15.7418 1014 69.8955 1107.68 525.833
1275 0 63.5186 12.9411 822 74.6083 1108.01 526.72
1276 0 64.2987 13.5773 873 74.2302 1108.07 523.891
1277 0 69.3864 14.9453 1037 71.1446 1109 523.79
1278 0 71.0954 14.3891 1023 72.3304 1108.36 522.08
1279 0 72.3323 14.4334 1044 72.3946 1107.89 522.68
1280 0 75.2702 14.8399 1117 71.974 1108.65 519.532
1281 0 75.2524 12.8102 964 74.9813 1107.36 517.579
1282 0 79.4044 13.5887 1079 73.1752 1108.33 517.108
1283 0 81.1863 13.4875 1095 73.0941 1107.85 516.698
1284 0 85.2562 14.3919 1227 70.6813 1108.04 516.821
1285 0 90.2318 14.3852 1298 70.4376 1108.92 515.351
1286 0 92.3153 14.7538 1362 70.3752 1108.85 512.828
1287 0 92.1373 12.3077 1134 73.4092 1109.24 513.246
1288 1 46.1807 14.0102 647 69.9845 1108.11 533.989
1289 0 47.4572 12.7062 603 72.3366 1108.73 533.983
1290 0 47.3229 13.2917 629 71.9364 1108.76 533.391
1291 0 51.2115 14.8404 760 68.5224 1109.32 532.938
1292 0 50.4793 14.4416 729 70.2936 1108.38 532.318
1293 0 51.2014 15.0972 773 69.8008 1108.09 530.616
1294 0 52.0719 14.2111 740 70.1716 1107.27 530.872
1295 0 55.4258 14.7224 816 69.3873 1107.89 529.113
1296 0 56.3305 12.9592 730 71.7466 1108.3 528.781
1297 0 56.1688 11.145 626 72.8195 1107.64 530.457
1298 0 59.2337 13.3877 793 70.4212 1107.56 528.2
1299 0 62.3428 14.5005 904 68.4834 1108.06 527.102
1300 0 63.2326 13.9169 880 68.7125 1108.38 528.282
1301 0 64.2624 13.0714 840 71.1464 1108.12 523.136
1302 0 68.4129 15.4357 1056 67.3116 1108.72 525.678
1303 0 68.2073 14.1041 962 69.7027 1107.75 524.439
1304 0 70.375 14.0675 990 69.498 1107.64 524.08
1305 0 75.4484 14.7253 1111 69.0009 1108.74 520.348
1306 0 78.2842 14.0641 1101 69.317 1108.29 520.22
1307 0 78.4914 11.3516 891 73.3098 1108.77 520.761
1308 0 83.3233 14.3297 1194 69.3082 1108.43 518.846
1309 0 82.2412 14.2386 1171 70.1597 1108.07 515.875
1310 0 86.2637 11.6851 1008 72.8839 1108.33 515.497
1311 0 88.1768 13.1781 1162 71.7151 1108.78 512.324
1312 0 90.1864 13.9932 1262 71.1822 1108.64 510.227
1313 1 45.2279 12.0943 547 73.4625 1108.52 532.952
1314 0 47.3866 14.2656 676 70.0577 1108.72 531.962
1315 0 49.1965 14.2286 700 69.7529 1108.34 532.693
1316 0 48.1022 13.014 626 73.1214 1108.17 532.272
1317 0 52.0697 14.2885 744 71.1962 1108.3 531.653
1318 0 52.1882 15.1567 791 70.7598 1108.19 529.286
1319 0 53.223 13.4152 714 73.958 1108.6 530.139
1320 0 57.1174 16.1072 920 69.2533 1108.68 530.52
1321 0 56.2844 13.5029 760 74.2329 1108.86 529.797
1322 0 61.2585 15.0673 923 71.1788 1108.51 529.656
1323 0 62.0757 15.5133 963 71.5981 1107.66 528.355
1324 0 63.1841 13.9434 881 74.8831 1108.07 526.948
1325 0 67.2385 14.0991 948 73.654 1108.32 527.195
1326 0 68.2982 14.627 999 73.5405 1108.49 524.764
1327 0 71.1335 13.0318 927 75.7745 1108.06 522.159
1328 0 72.1761 14.5478 1050 74.4476 1108.65 520.065
1329 0 74.1938 14.1117 1047 74.5138 1108.49 520.563
1330 0 76.2141 14.0788 1073 74.672 1108.65 520.936
1331 0 78.1099 13.609 1063 75.6726 1108.6 519.43
1332 0 82.2366 14.8839 1224 72.884 1108.18 519.864
1333 0 84.0877 13.6167 1145 75.5843 1107.97 517.39
1334 0 88.1978 15.59 1375 72.7367 1108.71 516.308
1335 1 46.2773 17.7841 823 68.3001 1108.85 536.648
1336 0 45.2178 14.0874 637 75.1115 1109.32 534.085
1337 0 46.2913 14.1279 654 74.6376 1108.72 535.312
1338 0 46.1083 12.8393 592 77.6284 1108.45 533.725
1339 0 51.2011 13.7106 702 74.5385 1108.15 534.349
1340 0 51.2172 14.7216 754 73.374 1108.16 533.865
1341 0 53.225 14.2414 758 74.3008 1108.33 531.633
1342 0 53.257 13.1626 701 76.214 1108.67 531.054
1343 0 56.2047 14.0913 792 74.2361 1108.01 530.252
1344 0 57.2622 15.9093 911 71.6004 1108.55 528.694
1345 0 61.1223 14.5119 887 73.2041 1107.42 528.083
1346 0 61.2052 14.868 910 72.9099 1107.39 528.254
1347 0 64.2641 14.5338 934 73.6991 1107.93 524.616
1348 0 66.1642 14.7361 975 72.7405 1108.52 526.543
1349 0 69.2394 15.1648 1050 72.3848 1108.9 523.275
1350 0 69.2365 15.1654 1050 72.8848 1108.54 523.119
1351 0 71.2823 13.4115 956 75.7542 1109.4 522.064
1352 0 73.2129 12.9485 948 75.4251 1108.49 522.891
1353 0 76.267 13.6101 1038 74.4297 1107.72 520.451
1354 0 79.3252 13.3249 1057 75.2904 1108.29 516.783
1355 0 80.2125 13.564 1088 75.33 1107.9 515.835
1356 1 40.1516 14.0966 566 73.4823 1107.72 536.562
1357 0 40.1793 13.6388 548 75.5566 1108.5 535.119
1358 0 44.2289 14.131 625 72.7808 1108.98 536.56
1359 0 45.0395 13.8101 622 72.1978 1108.73 537.32
1360 0 44.1216 12.9415 571 75.2925 1108.97 534.715
1361 0 47.3906 14.0534 666 73.8363 1109.15 533.563
1362 0 48.2695 13.9633 674 74.0757 1108.38 533.549
1363 0 48.0516 14.5469 699 74.1588 1108.17 532.062
1364 0 50.1153 15.3247 768 72.5352 1108.5 532.091
1365 0 51.2238 12.5528 643 76.1229 1108.75 531.341
1366 0 51.2825 14.0984 723 75.5961 1108.54 527.481
1367 0 54.1318 13.3009 720 75.4514 1108.64 529.183
1368 0 57.2355 15.0781 863 72.5434 1108.05 527.9
1369 0 58.2947 14.9585 872 72.5528 1108.64 529.056
1370 0 58.151 14.7891 860 74.0849 1108.65 526.698
1371 0 61.1109 13.9255 851 74.2174 1108.88 527.072
1372 0 65.3034 14.5781 952 72.9422 1108.64 526.341
1373 0 65.3132 14.4075 941 74.051 1108.54 523.118
1374 0 69.1357 14.6523 1013 72.7414 1108.17 523.725
1375 0 69.1116 13.1237 907 74.9394 1108.21 523.793
1376 0 73.1894 14.7426 1079 72.8971 1108.09 522.11
1377 0 74.2372 14.3055 1062 74.0734 1108.38 516.891
1378 0 76.0745 14.0783 1071 74.099 1108.11 517.479
1379 0 79.3437 14.0906 1118 73.7889 1109.19 518.62
1380 0 79.2124 13.0914 1037 75.8129 1108.21 514.786
1381 0 86.1757 15.2827 1317 71.7707 1108.55 515.439
1382 0 89.1088 15.2061 1355 71.879 1108.32 514.979
1383 0 92.2407 15.0476 1388 72.111 1108.11 513.25
1384 0 93.4673 14.1333 1321 73.3694 1108.09 512.633
1385 0 99.1881 15.8184 1569 70.3894 1108.76 511.684
1386 1 50.2232 12.9024 648 73.4275 1108.75 533.261
1387 0 51.1456 14.1361 723 71.7621 1108.22 532.181
1388 0 53.101 13.4272 713 72.805 1108.77 531.123
1389 0 54.3685 13.9971 761 71.795 1109.5 531.811
1390 0 53.0673 12.8139 680 73.8868 1109.25 532.209
1391 0 58.2283 14.2199 828 71.5302 1108.34 529.023
1392 0 60.3149 14.2419 859 71.6496 1108.42 529.397
1393 0 61.1823 14.089 862 72.2169 1108.63 528.246
1394 0 63.1355 14.556 919 71.5734 1108.76 528.888
1395 0 65.2952 14.6871 959 71.2659 1108.59 527.31
1396 0 67.2919 14.073 947 71.982 1109.04 526.397
1397 0 68.2763 14.5145 991 71.6963 1108.61 526.24
1398 0 72.1088 13.4519 970 72.7897 1108.51 523.987
1399 0 74.099 14.1567 1049 71.8875 1108.23 522.428
1400 0 77.4396 13.9851 1083 71.5097 1108.3 525.417
1401 0 79.2367 13.7815 1092 72.7326 1109.03 520.943
1402 0 81.245 13.9209 1131 72.069 1108.26 521.324
1403 0 83.2445 14.9199 1242 71.1353 1108.57 517.326
1404 0 86.4792 14.4775 1252 71.5639 1107.9 515.929
1405 0 90.3482 15.3185 1384 70.1525 1107.43 515.034
1406 0 92.0735 13.6956 1261 72.2696 1107.6 513.425
1407 0 94.1552 13.2547 1248 72.7812 1107.79 513.192
1408 1 48.1827 13.6564 658 71.7842 1108.13 534.544
1409 0 48.2409 14.6142 705 69.8525 1108.32 536.165
1410 0 50.3886 14.0309 707 71.6761 1108.96 532.878
1411 0 51.2746 12.3648 634 73.5678 1109.02 532.719
1412 0 53.1764 13.6903 728 72.5247 1108.64 529.662
1413 0 55.2224 13.1287 725 72.9297 1108.55 529.71
1414 0 55.1687 12.3983 684 73.0614 1108.45 530.658
1415 0 58.0774 12.8966 749 72.4126 1109.16 531.426
1416 0 61.2829 14.7839 906 70.8698 1108.39 528.671
1417 0 61.3619 15.0908 926 70.6976 1108.47 526.807
1418 0 64.3286 13.5709 873 72.6472 1108.16 525.294
1419 0 67.0471 13.2295 887 71.8501 1107.81 526.149
1420 0 67.279 13.4515 905 72.5392 1108.44 523.049
1421 0 71.3484 14.0297 1001 71.6454 1108.68 524.007
1422 0 73.226 14.2572 1044 71.5939 1108.61 523.026
1423 0 76.1744 14.0205 1068 71.3455 1107.66 520.12
1424 0 77.273 15.3611 1187 69.7633 1108.66 520.368
1425 0 80.1204 14.5032 1162 71.1317 1109.2 519.69
1426 0 84.1248 13.7415 1156 71.9031 1109.02 519.51
1427 0 86.1819 13.9472 1202 72.0058 1109.18 517.279
1428 0 89.1712 14.9824 1336 70.3787 1108.57 515.7
1429 0 92.2315 15.2659 1408 69.8658 1108.47 515.457
1430 0 94.2232 15.2298 1435 69.8432 1108.69 512.244
1431 1 47.0717 14.1911 668 70.2186 1108.18 534.888
1432 0 50.1181 13.7276 688 71.734 1108.35 534.394
1433 0 50.0816 11.9805 600 73.9833 1108.32 535.258
1434 0 52.1139 14.3148 746 71.0228 1108.65 533.744
1435 0 52.0818 14.266 743 71.7981 1108.91 531.548
1436 0 54.1455 14.6642 794 70.6134 1108.91 532.054
1437 0 54.1803 16.1867 877 69.3558 1108.49 532.15
1438 0 58.1368 15.3259 891 69.6049 1109.1 531.882
1439 0 59.1055 14.6518 866 70.2725 1108.81 530.923
1440 0 61.1315 13.7245 839 72.1383 1109.02 527.999
1441 0 63.3182 14.0718 891 71.6835 1108.72 528.746
1442 0 64.0799 13.9981 897 71.9822 1108.38 527.779
1443 0 64.1274 14.7831 948 71.9388 1108.69 526.138
1444 0 69.1647 14.5305 1005 70.5323 1108.63 527.867
1445 0 72.0974 14.0782 1015 71.5832 1108.97 525.624
1446 0 71.1883 14.3844 1024 72.4131 1108.96 523.537
1447 0 75.1923 14.0041 1053 72.434 1108.71 521.311
1448 0 77.2977 14.981 1158 70.9439 1108.06 519.938
1449 0 79.0969 14.0334 1110 72.1432 1107.41 519.053
1450 0 82.1137 12.1782 1000 74.107 1107.96 519.469
1451 0 84.3146 13.6275 1149 72.7876 1108.83 517.48
1452 0 86.1039 14.5406 1252 72.028 1108.22 513.854
1453 0 92.2502 13.8645 1279 70.7897 1108.86 516.895
1454 0 95.1828 14.2883 1360 70.6478 1108.82 511.91
1455 1 43.0471 11.6152 500 74.356 1108.94 534.654
1456 0 44.1379 13.6164 601 71.4526 1108.47 535.421
1457 0 45.1595 12.5555 567 72.642 1108.59 534.771
1458 0 47.1283 14.365 677 71.4653 1108.55 532.003
1459 0 49.0278 11.5241 565 75.0407 1108.37 532.51
1460 0 54.0515 14.0237 758 71.0119 1108.59 532.924
1461 0 52.044 13.6807 712 72.2022 1108.71 532.15
1462 0 53.0938 13.4667 715 72.6238 1109.05 532.246
1463 0 53.0795 13.6964 727 74.044 1109.06 531.465
1464 0 57.2866 11.94 684 75.4883 1109.16 530.917
1465 0 61.1669 15.4986 948 71.0791 1108.76 528.981
1466 0 63.2483 16.1111 1019 69.5083 1107.95 528.34
1467 0 64.111 14.8648 953 71.8489 1108.38 527.251
1468 0 64.1828 15.0819 968 72.7376 1108.71 525.561
1469 0 65.0684 13.5857 884 75.1437 1108.26 524.295
1470 0 68.2176 14.1899 968 74.156 1108.09 525.174
1471 0 70.1608 14.4525 1014 73.6164 1108.2 523.744
1472 0 69.0618 14.9142 1030 74.1553 1108.45 523.649
1473 0 72.0771 15.2892 1102 73.0263 1108.08 522.709
1474 0 75.0924 16.0336 1204 72.1354 1108.69 520.081
1475 0 78.2929 15.5442 1217 72.6163 1108.19 519.233
1476 0 81.1648 15.7827 1281 72.5808 1107.93 517.553
1477 0 82.0742 15.3398 1259 73.0651 1108.92 517.34
1478 0 87.122 15.0364 1310 72.4641 1108.89 515.204
1479 0 88.1466 14.2603 1257 73.4996 1108.86 517.37
1480 0 91.328 14.3658 1312 74.0549 1108.41 513.326
1481 0 96.2275 14.4345 1389 73.2541 1107.87 511.586
1482 1 45.0879 13.9949 631 73.9952 1108.32 535.395
1483 0 49.0586 14.2687 700 71.4343 1108.54 536.891
1484 0 47.0442 13.2429 623 74.7191 1108.88 535.512
1485 0 50.051 14.8848 745 71.9034 1108.81 535.407
1486 0 51.2524 14.3408 735 73.1565 1109.15 534.23
1487 0 52.086 14.5145 756 73.6349 1109.32 531.779
1488 0 54.3252 13.2351 719 74.4339 1108.24 533.412
1489 0 54.1588 14.4944 785 73.7236 1108.22 533.838
1490 0 58.0971 13.4602 782 74.1445 1108.43 533.691
1491 0 59.0537 14.9864 885 74.139 1108.84 530.615
1492 0 61.1682 14.4683 885 73.6034 1108.39 530.694
1493 0 61.0898 14.405 880 75.1705 1108.46 528.28
1494 0 64.2774 14.9664 962 73.2755 1108.91 530.262
1495 0 63.0892 14.0912 889 76.5557 1108.39 527.837
1496 0 67.2569 14.7494 992 74.8407 1107.92 527.511
1497 0 68.2601 15.6314 1067 73.8903 1108.54 525.898
1498 0 70.443 13.9971 986 75.1968 1108.4 527.16
1499 0 73.2647 14.4135 1056 75.446 1108.81 525.183
1500 0 76.4274 15.204 1162 73.2496 1108.76 525.084
1501 0 78.1059 14.4419 1128 74.3121 1108.34 524.308
1502 0 80.1311 13.6526 1094 75.3611 1107.95 521.812
1503 0 83.0523 14.834 1232 73.2427 1107.86 519.469
1504 0 84.156 13.1185 1104 75.5172 1107.75 518.017
1505 0 89.1292 14.5631 1298 72.6757 1107.95 517.409
1506 0 89.1292 14.5407 1296 164.622 1108.94 517.417
1507 0 95.1816 14.5932 1389 72.4816 1108.09 514.867
1508 0 99.2605 15.4744 1536 71.0716 1108.23 514.023
1509 0 102.114 15.0812 1540 71.7701 1108.02 512.196
1510 1 45.0693 13.5569 611 75.1228 1107.66 534.558
1511 0 46.348 13.4418 623 74.3531 1108.27 534.997
1512 0 47.1493 12.1741 574 75.6951 1107.99 534.923
1513 0 50.1045 15.1084 757 71.8507 1107.73 533.8
1514 0 50.2012 13.6252 684 73.7105 1107.7 533.866
1515 0 51.1272 12.9677 663 75.7572 1108.26 531.534
1516 0 53.1544 12.2097 649 76.0709 1108.52 532.394
1517 0 57.0428 14.3576 819 72.6471 1108.4 533.701
1518 0 55.2169 14.0356 775 74.8813 1108.58 531.301
1519 0 59.2494 15.6964 930 72.2183 1108.92 529.874
1520 0 61.1006 14.2879 873 73.181 1107.31 530.637
1521 0 61.1538 14.0956 862 74.9733 1107.86 528.933
1522 0 64.2507 13.7742 885 74.009 1107.65 531.364
1523 0 67.1491 15.4432 1037 71.8052 1108.08 528.409
1524 0 70.0884 16.4221 1151 70.8566 1108.34 526.958
1525 0 68.2168 14.2047 969 74.6563 1107.93 524.189
1526 0 72.1977 14.391 1039 73.1097 1107.99 524.67
1527 0 75.213 14.3193 1077 73.1532 1108.6 522.856
1528 0 76.2306 15.4269 1176 71.6981 1108.38 519.611
1529 0 80.1434 15.1853 1217 71.6639 1108.3 519.09
1530 0 81.0607 14.2609 1156 73.237 1108.09 518.877
1531 0 84.27 14.3112 1206 72.0663 1107.94 518.648
1532 0 85.145 14.4577 1231 72.1747 1107.35 518.186
1533 0 90.2054 14.0457 1267 72.3923 1107.7 515.703
1534 0 94.1054 16.2159 1526 69.0865 1108.04 515.329
1535 0 97.1503 14.5445 1413 71.6476 1107.87 511.527
1536 0 100.258 14.6123 1465 71.127 1108 511.41
1537 0 104.158 14.5356 1514 71.3302 1107.77 507.95
1538 0 107.097 15.1732 1625 70.6751 1108.06 507.291
1539 1 50.1003 15.6486 784 69.4885 1107.43 535.003
1540 0 53.0724 14.1505 751 71.7696 1107.24 533.305
1541 0 53.0448 13.8751 736 72.9239 1107.44 531.51
1542 0 54.0505 13.8389 748 73.9037 1107.34 531.956
1543 0 55.0762 14.017 772 74.4896 1107.81 531.291
1544 0 57.2064 13.6174 779 75.9718 1107.85 528.823
1545 0 58.0838 12.3959 720 76.9069 1107.93 529.439
1546 0 60.1496 15.5446 935 73.6599 1108.5 527.768
1547 0 62.1824 14.4253 897 74.8673 1108.41 528.328
1548 0 61.1744 13.7803 843 76.9182 1107.81 525.84
1549 0 63.0616 13.3044 839 78.1275 1108.32 525.993
1550 0 64.1022 13.7437 881 77.6504 1108.17 524.73
1551 0 67.1316 16.3559 1098 72.9044 1107.64 526.608
1552 0 69.0887 15.1255 1045 75.4421 1107.6 523.016
1553 0 73.0802 16.2287 1186 73.0565 1107.77 522.772
1554 0 73.1279 14.249 1042 76.5269 1107.25 519.945
1555 0 77.0976 14.1768 1093 76.2781 1106.9 519.771
1556 0 82.2129 15.618 1284 73.1908 1106.95 517.961
1557 0 82.3168 14.3592 1182 74.5415 1107.54 518.738
1558 0 85.1494 15.5961 1328 72.7831 1107.25 516.23
1559 0 88.113 16.5696 1460 70.9473 1107.03 515.769
1560 0 92.1083 13.2018 1216 75.3248 1107.75 514.115
1561 0 95.2048 16.0601 1529 71.2668 1107.9 512.234
1562 0 96.2397 14.9834 1442 72.4411 1107.31 512.75
1563 1 47.0964 15.1391 713 71.7419 1107 534.724
1564 0 47.0831 15.6319 736 71.697 1107.6 533.879
1565 0 50.1216 13.7865 691 73.6831 1107.31 532.768
1566 0 52.114 14.5067 756 72.3188 1106.81 532.709
1567 0 54.1692 15.8023 856 70.8645 1106.99 531.889
1568 0 54.1853 16.4251 890 71.4135 1107.2 530.771
1569 0 56.2008 15.1777 853 73.5404 1107.4 529.43
1570 0 56.2058 15.5856 876 72.7614 1106.52 529.145
1571 0 57.1025 15.1657 866 74.5831 1106.83 526.903
1572 0 60.1737 17.034 1025 71.4283 1107.35 528.048
1573 0 60.0968 14.643 880 75.3432 1107.93 527.814
1574 0 62.2771 15.6879 977 73.913 1107.05 527.676
1575 0 63.3891 14.9395 947 75.6389 1107.57 525.883
1576 0 64.2174 15.7122 1009 75.6799 1107.55 523.795
1577 0 66.3854 15.395 1022 75.181 1107.22 527.303
1578 0 69.6666 16.8948 1177 73.4996 1107.44 524.181
1579 0 71.2073 14.4227 1027 76.74 1108.18 524.698
1580 0 73.4083 16.5649 1216 74.2936 1107.92 521.685
1581 0 76.1431 16.5215 1258 74.7432 1108.35 519.653
1582 0 76.1736 14.2044 1082 78.9187 1108.48 516.585
1583 0 81.133 15.2219 1235 76.7619 1107.47 515.64
1584 0 82.2053 14.1597 1164 78.305 1107.78 516.522
1585 0 87.3169 15.8389 1383 74.9487 1107.85 519.508
1586 0 85.153 13.8809 1182 79.4662 1108.41 513.455
1587 0 91.2954 15.7401 1437 76.3807 1108.07 511.54
1588 0 92.2396 16.0777 1483 76.4134 1107.73 511.385
1589 0 95.3529 16.0457 1530 76.4993 1107.02 511.097
1590 0 100.33 16.1767 1623 76.0246 1107.09 511.854
1591 0 104.266 15.2111 1586 77.4968 1107.65 509.683
1592 0 107.298 15.7691 1692 77.3227 1108.02 504.952
1593 1 52.1684 14.434 753 78.3652 1108.22 530.428
1594 0 54.2197 13.5191 733 80.1692 1108.11 530.46
1595 0 55.4396 13.9611 774 79.3656 1108.25 529.76
1596 0 56.1898 11.7103 658 83.8313 1107.93 528.848
1597 0 58.1985 14.7598 859 78.8766 1107.37 530.667
1598 0 58.0432 15.0578 874 79.8021 1108.25 528.842
1599 0 62.2398 14.3638 894 80.2539 1107.62 527.709
1600 0 61.212 14.654 897 80.7057 1107.78 527.454
1601 0 64.27 13.5522 871 80.752 1108.12 529.335
1602 0 64.1804 12.6051 809 83.4524 1107.04 528.115
1603 0 67.1867 13.202 887 82.7565 1107.56 526.051
1604 0 69.1296 14.0461 971 81.3471 1107.65 524.342
1605 0 71.3046 15.6792 1118 78.3336 1106.87 526.211
1606 0 74.5788 15.3395 1144 79.0472 1108.16 524.115
1607 0 75.1105 13.2605 996 82.2349 1107.83 522.756
1608 0 79.2814 14.4675 1147 79.5754 1106.9 521.02
1609 0 78.1266 13.4013 1047 83.1748 1107.67 516.633
1610 0 82.1224 13.7721 1131 80.6941 1107.15 518.656
1611 0 87.1806 14.0169 1222 79.82 1107.46 516.031
1612 0 89.0719 14.101 1256 78.4944 1107.06 518.819
1613 0 89.2374 13.2792 1185 79.6186 1107.33 518.069
1614 0 94.2041 13.8317 1303 79.5119 1107.4 513.644
1615 0 93.1879 13.961 1301 80.053 1108.03 512.018
1616 0 96.1111 13.4116 1289 80.4515 1107.25 510.744
1617 0 101.187 13.3119 1347 80.3905 1107.31 509.775
1618 0 106.206 15.3664 1632 77.2984 1107.77 507.36
1619 0 108.308 13.8955 1505 79.4505 1108.03 504.246
1620 0 112.37 14.737 1656 77.5682 1107.76 503.808
1621 0 117.257 14.4384 1693 76.8606 1107.72 505.301
1622 0 125.277 14.8311 1858 75.6765 1107.65 504.226
1623 0 123.411 15.4362 1905 76.148 1107.4 500.115
1624 0 127.223 14.117 1796 77.0139 1107.51 501.79
1625 0 131.102 11.6779 1531 79.9941 1107.84 503.003
1626 1 59.1691 15.143 896 77.0201 1107.87 529.847
1627 0 60.2602 14.371 866 78.9249 1107.57 528.167
1628 0 58.1682 14.7503 858 79.218 1107.45 530.152
1629 0 60.1674 13.479 811 81.3551 1107.54 529.536
1630 0 62.1701 13.8974 864 81.4005 1107.22 526.956
1631 0 60.2268 14.2462 858 82.1375 1106.88 527.42
1632 0 64.3683 14.1219 909 82.2024 1107.65 525.028
1633 0 66.1833 14.3239 948 80.7574 1108.18 527.978
1634 0 68.0991 13.8768 945 81.9386 1107.72 524.605
1635 0 73.3661 14.3391 1052 79.1416 1108.28 525.886
1636 0 74.2673 14.7037 1092 79.6685 1108.48 523.488
1637 0 75.0502 14.0573 1055 81.0664 1107.41 520.411
1638 0 79.165 13.2761 1051 82.569 1107.47 519.346
1639 0 81.3507 15.4393 1256 79.168 1107.52 516.73
1640 0 83.2633 13.6915 1140 81.4018 1107.64 517.075
1641 0 87.0892 16.0755 1400 76.7964 1108.29 517.151
1642 0 91.2028 15.7671 1438 77.2656 1108.16 514.89
1643 0 92.1962 15.9551 1471 77.1985 1108.04 515.548
1644 0 96.2292 15.1306 1456 78.612 1108.02 513.179
1645 1 49.0869 13.1807 647 78.6816 1107.74 534.247
1646 0 49.1294 12.7418 626 81.3546 1107.11 532.843
1647 0 51.1856 14.8284 759 78.9974 1107.2 532.885
1648 0 49.1118 15.4952 761 80.247 1107.55 530.878
1649 0 55.1255 14.9114 822 79.4951 1107.89 530.439
1650 0 55.1106 14.6251 806 80.5645 1108.28 530.823
1651 0 57.1189 14.356 820 81.2707 1107.63 529.55
1652 0 57.1988 14.4234 825 82.2667 1107.61 530.405
1653 0 56.1599 12.2863 690 87.4826 1107.28 528.754
1654 0 58.1131 13.4049 779 85.4236 1107.12 529.073
1655 0 61.0745 14.3923 879 82.4881 1107.51 528.764
1656 0 64.0759 14.0302 899 83.6863 1107.66 528.219
1657 0 66.3994 15.6779 1041 81.1508 1107.64 526.593
1658 0 68.1889 15.6477 1067 80.8557 1107.43 525.352
1659 0 71.204 15.1115 1076 80.9033 1107.6 525.341
1660 0 71.1355 14.5075 1032 83.0145 1107 522.096
1661 0 74.126 15.2848 1133 80.1421 1106.96 522.944
1662 0 75.0644 14.5608 1093 82.0887 1107.28 520.839
1663 0 79.0504 15.1549 1198 80.8873 1107.91 520.997
1664 0 81.1932 15.7033 1275 79.7027 1107.6 518.776
1665 0 83.2377 15.5699 1296 79.1042 1107.53 520.3
1666 0 86.1553 14.9033 1284 79.8956 1107.19 518.971
1667 0 89.1514 14.8736 1326 80.4525 1107.17 514.051
1668 0 91.0865 15.6335 1424 78.9761 1107.49 515.336
1669 0 95.0708 14.526 1381 80.1057 1107.16 511.993
1670 0 98.1057 13.9441 1368 80.587 1106.83 512.601
1671 0 101.19 15.3177 1550 78.4019 1107.06 510.205
1672 0 106.188 15.9057 1689 76.6602 1107.3 508.963
1673 1 48.1863 14.5685 702 77.9003 1107.51 533.946
1674 0 50.2965 14.8519 747 76.6894 1107.35 534.035
1675 0 50.0737 13.7797 690 80.4362 1107.56 532.31
1676 0 53.1879 15.4547 822 77.8674 1107.52 531.713
1677 0 54.2264 13.167 714 81.7507 1107.89 530.423
1678 0 55.217 15.0678 832 78.2644 1107.24 531.399
1679 0 56.1078 14.0444 788 80.4772 1106.32 530.508
1680 0 55.0346 12.8283 706 83.8116 1106.8 528.265
1681 0 58.0409 14.5759 846 80.5166 1106.92 527.325
1682 0 60.1968 15.25 918 78.8518 1106.95 528.992
1683 0 60.0338 13.7756 827 82.8767 1107.2 525.813
1684 0 64.1078 16.0199 1027 78.1091 1107.36 528.84
1685 0 65.2429 15.4653 1009 80.0902 1107.33 524.809
1686 0 66.0691 14.4243 953 80.5247 1107.85 526.144
1687 0 69.1658 14.2411 985 81.7827 1107.37 522.916
1688 0 71.2128 16.233 1156 78.1946 1107.6 523.419
1689 0 72.2188 14.4284 1042 80.7351 1107.49 522.641
1690 0 73.2271 13.6698 1001 82.2677 1107.08 518.498
1691 0 77.2703 15.1287 1169 79.1848 1107.2 519.98
1692 0 81.0782 14.2455 1155 79.9455 1107.59 517.224
1693 0 83.2185 15.0447 1252 78.5543 1107.53 517.194
1694 0 85.1625 14.1612 1206 79.1625 1107.4 517.969
1695 0 87.2466 15.7599 1375 77.1178 1107.62 514.017
1696 0 91.174 14.3572 1309 78.1482 1106.65 513.154
1697 0 94.3023 14.5914 1376 78.0974 1107.36 513.085
1698 0 96.1473 14.5818 1402 78.5271 1107.82 508.966
1699 0 101.282 15.2643 1546 76.2594 1107.05 507.951
1700 0 104.397 14.2724 1490 77.7624 1107.1 507.666
1701 0 107.113 15.6003 1671 76.3507 1107.82 504.29
1702 0 113.145 15.9618 1806 75.2558 1107.68 505.198
1703 1 57.0578 14.8446 847 76.1063 1107.1 529.347
1704 0 59.3597 13.0897 777 78.6718 1107 529.305
1705 0 59.2831 13.6295 808 79.1163 1106.95 527.052
1706 0 63.15 13.3967 846 78.9905 1107.63 527.765
1707 0 65.3201 14.0692 919 78.1578 1107.44 526.488
1708 0 68.323 14.1387 966 76.8634 1107.22 527.844
1709 0 69.1687 15.0068 1038 76.6012 1107.44 525.328
1710 0 72.2664 14.834 1072 76.7323 1107.11 524.23
1711 0 72.3821 14.6031 1057 77.9499 1106.34 522.974
1712 0 74.6293 14.4983 1082 77.5712 1106.14 522.671
1713 0 77.0849 15.4894 1194 76.5201 1106.54 521.564
1714 0 79.3101 14.8657 1179 77.4699 1106.79 521.098
1715 0 83.2461 15.3881 1281 76.5269 1106.5 517.174
1716 0 83.1877 15.6514 1302 77.328 1106.95 514.687
1717 0 86.3421 14.6047 1261 77.4576 1106.88 518.732
1718 0 87.4468 14.0428 1228 79.0106 1107.14 512.75
1719 0 92.2707 14.2082 1311 77.8291 1106.48 515.576
1720 0 96.238 13.5082 1300 78.2815 1107.51 513.509
1721 1 46.5524 11.428 532 80.829 1107.47 534.13
1722 0 47.3922 12.4704 591 78.6193 1108.21 533.633
1723 0 49.2811 12.8853 635 78.8551 1107.57 532.032
1724 0 52.3162 13.9536 730 76.8877 1107.96 531.063
1725 0 50.3396 13.548 682 78.2522 1107.63 531.028
1726 0 52.3393 13.6227 713 77.3731 1107.13 530.265
1727 0 55.028 13.3205 733 77.3752 1107.26 530.974
1728 0 56.0915 15.9026 892 74.6951 1107.56 529.549
1729 0 58.256 12.8742 750 78.836 1107.39 527.791
1730 0 58.1662 14.0632 818 77.8594 1107.53 527.044
1731 0 61.3402 13.8897 852 76.1491 1107.15 530.492
1732 0 64.1658 14.0729 903 76.3743 1107.73 525.615
1733 0 61.1439 13.0185 796 79.2324 1107.43 522.957
1734 0 70.3684 15.0209 1057 72.8571 1107.35 528.18
1735 0 69.3893 13.9935 971 75.3553 1107.28 524.424
1736 0 70.3414 17.2587 1214 71.5181 1107.59 524.613
1737 0 71.303 13.1972 941 77.0319 1107.6 520.824
1738 0 72.1584 13.6782 987 76.9483 1107.34 517.44
1739 0 77.3278 14.4709 1119 74.0232 1107.55 520.234
1740 0 78.2253 14.2281 1113 75.1321 1107.79 518.999
1741 0 83.2686 14.4832 1206 74.2463 1107.6 517.684
1742 0 85.2372 14.2191 1212 74.2038 1107.36 515.148
1743 0 87.16 15.9706 1392 71.8362 1107.54 512.25
1744 0 91.4943 15.1376 1385 72.1574 1107.15 514.723
1745 0 95.3647 15.1209 1442 71.7039 1108.07 513.684
1746 0 97.1831 14.4984 1409 72.1285 1107.77 513.241
1747 0 102.382 14.778 1513 71.7145 1106.99 509.916
1748 0 105.571 13.7159 1448 72.2286 1106.83 509.952
1749 0 108.161 14.0902 1524 72.458 1106.67 504.598
1750 0 113.291 15.0056 1700 70.8059 1107.04 502.452
1751 1 59.3054 13.8773 823 71.1604 1107.44 528.543
1752 0 60.2124 15.1962 915 70.3016 1107.63 528.779
1753 0 62.1901 13.4587 837 72.8387 1107.38 527.438
1754 0 63.2049 13.6224 861 73.7433 1107.68 527.044
1755 0 63.5039 12.5977 800 75.6688 1107.42 523.576
1756 0 69.3024 14.3718 996 72.3795 1107.7 525.607
1757 0 70.4721 15.8644 1118 70.9606 1107.21 525.177
1758 0 72.1225 15.1548 1093 72.1912 1107.24 524.55
1759 0 74.3524 14.2833 1062 73.6017 1107.7 520.813
1760 0 76.5652 14.9546 1145 72.441 1107.99 522.769
1761 0 79.2801 15.4137 1222 71.8895 1108.37 522.704
1762 0 81.3954 13.8091 1124 73.8666 1108.03 520.787
1763 0 85.2343 16.0381 1367 70.5508 1108.6 520.358
1764 0 86.2859 14.9503 1290 73.5868 1108.04 517.071
1765 0 89.4915 14.9847 1341 73.2028 1107.63 515.899
1766 0 91.253 15.857 1447 72.4043 1107.53 513.713
1767 0 94.3366 16.7697 1582 70.8097 1107.73 514.573
1768 0 96.2689 15.5294 1495 72.5558 1108.19 512.285
1769 0 99.2064 15.3014 1518 72.888 1108.64 512.32
1770 0 102.369 15.8935 1627 71.2907 1108.51 512.505
1771 0 106.272 15.2815 1624 72.1509 1107.84 508.374
1772 0 110.386 15.781 1742 72.6188 1107.39 506.752
1773 0 112.323 14.5385 1633 73.5909 1107.72 508.333
1774 1 52.3435 15.0926 790 69.8165 1108.03 535.195
1775 0 52.2615 13.6812 715 70.6238 1107.75 534.771
1776 0 53.2087 14.96 796 70.0327 1107.16 533.356
1777 0 54.493 14.2587 777 71.1634 1108.02 531.107
1778 0 56.3229 13.8132 778 70.3239 1108.09 532.398
1779 0 55.1503 12.1849 672 72.8259 1107.45 530.564
1780 0 55.1637 11.6018 640 72.6484 1107.38 531.062
1781 0 57.2485 14.6379 838 69.2387 1107.6 531.006
1782 0 59.3346 12.6402 750 70.5027 1108.06 530.953
1783 0 60.1346 13.4199 807 68.6444 1107.89 532.465
1784 0 59.7298 11.7697 703 72.542 1107.68 526.973
1785 0 62.5127 14.3651 898 69.6626 1108 528.021
1786 0 66.2416 15.5491 1030 67.3466 1108.2 527.418
1787 0 61.1286 11.942 730 72.6206 1107.95 525.832
1788 0 66.422 11.6528 774 71.7209 1107.8 525.164
1789 0 67.2314 12.4644 838 70.6897 1107.03 524.609
1790 0 68.1833 12.3491 842 70.9347 1107.3 522.267
1791 0 72.2423 12.3889 895 71.5486 1107.64 523.963
1792 0 71.3841 11.8514 846 72.9539 1107.92 524.318
1793 0 71.3126 11.7651 839 74.1454 1107.35 521.185
1794 0 72.2491 12.097 874 73.5526 1107.93 522.88
1795 0 76.2067 14.3426 1093 70.6276 1107.18 522.601
1796 0 78.2466 14.4032 1127 71.7516 1106.75 516.455
1797 0 81.2039 13.189 1071 72.7974 1107.22 518.167
1798 0 83.1867 12.0332 1001 73.3606 1107.11 520.557
1799 0 84.5218 12.3518 1044 73.7644 1106.62 516.457
1800 0 85.568 13.8253 1183 73.0964 1106.99 511.904
1801 0 89.2904 14.2232 1270 72.522 1107.59 514.872
1802 0 93.5309 14.423 1349 71.7435 1107.26 514.819
1803 0 97.433 15.1489 1476 70.2954 1107.11 515.822
1804 0 97.3234 14.7241 1433 71.6301 1107.62 511.165
1805 0 96.147 13.4378 1292 72.1463 1107.02 515.171
1806 0 101.209 13.3091 1347 72.395 1107.54 513.367
1807 0 108.451 12.5678 1363 72.606 1106.95 511.37
1808 0 109.766 14.6584 1609 70.1442 1107.76 510.47
1809 0 111.424 13.6685 1523 71.0414 1108.19 509.979
1810 1 121.332 10.2034 1238 71.9968 1108.1 516.189
1811 0 118.358 12.8086 1516 72.3925 1106.7 501.6
1812 0 120.151 14.1739 1703 69.6864 1107.79 505.343
1813 0 124.261 14.9524 1858 69.7207 1107.32 500.473
1814 0 126.321 12.6978 1604 72.0929 1107.67 500.756
1815 0 131.471 14.9083 1960 70.3924 1107.54 494.99
1816 0 136.506 15.6476 2136 69.066 1107.48 493.339
1817 0 140.303 13.7203 1925 71.6369 1107.69 492.325
1818 0 145.582 13.8616 2018 71.0045 1107.57 490.91
1819 0 148.433 14.296 2122 71.0476 1107.67 485.558
1820 0 152.505 11.8947 1814 74.1621 1107.03 485.076
1821 0 160.472 14.4636 2321 71.1517 1107.98 482.43
1822 0 165.654 14.2405 2359 71.1564 1107.12 482.357
1823 0 170.206 14.3826 2448 71.6156 1107.57 475.978
1824 0 176.331 15.0116 2647 70.8175 1107.02 475.564
1825 0 182.386 14.4035 2627 72.1618 1106.27 470.116
1826 0 188.515 14.7097 2773 71.8756 1106.49 468.785
1827 0 197.487 16.0365 3167 70.186 1106.9 468.635
1828 0 200.406 14.8 2966 72.8196 1106.3 463.18
1829 0 207.716 15.1216 3141 72.219 1106.8 464.868
1830 0 212.435 14.8281 3150 73.9295 1107 458.33
1831 0 221.611 15.5092 3437 72.6095 1107.1 456.449
1832 0 228.48 16.3209 3729 71.8791 1107 455.237
1833 0 234.32 15.3039 3586 73.7476 1106.39 449.688
1834 1 185.265 14.9354 2767 75.1337 1106.5 474.48
1835 0 191.419 14.7425 2822 74.7112 1106.54 473.676
1836 0 198.361 14.4585 2868 75.7082 1106.72 469.467
1837 0 202.244 13.192 2668 78.3628 1106.93 460.485
1838 0 211.57 14.6476 3099 76.9203 1106.99 462.228
1839 0 218.281 15.4297 3368 74.9997 1107.06 459.512
1840 0 224.532 13.8866 3118 77.5722 1106.61 449.848
1841 0 234.315 15.5645 3647 74.3578 1105.96 450.101
1842 0 243.6 16.1577 3936 72.951 1106.46 448.548
1843 0 250.292 15.8535 3968 73.5902 1106.75 444.268
1844 0 260.494 15.3439 3997 74.655 1106.94 435.044
1845 1 60.2708 13.655 823 71.8408 1107.15 531.947
1846 0 60.2978 14.4284 870 72.269 1106.13 529.08
1847 0 62.2473 13.4785 839 73.6544 1106.91 528.529
1848 0 65.1302 14.7704 962 72.2245 1107.12 529.346
1849 0 67.4545 14.3949 971 72.7024 1106.59 529.554
1850 0 67.144 13.5381 909 75.3003 1106.67 525.837
1851 0 71.1427 14.239 1013 74.2113 1106.69 526.801
1852 0 71.1365 14.437 1027 75.2113 1106.72 524.88
1853 0 73.09 15.1183 1105 73.7738 1106.65 526.872
1854 0 75.1842 13.6332 1025 76.8849 1106.39 523.008
1855 0 77.3393 13.7705 1065 75.2141 1106.69 525.654
1856 0 76.3918 14.7398 1126 75.4858 1107.11 523.223
1857 0 82.1343 15.085 1239 75.5948 1106.8 519.023
1858 0 83.1117 14.2579 1185 76.5013 1106.8 520.044
1859 0 85.306 13.8794 1184 77.0228 1106.18 516.823
1860 0 90.3092 14.4393 1304 75.3397 1106.01 517.166
1861 0 93.3188 15.0238 1402 74.1198 1106.16 515.968
1862 0 95.2014 14.6216 1392 74.2486 1106.32 515.336
1863 0 98.1381 13.5829 1333 75.943 1106.43 511.475
1864 1 50.0779 13.4191 672 73.4539 1106.74 534.335
1865 0 50.1611 12.1608 610 76.5459 1106.34 532.143
1866 0 54.1553 14.4954 785 72.549 1106.34 531.162
1867 0 53.1711 14.6132 777 73.1313 1105.53 531.121
1868 0 54.0984 14.0854 762 72.8937 1106.15 531.291
1869 0 58.1334 14.2775 830 72.4566 1106.54 530.035
1870 0 59.126 14.2577 843 73.0107 1106.6 529.167
1871 0 60.1732 14.9402 899 72.5918 1106.73 527.735
1872 0 63.2836 13.9215 881 73.2225 1106.7 526.888
1873 0 63.0826 14.7109 928 72.5312 1106.25 526.737
1874 0 68.1392 15.4683 1054 70.4801 1106.29 524.766
1875 0 69.0639 14.2332 983 72.5442 1106.52 522.746
1876 0 73.0447 13.348 975 72.8462 1106.43 524.109
1877 0 74.1191 13.6942 1015 72.1842 1106.19 522.341
1878 0 78.082 15.2532 1191 70.6499 1106.29 519.473
1879 0 80.2185 14.635 1174 71.7547 1105.71 517.989
1880 0 82.1787 13.9087 1143 72.6317 1106.04 517.087
1881 0 85.2619 14.8132 1263 71.4901 1105.83 516.198
1882 0 88.0972 13.6781 1205 71.9411 1106.01 516.028
1883 0 90.2382 13.5419 1222 72.5884 1106.46 514.224
1884 0 94.339 15.6881 1480 69.4669 1106.31 512.629
1885 0 98.2324 15.1477 1488 70.289 1106.05 510.735
1886 0 100.289 14.7773 1482 70.7287 1106.45 509.051
1887 0 103.165 15.3637 1585 69.4214 1105.88 512.029
1888 0 107.119 15.9356 1707 68.7159 1105.64 509.648
1889 0 109.194 14.9001 1627 70.2907 1105.93 507.364
1890 0 112.252 13.042 1464 72.2814 1106.31 505.322
1891 0 117.369 14.4672 1698 70.2014 1106.69 504.349
1892 0 119.205 14.8987 1776 70.7365 1106.24 496.729
1893 1 62.1576 14.1897 882 69.0782 1106.44 527.618
1894 0 64.1961 14.222 913 70.4184 1106.42 526.703
1895 0 65.2876 13.0806 854 71.3782 1106.39 527.789
1896 0 67.0475 14.2287 954 71.3532 1106.75 523.811
1897 0 68.1892 14.2691 973 71.4275 1106.94 523.966
1898 0 72.0899 13.83 997 70.8114 1106.68 524.367
1899 0 74.1565 14.9953 1112 69.8067 1106.8 523.587
1900 0 75.1979 14.3621 1080 70.7713 1106.78 521.959
1901 0 77.2586 14.2767 1103 71.5839 1106.44 519.921
1902 0 78.7872 15.5101 1222 70.045 1106.44 519.615
1903 0 81.3236 14.4607 1176 71.1122 1106.49 519.435
1904 0 85.1101 15.3096 1303 70.1236 1107.34 517.272
1905 0 85.1836 14.4746 1233 71.2474 1106.57 517.301
1906 0 88.2323 14.4278 1273 71.0982 1107.02 516.269
1907 0 89.2969 13.5055 1206 72.0357 1106.62 516.697
1908 0 92.2166 14.9322 1377 70.0494 1106.82 513.613
1909 0 96.2633 15.0213 1446 69.8022 1107.14 511.348
1910 0 98.2283 15.3622 1509 69.731 1107.73 509.83
1911 0 98.3701 12.2395 1204 72.9178 1107.71 512.429
1912 0 102.194 14.0027 1431 70.3627 1107.28 511.342
1913 0 103.762 14.3694 1491 70.9765 1106.82 507.437
1914 0 108.613 15.081 1638 69.9805 1107.31 504.717
1915 0 112.269 14.1713 1591 69.956 1106.71 506.49
1916 0 114.126 14.2124 1622 70.3002 1106.89 504.136
1917 0 117.097 14.7912 1732 70.0652 1107.21 495.832
1918 0 123.54 13.1051 1619 70.4175 1106.68 502.022
1919 0 126.769 14.5777 1848 69.0135 1106.85 499.612
1920 0 128.548 13.6369 1753 69.9561 1107.63 501.835
1921 0 132.29 12.5103 1655 71.823 1107.54 496.302
1922 0 137.698 13.8201 1903 70.7078 1107.55 494.168
1923 0 142.233 13.942 1983 70.5971 1107.28 492.675
1924 0 146.736 13.7186 2013 70.688 1107.59 494.624
1925 0 151.582 14.3487 2175 70.6405 1107.15 488.605
1926 0 156.569 15.3478 2403 69.1927 1108.03 490.368
1927 0 160.533 14.645 2351 70.1591 1107.56 488.975
1928 0 164.637 14.1524 2330 71.6026 1107.8 485.463
1929 0 169.507 14.3593 2434 71.0004 1107.4 486.036
1930 1 122.521 13.4752 1651 72.2714 1106.58 507.777
1931 1 77.8233 14.8799 1158 71.0155 1107.23 524.782
1932 0 79.5805 13.9104 1107 71.8844 1106.99 525.728
1933 0 82.128 14.1852 1165 72.5202 1106.53 522.082
1934 0 83.7249 14.9418 1251 71.566 1106.69 522.395
1935 0 84.7605 15.5733 1320 71.2674 1106.25 521.394
1936 0 85.6383 15.7406 1348 71.1291 1105.78 520.524
1937 0 88.5321 14.4467 1279 73.6075 1106.12 519.564
1938 0 90.7227 14.6711 1331 73.2622 1105.26 518.868
1939 0 93.5073 14.1272 1321 74.084 1104.79 519.039
1940 0 96.6242 14.4788 1399 73.3138 1104.75 518.449
1941 0 100.481 14.9083 1498 73.1162 1104.75 516.991
1942 0 103.794 14.4324 1498 74.476 1104.73 513.029
1943 0 107.085 14.9227 1598 73.7891 1104.45 513.385
1944 0 110.912 15.5619 1726 72.9247 1105.05 512.025
1945 0 113.715 14.5276 1652 74.0799 1104.85 511.872
1946 1 58.3792 15.6734 915 71.7716 1104.75 536.128
1947 0 60.9628 14.5991 890 74.2786 1104.58 533.77
1948 0 60.7092 13.7047 832 75.8522 1104 531.926
1949 0 62.7202 13.3609 838 75.7267 1103.89 532.184
1950 0 64.2528 14.7387 947 75.8448 1103.89 529.253
1951 0 66.6111 16.3336 1088 72.4017 1103.88 530.991
1952 0 68.4723 15.0718 1032 73.9574 1103.88 529.074
1953 0 68.2707 14.0324 958 75.4656 1103.51 530.841
1954 0 73.8787 14.5103 1072 75.7733 1103.62 524.69
1955 0 76.4532 16.7292 1279 72.7232 1103.26 524.831
1956 0 78.6306 14.7653 1161 74.5263 1103.68 524.413
1957 0 82.1141 14.5895 1198 75.4508 1104.09 522.567
1958 0 82.7629 14.7167 1218 75.5706 1104.26 520.664
1959 0 84.4512 14.7778 1248 75.6883 1104.47 521.186
1960 0 87.3377 14.1863 1239 75.548 1105 521.528
1961 0 90.6073 13.5861 1231 76.4533 1104.34 517.453
1962 0 94.1868 15.9577 1503 73.7392 1104.95 514.468
1963 0 96.5245 14.3901 1389 74.9143 1104.51 517.008
1964 0 100.44 15.1334 1520 74.8803 1104.99 513.911
1965 0 102.212 14.8613 1519 75.5629 1104.94 511.361
1966 0 106.418 14.8378 1579 73.9962 1105.44 513.617
1967 0 107.646 14.0089 1508 75.8408 1106.21 510.826
1968 1 55.5262 15.3441 852 73.0258 1105.95 531.793
1969 0 56.7456 14.7324 836 73.2536 1105.03 531.999
1970 0 58.5382 13.41 785 75.8204 1105.6 530.778
1971 0 59.9806 12.6541 759 75.726 1105.16 533.335
1972 0 62.6619 15.8629 994 72.9668 1105.69 529.608
1973 0 61.7416 13.0058 803 76.9078 1106.24 528.756
1974 0 64.1067 12.1204 777 77.6422 1105.95 529.413
1975 0 66.0543 14.3518 948 75.9462 1106.75 526.772
1976 0 69.4496 14.7157 1022 75.1155 1106.33 526.709
1977 0 70.0251 14.6233 1024 75.9248 1105.69 524.416
1978 0 71.334 14.1027 1006 76.672 1105.73 523.686
1979 0 74.104 15.1679 1124 75.7447 1106.3 522.396
1980 0 76.0936 14.7187 1120 76.6071 1106.77 521.095
1981 0 78.2154 14.8564 1162 75.2435 1106.24 523.784
1982 0 81.1028 15.8687 1287 74.7366 1106.77 519.751
1983 0 82.2217 15.5798 1281 75.6714 1107.31 519.09
1984 0 83.3943 14.3175 1194 76.6298 1106.57 519.854
1985 0 86.341 13.215 1141 79.3216 1107.12 517.076
1986 0 91.2847 14.7013 1342 75.8443 1106.49 516.777
1987 0 92.5674 15.8479 1467 74.818 1106.24 513.791
1988 0 93.2866 14.1607 1321 77.6359 1106.68 510.499
1989 0 98.5266 14.4327 1422 76.3664 1106.51 511.207
1990 0 101.194 14.7538 1493 76.3664 1107.11 507.618
1991 0 105.624 14.864 1570 75.1669 1107.2 508.29
1992 1 54.3 13.0571 709 75.8138 1107.23 529.181
1993 0 56.2444 13.9214 783 73.5466 1106.65 530.856
1994 0 56.4677 13.6538 771 74.9818 1106.49 529.611
1995 0 57.3562 13.7561 789 74.2649 1107.25 530.868
1996 0 60.2014 14.5844 878 74.0102 1107.74 528.214
1997 0 61.2082 13.6256 834 75.2878 1107.93 528.625
1998 0 62.2755 14.2271 886 75.0418 1107.32 526.648
1999 0 65.6824 13.6871 899 75.4205 1107.72 524.653
2000 0 68.1755 14.9174 1017 73.4926 1107.19 525.74
2001 0 69.4216 13.7998 958 75.2328 1106.95 524.844
2002 0 70.2075 14.6565 1029 74.4636 1107.25 524.367
2003 0 74.424 15.5998 1161 72.6012 1106.95 523.455
2004 0 73.309 14.4184 1057 75.4238 1106.74 520.376
2005 0 73.6215 12.7408 938 76.8113 1107.04 522.345
2006 0 78.2431 12.934 1012 75.169 1107.07 522.368
2007 0 79.7413 14.4467 1152 74.0582 1107.3 520.718
2008 0 82.3405 14.1971 1169 74.71 1107 519.684
2009 0 85.3866 15.9276 1360 72.4912 1106.48 516.262
2010 0 87.5981 13.4135 1175 75.3787 1106.43 515.158
2011 0 88.9988 13.4721 1199 74.9666 1106.1 514.599
2012 0 91.7026 14.2962 1311 74.0679 1107.2 512.568
2013 0 96.161 14.8605 1429 72.725 1107.42 511.868
2014 0 97.1702 13.677 1329 74.2701 1106.55 509.512
2015 0 103.397 14.3718 1486 72.2651 1106.52 510.449
2016 0 105.353 15.9368 1679 70.4312 1106.46 506.292
2017 0 106.512 14.7213 1568 72.6384 1106.6 503.828
2018 0 112.105 14.3705 1611 72.4072 1106.79 503.067
2019 0 113.112 12.8899 1458 74.2545 1106.74 504.48
2020 0 119.308 15.0199 1792 71.6462 1106.88 500.902
2021 0 122.698 13.9937 1717 73.3419 1106.38 498.46
2022 0 122.269 10.8123 1322 78.0688 1106.04 493.888
2023 0 129.513 14.0681 1822 73.5192 1106.57 496.071
2024 0 133.451 12.8812 1719 75.0902 1106.59 494.475
2025 0 137.754 13.5096 1861 74.6808 1106.48 491.276
2026 0 141.77 13.2892 1884 74.7415 1106.62 488.112
2027 0 144.379 13.6378 1969 74.8222 1106.43 486.486
2028 1 77.2775 14.2603 1102 73.206 1106.31 518.358
2029 0 81.4375 13.8879 1131 73.7277 1106.23 518.817
2030 0 80.8745 12.2535 991 76.6902 1106.04 513.923
2031 0 83.8294 13.6468 1144 74.5157 1106.54 517.622
2032 0 86.5242 14.6664 1269 73.2017 1106.81 517.692
2033 0 89.6647 14.9111 1337 72.8317 1106.43 515.81
2034 0 88.6594 13.0951 1161 76.267 1106.5 512.295
2035 0 92.4727 14.2096 1314 74.2062 1105.98 514.093
2036 0 96.7209 14.3092 1384 73.4704 1105.92 512.719
2037 0 95.4056 12.9971 1240 76.4129 1106.65 511.777
2038 0 98.6999 13.3333 1316 75.0388 1106.27 512.427
2039 0 99.6064 13.2823 1323 76.3847 1106.32 510.135
2040 0 104.275 13.5124 1409 75.5295 1106.51 509.366
2041 0 106.449 12.5694 1338 77.1144 1105.98 506.572
2042 0 112.045 14.8959 1669 73.3277 1105.61 507.809
2043 0 113.741 13.566 1543 75.4459 1104.67 505.639
2044 0 115.343 14.2878 1648 74.6116 1105.3 504.489
2045 0 120.596 13.6488 1646 74.7843 1105.51 505.498
2046 0 124.893 15.9097 1987 72.1022 1105.67 501.532
2047 0 128.527 15.1252 1944 73.3817 1105.02 495.249
2048 0 133.682 13.966 1867 75.0477 1105.09 492.705
2049 0 138.507 14.4613 2003 73.6101 1105.42 494.696
2050 0 141.45 14.3019 2023 72.8527 1105.39 497.574
2051 0 147.498 13.8307 2040 73.7397 1105.09 494.325
2052 0 151.349 13.4656 2038 74.8381 1104.7 485.79
2053 0 157.439 13.04 2053 75.0112 1104.91 488.006
2054 0 163.499 15.8288 2588 71.284 1104.77 484.271
2055 1 81.4141 14.3464 1168 71.9444 1104.83 520.65
2056 0 84.2903 13.8094 1164 70.4828 1105.16 525.559
2057 0 86.7478 13.9485 1210 72.3471 1105.27 519.238
2058 0 88.5394 13.9938 1239 72.6328 1104.71 518.174
2059 0 91.3441 15.8193 1445 70.1779 1105.34 515.492
2060 0 95.7618 15.3297 1468 72.4973 1104.82 515.432
2061 0 95.4213 14.3155 1366 75.3119 1104.58 512.728
2062 0 98.3706 14.2116 1398 74.9728 1105.22 514.495
2063 0 102.474 13.8767 1422 75.2588 1105.15 512.293
2064 0 102.419 13.474 1380 76.0428 1104.99 513.025
2065 0 108.527 14.7613 1602 74.0449 1105.3 508.851
2066 0 109.525 14.3894 1576 75.1136 1105.01 506.51
2067 0 114.305 13.7089 1567 75.7064 1105.69 507.789
2068 0 116.285 13.7507 1599 75.5779 1104.13 505.409
2069 0 121.664 14.9346 1817 73.8905 1104.35 500.983
2070 0 126.625 14.9576 1894 73.3004 1104.84 501.754
2071 0 131.677 15.6519 2061 72.3464 1105.63 498.88
2072 0 133.658 15.3452 2051 73.3905 1104.85 494.057
2073 0 136.817 13.836 1893 75.814 1105 491.269
2074 0 141.774 14.0576 1993 75.2072 1104.91 493.404
2075 0 146.815 14.0585 2064 75.0678 1104.36 491.778
2076 0 151.574 14.0196 2125 75.0753 1104.3 486.532
2077 0 158.594 14.8367 2353 73.8075 1103.82 484.895
2078 0 166.036 15.9182 2643 71.5142 1104.76 484.527
2079 0 169.439 15.4273 2614 73.0023 1104.53 479.439
2080 0 174.84 15.0194 2626 74.2205 1104.74 474.033
2081 0 180.199 14.4229 2599 74.3621 1105.2 477.092
2082 0 186.52 15.2102 2837 73.4399 1105.34 472.618
2083 0 193.693 14.9877 2903 73.6528 1104.13 469.094
2084 0 203.802 16.3001 3322 71.3642 1104.76 463.465
2085 0 208.86 14.7802 3087 73.9721 1104.27 457.686
2086 0 217.732 16.4193 3575 70.9508 1104.41 458.684
2087 0 225.727 16.9496 3826 70.4341 1104.7 453.808
2088 0 231.683 15.0076 3477 73.4768 1105.22 447.604
2089 0 239.962 14.4648 3471 73.9692 1105.08 444.872
2090 1 186.507 13.726 2560 74.2746 1105.35 474.952
2091 0 190.698 13.0048 2480 76.1234 1104.72 468.885
2092 0 198.761 14.052 2793 74.6545 1104.89 464.009
2093 0 205.043 13.1924 2705 76.2044 1105.1 459.713
2094 0 211.73 14.2493 3017 73.9168 1104.5 461.427
2095 0 220.801 14.5018 3202 73.9104 1105.1 454.168
2096 0 228.77 14.3507 3283 73.9826 1104.77 452.333
2097 0 236.098 15.1674 3581 72.9916 1104.52 446.176
2098 0 244.585 13.7212 3356 75.3778 1103.97 443.889
2099 0 250.777 13.8928 3484 75.1421 1104.57 438.326
2100 0 260.043 14.0515 3654 74.6612 1105.04 437.424
2101 0 269.71 14.3858 3880 74.4371 1105.59 430.428
2102 0 277.885 14.4448 4014 74.2613 1105.26 430.13
2103 1 127.73 12.5734 1606 75.0778 1105.02 498.638
2104 0 131.611 14.6112 1923 72.8383 1104.89 494.646
2105 0 133.617 12.5882 1682 75.585 1104.86 495.317
2106 0 140.116 15.2588 2138 71.8803 1104.99 492.256
2107 0 144.294 15.4269 2226 72.0108 1104.96 488.476
2108 0 149.495 14.8299 2217 72.5679 1105.31 487.769
2109 0 150.853 13.6159 2054 74.3608 1105.26 487.072
2110 0 158.518 14.8689 2357 72.2384 1104.4 484.405
2111 0 165.245 14.8386 2452 71.8165 1104.3 482.808
2112 0 167.896 14.0623 2361 73.6226 1104.82 476.851
2113 0 173.4 13.9966 2427 73.618 1104.4 474.658
2114 0 180.46 14.6127 2637 72.4501 1104.95 470.94
2115 1 52.471 11.8542 622 68.7251 1105.25 533.725
2116 0 56.5145 14.4565 817 66.929 1105.44 533.996
2117 0 55.3358 11.9995 664 72.3464 1104.05 530.761
2118 0 58.9708 11.3616 670 72.2224 1104.23 531.213
2119 0 61.3391 15.3246 940 68.0447 1104.54 529.883
2120 0 59.5915 12.5521 748 73.1324 1105.19 527.389
2121 0 64.0246 14.1508 906 70.1887 1104.58 529.348
2122 0 65.717 13.9081 914 70.6641 1104.59 527.763
2123 0 67.8192 13.3148 903 71.5792 1104.72 526.316
2124 0 68.3026 14.5382 993 70.8651 1104.11 525.668
2125 0 68.5738 13.6787 938 72.6343 1104.62 525.726
2126 0 72.5038 14.6889 1065 71.3033 1104.69 523.919
2127 0 73.9165 13.3394 986 72.6978 1104.57 524.729
2128 0 75.5861 13.9973 1058 72.4291 1104.44 523.063
2129 0 80.8465 14.1626 1145 71.0445 1104.66 521.489
2130 0 82.6159 14.4161 1191 71.393 1104.76 518.887
2131 0 83.585 13.3995 1120 72.7982 1104.43 519.869
2132 0 87.3731 15.1191 1321 70.3354 1104.7 517.708
2133 0 91.2459 14.3568 1310 71.1557 1104.3 516.766
2134 0 93.695 15.2623 1430 70.2979 1104.34 513.413
2135 0 95.9566 14.0272 1346 71.7474 1105.01 513.01
2136 0 102.759 15.5996 1603 68.1996 1104.62 513.294
2137 0 104.633 13.8484 1449 71.2629 1104.58 510.376
2138 1 53.5199 14.7795 791 68.6523 1104.63 533.48
2139 0 54.8164 11.6206 637 72.0926 1104.78 531.793
2140 0 54.4722 12.869 701 72.2311 1104.99 530.127
2141 0 57.8499 16.8194 973 66.963 1105.12 530.991
2142 0 60.0656 14.5341 873 69.7915 1105.77 529.914
2143 0 59.4035 14.4099 856 70.3528 1104.59 529.664
2144 0 61.2558 15.7373 964 69.0239 1105.18 527.478
2145 0 61.1419 15.7339 962 64.9376 1104.35 527.874
2146 0 63.7685 14.929 952 70.7542 1104.59 526.26
2147 0 64.413 13.429 865 73.0879 1104.38 526.372
2148 0 66.2134 16.2958 1079 70.0463 1104.51 524.521
2149 0 67.2312 14.9335 1004 72.3486 1104.79 525.479
2150 0 69.4387 15.4093 1070 71.7626 1104.4 524.784
2151 0 71.6828 14.1875 1017 73.6057 1104.45 522.182
2152 0 71.5049 14.027 1003 74.5543 1104.68 520.87
2153 0 76.9886 16.2232 1249 70.8319 1104.61 521.452
2154 0 78.282 16.2873 1275 71.331 1104.36 521.765
2155 0 81.1739 16.1012 1307 71.3634 1103.97 518.717
2156 0 82.4192 15.7852 1301 71.8739 1103.23 519.937
2157 0 87.6185 15.2707 1338 71.8729 1103.33 517.681
2158 0 91.4923 16.7774 1535 69.5277 1104.05 517.67
2159 0 93.5476 16.815 1573 70.0655 1104.21 515.014
2160 0 93.8768 15.254 1432 72.1578 1103.73 512.626
2161 0 99.3323 16.0874 1598 70.7635 1103.57 510.738
2162 0 101.473 15.7677 1600 71.2819 1103.06 509.141
2163 0 103.411 15.5303 1606 71.3755 1103.81 509.204
2164 0 110.023 17.1328 1885 69.035 1104.08 503.866
2165 0 112.269 17.4759 1962 68.6952 1104.11 502.48
2166 0 115.518 15.6426 1807 70.8932 1104.27 501.536
2167 0 118.484 16.095 1907 70.6974 1104.61 502.184
2168 0 124.729 15.6419 1951 69.9698 1104.49 502.199
2169 0 126.341 16.0201 2024 70.2386 1103.96 499.416
2170 0 132.186 15.168 2005 70.7456 1104.22 498.206
2171 0 134.307 13.8489 1860 72.6355 1104.05 496.354
2172 1 66.3533 16.2162 1076 68.3727 1104.28 528.313
2173 0 66.2505 14.0678 932 71.6223 1104.08 525.615
2174 1 147.383 14.2215 2096 72.6546 1103.98 489.86
2175 0 152.53 14.7512 2250 71.4427 1104.13 487.111
2176 1 72.1091 13.8817 1001 72.4565 1104.12 525.782
2177 0 71.4398 13.8998 993 74.7593 1104.19 522.41
2178 0 73.3681 14.7884 1085 73.4682 1104.31 523.163
2179 0 74.1249 14.3541 1064 74.4295 1104.93 523.226
2180 0 80.2397 15.6531 1256 72.0032 1104.5 523.353
2181 0 79.2232 16.0307 1270 72.852 1104.19 518.502
2182 0 80.3369 13.6052 1093 75.8536 1104.92 521.085
2183 1 190.678 15.1197 2883 72.6299 1104.6 470.109
2184 0 194.625 14.0424 2733 74.0388 1104.3 467.224
2185 1 86.3883 14.4117 1245 75.2498 1103.78 518.157
2186 0 87.3232 14.1543 1236 76.424 1104.53 515.549
2187 0 91.2192 15.1722 1384 74.7738 1103.89 515.81
2188 1 220.532 17.9657 3962 69.4813 1104.27 458.653
2189 0 224.738 16.1744 3635 72.4094 1104.73 451.537
2190 1 98.7951 16.2964 1610 73.7894 1104.34 513.15
2191 0 101.508 15.3387 1557 75.5356 1104.65 511.087
2192 0 105.586 15.5702 1644 74.8072 1104.21 510.617
2193 0 107.784 14.2878 1540 76.6643 1103.99 510.008
2194 0 110.744 15.9648 1768 74.957 1103.83 506.963
2195 0 114.972 14.8471 1707 76.7428 1104.26 506.542
2196 0 118.451 15.5338 1840 75.6783 1104.07 505.199
2197 0 121.514 15.06 1830 76.947 1103.56 502.64
2198 0 121.285 14.0249 1701 78.264 1104 504.505
2199 0 121.279 13.3329 1617 79.2016 1104.91 506.277
2200 1 215.545 15.5791 3358 77.8574 1104.16 463.368
2201 0 219.656 14.9234 3278 79.7602 1103.94 458.737
2202 0 226.581 14.4496 3274 80.3018 1103.88 457.514
2203 0 234.615 15.7364 3692 78.8055 1103.98 452.461
2204 0 242.392 16.8735 4090 77.3504 1104.11 449.022
2205 0 246.524 13.7593 3392 71.3685 1102.83 453.356
2206 0 256.694 16.3307 4192 79.2688 1103.9 438.047
2207 1 164.302 14.729 2420 80.6269 1104.19 482.99
2208 0 168.444 13.8384 2331 82.3642 1104.31 479.533
2209 0 177.535 16.0025 2841 78.6206 1103.97 478.495
2210 0 180.345 16.4296 2963 78.8117 1104.09 474.397
2211 0 183.307 14.773 2708 81.7168 1104.44 472.096
2212 0 190.275 16.5392 3147 79.4077 1103.65 470.535
2213 0 196.41 16.435 3228 79.9718 1103.31 468.208
2214 0 200.293 16.1414 3233 81.2623 1104.02 463.667
2215 0 207.337 15.6316 3241 82.1163 1103.84 462.09
2216 1 157.313 14.0738 2214 84.3794 1104.04 485.919
2217 0 163.517 15.8271 2588 81.7183 1103.86 486.153
2218 0 167.534 16.3967 2747 81.9563 1103.65 480.174
2219 0 176.172 13.1803 2322 85.7347 1104.01 483.949
2220 0 176.365 14.555 2567 84.6954 1103.46 480.41
2221 0 181.297 15.4884 2808 83.6396 1103.57 476.368
2222 0 186.617 16.0007 2986 83.6705 1103.75 472.888
2223 0 192.21 14.8848 2861 85.3121 1103.9 471.526
2224 0 197.334 16.054 3168 84.8703 1104.41 460.443
2225 0 202.563 15.8222 3205 85.0911 1105.2 463.508
2226 0 208.697 15.223 3177 86.0066 1103.74 463.021
2227 0 215.224 14.859 3198 87.1029 1104.21 457.735
2228 0 222.835 14.9976 3342 87.2427 1104.28 455.346
2229 0 228.808 16.1533 3696 85.5517 1104.41 448.689
2230 0 235.557 14.5357 3424 87.8855 1104.7 449.696
2231 0 242.643 14.952 3628 87.7415 1105.14 444.643
2232 0 248.283 14.0767 3495 88.9436 1104.5 439.518
2233 0 255.567 13.2803 3394 90.0333 1104.76 437.047
2234 0 266.564 14.173 3778 88.433 1104.28 433.988
2235 0 274.566 14.0039 3845 89.1248 1104.81 429.375
2236 1 186.596 12.0581 2250 85.0711 1104.65 480.257
2237 0 193.263 11.8802 2296 85.1751 1104.93 475.439
2238 0 203.61 11.9395 2431 84.8877 1105.45 471.324
2239 0 206.782 14.1743 2931 83.3487 1104.92 458.733
2240 0 210.529 12.0221 2531 85.7369 1105.21 464.033
2241 1 159.4 14.8934 2374 82.2717 1105.33 483.005
2242 0 162.337 12.8806 2091 85.3357 1106 482.56
2243 0 167.526 12.8756 2157 83.9119 1105.1 484.266
2244 0 172.28 12.9034 2223 84.4107 1104.55 480.228
2245 0 174.246 12.6259 2200 86.0595 1104.97 471.29
2246 0 183.699 13.6364 2505 84.1325 1105.65 471.283
2247 0 188.7 14.0275 2647 83.524 1105.3 470.443
2248 0 194.307 13.0978 2545 84.446 1104.79 471.247
2249 0 193.382 13.4139 2594 86.0717 1104.85 455.79
2250 0 203.454 14.1457 2878 84.123 1105.18 461.45
2251 1 136.192 14.1565 1928 82.3708 1105.56 493.474
2252 0 141.158 13.2546 1871 83.0374 1105.25 491.686
2253 0 143.532 13.6694 1962 82.9485 1105.45 484.305
2254 0 149.166 12.9855 1937 83.4244 1105.31 485.419
2255 0 153.406 13.0895 2008 82.8506 1105.31 484.486
2256 0 161.319 12.5652 2027 82.4662 1105.56 486.36
2257 0 166.34 14.5546 2421 79.9645 1105.92 482.952
2258 0 171.391 13.9331 2388 81.0951 1105.53 480.168
2259 0 179.69 15.4766 2781 77.8874 1105.05 478.558
2260 0 179.345 13.0976 2349 80.822 1104.98 482.14
2261 0 187.462 12.9946 2436 82.0365 1104.59 472.17
2262 0 193.445 14.0453 2717 80.1881 1105.32 472.147
2263 0 201.472 14.2948 2880 79.5431 1105.51 466.155
2264 0 207.324 14.3398 2973 79.6398 1104.8 464.102
2265 0 213.435 16.1876 3455 77.0446 1105 460.544
2266 0 221.482 14.2359 3153 80.0682 1105.38 454.295
2267 0 227.294 13.5068 3070 80.9378 1105.2 458.689
2268 0 233.861 13.2814 3106 80.82 1105.81 455.496
2269 0 241.698 14.1788 3427 80.3904 1105.4 445.73
2270 0 250.408 14.3725 3599 79.7144 1105.48 444.953
2271 0 258.553 14.5038 3750 79.4733 1105.34 442.249
2272 0 267.589 15.6471 4187 77.8643 1105.81 439.145
2273 0 271.434 14.6702 3982 80.4879 1105.3 430.011
2274 0 279.281 15.0852 4213 80.0173 1105.52 430.094
2275 1 187.38 13.8809 2601 80.629 1105.62 474.09
2276 0 193.552 14.1047 2730 80.0443 1105.59 474.893
2277 1 122.38 13.1395 1608 80.9272 1105.68 503.544
2278 0 127.44 13.5514 1727 79.8616 1105.76 503.683
2279 0 132.275 14.7118 1946 78.853 1106.22 499.116
2280 0 136.565 14.3155 1955 78.8399 1106.53 497.912
2281 0 141.595 13.1007 1855 80.3412 1105.49 496.192
2282 0 144.488 13.7382 1985 79.4433 1105.24 492.553
2283 0 150.766 13.3054 2006 79.4172 1105.3 490.976
2284 0 157.582 14.456 2278 76.9311 1105.56 490.717
2285 1 64.327 13.7578 885 77.3571 1106.04 527.636
2286 0 67.6591 13.5828 919 76.9412 1105.87 528.046
2287 0 69.1584 14.1993 982 76.5825 1106.02 526.105
2288 0 71.5573 14.3801 1029 75.9018 1106.93 526.927
2289 0 73.2602 14.428 1057 76.2952 1106.79 523.888
2290 0 73.3953 13.257 973 78.6197 1105.54 522.612
2291 0 77.6255 14.3767 1116 76.6559 1105.44 522.835
2292 0 77.277 13.0828 1011 78.7448 1105.69 521.213
2293 0 80.309 14.0955 1132 77.2429 1105.96 522.262
2294 0 84.5486 13.6608 1155 77.8511 1106.28 520.073
2295 0 85.6247 13.5592 1161 78.4177 1106.13 519.356
2296 0 88.6849 14.1287 1253 77.4046 1105.4 517.987
2297 0 89.4189 13.7107 1226 78.6232 1106.03 516.641
2298 0 93.4973 14.61 1366 77.3148 1106.29 514.531
2299 0 97.5294 13.5959 1326 78.0294 1105.98 513.721
2300 0 100.761 13.5568 1366 76.4231 1105.89 513.367
2301 0 102.438 13.3837 1371 76.5113 1106.1 513.06
2302 0 106.889 14.4168 1541 74.9078 1106.08 511.58
2303 0 110.589 13.6994 1515 76.5881 1106.64 507.069
2304 0 110.72 13.2406 1466 78.2797 1106.38 503.613
2305 0 117.844 14.2561 1680 75.7036 1106.07 501.882
2306 0 123.215 13.7727 1697 75.6258 1106.12 505.003
2307 0 126.638 14.1506 1792 75.5011 1106.51 499.917
2308 1 54.7768 11.8481 649 72.5516 1106.66 532.428
2309 0 55.4137 13.8052 765 70.519 1105.95 533.191
2310 0 56.7263 13.3272 756 71.422 1105.56 532.811
2311 0 57.3997 12.8572 738 73.6057 1105.31 531.443
2312 0 59.6943 13.6026 812 71.7168 1105.31 532.86
2313 0 60.2988 14.2457 859 72.5716 1106.11 529.955
2314 0 61.263 13.287 814 73.0184 1106.16 531.694
2315 0 63.5613 13.31 846 73.1655 1106.03 531.359
2316 0 65.6939 12.8475 844 74.2014 1106.01 529.659
2317 0 67.8705 14.9255 1013 72.4827 1105.33 527.398
2318 0 67.3638 13.9689 941 74.2221 1105.44 528.137
2319 0 71.7085 14.9076 1069 72.3246 1106.37 526.793
2320 0 72.6961 14.65 1065 73.1897 1106.19 525.654
2321 0 76.3656 15.1115 1154 72.3397 1106.05 523.831
2322 0 76.1868 14.0969 1074 74.4506 1105.96 524.138
2323 0 77.5711 15.1732 1177 73.5794 1106.34 523.462
2324 0 78.4935 14.4725 1136 74.2931 1106.75 522.201
2325 0 82.498 14.7882 1220 73.9066 1106.5 519.84
2326 0 83.9088 14.778 1240 74.2073 1106.4 517.65
2327 0 85.1608 14.3728 1224 73.7524 1106.03 520.985
2328 0 88.8442 13.6081 1209 75.4376 1106.28 517.663
2329 0 92.7708 15.285 1418 72.5197 1106.8 515.894
2330 0 94.5774 14.4855 1370 73.9672 1105.93 513.301
2331 0 96.6729 13.7991 1334 74.9415 1105.93 510.063
2332 0 101.88 12.9368 1318 74.6404 1106.13 512.278
2333 0 103.886 14.4389 1500 73.1927 1106.37 507.304
2334 0 108.396 13.4968 1463 73.5058 1106.45 509.654
2335 0 111.999 14.518 1626 72.3413 1106.55 503.017
2336 0 114.929 14.2871 1642 71.3496 1106.18 508.001
2337 0 121.175 15.2094 1843 70.4504 1106.47 505.539
2338 0 123.826 14.9968 1857 71.4782 1106.15 499.916
2339 1 68.6108 11.9661 821 73.2485 1106.17 524.624
2340 0 71.275 12.9919 926 71.9449 1106.2 523.256
2341 0 72.7284 12.3886 901 72.3196 1105.89 524.199
2342 0 74.787 12.4621 932 72.0365 1106.26 523.693
2343 0 77.3852 14.4214 1116 70.3414 1106.27 520.161
2344 0 81.3072 15.1893 1235 68.902 1107.19 520.853
2345 0 83.5074 15.6274 1305 68.5249 1106.2 518.643
2346 1 159.009 14.6218 2325 69.5776 1105.72 486.062
2347 1 86.3729 13.187 1139 71.9306 1106.04 514.753
2348 0 88.5557 12.591 1115 72.3668 1105.54 516.237
2349 0 90.8454 12.901 1172 71.9044 1106.18 515.495
2350 0 93.1476 12.8076 1193 64.663 1106.71 514.796
2351 0 96.8118 15.2357 1475 61.6875 1105.73 511.524
2352 0 97.4456 13.9052 1355 63.538 1105.27 508.59
2353 0 100.844 15.3702 1550 61.6716 1105.71 510.033
2354 0 103.672 14.623 1516 62.94 1106.12 508.77
2355 0 107.385 15.2162 1634 61.814 1106.18 509.427
2356 0 109.7 13.6737 1500 63.2153 1106.16 510.982
2357 0 112.853 14.8689 1678 62.9237 1106.47 506.729
2358 0 114.548 14.6401 1677 63.6559 1106.51 504.433
2359 0 119.649 14.9854 1793 63.0535 1106.41 503.143
2360 0 124.536 13.0885 1630 64.9362 1105.65 503.214
2361 0 124.838 14.9554 1867 63.0943 1106.13 502.598
2362 0 127.58 13.9912 1785 64.3933 1105.42 499.389
2363 0 131.588 14.8494 1954 63.3987 1105.8 497.706
2364 0 134.43 16.0679 2160 61.7796 1105.8 495.936
2365 0 139.823 15.5626 2176 62.2914 1105.76 496.054
2366 0 140.477 15.7107 2207 63.3783 1105.79 490.839
2367 0 147.648 13.2274 1953 65.4429 1105.32 493.169
2368 0 147.842 14.5831 2156 64.3956 1104.96 492.125
2369 0 150.508 13.7535 2070 64.9271 1105.61 495.083
2370 0 154.981 13.4726 2088 65.0771 1105.07 491.176
2371 0 159.903 13.5644 2169 65.3739 1106.02 489.487
2372 0 161.182 12.9667 2090 66.6502 1106.49 485.758
2373 0 170.328 15.2354 2595 64.4547 1105.46 481.699
2374 0 167.991 13.209 2219 65.7098 1106.11 488.674
2375 0 179.1 14.3216 2565 65.6741 1105.33 478.061
2376 0 185.562 14.2378 2642 65.6332 1105.48 477.932
2377 0 189.75 13.8129 2621 66.6284 1105.12 470.66
2378 0 197.813 12.7898 2530 66.4051 1105.85 475.453
2379 0 203.664 14.1557 2883 65.4568 1105.39 468.88
2380 1 155.023 14.5334 2253 65.0364 1105.56 487.777
2381 0 160.839 14.5425 2339 64.979 1105.46 486.575
2382 0 164.865 13.2533 2185 67.2975 1105.64 481.305
2383 0 170.771 12.4846 2132 67.887 1105.6 481.784
2384 1 116.822 13.756 1607 66.6304 1106.16 499.332
2385 0 122.876 13.8188 1698 66.2208 1105.97 500.007
2386 0 124.613 13.8749 1729 66.5292 1106.01 501.659
2387 1 65.2968 12.7418 832 66.1635 1106.29 525.183
2388 0 68.6763 11.7653 808 66.6188 1106.76 527.01
2389 0 70.46 14.2776 1006 64.9264 1106 524.524
2390 0 71.5758 12.4483 891 67.0022 1107.04 526.507
2391 0 74.4281 13.6911 1019 66.21 1107.23 523.47
2392 0 74.4999 14.4832 1079 66.3475 1106.75 522.372
2393 0 76.5553 13.2453 1014 67.7742 1107.62 522.665
2394 0 79.5582 14.0652 1119 68.2395 1108.25 520.03
2395 0 81.5808 16.0332 1308 66.3173 1108.1 517.992
2396 0 82.7642 14.2695 1181 68.6342 1107.54 517.049
2397 0 82.8514 13.8561 1148 69.2552 1107.54 519.326
2398 0 85.4723 15.0341 1285 67.5533 1107.43 519.274
2399 0 89.7908 14.6674 1317 68.8102 1107.7 517.039
2400 0 90.6958 15.7339 1427 68.3462 1107.31 514.986
2401 0 91.6928 13.6652 1253 70.9489 1107.61 513.01
2402 0 94.8587 14.7693 1401 69.6488 1107.94 513.652
2403 0 96.5509 14.5001 1400 69.8207 1107.82 513.074
2404 1 155.785 15.6562 2439 68.9762 1107.7 485.477
2405 0 160.101 13.2354 2119 70.7721 1106.86 486.528
2406 1 106.031 14.2128 1507 69.564 1107.16 510.597
2407 0 106.811 13.978 1493 70.4112 1107.57 507.962
2408 0 109.188 13.1425 1435 71.8753 1107.09 506.478
2409 0 110.629 13.8843 1536 70.2917 1106.86 505.304
2410 0 114.461 14.5115 1661 70.2613 1107.09 502.648
2411 0 119.735 15.9686 1912 67.7824 1107.29 503.257
2412 0 116.742 11.8124 1379 73.9485 1107.8 501.034
2413 0 124.953 13.309 1663 71.2014 1107.26 502.398
2414 0 136.202 11.7473 1600 71.0519 1107.09 503.529
2415 0 136.559 13.3276 1820 71.4165 1107.92 498.67
2416 0 136.937 15.8029 2164 68.61 1107.8 497.14
2417 0 137.073 13.0442 1788 70.2746 1107.82 501.39
2418 0 136.794 10.9508 1498 73.2457 1107.88 500.617
2419 1 237.988 14.8999 3546 70.3204 1107.55 448.689
2420 0 245.054 14.3234 3510 71.202 1107.72 440.067
2421 0 251.88 13.8796 3496 71.2863 1108.12 446.052
2422 0 258.255 13.0143 3361 72.9274 1107.92 441.474
2423 0 266.735 13.8752 3701 71.8919 1107.37 434.697
2424 1 222.541 13.948 3104 70.6163 1107.15 458.637
2425 1 180.05 12.8908 2321 71.1745 1106.8 478.817
2426 0 184.909 14.1691 2620 69.8237 1107.75 470.492
2427 0 192.746 14.0185 2702 69.2176 1107.73 473.015
2428 1 96.7953 13.7197 1328 69.6882 1107.78 509.149
2429 0 100.81 13.7089 1382 68.3452 1107.47 512.543
2430 0 102.834 14.4213 1483 67.47 1107.37 510.352
2431 0 107.642 15.8302 1704 66.1684 1106.81 509.056
2432 0 109.01 11.7145 1277 71.4644 1107.02 502.83
2433 0 113.552 13.5093 1534 68.6388 1107.04 504.158
2434 0 118.602 14.8311 1759 66.7044 1106.81 504.758
2435 0 124.789 14.9933 1871 66.496 1106.23 500.32
2436 0 127.662 16.1756 2065 65.8368 1106.55 495.05
2437 0 131.429 14.7076 1933 66.4909 1107.03 499.3
2438 1 76.9902 14.2486 1097 65.2361 1107.25 522.498
2439 0 76.868 13.2175 1016 67.8573 1107.04 520.946
2440 0 79.8632 13.8862 1109 67.8034 1106.79 518.882
2441 0 83.603 14.6406 1224 65.7925 1106.86 520.365
2442 0 84.7272 16.0751 1362 65.5191 1107.01 517.341
2443 0 85.8593 12.5554 1078 69.654 1106.59 515.042
2444 0 88.7396 12.5536 1114 69.0063 1106.9 518.537
2445 0 90.8501 14.0121 1273 68.6198 1106.66 511.502
2446 0 93.777 13.8947 1303 69.1589 1107.83 512.691
2447 0 97.1857 15.7739 1533 66.2283 1107.35 512.238
2448 0 98.7258 14.2516 1407 69.4094 1107.33 508.328
2449 0 101.565 13.7351 1395 69.6788 1107.38 510.631
2450 0 104.818 15.1596 1589 67.9767 1106.67 507.271
2451 0 106.861 13.7281 1467 69.2611 1107.28 509.776
2452 0 110.645 15.247 1687 67.9312 1106.66 504.545
2453 0 115.474 16.0036 1848 66.5319 1106.98 505.514
2454 0 116.124 14.4587 1679 68.7743 1107.35 504.569
2455 0 119.936 15.5583 1866 67.3928 1106.65 501.27
2456 0 122.688 14.386 1765 69.3909 1106.8 497.589
2457 0 127.698 15.5993 1992 67.627 1106.95 496.069
2458 0 130.184 15.3244 1995 67.3404 1107.05 499.449
2459 0 136.052 14.3621 1954 68.7339 1106.53 494.226
2460 0 137.482 14.4819 1991 69.7368 1106.4 490.97
2461 0 142.719 14.3639 2050 69.3068 1106.91 492.896
2462 0 146.84 14.7236 2162 68.6869 1106.97 487.906
2463 0 152.245 14.8445 2260 68.7681 1107.41 485.221
2464 0 155.981 14.4569 2255 69.267 1107.28 486.583
2465 0 162.262 15.4318 2504 68.2428 1107.5 482.197
2466 0 165.801 15.1567 2513 68.386 1107.12 479.364
2467 1 65.8502 12.8018 843 66.8458 1106.76 526.716
2468 0 68.6693 14.9994 1030 65.4602 1106.86 525.684
2469 0 67.5302 12.5573 848 68.3833 1106.78 525.562
2470 0 69.5739 12.8928 897 68.6734 1107 521.939
2471 0 71.5007 13.5803 971 68.5726 1107.04 520.92
2472 0 73.5818 13.1418 967 68.6308 1106.83 521.712
2473 0 76.365 13.8021 1054 68.3444 1106.82 520.99
2474 0 77.6634 11.3567 882 71.2075 1106.95 520.789
2475 0 80.7764 13.8654 1120 68.017 1107.08 519.544
2476 0 81.4568 13.7373 1119 68.5058 1106.96 516.317
2477 0 86.4154 14.1873 1226 66.9103 1106.37 518.715
2478 0 86.5828 13.4553 1165 69.5116 1106.68 512.292
2479 0 91.8317 13.5792 1247 68.741 1106.36 514.179
2480 0 91.4634 13.448 1230 69.0317 1106.96 514.738
2481 0 95.5954 13.4734 1288 68.67 1107.39 511.179
2482 0 98.9262 13.3332 1319 68.7362 1107.26 509.599
2483 0 101.42 13.3701 1356 67.6718 1107.52 511.884
2484 0 104.008 12.9701 1349 68.6338 1107.2 507.203
2485 0 108.613 14.8692 1615 66.6396 1106.88 505.101
2486 0 110.6 12.6401 1398 69.1059 1106.73 502.657
2487 0 116.544 13.7115 1598 66.5294 1106.68 504.208
2488 1 62.545 13.2864 831 65.3767 1107.28 525.229
2489 0 66.8844 13.1122 877 65.3478 1107.02 524.662
2490 0 66.6144 12.82 854 65.6159 1107.14 522.307
2491 0 71.9263 12.9021 928 64.3836 1106.94 523.748
2492 0 71.3173 13.2506 945 65.0444 1107 520.89
2493 0 73.9296 11.9708 885 66.1356 1106.99 521.995
2494 0 78.1602 14.4063 1126 63.1146 1106.99 520.44
2495 0 76.8841 10.7825 829 67.9409 1106.79 516.876
2496 0 81.9234 13.9399 1142 63.6471 1106.77 518.849
2497 0 82.6163 13.3267 1101 64.2071 1106.63 516.943
2498 0 83.9083 13.0023 1091 65.538 1106.96 511.717
2499 0 89.6845 14.2946 1282 63.1896 1107.22 513.598
2500 0 91.6474 13.0937 1200 64.4708 1106.61 513.114
2501 0 91.6197 13.5233 1239 64.5222 1107.67 510.558
2502 0 94.381 12.5025 1180 66.4237 1107.21 508.288
2503 0 97.6183 13.7986 1347 64.9889 1106.69 505.321
2504 0 103.657 16.8632 1748 60.8364 1106.74 507.344
2505 0 103.901 13.4648 1399 64.872 1106.95 505.212
2506 0 107.678 13.4011 1443 65.1372 1106.77 503.731
2507 0 111.473 14.1828 1581 64.4643 1107.37 503.806
2508 0 113.76 13.6867 1557 64.8003 1107.43 501.835
2509 0 116.424 12.3084 1433 66.2575 1107.21 499.427
2510 0 118.939 14.3098 1702 64.1804 1107.05 499.082
2511 0 124.769 13.0001 1622 64.8502 1106.76 494.318
2512 0 127.958 13.6607 1748 64.0681 1106.02 493.497
2513 0 129.904 12.1705 1581 66.7084 1106.83 484.829
2514 0 135.294 12.0256 1627 66.2624 1106.34 486.221
2515 0 137.149 11.9068 1633 66.5995 1105.9 484.74
2516 0 141.709 13.803 1956 64.6697 1106.9 486.057
2517 1 78.1265 10.5086 821 65.9586 1107.13 514.609
2518 0 81.1488 13.8881 1127 63.614 1106.89 511.879
2519 0 82.7482 11.6861 967 66.3692 1106.41 508.417
2520 0 85.1419 14.6109 1244 63.0522 1106.68 510.615
2521 0 89.2631 13.2866 1186 63.5801 1106.93 512.97
2522 0 90.9647 15.5225 1412 62.2224 1107.58 506.789
2523 0 92.2628 13.7434 1268 64.4882 1107.4 508.563
2524 0 92.3605 12.0614 1114 67.5126 1107.76 504.201
2525 0 97.907 13.4209 1314 64.6149 1107.18 508.061
2526 0 97.2551 12.822 1247 66.8492 1107.61 500.116
2527 0 101.754 14.0437 1429 65.5465 1108.17 500.915
2528 0 101.933 12.9399 1319 66.6687 1107.73 504.581
2529 0 105.545 12.1749 1285 67.5603 1107.29 501.17
2530 0 108.715 14.607 1588 65.2236 1107.88 498.023
2531 0 112.256 14.1462 1588 64.6455 1107.84 500.986
2532 0 115.864 13.8869 1609 65.1311 1107.79 498.684
2533 0 119.507 14.7522 1763 64.8576 1108.09 495.576
2534 0 124.609 14.3168 1784 64.7164 1108.03 493.569
2535 0 128.263 14.4859 1858 64.5592 1108.39 493.347
2536 0 130.09 12.3838 1611 66.6474 1108.39 491.153
2537 0 136.153 13.8594 1887 65.4563 1107.74 485.37
2538 0 140.604 14.7719 2077 64.0958 1107.77 488.033
2539 1 75.9409 13.392 1017 63.3382 1107.64 518.272
2540 0 77.9759 13.0297 1016 64.2825 1107.51 516.089
2541 0 79.9553 12.5695 1005 63.9642 1107.31 518.892
2542 0 83.5022 14.2152 1187 64.1213 1107.39 514.533
2543 0 85.9999 12.8023 1101 64.8865 1107.38 514.975
2544 0 87.3923 14.166 1238 63.6381 1107.38 511.7
2545 0 91.6314 14.0345 1286 63.2978 1108.7 513.477
2546 0 93.9543 14.8476 1395 63.0516 1106.8 510.207
2547 0 97.8386 13.6347 1334 64.6364 1107.29 507.586
2548 0 97.5911 14.694 1434 64.2929 1107.79 504.892
2549 0 102.085 12.9695 1324 65.0091 1107.81 508.017
2550 0 103.79 15.3772 1596 63.3239 1107.67 503.915
2551 0 107.957 14.5058 1566 64.0447 1107.28 501.842
2552 0 109.717 12.7692 1401 65.9415 1107.36 501.887
2553 0 115.104 14.5086 1670 64.3982 1107.32 498.337
2554 0 116.686 13.6434 1592 65.0565 1107.41 496.61
2555 0 122.685 15.3972 1889 63.5405 1108.24 494.935
2556 1 68.9654 13.0645 901 62.3607 1107.86 521.216
2557 0 70.3593 13.0757 920 63.2935 1107.11 519.022
2558 0 72.6572 12.7723 928 63.6261 1107.71 520.211
2559 0 74.5428 15.4676 1153 61.7563 1107.14 515.483
2560 0 76.1286 12.9386 985 64.4223 1106.59 515.368
2561 0 79.2492 12.8329 1017 64.1681 1107.02 514.827
2562 0 79.8553 13.4368 1073 64.2432 1107.36 515.296
2563 0 82.1059 12.7031 1043 64.9693 1107.79 512.645
2564 0 86.1579 13.8699 1195 63.7582 1108.4 514.145
2565 0 85.7539 13.1306 1126 65.0497 1108.64 512.065
2566 0 89.2719 14.5175 1296 64.159 1108.21 509.252
2567 0 90.9682 15.8847 1445 62.7945 1108.2 507.93
2568 0 95.0739 12.5376 1192 66.6879 1107.63 506.53
2569 0 98.0996 14.3324 1406 64.0761 1107.13 509.885
2570 0 99.0093 14.8471 1470 63.8776 1107.61 506.944
2571 0 102.177 13.8192 1412 65.4285 1107.67 504.566
2572 0 103.886 14.1982 1475 64.7871 1108.04 504.056
2573 0 107.994 15.112 1632 63.5306 1108.02 502.807
2574 0 109.876 12.7234 1398 65.8104 1107.5 501.637
2575 0 108.535 10.8444 1177 69.8097 1107.72 491.049
2576 0 115.523 11.5821 1338 67.349 1106.91 498.54
2577 0 120.838 13.2822 1605 65.9526 1107.08 494.918
2578 1 64.9672 12.4986 812 64.3079 1106.64 520.415
2579 0 68.2042 12.5066 853 63.2227 1106.61 521.506
2580 0 69.9833 14.7892 1035 61.7246 1106.58 521.714
2581 0 69.8228 12.4601 870 65.2575 1107.06 517.264
2582 0 68.744 13.5575 932 64.0311 1107.05 521.233
2583 0 71.754 13.2676 952 65.0357 1107.27 517.47
2584 0 74.2748 13.4366 998 64.4339 1106.81 518.201
2585 0 73.5952 10.5713 778 69.2815 1107.06 510.999
2586 0 77.6674 12.811 995 65.7759 1106.45 515.208
2587 0 80.8372 14.3869 1163 64.5924 1107.1 511.442
2588 0 81.7067 12.5326 1024 66.6777 1106.06 513.448
2589 0 82.4738 12.2342 1009 68.1913 1106.19 509.838
2590 0 86.5529 14.0608 1217 65.6015 1106.37 510.961
2591 0 86.5845 12.5773 1089 67.8825 1106.52 510.514
2592 0 88.5481 14.0037 1240 66.8734 1107.31 506.778
2593 0 92.8119 13.9745 1297 66.2089 1107.24 508.354
2594 0 96.3736 15.6163 1505 64.5535 1107.23 510.352
2595 0 98.9999 14.798 1465 65.4068 1107.31 508.611
2596 0 100.02 15.1569 1516 65.9208 1107.14 503.83
2597 0 101.65 14.3335 1457 66.4564 1107.26 504.992
2598 0 104.251 14.1102 1471 66.6642 1108.2 504.196
2599 0 106.111 13.2314 1404 67.552 1108.53 506.41
2600 0 107.518 13.0861 1407 69.0469 1107.67 501.674
2601 0 110.171 14.3323 1579 67.6555 1107.57 502.913
2602 0 114.906 13.0455 1499 68.6805 1107.43 500.388
2603 0 119.93 13.8831 1665 66.1994 1107.62 502.479
2604 0 122.916 14.6604 1802 66.4478 1106.91 494.977
2605 0 124.065 13.8878 1723 66.8839 1107.01 494.839
2606 0 131.952 14.528 1917 65.9416 1107.07 492.677
2607 0 135.017 14.2575 1925 66.0301 1107.06 492.151
2608 0 137.744 14.7084 2026 66.272 1106.78 486.83
2609 0 142.053 15.0085 2132 66.3068 1107.14 484.523
2610 1 76.045 14.4257 1097 65.2425 1106.79 515.432
2611 0 77.6785 13.2469 1029 65.7881 1108.06 517.407
2612 0 81.7882 14.4153 1179 64.659 1107.75 516.466
2613 0 79.6537 12.3409 983 67.4344 1107.2 516.14
2614 0 82.654 14.5304 1201 66.0291 1107.12 513.657
2615 0 86.7403 15.1487 1314 65.0342 1107.02 513.74
2616 0 87.0214 14.031 1221 66.7993 1106.99 511.12
2617 0 89.7296 12.6157 1132 68.7156 1107.15 509.63
2618 0 91.7722 13.2284 1214 67.7974 1107.66 512.41
2619 0 93.8008 11.7803 1105 70.5348 1107.57 504.31
2620 0 98.3177 11.6357 1144 71.4729 1107.46 502.039
2621 0 100.147 12.8212 1284 69.5428 1107.73 506.792
2622 0 101.894 11.5905 1181 71.1152 1107.15 504.069
2623 0 104.527 12.9535 1354 68.5369 1107.65 505.75
2624 0 108.906 13.9845 1523 67.9494 1107.33 500.56
2625 0 113.714 14.4309 1641 67.5509 1107.71 500.584
2626 0 116.079 14.4643 1679 67.1507 1107.15 501.769
2627 0 118.716 13.4101 1592 69.3298 1107.22 498.443
2628 0 124.3 14.3604 1785 68.1266 1106.73 494.972
2629 0 127.463 14.2551 1817 68.0688 1106.74 496.638
2630 0 132.784 13.1115 1741 69.969 1107.41 494.895
2631 0 135.11 14.2995 1932 68.9824 1107.29 489.964
2632 0 137.183 12.4068 1702 71.6122 1107.44 488.026
2633 0 145.94 14.8417 2166 67.5272 1107.2 489.151
2634 0 145.586 13.5727 1976 70.5415 1107.34 483.784
2635 0 148.759 13.9555 2076 70.2158 1107.67 484.292
2636 0 155.121 14.3565 2227 69.1486 1107.31 485.552
2637 0 160.114 14.777 2366 68.762 1106.98 484.631
2638 0 164.938 14.3569 2368 69.0929 1107.13 483.984
2639 0 167.137 12.7201 2126 72.6891 1107.26 474.248
2640 0 173.993 14.2247 2475 69.743 1107.31 474.015
2641 0 178.426 12.8233 2288 72.288 1108.06 470.193
2642 0 183.799 13.1992 2426 71.7988 1107.66 467.481
2643 0 191.898 12.9965 2494 71.8312 1107.31 459.237
2644 0 198.168 13.3977 2655 70.6723 1107.58 462.385
2645 0 202.703 14.5879 2957 69.3372 1108.27 456.245
2646 0 212.451 14.0691 2989 69.4584 1107.85 455.674
2647 0 215.788 13.0452 2815 71.4028 1107.43 442.388
2648 0 222.945 13.4069 2989 70.4456 1107.94 453.196
2649 0 230.993 14.3165 3307 69.0212 1107.67 444.05
2650 1 56.8308 12.5284 712 60.684 1107.08 533.749
2651 0 54.9131 13.148 722 61.054 1106.71 532.212
2652 0 56.9185 11.7712 670 62.0075 1106.38 529.746
2653 0 57.8847 13.6133 788 59.9746 1107.26 529.973
2654 0 55.5058 9.85482 547 63.883 1107.34 530.629
2655 0 57.8407 9.95839 576 63.9722 1107.15 528.623
2656 0 60.1392 11.9556 719 62.5925 1108.12 527.618
2657 0 59.9951 12.3177 739 62.5291 1107.84 525.678
2658 0 61.9967 11.791 731 62.3105 1107.37 527.962
2659 0 63.6279 12.3059 783 61.7842 1107.28 527.014
2660 0 64.8184 13.561 879 60.6291 1107.66 525.537
2661 0 66.3185 13.3296 884 60.983 1107.32 525.938
2662 0 66.5194 14.5972 971 59.9073 1107.71 525.365
2663 0 68.6768 12.2021 838 62.5143 1107.62 524.319
2664 0 68.7255 13.1974 907 61.7508 1107.77 526.974
2665 0 71.8548 15.2112 1093 60.6441 1107.95 524.949
2666 0 71.7569 13.713 984 63.1626 1107.83 523.821
2667 0 74.2549 13.4806 1001 62.7722 1106.77 524.983
2668 0 74.7096 14.6166 1092 62.2692 1107.95 524.31
2669 0 76.6347 12.3573 947 64.3295 1107.82 521.695
2670 0 76.628 14.6552 1123 62.6349 1106.87 521.403
2671 0 78.2787 13.1326 1028 64.4105 1107.17 520.205
2672 0 80.6942 12.851 1037 63.9836 1107.32 520.441
2673 0 84.9727 13.522 1149 63.6641 1107.53 518.084
2674 0 86.7564 15.2611 1324 61.6654 1108.86 516.8
2675 0 88.4745 15.6203 1382 61.6462 1107.86 516.012
2676 0 91.1164 14.3004 1303 62.8856 1107.86 513.686
2677 0 93.4449 13.6551 1276 62.7594 1107.93 517.042
2678 0 94.4399 11.0123 1040 65.674 1107.92 513.531
2679 0 97.4755 13.111 1278 63.1768 1107.37 513.677
2680 0 100.514 13.2917 1336 62.5614 1107.06 511.868
2681 0 104.076 9.88704 1029 66.1506 1107.88 509.454
2682 0 107.294 12.4518 1336 62.8735 1107.21 508.19
2683 0 115.72 14.8548 1719 59.8383 1106.73 506.572
2684 0 117.71 13.049 1536 61.3763 1106.81 508.145
2685 0 120.519 14.1222 1702 61.0693 1106.94 503.612
2686 0 125.691 14.9812 1883 59.8306 1106.57 501.181
2687 1 70.4004 10.5681 744 61.9973 1106.92 525.539
2688 0 74.2247 13.769 1022 59.4472 1107.01 524.614
2689 0 76.6605 13.488 1034 59.1896 1107.06 522.399
2690 0 78.3606 13.2592 1039 59.0664 1107.4 524.806
2691 0 82.1323 14.6714 1205 58.4946 1107.46 518.89
2692 0 82.4493 14.5423 1199 59.1218 1106.87 516.647
2693 0 86.8772 14.7334 1280 57.5859 1107.49 519.945
2694 0 89.8425 15.0819 1355 57.5461 1107.65 515.362
2695 0 89.6776 14.4183 1293 58.4277 1107.6 514.974
2696 0 95.4827 14.8718 1420 57.669 1107.35 514.574
2697 0 98.1793 14.1476 1389 58.5709 1107.34 510.454
2698 0 99.633 12.2449 1220 60.1098 1108.12 510.16
2699 0 104.572 14.6024 1527 57.7295 1108.31 511.182
2700 0 106.368 14.4499 1537 58.3195 1108.15 508.434
2701 0 111.622 15.7317 1756 56.7295 1107.66 508.151
2702 0 111.924 13.6342 1526 59.422 1107.75 505.297
2703 0 116.591 14.2035 1656 58.0181 1107.51 506.579
2704 0 120.434 13.5261 1629 58.9982 1108.43 498.845
2705 0 123.286 14.6246 1803 57.6301 1107.97 500.266
2706 0 125.526 12.7463 1600 59.7838 1107.53 498.087
2707 0 131.362 14.1898 1864 58.2709 1108 494.583
2708 1 67.3685 12.0976 815 59.411 1108.14 524.69
2709 0 71.1809 12.7 904 58.7058 1107.92 522.683
2710 0 72.6149 10.9757 797 60.7654 1108.58 522.787
2711 0 71.9904 11.7099 843 59.6643 1107.91 522.122
2712 0 76.3666 13.5269 1033 57.2623 1107.99 523.438
2713 0 77.4441 15.2755 1183 56.5232 1108.42 521.959
2714 0 79.8032 16.2775 1299 56.2202 1108.15 519.421
2715 0 81.609 13.2338 1080 58.4343 1108.58 521.25
2716 0 82.639 12.8511 1062 59.5386 1108.33 518.268
2717 0 83.9066 13.5984 1141 59.709 1108.15 512.761
2718 0 85.3815 11.595 990 61.2283 1108.45 511.591
2719 0 88.553 13.9013 1231 59.4305 1108.78 513.801
2720 0 92.7053 13.8395 1283 58.8885 1109.01 513.659
2721 0 93.5623 15.5084 1451 57.734 1108.51 513.438
2722 0 96.7464 12.8687 1245 59.8522 1108.76 513.676
2723 0 98.6694 13.0638 1289 60.3414 1108.75 510.03
2724 0 100.657 14.8325 1493 58.3845 1109.09 511.336
2725 0 102.712 12.3744 1271 61.4516 1108.42 504.393
2726 0 107.541 13.2321 1423 60.6001 1108.28 502.637
2727 0 108.478 15.8004 1714 57.888 1108.52 505.01
2728 0 114.509 15.3176 1754 58.6066 1108.89 502.48
2729 0 115.718 13.6452 1579 60.6859 1108.67 498.626
2730 0 120.598 15.2822 1843 58.293 1108.44 499.409
2731 0 125.289 14.9016 1867 58.0766 1107.83 502.313
2732 0 128.36 15.0436 1931 58.8239 1108.12 495.37
2733 0 131.723 14.5001 1910 59.123 1107.58 494.692
2734 0 135.513 15.2679 2069 58.8574 1108.36 492.229
2735 0 140.709 14.4056 2027 59.5022 1108 492.955
2736 0 142.694 13.0348 1860 60.8661 1108.26 492.877
2737 0 146.446 12.3458 1808 61.8219 1108.03 492.23
2738 0 150.685 14.0293 2114 61.2791 1107.62 485.792
2739 0 155.853 15.2323 2374 60.1912 1107.74 481.104
2740 0 162.661 13.6911 2227 61.5864 1108.25 481.326
2741 0 164.504 13.3553 2197 62.5057 1108.03 480.765
2742 1 89.1913 13.4094 1196 61.8161 1108.26 515.855
2743 0 93.5541 14.7615 1381 60.9059 1108.62 512.707
2744 0 96.4735 14.1075 1361 61.842 1108.4 511.436
2745 0 100.442 15.1033 1517 61.0949 1108.42 509.649
2746 0 101.457 13.2273 1342 62.044 1108.68 512.899
2747 0 104.882 13.6058 1427 62.9706 1108.27 505.232
2748 0 107.811 13.2454 1428 62.5602 1108.11 508.54
2749 0 108.614 12.0979 1314 64.6659 1108.21 501.728
2750 0 112.91 15.1005 1705 61.6346 1108.44 503.872
2751 0 114.333 12.6735 1449 64.9151 1108.56 499.182
2752 0 118.412 14.8803 1762 62.7463 1108.69 498.72
2753 0 120.658 11.9014 1436 65.9053 1108.57 497.967
2754 1 67.1433 13.4935 906 61.8962 1108.96 523.498
2755 0 71.9554 13.9392 1003 60.7438 1108.9 525.376
2756 0 71.5813 11.5393 826 63.9794 1109 524.476
2757 0 72.9594 12.8839 940 64.5319 1109.46 521.157
2758 0 71.5007 13.1048 937 64.8004 1109.03 522.237
2759 1 144.214 13.6048 1962 65.5347 1108.88 491.316
2760 1 76.9926 13.1701 1014 65.7594 1108.82 519.802
2761 0 77.703 13.809 1073 64.9003 1108.3 520.417
2762 0 78.7786 14.3059 1127 65.5528 1108.88 520.619
2763 0 78.7306 15.0259 1183 63.6872 1108.75 522.328
2764 0 81.5176 13.8007 1125 66.4604 1109.63 518.474
2765 0 86.1784 14.8181 1277 66.0877 1109.48 516.244
2766 0 86.6075 14.5599 1261 66.4362 1109.71 516.094
2767 0 89.7986 14.3098 1285 67.3665 1108.93 514.064
2768 0 89.4835 12.4827 1117 70.8666 1108.85 510.423
2769 0 90.8326 13.4863 1225 70.769 1109.92 507.268
2770 0 94.6533 13.5125 1279 69.5559 1109.62 513.098
2771 0 98.5701 15.8973 1567 66.9317 1109.33 512.07
2772 0 99.0283 13.178 1305 71.0146 1109.76 507.966
2773 0 103.779 15.6198 1621 66.9938 1110.06 510.78
2774 0 105.391 13.5875 1432 71.0168 1109.56 505.355
2775 0 106.476 11.8055 1257 73.1297 1108.75 505.931
2776 0 109.115 14.2236 1552 70.7622 1108.84 504.713
2777 0 114.752 14.6315 1679 70.2239 1109.31 503.458
2778 0 116.646 14.8484 1732 69.7107 1109.35 502.731
2779 0 118.388 14.9762 1773 70.159 1109.58 500.582
2780 0 125.539 15.9313 2000 68.777 1109.57 498.27
2781 0 128.258 15.9444 2045 69.2626 1109.1 497.723
2782 0 132.672 15.3235 2033 70.0428 1109.8 496.242
2783 1 73.826 11.6626 861 71.2242 1109.82 521.436
2784 0 77.6946 14.9045 1158 68.8877 1109.84 519.821
2785 0 79.7475 14.245 1136 69.6805 1109.38 519.403
2786 0 83.5394 16.0643 1342 67.1542 1109.1 519.518
2787 0 86.7054 14.2552 1236 69.9814 1108.57 516.996
2788 0 84.7499 12.3894 1050 73.7514 1108.91 513.383
2789 0 89.9298 13.4994 1214 72.3295 1109.2 513.798
2790 0 90.8102 13.7209 1246 71.8098 1109.63 515.236
2791 0 91.682 13.3505 1224 73.1193 1108.92 511.837
2792 0 95.7361 15.0936 1445 70.6394 1109.28 511.83
2793 0 97.3497 13.5491 1319 72.05 1109.54 512.976
2794 0 100.471 13.3671 1343 73.1236 1109.15 507.795
2795 0 103.788 14.5585 1511 71.9557 1109.11 507.523
2796 0 105.629 13.0268 1376 73.8241 1108.95 506.865
2797 0 107.416 13.592 1460 73.4596 1108.94 504.301
2798 0 111.616 14.2453 1590 72.4642 1109.25 504.664
2799 0 115.485 13.6381 1575 73.1676 1109.41 502.139
2800 0 117.971 14.7748 1743 71.0207 1109.31 503.543
2801 0 120.802 14.1637 1711 73.3197 1109.32 498.194
2802 0 125.866 13.2839 1672 73.6872 1109.28 498.181
2803 0 129.933 15.5388 2019 70.7459 1109.54 496.832
2804 0 132.627 14.5219 1926 72.2554 1109.04 492.046
2805 0 138.29 14.6287 2023 71.8774 1109.29 492.633
2806 0 140.812 14.9206 2101 71.9886 1109.43 490.253
2807 0 144.824 14.5072 2101 71.8006 1110.13 493.315
2808 0 149.049 16.2698 2425 70.0342 1109.59 487.621
2809 0 151.313 13.9512 2111 73.1421 1109.61 487.775
2810 0 155.888 14.0935 2197 73.0883 1109.91 480.131
2811 0 162.304 15.0089 2436 71.4462 1109.33 481.826
2812 0 164.799 14.6906 2421 72.7811 1109.12 478.094
2813 0 168.478 12.1025 2039 76.8053 1109.45 471.537
2814 0 173.692 14.8654 2582 73.1611 1109.65 474.06
2815 0 178.487 13.7489 2454 74.8936 1110.07 470.706
2816 0 182.527 13.8391 2526 74.1872 1110 471.466
2817 0 189.172 13.4322 2541 75.377 1109.77 459.362
2818 0 194.166 13.8541 2690 74.3643 1110.25 466.462
2819 0 197.779 14.8701 2941 74.0245 1110.38 460.481
2820 1 63.3949 13.4238 851 65.114 1110.09 526.078
2821 0 64.3469 11.4846 739 65.9932 1109.65 525.547
2822 0 65.9323 12.8768 849 65.2921 1109.42 525.065
2823 1 139.339 12.6239 1759 75.8903 1109.32 485.966
2824 0 143.078 11.6509 1667 77.6269 1110.19 482.655
2825 0 149.645 14.3273 2144 73.5639 1109.86 483.791
2826 0 146.351 10.9941 1609 79.115 1109.87 475.37
2827 1 158.425 13.9498 2210 73.8312 1109.72 477.905
2828 0 161.329 12.8247 2069 76.3543 1109.8 473.601
2829 1 73.569 12.0431 886 66.228 1110.35 518.051
2830 0 74.4197 12.1339 903 65.7708 1109.66 518.533
2831 0 77.2034 10.7897 833 67.2065 1109.63 516.409
2832 0 80.5355 13.6462 1099 64.0473 1109.85 518.566
2833 0 81.3619 13.0282 1060 64.4594 1109.72 518.544
2834 0 82.504 11.2116 925 66.2692 1109 516.926
2835 0 82.7292 10.1173 837 67.7718 1109.12 515.473
2836 0 87.4525 10.9088 954 67.9801 1109.48 511.425
2837 0 81.2996 10.8857 885 68.348 1109.86 512.35
2838 0 85.1494 10.5227 896 67.9754 1108.98 512.152
2839 0 85.3296 12.9381 1104 66.2582 1109.99 511.236
2840 0 92.2191 12.3944 1143 67.0604 1110.62 507.254
2841 0 94.1129 10.6468 1002 68.1058 1109.57 508.525
2842 0 98.4017 11.2701 1109 66.982 1110.07 511.509
2843 0 98.4899 12.8744 1268 66.4858 1110.34 506.106
2844 0 102.347 9.86837 1010 70.1713 1109.8 497.617
2845 1 49.0472 12.2739 602 66.99 1109.64 528.201
2846 0 56.2308 11.0971 624 67.3622 1109.71 526.391
2847 0 54.3267 12.1487 660 67.3273 1110.24 528.138
2848 0 58.1124 10.8066 628 68.9029 1110.52 524.177
2849 0 54.2853 13.5948 738 67.1274 1110.92 523.902
2850 0 55.1217 10.4678 577 71.4957 1110.48 518.718
2851 0 61.31 12.8364 787 66.8551 1111 524.619
2852 0 59.2305 13.6416 808 67.5111 1110.62 523.598
2853 0 59.4455 12.7344 757 69.173 1110.88 520.904
2854 0 54.1412 13.6864 741 70.2713 1109.92 518.042
2855 1 65.9512 13.4038 884 67.2251 1109.68 521.317
2856 0 67.2778 12.6639 852 68.4014 1110.33 518.521
2857 0 68.2445 13.4516 918 67.232 1110.39 521.045
2858 0 70.2506 11.2312 789 69.4651 1110.65 517.172
2859 0 73.2568 14.1284 1035 65.9778 1110.57 515.394
2860 0 75.4582 14.3258 1081 65.2831 1110.38 516.454
2861 0 74.449 13.8081 1028 66.106 1110.53 514.209
2862 0 66.1202 12.8554 850 69.2929 1110.37 506.613
2863 0 76.5046 16.352 1251 63.1831 1109.97 509.14
2864 0 78.3997 11.1608 875 67.7314 1110.62 509.725
2865 0 76.0898 11.6047 883 68.12 1110.56 503.758
2866 0 83.3222 12.8177 1068 66.0403 1109.96 501.457
2867 0 90.7014 14.3107 1298 63.7804 1110.71 503.77
2868 0 89.3401 13.8348 1236 64.7985 1110.05 499.113
2869 1 1 5 5 57 1110.2 454.8
2870 1 95.5453 12.6851 1212 64.9884 1110.71 501.451
2871 0 96.3534 14.5714 1404 63.8704 1110.59 495.83
2872 0 104.364 14.7656 1541 62.9572 1110.68 497.5
2873 0 107.434 13.385 1438 64.605 1110.78 494.75
2874 0 105.151 12.8482 1351 65.4567 1109.77 492.601
2875 0 115.37 15.4372 1781 62.3554 1110.21 493.5
2876 0 121.274 11.9399 1448 65.7562 1110.06 486.813
2877 1 57.0859 11.8243 675 66.2059 1110.69 514.462
2878 0 67.7146 12.6117 854 63.2904 1110.67 518.541
2879 0 68.1988 9.89753 675 67.917 1110.33 515.993
2880 0 68.2934 11.8752 811 66.5142 1110.56 513.731
2881 0 67.6141 13.9172 941 65.4081 1110.8 514.162
2882 0 71.167 11.5222 820 66.9451 1111.07 517.151
2883 0 74.5486 11.4288 852 68.2641 1110.25 513.171
2884 0 79.4024 11.2339 892 68.1043 1110.82 515.711
2885 0 80.4677 13.8192 1112 66.2311 1110.73 511.642
2886 0 88.0317 15.6534 1378 62.9724 1110.7 516.922
2887 0 87.6486 14.4897 1270 65.0953 1110.71 516.229
2888 0 87.5645 14.9261 1307 65.7184 1110.15 515.813
2889 0 88.4159 12.9615 1146 67.3185 1109.72 516.901
2890 0 91.8548 15.089 1386 66.0498 1109.81 511.173
2891 0 92.3846 14.8834 1375 66.392 1110.57 513.671
2892 0 94.654 12.8785 1219 69.3642 1110.18 510.229
2893 0 97.7047 13.3361 1303 68.9233 1110.46 512.064
2894 0 99.3947 15.3328 1524 67.4101 1110.2 510.892
2895 0 104.352 15.9364 1663 66.8443 1109.97 508.312
2896 0 100.448 12.713 1277 71.6797 1110.19 506.946
2897 1 215.5 15.6706 3377 66.1658 1110.66 460.293
2898 0 219.744 13.7069 3012 68.6401 1110.47 457.583
2899 0 226.348 15.4938 3507 66.4591 1110.32 458.809
2900 0 232.495 16.4477 3824 65.926 1110.39 453.157
2901 1 111.426 14.0183 1562 72.1184 1110.59 506.309
2902 0 113.205 13.8951 1573 72.8551 1110.31 504.011
2903 0 123.4 13.8817 1713 72.6369 1110.43 503.636
2904 0 122.504 14.3669 1760 73.2244 1110.63 498.773
2905 0 123.13 14.3101 1762 72.9455 1110.1 502.821
2906 1 189.04 15.9225 3010 70.7552 1109.94 473.916
2907 0 192.765 14.3335 2763 73.0496 1109.72 473.239
2908 0 196.986 14.8995 2935 72.202 1110.23 472.855
2909 0 202.519 16.512 3344 71.201 1110.18 465.816
2910 0 208.13 15.2789 3180 72.4852 1110.16 467.194
2911 0 214.109 13.4651 2883 74.9625 1110.49 464.317
2912 0 218.843 14.5812 3191 74.5064 1109.99 456.115
2913 0 224.542 13.9929 3142 75.4217 1110.23 454.102
2914 0 232.081 15.361 3565 74.2062 1110.24 450.78
2915 0 239.756 15.9496 3824 73.8096 1110.13 448.907
2916 0 243.607 14.4331 3516 75.0461 1110.85 451.235
2917 0 252.278 14.6624 3699 75.4093 1110.39 444.083
2918 0 258.867 15.0541 3897 75.5396 1110.08 437.728
2919 1 185.737 13.9929 2599 75.6822 1110.06 475.411
2920 0 191.175 15.253 2916 74.4451 1110.31 469.663
2921 0 198.369 15.0124 2978 74.6014 1110.43 471.033
2922 0 203.307 15.6365 3179 74.3973 1110.39 464.898
2923 0 208.712 14.9632 3123 75.0701 1110.5 464.41
2924 0 214.175 14.2594 3054 76.5914 1110.16 462.011
2925 0 221.276 15.3428 3395 76.286 1109.83 456.016
2926 0 225.871 15.0041 3389 77.0192 1110.09 452.023
2927 0 231.79 15.225 3529 76.8385 1109.66 453.944
2928 0 238.96 14.8351 3545 78.2008 1109.9 447.165
2929 0 245.901 16.9987 4180 74.9428 1110.55 449.225
2930 1 178.609 16.6845 2980 77.197 1110.2 478.106
2931 0 181.861 15.2864 2780 79.6849 1110.03 475.007
2932 0 178.652 15.7681 2817 75.3827 1110.4 475.764
2933 0 183.54 15.2883 2806 76.7848 1110.41 478.364
2934 0 183.36 16.3394 2996 77.0093 1110.79 471.383
2935 0 187.564 15.5467 2916 78.0778 1110.66 476.281
2936 1 378.385 10.6426 4027 78.2146 1110.15 411.857
2937 0 378.602 12.6914 4805 73.9761 1110.12 407.204
2938 0 379.587 12.3002 4669 75.4149 1110.07 407.754
2939 0 385.037 13.1 5044 74.0541 1109.96 404.343
2940 1 341.351 10.1098 3451 79.7096 1109.36 453.86
2941 0 342.915 10.6849 3664 79.7525 1110.27 440.447
2942 0 342.536 10.866 3722 79.9742 1110.9 440.03
2943 0 346.662 11.3454 3933 80.2342 1109.46 435.211
2944 0 354.659 12.0031 4257 78.6049 1110.3 428.93
2945 0 353.027 8.80952 3110 83.1621 1110.31 453.037
2946 0 355.683 11.3359 4032 78.1473 1110.42 449.043
2947 0 353.865 13.426 4751 75.7535 1110.38 431.08
2948 0 343.673 23.9472 8230 58.9795 1109.75 386.797
2949 1 184.776 14.4499 2670 85.6738 1110.43 471.928
2950 0 191.8 15.2034 2916 84.1886 1110.41 469.35
2951 1 130.663 15.2912 1998 82.4565 1110.26 497.23
2952 0 134.626 14.3138 1927 82.8433 1110.11 499.325
2953 0 137.999 13.8696 1914 84.2821 1110.17 496.366
2954 0 146.526 13.7928 2021 84.2657 1110.38 491.792
2955 0 146.789 13.952 2048 83.4868 1110.33 491.335
2956 0 150.69 14.354 2163 83.0379 1109.76 488.802
2957 0 156.383 14.8161 2317 82.6042 1109.99 486.102
2958 0 162.13 15.1175 2451 81.8821 1110.39 483.839
2959 0 166.56 14.121 2352 83.7645 1110.53 478.303
2960 0 170.618 13.8965 2371 84.1632 1110.58 480.626
2961 0 176.476 12.2566 2163 86.7221 1110.04 477.513
2962 0 179.515 14.3052 2568 82.8497 1110.37 479.419
2963 0 180.475 12.9381 2335 86.331 1110.62 474.621
2964 0 186.228 13.7144 2554 85.3669 1110.22 470.241
2965 0 190.399 13.8603 2639 85.6362 1110.25 465.73
2966 0 197.684 14.336 2834 84.4224 1110.41 465.048
2967 0 203.504 15.2528 3104 82.9104 1110.79 462.53
2968 0 207.797 14.3554 2983 84.1733 1110.39 462.563
2969 0 212.543 14.6324 3110 83.8318 1110.11 459.141
2970 0 219.698 14.2195 3124 84.3752 1110.32 452.504
2971 1 159.966 13.6591 2185 85.0224 1110.13 479.556
2972 0 161.461 14.7652 2384 83.2748 1110.89 483.249
2973 0 167.358 14.6632 2454 82.4177 1111.14 483.011
2974 0 168.692 13.1186 2213 85.7872 1110.36 473.636
2975 1 19.2648 8.92818 172 58.5233 1110.94 548.913
2976 0 18.529 10.3621 192 58.4427 1111.24 548.385
2977 0 19.26 12.3572 238 57.1681 1111.95 547.924
2978 0 17.1643 13.6912 235 57.6 1110.79 548.111
2979 0 19.1567 12.476 239 57.2092 1110.82 548.787
2980 1 194.673 14.5885 2840 83.4018 1110.73 465.266
2981 0 202.634 13.3985 2715 84.628 1110.78 465.772
2982 0 207.683 13.6217 2829 84.8031 1110.75 456.514
2983 0 215.432 15.1509 3264 82.0319 1110.51 458.052
2984 0 219.743 15.6911 3448 82.7019 1110.57 447.842
2985 0 221.332 14.2591 3156 83.5992 1111.04 459.921
2986 1 299.614 15.3865 4610 81.3846 1110.59 426.548
2987 0 305.482 13.8797 4240 84.6255 1110.8 413.616
2988 0 315.332 15.165 4782 82.0638 1110.3 414.814
2989 0 327.679 16.2171 5314 80.306 1110.57 410.623
2990 0 328.832 13.475 4431 81.9391 1110.63 426.22
2991 0 327.796 11.1655 3660 83.4213 1110.48 440.657
2992 0 327.603 11.5384 3780 84.5788 1110.54 428.328
2993 0 325.519 10.1684 3310 83.8438 1110.29 443.338
2994 0 325.415 10.5435 3431 83.8618 1110.92 436.234
2995 0 319.536 15.2534 4874 80.4867 1110.67 403.322
2996 0 332.74 14.2874 4754 81.13 1110.08 405.188
2997 0 342.788 14.7175 5045 79.4161 1109.73 409.002
2998 0 343.793 10.9135 3752 83.2972 1109.52 420.58
2999 1 136.446 13.1993 1801 78.5447 1110.14 499.534
3000 1 65.3372 11.1728 730 76.3973 1109.85 529.941
3001 0 67.1399 12.5559 843 76.8138 1110.46 525.649
3002 0 70.2763 13.6888 962 74.0644 1110.48 526.715
3003 0 72.1886 14.2266 1027 73.7283 1110.51 525.717
3004 0 72.1671 14.0784 1016 73.0128 1111.07 525.13
3005 0 76.5578 14.4335 1105 71.7765 1110.64 524.261
3006 1 18.0336 13.863 250 57.06 1110.52 548.952
3007 0 22.1378 11.3381 251 57.008 1110.68 548.438
3008 0 17.035 13.1494 224 56.2098 1110.46 549.938
3009 0 18.1425 13.0081 236 55.6864 1110.5 549.83
3010 0 19.3511 12.6608 245 55.0082 1109.31 549.531
3011 0 18.0379 12.6955 229 55.441 1109.96 547.961
3012 0 15.0456 6.44705 97 57.8969 1110.88 550.835
3013 0 21.2007 9.90536 210 55.0143 1110.29 550.11
3014 0 22.1401 15.3116 339 51.7316 1110.15 548.912
3015 0 21.5087 13.2504 285 52.6456 1110.48 549.056
3016 0 16.1608 13.4894 218 52.8945 1110.45 549.78
3017 0 19.1369 9.9807 191 53.5445 1111.31 550.969
3018 0 18.2323 13.9313 254 52.0787 1110.89 549.787
3019 0 19.2098 13.795 265 51.5245 1110.81 548.913
3020 0 22.1025 15.3376 339 50.1416 1110.85 548.755
3021 0 21.1946 10.5215 223 53.2152 1110.07 548.785
3022 0 19.3644 11.8258 229 51.4804 1110.8 550.978
3023 0 18.0286 14.7543 266 49.4962 1110.97 550.053
3024 0 20.2874 13.851 281 49.5979 1110.7 549.37
3025 0 20.178 9.5153 192 50.7552 1111.34 550.63
3026 0 20.18 4.95541 100 53.59 1111.6 548.73
3027 0 16.0524 1.74429 28 55.1429 1110.39 547.714
3028 0 17.1032 14.0325 240 48.7792 1109.79 548.421
3029 0 17.2515 10.4919 181 50.1823 1111.01 547.663
3030 0 19.4652 7.70607 150 49.8733 1111.31 550.073
3031 0 17.1359 8.92861 153 50.6471 1110.59 547.32
3032 0 19.3273 9.52019 184 49.8478 1111.22 547.848
3033 0 17.3671 11.5736 201 49.2736 1111.6 547.139
3034 0 19.0794 12.7363 243 48.2016 1111.5 548.432
3035 0 18.4674 13.5374 250 48.22 1111.26 548.68
3036 0 17.0816 11.4158 195 48.8667 1111.56 549.446
3037 0 18.2725 5.58215 102 51.1078 1111.66 548.824
3038 0 19.1086 13.5541 259 47.5637 1111.09 548.232
3039 0 18.1704 10.7868 196 49.301 1111.96 547.765
3040 0 19.2586 10.6965 206 48.4515 1111.61 547.286
3041 0 19.6301 4.94138 97 51.1753 1112.57 547.66
3042 0 23.2264 5.55403 129 49.8837 1111.7 549.349
3043 0 22.1107 10.9902 243 48.6379 1111.94 546.041
3044 0 20.1512 13.2498 267 47.4569 1111.49 546.056
3045 0 18.159 15.8049 287 46.6794 1111.43 547.575
3046 0 18.0323 12.9212 233 48.0515 1111.93 547.403
3047 0 21.161 13.7517 291 48.354 1111.1 546.474
3048 0 24.2077 13.6734 331 48.8369 1111.16 545.076
3049 0 23.0993 7.83573 181 50.8619 1111.99 547.867
3050 0 21.232 14.3651 305 48.3246 1111.1 546.813
3051 0 20.0402 11.926 239 50.0209 1111.01 545.552
3052 0 23.1061 13.9357 322 48.0745 1111.53 547.149
3053 0 23.2066 13.5307 314 48.9554 1111.19 547.678
3054 0 19.217 15.2469 293 48.4608 1110.72 547.509
3055 0 20.3059 8.76594 178 52.0169 1111.35 547.775
3056 0 22.2578 11.3668 253 50.747 1111.42 547.885
3057 0 19.0446 11.1318 212 51.7264 1111.42 547.472
3058 0 20.0955 12.5899 253 50.7905 1111.68 548.628
3059 0 21.2597 14.3464 305 49.9443 1111.28 547.879
3060 0 21.3151 10.4151 222 50.464 1112.64 549.982
3061 0 19.1655 12.2616 235 50.5915 1112.45 547.157
3062 0 20.1733 14.3258 289 49.9585 1112.1 546.661
3063 0 21.078 8.25506 174 52.0517 1111.99 547.523
3064 1 45.1804 4.9579 224 66.7366 1111.46 524.045
3065 0 48.1697 10.6291 512 58.1172 1111.42 534.842
3066 1 19.096 10.6305 203 51.7438 1112.34 545.951
3067 0 21.0774 10.7698 227 49.4053 1111.48 546.537
3068 0 20.2713 10.6554 216 50.8843 1111.28 544.356
3069 0 18.0595 10.1886 184 49.9891 1112.32 545.598
3070 0 20.0414 10.5781 212 50 1111.37 543.882
3071 0 20.067 12.3088 247 48.9514 1111.92 544.741
3072 0 16.0237 6.11593 98 51.3061 1111.79 543.714
3073 0 14.033 14.1809 199 46.7487 1111.99 548.02
3074 0 22.1399 9.34963 207 47.6473 1111.86 546.821
3075 0 19.0566 14.1683 270 46.463 1111.89 545.374
3076 0 20.3179 5.66002 115 48.9652 1112.2 547.33
3077 0 21.0613 12.25 258 46.5543 1112.39 543.895
3078 0 22.141 9.07817 201 47.2139 1112.31 544.696
3079 0 19.0533 7.9776 152 46.5329 1111.89 544.967
3080 0 15.0817 11.6698 176 45.1705 1111.71 546.756
3081 0 18.0224 13.7606 248 43.8992 1111.83 547.234
