time division length width area intensity CMx CMy
0 0 76.0481 12.8471 977 58.9703 1340.16 353.212
1 0 79.1095 11.6295 920 60.2935 1339.89 351.328
2 0 81.1306 12.0793 980 59.5439 1340.06 352.341
3 1 44.049 10.5337 464 58.9224 1340.14 371.504
4 0 43.06 11.6814 503 57.7913 1340.28 371.618
5 0 46.015 11.1051 511 59.092 1339.87 369.088
6 0 45.0806 11.3574 512 58.5996 1339.53 369.723
7 0 48.2694 11.8709 573 57.9092 1338.77 367.124
8 0 51.0253 13.2287 675 55.0652 1338.71 369.256
9 0 49.044 11.194 549 59.2058 1338.79 367.169
10 0 52.0632 12.7537 664 56.8584 1339.18 365.161
11 0 52.0486 12.4115 646 57.5805 1338.79 363.031
12 0 56.0467 11.2228 629 57.4547 1338.55 365.35
13 0 57.1079 12.9229 738 56.1504 1338.48 364.768
14 0 58.085 11.9824 696 56.6695 1338.72 362.497
15 0 60.1419 11.423 687 56.8923 1338.49 363.3
16 0 62.0968 12.8509 798 55.3546 1338.64 361.008
17 0 65.0602 12.6959 826 55.2094 1337.96 360.31
18 0 65.1099 11.304 736 57.1386 1338.16 356.871
19 0 70.0383 14.3636 1006 52.9254 1338.41 357.917
20 0 71.213 11.8658 845 55.4107 1338.71 357.518
21 0 75.0925 12.0918 908 54.9427 1338.17 354.831
22 1 42.0775 10.6946 450 52.9267 1338.72 371.969
23 0 42.0405 11.251 473 53.9704 1338.8 369.937
24 0 43.0189 12.1109 521 52.6814 1338.87 369.745
25 0 43.0216 12.3426 531 53.6347 1338.03 368.16
26 0 46.0535 11.8775 547 53.2212 1337.97 368.603
27 0 47.1285 11.6278 548 54.0657 1337.79 367.266
28 0 48.0562 11.9444 574 53.7439 1337.42 366.22
29 0 50.1758 11.9779 601 53.4376 1337.8 367
30 0 49.0445 10.5414 517 55.4197 1338.11 366.139
31 0 52.141 10.9894 573 55.0646 1337.85 364.094
32 0 57.1206 12.4999 714 52.4146 1337.68 364.947
33 0 55.1224 13.4791 743 51.8304 1337.18 363.764
34 0 58.0943 12.6691 736 52.0109 1337.02 365.079
35 0 59.0762 11.7137 692 54.0231 1336.79 361.447
36 0 61.165 13.8805 849 52.0754 1337.4 359.426
37 0 63.2843 13.3998 848 52.0177 1337.64 361.356
38 0 66.2722 12.9164 856 52.1028 1337.82 360.523
39 0 63.0351 11.327 714 55.2185 1338.24 356.287
40 0 69.0373 14.1083 974 50.8645 1338.24 360.582
41 0 72.0977 12.6911 915 52.3355 1338.03 358.098
42 1 38.051 10.6962 407 53.3857 1338.41 373.388
43 0 40.0871 12.8221 514 51.7237 1338.04 371.251
44 0 40.0316 11.1912 448 53.2143 1338.19 371.301
45 0 43.0445 14.4037 620 49.1145 1338.25 372.253
46 0 44.0714 10.6418 469 53.7313 1337.66 370.448
47 0 46.0304 13.8387 637 51 1337.82 368.451
48 0 48.0604 16.3336 785 48.1682 1338.44 369.496
49 0 49.0943 12.8936 633 51.9637 1338.32 367.975
50 0 50.0698 13.4013 671 51.6855 1338.46 367.799
51 0 52.1009 13.2819 692 52.1749 1338.36 364.753
52 0 50.0906 13.4556 674 52.9614 1338.34 361.533
53 0 56.0706 12.5199 702 52.6781 1338.53 365.144
54 0 56.039 13.3478 748 52.6417 1338.55 363.702
55 0 58.1028 13.1147 762 52.7165 1338.52 363.545
56 0 60.042 12.2414 735 54.0095 1338.57 361.732
57 0 59.1238 12.3131 728 54.658 1338.24 359.398
58 0 61.0974 11.6535 712 54.6854 1337.64 360.087
59 0 63.104 12.2179 771 54.5772 1337.68 358.691
60 0 64.0559 11.3026 724 55.4779 1337.21 358.04
61 0 68.1267 11.919 812 54.3855 1337.21 357.425
62 0 69.1684 11.6238 804 54.6343 1337.02 356.602
63 1 35.0225 11.1643 391 55.0588 1336.99 371.179
64 0 39.03 11.9139 465 54.0989 1337.93 370.824
65 0 41.0987 13.2608 545 52.2991 1337.71 371.55
66 0 41.1064 13.015 535 53.1178 1338.47 370.594
67 0 41.1064 13.0637 537 137.872 1340.47 370.566
68 0 42.0241 11.5172 484 55.2686 1337.18 369.285
69 0 47.0532 11.8589 558 53.7814 1337.23 369.511
70 0 48.0391 11.3657 546 53.9176 1337.63 370.158
71 0 46.0533 11.5301 531 55.6648 1337.13 367.158
72 0 49.1205 12.9274 635 53.4803 1337.39 367.614
73 0 51.0593 13.8466 707 52.3112 1337.37 366.928
74 0 51.0602 13.3372 681 53.3113 1336.85 364.969
75 0 53.1139 16.2293 862 50.5974 1337.4 364.456
76 0 55.0578 11.1519 614 55.1124 1337.2 365.879
77 0 57.0569 11.953 682 53.89 1336.92 366.65
78 0 61.1536 12.4114 759 53.1436 1337.04 365.714
79 0 60.1384 13.2361 796 52.6922 1336.85 365.031
80 0 62.145 13.3559 830 52.759 1337.49 361.775
81 0 63.1239 13.5606 856 52.9346 1337.52 359.627
82 0 67.0465 12.454 835 53.2802 1336.68 361.291
83 0 68.1327 12.7692 870 53.2862 1336.7 359.598
84 0 72.1005 12.7738 921 52.7904 1336.69 359.672
85 0 74.1085 13.3048 986 51.5132 1336.81 360.582
86 0 75.0594 11.804 886 53.8217 1337.16 358.792
87 1 40.0283 10.5925 424 54.5495 1337.87 375.34
88 0 44.1058 11.6765 515 54.0447 1337.46 371.998
89 0 41.0559 11.4965 472 55.2246 1336.64 371.261
90 0 45.0435 12.388 558 53.2832 1337.8 372.665
91 0 48.046 11.1144 534 55.2453 1337.23 369.401
92 0 47.1345 11.0535 521 55.2073 1337.4 370.322
93 0 51.1088 13.4028 685 53.3285 1337.05 367.911
94 0 52.0823 12.7106 662 53.4879 1337.51 368.713
95 0 52.0823 12.6722 660 135.955 1339.51 368.691
96 0 57.056 13.0573 745 53.1034 1337.54 366.544
97 0 56.0914 12.7114 713 54.3983 1337.14 363.926
98 0 58.0932 13.3406 775 53.849 1336.89 363.454
99 0 59.0558 12.8692 760 54.3961 1336.69 363.296
100 0 64.0866 15.8847 1018 50.5786 1336.91 364.914
101 0 63.137 11.6889 738 55.3428 1336.86 361.881
102 0 68.1013 14.684 1000 52.161 1337.16 361.204
103 0 71.1913 13.4848 960 52.9198 1336.82 360.435
104 0 71.091 13.3772 951 53.6583 1337.34 359.413
105 0 73.1265 13.6202 996 53.2118 1336.99 357.767
106 0 77.0788 11.378 877 55.0753 1336.92 358.78
107 0 77.1307 12.226 943 55.1442 1337.89 357.122
108 0 82.0781 13.3044 1092 53.9625 1336.87 355.522
109 1 46.0572 11.5508 532 54.3064 1337.47 373.483
110 0 49.1463 12.9613 637 52.6342 1336.54 374.003
111 0 50.1488 14.4171 723 51.8949 1337.01 372.675
112 0 48.0716 11.2541 541 56.7967 1337.43 369.969
113 0 52.0918 13.2267 689 54.1074 1337.48 369.591
114 0 54.0915 14.3276 775 52.8529 1337.39 370.999
115 0 56.0687 13.3229 747 54.6493 1338.1 367.807
116 0 56.0687 13.3229 747 156.537 1339.1 367.807
117 0 59.0946 14.0453 830 54.6747 1337.07 365.576
118 0 60.0725 11.9855 720 56.5375 1337.14 367.768
119 0 63.046 13.6408 860 55.4791 1336.32 364.278
120 0 65.0656 13.3865 871 55.868 1336.68 364.459
121 0 67.1383 13.7775 925 55.827 1336.78 363.33
122 0 67.204 14.5676 979 55.6507 1336.59 361.997
123 0 73.1264 15.2202 1113 54.2866 1336.86 360.475
124 0 74.0607 15.7979 1170 53.6248 1336.44 362.33
125 0 77.066 13.2484 1021 56.7463 1336.44 359.119
126 1 44.1357 12.235 540 55.5741 1337.21 375.854
127 0 48.1531 12.4187 598 54.8194 1336.9 374.901
128 0 46.1207 13.6381 629 55.4388 1336.98 372.809
129 0 48.1307 12.9855 625 55.6816 1337.94 373.152
130 0 49.1407 12.9017 634 56.2918 1337.14 371.631
131 0 50.0435 12.4292 622 57.2154 1336.85 370.981
132 0 52.1145 12.7795 666 56.4685 1337.08 370.344
133 0 55.0671 12.0943 666 56.7162 1337.25 370.089
134 0 52.0461 11.7972 614 59.1221 1337.98 366.599
135 0 56.055 14.4144 808 55.3577 1338.04 365.788
136 0 58.022 12.9951 754 56.7639 1337.95 367.369
137 0 59.0721 12.5271 740 57.1054 1338.32 365.205
138 0 62.115 12.8471 798 55.7794 1337.97 366.742
139 0 67.1521 13.5662 911 54.7157 1337.23 364.054
140 0 67.0957 12.9665 870 55.931 1337.09 362.007
141 0 72.091 16.1879 1167 51.0171 1337.08 364.464
142 0 70.0987 12.8533 901 55.5028 1337.34 360.986
143 0 71.1169 11.5303 820 57.5744 1337.55 356.707
144 0 77.1176 14.5362 1121 53.6218 1337.54 355.557
145 0 76.2166 10.5882 807 57.4585 1337.19 358.161
146 0 81.0954 12.2818 996 55.6396 1337.62 353.977
147 0 85.1252 12.8047 1090 54.9872 1337.39 354.296
148 1 44.041 11.5801 510 55.0745 1337.81 370.708
149 0 44.072 12.5703 554 53.4711 1337.32 373.46
150 0 46.0298 12.5136 576 54.5799 1337.22 370.087
151 0 45.0367 9.54777 430 58.0558 1337.55 370.912
152 0 50.0387 12.3105 616 54.5958 1338.06 369.133
153 0 51.1136 12.3059 629 54.9587 1338.02 368.45
154 0 53.0378 13.3301 707 53.5431 1338.41 369.235
155 0 53.0947 11.5643 614 56.4169 1338.35 365.818
156 0 57.0603 10.7255 612 56.2288 1337.98 368.265
157 0 58.0382 16.6097 964 50.473 1337.85 366.408
158 0 57.0405 12.3246 703 56.1024 1337.7 363.267
159 0 61.0987 12.1443 742 55.6119 1337.78 363.982
160 0 64.0513 12.49 800 55.1613 1337.33 361.389
161 0 67.0541 13.7501 922 53.5933 1337.36 360.932
162 0 67.0952 13.9652 937 54.0139 1337.88 358.001
163 0 67.0952 14.0547 943 141.731 1337.92 358.005
164 0 73.103 11.9831 876 55.5662 1338.09 356.688
165 0 74.2352 12.878 956 54.9854 1337.89 354.848
166 0 78.0881 13.1262 1025 54.1698 1338.08 355.607
167 0 78.1744 11.8581 927 56.2028 1337.9 352.663
168 0 81.1196 11.1564 905 56.3149 1337.88 353.633
169 0 86.0758 13.8831 1195 53.3481 1337.41 352.49
170 0 90.1187 13.9372 1256 53.4339 1337.73 349.828
171 1 45.1001 10.7095 483 55.0062 1338.27 370.344
172 0 48.1244 10.7638 518 55.3475 1338.4 369.585
173 0 49.0555 10.8041 530 55.7358 1337.9 368.555
174 0 51.0662 12.3173 629 54.2814 1337.39 368.288
175 0 51.0479 12.3218 629 54.2957 1337.54 369.588
176 0 56.06 12.8791 722 52.7299 1337.96 369.813
177 0 56.0758 12.4831 700 53.8871 1337.6 367.636
178 0 58.0741 11.537 670 55.2224 1337.26 365.442
179 0 59.192 12.7551 755 53.7987 1337.08 365.703
180 0 61.0578 12.6929 775 54.7019 1336.56 362.083
181 0 63.1831 11.8861 751 55.4874 1335.86 362.218
182 0 66.1333 12.0968 800 55.0975 1335.91 360.022
183 0 70.0861 14.0399 984 52.4533 1336.27 361.068
184 0 70.1556 12.7003 891 54.0393 1336.45 360.806
185 0 73.1204 13.9222 1018 53.0766 1336.15 357.746
186 0 74.1431 14.3506 1064 53.4023 1336.94 354.565
187 0 74.1431 14.3641 1065 146.212 1338.93 354.536
188 0 78.2976 14.2661 1117 53.0331 1336.88 355.989
189 0 83.1503 16.4281 1366 50.8755 1337.03 353.836
190 0 86.1716 17.3723 1497 49.9746 1337.3 353.806
191 0 86.1975 13.2718 1144 54.1503 1337.52 353.198
192 1 41.0408 9.91697 407 55.3587 1338.06 373.376
193 0 43.0529 10.8704 468 55.1068 1338.41 372.075
194 0 44.0668 11.9364 526 54.4487 1338.16 371.411
195 0 46.0456 11.4886 529 54.656 1338.13 370.573
196 0 50.0739 13.0407 653 52.6922 1338.66 370.974
197 0 50.0779 12.6802 635 52.8661 1338.02 371.597
198 0 50.0377 12.9702 649 53.5485 1338.66 368.265
199 0 53.0811 13.9786 742 52.066 1338.18 369.125
200 0 54.0845 11.8518 641 54.429 1338.26 368.872
201 0 54.033 12.8255 693 54.5094 1337.92 364.948
202 0 55.0826 12.9805 715 53.3483 1337.83 367.926
203 0 60.1051 12.345 742 53.4987 1337.09 366.818
204 0 60.2085 14.3003 861 51.8664 1337.47 365.672
205 0 61.0371 13.5 824 53.6784 1337.37 362.012
206 0 64.2954 11.5871 745 54.3611 1337.07 365.016
207 0 64.1533 12.2987 789 54.2484 1336.92 359.381
208 0 67.1866 14.0206 942 51.4798 1337.19 362.053
209 0 70.0924 14.2384 998 51.2365 1337.24 359.588
210 0 72.1757 12.8852 930 52.2559 1336.99 359.93
211 0 74.1666 13.1731 977 52.2989 1336.76 357.632
212 0 76.1812 13.1135 999 51.6486 1336.81 360.376
213 0 79.2195 11.4366 906 53.287 1336.84 358.776
214 1 39.0274 11.2741 440 53.9773 1337.01 371.48
215 0 42.0515 11.3908 479 53.1127 1337.01 371.338
216 0 45.1428 13.269 599 50.995 1337.47 369.706
217 0 45.0683 12.0928 545 52.9945 1337.37 369.824
218 0 47.0117 12.4225 584 53.0993 1337.29 368.091
219 0 48.0459 11.4058 548 52.9069 1337.07 369.52
220 0 51.0337 12.4428 635 51.8961 1337.05 369.921
221 0 54.0703 12.6502 684 51.6842 1336.42 367.719
222 0 55.0677 13.0385 718 51.3565 1336.75 367.776
223 0 56.1217 12.0453 676 52.7234 1336.3 365.766
224 0 60.0456 12.8069 769 51.7334 1336.95 364.59
225 0 58.156 14.6674 853 51.3447 1336.68 360.131
226 0 60.0929 14.1281 849 51.609 1337.08 362.192
227 0 62.0941 12.5294 778 53.2416 1336.7 363.162
228 0 64.1035 12.7918 820 52.839 1336.68 363.584
229 0 65.0833 14.3816 936 51.3323 1336.54 363.824
230 0 69.1291 14.755 1020 51.051 1336.19 359.479
231 0 71.1428 14.7028 1046 51.7141 1336.31 355.513
232 0 71.1631 12.6751 902 54.6585 1336.05 353.574
233 0 75.1399 12.7762 960 53.6458 1336.92 356.574
234 1 41.0525 9.47568 389 55.144 1337.45 373.224
235 0 42.061 10.5323 443 54.9977 1337.35 371.332
236 0 42.0302 11.8962 500 54.442 1337.18 370.336
237 0 44.1032 11.0423 487 54.4456 1337.66 372.844
238 0 45.0325 10.9032 491 55.7699 1337.62 369.438
239 0 47.0847 12.5518 591 54.0694 1337.49 369.802
240 0 49.0423 12.0304 590 54.6797 1337.23 369.376
241 0 49.1397 11.6199 571 55.2662 1337.24 368.611
242 0 52.0545 11.2766 587 55.2385 1337.03 368.291
243 0 54.0571 11.6913 632 55.5775 1336.75 366.807
244 0 54.0929 12.9222 699 54.9914 1336.93 364.901
245 0 56.1298 11.9901 673 55.5542 1336.93 366.21
246 0 57.1027 12.136 693 56.7403 1337.27 363.72
247 0 61.0989 13.5518 828 53.6268 1336.92 364.864
248 0 60.091 11.4659 689 57.1074 1336.5 360.975
249 0 64.09 13.5278 867 54.6436 1336.63 359.161
250 0 67.1179 13.6923 919 53.4407 1336.83 361.865
251 0 66.0767 14.1048 932 54.324 1337.01 358.6
252 0 68.0977 14.0533 957 54.4577 1337.01 359.567
253 0 68.1559 13.7332 936 54.8077 1336.64 359.801
254 0 71.1035 16.3142 1160 52.3353 1336.54 357.549
255 0 74.257 13.4263 997 54.9228 1336.72 357.013
256 0 76.3039 12.542 957 56.2497 1336.6 355.927
257 0 78.1936 13.6712 1069 55.666 1336.49 352.905
258 0 80.1302 13.4157 1075 55.1851 1336.68 354.386
259 1 44.0251 12.561 553 54.8264 1337.11 371.458
260 0 45.0456 11.3441 511 56.2935 1336.97 370.387
261 0 47.1191 10.6114 500 55.842 1337.1 372.984
262 0 47.0285 11.5462 543 56.0552 1336.87 370.278
263 0 49.0536 13.7808 676 54.6923 1336.99 366.95
264 0 53.1778 12.3924 659 55.4825 1336.88 366.628
265 0 53.0221 13.1832 699 54.6624 1337.68 365.565
266 0 54.0254 12.1239 655 55.9573 1337.79 365.983
267 0 54.0204 11.292 610 57.0295 1337.31 365.289
268 0 56.0684 14.6785 823 53.6719 1337.3 363.299
269 0 57.0719 12.1251 692 56.341 1338.27 363.535
270 0 59.0844 11.9152 704 57.1747 1338.04 359.851
271 0 59.0392 10.6878 631 59.1933 1337.85 358.433
272 0 62.0825 13.2565 823 56.5006 1337.86 356.897
273 0 66.1291 14.9102 986 53.8032 1338.05 357.078
274 0 68.1011 15.0512 1025 54.3776 1338.16 352.853
275 0 70.0658 13.8584 971 55.3687 1337.62 355.875
276 0 72.1875 15.626 1128 53.9557 1337.68 353.496
277 0 73.1432 15.039 1100 54.9091 1337.41 353.387
278 0 75.0788 12.1739 914 58.4037 1337.03 353.388
279 0 77.0678 14.3769 1108 56.4549 1336.54 349.815
280 1 41.0698 11.1031 456 57.9474 1337.47 367.816
281 0 41.079 10.1999 419 58.9165 1336.89 369.869
282 0 44.0901 12.293 542 56.0258 1336.76 369.175
283 0 45.0333 12.413 559 56.449 1337.2 368.376
284 0 48.1091 12.825 617 55.8768 1336.98 367.987
285 0 47.1249 11.8409 558 58.672 1337.26 366.634
286 0 46.0625 10.5726 487 60.7782 1336.9 365.996
287 0 49.0241 12.8304 629 58.4976 1337.78 365.002
288 0 51.0695 13.2564 677 57.4682 1337.13 366.167
289 0 54.0626 14.9271 807 55.5043 1337.49 365.063
290 0 53.0868 13.1483 698 59.1504 1337.05 363.287
291 0 55.0244 12.9034 710 58.6606 1337.53 365.014
292 0 57.0472 12.3407 704 59.6562 1337.34 363.676
293 0 59.0537 12.4463 735 59.2463 1337.52 362.684
294 0 62.0904 14.0763 874 57.2895 1337.88 362.158
295 0 62.0752 13.9347 865 58.0335 1337.59 361.731
296 0 64.0541 11.2249 719 61.0904 1337.44 361.833
297 0 67.0579 13.2721 890 58.9607 1337.48 358.296
298 0 68.0873 13.1743 897 59.7703 1337.45 355.73
299 0 69.0477 12.3248 851 60.3079 1337.17 358.375
300 0 73.1377 12.8114 937 59.4696 1336.87 357.501
301 0 75.0673 12.7885 960 60.2896 1337.55 354.223
302 0 78.0766 14.6779 1146 58.1387 1337.57 353.14
303 1 40.0561 10.6601 427 61.2529 1338.3 371.728
304 0 43.0205 11.3202 487 60.3142 1338.16 371.287
305 0 44.097 13.2662 585 59.1026 1338.14 368.824
306 0 46.1946 13.9194 643 58.0513 1337.22 368.935
307 0 46.1094 12.2535 565 59.8796 1337.32 370.938
308 0 50.0217 12.4546 623 59.7352 1337.3 369.685
309 0 48.047 13.2995 639 60.5853 1337.11 366.964
310 0 50.0694 11.3642 569 62.4376 1337.2 369.053
311 0 54.0937 14.6413 792 57.2664 1336.56 370.477
312 0 55.0921 13.4683 742 59.7237 1337.24 368.129
313 0 56.0625 13.4314 753 60.3001 1338.19 367.55
314 0 57.0334 13.1327 749 60.9506 1337.73 365.84
315 0 59.0915 13.5383 800 60.1412 1337.49 365.806
316 0 62.0522 13.1502 816 60.6936 1336.91 362.469
317 0 63.0743 12.2078 770 61.9766 1336.59 360.936
318 0 64.062 13.2216 847 61.2763 1335.89 358.579
319 0 64.0551 12.6766 812 62.2131 1336.17 356.177
320 0 69.056 12.4247 858 61.9814 1335.83 357.111
321 0 71.1123 13.317 947 60.8237 1336.46 357.318
322 1 38.0284 10.8866 414 59.6159 1337.82 375.565
323 0 40.083 10.5531 423 60.9031 1337.73 373.967
324 0 39.0259 10.0959 394 62.7563 1337.83 372.168
325 0 43.0327 11.4099 491 60.9165 1337.78 370.733
326 0 43.0671 13.0958 564 59.094 1337.25 369.282
327 0 44.0277 12.1741 536 59.4422 1337.3 371.588
328 0 45.0685 13.3796 603 58.5008 1337.37 369.801
329 0 46.0422 12.8795 593 59.9713 1337.25 367.712
330 0 48.0573 11.1741 537 60.6909 1337.57 368.391
331 0 49.024 14.4215 707 57.3579 1337.66 367.396
332 0 49.0319 11.9106 584 60.3784 1338.03 367.404
333 0 49.0344 11.5021 564 61.4326 1338.32 365.073
334 0 54.026 12.9567 700 58.3971 1337.59 365.139
335 0 55.0845 13.5973 749 57.7971 1337.76 364.601
336 0 57.1109 12.8872 736 58.1304 1337.41 364.495
337 0 59.0639 11.4791 678 59.3451 1337.93 364.935
338 0 60.0985 13.5944 817 57.2142 1337.18 364.378
339 0 63.1477 12.9221 816 57.7414 1336.85 363.23
340 0 66.1064 13.206 873 57.1145 1336.86 360.774
341 0 65.1439 12.5415 817 58.5055 1336.95 361.222
342 0 68.2077 13.2683 905 56.9845 1337.19 358.976
343 0 69.1157 11.0105 761 59.7819 1337.39 359.464
344 0 72.0655 12.2389 882 58.8889 1337.06 355.7
345 0 75.1242 12.699 954 58.0451 1337.16 356.847
346 0 76.1098 10.9184 831 60.8736 1337.46 354.751
347 0 80.0675 15.5244 1243 55.4352 1337.1 353.671
348 1 37.0502 11.6868 433 59.6882 1336.83 371.568
349 0 44.0912 11.4309 504 59.0556 1337.17 370.391
350 0 42.0196 12.0182 505 59.9624 1336.93 369.067
351 0 44.1157 13.8953 613 57.0277 1337.02 369.9
352 0 45.0553 13.317 600 58.09 1336.63 366.923
353 0 49.0412 12.8056 628 58.1178 1336.15 368.689
354 0 50.0272 13.1528 658 57.7249 1336.75 367.301
355 0 51.0341 12.0312 614 59.9104 1336.93 364.244
356 0 52.1062 12.82 668 58.9671 1337.57 365.211
357 0 55.1097 12.0487 664 59.0316 1337.43 365.67
358 0 57.0443 12.762 728 58.5041 1336.76 363.488
359 0 59.0541 12.8188 757 58.6711 1336.5 362.72
360 0 60.0323 13.4428 807 57.9281 1336.98 361.669
361 0 61.0693 13.149 803 58.2902 1337.16 361.963
362 0 65.0137 13.6586 888 56.9099 1337.46 361.074
363 0 67.0955 15.083 1012 55.1472 1338.27 362.633
364 0 69.1082 15.6132 1079 54.8916 1337.78 359.458
365 0 72.1171 15.1004 1089 54.6006 1337.12 361.913
366 0 71.1437 12.3131 876 59.4669 1337.68 357.557
367 1 39.0264 10.9926 429 58.7762 1337.89 374.618
368 0 37.0099 10.4026 385 59.7896 1337.68 374.782
369 0 40.0896 11.4743 460 59.8413 1337.59 372.078
370 0 41.0092 10.4611 429 60.8205 1336.89 371.604
371 0 44.0323 12.5363 552 57.9801 1337.86 369.603
372 0 44.0864 11.8404 522 59.5613 1337.36 369.28
373 0 44.0349 13.0124 573 58.2286 1337.5 369.415
374 0 46.0249 11.6024 534 60.339 1337.22 368.358
375 0 49.0452 12.988 637 58.4458 1337.58 365.752
376 0 49.0608 13.1877 647 58.8269 1337.74 363.654
377 0 53.0857 13.789 732 57.2637 1337.64 362.73
378 0 53.0838 13.5446 719 58.4659 1337.19 362.538
379 0 54.0299 13.8072 746 58.4571 1337.04 362.976
380 0 57.0376 14.4817 826 57.345 1336.76 361.023
381 0 58.0862 13.3939 778 57.5334 1337.08 363.478
382 0 61.0637 14.1164 862 57.5441 1336.78 358.684
383 0 61.022 13.2411 808 58.4282 1336.94 360.238
384 0 64.0613 13.0968 839 58.6198 1336.76 356.98
385 0 65.0478 13.1442 855 58.4023 1337.41 355.712
386 0 68.0946 13.584 925 57.7059 1337.47 354.289
387 1 32.0119 10.5898 339 59.7463 1337.23 370.92
388 0 34.018 11.0236 375 58.4667 1336.94 371.413
389 0 38.0474 12.721 484 55.9256 1337.24 370.031
390 0 39.0195 12.7372 497 56.0121 1337.63 369.781
391 0 38.0586 11.3772 433 57.8337 1337.65 369.494
392 0 42.044 12.2253 514 56.1965 1337.19 369.788
393 0 40.0256 11.3177 453 59.1766 1337.9 368.576
394 0 43.0092 12.4624 536 56.8358 1337.65 368.42
395 0 42.0827 12.4041 522 57.91 1337.65 367.575
396 0 45.0163 12.0179 541 58.1146 1336.57 366.765
397 0 45.0149 11.9516 538 58.9981 1336.92 366.578
398 0 48.0784 12.7292 612 58.1013 1337.05 365.636
399 0 50.0983 12.6551 634 57.9779 1336.36 364.476
400 0 51.1042 12.2299 625 58.3632 1336.75 366.078
401 0 53.0428 13.5928 721 56.0069 1337.01 367.001
402 0 55.1269 14.6208 806 55.4851 1336.93 364.282
403 0 56.0758 13.9097 780 56.9154 1336.58 362.903
404 0 58.0639 13.5885 789 57.0494 1335.8 362.101
405 0 61.073 14.0651 859 56.22 1336.38 361.624
406 0 60.0678 12.0531 724 59.0166 1336 361.291
407 0 65.1676 14.1328 921 55.4235 1336.25 362.112
408 0 65.1227 12.5763 819 58.4322 1336.43 359.564
409 0 65.1452 10.8987 710 60.7915 1336.44 359.81
410 0 70.1457 12.7164 892 58.7175 1336.7 356.989
411 0 72.08 14.3729 1036 57.0087 1337.06 353.667
412 0 74.0716 12.1639 901 60.1232 1337.33 354.243
413 0 76.183 13.1394 1001 58.3277 1336.71 354.745
414 0 81.0911 13.0841 1061 58.0481 1337.03 353.045
415 1 42.079 11.3833 479 58.382 1337.36 370.582
416 0 43.0229 12.1796 524 57.2004 1337.53 370.893
417 0 45.0357 12.701 572 57.2045 1337.43 368.86
418 0 46.1059 10.8663 501 58.3593 1337.36 371.154
419 0 48.1586 11.7321 565 57.9664 1337.38 367.193
420 0 50.0835 13.8369 693 55.0014 1336.71 366.961
421 0 52.1125 12.0892 630 57.1413 1336.74 366.368
422 0 55.1056 13.3562 736 55.6535 1336.76 365.55
423 0 55.1381 11.172 616 56.4107 1336.99 369.18
424 0 58.0888 14.3573 834 53.7854 1336.92 365.871
425 0 56.1217 11.582 650 57.8462 1336.75 364.137
426 0 61.0884 11.9335 729 56.8285 1335.86 361.28
427 0 61.178 12.5862 770 55.7182 1336.18 363.327
428 0 63.1336 11.2777 712 57.1166 1336.39 360.369
429 0 67.143 13.6276 915 53.9552 1336.21 357.604
430 0 68.1347 11.6681 795 55.205 1336.07 360.615
431 0 70.1454 12.3458 866 55.1824 1335.83 354.349
432 0 74.1134 12.1705 902 54.9634 1335.68 355.841
433 0 76.1391 12.5822 958 53.977 1335.65 355.028
434 1 41.1045 10.0962 415 55.4723 1336.16 372.292
435 0 43.0929 12.183 525 52.9048 1336.34 372.469
436 0 41.0207 12.384 508 53.687 1336.69 371.476
437 0 44.1419 11.4177 504 54.4425 1336.89 370.673
438 0 46.0865 12.0209 554 53.2329 1337.35 370.717
439 0 46.136 13.0484 602 52.7791 1337.2 370.091
440 0 50.046 11.989 600 53.4067 1337.55 368.835
441 0 48.0558 10.8416 521 55.2188 1337.49 368.764
442 0 49.1096 12.2786 603 54.0896 1337.16 367.891
443 0 52.0144 11.0739 576 54.3038 1337.04 368.233
444 0 54.0435 12.3789 669 53.003 1336.22 364.783
445 0 56.0323 12.1716 682 53.1408 1336.82 364.151
446 0 56.1035 11.5144 646 53.9644 1337.12 364.189
447 0 59.1517 11.9692 708 53.411 1337.15 362.694
448 0 60.1222 10.1127 608 55.0263 1336.92 362.523
449 0 61.1149 10.2757 628 54.9873 1336.72 361.084
450 0 67.1728 12.4604 837 51.7634 1337.1 362.517
451 0 70.0524 13.29 931 51.1557 1336.66 358.371
452 0 71.1335 13.2708 944 51.375 1336.69 357.873
453 0 75.1824 13.7266 1032 50.6764 1336.63 356.538
454 1 37.0614 11.7103 434 52.5691 1336.94 374.567
455 0 36.0601 11.0649 399 54.005 1337.14 372.842
456 0 40.0371 11.889 476 52.7017 1336.99 371.855
457 0 40.0199 12.8186 513 51.6589 1337.17 371.156
458 0 42.0698 11.0768 466 53.4077 1337.15 371.18
459 0 44.0161 13.3815 589 50.4278 1337.61 372.722
460 0 44.0521 11.0778 488 53.373 1337.45 371.752
461 0 47.0489 13.4754 634 51.2035 1337.3 368.697
462 0 48.0434 12.2181 587 52.2606 1337.23 368.925
463 0 51.1082 12.092 618 52.3867 1337.51 368.456
464 0 51.1052 12.1905 623 52.687 1337.6 368.011
465 0 55.1037 13.4655 742 51.0377 1337.72 366.152
466 0 57.111 14.8658 849 49.6902 1337.56 366.239
467 0 56.1235 10.958 615 54.4715 1337.74 367.083
468 0 60.1267 14.1701 852 50.9308 1337.8 365.846
469 0 64.115 14.7547 946 50.1596 1336.9 364.309
470 0 63.1174 13.9898 883 51.9773 1336.99 362.977
471 0 66.1297 13.413 887 52.7182 1336.85 360.338
472 0 69.1724 12.7507 882 53.1395 1336.11 361.381
473 1 33.0335 10.8375 358 55.7179 1335.57 373.816
474 0 36.0396 12.9857 468 51.9936 1335.87 374.712
475 0 38.0103 9.89206 376 56.2473 1335.71 373.739
476 0 38.0473 13.7461 523 52.3518 1335.56 372.902
477 0 41.0436 11.5974 476 54.4307 1336.5 373.332
478 0 41.0436 11.6461 478 162.623 1336.51 373.278
479 0 44.0884 13.11 578 53.4585 1337.33 371.708
480 0 44.1707 12.9045 570 54.1842 1336.84 372.237
481 0 47.0596 12.771 601 54.0017 1336.85 371.183
482 0 48.0359 14.7598 709 51.8054 1336.94 372.179
483 0 49.0551 15.982 784 51.5842 1337.44 370.401
484 0 52.0526 13.6977 713 54.1234 1337.4 367.766
485 0 53.0376 14.1409 750 54.4453 1337.37 366.633
486 0 55.1704 13.1592 726 55.2893 1337.27 368.045
487 0 57.0789 13.5076 771 54.8988 1336.97 367.333
488 0 56.1177 12.6698 711 57.0464 1337.08 363.987
489 0 57.0649 12.5646 717 57.8884 1336.59 363.222
490 0 60.1298 13.6704 822 55.753 1335.86 364.577
491 0 61.0553 11.7271 716 57.7877 1336.24 364.997
492 0 64.0572 12.0986 775 57.52 1336.26 361.15
493 0 67.0869 14.0117 940 55.3766 1336 359.287
494 0 67.0857 11.5226 773 58.4321 1336.75 359.935
495 0 68.109 11.5256 785 58.3516 1336.74 359.791
496 0 73.1551 13.4372 983 55.1556 1336.42 358.754
497 0 74.1189 12.2641 909 56.9681 1336.22 357.199
498 1 41.0538 10.1087 415 59.3904 1335.9 368.925
499 0 39.1824 10.2087 400 60.79 1336.33 369.095
500 0 43.0564 12.3094 530 56.5491 1335.74 369.811
501 0 44.0118 13.4282 591 56.0948 1335.29 366.611
502 0 46.0237 11.9504 550 56.6273 1335.72 369.038
503 0 50.0812 13.0987 656 54.1448 1335.31 368.982
504 0 48.098 11.9548 575 56.6783 1334.97 367.539
505 0 48.0721 12.5853 605 56.8215 1335.26 365.979
506 0 53.0262 13.9365 739 53.7659 1335.1 365.415
507 0 54.0998 14.5842 789 52.5894 1335.71 366.75
508 0 55.0535 12.7694 703 55.7425 1335.44 364.553
509 0 57.1246 12.9366 739 55.3992 1335.58 363.189
510 0 57.2007 11.4509 655 57.429 1335.45 363.325
511 0 60.1279 14.9681 900 53.2678 1335.68 360.777
512 0 59.1151 12.0443 712 56.573 1335.83 362.865
513 0 63.1374 13.3518 843 54.5386 1336.23 362.367
514 0 66.1024 14.1296 934 53.7173 1335.47 358.936
515 0 66.1397 13.5622 897 54.9387 1335.29 358.943
516 1 35.0593 11.1525 391 54.5729 1335.66 374.542
517 0 36.1047 9.66633 349 58.2407 1335.88 371.779
518 0 36.0431 11.0423 398 57.6709 1336.12 371.003
519 0 37.1438 10.069 374 58.2807 1335.52 372.85
520 0 38.0263 12.0443 458 56.1725 1335.86 373.013
521 0 40.0315 11.416 457 57.3982 1335.44 370.801
522 0 41.0542 12.2034 501 57.3094 1334.86 369.14
523 0 44.0365 11.9674 527 57.019 1335.06 369.173
524 0 43.0193 12.4595 536 57.2537 1334.7 368.323
525 0 47.0608 11.8145 556 56.786 1334.95 370.98
526 0 47.0242 13.525 636 56.3286 1335.63 367.335
527 0 47.0251 10.3987 489 59.137 1335.22 370.039
528 0 50.1695 11.7601 590 58.4373 1334.89 367.771
529 0 51.0367 13.0886 668 57.021 1335.44 367.63
530 0 51.0215 12.1517 620 58.3581 1334.93 365.137
531 0 53.0497 10.952 581 59.6076 1335.08 365.482
532 0 55.1167 12.41 684 57.8933 1335.18 365.547
533 0 56.0651 10.8267 607 60.2619 1335.17 364.544
534 0 60.051 12.1563 730 58.1479 1335.13 364.611
535 0 61.1077 13.5335 827 56.0193 1334.92 363.888
536 0 64.0415 12.3045 788 58.0292 1335.17 361.039
537 0 65.0847 12.7987 833 57.0852 1334.92 362.026
538 0 66.044 12.3403 815 57.492 1336.05 362.918
539 0 68.0213 12.0992 823 58.4399 1336.16 358.288
540 1 39.0185 10.3797 405 58.721 1336.25 373.084
541 0 39.0277 12.9139 504 56.4464 1336.43 372.069
542 0 42.0611 12.2441 515 56.2718 1335.92 373.031
543 0 43.0372 11.0834 477 57.7631 1335.66 372.145
544 0 42.0465 12.2008 513 58.5984 1335.92 369.69
545 0 46.0597 12.6575 583 56.1304 1335.25 368.786
546 0 46.0933 12.7351 587 57.569 1335.06 366.375
547 0 46.1097 11.516 531 59.7326 1335.8 365.034
548 0 49.1526 13.4886 663 57.1765 1335.65 364.278
549 0 50.1677 12.7772 641 57.9875 1335.45 364.259
550 0 53.2968 14.0158 747 56.0924 1336.07 363.442
551 0 51.1667 12.4104 635 59.6787 1335.45 362.169
552 0 55.0865 13.4153 739 58.2828 1335.42 362.204
553 0 57.0549 13.1628 751 58.3888 1335.09 360.197
554 0 58.1117 11.1165 646 60.7276 1335.52 360.088
555 0 63.1552 13.7914 871 57.147 1335.74 357.945
556 0 62.3654 11.3845 710 60.5014 1335.18 357.592
557 0 66.1003 13.0862 865 57.9711 1335.39 356.862
558 0 68.2074 13.283 906 57.7064 1335.01 355.177
559 1 34.08 11.8545 404 58.8094 1335.16 369.787
560 0 36.0233 9.24401 333 60.1051 1335.23 372.051
561 0 38.0477 10.1452 386 59.6088 1335.39 371.541
562 0 39.0585 10.5227 411 59.7859 1335.46 371.703
563 0 40.011 11.8717 475 57.9832 1335.13 370.964
564 0 41.0141 11.1425 457 59.3173 1335.21 369.637
565 0 42.0228 10.8037 454 59.5793 1335.31 369.72
566 0 45.0169 14.439 650 54.9969 1334.97 369.318
567 0 48.1209 12.4063 597 56.928 1334.75 368.189
568 0 49.0534 12.3946 608 56.6859 1334.75 368.502
569 0 50.0376 12.7704 639 55.9343 1335.1 368.382
570 0 50.0228 12.3544 618 58.1214 1334.98 364.55
571 0 52.0633 12.0814 629 59.097 1334.39 362.533
572 0 56.0968 12.4784 700 57.92 1334.28 363.687
573 0 58.0804 13.2058 767 57.1591 1334.32 362.404
574 0 57.0133 12.2077 696 59.158 1334.72 360.592
575 0 62.0984 13.0599 811 57.0481 1334.17 361.649
576 0 64.0942 11.5767 742 59.2507 1334.1 359.585
577 0 63.1159 11.8195 746 59.7292 1333.41 359.631
578 0 68.0638 13.9281 948 56.2025 1333.93 358.717
579 0 69.0552 14.3943 994 56.4809 1334.48 356.709
580 0 72.0696 12.9736 935 57.8695 1335.45 355.832
581 0 76.1198 13.0321 992 57.4093 1335.94 355.749
582 0 76.1304 14.5802 1110 56.1477 1335.72 353.686
583 1 36.0209 12.1318 437 58.1762 1335.88 371.14
584 0 39.0914 10.4115 407 58.3857 1336.1 372.968
585 0 41.0236 11.0912 455 58.1648 1336.49 371.727
586 0 42.0965 10.666 449 60.0757 1336.42 369.486
587 0 44.0214 12.4258 547 58.3236 1336.01 367.324
588 0 41.0198 10.629 436 62.3486 1335.98 367.677
589 0 44.042 11.4663 505 61.1307 1336.2 366.339
590 0 47.0519 13.5382 637 57.5997 1336.83 367.995
591 0 49.1152 14.2726 701 57.1198 1336.5 365.17
592 0 51.0474 13.654 697 57.835 1336.9 365.327
593 0 51.0734 12.6485 646 59.7291 1336.47 363.054
594 0 52.0227 12.1293 631 60.2029 1336.62 363.572
595 0 55.0762 12.1831 671 59.5842 1336.19 362.472
596 0 57.0829 13.787 787 58.0724 1336.14 359.384
597 0 58.0619 12.6934 737 59.5739 1335.61 358.649
598 0 58.0836 12.637 734 60.5027 1335.66 355.939
599 0 60.0589 12.6043 757 60.0172 1335.73 356.069
600 0 63.0511 12.8626 811 59.9482 1335.81 354.264
601 0 67.0969 14.3226 961 57.3382 1336.3 355.666
602 0 66.1433 11.1122 735 61.6585 1335.73 353.23
603 0 72.1973 13.8786 1002 57.1766 1335.81 354.108
604 0 74.091 13.9693 1035 57.3024 1335.59 352.18
605 0 76.1266 13.6615 1040 57.7135 1335.64 352.036
606 0 76.1169 12.3757 942 59.9183 1335.85 352.211
607 1 42.1036 9.85665 415 59.9542 1335.42 368.376
608 0 44.0463 10.5798 466 58.9442 1336.37 367.695
609 0 46.0293 12.0141 553 56.9458 1336.36 367.875
610 0 45.078 10.3376 466 58.6009 1336.12 369.629
611 0 46.0256 12.3192 567 57.4374 1335.89 367.989
612 0 50.0889 12.2782 615 56.6033 1336.16 366.631
613 0 49.1677 10.515 517 59.0329 1336.16 367.29
614 0 52.1481 13.8835 724 55.8439 1336.08 364.699
615 0 53.1049 12.2588 651 56.9078 1335.92 365.71
616 0 53.0997 12.7119 675 57.5881 1336.15 363.145
617 0 56.1129 12.1541 682 57.585 1336.01 363.21
618 0 57.1008 12.3816 707 57.3211 1336.16 363.893
619 0 59.1691 11.9995 710 58.3662 1335.98 360.751
620 0 62.124 14.0525 873 55.8477 1335.63 358.805
621 0 64.1358 13.4091 860 56.364 1335.23 359.01
622 0 66.0423 15.8838 1049 53.979 1335.41 357.012
623 0 67.1121 12.7697 857 57.6908 1335.62 355.974
624 0 74.1324 14.8113 1098 53.6029 1335.26 358.984
625 1 36.0961 9.94568 359 57.7382 1335.17 371.501
626 0 38.0366 10.7528 409 57.044 1335.09 372.059
627 0 41.0915 12.1923 501 55.6707 1335.16 369.758
628 0 42.0456 12.3913 521 55.2591 1335.7 370.973
629 0 42.0363 11.8945 500 56.614 1335.49 369.07
630 0 42.0408 11.0131 463 57.568 1335.06 367.231
631 0 47.0931 12.3585 582 55.3952 1335.24 367.139
632 0 46.0312 13.3605 615 54.7707 1335.71 367.906
633 0 48.1212 11.097 534 56.9794 1335.7 368.393
634 0 50.0653 11.7846 590 56.522 1335.57 366.237
635 0 51.0443 11.7741 601 55.97 1335.93 368.233
636 0 49.07 11.1066 545 58.5321 1335.87 365.642
637 0 56.1914 12.493 702 55.6068 1335.4 363.178
638 0 54.0547 12.3209 666 56.97 1335.88 361.351
639 0 57.0537 11.9361 681 56.6211 1335.67 361.946
640 0 60.1059 12.5944 757 55.6222 1335.73 360.17
641 0 60.0878 11.3667 683 56.8243 1335.33 361.852
642 0 63.03 12.2957 775 55.6439 1335.58 360.618
643 0 65.0896 11.1231 724 56.2638 1335.95 361.841
644 0 66.0508 11.4306 755 56.3073 1335.95 360.404
645 1 36.0266 9.96485 359 56.4178 1335.81 371.228
646 0 40.0274 9.21869 369 56.5366 1335.88 370.683
647 0 40.0377 10.2903 412 56.3204 1335.97 370.697
648 0 42.0699 10.6489 448 55.6161 1335.96 370.174
649 0 44.0264 12.2199 538 54.184 1335.41 369.273
650 0 46.0684 11.7651 542 55.4391 1334.76 366.622
651 0 47.0682 12.1526 572 54.285 1335.21 368.323
652 0 48.0588 11.0906 533 55.3471 1335.27 368.57
653 0 51.1287 12.7913 654 53.5199 1335.18 366.858
654 0 51.0495 10.6367 543 56.5838 1335.13 364.519
655 0 52.0469 11.3552 591 56.0914 1335.31 363.662
656 0 56.2066 11.4755 645 55.6372 1335.06 363.695
657 0 56.2151 11.2959 635 55.6425 1335.52 365.209
658 0 59.1479 11.0401 653 56.268 1335.35 361.107
659 0 59.2348 10.8382 642 57.2632 1335.2 360.357
660 0 65.1137 14.6052 951 52.7182 1335.17 359.374
661 0 67.1362 12.5119 840 54.7583 1335.23 358.679
662 0 66.1456 11.3084 748 56.861 1335.58 356.425
663 0 69.1106 11.1271 769 56.4915 1335.55 358.463
664 0 73.1652 12.0002 878 56.0911 1334.99 355.688
665 1 37.0366 9.55812 354 58.113 1335.37 369.977
666 0 40.0792 9.8555 395 57.8304 1336.35 370.035
667 0 41.0878 11.1712 459 55.2963 1336.27 372.828
668 0 43.0535 11.567 498 55.5241 1336.37 370.486
669 0 44.0165 11.5866 510 55.8431 1336.04 370.475
670 0 46.0402 12.9452 596 55.2517 1336.29 365.218
671 0 49.0254 12.9117 633 54.5861 1336.13 364.867
672 0 50.0831 12.1997 611 54.8347 1335.74 366.501
673 0 51.073 11.6696 596 55.8742 1335.42 363.721
674 0 52.0124 12.8815 670 54.5418 1335.7 364.922
675 0 56.0783 13.0175 730 54.4562 1335.49 360.893
676 0 56.0393 11.3492 636 56.0833 1335.94 362.044
677 0 59.0305 12.4512 735 54.7469 1335.7 361.573
678 0 61.0661 12.8549 785 54.2561 1335.27 360.214
679 0 63.075 12.5882 794 54.4824 1335.97 358.66
680 0 65.3014 12.5418 819 54.2735 1336.1 358.046
681 0 67.0471 13.9603 936 53.7244 1336.04 353.897
682 0 68.1094 12.9351 881 54.0477 1335.45 355.817
683 0 70.126 12.8055 898 54.2984 1334.7 353.185
684 0 73.1125 12.8842 942 53.2527 1335.14 355.376
685 0 77.1371 11.3305 874 55.5149 1334.86 353.134
686 0 78.0706 13.1676 1028 53.7763 1334.36 349.266
687 0 81.1156 13.3143 1080 53.9972 1334.48 346.478
688 0 83.1291 10.622 883 55.983 1335.02 350.236
689 1 45.0234 11.3496 511 53.9922 1335.95 366.593
690 0 47.0394 8.94995 421 56.2637 1335.63 367.223
691 0 49.0493 10.9482 537 55.6331 1335.67 365.073
692 0 50.0401 10.5915 530 56.2377 1335.19 362.717
693 0 56.0426 13.9537 782 51.532 1335.35 362.688
694 0 56.0495 12.2749 688 53.7238 1335.37 360.786
695 0 55.1874 11.8505 654 54.2844 1335.41 362.462
696 0 57.037 10.2916 587 56.3543 1335.16 359.833
697 0 60.1789 10.851 653 54.9051 1335.6 359.789
698 0 62.0384 11.8797 737 54.0068 1335.23 358.87
699 0 66.0396 12.1896 805 53.5851 1335.48 357.004
700 0 67.094 13.9357 935 52.0428 1335.61 355.594
701 0 71.0998 12.813 911 53.1175 1335.64 355.825
702 0 72.1509 12.2382 883 54.1359 1336.36 356.795
703 0 76.1419 14.4598 1101 52.0572 1335.73 354.227
704 0 77.1072 13.4229 1035 53.0696 1335.78 354.86
705 0 82.091 14.5814 1197 51.878 1335.68 353.375
706 0 82.241 14.3238 1178 52.5603 1336.34 351.122
707 0 86.1431 15.0796 1299 52.3911 1335.93 349.115
708 1 47.0276 11.2275 528 53.8769 1335.6 368.222
709 0 48.1081 12.1601 585 53.6256 1336.07 367.728
710 0 49.0671 11.1072 545 55.8367 1335.94 365.572
711 0 51.0308 12.5414 640 53.5094 1336.26 364.111
712 0 50.0778 12.0413 603 55.4627 1336.19 360.493
713 0 54.0955 11.9234 645 55.3178 1336.68 361.398
714 0 56.0737 12.6441 709 54.3611 1336.17 362.007
715 0 56.0591 11.5414 647 56.4915 1336.68 359.321
716 0 59.0586 13.2411 782 53.8568 1336.79 361.798
717 0 63.055 13.6389 860 53.4628 1336.3 358.257
718 0 65.0737 13.4463 875 53.7406 1336.75 357.217
719 0 62.0532 11.7158 727 56.4512 1336.68 355.937
720 0 66.0407 13.3403 881 54.0681 1336.52 356.586
721 0 70.1203 12.4358 872 54.93 1336.9 354.221
722 0 72.0498 12.991 936 54.4444 1336.85 353.84
723 0 74.1316 12.4913 926 55.2883 1336.15 351.524
724 0 78.1512 14.2416 1113 53.2579 1336.47 349.352
725 0 79.0546 12.6621 1001 55.008 1335.57 349.986
726 0 83.1408 13.9402 1159 53.5522 1336.13 348.903
727 0 84.117 12.3518 1039 55.9269 1335.95 346.16
728 1 50.1239 13.4866 676 52.4941 1335.68 365.388
729 0 50.0446 12.4689 624 55.2917 1335.68 362.367
730 0 52.0823 12.9218 673 54.6642 1336.14 363.367
731 0 52.0486 11.9888 624 56.7516 1335.64 360.615
732 0 57.0834 12.0175 686 55.8484 1336.1 360.577
733 0 58.0601 14.0716 817 53.3807 1336.4 360.998
734 0 61.0236 10.9957 671 57.1595 1336.49 358.203
735 0 64.0512 12.4744 799 55.0964 1336.2 359.186
736 0 66.1716 13.2685 878 54.6025 1336.6 357.682
737 0 69.1274 12.9616 896 54.3326 1336.64 357.806
738 0 70.0626 12.4175 870 56.2483 1336.2 353.429
739 0 73.0974 11.7104 856 56.8143 1336.41 353.053
740 0 74.1516 13.2971 986 55.6927 1336.43 352.354
741 0 77.1607 14.4763 1117 54.4673 1336.51 351.594
742 0 79.156 13.3407 1056 55.7557 1336.2 349.671
743 0 84.1919 13.8731 1168 55.0711 1335.68 348.159
744 0 85.1629 11.6483 992 57.8417 1336.03 347.881
745 0 89.1261 11.7923 1051 57.8449 1336.16 346.199
746 1 48.0145 12.2463 588 55.7415 1336.52 366.689
747 0 49.1019 12.138 596 56.193 1336.73 365.188
748 0 53.0695 12.0785 641 56.3994 1337.2 364.095
749 0 54.0262 13.1418 710 55.3338 1336.82 362.677
750 0 54.0776 13.5546 733 55.5689 1336.45 362.563
751 0 54.0363 12.177 658 58.6581 1336.1 360.605
752 0 57.0181 12.6626 722 57.7036 1336.32 359.025
753 0 56.0525 10.9183 612 61.0735 1336.34 357.868
754 0 61.0579 13.348 815 57.7914 1336.16 356.696
755 0 60.0831 11.6173 698 60.3739 1335.76 355.226
756 0 64.1146 12.4933 801 58.6804 1336.53 355.65
757 0 68.1054 13.4351 915 57.2503 1337.02 355.054
758 0 70.1044 12.6954 890 58.4775 1336.47 351.54
759 0 73.0679 13.0837 956 57.7636 1336.45 351.865
760 0 74.0527 14.8273 1098 56.245 1336.75 349.964
761 1 39.0734 11.1841 437 57.0481 1336.35 369.43
762 0 40.0668 11.7304 470 56.3021 1335.81 369.345
763 0 44.0594 10.8944 480 56.275 1336.55 368.027
764 0 42.0479 10.4642 440 58.1341 1336.24 366.664
765 0 43.0267 11.2023 482 57.4378 1336.25 365.122
766 0 47.1301 11.5001 542 55.9004 1335.87 365.721
767 0 50.1384 12.1264 608 54.9589 1336.01 364.327
768 0 50.0692 10.0061 501 58.1776 1336.31 363.517
769 0 51.0515 9.63732 492 58.122 1336.58 362.955
770 0 53.0567 12.3641 656 55.5107 1335.79 360.916
771 0 55.0477 13.8789 764 53.8298 1335.56 360.442
772 0 56.1095 12.3687 694 55.6686 1335.43 361.004
773 0 58.1545 13.0686 760 54.8145 1335.69 359.107
774 0 59.1628 12.1698 720 55.7681 1335.55 358.225
775 0 63.1288 11.9122 752 55.5625 1335.57 357.759
776 0 65.0625 13.2027 859 54.1665 1335.31 356.404
777 0 66.1711 13.6918 906 53.7991 1335.66 354.575
778 0 68.0927 12.2627 835 54.7904 1335.66 355.069
779 0 68.2132 10.6138 724 56.7044 1335.87 353.47
780 0 75.3754 13.5455 1021 53.2929 1335.94 349.342
781 0 72.2398 11.4618 828 56.0713 1335.19 347.614
782 0 79.2354 12.2546 971 54.3708 1335.53 349.728
783 1 44.0523 10.7599 474 54.1561 1336.07 365.846
784 0 46.0384 10.8171 498 53.9036 1336.41 365.711
785 0 47.0225 11.0585 520 53.9135 1336.48 364.863
786 0 49.0988 13.1164 644 52.7298 1335.85 362.756
787 0 51.0569 10.8898 556 54.3094 1336.13 363.369
788 0 56.0665 12.9311 725 51.9352 1336.33 361.651
789 0 55.0991 13.7752 759 51.2174 1335.7 362.57
790 0 59.2001 10.2872 609 54.5846 1335.87 359.402
791 0 62.118 12.9109 802 51.1845 1335.8 358.641
792 0 62.1533 12.2922 764 52.8259 1335.87 357.563
793 0 65.1719 14.1625 923 50.6349 1335.94 357.08
794 0 66.1182 12.0542 797 52.2434 1336.38 358.592
795 0 67.1578 14.1607 951 51.4143 1336.23 352.719
796 0 67.0996 11.1476 748 54.8396 1336.19 351.452
797 0 69.2916 11.7042 811 54.2281 1336.42 349.282
798 0 74.1883 11.3225 840 53.4286 1335.98 351.85
799 0 75.1237 11.7007 879 53.0228 1335.81 352.046
800 0 80.1149 12.5445 1005 51.9035 1335.6 350.655
801 0 82.1017 12.9839 1066 52.4981 1335.03 347.069
802 0 87.1036 11.538 1005 53.3701 1335.65 348.375
803 1 49.0613 9.23336 453 54.4283 1335.78 365.558
804 0 52.1368 10.2231 533 53.636 1336.02 364.246
805 0 54.1393 11.8768 643 52.353 1335.99 363.148
806 0 55.0217 11.7045 644 51.8075 1336.57 361.031
807 0 56.0887 10.6973 600 52.53 1336.66 362.592
808 0 60.0404 11.1591 670 52.8881 1336.5 359.884
809 0 60.1233 12.1417 730 53.0301 1336.09 356.87
810 0 64.1054 12.4015 795 52.6138 1335.25 358.582
811 0 70.2552 14.3619 1009 49.9207 1335.62 359.788
812 0 67.1912 12.7547 857 53.1855 1335.91 354.628
813 0 73.1241 14.113 1032 50.6182 1336.68 355.265
814 0 72.1041 11.9272 860 53.9047 1336.73 351.893
815 0 76.2897 12.5312 956 53.069 1336.58 350.167
816 0 79.27 13.1071 1039 52.718 1336.54 349.067
817 0 80.2548 11.0523 887 55.0778 1336.73 346.325
818 0 85.2625 12.5143 1067 52.7526 1336.49 348.101
819 0 88.2669 10.6835 943 54.4867 1336.76 347.066
820 0 89.1484 12.3726 1103 53.3336 1336.41 344.528
821 0 93.2869 11.6308 1085 54.0949 1336.36 340.124
822 0 97.1028 12.5331 1217 53.3098 1336.86 340.903
823 0 101.347 12.6101 1278 53.1682 1336.44 340.061
824 1 53.0947 10.8485 576 55.3281 1336.77 359.123
825 0 56.1259 10.6368 597 54.8442 1337.12 359.854
826 0 60.1358 13.3365 802 51.6247 1336.86 358.617
827 0 63.1176 12.7381 804 52.2264 1336.47 359.588
828 0 62.2413 12.3551 769 52.5527 1335.92 357.347
829 0 64.1846 11.6539 748 53.0281 1335.83 357.515
830 0 68.154 14.0417 957 50.3845 1336.56 355.239
831 0 66.0938 11.8922 786 53.0649 1336.82 354.874
832 0 72.1461 12.5301 904 51.5431 1336.6 355.295
833 0 73.2324 12.5764 921 51.8067 1337.04 351.825
834 0 78.2423 12.4869 977 51.2477 1337.08 351.811
835 0 80.1839 10.214 819 53.3968 1336.75 350.803
836 0 82.1525 14.3635 1180 49.8966 1336.6 345.736
837 0 88.1509 12.5467 1106 51.1302 1336.63 345.881
838 1 43.0843 9.49302 409 54.0489 1337.48 367.303
839 0 45.0516 8.61236 388 54.2784 1336.97 366.436
840 0 47.022 11.6116 546 51.8755 1336.9 365.322
841 0 51.071 14.94 763 48.4561 1336.19 362.78
842 0 51.0229 11.3479 579 53.8808 1336.32 359.478
843 0 54.1212 12.2688 664 52.0286 1335.69 362.045
844 0 56.1141 12.3142 691 52.2793 1335.81 361.023
845 0 59.0636 12.5627 742 51.6402 1335.83 360.956
846 0 62.1455 16.2683 1011 48.3234 1336.39 358.656
847 0 63.0333 11.597 731 52.4952 1336.28 361.383
848 0 65.0593 12.3118 801 52.7978 1336.3 358.122
849 0 69.0819 12.8977 891 51.2155 1336.83 357.982
850 0 70.0814 14.2834 1001 50.026 1336.4 355.574
851 0 70.0531 19.7279 1382 45.7431 1336.2 357.742
852 0 76.1404 13.0286 992 51.8185 1336.32 352.567
853 0 77.0567 18.3242 1412 47.0241 1336.83 350.373
854 0 79.0696 12.7736 1010 51.5267 1336.24 353.341
855 0 82.0797 14.0595 1154 50.6906 1336.17 349.254
856 1 41.0488 12.0345 494 50.9636 1336.11 369.522
857 0 41.0362 12.2331 502 51.7669 1335.95 368.301
858 0 45.0243 11.5271 519 50.8574 1335.83 369.158
859 0 45.0408 12.0335 542 51.4945 1335.54 366.43
860 0 47.0787 13.9129 655 50.029 1335.93 363.879
861 0 47.332 11.2397 532 52.3835 1336.14 364.415
862 0 49.1003 12.8105 629 51.1781 1335.99 363.01
863 0 54.1624 12.8502 696 51.0244 1336.12 361.43
864 0 53.0644 18.4681 980 46.4898 1335.92 362.839
865 0 55.0535 12.7149 700 52.51 1336.64 361.279
866 0 57.0757 14.3319 818 51.3203 1336.46 357.68
867 0 61.0651 15.4753 945 49.9005 1335.61 358.413
868 0 62.0656 14.1786 880 51.1261 1335.4 358.33
869 0 62.1276 12.088 751 54.5513 1336.01 356.156
870 0 64.1211 14.5506 933 52.4609 1336.19 355.242
871 0 68.0781 12.8382 874 54.4188 1336.63 353.426
872 0 72.0459 13.7412 990 53.6051 1336.51 352.984
873 0 73.0646 16.4649 1203 50.8828 1336.39 351.838
874 0 75.0441 12.486 937 55.0235 1336.02 350.824
875 0 80.2198 13.4755 1081 53.4866 1335.72 348.904
876 1 42.0276 11.3497 477 53.8931 1336.37 366.891
877 0 45.1006 13.2593 598 51.2492 1336.77 366.458
878 0 44.1687 11.841 523 53.0153 1336.72 366.293
879 0 45.1066 12.5259 565 53.1628 1336.48 366.209
880 0 48.0437 10.3239 496 54.4113 1336.42 366.77
881 0 48.0291 12.076 580 54.3069 1336.37 363.116
882 0 51.0362 13.2063 674 52.4941 1336.5 362.441
883 0 53.0448 12.8005 679 52.5935 1335.85 363.751
884 0 53.0221 13.2021 700 52.9843 1336.27 360.663
885 0 57.0799 13.8753 792 51.4823 1336.41 360.648
886 0 58.0811 11.2773 655 54.0168 1335.98 359.478
887 0 62.1008 13.3976 832 50.9483 1336.64 360.934
888 0 61.0459 12.3514 754 53.5451 1336.22 356.54
889 0 64.2032 13.395 860 52.286 1336.52 355.73
890 1 35.0158 10.6523 373 51.6005 1336.51 371.231
891 0 34.0676 9.86274 336 52.1607 1335.99 371.83
892 0 36.034 10.2681 370 51.4351 1336.16 370.7
893 0 38.0389 12.3032 468 49.344 1336.45 371.045
894 0 39.0918 12.509 489 49.9346 1336.3 368.693
895 0 37.0561 11.0913 411 51.7056 1336.04 366.798
896 0 40.0404 10.5643 423 50.7329 1336.15 369.882
897 0 43.0381 11.6408 501 50.3733 1336.62 366.856
898 0 44.0452 13.3726 589 47.9032 1336.43 369.007
899 0 47.0505 13.4324 632 48.6646 1336.03 365.217
900 0 45.0226 13.4821 607 49.0198 1335.7 366.367
901 0 47.0437 15.0711 709 47.2948 1336.03 367.42
902 0 49.075 11.9409 586 50.4096 1336.45 365.324
903 0 49.031 12.1148 594 51.1246 1336.63 361.655
904 0 52.0734 13.385 697 49.0416 1335.6 362.935
905 0 55.0544 12.2061 672 49.5164 1335.39 363.374
906 0 55.0581 10.5707 582 51.3522 1336.32 362.067
907 0 59.0449 13.549 800 48.3387 1336.02 362.311
908 0 58.0746 11.5197 669 51.3617 1335.83 358.477
909 0 62.0603 13.6158 845 48.9787 1336.17 358.53
910 0 62.0578 12.7784 793 50.1551 1335.93 357.208
911 0 63.0995 10.9193 689 52.0769 1335.71 355.479
912 0 66.1972 12.9008 854 49.6511 1335.88 357.319
913 0 68.0542 13.0484 888 50.0383 1336.12 354.752
914 0 71.0964 12.5182 890 50.5899 1336.18 352.893
915 0 74.2294 12.7577 947 50.4403 1335.55 352.582
916 1 37.0198 10.3999 385 50.7532 1335.67 368.119
917 0 39.0351 9.60675 375 50.84 1334.84 369.427
918 0 40.1443 10.6366 427 50.548 1334.5 368.494
919 0 43.0442 12.0574 519 49.0366 1334.44 366.36
920 0 44.0832 12.0454 531 48.8588 1334.42 367.908
921 0 42.0485 10.4166 438 52.137 1335.47 363.352
922 0 48.1023 12.0369 579 49.437 1335.37 366.199
923 0 49.1502 12.6754 623 49.3403 1336.3 365.141
924 0 50.0417 11.7902 590 49.9576 1336.53 365.027
925 0 50.0828 11.0417 553 51.6817 1336.49 364.293
926 0 54.1705 10.7623 583 51.2127 1336.13 363.213
927 0 57.0484 11.2185 640 50.7281 1335.67 362.956
928 0 58.0599 11.7293 681 51.0764 1335.53 356.919
929 0 59.1252 12.7526 754 49.4257 1335.92 360.808
930 0 60.0986 11.4312 687 51.2809 1336.14 358.231
931 0 62.1848 12.8488 799 50.4593 1335.2 355.829
932 0 64.1685 10.675 685 52.5241 1335.01 353.857
933 0 66.1639 11.3506 751 51.8868 1335.51 352.594
934 1 37.0746 10.7621 399 49.5965 1336.18 369.967
935 0 40.0616 10.2842 412 50.4442 1336.66 368.25
936 0 40.0885 10.1525 407 52.0663 1335.83 367.595
937 0 41.0895 8.518 350 54.1286 1335.76 365.957
938 0 45.0363 13.3226 600 49.1917 1335.82 365.207
939 0 46.1296 12.5516 579 50.5509 1336.11 365.85
940 0 45.0588 11.7402 529 51.4537 1336.77 363.146
941 0 49.0433 13.3352 654 49.3287 1336.86 363.219
942 0 50.0302 10.5536 528 52.2576 1336.46 362.265
943 0 51.0464 11.1663 570 51.8842 1337.04 361.916
944 0 57.1029 12.3111 703 49.6415 1336.82 363.211
945 0 57.1177 11.8177 675 50.9111 1336.69 362.736
946 0 58.0746 10.5037 610 52.8951 1336.23 359.985
947 0 60.1063 10.7144 644 51.9301 1335.97 361.255
948 0 64.074 12.6416 810 50.6074 1335.85 357.92
949 0 67.0913 11.2235 753 52.1408 1336.23 357.961
950 0 68.0372 11.2585 766 51.5757 1336.03 359.249
951 0 70.1081 12.4807 875 51.1451 1335.64 355.146
952 0 70.101 10.2566 719 53.8526 1335.37 353.25
953 1 41.0663 9.66729 397 51.7154 1335.43 371.499
954 0 38.0209 10.2838 391 52.7084 1335.17 370.192
955 0 44.1183 11.7185 517 50.1006 1334.72 368.602
956 0 42.0655 10.1508 427 53.1967 1334.68 365.658
957 0 45.0512 10.8543 489 51.7423 1334.64 365.487
