time division length width area intensity CMx CMy
0 0 37.0363 11.1512 413 65.2421 129.477 523.649
1 0 38.0456 10.7502 409 65.2176 129.474 525.284
2 0 41.012 10.8017 443 64.4921 129.429 524.813
3 0 40.0176 12.5695 503 63.2962 129.006 524.374
4 0 40.0421 13.7605 551 62.7967 128.971 522.426
5 0 41.0581 11.2036 460 66.6956 128.946 523.011
6 0 42.0322 14.4651 608 61.7188 128.395 523.918
7 0 44.0559 13.0516 575 64.6296 128.421 521.553
8 0 46.0151 12.5611 578 64.4273 128.834 522.91
9 0 48.0167 11.7459 564 66.2926 129.379 521.966
10 0 51.04 13.656 697 62.9885 129.227 521.337
11 0 51.0115 13.7028 699 63.2475 129.235 520.7
12 0 51.0495 12.4389 635 65.9276 129.143 520.047
13 0 52.0545 14.3888 749 63.5447 129.538 519.076
14 0 53.0183 14.429 765 64.0863 128.26 518.133
15 0 57.1044 13.7117 783 64.5658 128.153 519.678
16 0 57.0703 13.3169 760 65.8171 127.947 518.943
17 0 59.0924 13.7581 813 66.2189 128.679 516.149
18 0 62.0352 14.7658 916 63.5033 128.793 518.23
19 0 62.0824 14.6579 910 64.7989 128.281 515.259
20 0 63.2661 14.0992 892 65.7466 128.056 516.428
21 0 67.0868 16.2476 1090 63.2028 128.245 511.394
22 0 68.1063 13.8754 945 66.7005 127.598 512.714
23 0 69.041 13.4558 929 67.5845 128.608 511.708
24 0 73.1187 13.8679 1014 67.2091 128.174 510.889
25 0 74.0565 13.4897 999 68.0591 128.799 509.869
26 0 77.1416 13.8836 1071 68.5481 128.963 507.604
27 0 81.1154 14.2513 1156 67.2751 128.781 509.117
28 0 82.0652 14.0742 1155 68.8468 127.628 506.688
29 0 84.1127 14.1596 1191 69.1411 129.043 505.781
30 0 87.0535 14.6462 1275 68.9867 128.365 506.317
31 1 45.0122 12.1078 545 72.9303 128.49 524.384
32 0 48.0719 13.355 642 69.8847 128.489 524.315
33 0 48.0203 11.9325 573 74.0209 129.117 522.438
34 0 50.0541 13.8051 691 71.4096 129.271 521.153
35 0 52.0772 13.4416 700 71.4843 129.586 521.113
36 0 53.0253 13.3333 707 72.2037 128.639 519.997
37 0 55.0443 13.3347 734 71.3787 129.089 519.678
38 0 57.064 13.4761 769 71.342 129.563 519.93
39 0 58.073 12.2776 713 73.9481 128.923 518.147
40 0 60.082 14.5634 875 70.9074 130.133 516.478
41 0 61.0835 12.4584 761 72.4665 130.23 518.125
42 0 62.0442 12.7329 790 74.0063 130.481 515.109
43 0 66.0821 13.3168 880 72.2898 129.788 514.947
44 0 66.044 11.3409 749 75.8638 130.389 514.096
45 0 68.0667 12.2527 834 74.6439 129.916 512.864
46 0 71.0681 12.889 916 73.6572 130.36 511.666
47 0 74.0435 13.6001 1007 72.857 130.445 511.634
48 0 75.1258 12.0598 906 74.8278 130.613 511.661
49 0 78.0942 13.8295 1080 74.5222 130.784 507.141
50 0 81.0431 12.4748 1011 75.6607 130.239 508.985
51 0 82.025 12.9351 1061 75.6324 130.049 507.592
52 0 84.0538 13.0036 1093 76.269 130.097 504.974
53 0 88.118 12.9486 1141 76.2594 130.709 505.351
54 0 90.1192 13.0827 1179 76.6692 130.252 503.527
55 0 92.1234 12.2879 1132 77.9143 130.664 504.559
56 0 97.0781 12.6393 1227 77.1027 130.697 502.488
57 0 96.1312 12.3581 1188 79.2508 130.405 498.79
58 0 99.2162 12.6088 1251 78.6938 130.927 500.448
59 0 106.065 12.8601 1364 77.9164 131.232 496.737
60 0 106.077 12.7737 1355 78.8554 131.471 496.88
61 0 108.084 11.6391 1258 80.5382 130.409 495.848
62 0 113.111 12.4214 1405 79.427 130.441 493.312
63 0 120.13 14.6924 1765 74.9518 130.462 490.64
64 0 121.08 13.1401 1591 77.4865 130.436 489.89
65 0 126.147 11.9544 1508 78.4682 131.509 491.28
66 0 128.158 12.6952 1627 78.8802 130.467 487.767
67 0 133.16 13.2097 1759 78.3434 130.706 482.244
68 1 68.0949 12.5266 853 79.769 130.945 511.512
69 0 69.0312 12.6754 875 80.1269 130.999 512.307
70 0 72.1337 13.3641 964 77.7801 130.393 512.968
71 0 73.0388 13.3765 977 78.9069 130.558 511.113
72 0 77.0238 13.2816 1023 78.6686 130.842 509.109
73 0 80.0418 12.5309 1003 79.5773 130.872 508.864
74 0 81.044 13.2397 1073 79.9031 130.549 506.35
75 0 84.0524 12.9443 1088 80.1324 129.83 506.531
76 0 86.1121 13.5986 1171 79.9172 130.909 504.015
77 0 90.191 13.8706 1251 79.3693 130.396 502.091
78 1 48.1083 12.1601 585 80.4769 130.487 520.841
79 0 47.0312 11.8007 555 82.8396 130.784 520.647
80 0 49.0355 12.1545 596 81.6258 131.337 520.97
81 0 53.1074 12.9549 688 80.9593 131.821 517.911
82 0 55.0734 13.7816 759 77.5652 132.393 520.932
83 0 54.0418 12.4163 671 81.9061 132.235 517.996
84 0 57.0788 11.4053 651 83.0522 131.863 518.086
85 0 57.0659 11.6707 666 84.0375 131.88 516.393
86 0 59.0978 13.9937 827 80.0411 131.89 513.441
87 0 62.1217 13.0872 813 80.0012 131.524 514.706
88 0 63.1003 12.3613 780 82.0295 131.191 513.596
89 0 67.0777 12.1799 817 82.0282 131.88 511.864
90 0 69.0825 13.3174 920 80.0152 131.804 509.41
91 0 70.0543 11.6909 819 83.0891 131.154 509.325
92 0 75.1001 13.209 992 79.0282 132.205 508.87
93 0 76.0733 13.2635 1009 80.5064 131.995 506.533
94 0 78.1966 12.6988 993 80.9144 132.371 507.469
95 0 81.1291 12.9054 1047 80.4642 132.19 505.454
96 0 83.0552 12.269 1019 82.2846 131.612 503.451
97 0 86.19 13.1454 1133 80.2039 131.526 502.348
98 0 91.0363 15.3016 1393 76.2362 131.76 501.022
99 0 95.058 13.3287 1267 78.3039 131.679 499.996
100 1 47.0205 11.1441 524 78.7023 131.719 521.989
101 0 50.0356 12.2313 612 78.1716 131.933 518.797
102 0 49.0868 11.6325 571 79.5674 132.07 519.993
103 0 52.0306 11.3203 589 79.5501 132.226 520.375
104 0 52.0164 10.8812 566 81.3092 132.496 516.534
105 0 53.0177 11.7885 625 80.0464 131.576 517.096
106 0 54.0566 11.2105 606 82.1353 131.998 514.919
107 0 59.1226 12.6348 747 77.5703 131.102 515.293
108 0 59.036 11.8572 700 78.6929 131.234 514.826
109 0 62.0205 12.2379 759 77.8722 131.314 513.356
110 0 62.0224 12.5116 776 77.5013 131.335 512.177
111 0 64.098 11.7944 756 77.9193 131.515 512.049
112 0 66.1107 12.5698 831 76.2226 131.259 509.002
113 0 70.0165 13.5682 950 73.5253 131.667 509.437
114 0 73.0925 14.037 1026 72.7836 131.582 507.164
115 0 74.1253 11.9662 887 76.4205 131.699 505.99
116 0 78.0545 12.7731 997 74.8566 131.937 505.634
117 0 81.0844 13.9608 1132 72.6299 131.976 504.197
118 0 81.0294 12.4523 1009 75.2953 131.769 503.694
119 0 84.0565 12.3607 1039 75.1723 132.079 502.683
120 0 88.038 13.3465 1175 73.9132 131.696 499.353
121 1 44.0327 11.1735 492 72.9106 132.315 521.305
122 0 45.0359 10.2363 461 74.295 131.592 520.989
123 0 47.0878 10.937 515 72.7029 131.198 519.577
124 0 47.0585 9.98756 470 75.534 131.506 519.779
125 0 49.0919 11.509 565 73.6425 132.021 517.876
126 0 50.0773 12.6205 632 71.1899 131.668 518.934
127 0 51.0565 11.3208 578 74.2249 131.856 516.967
128 0 53.0455 11.3487 602 74.0598 131.061 515.251
129 0 55.0628 10.7695 593 74.3659 130.762 514.096
130 0 57.0808 11.948 682 71.4399 130.721 515.957
131 0 58.0531 11.8512 688 71.8183 129.837 513.507
132 0 59.037 11.9417 705 71.705 129.894 513.464
133 0 61.0763 13.6878 836 69.3768 130.394 511.547
134 0 61.0294 10.5359 643 73.4868 130.966 512.628
135 0 63.0417 10.8182 682 73.0161 131.563 509.812
136 0 66.0706 10.7763 712 72.7865 131.886 509.625
137 0 67.0201 11.7278 786 71.9873 132.064 507.709
138 0 70.0967 11.9264 836 71.0347 131.216 505.884
139 0 71.1313 11.2187 798 72.4486 130.558 506.038
140 0 74.0757 12.5412 929 71.1873 130.785 503.44
141 0 79.0679 12.8118 1013 69.3327 131.302 505.344
142 0 79.1142 12.1596 962 71.501 131.226 502.583
143 0 80.0788 13.6241 1091 69.5115 130.98 502.706
144 0 83.0377 12.0186 998 72.3206 130.824 500.473
145 0 85.152 13.6579 1163 69.859 131.017 499.469
146 0 88.0282 12.5869 1108 71.1399 131.505 498.36
147 0 90.1096 12.962 1168 70.9623 131.536 498.015
148 1 47.048 11.4564 539 68.5492 131.022 519.56
149 0 48.0347 12.9698 623 67.3676 131.538 518.713
150 0 51.0276 13.5809 693 65.9221 131.354 518.665
151 0 49.0426 10.603 520 72.0654 131.313 517.037
152 0 52.017 11.6693 607 70.1944 130.832 516.613
153 0 52.0378 12.145 632 69.4731 130.601 517.24
154 0 55.0997 12.2142 673 69.1932 131.097 515.997
155 0 54.083 11.3529 614 70.7769 131.638 514.692
156 0 59.0631 12.6644 748 68.9906 131.441 513.134
157 0 59.1478 12.4772 738 69.1653 131.004 512.749
158 0 59.0506 11.5325 681 70.7034 131.15 512.28
159 0 62.0513 12.1512 754 69.6605 131.121 512.123
160 0 64.0528 10.866 696 71.5 130.961 511.014
161 0 65.0465 12.099 787 70.1982 130.501 509.489
162 0 67.1218 11.2184 753 70.992 131.258 508.964
163 0 67.0929 11.1189 746 72.315 131.739 506.603
164 0 72.1478 11.3794 821 71.6443 131.518 505.693
165 0 74.0873 12.9307 958 69.7359 131.57 503.742
166 0 76.0546 11.7416 893 71.4457 131.925 503.772
167 0 78.0677 12.7325 994 70.3672 131.761 504.38
168 0 78.0519 11.9023 929 71.9096 132.201 503.004
169 1 43.0581 10.2884 443 70.5621 131.971 520.878
170 0 42.0166 10.591 445 72.2337 132.043 520.566
171 0 43.031 11.5266 496 71.2581 131.603 519.302
172 0 45.076 12.3791 558 70.4964 131.84 519.487
173 0 44.0788 11.0484 487 73.3388 132.041 520.374
174 0 49.0555 12.1291 595 70.995 131.921 519.032
175 0 48.0439 11.2605 541 73.1682 131.793 518.769
176 0 50.0225 11.7547 588 73.2976 132.194 517.316
177 0 49.0382 11.3177 555 74.9514 131.454 516.872
178 0 55.0635 12.2222 673 72.3804 131.84 516.236
179 0 55.183 11.9421 659 74.1047 131.502 514.568
180 0 57.096 13.2584 757 71.2325 130.909 516.476
181 0 57.058 13.162 751 73.2929 130.83 512.233
182 0 60.096 12.3968 745 73.5289 131.462 514.753
183 0 60.0796 13.066 785 74.1338 130.85 512.838
184 0 62.0649 12.9703 805 74.2857 130.159 512.728
185 0 62.1605 12.0173 747 75.17 130.295 513.66
186 0 66.1139 11.9945 793 75.8979 130.353 511.979
187 0 66.0949 12.9813 858 72.8869 129.888 513.649
188 0 69.0451 11.6156 802 76.1322 129.368 511.587
189 0 70.0923 10.5575 740 78.2203 129.169 510.158
190 0 72.0699 12.8625 927 75.3786 128.86 508.578
191 0 74.0495 12.5457 929 75.5124 128.309 508.819
192 0 77.0845 11.935 920 77.0337 128.17 507
193 0 79.0934 13.2502 1048 75.4676 128.371 507.22
194 0 80.152 13.2872 1065 75.447 128.498 505.616
195 0 82.1194 11.3859 935 78.6845 129.02 505.756
196 1 42.0345 11.7522 494 75.4413 128.322 525.119
197 0 43.0187 12.0645 519 75.6146 128.256 524.615
198 0 45.0522 11.6088 523 77.5182 127.692 523.996
199 0 45.0281 12.0813 544 76.6415 127.938 523.665
200 0 47.0502 12.3273 580 76.1207 128.334 523.772
201 0 46.0295 11.2102 516 78.7694 128.859 524.481
202 0 48.0494 10.5933 509 79.6385 128.222 525.694
203 0 50.0541 11.6474 583 77.6192 128.17 525.021
204 0 50.0241 12.7538 638 77.5909 127.627 523.299
205 0 52.017 11.3617 591 78.8917 127.641 524.404
206 0 54.0208 12.6618 684 77.0175 127.874 523.649
207 0 55.0611 11.8777 654 78.5367 128.231 523.514
208 0 59.0301 13.6879 808 74.7339 127.725 522.427
209 0 59.0534 11.9045 703 78.2162 127.728 522.856
210 0 63.0236 13.2331 834 76.1187 127.734 520.941
211 0 62.057 12.9236 802 77.5686 127.176 518.405
212 0 66.0656 14.5915 964 74.4855 126.63 517.603
213 0 68.0551 14.0915 959 74.878 127.215 518.984
214 0 68.0822 13.4396 915 77.3137 126.039 515.419
215 0 72.0562 14.1695 1021 75.6944 126.119 516.855
216 0 73.1122 14.0332 1026 76.5799 125.646 513.76
217 0 74.0418 12.2903 910 79.1648 125.789 514.688
218 0 77.0229 12.4508 959 78.2294 125.995 515.219
219 0 79.1232 13.0935 1036 77.5598 125.728 511.281
220 1 41.0718 11.8573 487 78.2772 126.413 528.324
221 0 42.0566 11.223 472 78.1547 126.648 528.83
222 0 44.048 12.2139 538 77.197 125.467 527.388
223 0 45.0684 11.9374 538 77.8643 126.468 526.214
224 0 46.1114 11.5156 531 78.2862 125.836 525.378
225 0 47.0482 12.1365 571 77.6375 125.576 523.14
226 0 47.0487 11.0311 519 78.975 125.516 524.218
227 0 50.0771 12.5407 628 76.3137 124.715 521.333
228 0 51.0941 11.5865 592 77.0862 125.181 523.333
229 0 53.0568 12.1568 645 76.1116 124.854 521.084
230 0 55.0324 12.3745 681 76.0308 125.799 520.583
231 0 55.0504 12.1162 667 75.8876 125.874 519.657
232 0 58.0436 14.179 823 73.6586 125.514 517.474
233 0 60.0368 13.042 783 74.6003 125.95 517.789
234 0 59.051 11.9727 707 77.7086 125.339 516.004
235 0 62.0377 13.5724 842 75.2957 125.988 514.001
236 0 63.0929 10.6827 674 78.5786 125.905 516.24
237 0 65.1222 12.4228 809 75.9147 126.042 513.439
238 0 67.0857 11.7462 788 77.2234 125.77 512.613
239 0 68.0192 12.2465 833 76.3541 126.514 513.574
240 0 70.095 12.0265 843 76.7485 126.648 512.324
241 0 74.0433 11.8309 876 75.7831 126.924 512.215
242 0 78.0751 12.7954 999 73.6647 126.2 510.368
243 0 78.0919 13.0487 1019 74.6683 126.439 508.01
244 1 43.0703 10.8427 467 75.045 126.685 524.57
245 0 41.0423 10.9399 449 76.539 126.147 523.942
246 0 43.0572 11.148 480 77.0833 126.212 523.477
247 0 46.0543 13.3972 617 73.5089 126.666 522.104
248 0 48.0434 11.5312 554 75.6011 127.105 524.209
249 0 48.0109 11.9764 575 74.6556 127.04 524.72
250 0 47.0275 11.7166 551 76.1343 127.082 524.254
251 0 52.0506 12.5647 654 73.9266 127.112 523.144
252 0 52.0479 12.3348 642 74.9392 127.375 521.069
253 0 52.0464 11.8356 616 76.2435 127.313 521.437
254 0 54.0731 12.1687 658 74.6702 127.614 522.038
255 0 57.1028 12.7139 726 73.6102 128.193 520.798
256 0 57.1768 12.1378 694 75.3501 127.615 519.442
257 0 61.1208 12.2544 749 74.247 127.762 518.43
258 0 62.0528 11.7481 729 74.8107 127.594 518.204
259 0 61.0589 10.9566 669 76.8879 126.942 518.697
260 0 66.1749 12.5123 828 72.651 127.008 519.924
261 0 68.1844 12.0555 822 73.2603 127.186 518.579
262 0 69.0937 12.3745 855 73.7743 127.011 514.738
263 0 71.0302 10.2632 729 76.2154 127.435 516.909
264 0 75.1052 12.5291 941 72.5058 127.134 515.505
265 0 76.0898 12.5772 957 73.5716 127.04 513.904
266 1 41.0369 11.6968 480 72.0104 126.983 530.66
267 0 41.0408 9.69767 398 75.4648 127.123 529.548
268 0 42.1437 11.6269 490 71.3041 127.137 531.684
269 0 43.0551 11.4272 492 72.9126 126.793 529.106
270 0 43.0325 9.62062 414 75.6812 126.379 528
271 0 45.0609 10.0531 453 74.7219 125.872 529.201
272 0 47.1098 12.7787 602 71.0565 126.369 527.332
273 0 49.1191 10.6069 521 74.1708 125.741 526.58
274 0 50.0382 11.2514 563 73.151 125.902 526.716
275 0 51.1094 12.2482 626 72.6054 125.829 525.847
276 0 53.0559 11.6669 619 73.3215 125.99 525.215
277 0 54.0793 11.1503 603 73.6799 125.74 526.391
278 0 57.0422 11.5003 656 73.532 125.591 524.759
279 0 57.0657 11.0049 628 74.5478 125.392 524.161
280 0 58.0873 12.6017 732 73.4604 125.967 521.963
281 0 61.0376 12.992 793 71.8588 125.75 522.497
282 0 62.058 10.3291 641 75.6505 125.633 522.817
283 0 63.024 10.6626 672 76.3676 124.993 520.445
284 0 66.0333 11.8728 784 72.8839 125.129 522.051
285 0 69.1171 11.7771 814 74.3194 124.484 516.061
286 0 71.0535 11.9065 846 73.3369 124.987 517.926
287 0 74.0385 12.8177 949 71.4015 124.94 518.154
288 0 75.111 11.3033 849 73.5383 125.165 515.266
289 1 41.0207 10.5556 433 73.4088 124.637 529.305
290 0 43.0568 11.8913 512 71 124.459 529.973
291 0 44.1702 10.3011 455 73.6835 124.778 527.921
292 0 45.0406 11.3009 509 72.7269 124.727 527.293
293 0 48.0876 12.394 596 69.5772 124.624 527.19
294 0 51.0196 11.4662 585 71.1504 125.503 524.544
295 0 51.0173 12.7996 653 69.6003 125.211 525.009
296 0 54.1905 12.3638 670 69.1478 124.61 524.578
297 0 55.0357 12.7917 704 67.8366 124.351 524.347
298 0 56.0246 13.1014 734 69.0872 125.368 520.516
299 0 57.0416 10.5011 599 72.5876 124.424 520.464
300 0 59.0241 13.774 813 67.9385 124.622 517.118
301 0 61.1309 12.2033 746 69.5684 124.776 517.787
302 0 63.0546 12.5605 792 69.399 124.427 517.409
303 0 66.0611 11.5499 763 70.0485 125.488 517.81
304 0 67.0823 12.6859 851 68.0541 124.995 516.772
305 0 67.087 12.4167 833 69.4394 124.92 514.768
306 0 71.0859 12.0558 857 70.0257 124.606 512.81
307 0 75.1461 12.0299 904 69.3982 124.475 511.531
308 0 74.0909 11.6478 863 70.2144 124.702 511.621
309 0 80.0978 12.8967 1033 68.0097 124.719 509.548
310 0 79.0789 11.8995 941 69.729 124.813 510.488
311 0 84.0352 11.4476 962 70.1237 125.096 508.668
312 1 42.0587 11.0322 464 68.9978 125.078 526.864
313 0 41.0653 10.252 421 70.5344 125.112 526.147
314 0 44.0762 10.686 471 69.9214 124.057 526.941
315 0 45.073 11.4925 518 68.4904 123.886 525.286
316 0 47.0545 12.2836 578 67.8114 124.884 522.846
317 0 49.0559 12.8017 628 67.1369 124.481 523.282
318 0 48.1323 10.949 527 70.1613 124.609 521.676
319 0 52.0557 13.3319 694 66.3285 125.548 521.697
320 0 52.0392 10.8956 567 69.97 125.534 520.187
321 0 55.1165 11.8114 651 68.3779 125.697 520.31
322 0 56.1156 11.8862 667 68.0645 125.738 520.864
323 0 57.0665 12.0035 685 67.8423 125.279 519.47
324 0 59.0098 11.9133 703 67.6743 125.455 520.279
325 0 61.1151 12.4846 763 67.1691 125.393 516.325
326 0 63.0641 13.0978 826 66.5339 124.776 515.711
327 0 64.0993 12.309 789 67.0634 123.797 516.664
328 0 65.0862 13.0289 848 66.6521 124.935 514.55
329 0 68.1151 13.2863 905 66.3116 125.118 513.552
330 0 69.0845 12.7814 883 67.1166 124.922 512.567
331 0 70.0712 12.0449 844 68.2832 125.432 511.781
332 0 73.1702 13.2431 969 66.8793 125.234 510.29
333 0 74.0607 11.9362 884 68.5894 124.698 508.62
334 0 77.0692 12.4434 959 68.1012 124.792 507.477
335 0 78.1292 9.65068 754 72.0729 124.853 508.565
336 0 81.0564 12.7812 1036 67.6969 124.702 508.208
337 0 83.0577 12.4251 1032 69.0959 124.702 504.24
338 0 86.0547 13.7471 1183 67.4582 125.043 504.9
339 1 47.1183 11.5242 543 68.4862 125.79 523.991
340 0 46.0192 11.7994 543 69.2431 124.998 523.035
341 0 48.0351 10.8462 521 72.1132 125.044 521.259
342 0 50.0184 12.1156 606 70.0611 124.724 519.545
343 0 52.0575 10.9686 571 71.6778 124.597 520.755
344 0 54.0188 11.8477 640 70.0984 125.067 518.947
345 0 56.0599 13.325 747 68.4444 125.308 519.212
346 0 59.0158 12.0646 712 70.9803 125.367 517.869
347 0 59.0399 12.9235 763 70.2425 125.671 517.721
348 0 59.037 12.4837 737 72.6187 125.731 515.695
349 0 61.0198 11.357 693 73.7215 125.341 515.898
350 0 64.1116 13.1489 843 71.2954 125.024 514.737
351 0 64.0891 12.2642 786 73.1298 125.347 515.538
352 0 68.0488 12.153 827 72.9081 125.274 512.057
353 0 70.055 12.219 856 73.0608 124.978 512.481
354 0 69.03 12.3135 850 74.2282 125.768 510.821
355 0 73.1137 12.5695 919 73.4276 124.707 510.728
356 0 75.0492 12.192 915 74.0885 124.568 509.902
357 0 78.0997 12.3432 964 75.3226 124.805 508.21
358 0 80.0801 12.7372 1020 75.249 125.452 506.62
359 0 82.0605 12.6492 1038 75.5655 126.04 504.761
360 1 40.0316 9.54247 382 77.801 125.395 527.395
361 0 42.0576 10.4143 438 78.7146 125.473 525.329
362 0 43.0145 12.4377 535 76.3813 125.168 523.74
363 0 41.0338 11.0884 455 80.2352 125.114 523.835
364 0 44.0176 13.4946 594 77.0455 125.507 522.768
365 0 47.042 11.6492 548 79.4964 125.297 522.358
366 0 46.0611 11.8538 546 79.9945 125.832 522.888
367 0 47.0464 11.1167 523 81.7839 125.266 521.595
368 0 49.0616 13.2283 649 78.7642 126.173 520.434
369 0 51.045 12.2245 624 80.1763 125.179 519.846
370 0 52.0387 12.0679 628 80.3519 125.476 519.33
371 0 54.1324 12.5988 682 79.0704 125.551 518.182
372 0 57.0741 12.6853 724 78.3204 125.117 519.227
373 0 58.0341 12.3031 714 79.1331 125.483 518.179
374 0 59.0473 12.0243 710 80.3493 125.034 517.135
375 0 60.0198 11.1963 672 81 125.384 517.61
376 0 61.0651 12.8879 787 78.094 125.898 516.759
377 0 63.0425 10.3105 650 82.3354 126.006 514.143
378 0 66.0793 11.8191 781 80.2906 125.666 513.574
379 0 66.0792 11.4559 757 80.9445 125.63 513.849
380 0 69.0894 13.2292 914 77.8217 124.701 511.176
381 0 70.0653 12.4884 875 79.6389 124.879 509.121
382 0 72.129 11.2437 811 81.3835 124.536 507.612
383 0 75.115 11.3426 852 80.973 124.914 507.326
384 0 76.2194 10.4173 794 82.7053 124.668 504.287
385 0 79.0802 10.7739 852 82.2336 124.329 502.734
386 0 85.0511 12.7335 1083 77.1524 124.657 507.45
387 0 85.094 11.9515 1017 79.0462 124.912 506.806
388 0 90.1086 13.4615 1213 76.4254 124.919 505.614
389 0 91.1115 12.7317 1160 77.6922 124.732 504.28
390 0 93.1005 12.4597 1160 78.8931 124.722 499.984
391 0 98.2913 12.931 1271 77.2943 123.841 500.1
392 0 100.067 13.9107 1392 76.2184 124.754 498.96
393 0 102.056 13.5219 1380 76.5572 125.243 498.549
394 0 106.121 12.9475 1374 77.6579 125.381 496.119
395 1 55.0603 11.6963 644 77.1848 124.87 520.784
396 0 56.1455 11.4524 643 77.7994 124.933 521.412
397 0 58.1017 11.4454 665 78.3098 125.111 519.983
398 0 62.0947 12.5937 782 76.1304 125.362 519.325
399 0 62.1103 12.7676 793 76.5649 125.072 517.093
400 0 63.0474 11.8641 748 77.9211 125.683 515.85
401 0 64.1325 10.4783 672 78.878 125.643 517.821
402 0 66.0251 11.2382 742 78.1806 125.677 516.383
403 0 71.0378 12.613 896 75.183 125.636 515.08
404 0 73.1092 13.0763 956 75.0335 124.981 513.607
405 0 77.0731 12.5855 970 75.0845 125.009 512.688
406 0 78.1416 13.7443 1074 73.7318 125.301 511.331
407 0 78.1264 12.275 959 76.2868 125.508 512.069
408 0 81.0968 12.7872 1037 75.2845 125.915 509.842
409 0 84.1433 11.8845 1000 76.942 125.914 508.186
410 0 88.0771 12.069 1063 76.6999 125.408 505.862
411 0 91.0666 12.9356 1178 74.8523 125.564 506.25
412 1 46.0469 10.359 477 77.1111 125.325 524.411
413 0 46.0267 11.7106 539 75.9369 125.625 523.768
414 0 49.0479 12.2533 601 74.5774 125.384 522.885
415 0 50.0239 12.9338 647 72.7048 125.38 523.411
416 0 51.0321 10.2093 521 77.4069 125.102 523.562
417 0 53.0816 12.3395 655 74.1298 125.569 519.988
418 0 54.0494 11.915 644 75.2795 125.228 520.138
419 0 57.0845 11.4917 656 74.6021 125.398 520.982
420 0 58.0968 12.8234 745 72.4268 125.075 520.207
421 0 60.101 12.9449 778 73.1594 125.527 517.282
422 0 61.0773 11.2317 686 75.0568 125.238 518.15
423 0 64.0672 13.2361 848 71.3986 125.387 516.475
424 0 64.0744 11.0965 711 74.9705 125.139 516.515
425 0 69.1704 12.303 851 72.1304 124.571 514.268
426 0 70.0632 12.503 876 72.3345 125.17 513.089
427 0 72.0471 12.6306 910 72.5703 125.684 511.127
428 0 72.1365 11.7139 845 74.0047 125.451 512.233
429 0 78.0607 12.9258 1009 71.0634 126.138 510.315
430 0 79.1192 10.895 862 74.471 126.143 509.912
431 0 82.1943 12.0933 994 72.9276 126.449 507.95
432 0 84.1182 11.2699 948 73.8492 125.523 507.944
433 0 86.1286 11.0881 955 74.5016 125.641 506.038
434 0 89.189 13.3088 1187 71.6015 125.701 503.979
435 0 91.1675 12.0767 1101 74.0718 125.338 501.813
436 1 50.0532 11.9473 598 70.6973 125.169 522.868
437 0 51.0741 10.8078 552 71.9746 126.033 524.748
438 0 51.0415 9.36494 478 76.0837 125.998 522.481
439 0 54.0494 12.4516 673 71.2571 125.431 520.198
440 0 55.0438 11.7725 648 72.284 125.128 520.796
441 0 58.084 12.7574 741 70.3846 124.47 520.194
442 0 59.0965 12.7588 754 71.0292 124.164 519.731
443 0 61.1343 12.5134 765 70.6889 124.527 520.307
444 0 62.0821 11.3559 705 73.3986 124.199 516.862
445 0 65.0267 11.1954 728 72.5934 124.375 517.809
446 0 66.0334 12.8723 850 70.2141 124.592 517.011
447 0 68.1163 13.4623 917 69.5965 124.735 515.324
448 0 70.2133 11.6075 815 72.5804 124.46 515.26
449 0 73.1131 12.1456 888 71.4043 125.323 513.414
450 0 76.14 12.9104 983 69.9766 125.356 511.269
451 1 149.203 13.867 2069 71.2199 124.561 476.534
452 1 78.1013 12.2149 954 71.5723 124.403 510.206
453 0 81.0493 11.1907 907 72.3749 124.431 510.14
454 0 85.1066 12.7722 1087 69.5225 124.686 509.048
455 0 88.2153 13.331 1176 68.2747 123.804 507.974
456 0 88.1175 12.8124 1129 70.4074 124.338 504.058
457 1 44.0846 9.20957 406 71.7734 124.655 524.943
458 0 47.1349 10.1199 477 70.4675 124.656 523.639
459 0 46.0443 10.7505 495 71.2586 124.598 522.709
460 0 49.0419 11.9694 587 69.8279 124.879 519.879
461 0 52.0231 11.3219 589 69.5688 125.051 521.805
462 0 53.0618 10.4972 557 71.3501 124.607 521.461
463 0 55.0958 12.5055 689 68.4659 124.875 520.576
464 0 55.0625 10.6606 587 70.9097 124.792 521.054
465 0 56.097 12.4427 698 68.5086 125.277 519.564
466 0 56.0312 10.3692 581 71.5921 124.783 518.613
467 0 59.0902 13.0986 774 67.6886 124.637 517.95
468 0 58.1211 10.2372 595 72.0487 124.279 517.743
469 0 63.1597 11.4472 723 69.6971 124.224 516.111
470 0 64.1643 10.8472 696 71.0402 124.295 512.973
471 0 69.0333 12.5447 866 67.9018 124.497 513.15
472 0 68.1912 11.6877 797 68.9548 124.269 513.639
473 0 70.0875 13.1978 925 67.2303 125.053 512.906
474 0 71.0643 12.0032 853 69.1841 124.72 511.529
475 0 74.1068 13.3321 988 67.1781 124.325 510.269
476 0 77.0418 13.6549 1052 66.2215 124.34 510.05
477 0 79.128 11.8668 939 69.0884 124.674 507.728
478 0 80.1472 11.7659 943 69.4316 124.257 509.441
479 0 81.2269 11.3632 923 69.5504 124.554 508.066
480 0 87.0732 13.1499 1145 66.5537 124.19 509.055
481 1 43.0176 8.3919 361 72.6066 124.391 526.355
482 0 44.0768 12.4102 547 67.883 124.501 525.786
483 0 46.0546 11.0955 511 68.5499 124.783 526.121
484 0 47.0456 12.4985 588 67.9235 124.815 523.301
485 0 49.0467 11.6012 569 69.8752 124.656 523.601
486 0 52.0657 12.3306 642 68.6978 124.626 522.12
487 0 54.0709 12.3356 667 68.5262 124.322 522.912
488 0 55.0327 12.7015 699 69.2275 123.999 520.004
489 0 55.0531 11.28 621 71.2432 124.844 521.103
490 0 56.0375 12.7593 715 69.6168 123.786 518.744
491 0 60.0463 14.3889 864 66.9201 123.966 518.613
492 0 62.0624 12.8097 795 69.3019 124.026 519.137
493 0 61.0395 12.5656 767 70.8931 124.771 516.296
494 0 62.087 13.9804 868 68.53 124.043 517.9
495 0 64.0979 11.9037 763 71.6239 124.244 516.341
496 0 65.0309 12.8862 838 70.5525 123.967 515.881
497 0 69.1056 12.9657 896 69.2511 124.309 515.753
498 0 71.0363 14.0914 1001 67.4995 124.515 516.006
499 0 74.1542 14.2136 1054 67.871 123.637 512.442
500 0 74.1848 14.4774 1074 68.2998 123.849 509.068
501 0 77.1736 12.4524 961 70.1769 123.219 512.25
502 0 79.0523 12.7004 1004 70.1962 123.473 510.886
503 0 80.085 12.3494 989 70.997 123.849 511.107
504 0 84.3288 13.3999 1130 69.3 123.792 508.499
505 0 85.0857 13.0222 1108 69.8818 124.055 509.022
506 0 88.096 12.8496 1132 71.0495 124.005 505.116
507 0 92.1027 13.3547 1230 70.3366 123.597 503.719
508 0 95.0581 12.8763 1224 71.2647 122.766 503.026
509 1 52.049 13.103 682 70.6701 123.441 521.974
510 0 55.0575 13.495 743 70.4899 123.808 521.58
511 0 52.1855 9.98362 521 76.3973 123.689 524.132
512 0 57.0739 14.7878 844 69.436 123.566 520.848
513 0 60.0455 13.7396 825 70.9903 123.89 520.966
514 0 59.1477 13.8467 819 71.4738 123.6 521.199
515 0 60.0925 11.8817 714 74.8221 124.241 519
516 0 62.1749 12.497 777 73.529 124.263 518.732
517 0 65.0636 14.4013 937 70.7332 124.295 517.438
518 0 68.0303 14.8757 1012 70.1245 123.518 517.77
519 0 69.0541 12.9464 894 73.2707 124.499 516.226
520 0 69.0444 13.0351 900 73.7567 124.142 513.45
521 0 72.0695 14.8607 1071 71.0364 124.391 512.179
522 0 76.0491 14.1882 1079 71.5144 124.399 512.836
523 0 79.1544 14.377 1138 71.312 124.318 510.75
524 0 81.1262 14.2247 1154 70.9991 124.629 511.328
525 0 83.1235 13.5461 1126 72.0826 124.432 509.115
526 0 84.1105 13.399 1127 73.3035 124.167 506.785
527 0 87.0749 13.1266 1143 72.9912 123.274 506.242
528 0 89.1233 12.522 1116 74.759 123.563 503.553
529 0 95.1334 12.1303 1154 74.3926 123.831 504.339
530 1 50.0515 12.1675 609 72.9984 124.32 523.929
531 0 51.0437 12.3816 632 72.6377 124.801 524.745
532 0 52.0652 12.7916 666 72.2478 124.263 522.913
533 0 54.0239 13.1609 711 71.8847 124.134 522.07
534 0 53.0592 12.4578 661 73.5976 124.021 518.942
535 0 54.1539 12.4829 676 74.8831 123.763 519.25
536 0 57.1267 11.4482 654 75.4495 123.92 520.801
537 0 58.062 11.2294 652 74.9693 124.169 520.052
538 0 59.0424 12.7705 754 73.3077 124.069 516.871
539 0 65.1126 12.8086 834 71.5671 123.706 518.386
540 0 65.2399 12.8909 841 71.2675 123.288 517.894
541 0 66.1197 11.706 774 73.2326 123.274 517.466
542 0 69.3031 12.6978 880 71.9614 123.376 515.36
543 0 72.0458 12.5615 905 71.5878 123.009 515.601
544 0 71.0835 12.1969 867 72.8328 123.182 514.103
545 0 75.0544 12.431 933 71.926 123.401 513.213
546 0 77.1035 12.2952 948 73.2648 123.259 510.56
547 0 80.1651 12.2372 981 71.7227 123.25 514.3
548 0 78.0308 11.3032 882 73.8855 123.061 512.248
549 0 83.2092 12.2943 1023 73.8133 122.945 506.515
550 0 89.1302 13.2952 1185 71.1713 123.475 507.768
551 0 90.1936 13.4156 1210 71.8777 123.457 507.302
552 0 92.1778 13.0726 1205 72.3494 123.001 507.033
553 0 96.0924 11.0935 1066 74.7083 123.212 506.182
554 1 51.1235 11.3451 580 73.3466 123.688 526.045
555 0 50.055 11.5673 579 74.2003 123.855 525.021
556 0 52.0604 12.1782 634 74.1467 123.513 522.166
557 0 52.0693 11.3503 591 74.2504 123.785 523.849
558 0 56.0307 11.8328 663 74.7798 123.1 520.602
559 0 55.1311 12.2435 675 75.4118 123.105 519.296
560 0 60.1129 12.2436 736 74.303 123.655 520.439
561 0 61.0737 13.9504 852 72.385 122.218 521.133
562 0 64.2391 12.936 831 74.3141 122.563 518.99
563 0 65.0949 14.1639 922 74.2451 122.652 516.31
564 0 68.1333 13.6791 932 74.8648 122.732 517.82
565 0 72.055 11.0749 798 77.6717 122.558 515.388
566 0 74.1792 11.8092 876 77.645 123.567 514.174
567 0 74.0852 13.363 990 75.4939 123.504 515.484
568 0 75.1066 11.8365 889 78.613 122.975 515.952
569 0 78.1409 13.4757 1053 76.1652 122.972 514.084
570 0 82.0865 14.1923 1165 76.794 123.276 509.99
571 0 83.0827 14.2268 1182 77.599 123.113 510.573
572 0 82.2727 12.5072 1029 80.7697 123.591 510.992
573 0 87.0788 13.1949 1149 78.8686 123.595 512.148
574 1 45.1297 12.0763 545 81.0422 123.881 529.035
575 0 44.0527 13.7109 604 80.8659 123.326 526.52
576 0 47.0223 13.0789 615 80.8878 122.914 527.265
577 0 48.0197 15.098 725 76.6097 122.594 527.668
578 0 50.0664 14.5407 728 78.5563 123.915 525.004
579 0 50.0318 11.8924 595 81.8454 124.047 526.353
580 0 53.1286 12.9874 690 79.8449 124.6 525.6
581 0 54.06 13.7255 742 79.0997 124.385 525.132
582 0 57.1426 13.9651 798 78.1216 125.239 524.843
583 0 57.106 13.3961 765 80.2471 125.178 523.563
584 0 58.1602 13.4112 780 81.9487 124.99 520.546
585 0 59.0748 13.7453 812 80.883 124.713 521.602
586 0 61.1327 14.7221 900 80.1489 124.506 519.18
587 0 65.0598 13.2494 862 82.529 124.202 518.763
588 0 64.0659 12.3154 789 84.7148 123.919 517.991
589 0 68.0551 13.0336 887 83.531 123.975 517.735
590 0 65.0228 12.5341 815 85.6663 124.063 516.779
591 0 73.0525 13.9762 1021 81.8746 123.327 516.069
592 0 75.1177 13.7384 1032 83.3566 123.854 512.564
593 0 78.1045 12.8546 1004 84.3028 123.714 513.233
594 0 77.1886 12.4241 959 85.6507 123.641 513.485
595 0 81.1827 14.3873 1168 83.4289 123.757 510.085
596 0 83.1724 13.8267 1150 83.5591 124.055 509.281
597 0 85.1827 14.2752 1216 83.7434 123.992 506.248
598 0 88.1074 14.2894 1259 83.3654 124.572 506.491
599 0 89.0822 13.7962 1229 84.729 124.552 507.212
600 0 91.143 14.4498 1317 83.6325 124.936 507.34
601 1 47.1469 12.2808 579 85.9344 123.622 526.829
602 0 48.084 13.1852 634 85.5962 124.174 526.839
603 0 50.02 13.4746 674 84.5742 124.515 525.574
604 0 51.0991 13.8946 710 84.4859 124.463 523.373
605 0 53.0928 13.1656 699 86.731 124.419 523.401
606 0 53.0565 13.7589 730 85.8151 124.977 520.823
607 0 56.1939 13.311 748 85.119 124.937 522.453
608 0 58.0717 14.0172 814 83.9116 125.052 521.297
609 0 58.109 14.0426 816 84.8137 124.483 518.6
610 0 62.0889 13.5451 841 84.9762 124.614 520.711
611 0 62.0476 13.8765 861 85.2427 124.901 519.394
612 0 64.1312 13.0202 835 86.4922 124.631 519.81
613 0 68.0543 14.4737 985 84.1005 124.078 515.512
614 0 68.0455 12.8443 874 87.2037 124.352 515.97
615 0 72.1313 14.4875 1045 84.7187 124.676 514.263
616 0 74.0759 14.9036 1104 84.2917 124.543 513.266
617 0 77.1612 14.528 1121 84.2765 124.635 513.554
618 0 78.0385 13.2627 1035 87.772 124.014 511.162
619 0 80.1151 12.8815 1032 88.6269 123.839 509.508
620 0 83.0942 13.8758 1153 87.1032 123.736 509.128
621 0 85.0648 14.0129 1192 86.724 123.673 508.309
622 0 88.0566 13.5595 1194 87.5226 124.04 506.459
623 1 46.047 12.4872 575 89.1791 123.718 526.016
624 0 48.0626 13.5032 649 87.1726 124.243 524.977
625 0 49.0572 12.3937 608 90.1875 124.174 525.081
626 0 52.0419 13.8542 721 85.9057 124.157 524.074
627 0 52.1652 14.5116 757 85.8705 123.641 522.745
628 0 52.0507 13.045 679 89.2003 123.984 522.997
629 0 55.1054 14.4088 794 85.738 123.69 520.242
630 0 56.1159 13.8998 780 86.4949 123.897 520.762
631 0 59.1766 13.823 818 85.846 123.936 521.039
632 0 60.1065 12.9104 776 88.3466 123.903 518.233
633 0 63.217 12.7814 808 88.2129 124.512 517.463
634 0 65.0815 14.382 936 85.8771 124.101 516.267
635 0 66.1271 13.716 907 85.7508 123.806 516.399
636 0 70.1377 14.0723 987 84.2594 123.972 515.771
637 0 72.1882 14.102 1018 84.1562 122.901 512.716
638 0 75.125 13.3644 1004 84.1295 123.688 514.51
639 0 75.1598 14.0634 1057 84.1334 123.794 510.702
640 0 78.155 14.1386 1105 83.8679 123.7 508.489
641 0 80.2138 13.464 1080 84.3037 123.942 509.292
642 0 86.1542 12.7214 1096 85.2628 124.041 506.755
643 0 86.0742 13.6975 1179 84.1111 123.868 503.11
644 1 40.0355 10.7155 429 87.7086 123.921 525.312
645 0 43.0243 13.597 585 81.9197 124.562 525.251
646 0 45.0959 12.8393 579 82.8186 123.584 525.097
647 0 44.1804 12.0415 532 84.7462 124.278 524.645
648 0 49.1496 13.3063 654 80.4419 124.587 524.792
649 0 48.1666 12.8305 618 82.4773 124.003 522.793
650 0 49.0751 13.999 687 81.1543 124.055 521.397
651 0 49.1228 12.1125 595 83.6286 124.597 523.303
652 0 52.2218 14.0937 736 80.5639 124.039 520.238
653 0 56.0926 14.4939 813 77.9619 124.081 520.228
654 0 56.1238 12.9713 728 80.5865 123.552 520.764
655 0 58.0761 12.9313 751 81.0732 123.222 518.234
656 0 60.2088 13.9681 841 78.9667 123.694 517.659
657 0 63.1106 12.5969 795 80.2792 124.409 518.758
658 0 64.0773 13.4057 859 79.8079 124.296 516.386
659 0 66.153 13.6653 904 78.9071 123.66 515.691
660 0 69.1069 13.9205 962 79.3836 123.994 512.611
661 0 71.044 13.1608 935 80.0139 124.071 513.676
662 0 71.2176 13.1288 935 80.2524 123.297 513.791
663 0 74.1154 14.8687 1102 78.2858 123.793 510.735
664 0 75.1586 12.2807 923 83.0379 123.193 511.574
665 0 76.1725 12.1435 925 82.9254 124.034 510.955
666 0 80.1374 13.5393 1085 80.3097 123.754 509.122
667 0 83.0536 13.1963 1096 80.7235 123.148 509.459
668 1 41.0935 13.3841 550 79.48 123.933 527.651
669 0 41.2068 11.6728 481 81.4615 123.561 528.584
670 0 43.0731 12.9083 556 81.1619 124.401 526.031
671 0 45.0689 13.3573 602 79.1877 124.322 526.575
672 0 45.2988 12.2961 557 81.4614 124.415 524.986
673 0 47.0699 12.3221 580 81.7879 124.364 523.052
674 0 47.0378 12.2029 574 81.6324 123.81 524.697
675 0 49.1024 13.7672 676 78.287 124.345 524.459
676 0 51.1056 13.3254 681 80.0573 124.156 521.511
677 0 51.0772 11.9623 611 82.3126 125.047 522.288
678 0 55.067 12.8934 710 79.0704 124.889 523.058
679 0 56.0971 13.1201 736 80.1182 124.549 521.264
680 0 57.0884 13.2251 755 80.4159 124.135 519.47
681 0 61.146 13.1325 803 80.4496 124.969 518.547
682 0 62.0946 13.2218 821 80.6906 124.709 518.147
683 0 63.1863 14.1328 893 79.084 125.265 517.897
684 0 65.066 13.3249 867 81.3956 124.15 515.776
685 0 69.4134 13.9166 966 79.9379 124.213 514.914
686 0 70.1438 14.4132 1011 79.4857 124.595 513.996
687 0 73.1381 12.9071 944 82.1112 124.913 514.012
688 0 74.1232 13.599 1008 81.6577 124.688 512.829
689 0 75.0972 12.3973 931 84.0881 125.135 513.707
690 0 79.0985 13.3757 1058 82.0378 125.08 511.524
691 1 40.1836 12.6917 510 83.2529 125.096 528.333
692 0 40.0909 13.6191 546 82.3919 125.119 528.429
693 0 42.1335 13.9556 588 80.1701 124.571 528.588
694 0 43.1809 14.7519 637 77.9419 125.02 528.568
695 0 43.1138 12.2003 526 82.9468 124.639 526.994
696 0 46.1278 13.4626 621 80.3881 124.063 527.797
697 0 47.048 13.7306 646 81.0139 124.901 525.303
698 0 49.1032 14.3982 707 79.6054 124.764 523.774
699 0 49.045 13.0696 641 81.4056 124.867 524.442
700 0 51.1465 13.2365 677 80.966 124.115 522.377
701 0 54.0658 14.1864 767 78.794 124.43 522.703
702 0 54.0686 13.3164 720 81.3181 124.578 520.185
703 0 58.1386 12.2122 710 81.9606 123.569 520.842
704 0 58.1411 13.8456 805 79.9155 123.384 518.708
705 0 60.288 13.4521 811 79.4303 123.735 520.302
706 0 61.1216 12.9087 789 81.4601 123.739 517.452
707 0 65.0801 13.5986 885 79.0859 124.103 518.443
708 0 65.194 12.8233 836 81.7428 124.432 515.696
709 0 68.1966 14.0476 958 77.524 124.776 516.243
710 0 72.1703 14.2857 1031 77.1445 123.951 515.344
711 0 74.0909 13.0245 965 80.0964 124.305 513.05
712 1 37.1073 11.4533 425 83.2071 123.866 528.252
713 0 40.1703 11.9989 482 81.3195 124.517 527.703
714 0 42.0824 12.0003 505 80.804 123.457 527.461
715 0 44.1254 12.3058 543 79.1823 124.171 528.142
716 0 43.1257 13.3563 576 79.4583 124.576 526.389
717 0 45.1489 12.5585 567 80.0653 123.917 527.171
718 0 48.1126 13.8633 667 77.1559 124.142 525.376
719 0 47.184 12.589 594 79.4882 124.379 526.187
720 0 51.1145 11.8557 606 79.5248 124.394 524.934
721 0 52.188 12.5316 654 78.8532 123.781 523.596
722 0 54.1958 13.3959 726 76.8884 123.95 523.665
723 0 56.1719 12.533 704 78.2074 123.685 520.777
724 0 56.0679 13.7155 769 76.4382 123.581 519.739
725 0 59.1653 12.4397 736 77.3492 123.658 519.918
726 0 58.1581 13.0162 757 76.959 124.129 520.758
727 0 63.2504 12.9011 816 76.3995 124.104 518.729
728 0 64.1381 13.2527 850 75.8529 123.751 516.074
729 0 64.0715 12.5485 804 77.4167 124.05 514.499
730 0 69.1487 12.8708 890 75.3382 124.18 516.894
731 0 71.1111 12.6141 897 76.1137 124.097 513.916
732 0 74.0872 12.7282 943 75.017 124.486 515.925
733 0 76.2237 12.6863 967 75.485 124.148 513.592
734 0 75.2405 11.9484 899 77.1891 123.68 513.001
735 1 42.124 12.7956 539 73.2968 123.931 529.382
736 0 44.2184 13.8856 614 71.6238 124.267 528.5
737 0 43.1248 12.9392 558 74.4642 123.977 526.491
738 0 45.1344 13.2493 598 73.3395 124.503 525.323
739 0 46.0997 12.3428 569 74.3603 124.779 526.281
740 0 49.0299 14.1342 693 70.1833 125.215 527.013
741 0 48.1042 13.4292 646 72.0898 124.653 525.48
742 0 50.1682 12.478 626 73.5783 124.123 522.995
743 0 53.0765 13.7161 728 71 124.527 522.239
744 0 55.0959 13.1407 724 71.058 123.36 522.409
745 0 56.1481 13.8206 776 70.8106 123.767 520.57
746 0 59.0399 13.6518 806 70.428 124.272 519.862
747 0 59.2756 13.53 802 71.3815 124.434 518.545
748 0 60.1658 11.4184 687 74.3348 124.559 517.959
749 0 63.1773 13.5175 854 71.3759 124.877 518.868
750 0 65.151 14.1671 923 70.2925 124.195 517.215
751 0 70.1226 14.3035 1003 68.9731 124.803 516.292
752 0 70.2049 13.0333 915 71.1967 123.752 517.021
753 0 71.1756 12.996 925 72.0238 124.076 514.132
754 0 76.2423 13.6145 1038 70.527 123.774 513.446
755 0 77.3164 12.4941 966 72.205 124.076 512.281
756 0 78.2035 12.3012 962 72.0281 123.943 512.491
757 0 79.1196 12.0198 951 73.6162 123.531 505.924
758 1 43.0716 10.9353 471 72.7622 123.875 527.932
759 0 46.1056 11.4954 530 71.0377 123.572 527.319
760 0 45.115 11.6591 526 73.4867 123.006 524.139
761 0 45.0885 11.5329 520 73.6673 123.498 525.894
762 0 50.0927 12.8562 644 71.2531 124.491 524.234
763 0 50.1706 12.3578 620 72.1903 124.503 524.102
764 0 53.1284 13.3827 711 70.0717 124.399 522.519
765 0 54.1453 13.1867 714 70.7115 123.969 522.004
766 0 55.1704 12.5792 694 71.719 123.882 520.052
767 0 59.0999 14.2471 842 68.0428 123.884 520.575
768 0 58.3217 12.2767 716 71.8422 123.878 518.682
769 0 61.139 13.2321 809 70.0012 124.084 517.885
770 0 63.1896 12.1697 769 70.7919 124.094 516.589
771 0 65.1868 11.9809 781 70.5275 124.77 517.851
772 0 68.1228 13.8867 946 68.2389 124.216 513.923
773 0 70.0967 12.283 861 69.8664 124.112 514.931
774 0 71.0996 12.2504 871 70.3766 123.51 513.147
775 0 76.3361 11.1612 852 70.1408 123.583 514.14
776 0 77.1192 13.7968 1064 66.6607 124.02 512.461
777 0 79.1951 13.2331 1048 68.1956 123.618 507.746
778 0 83.1264 12.3066 1023 68.2542 124.401 510.048
779 0 85.2059 12.1353 1034 69.0019 124.173 505.911
780 1 46.1433 10.5107 485 69.4825 124.029 526.555
781 0 46.0908 11.5424 532 69.1635 123.816 524.414
782 0 50.1142 12.5314 628 66.5621 123.646 525.089
783 0 51.0568 12.0062 613 67.6264 124.284 523.654
784 0 51.0656 12.5525 641 66.8424 124.17 524.267
785 0 55.0664 11.9674 659 66.5539 124.384 523.728
786 0 53.0336 12.6335 670 66.9955 124.443 520.115
787 0 57.1156 12.4835 713 66.3548 124.07 520.425
788 0 57.1112 12.8696 735 66.3224 124.003 519.026
789 0 60.1435 11.9547 719 67.089 123.348 519.412
790 0 62.0403 11.8633 736 67.4538 122.758 517.925
791 0 64.0936 13.4023 859 65.638 123.377 513.495
792 0 66.0402 11.6596 770 67.4922 122.953 513.023
793 0 69.155 12.4069 858 66.8974 123.374 510.936
794 0 71.0584 13.8759 986 64.8408 124.05 511.596
795 0 72.0936 11.5822 835 68.3186 124.032 512.471
796 0 74.0559 11.1537 826 69.2518 123.72 508.923
797 0 77.0953 10.8826 839 69.3087 123.657 510.173
798 0 81.0872 13.5286 1097 66.1048 123.754 507.108
799 0 83.1126 12.7778 1062 67.3701 123.803 506.995
800 0 87.1083 12.1228 1056 68.0871 124.136 505.242
801 0 89.1192 11.9278 1063 68.9878 123.495 502.719
802 1 48.1526 10.8613 523 69.0402 123.885 523.958
803 0 49.076 11.8999 584 68.5325 123.589 523.144
804 0 49.0374 12.7862 627 67.8565 123.541 522.565
805 0 53.2106 11.6706 621 68.8019 123.733 523.291
806 0 53.1095 12.1447 645 69.369 123.656 522.251
807 0 55.1212 13.7515 758 66.5594 123.447 521.346
808 0 58.0608 12.7797 742 68.2709 123.505 519.132
809 0 57.0158 13.2069 753 68.3001 123.641 518.564
810 0 60.1466 11.9375 718 69.0738 123.259 517.241
811 0 61.1399 12.0052 734 69.1676 123.702 517.808
812 0 62.076 12.9519 804 67.648 124.6 517.806
813 0 66.1499 13.0008 860 67.193 124.283 515.822
814 0 71.1131 13.2184 940 66.6053 123.985 515.333
815 0 72.133 13.1978 952 67.2111 123.506 512.971
816 0 73.1647 11.7543 860 69.507 123.88 513.743
817 0 73.1065 12.7075 929 69.1173 124.076 508.399
818 0 78.1546 13.4477 1051 67.4072 124.131 511.6
819 0 79.1602 12.9484 1025 67.7834 124.116 510.158
820 0 82.2095 12.0789 993 69.5267 124.146 509.24
821 0 86.1261 13.0739 1126 68.4343 124.332 505.813
822 0 87.0494 11.6256 1012 70.8122 123.873 504.392
823 1 47.0246 12.2276 575 68.0956 122.936 522.8
824 0 49.0763 12.4704 612 67.7402 123.208 524.307
825 0 51.0403 12.1864 622 67.5595 123.338 523.974
826 0 51.0379 12.383 632 68.3006 123.546 520.688
827 0 53.0263 11.3906 604 69.4371 123.993 522.212
828 0 54.0413 10.788 583 69.6209 124.166 522.112
829 0 57.1235 12.4642 712 67.7205 124.065 519.899
830 0 60.0355 13.7419 825 65.7067 124.411 519.39
831 0 59.0643 9.7013 573 71.8586 123.853 516.665
832 0 63.0764 13.0001 820 67.0037 123.879 516.66
833 0 64.051 12.412 795 68.244 124.253 515.206
834 0 65.1861 12.6101 822 68.0389 124.322 514.607
835 0 68.0728 12.1047 824 68.4891 124.233 514.661
836 0 68.0488 11.3742 774 70.0465 124.056 513.156
837 0 73.0746 13.4246 981 66.5342 124.431 512.085
838 0 75.2081 12.4986 940 68.4383 124.359 509.387
839 0 79.0372 12.336 975 68.241 124.323 509.055
840 0 81.1914 12.8462 1043 67.5657 124.442 507.538
841 0 81.1599 11.7176 951 69.5163 124.147 507.083
842 1 42.0484 10.036 422 69.9242 124.82 526.057
843 0 46.0911 10.6311 490 69.2898 124.973 524.435
844 0 46.0708 11.6777 538 67.6115 125.279 525.991
845 0 49.1401 11.6605 573 67.8482 124.583 523.059
846 0 49.0639 13.085 642 64.9595 124.548 523.176
847 0 53.1018 12.3725 657 67.0274 125.239 521.247
848 0 52.1442 11.6791 609 68.2168 124.624 523.284
849 0 54.0402 11.9911 648 67.8935 124.625 521.784
850 0 57.0791 13.7529 785 65.2089 124.596 519.499
851 0 58.1555 11.7616 684 67.7866 124.784 521.257
852 0 58.0809 12.1038 703 68.1351 124.341 518.519
853 0 61.2329 12.7219 779 67.4198 124.802 516.651
854 0 62.1133 12.2518 761 68.0263 124.548 517.555
855 0 66.1246 14.0341 928 64.8481 124.314 517.524
856 0 66.1972 11.9643 792 68.3712 124.615 514.742
857 0 67.1533 12.7172 854 67.6546 124.199 512.809
858 0 70.043 12.1354 850 68.8259 124.371 512.161
859 0 73.0798 12.7532 932 67.5676 124.71 510.14
860 0 75.1899 13.1135 986 67.5193 123.895 508.946
861 0 77.1123 12.3845 955 69.3822 124.557 511.965
862 0 78.1542 12.4114 970 70.5959 124.488 506.136
863 0 82.0907 13.2902 1091 68.5793 123.081 508.352
864 1 42.182 10.7155 452 69.2965 123.619 527.88
865 0 44.139 11.5771 511 69.1272 123.802 524.916
866 0 42.056 11.6273 489 69.8814 123.857 522.928
867 0 48.1073 11.5159 554 67.8574 123.886 525.106
868 0 49.1338 14.2264 699 64.9342 124.927 524.149
869 0 49.2121 12.6188 621 68.0596 123.994 522.998
870 0 51.0906 12.6246 645 67.5798 123.442 521.896
871 0 51.2301 11.8095 605 69.314 123.552 521.6
872 0 52.1214 10.8784 567 71.2399 123.764 519.658
873 0 56.0913 13.8881 779 65.887 124.063 520.426
874 0 57.0882 12.0866 690 68.3333 123.686 520.207
875 0 58.183 11.7216 682 68.9282 123.424 518.339
876 0 61.1833 13.1572 805 66.3478 123.965 519.661
877 0 63.0508 13.0847 825 66.84 124.556 515.313
878 0 65.1592 12.5999 821 67.0292 123.75 515.831
879 0 67.2218 13.3736 899 65.4638 123.967 517.628
880 0 67.0764 11.39 764 69.1034 124.178 514.279
881 0 70.1055 13.4369 942 66.1444 124.137 512.933
882 0 72.1069 13.4939 973 66.5581 124.045 512.042
883 0 75.062 13.4289 1008 66.2192 124.453 511.393
884 0 76.0605 12.5032 951 67.939 124.044 508.003
885 0 80.1341 14.1638 1135 64.541 124.264 510.264
886 1 43.0772 11.9785 516 66.1608 123.665 527.357
887 0 44.1778 10.9557 484 67.2376 124.527 527.882
888 0 43.066 10.9599 472 69.5636 124.464 525.875
889 0 46.2212 12.7431 589 66.3192 124.543 525.024
890 0 48.0742 12.9591 623 65.0578 124.252 525.331
891 0 46.1389 11.5087 531 69.5443 124.373 522.932
892 0 48.1104 12.2843 591 68.1117 124.756 520.721
893 0 53.1439 11.8358 629 67.1908 124.258 523.051
894 0 54.1113 11.6981 633 68.1311 123.826 520.248
895 0 56.0817 11.8042 662 66.7825 122.974 520.381
896 0 56.1274 12.917 725 66.6676 123.527 516.255
897 0 60.2569 11.3016 681 67.7063 123.68 517.793
898 0 59.1853 12.2159 723 67.9792 123.638 516.292
899 0 62.1703 11.4363 711 69.0183 124.006 516.387
900 0 64.1253 13.5984 872 65.8177 124.245 515.493
901 0 66.1598 13.3616 884 65.9152 123.951 517.11
902 0 67.2188 11.4849 772 68.6386 124.246 516.228
903 0 69.2276 13.2606 918 66.5196 124.356 512.745
904 0 73.2966 11.4876 842 67.7268 124.518 514.913
905 0 76.1813 12.9953 990 65.7455 124.088 511.766
906 0 77.1284 12.5894 971 66.7425 124.428 511.52
907 1 40.1067 10.4721 420 69.0595 124.526 526.04
908 0 42.1897 11.1876 472 66.7754 123.905 527.544
909 0 44.2277 11.1243 492 68.0732 124.606 526.876
910 0 44.1958 11.1097 491 69.2892 124.642 524.957
911 0 46.1748 11.2832 521 68.7044 124.656 524.635
912 0 49.1957 13.4158 660 65.7167 124.648 522.765
913 0 48.1549 10.5078 506 68.5455 125.061 526.54
914 0 50.3567 12.6895 639 66.5587 124.574 523.182
915 0 51.148 10.0297 513 68.9766 123.996 523.468
916 0 53.0484 11.9514 634 67.0315 123.549 521.48
917 0 54.151 12.853 696 65.7055 123.744 520.701
918 0 56.1637 11.2528 632 67.087 123.818 519.81
919 0 58.0452 13.3 772 63.9158 123.297 520.057
920 0 61.1404 13.0683 799 64.4355 123.429 517.731
921 0 65.1536 11.7108 763 64.8401 122.921 516.48
922 0 66.0835 12.5145 827 64.1669 123.105 516.449
923 0 67.1624 13.2217 888 63.0935 122.889 515.673
924 0 70.0809 12.5284 878 63.2221 123.05 514.654
925 0 71.1244 12.3165 876 64.3059 123.434 510.421
926 0 71.0968 12.912 918 64.2593 123.526 511.449
927 0 76.1645 12.3548 941 63.9299 123.652 509.886
928 0 79.0999 11.4159 903 65.2669 123.437 508.63
929 1 42.0602 11.2696 474 64.4768 122.983 525.036
930 0 42.0844 11.7383 494 63.7814 123.126 527.429
931 0 44.1159 11.1751 493 64.8884 123.247 525.489
932 0 48.048 12.5083 601 62.985 123.567 525.125
933 0 47.0635 12.3875 583 63.94 123.823 524.062
934 0 49.1441 10.2556 504 66.369 123.716 522.589
935 0 50.0593 10.7472 538 65.6097 124.084 522.751
936 0 53.0647 10.572 561 65.9269 123.888 521.713
937 0 53.0982 11.4128 606 65.4158 123.581 520.337
938 0 56.0904 12.6938 712 64.1292 124.11 518.223
939 0 57.0341 11.2915 644 66.104 124.191 517.601
940 0 60.071 12.685 762 64.0971 123.946 515.762
941 0 61.1205 12.4999 764 64.6204 123.467 513.416
942 0 65.1824 13.0863 853 63.6166 123.97 513.769
943 0 65.0819 12.3537 804 64.4988 123.673 515.746
944 0 65.0798 12.5846 819 64.6886 124.709 515.078
945 0 70.2536 12.7823 898 63.6114 124.226 514.465
946 0 71.0887 13.3214 947 63.32 124.645 510.586
947 0 72.2144 12.449 899 64.9511 124.167 508.607
948 0 74.2816 13.6642 1015 63.2345 124.861 510.571
949 0 78.0498 12.902 1007 63.8232 125.246 509.211
950 0 80.2177 14.1116 1132 62.3737 124.446 505.886
951 0 82.1617 10.5889 870 66.792 124.567 508.195
952 1 45.162 11.6248 525 63.9486 125.57 526.006
953 0 46.1135 9.82359 453 67.0066 124.985 524.333
954 0 46.0635 10.8112 498 67.6606 124.753 521.339
955 0 48.2319 12.8546 620 64.4984 124.452 522.169
956 0 49.1639 10.6786 525 67.7962 123.851 522.855
957 0 52.0465 14.0451 731 62.881 125.067 521.632
958 0 51.0751 12.9221 660 65.5015 124.382 521.182
959 0 54.0652 12.7994 692 66.1373 124.389 518.773
960 0 54.0385 12.9537 700 66.37 124.214 516.466
961 0 57.0981 10.6658 609 67.8259 124.811 519.897
962 0 56.1958 11.8692 667 67.4243 124.781 518.91
963 0 57.0905 11.8759 678 67.972 125.025 518.021
964 0 62.128 12.8605 799 65.8573 125.049 514.499
965 0 64.1256 13.4112 860 65.7651 123.936 513.056
966 0 66.2294 14.0874 933 64.9046 123.531 513.779
967 0 69.1801 13.3709 925 65.3135 124.315 512.104
968 1 138.186 11.1588 1542 69.3087 124.212 481.936
969 1 72.1018 13.1758 950 66.601 124.596 510.397
970 0 74.2587 12.3622 918 66.5131 124.456 512.538
971 1 37.0965 13.6401 506 65.2806 124.644 526.79
972 0 41.0715 14.3165 588 63.1973 124.636 526.721
973 0 42.0664 11.7909 496 67.0403 124.343 526.883
974 0 44.1552 13.4525 594 64.8249 124.394 525.364
975 0 44.0155 12.4274 547 66.468 124.196 525.464
976 0 45.057 14.5149 654 64.1774 124.222 524.742
977 0 49.0772 13.1222 644 65.1009 124.012 524.297
978 0 48.0993 13.2018 635 66.1087 124.46 523.301
979 0 50.1263 12.0695 605 68.0083 125.071 522.448
980 0 51.2369 13.2327 678 67.0487 123.994 518.796
981 0 52.0811 12.2885 640 67.9 124.362 520.172
982 0 52.0874 11.02 574 69.8955 124.693 517.869
983 0 57.0625 11.9168 680 67.85 124.341 517.757
984 0 58.0935 13.6676 794 66.2128 124.291 516.14
985 0 61.1565 12.7869 782 67.1228 124.836 515.573
986 0 62.0817 13.9655 867 65.331 125.28 516.438
987 0 64.2519 14.3498 922 65.487 124.5 514.588
988 0 66.0885 14.3747 950 65.1958 124.697 513.066
989 0 67.1488 12.3606 830 67.4807 124.276 514.253
990 0 71.04 13.3446 948 66.0728 123.884 513.604
991 0 71.361 12.8782 919 67.3678 124.354 509.144
992 0 75.3319 12.6772 955 67.0503 123.927 511.135
993 0 79.2987 14.6156 1159 65.0112 124.858 507.777
994 0 81.169 12.7635 1036 66.6448 124.559 510.09
995 0 83.2128 12.4861 1039 68.1463 124.646 504.887
996 1 46.1369 12.1161 559 67.61 124.676 524.141
997 0 47.1302 11.3091 533 69.9775 124.871 524.368
998 0 51.286 13.0445 669 65.7937 124.254 526.121
999 0 49.1998 12.8252 631 66.9651 123.59 525.956
1000 0 52.3148 12.6733 663 67.905 123.819 522.478
1001 0 54.0917 14.3275 775 65.44 124.347 522.312
1002 0 54.1257 13.0622 707 67.5898 124.666 521.983
1003 0 56.1436 12.2187 686 68.6691 125.131 521.844
1004 0 57.176 14.1843 811 66.143 124.582 521.206
1005 0 58.0465 13.7993 801 67.8851 124.297 519.365
1006 0 61.0898 14.6342 894 66.0537 123.884 519.84
1007 0 64.0818 14.1226 905 66.4243 124.035 520.498
1008 0 64.2255 13.2035 848 68.4104 123.925 516.614
1009 0 66.0862 14.1482 935 67.4064 123.762 517.421
1010 0 68.2418 13.7159 936 67.8718 124.428 516.262
1011 0 71.0694 12.8888 916 68.7216 124.43 515.084
1012 0 74.1153 12.2782 910 69.0187 124.636 515.801
1013 0 77.0724 13.7144 1057 67.0984 124.622 513.615
1014 0 77.3312 12.8409 993 68.6969 123.793 512.855
1015 1 38.1008 13.9105 530 66.1283 124.421 531.062
1016 0 42.0588 12.8867 542 65.8856 123.732 532.642
1017 0 44.0354 13.3075 586 66.302 123.809 530.155
1018 0 44.0409 11.8753 523 69.2218 124.203 528.042
1019 0 43.0368 11.8968 512 69.4121 123.586 528.615
1020 0 48.0446 12.6757 609 67.4007 123.525 528.19
1021 0 48.118 13.4045 645 67.6403 123.767 524.375
1022 0 50.1399 11.9466 599 69.5359 123.227 523.12
1023 0 51.3411 12.8552 660 68.8364 123.488 523.245
1024 0 54.351 11.9409 649 68.7442 123.31 522.912
1025 0 54.344 14.353 780 65.9231 123.864 522.653
1026 0 55.1884 12.5389 692 67.6127 123.808 524.356
1027 0 56.2056 12.2764 690 68.5275 123.507 521.412
1028 0 61.1118 13.0908 800 67.1888 122.568 520.455
1029 0 62.1811 12.7531 793 67.3884 123.282 520
1030 0 63.2592 12.8361 812 67.5456 122.829 517.77
1031 0 66.1228 13.1271 868 67.4516 122.768 518.184
1032 0 70.1245 13.0197 913 67.0646 122.438 517.034
1033 0 70.1833 12.8663 903 67.5161 123.049 516.218
1034 0 73.2973 12.8654 943 67.017 122.896 516.145
1035 0 76.2345 11.1892 853 68.5803 123.073 515.558
1036 0 77.3343 12.6593 979 68.1951 122.751 513.252
1037 0 79.194 11.5539 915 69.4033 122.125 513.537
1038 1 41.279 11.1679 461 70.1844 121.996 528.994
1039 0 44.1483 11.6652 515 69.6291 121.476 528.509
1040 0 44.357 13.1208 582 67.768 121.722 530.46
1041 0 44.1868 11.2251 496 70.7298 121.411 530.169
1042 0 47.2644 12.9696 613 70.106 122.375 525.829
1043 0 50.3287 12.9151 650 68.9431 122.215 526.117
1044 0 52.1591 13.2096 689 68.8636 122.064 526.036
1045 0 52.1907 12.2244 638 70.5517 121.812 524.447
1046 0 53.1281 12.8557 683 70.5344 121.813 524.215
1047 0 56.1335 11.7933 662 71.0106 122.154 526.02
1048 0 56.1539 12.9287 726 70.0799 122.361 523.045
1049 0 61.1891 12.9598 793 69.4086 123.34 520.974
1050 0 63.534 13.4888 857 68.6499 122.28 519.877
1051 0 64.1632 12.3279 791 70.1719 122.534 521.946
1052 0 68.1195 12.6836 864 69.6574 121.984 518.108
1053 0 70.2149 14.2277 999 68.2512 122.405 515.128
1054 0 73.2894 14.777 1083 67.0766 122.277 517.209
1055 0 73.091 14.4478 1056 68.3665 122.538 514.968
1056 0 79.164 12.9099 1022 68.456 122.866 516.555
1057 0 81.3859 11.7342 955 69.4283 122.84 518.042
1058 0 84.5056 13.5257 1143 68.0219 122.924 512.578
1059 0 85.223 14.0103 1194 68.2881 122.425 510.034
1060 0 88.1131 12.4726 1099 69.6834 122.477 511.967
1061 0 89.178 12.6264 1126 70.5799 123.059 512.093
1062 1 47.1213 11.3537 535 69.7701 122.151 533.983
1063 0 46.2216 12.1372 561 71.8271 122.893 529.726
1064 0 47.2206 12.0498 569 71.9209 122.97 530.599
1065 0 51.1738 11.5098 589 71.5823 122.779 531.43
1066 0 51.1813 13.1298 672 70.6101 123.9 528.821
1067 0 52.055 14.4847 754 69.7772 123.739 527.883
1068 0 55.1792 13.7371 758 69.9763 123.588 526.507
1069 0 55.0766 12.2738 676 72.2027 123.751 528.356
1070 0 57.1995 13.3393 763 71.9725 123.811 526.261
1071 0 61.1416 13.8204 845 69.7207 123.741 526.922
1072 0 65.3084 14.0258 916 70.0033 123.59 524.892
1073 0 65.1974 12.4085 809 72.7515 123.413 523.792
1074 0 67.0934 13.6377 915 71.224 123.439 522.869
1075 0 68.0605 13.106 892 72.3173 123.083 520.88
1076 0 72.4886 13.6711 991 71.0807 123.76 521.581
1077 0 74.1423 13.0425 967 72.6019 123.424 521.025
1078 0 76.2624 12.7323 971 73.7178 123.363 517.551
1079 0 77.1826 13.6559 1054 73.1936 122.872 516.832
1080 0 79.157 11.9509 946 75.8943 123.133 516.503
1081 0 81.3776 12.5342 1020 75.7608 122.695 516.33
1082 0 86.1678 12.9631 1117 74.2775 122.819 516.207
1083 0 88.1867 14.2085 1253 73.9641 123.201 512.294
1084 0 92.1955 12.8531 1185 75.2287 123.03 513.095
1085 1 47.2326 13.55 640 75.2703 123.222 531.473
1086 0 48.1249 13.1533 633 75.2133 123.318 531.893
1087 0 51.24 13.8173 708 73.2302 123.846 531.357
1088 0 51.2334 13.3507 684 75.671 122.833 528.886
1089 0 50.176 13.074 656 77.7393 123.45 526.372
1090 0 53.2127 15.4662 823 73.8578 123.42 527.553
1091 0 58.1024 14.1991 825 74.3236 123.578 527.215
1092 0 57.1554 14.4868 828 73.7585 123.476 528.164
1093 0 60.2107 14.2666 859 74.0536 123.345 525.121
1094 0 61.2415 14.7449 903 73.0609 124.019 524.286
1095 0 62.1317 13.3104 827 74.9927 124.164 524.588
1096 0 64.3254 12.9653 834 75.0576 123.698 523.904
1097 0 68.1863 13.8298 943 74.5111 123.797 520.849
1098 0 68.1562 13.9239 949 74.0211 122.895 521.569
1099 0 72.3175 14.2151 1028 73.0788 123.562 519.82
1100 0 74.2388 13.9819 1038 74.6002 123.285 516.395
1101 0 76.3819 12.5291 957 76.6092 122.658 514.97
1102 0 79.1637 14.7921 1171 73.7028 122.89 515.686
1103 0 78.0796 11.77 919 78.667 122.887 514.847
1104 0 85.6722 14.7656 1265 74.1818 122.881 512.995
1105 0 88.2371 14.3704 1268 75.0662 123.137 512.45
1106 0 89.1871 14.1052 1258 75.6502 122.576 511.409
1107 0 94.3078 14.4209 1360 74.7287 122.29 509.33
1108 1 49.2319 12.6544 623 77.4109 123.579 530.092
1109 0 49.3811 13.1224 648 77.3673 123.472 529.934
1110 0 51.2087 13.5524 694 77.2493 123.924 528.18
1111 0 54.0956 15.9532 863 73.7231 123.949 526.907
1112 0 53.1544 13.3197 708 78.1582 123.953 526.982
1113 0 54.1927 12.8246 695 80.3856 123.809 525.288
1114 0 59.217 14.6579 868 75.9044 123.189 522.483
1115 0 60.0959 15.9412 958 74.857 123.498 523.207
1116 0 62.2729 15.2394 949 76.0917 123.595 521.165
1117 0 63.1849 13.3576 844 78.968 124.3 520.761
1118 0 66.1388 13.5321 895 78.1508 124.072 521.878
1119 0 68.1969 15.3673 1048 75.4895 123.187 520.141
1120 0 70.2029 13.2331 929 79.2444 123.665 516.957
1121 0 72.1758 13.9105 1004 78.8526 123.901 516.275
1122 0 74.0873 14.9553 1108 77.5939 123.486 516.273
1123 0 78.4043 15.0119 1177 77.3849 123.752 514.078
1124 0 80.3072 15.8765 1275 75.7545 124.158 514.521
1125 0 82.3893 14.9655 1233 77.7453 124.26 511.842
1126 0 86.4467 15.6975 1357 76.6183 123.772 511.573
1127 0 89.3447 15.4234 1378 77.074 123.774 510.321
1128 0 91.1933 14.5734 1329 79.0497 123.375 507.893
1129 1 47.1224 13.8788 654 77.6284 123.992 530.937
1130 0 47.2155 12.8771 608 80.7352 124.196 529.498
1131 0 47.1199 13.4126 632 80.7769 123.291 528.239
1132 0 51.1429 14.3519 734 78.8719 123.911 528.326
1133 0 53.2116 14.4329 768 79.0703 123.544 526.624
1134 0 54.1288 15.7402 852 76.7336 123.322 525.87
1135 0 56.2604 14.735 829 78.5718 124.019 524.654
1136 0 58.3199 14.129 824 78.4927 123.749 525.908
1137 0 59.1886 16.2362 961 76.2487 123.806 524.498
1138 0 61.2116 14.262 873 79.4696 123.464 521.994
1139 0 65.1054 14.9604 974 77.6396 123.874 521.228
1140 0 64.2454 14.4913 931 80.2879 123.68 521.879
1141 0 65.2852 14.7353 962 80.4324 124.017 518.58
1142 0 69.1338 15.781 1091 79.0128 124.171 516.06
1143 0 71.168 15.4985 1103 79.2901 123.724 516.256
1144 0 74.1473 15.8468 1175 78.7506 123.857 517.016
1145 0 76.1505 15.2199 1159 80.5229 123.529 515.895
1146 0 76.3198 15.553 1187 80.6083 124.34 513.885
1147 0 80.2624 14.8887 1195 80.5866 123.585 513.852
1148 0 85.4049 15.5963 1332 79.3806 123.312 513.414
1149 0 87.2561 16.102 1405 79.7587 123.431 511.669
1150 0 86.0512 14.3054 1231 83.723 123.534 508.621
1151 0 91.2306 15.0717 1375 81.5149 123.352 510.094
1152 0 95.3761 15.2973 1459 81.0192 122.92 507.283
1153 0 96.2778 15.0918 1453 81.6297 123.409 506.676
1154 0 100.68 16.9249 1704 79.1138 123.813 503.725
1155 0 101.149 15.2646 1544 81.3044 124.082 503.239
1156 0 105.414 15.3965 1623 80.8959 123.572 500.028
1157 0 109.405 15.0268 1644 80.5164 123.864 501.085
1158 1 59.3555 13.3265 791 81.9722 124.092 524.266
1159 0 63.1738 14.0248 886 80.921 124.36 523.911
1160 0 64.2727 15.2008 977 79.6018 123.983 522.808
1161 0 65.1733 14.9908 977 80.7124 123.905 521.462
1162 0 67.2842 13.8665 933 81.3858 123.478 520.038
1163 0 69.2721 15.9083 1102 78.2105 123.637 519.745
1164 0 71.2116 15.5593 1108 78.9711 123.486 519.495
1165 0 77.3376 16.1241 1247 75.6343 123.572 519.477
1166 0 75.2657 14.2163 1070 81.0561 123.351 516.097
1167 0 77.2105 14.4799 1118 80.6843 124.255 515.068
1168 0 80.0879 13.198 1057 81.8212 124.338 515.044
1169 0 83.1716 14.5362 1209 80.3118 123.796 513.601
1170 0 87.3704 14.7876 1292 79.2902 123.824 512.644
1171 0 90.2432 16.2118 1463 77.216 124.003 511.025
1172 0 91.489 15.4663 1415 79.5936 123.569 507.698
1173 0 95.3821 16.2504 1550 76.7645 123.592 511.446
1174 0 96.2228 13.8637 1334 81.4768 123.941 507.21
1175 0 101.221 15.9058 1610 78.2845 124.084 504.327
1176 0 103.219 15.2201 1571 79.289 124.074 504.4
1177 0 107.52 14.6391 1574 79.7446 124.517 503.288
1178 0 109.319 13.5932 1486 82.1198 124.637 502.531
1179 0 114.281 15.6894 1793 78.8433 124.566 499.674
1180 1 58.1877 13.0956 762 82.353 123.535 525.979
1181 0 59.1682 14.501 858 79.8963 123.122 526.654
1182 0 60.2199 13.4341 809 83.6984 123.984 523.251
1183 0 61.1593 13.3913 819 84.2247 123.679 523.697
1184 0 63.3284 15.8065 1001 81.6184 123.988 520.89
1185 0 65.3082 13.2143 863 83.876 123.733 522.584
1186 0 66.2088 16.0553 1063 80.7695 123.747 520.459
1187 0 69.3184 15.9554 1106 79.9448 123.424 520.439
1188 0 71.2671 13.4424 958 85.023 123.46 517.047
1189 0 73.3911 15.2062 1116 81.9409 124.033 518.763
1190 0 76.3416 14.4744 1105 83.8262 123.868 514.173
1191 0 76.3055 16.3291 1246 81.8114 123.522 513.387
1192 0 81.3298 15.0375 1223 82.3639 123.69 514.607
1193 0 83.3583 14.3477 1196 84.3294 124.171 512.588
1194 0 86.2637 14.1427 1220 83.8344 124.266 511.543
1195 0 88.4232 14.4985 1282 83.5967 124.167 509.67
1196 0 90.436 13.6229 1232 84.168 123.627 510.176
1197 0 94.282 14.34 1352 83.6317 123.124 509.509
1198 0 97.1449 15.0394 1461 82.4983 123.061 508.065
1199 0 100.336 13.9831 1403 83.7969 123.37 508.979
1200 0 101.343 13.8441 1403 84.7691 124.309 506.372
1201 0 109.177 15.0123 1639 69.8481 123.487 506.225
1202 0 108.43 14.5716 1580 84.5424 124.164 502.666
1203 0 109.352 13.205 1444 87.4958 124.255 498.67
1204 0 116.493 14.7563 1719 84.185 123.272 500.809
1205 0 117.345 14.2571 1673 85.2756 123.212 500.235
1206 0 123.243 16.715 2060 81.6116 123.469 497.005
1207 0 122.384 14.2421 1743 86.0866 123.313 496.398
1208 0 128.266 13.5733 1741 87.4009 124.312 493.634
1209 0 135.549 14.9982 2033 84.7162 124.336 491.06
1210 0 140.386 14.6595 2058 85.6506 123.865 488.273
1211 1 70.2249 14.7241 1034 86.6112 123.513 519.308
1212 0 72.4055 14.8469 1075 87.4856 123.706 518.824
1213 0 74.1778 12.5105 928 90.5603 123.668 521.319
1214 0 75.2636 14.4558 1088 89.1994 124.561 517.789
1215 0 78.264 15.0772 1180 88.3686 123.762 515.238
1216 0 78.4289 13.0054 1020 92.7824 123.94 515.758
1217 0 84.3546 14.3324 1209 89.3714 124.154 514.81
1218 0 85.2237 14.855 1266 90.2148 123.677 511.798
1219 0 87.2108 13.0603 1139 92.4925 123.599 513.543
1220 0 91.2821 14.4497 1319 90.696 123.431 510.413
1221 0 90.4083 13.8151 1249 92.8231 123.547 507.86
1222 0 96.2793 15.9328 1534 88.2588 123.804 507.537
1223 0 100.488 15.9621 1604 87.6796 123.529 506.832
1224 0 102.266 15.2152 1556 89.6446 124.127 504.727
1225 0 104.626 15.0249 1572 89.9739 124.886 503.134
1226 0 106.416 13.9922 1489 92.5568 124.893 500.165
1227 0 110.354 15.6496 1727 89.1928 125.173 501.087
1228 0 112.371 13.9805 1571 92.3138 124.532 501.345
1229 0 119.322 15.4792 1847 89.2572 123.848 498.572
1230 0 122.408 15.3258 1876 89.4179 124.396 498.526
1231 0 127.488 14.9426 1905 90.0525 124.188 495.161
1232 0 131.519 15.6935 2064 89.0766 124.604 490.326
1233 0 134.685 13.9511 1879 91.8765 124.133 490.205
1234 0 137.406 14.7155 2022 90.7136 124.033 490.489
1235 0 142.434 14.8912 2121 90.8689 123.964 486.955
1236 0 147.49 14.584 2151 90.8554 123.632 485.218
1237 0 152.376 14.6808 2237 91.2307 123.812 482.05
1238 1 68.3212 14.1391 966 91.4524 123.832 518.895
1239 0 70.3344 13.578 955 92.844 123.635 516.258
1240 0 72.3241 13.4119 970 91.1299 124.027 518.876
1241 0 75.455 14.3927 1086 90.4107 123.874 514.47
1242 0 77.3131 13.5035 1044 90.3659 124.158 517.366
1243 0 80.4654 14.5031 1167 88.431 125.284 515.29
1244 0 83.3765 15.6039 1301 87.143 124.915 511.708
1245 0 83.2775 13.1968 1099 90.8207 124.107 513.036
1246 0 87.1708 14.3053 1247 88.2342 123.625 511.023
1247 0 91.2632 14.8691 1357 87.0037 124.567 509.894
1248 0 92.3512 14.1308 1305 88.9149 124.944 507.301
1249 0 96.2406 15.0456 1448 86.4724 124.452 509.179
1250 0 95.4818 12.2432 1169 91.4055 124.463 509.22
1251 0 100.319 13.8458 1389 88.7595 124.862 506.904
1252 0 104.49 15.1019 1578 86.9113 124.446 503.987
1253 0 105.381 13.1713 1388 89.1715 124.93 506.75
1254 0 108.41 14.353 1556 88.2294 124.42 503.881
1255 0 112.322 14.031 1576 88.8991 124.477 501.369
1256 0 116.472 12.7326 1483 89.5253 124.131 503.759
1257 0 119.438 14.0156 1674 88.4206 124.251 499.799
1258 0 127.493 13.2164 1685 89.6249 124.685 495.05
1259 0 129.286 15.0365 1944 87.0715 124.26 493.306
1260 0 135.339 14.7333 1994 87.1083 124.703 493.802
1261 0 137.407 14.7881 2032 87.157 123.148 490.517
1262 1 65.484 15.2404 998 88.9519 123.38 522.678
1263 0 70.4516 14.9748 1055 88.8853 123.818 519.419
1264 0 69.223 14.6194 1012 90.0395 123.281 520.508
1265 0 69.5555 14.1757 986 89.999 123.971 521.699
1266 0 71.2628 13.8221 985 90.9838 124.53 521.792
1267 0 70.3303 12.4555 876 93.4121 124.515 522.387
1268 0 69.4442 12.7728 887 91.9594 124.458 521.822
1269 1 79.2342 14.6149 1158 91.2979 124.227 512.07
1270 0 84.5324 16.5026 1395 85.2652 123.669 515.469
1271 0 84.2596 14.0637 1185 89.7055 123.197 514.052
1272 0 88.4158 14.9408 1321 87.1794 123.717 513.243
1273 0 92.3429 15.6915 1449 85.3085 123.598 510.262
1274 0 93.6441 13.7756 1290 88.3442 123.405 512.578
1275 0 94.3855 14.2289 1343 88.688 123.691 510.833
1276 0 98.4132 13.1588 1295 89.2324 123.763 511.301
1277 0 102.524 13.5968 1394 88.3759 124.725 508.922
1278 0 105.576 14.9276 1576 86.3318 124.16 505.86
1279 0 110.571 14.1899 1569 86.9038 123.659 504.827
1280 0 112.281 14.9892 1683 86.2608 124.303 501.302
1281 1 55.3176 13.9738 773 88.7801 123.181 526.852
1282 0 56.2468 14.5075 816 88.2279 124.089 525.377
1283 0 55.5938 13.6346 758 88.8839 123.611 526.406
1284 0 59.3351 14.9153 885 86 123.699 526.219
1285 0 60.502 15.2061 920 86.3891 124.616 524.157
1286 0 64.3859 15.2828 984 86.0132 124.628 522.302
1287 0 64.332 13.477 867 89.3264 124.941 522.923
1288 0 69.4102 15.6461 1086 84.0221 123.855 522.991
1289 0 70.3181 16.7098 1175 83.5396 124.552 521.952
1290 0 70.1808 15.4886 1087 86.5934 124.407 518.911
1291 0 72.6417 14.661 1065 86.7014 124.974 521.146
1292 0 75.4721 14.2967 1079 88.1205 124.154 519.539
1293 0 75.3749 15.2703 1151 87.1885 123.723 517.185
1294 0 77.4093 13.3576 1034 90.0261 122.975 516.289
1295 0 80.5308 16.6893 1344 83.5737 123.682 515.27
1296 0 83.4053 15.047 1255 85.9418 124.245 515.412
1297 0 83.6249 14.3737 1202 87.5125 123.438 512.721
1298 0 87.4094 13.8772 1213 87.2226 123.466 512.773
1299 0 90.5988 14.4262 1307 86.5318 123.732 509.094
1300 0 94.3133 15.3955 1452 83.9015 124.087 509.198
1301 0 95.323 14.4876 1381 85.9826 124.063 506.888
1302 1 47.2415 14.3941 680 85.275 124.487 531.365
1303 0 47.3046 14.4172 682 84.7346 123.34 531.805
1304 0 49.4795 15.5014 767 82.9061 123.494 531.353
1305 0 49.3176 12.9974 641 86.9563 124.466 531.51
1306 0 52.4717 14.0457 737 86.5658 124.176 528.495
1307 0 52.2714 15.5152 811 85.6893 124.492 527.583
1308 0 53.5837 13.157 705 88.6326 124.23 527.721
1309 0 54.4477 14.1971 773 86.7335 123.934 526.731
1310 0 57.6818 14.3373 827 86.3906 123.993 526.479
1311 0 58.4833 14.876 870 86.8471 124.508 523.609
1312 0 57.3476 14.6301 839 88.8153 124.354 522.882
1313 0 60.6037 14.207 861 89.6353 124.201 523.256
1314 0 64.7924 15.65 1014 86.1095 124.345 523.033
1315 0 62.5645 15.2003 951 88.5804 124.076 522.385
1316 0 65.455 15.0027 982 89.0835 123.85 521.913
1317 0 68.4785 15.3041 1048 88.4656 123.893 521.288
1318 0 70.5486 16.1307 1138 85.8032 123.975 521.934
1319 0 70.579 15.3587 1084 88.4105 124.302 520.717
1320 0 74.4546 15.4591 1151 87.5691 124.209 519.847
1321 0 74.2632 15.8086 1174 88.4889 124.537 517.747
1322 0 78.1863 16.4479 1286 86.2994 124.033 516.996
1323 0 80.4595 16.5425 1331 86.1923 123.264 517.062
1324 0 81.439 15.4963 1262 88.8122 123.763 514.38
1325 0 85.6725 16.7498 1435 85.531 123.933 512.826
1326 0 88.5293 16.5143 1462 85.4925 124.107 512.133
1327 0 92.4238 15.9699 1476 85.7798 123.857 508.808
1328 0 95.3354 15.6395 1491 86.1288 124.264 509.194
1329 0 97.5224 15.5759 1519 86.2581 124.188 508.015
1330 0 100.463 16.0358 1611 86.0857 124.402 506.444
1331 0 105.497 16.1236 1701 85.3739 124.337 505.875
1332 0 109.427 19.1725 2098 80.4247 123.875 502.935
1333 0 109.805 14.8809 1634 88.5851 123.663 500.758
1334 0 115.584 15.4433 1785 86.5277 124.385 502.78
1335 0 118.486 15.4533 1831 88.1185 124.645 497.98
1336 0 118.611 14.9733 1776 89.1655 124.98 497.709
1337 0 124.331 15.9252 1980 87.2985 124.428 494.977
1338 0 128.582 15.7876 2030 87.1098 124.222 493.526
1339 0 135.741 15.8758 2155 85.9833 123.805 492.822
1340 0 138.594 16.0757 2228 85.6593 123.803 491.363
1341 0 140.474 16.0172 2250 85.8653 123.993 489.973
1342 0 145.454 14.4857 2107 87.8429 124.308 490.979
1343 1 73.4538 15.6561 1150 87.7156 123.79 519.115
1344 0 74.2254 16.2613 1207 86.8434 124.235 518.837
1345 0 77.2864 16.083 1243 87.5841 123.258 517.685
1346 0 75.4237 14.0672 1061 92.3996 123.152 517.736
1347 1 167.644 15.6224 2619 87.2199 123.681 473.858
1348 0 173.467 16.1299 2798 85.7655 124.182 474.584
1349 0 179.786 16.0914 2893 85.5717 124.521 473.382
1350 0 183.49 15.9355 2924 86.1984 124.179 468.732
1351 0 189.452 15.9671 3025 86.3471 125.082 466.785
1352 0 193.516 15.3217 2965 87.2256 124.076 465.388
1353 0 201.916 16.591 3350 84.2666 123.404 463.408
1354 0 205.625 15.4845 3184 86.4623 123.908 462.103
1355 0 211.455 15.0765 3188 87.9097 123.567 456.306
1356 0 218.719 16.4595 3600 85.2222 123.415 456.031
1357 0 225.449 17.0283 3839 84.8528 124.172 452.402
1358 0 230.528 16.1846 3731 86.2956 124.458 448.84
1359 0 238.955 16.3964 3918 85.3954 124.353 448.493
1360 0 244.692 16.3185 3993 85.6734 124.568 443.267
1361 0 249.889 14.4144 3602 89.2715 124.695 445.654
1362 0 257.492 15.0879 3885 88.7323 123.829 437.627
1363 0 265.509 16.8883 4484 85.5103 123.659 430.638
1364 0 273.574 16.7889 4593 85.3614 124.05 433.882
1365 0 278.763 15.68 4371 87.337 124.448 425.989
1366 1 205.851 15.4092 3172 91.1305 124.035 460.754
1367 0 210.608 15.2369 3209 91.7597 124.366 456.206
1368 0 218.442 16.4712 3598 89.7793 123.692 452.612
1369 0 223.362 16.3143 3644 89.9116 124.155 455.815
1370 0 228.571 16.3276 3732 90.4606 124.134 446.116
1371 0 236.71 16.8307 3984 88.863 124.44 448.887
1372 0 242.97 16.8868 4103 89.0317 124.164 443.627
1373 0 247.692 15.1115 3743 92.7622 124 441.032
1374 0 255.876 15.5309 3974 91.651 123.674 439.407
1375 0 261.95 16.7016 4375 89.5058 123.832 436.727
1376 0 268.724 15.5699 4184 91.599 123.639 432.066
1377 0 279.114 17.1865 4797 87.8414 124.01 434.318
1378 1 231.657 16.4122 3802 90.9356 123.724 453.162
1379 0 237.917 17.1236 4074 90.8427 124.654 446.091
1380 0 243.951 15.4293 3764 94.2827 123.772 443.457
1381 0 252.639 15.7418 3977 93.5215 124.104 443.727
1382 0 259.572 16.5696 4301 93.1281 123.806 433.333
1383 0 270.682 16.8648 4565 91.4311 123.644 434.745
1384 0 277.968 16.1349 4485 92.9835 123.612 425.916
1385 1 290.722 17.3877 5055 90.1842 124.318 423.26
1386 0 296.916 16.0079 4753 92.503 124.169 421.578
1387 1 162.628 16.3809 2664 96.634 123.738 479.123
1388 0 166.473 16.2609 2707 96.6982 124.34 481.136
1389 0 170.563 15.5661 2655 98.9932 124.957 477.851
1390 0 171.536 15.1805 2604 100.174 124.81 477.386
1391 0 171.404 13.5469 2322 99.9746 123.817 486.304
1392 1 186.565 15.2601 2847 99.8405 123.95 471.366
1393 0 191.465 15.0941 2890 100.073 124.201 467.901
1394 0 194.23 14.3901 2795 102.822 124.283 466.617
1395 0 199.725 14.4549 2887 102.431 124.17 462.28
1396 0 206.647 16.0467 3316 99.3426 124.609 455.421
1397 0 214.481 15.1855 3257 100.105 124.154 458.115
1398 0 220.764 15.1474 3344 99.3026 124.045 457.824
1399 0 227.661 15.4879 3526 98.5672 123.875 452.85
1400 0 233.463 15.3258 3578 99.2795 123.841 451.545
1401 0 240.996 15.6434 3770 98.6607 124.568 445.341
1402 1 189.638 15.2343 2889 99.7383 123.811 470.182
1403 0 195.559 15.1566 2964 100.079 124.094 466.511
1404 1 148.514 14.1805 2106 101.658 123.651 488.004
1405 0 153.999 15.1169 2328 99.8514 123.082 484.823
1406 0 157.831 16.0552 2534 96.766 123.274 485.993
1407 0 164.65 15.5299 2557 97.0289 123.553 485.683
1408 0 166.531 14.3937 2397 100.469 123.758 480.272
1409 0 172.394 15.6095 2691 96.4043 124.155 481.621
1410 0 174.416 14.1501 2468 100.087 124.6 478.287
1411 0 178.421 14.1631 2527 99.2161 124.558 477.237
1412 0 185.513 15.2118 2822 98.0025 124.341 469.176
1413 0 191.605 14.843 2844 97.1547 124.162 471.847
1414 0 192.59 13.4482 2590 100.145 124.014 469.722
1415 0 197.659 14.8437 2934 98.031 124.71 464.335
1416 0 203.567 15.3758 3130 96.1879 123.928 465.902
1417 0 207.549 15.8999 3300 95.3024 124.009 461.348
1418 0 212.484 15.0976 3208 96.4997 123.742 458.919
1419 0 216.606 15.4612 3349 95.3613 123.382 458.738
1420 0 223.848 15.0683 3373 95.314 124.092 456.139
1421 0 230.005 14.4432 3322 96.4223 124.263 457.179
1422 0 232.826 13.4693 3136 98.4305 124.105 448.074
1423 0 241.793 14.3966 3481 95.6179 123.194 449.432
1424 0 246.797 15.6809 3870 92.6525 124.201 447.341
1425 0 248.639 13.2763 3301 97.7822 124.715 446.018
1426 0 254.654 13.6774 3483 97.5989 124.532 441.684
1427 0 260.796 14.9542 3900 95.3987 124.634 438.475
1428 0 266.72 14.6184 3899 94.7363 124.124 440.967
1429 0 272.679 15.2597 4161 93.6604 123.931 433.06
1430 0 277.8 15.4751 4299 92.4482 124.241 425.74
1431 0 283.883 15.2527 4330 92.2894 123.658 425.851
1432 0 289.69 15.0299 4354 92.9467 123.741 420.391
1433 0 295.739 15.3818 4549 91.8608 123.723 421.994
1434 0 302.205 14.9435 4516 91.6169 124.043 419.684
1435 0 308.995 14.0455 4340 92.3776 124.243 422.624
1436 0 316.909 13.6254 4318 91.7161 124.299 419.533
1437 0 322.907 15.3945 4971 88.5301 123.855 411.071
1438 0 327.199 13.3741 4376 91.9973 124.487 408.666
1439 0 335.649 13.9759 4691 89.8135 124.254 406.437
1440 0 342.011 14.2715 4881 89.2989 124.347 402.583
1441 0 345.013 12.7705 4406 92.2876 124.203 400.129
1442 0 353.137 13.2243 4670 90.6103 123.911 405.029
1443 0 358.935 13.6599 4903 89.5817 124.168 404.156
1444 0 365.01 15.1557 5532 87.5992 124.044 388.068
1445 0 368.736 15.3823 5672 86.5832 124.376 393.644
1446 0 375.838 15.0384 5652 87.4812 124.455 378.644
1447 0 388.977 16.0858 6257 84.7833 124.118 369.166
1448 0 401.132 15.7454 6316 84.3805 123.542 371.468
1449 0 413.808 16.875 6983 81.9987 122.917 363.23
1450 0 423.227 16.2631 6883 83.4135 123.391 358.518
1451 0 431.014 15.9879 6891 84.1287 124.402 348.659
1452 0 443.027 15.4618 6850 84.9463 123.813 341.898
1453 1 85.5208 16.1247 1379 98.3959 124.479 514.914
1454 0 86.4335 14.2769 1234 101.4 124.401 513.834
1455 0 89.45 14.0078 1253 101.585 124.51 513.897
1456 0 91.4533 14.7398 1348 99.7307 124.136 511.889
1457 0 94.4231 14.435 1363 100.498 124.11 508.097
1458 0 99.4881 15.4591 1538 96.6209 124.01 508.143
1459 0 101.742 13.8389 1408 100.375 123.941 506.245
1460 0 107.612 14.5801 1569 97.0803 124.047 506.532
1461 0 110.855 14.8032 1641 96.2712 124.451 503.497
1462 0 111.692 14.6206 1633 97.6344 124.665 502.017
1463 0 116.547 15.393 1794 95.8668 124.629 501.048
1464 0 120.526 15.5734 1877 94.9638 124.764 499.545
1465 0 123.488 14.5197 1793 96.3514 124.362 499.143
1466 1 52.3829 13.344 699 96.0987 123.438 528.588
1467 0 53.3532 13.7761 735 95.5592 123.872 528.667
1468 0 56.4643 14.1683 800 93.215 124.002 527.986
1469 0 55.43 14.1259 783 95.0434 123.863 526.457
1470 0 59.3873 15.1547 900 92.8244 123.7 525.644
1471 0 60.2654 14.4196 869 92.3717 123.713 526.99
1472 0 59.4014 13.1815 783 96.9566 124.095 524.738
1473 0 60.58 14.6418 887 93.0541 123.575 525.882
1474 0 61.4213 14.2784 877 94.3466 124.216 524.596
1475 0 63.3559 13.732 870 95.0218 123.731 523.878
1476 0 63.3985 14.0066 888 94.339 123.553 524.715
1477 0 63.6508 13.417 854 96.8841 124.454 521.576
1478 0 68.4401 15.3419 1050 91.36 124.422 521.311
1479 0 70.4451 14.4652 1019 92.6398 124.357 520.658
1480 0 73.454 14.5125 1066 91.5732 123.999 520.963
1481 0 73.3976 14.4283 1059 91.9481 123.417 519.772
1482 0 74.536 13.6176 1015 92.5103 123.785 521.272
1483 0 79.4803 15.5133 1233 88.6667 124.032 518.492
1484 0 80.3599 15.5052 1246 89.1685 124.391 517.006
1485 0 83.3588 15.2233 1269 88.7069 124.411 516.848
1486 0 86.3456 14.5114 1253 89.5611 124.769 515.544
1487 0 88.4173 14.1827 1254 90.4553 124.797 513.722
1488 0 88.3006 13.6919 1209 90.2316 123.837 515.745
1489 0 92.3854 14.5153 1341 89.2483 123.742 512.368
1490 0 97.4673 14.3843 1402 88.6926 123.994 509.201
1491 0 98.3417 13.9107 1368 89.9715 124.355 509.015
1492 0 103.329 15.7652 1629 86.2443 123.893 506.737
1493 0 107.39 14.6196 1570 87.3408 124.118 505.529
1494 0 108.499 14.9586 1623 87.2421 124.503 503.018
1495 1 42.2808 13.4813 570 82.5509 123.818 534.309
1496 0 42.3984 13.7269 582 82.957 123.536 532.814
1497 0 45.3902 13.6153 618 80.9207 124.065 533.683
1498 0 47.3679 12.7301 603 80.2653 123.922 535.018
1499 0 46.2382 14.0144 648 80.9722 124.389 532.167
1500 0 46.3284 12.7783 592 81.8649 124.27 532.311
1501 0 50.3871 14.726 742 77.9933 123.969 532.96
1502 0 49.2844 13.3917 660 80.4273 123.562 532.024
1503 0 50.4118 14.5799 735 79.1646 123.569 529.101
1504 0 52.2869 11.4178 597 82.1792 123.169 529.002
1505 0 53.3707 13.603 726 79.0909 123.515 530.284
1506 0 56.3255 12.9426 729 78.9973 123.757 529.272
1507 0 56.4366 12.6336 713 80.5989 123.797 526.22
1508 0 60.478 13.5586 820 77.7537 123.771 527.974
1509 0 61.361 14.2762 876 77.5685 123.644 524.55
1510 0 63.2553 15.3663 972 75.3416 123.28 523.806
1511 0 62.6327 13.6191 853 78.4314 123.91 522.035
1512 0 65.3235 13.4714 880 77.9364 123.649 521.344
1513 0 68.5418 14.7501 1011 75.2829 123.389 521.923
1514 0 69.8722 12.9951 908 77.5209 123.369 520.933
1515 0 72.4206 13.7806 998 76.514 123.72 519.43
1516 0 73.4245 13.1972 969 78.0691 124.128 517.392
1517 0 74.3429 13.5991 1011 78.6993 123.976 515.709
1518 0 79.4991 13.3586 1062 78.1026 124.198 517.849
1519 0 78.5148 12.9275 1015 79.9911 124.381 515.812
1520 0 83.4547 13.8398 1155 77.8961 122.89 515.355
1521 0 84.3775 13.487 1138 78.4051 123.496 514.872
1522 0 86.4433 12.2277 1057 80.4863 123.159 513.361
1523 0 88.5766 13.4686 1193 78.1484 123.613 511.413
1524 0 94.3672 13.9243 1314 77.9749 123.843 507.776
1525 0 96.3694 13.1058 1263 78.3919 123.519 509.53
1526 0 100.594 13.2414 1332 77.786 123.56 506.633
1527 0 101.414 12.6511 1283 79.1933 124.071 505.656
1528 0 106.911 13.7778 1473 77.3741 123.921 501.813
1529 1 52.5384 13.3236 700 75.9414 123.926 531.627
1530 0 52.4221 13.067 685 77.9036 123.813 529.965
1531 0 55.5813 14.1415 786 76.2214 123.57 528.522
1532 0 55.587 13.7622 765 78.332 122.942 527.767
1533 0 60.4736 14.9983 907 75.9372 123.388 526.012
1534 0 62.7471 14.407 904 76.3827 123.753 526.277
1535 0 63.276 14.4447 914 77.4168 123.542 525.339
1536 0 63.3544 14.9634 948 76.8618 123.688 524.819
1537 0 64.3967 14.2399 917 78.6194 123.508 522.028
1538 0 67.5472 13.7978 932 79.2843 123.658 520.955
1539 0 68.3915 13.8467 947 79.0137 122.964 523.348
1540 0 71.3823 15.1158 1079 77.5273 122.797 520.096
1541 0 73.4578 15.5327 1141 76.5171 122.946 519.051
1542 0 76.5754 13.3855 1025 79.2898 122.958 519.843
1543 0 79.4249 15.3227 1217 77.0863 123.429 517.225
1544 0 80.616 12.7766 1030 80.9767 123.301 517.615
1545 0 84.4649 15.3437 1296 75.8434 123.504 515.836
1546 0 84.5603 13.2095 1117 80.1808 124.037 514.066
1547 0 88.5104 16.2015 1434 75.5 124.008 512.994
1548 0 93.4521 15.1628 1417 75.6006 123.471 511.983
1549 0 95.4421 14.4486 1379 77.0406 124.059 510.292
1550 0 98.536 14.3095 1410 77.3894 123.806 508.157
1551 0 99.6434 14.6121 1456 77.1662 123.207 504.506
1552 0 105.638 14.209 1501 76.541 123.186 507.559
1553 0 107.394 14.8519 1595 75.7266 123.285 505.216
1554 1 56.5316 13.7799 779 74.7908 122.969 529.098
1555 0 56.3913 13.0517 736 78.1101 122.524 527.527
1556 0 59.4119 14.2901 849 75.7326 122.514 527.587
1557 0 60.2694 13.6222 821 76.7844 123.086 526.477
1558 0 63.5395 14.1644 900 75.2578 122.924 524.939
1559 0 63.3502 12.8492 814 78.7224 122.521 522.724
1560 0 66.4143 14.0783 935 76.7636 123.497 522.296
1561 0 70.3356 14.7009 1034 75.3278 123.639 522.828
1562 0 68.4502 14.6092 1000 76.231 123.027 522.231
1563 0 71.3807 13.7572 982 77.4511 122.57 521.505
1564 0 72.3795 13.374 968 78.4907 123.183 520.961
1565 0 76.3896 17.1097 1307 72.7705 123.171 518.429
1566 0 76.5198 14.2316 1089 77.2479 122.517 516.703
1567 0 78.5012 14.3565 1127 76.6619 122.675 517.455
1568 0 82.6115 14.2232 1175 76.8987 122.871 515.498
1569 0 84.418 14.8191 1251 76.1838 123.135 513.81
1570 0 87.4345 14.1134 1234 76.8655 122.094 511.759
1571 0 91.3907 15.4064 1408 74.2216 122.457 510.315
1572 0 92.4556 14.169 1310 76.1328 123.088 509.743
1573 0 96.3428 15.9119 1533 73.5055 123.509 507.626
1574 0 100.622 14.3408 1443 74.5329 122.741 508.817
1575 0 101.515 14.126 1434 75.5872 123.096 505.957
1576 0 106.413 14.0491 1495 75.9452 123.104 502.967
1577 1 54.4788 14.0238 764 73.8796 122.754 530.499
1578 0 53.2753 12.6137 672 76.7217 122.841 529.662
1579 0 56.3514 14.8 834 74.5108 123.815 528.183
1580 0 55.4057 13.2116 732 78.6995 123.265 524.951
1581 0 58.4343 13.759 804 77.1965 123.754 526.292
1582 0 61.3896 14.4813 889 75.577 124.06 526.91
1583 0 60.5505 14.2195 861 77.3415 123.042 525.432
1584 0 64.4437 15.4088 993 75.3394 123.285 524.345
1585 0 62.4036 13.0441 814 80.4079 123.455 524.543
1586 0 64.4385 13.9358 898 78.6693 124.088 523.098
1587 0 68.4186 15.1567 1037 76.6885 123.673 519.878
1588 0 70.3861 14.5341 1023 77.4262 123.2 520.965
1589 0 71.4888 15.0653 1077 77.3538 122.574 518.986
1590 0 73.5519 14.2484 1048 78.7996 122.69 520.032
1591 0 77.2421 14.9789 1157 77.6854 123.156 517.583
1592 0 78.4831 14.5127 1139 78.5426 123.633 517.458
1593 0 82.3785 15.6716 1291 76.5043 123.817 514.785
1594 0 83.5524 14.3862 1202 79.7263 123.592 511.973
1595 0 87.4004 14.1761 1239 78.4738 123.852 512.932
1596 0 89.422 14.3365 1282 78.8026 123.615 511.168
1597 0 91.4359 13.9333 1274 79.3014 122.976 509.695
1598 0 96.5048 15.0148 1449 77.0794 123.843 508.622
1599 0 97.3321 13.0173 1267 81.296 123.192 505.254
1600 0 102.372 14.0566 1439 78.6268 123.327 504.724
1601 1 51.4661 11.6776 601 79.4676 123.479 528.94
1602 0 55.321 14.2984 791 75.89 122.623 528.534
1603 0 55.3346 11.9816 663 79.5882 123.09 527.38
1604 0 59.3906 15.1876 902 73.9124 123.267 527.356
1605 0 56.2516 12.6574 712 79.2964 122.497 526.607
1606 0 58.4695 12.4338 727 80.2105 123.622 525.667
1607 0 60.3815 13.895 839 78.087 123.508 525.759
1608 0 64.5778 14.7419 952 75.1607 122.58 526.062
1609 0 63.291 13.1614 833 78.8475 123.3 523.824
1610 0 67.3027 15.2743 1028 74.6965 122.839 522.54
1611 0 67.4409 13.0336 879 79.3163 122.958 517.724
1612 0 69.3029 14.2274 986 77.3874 122.587 519.052
1613 0 70.4031 13.5221 952 78.6691 122.862 515.945
1614 0 72.3012 13.5268 978 78.3108 122.95 516.554
1615 0 75.3282 14.2045 1070 76.1374 123.776 517.646
1616 0 81.2262 15.0075 1219 74.3413 122.978 516.482
1617 0 79.2421 13.5534 1074 77.3631 123.047 516.187
1618 0 84.4306 14.1892 1198 76.571 123.417 512.37
1619 0 86.3292 15.0586 1300 75.1992 123.778 512.22
1620 0 89.4566 15.5383 1390 73.6338 123.496 512.235
1621 0 92.444 15.696 1451 74.0028 123.489 509.05
1622 0 93.4066 13.1575 1229 77.3181 123.442 510.159
1623 0 96.4932 13.5657 1309 77.3705 123.072 506.026
1624 0 98.3255 13.3333 1311 77.4333 123.151 505.597
1625 0 103.57 13.8457 1434 76.7957 123.478 506.236
1626 0 105.372 13.1534 1386 78.005 123.336 501.471
1627 0 110.551 15.7845 1745 73.6865 123.223 501.545
1628 0 113.581 13.6203 1547 76.9509 123.096 502.892
1629 0 117.476 15.2883 1796 74.7828 123.144 500.056
1630 1 59.5089 12.7544 759 77.029 122.78 525.324
1631 0 63.4028 13.1855 836 76.1065 122.567 525.567
1632 0 64.3809 13.0629 841 77.9905 123.121 521.316
1633 0 68.2987 15.8861 1085 73.7189 123.843 522.479
1634 0 67.3525 12.5311 844 78.6422 123.281 522.37
1635 0 70.3342 12.8103 901 78.859 123.771 519.075
1636 0 73.3445 14.5342 1066 76.7336 123.972 518.227
1637 0 77.5695 15.0317 1166 75.1278 123.051 519.587
1638 0 76.4779 14.4617 1106 78.8626 123.137 515.122
1639 0 80.4213 13.3795 1076 79.0446 123.236 518.208
1640 0 83.6174 14.1119 1180 78.1068 123.375 515.915
1641 0 85.3931 14.0527 1200 78.19 123.972 514.296
1642 0 89.5167 15.7848 1413 75.6483 123.784 513.651
1643 0 92.5713 15.6096 1445 75.5868 123.657 513.715
1644 0 90.4222 14.0231 1268 79.4582 123.636 509.811
1645 0 95.3937 14.2357 1358 78.3829 123.354 508.542
1646 0 99.3781 14.7819 1469 76.2839 122.653 510.278
1647 0 101.397 14.4087 1461 78.4928 122.702 504.426
1648 1 54.5298 15.3677 838 73.2625 123.1 529.704
1649 0 54.2818 13.6878 743 77.1978 123.346 528.77
1650 0 53.4503 14.5556 778 77.3509 123.749 527.686
1651 0 56.548 14.218 804 76.8383 123.056 527.648
1652 0 57.5081 15.0761 867 76.2803 123.188 527.65
1653 0 57.3522 13.2166 758 80.3061 122.772 526.807
1654 0 58.3766 14.2352 831 78.9868 122.795 526.704
1655 0 59.4684 13.7888 820 78.8012 123.118 527.634
1656 0 60.5339 13.6948 829 80.199 123.222 524.972
1657 0 65.3221 15.6149 1020 76.9824 123.212 524.613
1658 0 64.2896 13.6569 878 80.3212 123.015 523.633
1659 0 66.441 16.3002 1083 76.3786 123.283 523.594
1660 0 67.3151 14.0533 946 81.5032 122.626 520.006
1661 0 70.5948 15.5252 1096 77.9617 122.505 521.749
1662 0 72.5572 14.237 1033 80.2478 122.853 521.132
1663 0 73.407 14.6308 1074 81.3706 123.602 518.522
1664 0 75.8054 14.5636 1104 81.1377 123.19 518.216
1665 0 78.4282 14.9054 1169 80.568 123.077 517.397
1666 0 80.5578 15.2189 1226 79.9046 122.908 517.711
1667 0 81.357 15.4135 1254 79.6587 122.846 517.466
1668 0 85.3481 14.3647 1226 82.0147 123.1 513.724
1669 0 89.5768 15.1155 1354 79.8715 122.907 513.844
1670 0 89.3867 14.152 1265 82.653 122.514 511.573
1671 0 95.404 15.9951 1526 78.2267 122.746 512.539
1672 0 96.4752 15.8486 1529 78.4663 123.012 511.748
1673 0 97.4836 14.6486 1428 81.4566 123.055 508.449
1674 0 103.607 15.7229 1629 78.9607 122.989 507.743
1675 0 106.424 15.8422 1686 79.5747 123.24 505.221
1676 0 106.438 14.4592 1539 82.4964 123.01 504.49
1677 1 55.4562 12.8931 715 82.6308 123.336 527.789
1678 0 56.2981 14.5298 818 79.9364 122.901 527.798
1679 0 56.4833 13.2429 748 83.246 121.897 526.574
1680 0 59.3048 16.1876 960 78.5604 122.323 525.524
1681 0 59.3583 13.966 829 82.0326 122.631 526.444
1682 0 61.4646 14.1219 868 81.2869 122.668 526.7
1683 0 64.5648 14.8223 957 80.3386 122.82 525.985
1684 0 65.5201 14.6367 959 82.8457 122.936 523.704
1685 0 67.4787 14.0785 950 83.2074 123.107 523.678
1686 0 69.7416 14.4677 1009 82.3687 123.449 522.056
1687 0 69.3229 14.7282 1021 83.1459 123.051 522.575
1688 0 72.6786 16.2084 1178 80.6749 123.276 521.532
1689 0 73.706 14.083 1038 83.7322 123.166 521.488
1690 0 74.586 14.3056 1067 84.0572 122.755 520.595
1691 0 77.514 15.0166 1164 83.3591 122.805 518.3
1692 0 79.4424 14.6395 1163 83.6311 123.24 518.451
1693 0 81.392 15.2226 1239 82.9685 123.172 517.478
1694 0 82.4834 15.2152 1255 83.5068 123.125 516.422
1695 0 85.5468 14.8924 1274 83.5691 123.274 515.179
1696 0 88.6039 15.4508 1369 81.5069 122.41 513.79
1697 0 90.5729 15.1259 1370 82.7679 123.115 513.456
1698 0 91.5368 15.1196 1384 83.4227 123.534 510.701
1699 0 93.4126 14.9766 1399 83.1401 122.665 509.345
1700 0 99.2802 15.4814 1537 81.5569 122.774 509.999
1701 0 101.567 14.7489 1498 83.2116 123.447 509.01
1702 0 106.632 15.2581 1627 82.0996 123.314 505.963
1703 0 108.418 15.1451 1642 82.4141 122.592 505.207
1704 0 112.656 14.1581 1595 83.8163 122.549 503.949
1705 0 116.446 15.4063 1794 81.7425 122.416 500.002
1706 0 122.474 15.44 1891 81.6637 123.214 501.02
1707 0 125.43 15.4907 1943 81.315 123.132 500.558
1708 0 131.656 15.6545 2061 80.8996 122.86 495.664
1709 0 134.889 14.5305 1960 82.9888 122.983 493.065
1710 0 138.797 15.3101 2125 81.6569 122.736 492.234
1711 0 142.557 14.1838 2022 83.686 122.031 490.339
1712 0 148.524 15.3847 2285 81.9891 121.674 488.073
1713 1 72.2451 14.6307 1057 85.0038 122.072 520.281
1714 0 74.3867 14.4246 1073 86.0997 122.346 518.893
1715 0 76.3819 15.0297 1148 83.8824 122.147 519.825
1716 0 79.6418 14.6531 1167 85.1345 122.544 518.933
1717 0 81.6195 14.2368 1162 86.3528 122.494 517.559
1718 0 83.5205 14.9065 1245 85.4892 122.798 515.075
1719 0 86.3548 14.7415 1273 85.4336 122.151 514.057
1720 0 87.2437 13.021 1136 88.1699 123.118 513.633
1721 0 90.8447 14.112 1282 87.4329 122.979 509.459
1722 0 95.706 14.9834 1434 84.152 123.515 510.599
1723 0 95.5904 13.9868 1337 86.0322 123.129 511.574
1724 0 99.6889 15.8694 1582 83.2383 123.473 508.396
1725 0 102.397 14.2289 1457 84.7543 123.062 509.962
1726 0 105.624 15.4605 1633 83.8365 122.595 503.635
1727 0 109.618 15.1344 1659 84.1278 122.746 504.69
1728 0 110.602 14.3217 1584 86.6654 123.066 502.683
1729 0 113.63 15.6033 1773 84.7665 122.907 502.512
1730 0 116.626 15.1424 1766 85.2831 123.206 504.301
1731 0 119.549 13.7768 1647 87.8774 122.838 499.599
1732 0 125.616 14.8468 1865 85.7399 123.29 498.6
1733 0 128.704 15.1899 1955 85.6225 122.999 495.213
1734 0 132.295 15.8359 2095 84.2582 122.834 496.273
1735 0 135.815 14.4608 1964 87.1349 122.716 492.253
1736 0 138.552 14.4278 1999 87.8369 123.026 488.695
1737 0 144.525 14.136 2043 86.7753 123.18 490.615
1738 0 148.533 13.5929 2019 89.0847 122.975 484.259
1739 0 152.622 12.8226 1957 89.7087 123.057 484.138
1740 0 158.519 13.7523 2180 89.4454 123.333 479.554
1741 1 81.4069 13.7089 1116 87.1147 123.124 514.46
1742 0 84.4811 13.9795 1181 85.7062 122.948 513.931
1743 0 86.3581 13.5714 1172 86.4693 123.305 511.921
1744 0 87.6199 13.0564 1144 86.1888 122.839 514.973
1745 0 90.5263 11.6762 1057 88.2337 123.775 511.853
1746 0 94.6399 14.5499 1377 84.6238 123.431 509.873
1747 0 96.5648 14.788 1428 83.6113 122.639 510.681
1748 0 100.545 15.1276 1521 82.8383 122.597 508.045
1749 0 101.431 14.9067 1512 84.6587 122.429 503.425
1750 0 105.787 15.4651 1636 82.695 122.802 505.792
1751 0 108.686 15.945 1733 82.6526 123.035 503.503
1752 0 112.53 14.8405 1670 83.6635 123.154 505.309
1753 0 118.691 13.3119 1580 85.774 122.941 503.676
1754 0 118.56 14.0351 1664 85.7398 123.195 501.599
1755 0 121.994 13.8368 1688 85.4461 122.898 501.844
1756 0 119.713 12.296 1472 87.8281 123.145 503.135
1757 0 120.554 11.92 1437 89.0216 122.741 501.064
1758 1 132.889 14.5686 1936 86.1823 122.924 492.988
1759 0 136.695 14.3093 1956 86.525 123.121 491.073
1760 0 138.627 14.3695 1992 86.2304 123.546 493.864
1761 0 144.901 15.8936 2303 84.5528 123.848 490.437
1762 0 148.757 14.9304 2221 86.0324 123.596 488.32
1763 0 150.568 12.7517 1920 89.726 124.086 486.593
1764 0 153.339 13.8712 2127 89.4965 123.617 485.846
1765 0 155.762 14.0214 2184 87.7701 123.245 490.698
1766 0 163.835 14.3804 2356 88.4359 123.075 484.283
1767 0 168.764 15.6076 2634 86.7582 123.238 481.488
1768 0 171.557 14.1994 2436 89.6043 123.726 477.525
1769 0 177.765 15.3236 2724 87.8554 124.074 472.937
1770 0 184.057 15.2398 2805 87.943 124.092 472.106
1771 0 187.822 14.7267 2766 88.4132 123.451 471.663
1772 0 192.64 14.5971 2812 89.6892 123.04 469.935
1773 1 150.01 14.639 2196 90.021 123.351 485.302
1774 0 155.999 16.0001 2496 88.2352 123.528 482.482
1775 0 158.661 14.6602 2326 90.1148 123.276 481.593
1776 0 163.518 15.668 2562 88.8923 122.593 480.132
1777 0 168.743 15.8703 2678 88.0489 123.62 481.344
1778 0 172.936 14.5372 2514 90.9316 123.331 477.025
1779 0 178.562 15.6752 2799 89.4512 122.765 474.123
1780 0 183.803 15.3044 2813 90.0704 122.672 469.351
1781 0 189.821 15.5041 2943 89.8586 123.028 468.517
1782 0 193.711 14.754 2858 91.7621 123.336 465.304
1783 0 201.888 15.261 3081 90.5988 123.198 465.409
1784 0 206.73 15.571 3219 90.4765 122.972 460.666
1785 0 212.981 15.1656 3230 92.4975 123.343 457.189
1786 0 221.233 15.9289 3524 91.3096 123.571 455.128
1787 0 224.739 15.0218 3376 93.1481 123.295 451.087
1788 0 235.099 14.6492 3444 93.002 122.984 447.817
1789 0 238.768 13.8252 3301 94.3929 122.293 446.303
1790 0 246.789 14.6562 3617 92.5082 122.61 443.844
1791 0 256.123 13.6887 3506 94.5177 122.886 439.214
1792 1 175.71 13.9149 2445 92.8339 123.128 476.336
1793 0 181.045 13.1901 2388 93.2425 122.713 474.311
1794 0 180.964 12.6655 2292 93.4542 123.297 477.295
1795 1 192.754 14.4951 2794 91.2695 122.602 467.514
1796 0 199.574 14.5159 2897 90.2133 122.213 463.143
1797 0 203.696 12.8918 2626 92.9238 122.781 460.941
1798 1 140.665 13.166 1852 90.8872 122.688 492.625
1799 0 146.726 13.5286 1985 90.9995 122.131 486.476
1800 0 148.764 13.4441 2000 91.387 122.462 482.976
1801 0 154.664 14.1016 2181 90.7327 123.129 481.923
1802 0 164.703 15.0574 2480 88.1879 122.82 481.309
1803 0 169.747 14.0444 2384 90.1317 122.67 478.218
1804 0 174.879 14.673 2566 88.4875 123.137 476.849
1805 0 178.727 13.7081 2450 90.7678 122.659 471.616
1806 0 185.757 13.5715 2521 91.4728 123.123 467.004
1807 0 192.704 14.5405 2802 88.9015 122.478 466.02
1808 0 196.554 14.2099 2793 89.9517 123.282 464.339
1809 0 204.812 14.7989 3031 87.8179 123.753 463.096
1810 1 54.4647 13.2379 721 86.1137 123.685 529.409
1811 0 57.6755 13.4372 775 85.2219 122.277 527.155
1812 0 57.6162 14.5272 837 84.552 123.431 526.278
1813 0 59.8437 14.1535 847 85.2385 122.907 526.73
1814 0 61.7308 14.6604 905 85.0519 123.292 525.501
1815 0 63.515 14.3588 912 85.1886 123.252 526.681
1816 0 63.4062 13.8788 880 86.5932 123.181 524.792
1817 0 66.3985 14.413 957 86.1055 123.26 524.289
1818 0 67.3469 13.7349 925 87.413 123.358 523.385
1819 0 69.5836 13.4227 934 87.0278 123.355 523.874
1820 0 70.6748 12.7061 898 89.2639 122.706 523.102
1821 0 74.5329 14.2487 1062 86.0405 123.627 521.558
1822 0 74.6542 13.7568 1027 86.9815 122.843 520.413
1823 0 78.4954 14.4594 1135 85.8546 123.306 517.318
1824 0 80.6678 14.5659 1175 85.6043 122.635 517.968
1825 0 83.5539 14.5535 1216 84.9515 122.021 518.174
1826 0 84.7583 14.3821 1219 86.37 122.185 513.639
1827 0 87.7223 13.8961 1219 86.8294 122.623 514.388
1828 0 91.3384 15.0101 1371 84.5405 122.048 513.386
1829 0 92.5036 13.5346 1252 87.0463 122.556 512.612
1830 0 96.3669 15.3165 1476 84.3049 122.789 509.688
1831 0 100.507 14.6159 1469 84.938 122.783 506.736
1832 1 54.4094 12.9941 707 84.4413 122.748 530.689
1833 0 56.429 13.7518 776 83.9858 122.08 528.415
1834 0 55.6314 13.6793 761 85.3522 122.361 528.44
1835 0 58.3741 13.8075 806 84.2767 122.274 526.773
1836 0 61.4108 12.8967 792 84.6124 122.434 528.037
1837 0 62.3731 13.772 859 84.5111 122.723 523.882
1838 0 64.7028 13.5388 876 85.2922 122.743 523.812
1839 0 66.5248 14.7765 983 81.7996 122.799 524.663
1840 0 70.6141 15.2236 1075 80.0874 122.347 522.569
1841 0 73.273 14.6848 1076 80.1245 121.739 521.117
1842 0 72.6322 13.3412 969 82.9133 122.184 519.199
1843 0 77.58 14.5914 1132 79.5071 122.461 519.576
1844 0 79.5834 15.3298 1220 78.7336 122.716 517.638
1845 0 80.5297 14.2804 1150 80.3156 122.689 516.521
1846 0 83.467 14.353 1198 79.4165 121.879 514.613
1847 0 86.4851 15.0893 1305 78.3188 122.467 513.016
1848 0 89.5697 15.206 1362 78.0169 122.642 511.816
1849 0 93.4743 14.282 1335 79.1311 122.202 511.008
1850 0 94.5507 15.1876 1436 77.6107 122.181 509.122
1851 0 101.428 15.824 1605 75.6411 122.31 508.926
1852 0 103.648 15.7552 1633 76.237 122.307 506.474
1853 0 106.509 14.2523 1518 78.6798 122.131 506.238
1854 1 53.6436 15.081 809 74.9036 122.176 529.776
1855 0 54.5959 13.3343 728 77.1882 122.405 529.457
1856 0 55.3798 14.6082 809 76.5587 122.865 527.25
1857 0 56.4392 14.1214 797 77.8896 122.481 527.867
1858 0 59.3429 13.6663 811 78.2195 122.385 526.474
1859 0 60.3699 15.5376 938 75.6269 121.936 525.284
1860 0 62.3993 15.4489 964 75.249 121.725 525.6
1861 0 63.4012 12.9651 822 77.955 121.849 526.85
1862 0 64.521 15.2198 982 75.9409 122.138 524.159
1863 0 67.8194 15.3054 1038 76.1686 122.238 520.348
1864 0 68.4514 14.6235 1001 76.8462 122.317 523.254
1865 0 68.5432 14.9103 1022 77.408 122.053 521.45
1866 0 71.5888 14.8487 1063 76.4017 122.083 521.065
1867 0 73.6719 15.6776 1155 74.9879 121.23 520.564
1868 0 75.4663 14.4568 1091 76.8873 121.708 518.597
1869 0 75.565 13.7365 1038 78.3651 122.261 517.439
1870 0 80.4792 13.8918 1118 78.1064 122.214 516.784
1871 0 81.7707 13.9047 1137 77.803 122.407 516.101
1872 0 87.5908 13.8827 1216 76.3956 122.363 516.488
1873 0 86.6597 14.4935 1256 77.0717 121.967 512.193
1874 0 92.4935 15.32 1417 74.7241 122.028 510.582
1875 0 94.5791 15.6483 1480 73.4986 122.329 511.814
1876 0 96.7071 14.1665 1370 76.227 122.359 509.082
1877 0 99.7053 13.7706 1373 76.2396 121.942 507.624
1878 0 104.675 16.8331 1762 71.6538 122.011 506.757
1879 0 106.555 14.8374 1581 75.3403 121.465 502.853
1880 0 109.543 14.2774 1564 75.7973 121.939 504.365
1881 0 111.645 15.0567 1681 74.6788 121.644 503.18
1882 0 116.362 15.6494 1821 73.592 121.775 500.364
1883 1 61.3883 12.9829 797 75.9661 122.049 526.033
1884 0 63.4706 14.2271 903 75.0089 121.929 524.175
1885 0 64.3906 14.4897 933 75.388 121.72 523.996
1886 0 64.4098 12.8707 829 77.4065 122 524.853
1887 0 69.3797 14.817 1028 75.6167 121.556 522.624
1888 0 70.5883 14.8183 1046 76.4455 121.421 520.379
1889 0 72.4657 14.2274 1031 76.9001 121.522 519.441
1890 0 74.3669 14.5226 1080 76.5343 121.934 519.124
1891 0 76.5039 15.5417 1189 75.275 122.351 518.045
1892 0 78.3584 14.204 1113 78.1105 121.895 516.766
1893 0 79.3702 14.7663 1172 77.1092 121.898 517.224
1894 0 81.4889 15.2904 1246 78.8242 122.22 514.035
1895 0 83.4417 13.5064 1127 81.9237 121.951 514.983
1896 0 85.4107 14.0849 1203 80.6708 122.209 514.496
1897 0 90.481 13.9808 1265 80.6158 122.511 512.851
1898 0 92.3634 15.6447 1445 78.2713 122.398 510.82
1899 0 95.7406 13.9335 1334 81.2729 122.457 509.14
1900 0 100.575 15.0633 1515 78.3096 122.39 509.053
1901 0 102.725 15.5074 1593 77.8154 122.065 507.089
1902 0 106.584 15.3869 1640 78.1262 122.112 505.366
1903 0 107.386 13.5958 1460 81.6774 122.151 502.803
1904 0 111.489 14.6651 1635 79.8367 122.865 500.338
1905 0 117.941 15.211 1794 78.0418 122.198 498.041
1906 0 119.602 14.5231 1737 79.5124 122.641 495.579
1907 0 124.575 15.308 1907 78.0451 122.329 492.85
1908 0 129.67 14.614 1895 77.9456 122.44 492.843
1909 0 133.424 14.8249 1978 77.6749 122.694 491.332
1910 0 136.47 14.5527 1986 78.4496 123.496 487.468
1911 0 140.458 13.634 1915 79.8376 123.316 486.322
1912 0 146.482 14.3499 2102 77.481 122.936 484.539
1913 0 150.866 13.8533 2090 77.9072 122.484 486.171
1914 1 56.5695 12.8515 727 74.7607 122.982 527.937
1915 0 56.5653 13.1353 743 76.1763 122.419 524.423
1916 0 58.5391 12.8974 755 75.9007 122.574 525.201
1917 0 59.6201 13.1499 784 76.6314 122.829 522.665
1918 0 63.5395 14.5736 926 73.9039 122.378 521.958
1919 0 62.5754 14.5265 909 74.0858 122.523 524.227
1920 0 66.5696 15.8481 1055 72.1886 123.25 521.816
1921 0 67.4878 15.1435 1022 73.5274 123.233 520.872
1922 0 69.7453 14.0655 981 74.7472 123.193 520.638
1923 0 72.569 14.8824 1080 72.9787 122.987 520.301
1924 0 73.6943 14.1666 1044 73.8563 123.3 520.882
1925 0 75.4847 14.5725 1100 73.7836 122.841 518.005
1926 0 78.6223 14.3852 1131 73.3466 123.662 518.667
1927 0 80.5418 14.5266 1170 72.6308 123.265 517.898
1928 0 84.6131 13.2013 1117 73.9687 123.505 515.581
1929 0 87.6214 13.5697 1189 73.3103 123.073 514.841
1930 0 90.5449 15.1417 1371 70.8009 122.327 513.044
1931 0 92.6091 13.53 1253 72.8587 122.887 513.401
1932 0 95.7532 14.2972 1369 71.9547 122.582 510.867
1933 0 98.4371 13.6128 1340 72.5261 122.207 509.881
1934 0 103.611 15.2494 1580 70.0399 122.469 509.375
1935 0 104.731 15.7642 1651 69.8383 121.867 508.417
1936 0 109.796 13.8166 1517 71.8299 121.392 506.473
1937 0 112.519 14.1398 1591 71.9899 121.781 504.238
1938 0 117.487 14.7165 1729 70.5645 120.912 503.227
1939 0 119.513 14.3416 1714 71.0583 120.549 503.456
1940 0 124.467 15.0802 1877 70.2403 120.515 500.231
1941 0 127.806 14.8193 1894 70.2492 120.492 500.472
1942 0 131.549 13.896 1828 71.7757 120.416 498.207
1943 0 133.967 13.4809 1806 72.6368 120.043 496.458
1944 0 140.82 14.2948 2013 70.8644 120.708 494.762
1945 1 79.5762 13.1572 1047 72.5253 120.628 524.181
1946 0 82.4626 13.6547 1126 73.2274 120.371 518.496
1947 0 82.5372 12.3459 1019 74.5947 120.271 517.585
1948 0 85.5678 12.2827 1051 74.8192 119.712 516.812
1949 0 89.505 13.5858 1216 72.6012 119.623 516.4
1950 0 92.4267 14.3898 1330 72.1714 119.526 511.986
1951 0 94.7438 13.8162 1309 72.4591 119.649 513.484
1952 0 99.5256 14.6897 1462 70.9843 119.639 511.285
1953 0 101.548 14.1509 1437 72.2352 119.169 510.187
1954 0 104.413 15.295 1597 70.211 119.386 510.509
1955 0 107.433 15.1536 1628 71.2451 119 505.343
1956 0 109.72 14.7375 1617 71.6135 119.397 506.194
1957 0 112.35 13.5025 1517 74.0191 119.827 500.617
1958 0 116.696 14.1307 1649 71.8223 119.941 503.36
1959 0 118.445 14.6904 1740 71.7448 120.018 498.241
1960 0 124.517 16.2227 2020 69.1733 120.818 499.502
1961 0 129.297 15.476 2001 69.3783 120.096 496.749
1962 0 134.748 16.6013 2237 67.5642 120.599 495.146
1963 1 68.6022 14.7226 1010 70.4426 120.242 522.266
1964 0 70.5444 14.0479 991 70.3098 120.669 523.957
1965 0 72.5359 14.9719 1086 70.3738 120.748 519.472
1966 0 75.4153 13.4853 1017 70.4572 121.246 522.124
1967 0 77.6424 15.8805 1233 68.0819 121.992 517.946
1968 0 78.3278 15.0777 1181 69.6867 121.599 518.246
1969 0 80.4623 14.28 1149 70.5518 120.599 516.811
1970 0 83.392 13.9822 1166 70.1947 121.165 517.491
1971 0 84.4152 14.7248 1243 70.0708 120.969 517.292
1972 0 86.5963 15.7743 1366 68.8843 121.348 513.78
1973 0 89.7093 14.7142 1320 70.225 121.74 512.19
1974 0 92.7655 15.5769 1445 69.0443 121.815 512.415
1975 0 92.6553 13.8794 1286 71.5381 122.285 511.713
1976 0 97.6613 15.3592 1500 69.4373 122.085 508.951
1977 0 101.047 14.3003 1445 70.8277 121.373 507.346
1978 0 101.728 15.2465 1551 70.1315 121.423 503.698
1979 0 105.684 14.7042 1554 70.0109 122.001 506.659
1980 0 111.643 16.3109 1821 68.4404 122.559 501.384
1981 0 113.567 15.6471 1777 69.1874 121.847 501.152
1982 0 116.559 14.5077 1691 70.8338 122.519 497.799
1983 0 120.58 15.4171 1859 69.972 122.959 497.097
1984 0 126.491 15.9458 2017 68.7095 122.335 494.143
1985 0 128.663 16.0808 2069 69.6771 122.735 493.238
1986 0 133.681 13.9661 1867 72.0161 122.127 488.712
1987 0 139.716 14.5796 2037 70.7192 121.883 490.477
1988 1 63.5467 13.3917 851 70.7497 122.235 521.152
1989 0 64.6357 12.4854 807 72.6729 122.156 519.825
1990 0 68.5998 13.9651 958 69.9071 122.873 521.503
1991 0 66.3023 11.6286 771 75.5707 122.589 515.03
1992 0 70.8193 13.6121 964 72.0643 122.996 518.677
1993 0 72.6259 13.8243 1004 71.9163 122.379 518.304
1994 0 72.4619 14.3662 1041 72.6455 122.158 515.868
1995 0 74.8265 14.5403 1088 72.364 122.974 517.23
1996 0 75.4396 14.7933 1116 72.802 123.395 516.343
1997 0 77.5099 13.3144 1032 75.5766 123.372 514.288
1998 0 80.1254 14.7144 1179 73.6209 123.096 514.506
1999 0 81.6151 14.4581 1180 73.2907 123.35 515.986
2000 0 82.6201 15.5894 1288 72.9301 122.885 512.31
2001 0 84.4415 14.9926 1266 73.7204 122.769 511.874
2002 0 86.8876 14.9043 1295 73.4039 122.97 512.572
2003 0 88.9195 14.9461 1329 74.0926 122.628 510.914
2004 0 88.4894 13.6966 1212 76.0231 122.384 512.323
2005 0 93.8061 15.9052 1492 73.374 122.779 510.174
2006 0 93.891 14.1015 1324 76.4207 122.722 506.748
2007 0 98.8247 15.0671 1489 75.5715 123.031 503.777
2008 0 101.35 14.5733 1477 76.3412 122.603 505.551
2009 0 102.717 13.6881 1406 79.1245 122.087 498.777
2010 0 108.482 15.0163 1629 75.6427 122.285 503.777
2011 0 111.438 15.0667 1679 76.5021 121.81 500.628
2012 0 112.519 14.6997 1654 78.1203 122.816 496.808
2013 0 114.57 15.0476 1724 78.5934 123.066 494.147
2014 0 120.462 14.5108 1748 78.4399 122.145 494.927
2015 0 124.383 15.0262 1869 78.0508 122.274 495.035
2016 0 125.783 14.9543 1881 78.4928 122.171 492.628
2017 0 131.447 14.6447 1925 79.4104 122.324 488.905
2018 0 134.427 14.3126 1924 79.407 122.47 491.266
2019 0 137.437 13.2788 1825 82.6241 122.414 484.005
2020 0 142.564 14.162 2019 81.0624 122.553 485.201
2021 0 148.886 15.1122 2250 80.0871 122.034 482.484
2022 0 151.349 14.7276 2229 80.0233 121.73 485.159
2023 0 156.667 16.1234 2526 78.7969 122.268 481.143
2024 0 160.476 14.0146 2249 82.7461 122.246 477.123
2025 0 165.562 15.4504 2558 81.1615 122.206 473.92
2026 0 168.429 13.2282 2228 84.2123 122.273 473.785
2027 0 176.638 14.9798 2646 81.8277 122.172 470.9
2028 0 180.503 13.828 2496 83.7011 121.922 469.224
2029 0 187.515 15.2521 2860 82.4437 121.844 464.922
2030 0 192.837 14.4526 2787 83.329 121.649 465.629
2031 0 199.615 14.6131 2917 83.9482 122.226 461.401
2032 0 204.7 14.3869 2945 84.6044 122.47 460.07
2033 0 210.53 14.986 3155 84.5442 121.93 454.845
2034 0 216.779 15.6519 3393 84.0522 122.022 449.76
2035 0 224.817 14.6163 3286 85.6077 121.631 450.204
2036 0 231.763 15.011 3479 85.0026 121.498 445.785
2037 0 238.611 14.3623 3427 86.5287 122.207 447.58
2038 0 245.759 14.7624 3628 86.1929 121.785 438.21
2039 0 252.822 15.0027 3793 86.5576 121.925 437.374
2040 0 261.851 14.619 3828 86.7704 122.103 436.225
2041 1 195.755 14.4569 2830 87.3244 121.662 468.845
2042 0 201.698 14.8787 3001 87.5475 121.265 462.313
2043 0 207.672 14.2773 2965 88.6921 120.42 460.352
2044 1 138.923 13.7342 1908 87.4502 120.973 491.895
2045 0 142.701 13.4056 1913 88.6675 121.151 489.544
2046 0 146.664 14.3593 2106 86.4554 121.342 489.288
2047 0 151.589 13.6421 2068 87.176 120.751 489.088
2048 0 155.523 12.4419 1935 89.0579 120.719 486.379
2049 0 162.973 14.5055 2364 85.4695 121.109 481.81
2050 0 167.725 14.2138 2384 85.4941 121.117 480.7
2051 0 172.414 15.0916 2602 84.1303 120.838 477.433
2052 0 176.608 13.0458 2304 87.5833 120.35 474.378
2053 1 132.482 14.0169 1857 87.3581 120.632 495.519
2054 0 137.585 13.766 1894 87.2904 120.622 495.231
2055 0 142.62 15.4186 2199 85.1251 120.494 489.38
2056 0 144.627 14.2436 2060 87.0403 120.799 488.8
2057 1 93.5768 14.2984 1338 86.7205 120.887 511.766
2058 0 96.5339 14.9688 1445 86.4761 120.491 507.987
2059 0 99.3605 13.4057 1332 88.0683 121.043 509.701
2060 0 102.591 14.8843 1527 89.6994 120.542 504.961
2061 0 104.463 13.7943 1441 91.2734 120.321 506.852
2062 0 108.578 15.0767 1637 89.8766 120.86 502.888
2063 0 113.49 15.1202 1716 89.4178 120.977 500.482
2064 0 115.633 14.52 1679 89.9035 120.754 501.861
2065 0 122.778 15.4262 1894 87.6066 120.991 497.673
2066 0 125.629 14.5588 1829 89.5872 120.815 496.09
2067 1 65.6636 11.6503 765 91.8497 121.252 523.06
2068 0 68.559 13.3753 917 88.6456 119.933 524.193
2069 0 72.6299 14.3742 1044 86.7481 120.123 522.153
2070 0 73.9697 13.7489 1017 87.5674 120.668 522.146
2071 0 76.2099 13.9614 1064 87.5893 121.513 521.82
2072 0 74.5953 13.5531 1011 90.2967 120.671 517.62
2073 0 77.5236 13.6604 1059 90.204 120.737 516.788
2074 0 79.7643 12.8002 1021 91.6836 120.666 516.1
2075 0 83.7366 14.677 1229 87.8771 120.199 516.951
2076 0 83.4869 14.9005 1244 87.0096 120.099 516.045
2077 0 87.7469 15.6359 1372 85.6531 119.665 513.289
2078 0 88.6403 14.2373 1262 88.6054 120.519 513.155
2079 0 90.368 14.3856 1300 88.3692 120.398 511.6
2080 0 92.3084 13.7366 1268 89.761 120.666 511.312
2081 0 96.4173 14.0846 1358 89.056 121.002 509.692
2082 0 100.506 14.9344 1501 87.3058 121.211 509.137
2083 0 101.594 14.115 1434 88.8954 119.992 508.139
2084 0 104.648 13.4833 1411 90.2736 120.461 505.696
2085 0 106.615 14.6227 1559 88.6588 120.112 501.886
2086 0 111.455 14.4633 1612 88.0868 120.197 501.421
2087 0 116.467 14.8798 1733 86.3393 120.445 503.038
2088 0 119.923 14.4009 1727 87.9375 121.025 497.269
2089 0 122.56 13.9768 1713 87.9726 120.914 499.007
2090 0 127.747 14.8027 1891 86.2713 121.117 496.706
2091 0 131.765 14.7459 1943 86.5697 120.428 492.957
2092 0 135.478 14.7994 2005 86.9776 120.68 491.264
2093 1 67.738 14.4232 977 84.8076 120.922 523.496
2094 0 68.466 13.3643 915 88.235 120.17 519.883
2095 0 70.401 14.3748 1012 85.2115 120.919 520.917
2096 0 73.673 13.8042 1017 85.5526 120.489 522.158
2097 0 76.5114 14.1809 1085 85.6028 120.42 519.566
2098 0 76.4383 12.2713 938 88.6269 119.747 519.438
2099 0 78.6484 12.7148 1000 88.445 120.431 516.741
2100 0 82.7433 13.8984 1150 86.4983 120.936 515.605
2101 0 85.9479 13.4384 1155 86.9844 121.439 515.561
2102 0 87.8071 14.6457 1286 85.028 121.099 514.342
2103 0 88.5271 15.1027 1337 84.5333 120.839 511.521
2104 0 91.6658 13.7674 1262 86.0634 120.712 512.91
2105 0 95.6472 15.3481 1468 83.5102 120.486 510.522
2106 0 99.4976 15.5783 1550 82.98 120.779 507.431
2107 0 100.655 15.5284 1563 83.2572 120.756 508.402
2108 0 104.696 14.9575 1566 83.5051 121.047 506.477
2109 0 108.775 15.7757 1716 81.6404 121.084 506.411
2110 0 112.633 13.9924 1576 84.5945 120.274 503.85
2111 0 113.644 13.815 1570 85.5204 120.12 501.104
2112 0 119.625 14.1525 1693 84.7135 120.605 498.301
2113 1 65.4592 12.5727 823 85.6938 120.362 522.468
2114 0 65.7014 12.2981 808 86.4554 120.748 521.127
2115 0 67.6403 12.8474 869 86.0265 120.824 521.504
2116 0 71.5073 13.621 974 84.7669 121.011 520.456
2117 0 74.8432 14.0694 1053 83.2317 119.889 520.843
2118 0 75.5527 13.5667 1025 84.8449 119.879 518.702
2119 0 79.995 16.026 1282 80.0616 120.291 518.74
2120 0 80.589 14.2079 1145 83.7991 120.956 518.4
2121 0 82.9141 14.9191 1237 83.1237 120.289 515.624
2122 0 84.5111 14.5188 1227 83.0041 120.375 517.795
2123 0 86.4283 15.0529 1301 83.6687 120.521 512.638
2124 0 89.4864 14.1362 1265 83.8356 119.732 514.614
2125 0 92.3394 14.6308 1351 84.037 120.475 511.961
2126 0 95.6484 16.0275 1533 81.6504 120.387 510.865
2127 0 98.6358 13.9807 1379 83.9572 120.343 510.126
2128 0 100.711 14.1096 1421 83.6925 120.153 508.927
2129 0 103.657 16.4968 1710 80.4643 120.48 502.779
2130 0 107.468 15.1022 1623 82.3919 120.631 503.587
2131 0 109.464 15.0644 1649 82.3529 120.143 502.759
2132 0 113.595 14.4989 1647 83.2453 120.277 497.332
2133 0 119.382 15.4378 1843 80.9913 120.114 497.692
2134 0 120.281 14.3165 1722 82.7968 120.012 498.701
2135 0 123.731 14.2568 1764 82.7307 120.749 495.982
2136 0 129.78 15.2181 1975 80.1347 120.387 494.794
2137 0 135.682 13.738 1864 82.4002 120.258 490.474
2138 0 136.533 14.2017 1939 81.8252 120.229 489.758
2139 1 73.3689 13.8206 1014 79.7968 120.511 521.386
2140 0 77.5621 12.5706 975 82.4462 120.517 517.562
2141 0 78.6248 13.9396 1096 80.3412 120.695 518.334
2142 0 82.5872 14.2395 1176 80.1139 121.36 514.545
2143 0 83.4092 13.5717 1132 80.447 120.328 515.948
2144 0 87.5388 14.3251 1254 79.7329 120.797 512.452
2145 0 91.1877 14.7937 1349 70.321 119.971 516.206
2146 0 91.2855 13.6495 1246 80.4936 120.231 514.451
2147 0 95.3472 14.9873 1429 78.5941 120.062 511.046
2148 0 96.6635 14.5556 1407 80.7321 120.107 508.146
2149 0 101.739 15.6184 1589 77.9748 120.418 508.559
2150 0 102.358 15.2894 1565 78.8677 120.153 509.058
2151 0 103.384 14.6638 1516 80.7467 120.179 505.675
2152 0 107.493 14.6149 1571 80.2985 120.351 503.143
2153 0 112.463 14.3247 1611 80.4029 120.338 501.236
2154 0 116.514 14.0498 1637 80.7538 119.911 501.456
2155 0 121.535 13.9795 1699 79.6651 119.659 498.77
2156 0 120.533 13.2827 1601 81.9925 118.773 494.726
2157 0 127.485 13.8526 1766 80.4213 118.972 491.537
2158 0 135.736 15.5596 2112 76.0028 119.675 493.661
2159 1 71.5765 12.546 898 79.2517 119.773 521.247
2160 0 72.4853 15.0927 1094 77.2029 119.558 518.19
2161 0 73.3375 13.4583 987 79.6586 119.314 517.259
2162 0 77.4523 14.3572 1112 76.8759 118.88 520.315
2163 0 78.5082 12.8522 1009 79.7512 119.574 517.139
2164 0 81.3572 15.4504 1257 75.564 119.808 516.533
2165 0 82.473 14.3562 1184 77.5684 119.8 515.123
2166 0 87.5798 15.7 1375 74.8065 119.938 514.764
2167 0 88.7678 13.6198 1209 78.7345 120.32 513.851
2168 0 91.3977 15.9194 1455 75.4536 120.394 511.086
2169 0 93.9768 16.4189 1543 74.5288 119.883 511.09
2170 0 96.6334 14.4877 1400 77.3621 119.956 510.234
2171 0 101.603 15.3145 1556 75.6208 119.912 507.846
2172 0 103.668 14.2957 1482 77.3273 119.901 504.645
2173 0 106.624 14.2745 1522 76.8811 119.787 503.614
2174 0 110.556 15.404 1703 74.8978 119.754 503.198
2175 0 114.684 14.8669 1705 74.6586 119.902 504.008
2176 0 116.617 16.1211 1880 73.9755 120.016 496.399
2177 0 121.744 16.9618 2065 72.2203 119.933 499.569
2178 1 65.3258 11.8636 775 78.5097 119.835 522.507
2179 0 65.5018 13.0836 857 77.2462 120.608 522.594
2180 0 67.7699 13.1474 891 77.7621 120.24 522.144
2181 0 69.8719 12.7948 894 78.2394 119.937 518.714
2182 0 74.8648 14.4394 1081 74.8483 120.648 519.983
2183 0 73.5379 14.9175 1097 74.8742 120.569 519.808
2184 0 76.463 15.6154 1194 74.2228 120.072 515.78
2185 0 78.9804 13.573 1072 77.1632 119.515 516.69
2186 0 82.371 13.6213 1122 76.2567 120.226 516.687
2187 0 84.7035 13.5414 1147 76.5065 119.667 514.952
2188 0 86.4615 15.4404 1335 73.8434 120.075 515.148
2189 0 88.6874 14.6695 1301 74.9485 120.637 513.887
2190 0 90.8107 16.9694 1541 71.9325 120.097 511.566
2191 0 94.5632 15.3231 1449 74.185 120.406 511.087
2192 0 96.6696 14.3168 1384 75.8165 119.96 508.982
2193 0 97.6386 13.9596 1363 76.9692 119.766 505.804
2194 0 101.582 15.3374 1558 74.1264 119.681 506.67
2195 0 103.766 14.1279 1466 76.3997 120.072 503.518
2196 0 109.95 14.3884 1582 74.8028 119.819 503.653
2197 0 110.67 13.0206 1441 76.7391 119.436 503.92
2198 0 115.559 13.7765 1592 76.3624 119.626 501.506
2199 1 58.8439 11.658 686 77.4985 120.694 525.023
2200 0 60.7513 13.2508 805 75.2087 120.108 525.838
2201 0 63.7076 13.9544 889 74.9494 119.839 524.766
2202 0 63.984 13.1283 840 76.2357 119.781 524.59
2203 0 66.6933 14.0644 938 75.4797 119.836 522.32
2204 0 67.8277 13.4753 914 76.232 119.993 521.418
2205 0 70.2923 15.9904 1124 63.9235 118.428 522.019
2206 0 71.4879 14.9536 1069 75.1787 119.691 519.974
2207 0 75.8683 15.3819 1167 73.3642 120.051 522.094
2208 0 74.4891 12.7133 947 79.1447 119.973 518.984
2209 0 76.8408 14.4715 1112 76.7392 119.807 519.455
2210 0 79.6395 13.875 1105 77.829 119.957 516.96
2211 0 82.7368 14.806 1225 76.3935 120.201 517.08
2212 0 82.0404 12.7986 1050 80.6105 119.268 515.198
2213 0 83.7643 14.5527 1219 78.6161 119.133 514.824
2214 0 86.0398 14.8187 1275 78.5937 119.828 514.265
2215 0 88.7208 15.8137 1403 76.8831 119.634 514.015
2216 0 92.632 14.8761 1378 78.6647 119.832 513.8
2217 0 94.8458 14.8557 1409 79.2725 119.603 508.783
2218 0 99.0289 15.9145 1576 76.5533 119.503 510.126
2219 0 100.89 14.2333 1436 79.1518 119.833 508.688
2220 0 102.645 14.3992 1478 79.9269 119.279 506.122
2221 0 103.157 14.7349 1520 79.8112 119.439 507.743
2222 0 103.985 12.7133 1322 84.5446 119.56 502.66
2223 0 105.484 14.5045 1530 82.2739 119.693 503.48
2224 0 110.41 12.7977 1413 83.477 120.061 501.698
2225 0 115.445 15.9556 1842 78.1336 121.003 497.658
2226 0 120.751 14.2856 1725 79.8452 119.484 498.812
2227 0 123.739 14.5306 1798 79.866 120.051 495.781
2228 0 127.597 13.8091 1762 81.4183 120.019 494.898
2229 1 65.4314 13.1588 861 81.2416 120.094 519.429
2230 0 69.5114 11.4801 798 84.1566 120.393 519.41
2231 0 73.6464 13.2797 978 81.7342 120.945 519.434
2232 0 73.7523 13.1657 971 82.7291 120.265 517.589
2233 0 76.8294 13.2762 1020 82.0931 120.636 519.271
2234 0 82.0886 14.2285 1168 80.8408 120.103 516.99
2235 0 80.5216 14.195 1143 82.7935 120.512 516.505
2236 0 84.9661 13.6407 1159 82.9707 120.301 514.665
2237 0 85.6447 13.2875 1138 84.4358 120.637 512.891
2238 0 87.8783 14.247 1252 82.9904 121.2 512.949
2239 0 88.6338 12.4783 1106 86.3761 120.639 510.656
2240 0 93.4231 15.1354 1414 81.454 121.01 511.115
2241 0 95.6188 14.3905 1376 82.4092 121.118 510.448
2242 0 99.727 15.3318 1529 81.1733 121.859 510.323
2243 0 101.451 15.8106 1604 80.4077 120.883 508.633
2244 0 104.699 14.728 1542 82.4799 120.278 506.68
2245 0 108.782 14.7818 1608 81.3993 120.828 506.238
2246 0 110.837 14.8326 1644 81.6448 121.458 506.043
2247 0 113.837 14.6702 1670 82.4317 121.043 502.495
2248 0 118.157 13.7021 1619 83.0463 120.565 502.507
2249 0 120.783 15.0435 1817 81.3495 120.675 500.731
2250 0 123.565 14.9314 1845 81.2206 121.015 497.106
2251 1 67.8239 12.6209 856 83.3201 121.144 523.582
2252 0 70.6242 13.1683 930 81.2108 120.97 524.191
2253 0 71.5868 12.2648 878 84.6583 121.043 516.966
2254 0 73.7807 11.0327 814 86.8084 120.983 516.071
2255 0 75.6015 13.2669 1003 82.4576 121.055 515.215
2256 0 76.6799 11.2546 863 85.6628 121.273 515.625
2257 0 81.5146 12.5499 1023 82.3284 121.555 514.073
2258 0 83.4597 13.9109 1161 80.2567 121.371 515.713
2259 0 87.6409 14.0688 1233 78.06 120.915 517.053
2260 0 90.4676 13.5297 1224 80.0694 120.713 512.755
2261 0 92.4515 15.381 1422 76.6076 120.45 513.312
2262 0 96.8502 14.8683 1440 77.0812 121.216 511.642
2263 0 97.7972 14.5198 1420 77.6669 121.399 510.015
2264 0 101.502 15.0735 1530 76.3797 120.751 508.601
2265 0 104.523 13.8247 1445 77.5585 120.859 507.446
2266 0 108.903 14.3338 1561 76.6835 121.216 504.879
2267 0 112.309 13.1512 1477 78.1476 121.024 505.314
2268 0 119.915 14.8272 1778 74.2627 121.719 502.108
2269 0 121.019 14.1052 1707 75.6011 121.239 500.34
2270 1 66.98 13.6309 913 73.2289 121.35 525.86
2271 0 66.7921 12.5614 839 76.0417 121.154 523.254
2272 0 69.5104 14.1274 982 73.3004 121.778 524.638
2273 0 70.8855 13.021 923 75.2709 121.187 523.086
2274 0 74.0464 15.8009 1170 71.541 121.522 520.006
2275 0 75.7 13.0251 986 74.7951 121.522 520.889
2276 0 76.5978 13.8777 1063 73.4478 121.516 521.538
2277 0 79.756 12.8642 1026 75.462 121.413 517.384
2278 0 82.8625 14.506 1202 72.8519 121.662 518.463
2279 0 83.2618 13.3314 1110 75.536 122.132 515.662
2280 0 89.0421 14.8806 1325 71.7917 122.353 516.269
2281 0 89.8063 16.3908 1472 70.9423 121.41 513.101
2282 0 91.2864 13.6384 1245 75.0418 121.036 511.246
2283 0 93.8837 14.7416 1384 73.3938 121.199 509.838
2284 1 15.0635 9.09482 137 55.5693 122.161 547.241
2285 0 17.0318 13.7977 235 52.1447 122.485 546.6
2286 0 14.0099 11.5632 162 53.6358 122.34 547.802
2287 0 17.016 12.2238 208 53.8846 122.226 546.731
2288 0 14.2145 8.79382 125 56.024 123.232 547.272
2289 0 16.0589 11.956 192 53.151 123.271 546.365
2290 0 14.0549 8.39566 118 55.5254 121.881 547.161
2291 0 15.0085 9.66121 145 55.7034 121.662 546.552
2292 0 16.0084 12.1186 194 52.8196 121.938 547.237
2293 0 15.0159 13.519 203 52.33 122.118 547.345
2294 0 12.0962 7.3577 89 57.0449 123.079 546.539
2295 0 14.0167 7.56243 106 55.8019 122.745 547.679
2296 0 15.0129 11.7232 176 53.875 121.511 545.585
2297 0 13.0342 8.89967 116 55.1466 122.647 547.664
2298 0 15.0121 9.32579 140 54.15 122.864 547.621
2299 0 14.1149 8.35996 118 54.7881 122.636 546.941
2300 0 14.0328 7.0549 99 55.7071 122.909 546.586
2301 0 16.1233 9.36532 151 53.0265 122.185 548.278
2302 0 15.1735 10.9401 166 54.1988 122.169 546.361
2303 0 15.0376 14.1645 213 51.3146 123.192 546.507
2304 0 13.0054 6.45884 84 55.4167 123.226 548.036
2305 0 12.019 7.65456 92 55.8152 123.598 547.489
2306 0 13.0779 7.57002 99 56.6869 122.586 546.667
2307 0 14.064 9.74116 137 53.8978 123.504 547.146
2308 0 15.0186 10.1208 152 53.875 123.638 546.309
2309 0 14.0247 9.6972 136 53.6471 122.162 546.831
2310 0 15.02 14.3142 215 50.5535 122.312 547.154
2311 0 17.0616 9.08471 155 53.7097 121.632 547.684
2312 0 17.0343 11.2127 191 52.5288 121.565 547.435
2313 0 16.0068 10.4956 168 52.7024 122.399 547.982
2314 1 127.867 14.8905 1904 73.7889 121.978 495.67
2315 0 130.19 14.0563 1830 75.2541 121.84 493.55
2316 1 68.1277 14.737 1004 72.9542 121.894 519.992
2317 0 72.3125 13.5385 979 74.8509 121.125 518.492
2318 0 75.0639 15.9864 1200 71.2058 121.138 520.31
2319 0 75.0655 14.8004 1111 73.3366 122.208 519.116
2320 1 15.0158 10.8552 163 56.0245 122.374 545.528
2321 0 15.0121 11.191 168 54.1071 122.22 547.238
2322 0 15.0101 10.8594 163 55.9509 122.442 545.399
2323 0 15.1199 13.3599 202 54.2921 122.203 546.728
2324 0 13.0781 11.0873 145 55.4345 123.248 547.566
2325 0 12.0598 8.95536 108 57.3704 123.204 547.037
2326 0 14.0057 14.9939 210 53.5143 122.305 547.376
2327 0 14.0351 6.19876 87 58.9885 123.218 547.483
2328 0 17.0132 12.1083 206 55.0874 122.607 546.073
2329 0 16.0119 12.3658 198 54.7576 122.869 546.783
2330 0 15.1103 11.3168 171 55.2573 122.807 546.731
2331 0 13.0715 10.4808 137 55.927 123.095 545.635
2332 1 102.896 13.5768 1397 79.9728 122.079 504.175
2333 0 106.054 15.3319 1626 76.8788 122.232 504.664
2334 0 110.375 15.3386 1693 76.6232 122.336 503.328
2335 0 116.821 15.5794 1820 75.2148 122.442 502.258
2336 0 115.94 13.2396 1535 79.4417 122.096 500.42
2337 0 121.413 14.3065 1737 77.9309 122.332 498.678
2338 0 124.669 15.1441 1888 76.7993 122.064 496.618
2339 0 130.864 15.092 1975 76.0025 122.123 495.2
2340 0 133.023 15.2531 2029 75.9133 121.907 492.404
2341 0 138.373 14.7355 2039 77.3124 121.711 486.701
2342 0 142.278 15.1535 2156 76.7328 122.18 486.405
2343 0 148.018 15.7615 2333 75.4771 122.053 485.582
2344 0 150.95 14.5214 2192 77.5871 122.882 484.722
2345 0 157.981 14.7866 2336 77.1413 121.983 483.016
2346 0 158.454 14.8434 2352 77.5986 121.537 478.998
2347 0 163.871 14.0537 2303 78.4051 121.857 479.048
2348 1 78.0116 14.9721 1168 76.9152 121.372 517.846
2349 0 78.9327 14.392 1136 79.1065 122.039 513.531
2350 0 81.8275 14.6406 1198 70.3406 122.556 516.047
2351 1 17.0399 13.0283 222 50.6396 121.842 545.541
2352 0 18.2198 10.9771 200 51.265 121.485 546.03
2353 0 15.2355 12.1427 185 50.3081 122.541 545.816
2354 0 15.0317 9.77935 147 52.2585 122.537 547.116
2355 0 14.0086 10.7791 151 50.4238 122.576 548.06
2356 0 16.0437 12.4659 200 51.75 122.87 545.515
2357 0 14.021 12.0533 169 51.8935 122.698 545.769
2358 0 15.0159 11.388 171 51.5848 123.275 545.579
2359 0 18.0149 11.1019 200 51.87 122.54 544.365
2360 0 16.0199 10.7991 173 51.8613 122.497 544.468
2361 0 16.0337 8.41976 135 51.9704 122.607 547.533
2362 0 16.0173 11.1754 179 52.3184 122.14 544.536
2363 0 17.0146 13.3415 227 51.2643 122.115 543.731
2364 0 16.031 11.7273 188 51.6915 122.399 544.681
2365 0 13.0231 5.22148 68 56.0588 123.941 546.676
2366 0 15.0373 10.8397 163 52.319 122.853 545.454
2367 0 16.0092 11.2435 180 52.6389 122.183 545.744
2368 0 15.0744 13.6656 206 51.6116 121.204 544.442
2369 0 15.0294 11.2446 169 54.0888 122 545.858
2370 0 16.075 13.4992 217 52.2304 121.687 544.788
2371 0 17.0256 10.5136 179 54 122.57 545.737
2372 0 15.2455 10.4293 159 55.8176 123.384 544.836
2373 0 15.0208 5.79196 87 58.7126 123.391 545.322
2374 0 14.01 7.92291 111 56.7117 123.288 546.081
2375 0 16.0306 9.66901 155 55.7677 121.858 546.252
2376 0 13.0053 7.07403 92 59.2174 122.793 545.728
2377 0 17.0239 12.0419 205 55.2634 121.688 545.42
2378 0 18.0394 10.6434 192 54.9792 122.49 545.729
2379 0 16.0664 11.5147 185 55.2054 122.335 545.632
2380 0 15.0322 10.9099 164 56.1402 122.104 546.165
2381 0 15.0478 10.4999 158 56.1582 122.278 546.222
2382 0 15.0337 10.7758 162 55.963 122.154 547.957
2383 0 16.0403 11.9699 192 56.1615 122.297 545.609
2384 0 16.0141 12.8637 206 54.6748 123.087 545.573
2385 0 12.0235 7.06946 85 60.4353 123.071 546.224
2386 0 16.01 10.1187 162 57.0926 122.519 545.407
2387 0 16.0387 13.3427 214 54.7804 122.855 546.804
2388 0 15.0131 8.72574 131 57.458 123.366 547.733
2389 0 17.1389 12.4279 213 54.8685 122.582 545.61
2390 0 16.1897 12.4153 201 55.7164 123.746 544.99
2391 0 16.0072 7.68403 123 57.5285 124.106 545.675
2392 0 18.0353 12.1983 220 54.9273 122.718 544.032
2393 0 16.2075 11.6613 189 55.0317 124.217 544.005
2394 0 12.0053 6.99691 84 59.8571 125.405 544.726
2395 0 17.0333 12.681 216 54.3287 124.556 542.69
2396 0 17.0205 11.8093 201 54.8259 123.781 543.279
2397 0 16.0724 12.0082 193 53.9689 123.834 545.238
2398 0 17.4715 13.565 237 53.7806 123.367 544.511
2399 0 15.0488 11.6288 175 55.2514 124.497 543.931
2400 0 16.0113 10.9298 175 54.2971 123.589 544.646
2401 0 15.1135 11.5129 174 54.1954 124.075 542.805
2402 0 17.0886 13.4592 230 51.0826 124.243 545.056
2403 0 15.1442 5.15049 78 56.3205 124.551 545.295
2404 0 13.0099 2.22906 29 58.1034 125.655 544.931
2405 0 15.0237 12.2473 184 52.0272 123.37 544.304
2406 1 73.6639 13.3444 983 70.7823 123.08 516.451
2407 0 72.8672 13.4903 983 71.0051 123.404 516.908
2408 0 76.8341 13.848 1064 69.5263 123.039 517.758
2409 0 77.7568 13.3365 1037 70.9537 122.772 512.238
2410 0 81.2578 13.8448 1125 69.3867 122.981 515.613
2411 0 83.5997 12.5957 1053 70.8813 123.166 514.066
2412 0 82.3597 13.9024 1145 71.0576 123.668 510.604
2413 0 88.976 13.0822 1164 70.5576 123.118 510.72
2414 0 92.5596 12.0247 1113 71.7179 122.957 508.128
2415 0 92.7734 14.6055 1355 69.8708 123.799 507.63
2416 0 96.7812 11.3762 1101 72.0609 123.58 509.532
2417 0 97.8144 13.9448 1364 69.9846 123.609 505.535
2418 0 97.2315 13.689 1331 71.586 123.675 499.636
2419 0 104.834 13.4689 1412 71.364 123.373 498.767
2420 0 105.575 12.0768 1275 72.0651 123.591 502.97
2421 0 107.648 12.4015 1335 72.3363 123.827 497.028
2422 0 115.119 13.3774 1540 70.8097 123.767 494.803
2423 0 112.468 14.7242 1656 69.712 123.24 493.513
2424 1 64.9786 12.9581 842 67.6437 123.125 520.492
2425 0 62.2918 11.2535 701 72.3124 122.571 518.929
2426 0 68.6776 13.7745 946 68.3002 123.662 518.817
2427 0 69.7014 10.2437 714 74.0826 123.437 513.213
2428 0 73.5801 13.9983 1030 67.6602 123.505 516.826
2429 0 74.4675 12.059 898 70.2906 123.246 513.772
2430 0 78.2529 13.9292 1090 67.7018 123.108 512.611
2431 0 79.7951 14.0109 1118 67.5608 122.593 516.252
2432 0 73.1156 9.06783 663 74.54 122.57 435.333
2433 0 81.2998 12.3616 1005 71.0448 122.741 506.33
2434 0 80.0606 11.7286 939 71.4558 122.46 424.889
2435 0 85.759 12.8849 1105 70.4462 121.933 506.239
2436 0 87.5381 12.486 1093 71.2132 122.194 503.748
2437 0 89.3575 12.3213 1101 71.5922 122.878 497.876
2438 0 96.7348 12.0432 1165 70.8206 123.128 502.57
2439 0 99.5291 12.308 1225 70.862 122.891 501.373
2440 0 102.712 13.6791 1405 68.4221 122.656 504.863
2441 0 104.615 14.7684 1545 67.5178 122.627 499.768
2442 0 109.491 13.5628 1485 69.1421 122.79 495.018
2443 1 56.3026 11.9533 673 67.2244 122.389 522.368
2444 0 61.8603 13.967 864 65.3368 122.812 522.384
2445 0 62.3444 10.8109 674 70.7537 122.568 515.899
2446 0 64.1291 13.5352 868 66.6912 123.72 520.442
2447 0 64.586 10.9776 709 70.5007 122.979 515.678
2448 0 61.3022 13.4253 823 68.0547 123.055 517.142
2449 0 66.4404 13.0493 867 68.0911 123.08 516.411
2450 0 70.8265 13.2577 939 67.0746 122.471 517.511
2451 0 71.071 12.2413 870 69.4655 123.268 512.792
2452 0 69.621 12.367 861 69.4611 122.368 512.417
2453 0 76.9714 11.0431 850 70.8306 122.693 508.868
2454 0 77.5765 11.1116 862 70.1624 123.195 510.074
2455 0 81.542 13.723 1119 66.3458 122.5 511.444
2456 0 85.3627 14.0694 1201 65.577 122.809 510.447
2457 1 14.0323 7.91033 111 50.7658 123.099 543.577
2458 0 14.03 13.8988 195 48.5231 123.503 543.826
2459 0 15.1693 11.8661 180 48.9778 123.011 541.528
2460 0 16.4192 10.171 167 49.5868 122.844 541.94
2461 0 14.036 2.70733 38 52.7895 123.079 545.974
2462 0 15.279 8.5084 130 49.8385 123.092 543.369
2463 1 106.677 13.9767 1491 65.0074 123.234 498.435
2464 0 111.337 14.1911 1580 64.6063 123.198 499.578
2465 0 115.978 14.2096 1648 64.3022 123.35 499.543
2466 1 63.118 12.3103 777 65.287 122.947 517.583
2467 0 65.7719 11.7527 773 64.9547 122.6 519.208
2468 0 68.517 13.2522 908 63.2236 122.683 521.065
2469 0 69.7112 10.9452 763 67.4574 122.712 513.949
2470 0 72.6387 11.9495 868 65.3537 122.855 514.122
2471 0 72.841 12.7264 927 64.2276 122.896 517.427
2472 0 75.6321 13.0897 990 64.3071 122.866 514.46
2473 0 75.4756 14.243 1075 63.9098 122.701 513.211
2474 0 79.0357 14.1076 1115 63.7596 122.857 512.91
2475 0 83.5693 13.2944 1111 63.8065 122.978 512.664
2476 0 85.7772 14.2579 1223 62.5503 122.963 511.175
2477 0 88.047 15.946 1404 60.9672 122.204 510.006
2478 0 84.369 13.192 1113 65.4663 122.517 507.167
2479 0 94.7181 13.9466 1321 63.673 122.239 507.213
2480 0 99.4366 13.3955 1332 63.5158 122.761 509.23
2481 0 100.841 13.9229 1404 62.9366 123.214 507.487
2482 0 100.85 15.2999 1543 61.7628 123.177 505.181
2483 0 106.81 13.3414 1425 63.7165 123.409 502.465
2484 0 106.868 13.2594 1417 64.271 123.017 499.423
2485 0 110.567 12.7796 1413 64.4338 122.707 502.248
2486 1 57.6086 13.0883 754 62.6074 122.598 522.63
2487 0 59.4162 12.3704 735 63.6639 122.361 519.624
2488 0 62.7739 11.3104 710 63.2676 123.083 523.293
2489 0 61.7682 14.4411 892 60.8049 122.762 522.741
2490 0 64.0411 12.7418 816 62.4657 123.001 519.953
2491 0 67.6925 14.3738 973 60.5663 122.788 519.148
2492 0 66.3771 14.2218 944 61.589 122.846 517.941
2493 1 14.0122 12.275 172 47.4651 123.209 543.64
2494 0 15.0123 10.5247 158 47.4367 122.665 544.006
2495 0 14.0679 9.59633 135 48.1259 122.696 544.163
2496 0 15.0313 7.05197 106 49.0283 122.849 545.208
2497 0 13.0248 11.6701 152 47.8026 122.849 541.033
2498 0 13.1169 8.38615 110 48.6 123.318 543.136
2499 0 15.0374 14.0982 212 46.4104 123.434 542.326
2500 0 15.015 10.1232 152 47.7829 123.033 541.914
2501 0 15.0076 9.26195 139 47.6619 124.266 543.187
2502 0 15.0804 11.5382 174 47.4138 123.667 541.897
2503 0 13.0279 6.37095 83 49.6988 123.048 543.675
2504 1 96.6076 14.6676 1417 61.5194 122.62 506.295
2505 0 100.584 14.1673 1425 61.9621 122.911 502.542
2506 1 17.0204 10.3993 177 46.6836 123.141 543.333
2507 0 16.0762 11.5077 185 47.1784 124.011 541.032
2508 0 16.0124 12.8026 205 46.9122 123.668 541.283
2509 0 16.0223 11.5464 185 46.8541 123.205 542.514
2510 1 59.5031 12.6548 753 61.5206 122.818 520.45
2511 0 60.5454 9.87689 598 65.796 122.525 513.077
2512 0 64.61 12.0105 776 63 121.954 513.709
2513 0 63.7794 11.1478 711 63.8622 122.754 515.712
2514 1 17.2791 9.43337 163 45.8466 121.785 542.399
2515 0 14.4701 10.1589 147 47.7959 122.129 538.578
2516 0 15.0191 8.12299 122 48.9016 121.861 540.369
2517 0 12.059 6.96574 84 48.9405 122.655 540.631
2518 0 13.1115 7.01675 92 49.1848 122.359 540.511
2519 1 76.4566 12.4515 952 62.792 122.313 510.624
2520 0 78.3581 12.545 983 62.8037 122.599 509.643
2521 0 82.8028 12.0286 996 63.3183 122.739 508.431
2522 0 86.8372 13.9226 1209 61.1232 123.331 506.151
2523 0 87.4814 13.4314 1175 62.1226 123.236 505.449
2524 0 88.608 14.9309 1323 61.5971 123.798 501.594
2525 0 93.6376 13.9474 1306 61.0904 123.054 505.448
2526 0 94.5217 12.8436 1214 63.3616 123.362 499.374
2527 0 98.7296 15.6387 1544 59.9663 124.128 501.718
2528 0 102.985 14.4293 1486 61.7719 123.553 498.104
2529 0 104.707 12.0623 1263 63.6144 123.183 499.151
2530 0 105.561 12.5047 1320 64.5053 123.705 492.635
2531 1 13.0091 16.0656 209 45.1435 123.402 539.292
2532 0 15.3028 9.86747 151 47.4834 123.437 538.278
2533 0 16.0735 10.2653 165 48.2424 123.612 538.515
2534 0 13.0175 11.4461 149 47.4228 123.893 539.423
2535 0 16.5532 11.7802 195 47.1231 124.344 539.533
2536 0 14.0753 10.0886 142 47.9577 124.289 540.606
2537 0 15.1242 13.8189 209 46.7943 123.876 538.919
2538 0 13.0367 10.4321 136 48.5809 123.853 540.228
2539 0 16.4302 8.6426 142 49.4437 122.951 538.908
2540 0 14.0699 10.7322 151 48.4834 123.066 538.728
2541 0 15.0713 13.8674 209 46.5024 123.053 540.943
2542 1 77.9698 11.684 911 65.4204 123.03 509.228
2543 0 83.7224 13.1387 1100 63.4391 123.001 505.602
2544 0 84.2217 11.8497 998 64.4339 122.977 505.786
2545 0 86.3332 15.0927 1303 61.4352 124.394 508.544
2546 0 88.7692 13.3492 1185 63.0135 122.578 508.143
2547 0 93.262 14.6684 1368 62.1243 123.066 505.529
2548 0 94.4271 12.6023 1190 65.5193 123.457 499.787
2549 0 97.7799 14.1542 1384 62.7803 123.47 503.413
2550 0 100.519 13.3507 1342 64.0529 123.461 500.44
2551 0 103.816 12.734 1322 64.3911 123.045 500.447
2552 0 106.315 14.2878 1519 63.8282 123.147 492.352
2553 0 110.165 15.1772 1672 62.8439 123.08 493.874
2554 0 117.29 13.7778 1616 63.4715 123.248 492.473
2555 0 119.51 13.3713 1598 64.067 124.035 492.355
2556 1 65.3607 12.3622 808 63.2228 123.59 515.88
2557 0 67.2668 13.7512 925 62.2022 123.101 515.237
2558 0 65.4713 12.7079 832 64.0349 123.428 515.464
2559 1 15.0215 16.6428 250 46.716 123.16 538.816
2560 0 15.0461 11.365 171 49.614 122.626 538.246
2561 0 14.1684 11.1516 158 48.7722 123.051 538.361
2562 0 16.1579 12.3778 200 47.475 123.575 539.745
2563 0 14.0508 10.7467 151 49.3444 124.344 538.901
2564 0 16.3866 14.219 233 46.6524 124.918 539.948
2565 0 18.0373 14.3592 259 47.9189 124.637 539.066
2566 0 17.1962 10.8163 186 49.0376 124.108 538.177
2567 0 17.1031 10.9922 188 49.0213 124.686 538.92
2568 0 17.0547 10.6129 181 49.3646 123.967 539.541
2569 0 17.0377 11.1517 190 49.7474 123.179 539.747
2570 0 14.1412 7.92012 112 50.4643 123.527 542.277
2571 0 16.1964 11.5458 187 48.8877 123.717 540.861
2572 1 100.593 12.8537 1293 67.1361 123.87 496.927
2573 0 105.542 12.7437 1345 66.881 123.877 499.094
2574 0 109.65 15.0662 1652 63.7385 123.429 499.519
2575 0 113.288 13.5937 1540 65.9214 123.625 495.861
2576 0 115.56 14.5119 1677 65.2773 122.88 494.784
2577 1 64.8851 13.5008 876 64.4098 122.987 518.203
2578 0 61.6574 10.98 677 68.9956 122.446 516.619
2579 0 65.4713 13.4716 882 64.6361 122.78 518.718
2580 0 66.5249 12.1458 808 68.0743 122.358 513.934
2581 0 68.5167 14.1425 969 65.8834 123 513.302
2582 0 70.4039 12.6555 891 66.8833 123.049 516.278
2583 0 71.9388 11.2457 809 69.5773 123.22 511.733
2584 0 74.2442 13.5903 1009 66.0297 122.737 514.746
2585 1 17.1206 10.9225 187 50.6684 122.647 539.636
2586 0 13.227 13.0037 172 50.4826 122.465 539.814
2587 0 16.0458 8.22643 132 51.4167 122.576 540.144
2588 0 17.3482 9.74167 169 51.0533 121.58 541.586
2589 0 16.0707 13.6895 220 49.8636 122.227 540.091
2590 0 15.0187 12.8506 193 50.3057 122.482 539.777
2591 0 18.129 13.1281 238 50.1092 122.092 540.084
2592 0 14.2028 9.71637 138 51.4638 124.014 540.036
2593 0 14.0908 11.213 158 50.7975 123.158 539.215
2594 0 17.0324 14.854 253 49.6324 123.126 540.723
2595 0 16.0578 13.6382 219 50.5708 123.224 540.393
2596 0 15.1628 11.0797 168 52.125 122.952 538.333
2597 0 16.0691 13.3175 214 50.7664 123.201 539.178
2598 0 16.0354 9.2296 148 51.4257 123.865 542.399
2599 0 16.0856 13.739 221 50.6018 124.62 539.43
2600 0 16.0199 10.7366 172 51.9593 123.68 538.942
2601 0 16.0432 13.526 217 51.0922 123.364 540.535
2602 0 17.0345 15.498 264 49.2235 122.97 540.894
2603 0 16.0706 10.205 164 51.561 123.14 541.165
2604 0 14.0209 12.838 180 50.95 122.517 539.483
2605 0 16.1574 8.16965 132 52.2879 122.386 540.22
2606 0 15.1447 13.206 200 50.64 122.395 539.2
2607 0 17.0926 13.6901 234 49.8632 122.453 540.573
2608 0 18.014 15.3769 277 49.0144 122.726 539.838
2609 0 15.0562 14.479 218 49.8761 122.812 540.316
2610 0 15.0756 7.16389 108 53.1852 121.926 541.565
2611 0 16.0383 6.60917 106 53.2924 123.689 540.613
2612 0 17.2233 8.70912 150 52.4733 123.527 539.873
2613 0 17.0657 11.1334 190 51.6316 123.174 539.937
2614 0 16.0585 11.9563 192 51.5 122.656 539.875
2615 0 15.1938 7.56887 115 53.9739 122.461 540.191
2616 0 15.0225 8.8534 133 53.5113 122.481 540.256
2617 0 16.0203 13.1708 211 51.1517 123.242 539.588
2618 0 17.0161 12.165 207 51.9324 123.116 540.691
2619 0 18.5305 13.6532 253 50.9644 123.316 539.498
2620 0 14.0113 6.85161 96 55.1667 123.24 540.177
2621 0 16.082 11.4414 184 52.7609 123.674 540.424
2622 0 18.0828 14.2124 257 51.2529 123.062 540.572
2623 0 17.1554 11.0169 189 52.328 122.889 539.741
2624 0 16.0216 13.9811 224 50.5446 123.25 539.942
2625 0 13.1036 8.85251 116 54.5948 122.724 539.319
2626 0 16.1744 13.9727 226 51.6504 122.575 539.58
2627 0 16.0483 13.5217 217 52.9309 122.622 540.369
2628 0 16.03 13.5995 218 51.8853 122.211 541.427
2629 0 16.1166 11.9132 192 53.9167 122.406 540.323
2630 0 17.4194 7.23331 126 55.3492 122.357 543.008
2631 0 17.1011 15.0282 257 51.284 123.082 542.646
2632 0 17.3136 7.50853 130 56.4154 122.585 541.246
2633 0 18.2047 9.72279 177 54.226 121.938 541.921
2634 0 16.1455 7.68016 124 56.3952 122.597 540.589
2635 0 18.1671 12.33 224 54.2321 123.08 541.214
2636 0 17.1513 13.8182 237 52.4346 122.755 543.612
2637 0 19.4023 8.60722 167 56.7365 122.138 542.012
2638 0 16.097 8.69726 140 56.4929 122.964 542.914
2639 0 19.2653 10.1218 195 54.9846 122.267 543.436
2640 0 16.1043 4.90551 79 57.8608 121.772 543
2641 0 18.1033 11.9315 216 54.3843 123.338 543.394
2642 0 17.0568 13.543 231 54.4848 123.169 542.351
2643 0 16.0167 10.6764 171 54.9649 123.199 542.246
2644 1 74.5199 13.9963 1043 71.3174 123.432 515.845
2645 0 76.9904 14.3395 1104 70.1947 124.091 516.88
2646 0 76.7542 13.1328 1008 72.7411 123.607 514.809
2647 0 79.5196 12.4875 993 72.4139 123.243 515.8
2648 0 81.7236 14.39 1176 71.2755 123.775 512.571
2649 0 83.8588 12.6522 1061 72.7163 123.569 511.778
2650 0 87.5266 14.5213 1271 70.3281 122.928 511.245
2651 0 88.7921 13.9314 1237 70.9846 122.471 511.657
2652 0 92.726 14.4188 1337 70.0224 122.396 510.059
2653 0 93.7242 12.9209 1211 72.6722 123.078 507.327
2654 0 96.7473 13.6645 1322 71.733 123.147 505.899
2655 0 100.664 13.7487 1384 70.8309 123.177 507.26
2656 0 103.402 14.6225 1512 70.8545 124.01 505.398
2657 0 106.005 14.0276 1487 71.4539 123.835 504.714
2658 0 107.878 13.2371 1428 73.229 123.183 498.473
2659 0 112.546 15.1049 1700 69.6765 123.13 502.835
2660 1 16.2194 7.09027 115 54.7044 123.104 546.356
2661 0 16.4317 8.45928 139 53.9496 122.799 545.511
2662 0 18.2696 9.57875 175 53.0343 122.829 545.731
2663 0 18.2698 12.589 230 53.4217 123.183 544.439
2664 0 18.1542 10.9617 199 54.4472 122.879 544.734
2665 0 18.2618 13.0874 239 53.569 123.356 544.431
2666 0 16.0841 11.6264 187 53.893 122.781 545.775
2667 0 17.0695 5.38974 92 57.6739 121 545.663
2668 1 73.178 12.9684 949 72.7682 123.616 520.288
2669 0 74.3999 12.0565 897 73.5797 123.478 519.658
2670 0 74.9926 12.6279 947 72.8258 122.603 520.271
2671 0 73.6593 10.7115 789 78.6831 122.819 516.06
2672 0 74.5818 12.0673 900 77.8633 122.912 514.936
2673 0 75.7018 10.1715 770 81.0584 123.109 515.143
2674 0 74.5876 8.44644 630 80.0857 124.322 521.121
2675 0 85.7782 15.3769 1319 73.7756 123.582 513.581
2676 0 88.8058 13.7378 1220 76.1385 123.652 511.802
2677 0 89.704 15.0495 1350 74.5215 123.63 511.489
2678 0 91.7649 14.3628 1318 75.9848 123.826 512.212
2679 0 93.5395 13.4489 1258 77.6757 123.156 510.721
2680 0 98.2708 14.806 1455 75.956 122.807 507.572
2681 1 18.2873 12.9598 237 54.2954 122.941 547.084
2682 0 17.119 10.0473 172 56.2035 122.244 546.93
2683 0 16.0083 13.2432 212 54.6321 122.415 545.783
2684 0 16.0334 13.2224 212 55.0991 122.311 546.198
2685 0 16.3649 12.9546 212 54.8302 122.028 547.226
2686 0 16.1055 11.673 188 55.6383 121.931 546.596
2687 0 17.146 10.848 186 55.6237 122.059 546.425
2688 0 16.1082 8.7533 141 56.1064 122.851 547.816
2689 0 16.0671 13.6304 219 53.2146 122.269 546.484
2690 0 17.2346 13.2872 229 54.3231 122.777 545.293
2691 0 17.2853 9.19855 159 55.9811 122.692 546.748
2692 0 17.0242 13.334 227 54.9295 122.339 545.59
2693 0 15.0264 13.9088 209 54.89 122.794 545.766
2694 0 16.0879 13.737 221 55.2805 123.398 544.914
2695 0 17.0683 7.61646 130 56.6 123.038 547.762
2696 0 16.1026 12.3583 199 54.7337 122.849 547.402
2697 0 18.1613 10.4068 189 56.6085 122.471 543.418
2698 0 16.102 13.7871 222 54.7522 124.036 545.5
2699 0 16.0634 14.3183 230 56.2783 123.957 545.104
2700 0 16.0204 12.3593 198 57.2778 123.429 545.076
2701 0 13.0057 13.7632 179 57.2011 123.547 543.71
2702 0 14.1424 10.3236 146 59.6027 123.404 544.007
2703 0 16.6028 12.7087 211 57.7488 122.882 545.393
2704 0 14.0729 6.53737 92 60.5978 123.272 543.217
2705 0 14.0128 8.20677 115 59.8435 123.278 544.374
2706 0 12.1147 11.3912 138 58.8116 122.478 543.956
2707 0 17.4236 14.5779 254 55.5748 123.311 545.618
2708 0 18.1877 15.7249 286 54.9825 123.325 546.105
2709 0 16.3105 7.60245 124 61.4194 123.016 544.605
2710 0 17.1378 12.662 217 57.0553 124.401 546.664
2711 0 16.0442 8.72588 140 58.6857 123.707 545.971
2712 0 17.1438 10.4411 179 57.7207 123.52 545.698
2713 0 16.231 7.39326 120 58.8167 123.333 545.575
2714 0 19.1541 13.3131 255 55.5686 123.714 545.663
2715 0 15.0418 8.57608 129 58.6202 123.264 545.659
2716 0 17.1299 11.7339 201 57.1393 123.925 545.448
2717 0 16.131 11.2826 182 57.1264 123.121 545.632
2718 0 15.1033 6.68729 101 59.4455 123.208 545.822
2719 0 17.3999 6.37934 111 60.7928 123.559 543.252
2720 1 78.7419 13.576 1069 80.8559 124.682 518.137
2721 0 78.639 12.64 994 83.6972 124.233 514.487
2722 0 80.6216 13.9417 1124 81.8932 124.436 515.209
2723 0 84.2709 14.9043 1256 79.6974 124.54 516.12
2724 0 83.5871 14.4041 1204 81.6777 124.876 513.206
2725 0 85.4809 14.2722 1220 82.3484 124.197 513.539
2726 0 88.699 15.1524 1344 80.2879 124.099 513.801
2727 0 91.87 14.194 1304 81.5337 124.1 513.193
2728 0 92.8407 14.6272 1358 82.1208 124.627 510.183
2729 0 98.0181 13.6199 1335 82.8382 124.382 510.827
2730 0 95.6423 13.3518 1277 84.816 124.094 504.548
2731 0 99.5074 15.1547 1508 81.2328 123.571 507.109
2732 0 101.608 14.241 1447 82.4623 123.93 506.297
2733 0 105.749 15.2058 1608 80.694 123.34 504.053
2734 0 106.743 13.3685 1427 83.2207 124.144 506.954
2735 0 109.573 14.7482 1616 82.2271 123.685 502.473
2736 0 111.432 14.2868 1592 83.1112 124.065 500.705
2737 0 115.82 14.7988 1714 81.9673 123.87 500.795
2738 0 120.835 15.997 1933 79.9224 123.488 498.839
2739 0 123.757 15.0052 1857 81.4701 123.568 495.981
2740 0 127.842 15.7303 2011 79.9712 124.064 496.197
2741 0 130.767 14.5526 1903 82.4876 123.876 490.143
2742 0 133.923 14.8444 1988 82.0392 123.927 489.723
2743 0 135.758 13.9365 1892 84.1062 124.239 486.533
2744 0 142.8 16.8698 2409 78.836 123.921 486.017
2745 0 145.437 15.4362 2245 81.2566 124.219 485.113
2746 0 150.909 15.6055 2355 80.4081 124.49 480.486
2747 0 154.814 15.4831 2397 81.3592 124.078 479.403
2748 0 162.105 14.4104 2336 81.6447 123.736 479.844
2749 0 165.146 14.8717 2456 81.0896 123.951 476.055
2750 0 167.532 14.5345 2435 81.9347 124.096 474.904
2751 0 171.581 13.8419 2375 83.7415 124.13 468.458
2752 0 176.849 13.9667 2470 82.915 124.341 468.489
2753 0 183.63 15.4278 2833 80.5983 124.269 464.389
2754 0 189.699 15.8725 3011 79.4035 124.556 462.557
2755 0 194.869 14.0966 2747 82.0699 124.624 460.503
2756 0 198.801 14.346 2852 81.0014 124.797 462.227
2757 0 204.081 14.3472 2928 82.3053 125.023 453.896
2758 0 213.011 14.5298 3095 81.6459 124.716 450.971
2759 0 216.92 15.3928 3339 79.9266 124.478 451.751
2760 0 224.11 15.3407 3438 80.3069 124.38 446.102
2761 1 164.964 12.53 2067 82.5926 124.033 479.17
2762 0 170.834 13.9316 2380 81.1336 124.518 478.498
2763 0 169.725 13.3805 2271 82.6411 124.327 472.218
2764 0 176.852 13.6385 2412 83.4274 125.326 467.874
2765 0 179.606 13.7523 2470 83.5798 125.006 467.551
2766 0 186.851 15.333 2865 81.0342 125.405 465.964
2767 0 189.741 14.5092 2753 83.049 124.605 463.849
2768 0 194.29 14.5813 2833 82.5175 124.634 464.977
2769 0 199.369 14.3854 2868 83.7591 125.519 459.417
2770 0 206.519 15.3739 3175 82.4728 125.342 453.158
2771 0 211.856 14.8167 3139 82.9497 125.025 454.771
2772 0 215.222 15.0589 3241 82.5736 125.4 456.117
2773 0 218.98 15.5174 3398 82.6201 125.586 448.568
2774 0 226.964 15.0244 3410 83.568 125.054 443.965
2775 0 232.754 15.5744 3625 82.435 124.295 441.651
2776 1 130.396 13.6354 1778 83.0489 124.471 492.136
2777 0 133.332 13.8076 1841 82.2124 125.015 492.999
2778 0 138.393 13.823 1913 82.0789 125.048 489.317
2779 0 142.57 12.8077 1826 83.1347 125.335 489.538
2780 0 142.844 11.8731 1696 85.3662 125.295 485.125
2781 0 142.489 11.5869 1651 86.7644 124.858 482.549
2782 0 151.604 12.8163 1943 85.4436 125.445 477.405
2783 0 151.733 13.0031 1973 82.8074 125.496 485.625
2784 0 161.573 13.022 2104 83.7367 125.423 479.041
2785 0 163.371 12.7991 2091 85.2492 124.892 473.334
2786 1 120.189 13.77 1655 82.5106 124.797 495.485
2787 1 14.1943 11.413 162 55.716 124.475 543.877
2788 0 13.0257 8.98226 117 56.0171 125.034 543.726
2789 0 16.1763 8.77828 142 55.5 125.056 545.345
2790 0 16.0521 12.2725 197 54.8274 125.69 543.807
2791 0 14.0121 13.2029 185 54.9514 124.924 543.103
2792 0 15.2775 9.62198 147 55.0204 125.082 544.258
2793 0 13.0697 10.0232 131 56.0076 125.397 543.947
2794 0 15.113 6.94765 105 56.8095 125.114 544.371
2795 0 14.1025 13.3309 188 54.7128 125.122 544.122
2796 0 13.0301 4.14424 54 58.7778 124.241 544.852
2797 0 14.1025 10.4946 148 56.0811 124.858 542.966
2798 0 12.2646 2.85374 35 60.6 125.8 543.857
2799 1 101.651 11.7165 1191 83.5038 125.122 498.4
2800 0 99.304 10.4729 1040 86.3808 125.067 495.26
2801 0 103.371 14.0949 1457 80.5875 125.12 499.59
2802 0 110.405 11.9469 1319 81.6581 125.101 501.573
2803 0 110.496 12.7968 1414 80.2928 125.294 502.634
2804 0 115.227 12.7488 1469 80.2995 124.858 499.533
2805 0 120.641 13.5029 1629 78.4966 125.064 500.498
2806 0 123.609 11.7063 1447 81.188 125.176 500.505
2807 0 122.749 10.7618 1321 84.9258 125.737 493.381
2808 0 130.408 13.2661 1730 80.315 125.282 493.753
2809 0 129.37 11.9579 1547 84.0304 125.324 487.228
2810 0 134.456 13.4914 1814 81.8666 125.582 483.507
2811 0 134.761 12.1326 1635 81.0312 125.055 495.054
2812 0 141.758 11.5196 1633 84.0545 124.746 487.07
2813 0 145.702 13.6855 1994 81.8521 125.131 481.626
2814 0 145.835 10.2719 1498 84.5534 125.365 490.382
2815 0 150.955 12.6131 1904 84.0898 125.67 479.851
2816 1 215.631 14.7289 3176 84.1574 125.599 450.489
2817 0 220.099 13.8301 3044 84.9566 125.432 451.079
2818 0 224.862 14.142 3180 86.1299 125.794 439.852
2819 0 231.596 13.4113 3106 86.7572 126.019 442.423
2820 0 240.182 13.8021 3315 86.4326 125.675 433.776
2821 0 246.925 14.5064 3582 84.368 125.129 436.984
2822 0 249.505 14.9175 3722 85.1376 124.883 428.239
2823 1 353.88 11.9052 4213 87.9079 124.98 401.292
2824 0 352.745 14.4382 5093 86.2876 125.784 374.19
2825 0 355.158 16.7503 5949 82.2669 125.472 368.885
2826 0 364.141 11.8471 4314 88.4636 125.425 390.537
2827 1 115.498 11.195 1293 82.249 125.408 495.067
2828 0 116.471 13.0075 1515 79.464 125.511 498.504
2829 0 121.976 13.3797 1632 78.5711 126.122 495.512
2830 0 125.745 11.1416 1401 80.7944 125.565 495.326
2831 0 127.579 10.37 1323 83.0635 125.39 490.02
2832 0 126.279 12.5754 1588 80.6102 125.512 488.496
2833 1 138.668 9.41098 1305 83.2621 125.466 489.598
2834 0 138.404 13.8002 1910 77.4906 124.695 486.488
2835 0 141.374 9.57033 1353 82.7398 124.882 487.204
2836 0 149.702 11.9771 1793 79.739 125.262 483.226
2837 0 142.822 13.9054 1986 78.1682 125.608 480.137
2838 1 82.1395 9.45952 777 83.8494 124.999 507.852
2839 0 82.5125 11.8164 975 79.2123 125.84 513.573
2840 0 81.7295 12.3578 1010 79.6852 126.307 512.43
2841 0 83.69 14.3745 1203 76.3524 125.45 512.936
2842 0 87.3061 12.4848 1090 79.833 125.817 508.976
2843 0 86.3761 9.99119 863 85.3627 126.228 504.392
2844 0 91.6365 13.8918 1273 76.9599 125.543 510.624
2845 0 90.5501 10.9884 995 84.2945 125.338 501.204
2846 0 100.438 12.8239 1288 79.1972 125.447 503.309
2847 0 101.195 13.5975 1376 78.7863 125.974 502.308
2848 0 102.918 13.2436 1363 79.0338 126.26 502.059
2849 0 106.434 13.6235 1450 78.3317 126.448 500.75
2850 0 107.403 12.8861 1384 80.216 126.098 497.508
2851 0 112.708 14.3734 1620 77.4722 126.72 498.046
2852 0 115.646 14.3974 1665 78.2685 126.491 496.58
2853 0 120.642 14.8456 1791 76.9458 126.579 498.406
2854 0 123.33 13.1761 1625 80.6818 125.755 494.052
2855 0 125.757 14.6951 1848 78.118 125.532 489.698
2856 1 52.7357 11.4344 603 76.1891 126.053 527.41
2857 0 54.4296 12.5116 681 76.3245 126.275 524.68
2858 1 15.0566 14.7443 222 55.4099 126.793 542.806
2859 0 18.0309 11.8685 214 55.7897 126.533 543.766
2860 0 17.0615 8.2642 141 56.7518 126.773 544.447
2861 0 17.1199 14.194 243 55.1564 126.523 544.206
2862 0 16.0377 13.7177 220 55.5682 126.359 542.555
2863 0 16.0949 12.2399 197 56.335 126.107 542.964
2864 0 15.1371 7.86148 119 57.2353 127.176 545.496
2865 0 15.0144 9.92381 149 57.3826 126.577 544.926
2866 0 17.0582 8.79341 150 57.3467 126.667 544.02
2867 0 16.0131 11.3033 181 56.6685 126.834 543.293
2868 0 16.0416 9.41304 151 57.6954 126.503 542.742
2869 0 17.1794 14.8434 255 53.9294 127.071 543.863
2870 0 18.0684 9.07663 164 56.061 127.402 544.354
2871 0 15.0303 11.0444 166 56.9398 126.958 543.717
2872 0 17.0616 9.20194 157 56.1911 126.936 544.229
2873 0 16.0197 10.4871 168 55.6607 127.488 544.161
2874 0 15.1283 8.39488 127 56.0945 126.835 544.984
2875 0 18.078 7.74423 140 54.05 126.764 546.764
2876 0 16.0142 14.5495 233 51.4807 126.275 545.657
2877 0 16.0418 7.16878 115 56.9478 127.722 542.965
2878 0 15.0438 8.50847 128 55.4531 127.344 543.359
2879 0 15.057 11.224 169 54.9704 126.941 544.343
2880 0 16.0205 12.6089 202 52.6485 126.871 544.554
2881 0 17.0463 10.9701 187 54.123 127.209 545.203
2882 0 17.0968 9.29999 159 54.673 127.755 545.057
2883 0 16.1212 6.94739 112 55.9643 127.518 545.33
2884 0 14.0047 9.13978 128 55.4141 127.789 545.008
2885 0 15.0201 11.9173 179 53.5922 127.346 545.095
2886 0 14.0135 7.77822 109 54.5872 128.147 546.853
2887 0 16.0384 10.4749 168 54.6369 127.47 543.81
2888 0 15.0378 13.2333 199 53.5578 126.673 544.799
2889 0 15.0499 9.36886 141 55.156 126.348 545.787
2890 0 13.0862 10.8511 142 54.5704 126.655 543.775
2891 0 13.0634 5.74124 75 56.8133 128.133 545.28
2892 0 13.0133 4.22644 55 57.2364 128.236 545.873
2893 0 15.0169 4.99437 75 56.3733 128.587 546.053
2894 0 14.0078 11.9933 168 53.6548 126.798 545.262
2895 0 15.1105 11.1843 169 53.1065 126.42 545.284
2896 0 16.0257 9.17279 147 54.1973 127.544 542.524
2897 0 16.0045 13.3712 214 52.3925 127.047 544.715
2898 0 16.0421 10.9712 176 53.0625 126.989 545.483
2899 0 15.0043 10.2637 154 53.026 127.526 546.929
2900 0 15.0681 9.75574 147 53.9592 127.442 544.871
2901 0 15.0083 6.99614 105 54.5238 127.771 547.086
2902 0 16.0337 11.0392 177 52.9435 127.011 545.791
2903 0 16.0069 9.24601 148 54.5338 127.709 543.77
2904 0 16.0294 8.98348 144 53.8056 127.847 545.736
2905 0 17.0855 9.30613 159 52.7673 127.22 546.761
2906 0 15.0409 10.9701 165 52.4121 127.085 544.394
2907 0 13.004 8.61271 112 53.1429 127.205 546.696
2908 0 16.1025 12.9173 208 51.0817 127.062 545.385
2909 0 16.0215 10.798 173 51.4277 126.913 545.775
2910 0 14.0113 7.99353 112 53.0446 127.786 545.839
2911 0 15.0309 8.38274 126 52.381 127.921 545.825
2912 0 14.0273 6.41604 90 54.2778 127.533 545.289
2913 0 15.0347 7.24988 109 52.1743 128.092 546.606
2914 0 13.0358 9.2821 121 51.6033 127.793 544.422
2915 0 16.0766 8.70831 140 52.1857 127.171 545.907
2916 0 15.0234 4.32658 65 54.1231 129.446 546.708
2917 0 15.0502 9.10286 137 52.0803 127.569 545.124
2918 0 17.0158 9.28548 158 51.4177 127.259 545.525
2919 0 14.0618 5.47582 77 55.1688 128.545 546.013
2920 0 13.0041 5.30601 69 55.087 128.681 545.29
2921 0 18.1051 11.5437 209 50.2775 127.321 546.11
2922 0 15.0984 6.09334 92 52.9348 128.522 546.739
2923 0 14.0088 12.3493 173 50.4624 127.324 545.514
2924 0 16.0079 5.74716 92 52.9783 128.152 546.826
2925 0 15.0042 7.06469 106 53.2736 127.509 545.245
2926 0 14.0489 9.18221 129 51.5039 127.814 543.907
2927 0 16.0649 5.60228 90 54.3444 127.3 545.911
2928 0 15.0062 2.86548 43 55.7907 128.605 546.535
2929 0 17.0153 6.52353 111 52.2973 128.117 547.712
2930 0 14.0336 7.98086 112 52.5089 127.741 546.446
2931 0 16.012 6.12039 98 52.9592 127.786 546.163
2932 0 15.0133 8.85879 133 50.9248 128.075 547.038
2933 0 15.0124 6.72775 101 51.9703 128.04 546.554
2934 0 15.0847 11.9989 181 49.7182 127.591 545.547
2935 0 14.0252 10.5524 148 50.5878 127.682 544.351
2936 0 12.0052 4.08156 49 54.2041 129.082 546.245
2937 0 14.0267 10.9078 153 50.6928 126.752 544.627
2938 0 14.0247 4.49209 63 53.8095 128.048 546
2939 0 16.0248 6.55234 105 51.0952 127.152 546.505
2940 0 15.0475 4.91776 74 53.1216 127.392 546.784
2941 0 16.0136 5.7451 92 52.9022 127.739 543.848
2942 0 15.0708 11.3465 171 49.3216 127.678 546.602
2943 0 14.0054 6.78309 95 51.9474 126.968 547.358
2944 0 15.0519 10.7628 162 51.179 127.08 543.889
2945 0 15.1004 4.83432 73 54.4521 128.644 546.096
2946 0 16.1204 8.62263 139 51.9784 128.029 544.115
2947 0 12.0015 2.74967 33 57.9697 129.364 546.97
2948 0 15.0075 7.06315 106 53.4151 128.142 545.406
2949 0 15.0046 9.93031 149 52.651 127.664 544.899
2950 0 13.0068 8.07268 105 53.9619 128.467 545.533
2951 0 14.0018 10.7129 150 51.98 127.467 545.173
2952 0 15.0665 5.90715 89 56.0899 128.112 547.236
2953 0 15.062 5.77612 87 56.046 128.149 546.701
2954 0 15.0351 5.98601 90 55.2 128.456 545.511
2955 0 15.2038 9.80015 149 54.3758 127.456 544.456
2956 0 17.0439 11.6171 198 52.3485 126.621 546.626
2957 0 16.0435 8.04064 129 55.2868 127.829 545.612
2958 0 14.0064 10.3524 145 54.3103 127.579 546.428
2959 0 16.0204 8.23948 132 56.0833 128 546.144
2960 0 15.0475 6.97791 105 56.2381 128.305 547.79
2961 0 16.0429 10.9706 176 54.5852 126.83 545.562
2962 0 17.0583 10.3762 177 55.0904 127.446 546.181
2963 0 17.0127 10.2277 174 55.2529 127.833 546.264
2964 0 17.0045 11.5263 196 54.0408 127.01 546.536
2965 0 16.0352 7.42116 119 56.5966 127.975 546.05
2966 0 16.0285 12.4778 200 53.61 127.04 546.41
2967 0 16.0374 10.6626 171 54.0175 127.602 546.076
2968 0 17.1469 8.04809 138 55.4493 127.739 546.964
2969 0 15.0251 8.45251 127 55.7165 127.157 545.567
2970 0 17.0193 11.8689 202 53.3366 127.144 545.277
2971 0 15.0139 6.19428 93 56.8387 127.72 544.516
2972 0 17.0587 6.15522 105 56.581 128.676 546.971
2973 0 16.0125 13.4895 216 52.9306 127.537 545.264
2974 0 14.0142 6.42206 90 56.2333 128.467 546.078
2975 0 13.0951 8.4001 110 55.3545 128.355 546.409
2976 0 13.0073 6.68854 87 55.4828 128.402 547.218
2977 0 16.0319 6.29995 101 55.3564 129.713 544.881
2978 0 15.1238 7.33941 111 54.6036 127.955 546.658
2979 0 15.0042 8.66426 130 53.7769 127.985 546.177
2980 0 14.0048 5.06969 71 56.1549 128.803 546
2981 0 15.016 8.52422 128 53.0156 128.359 546.266
2982 0 16.0619 8.8408 142 53.7183 128.359 544.275
2983 0 16.0019 6.12427 98 54.6122 128.439 547.276
2984 0 15.0458 9.37137 141 54.0567 127.986 546.872
2985 0 17.0403 7.80505 133 53.7519 128.248 546.346
2986 0 14.007 7.99602 112 54.9464 128.42 545.33
2987 0 14.0542 5.47878 77 56.6883 129.052 547.117
2988 0 15.0022 8.19879 123 54 127.691 544.496
2989 0 16.0588 9.02932 145 52.9034 127.8 546.607
2990 0 17.1308 9.8069 168 52.256 127.792 546.22
2991 0 15.045 9.17247 138 52 127.964 548.703
2992 0 16.0206 9.17571 147 52.619 127.687 547.224
2993 0 16.0117 10.9295 175 52.4571 127.097 543.903
2994 0 15.0254 12.379 186 51.5376 127.591 544.925
2995 0 15.0097 9.39392 141 52.8936 127.752 545.652
2996 0 15.0048 10.6632 160 51.9 127.069 546.244
2997 0 14.004 9.78292 137 52.5985 126.978 546.62
2998 0 17.2095 9.29722 160 53.15 126.525 544.912
2999 0 13.0087 9.2246 120 54.25 127.458 545.217
3000 0 14.0124 5.42375 76 55.1053 127.855 548.303
3001 0 16.0109 12.429 199 52.0804 126.91 545.096
3002 0 16.1049 10.3074 166 52.3133 127.476 547.018
3003 0 17.0768 9.25234 158 52.6456 127.367 545.076
3004 0 16.0138 11.4276 183 51.5738 127.869 546.388
3005 0 15.0198 11.6513 175 51.0286 127.52 544.503
3006 0 17.0615 13.7151 234 50.2393 126.996 545.658
3007 0 15.0047 9.99685 150 53.0667 127.853 544.627
3008 0 15.0137 8.0593 121 54.0165 127.62 545.901
3009 0 14.0333 7.26843 102 54.3529 127.784 547.314
3010 0 15.0475 8.24057 124 52.4839 126.258 548.218
3011 0 16.1112 6.45515 104 53.8846 127 546.529
3012 0 15.0191 7.7901 117 54.1624 127.761 546.94
3013 0 15.0099 10.593 159 53.0252 127.371 546.421
3014 0 16.0148 9.4912 152 53.2237 127.092 546.638
3015 0 17.1141 8.7063 149 52.4161 127.805 548.47
3016 0 16.0415 12.0936 194 51.7526 127.021 545.974
3017 0 15.0256 7.52051 113 54.3363 128.425 545.894
3018 0 17.013 10.4626 178 52.0449 127.691 547.714
3019 0 17.1408 12.0765 207 50.628 127.599 545.971
3020 0 17.012 8.52342 145 53.3172 128.621 546.117
3021 0 14.0863 9.08684 128 52.5391 127.422 546.195
3022 0 16.0188 7.61605 122 52.623 127.967 547.295
3023 0 16.0302 9.54449 153 51.0588 128.242 547.608
3024 0 17.0834 10.7121 183 51.7268 127.557 546.137
3025 0 16.0303 10.1059 162 51.4815 128.525 545.432
3026 0 16.0299 13.7244 220 49.4727 128.345 545.791
3027 0 16.0193 15.2317 244 48.2131 127.352 546.627
3028 0 15.02 7.8562 118 51.7288 127.602 545.424
3029 0 14.0089 9.13704 128 51.2188 128.055 547.32
3030 0 16.0185 10.4255 167 49.9341 127.844 547.072
3031 0 13.0014 2.23054 29 55.4828 129.552 547.655
3032 0 15.0165 6.19318 93 52.6237 128.968 547.516
3033 0 16.027 10.8567 174 51.3448 128.402 543.569
3034 0 15.0178 3.99525 60 52.2667 129.933 548.217
3035 0 18.0589 12.0716 218 49.9128 127.872 546.284
3036 0 14.0048 10.7106 150 50.5533 128.373 547.56
3037 0 16.0146 13.5501 217 48.3733 127.544 546.134
3038 0 14.1174 9.91681 140 50.4429 128.343 546.836
3039 0 15.0177 13.251 199 49.2663 128.055 546.578
3040 0 14.0107 4.99619 70 53 128.686 545.643
3041 0 13.0041 3.84493 50 54.08 129.44 544.66
3042 0 13.0037 10.151 132 50.6667 127.788 544.848
3043 0 14.0052 4.06992 57 52.3158 129.246 547.912
3044 0 15.0059 10.5958 159 49.8805 127.956 543.767
3045 0 15.0203 9.52044 143 50.0839 128.084 544.287
3046 0 15.0371 10.6403 160 49.575 128.281 544.756
3047 1 95.2148 12.2775 1169 68.5107 127.042 504.29
3048 0 98.2937 14.7517 1450 65.5462 126.641 505.094
3049 0 98.4288 11.6226 1144 70.5271 127.024 497.312
3050 0 103.213 13.9033 1435 66.853 126.712 501.56
3051 0 106.264 14.4828 1539 65.9175 126.507 501.125
3052 0 109.275 15.4747 1691 65.2235 127.105 498.884
3053 0 110.224 12.2297 1348 69.618 127.137 499.234
3054 0 113.173 15.6398 1770 65.3435 126.629 497.614
3055 0 119.387 14.2143 1697 66.8568 126.844 493.35
3056 0 123.217 17.0268 2098 62.8866 126.808 495.87
3057 0 125.147 14.6308 1831 66.2731 126.907 495.011
3058 0 128.161 12.2893 1575 69.2197 127.156 493.676
3059 0 133.16 15.012 1999 64.8759 126.978 494.223
3060 0 136.414 15.0864 2058 65.5394 127.833 485.418
3061 0 141.229 15.9953 2259 63.9579 127.536 484.349
3062 1 79.1191 11.8176 935 69.1893 127.829 511.184
3063 0 83.084 13.5525 1126 66.0426 127.398 514.7
3064 0 85.0962 13.3496 1136 66.3407 127.284 513.036
3065 0 89.2262 14.7602 1317 64.6682 127.115 512.28
3066 0 89.1462 12.6197 1125 68.0569 127.383 508.863
3067 0 94.6356 13.4622 1274 66.3375 126.768 506.549
3068 0 99.1813 14.4987 1438 64.815 126.719 507.386
3069 0 98.2134 13.5012 1326 67.1516 127.529 503.759
3070 0 99.2301 14.7939 1468 65.5559 126.642 504.619
3071 0 106.11 15.729 1669 64.1594 127.321 500.877
3072 0 108.356 15.9013 1723 63.9315 127.057 499.691
3073 0 108.325 13.0072 1409 68.2803 127.532 497
3074 0 114.289 14.2009 1623 65.7646 127.349 500.013
3075 0 117.262 16.2201 1902 63.3854 127.426 497.31
3076 0 119.372 14.3166 1709 66.3762 127.391 489.445
3077 0 120.371 12.3368 1485 69.3832 127.777 488.027
3078 0 129.272 15.7342 2034 63.7837 127.589 489.834
3079 1 70.2811 14.2144 999 63.6056 127.247 519.441
3080 0 70.1191 15.0886 1058 63.6834 126.997 518.241
3081 0 72.21 11.5912 837 67.5854 127.517 517.993
3082 0 75.2004 13.3377 1003 66.6152 127.621 515.295
3083 0 74.1619 12.4323 922 68.5705 127.802 511.877
3084 0 77.5562 11.8882 922 67.7646 127.474 514.614
3085 0 81.1045 12.749 1034 67.3046 127.831 510.182
3086 0 84.151 15.0444 1266 63.7125 127.99 513.88
3087 0 86.1233 16.0468 1382 63.5716 127.656 511.862
3088 0 88.3034 14.5634 1286 65.2776 127.543 510.645
3089 0 91.3694 14.4578 1321 65.5375 127.818 510.164
3090 0 94.2778 13.8421 1305 66.2475 126.831 507.101
3091 0 95.2056 14.621 1392 65.2759 127.826 506.085
3092 0 98.1769 14.9832 1471 64.6988 127.351 503.381
3093 0 101.234 14.8369 1502 64.8222 127.119 503.31
3094 0 102.218 14.4495 1477 65.5565 127.274 501.655
3095 0 109.204 14.7431 1610 64.7398 127.563 499.311
3096 0 109.287 13.7162 1499 66.3923 127.404 497.584
3097 0 113.799 13.6908 1558 66.4101 127.816 494.739
3098 1 54.4364 8.48696 462 70.3355 127.907 518.145
3099 0 59.2724 14.7624 875 61.288 128.334 523.102
3100 0 59.1782 11.2034 663 67.1357 128.216 517.394
3101 0 61.3777 11.8121 725 65.5103 128.029 518.837
3102 0 61.5236 10.5163 647 67.8532 127.13 517.082
3103 0 65.1725 12.6127 822 64.1265 128.147 518.21
3104 0 65.3199 12.3393 806 64.7705 127.272 516.935
3105 0 64.2303 11.3342 728 66.4382 127.067 513.716
3106 0 69.2062 13.6982 948 63.6276 127.609 513.677
3107 0 69.2729 12.4868 865 65.2023 127.539 515.299
3108 0 72.5194 13.4998 979 63.7365 127.568 512.143
3109 0 73.2834 14.1642 1038 62.394 127.768 517.667
3110 0 72.176 13.8135 997 63.5737 127.958 515.32
3111 0 75.3945 15.7969 1191 61.8035 127.816 513.997
3112 0 77.6155 14.3528 1114 63.8995 127.522 513.431
3113 0 81.7596 15.1175 1236 62.6286 127.557 513.036
3114 0 83.4836 14.2423 1189 64.725 127.49 508.835
3115 0 85.1762 17.2701 1471 60.6513 127.1 512.186
3116 0 88.71 17.0556 1513 61.0099 127.878 508.196
3117 0 89.423 15.7901 1412 62.8208 127.329 509.868
3118 0 92.5096 14.312 1324 64.1284 127.252 507.234
3119 0 93.2296 13.9441 1300 65.1831 127.615 503.695
3120 0 97.4528 16.9621 1653 61.3515 127.704 503.567
3121 0 99.2246 16.256 1613 61.9182 126.589 504
3122 0 99.3181 14.0961 1400 65.07 127.121 499.684
3123 0 104.634 16.4287 1719 62.1675 127.344 498.77
3124 0 108.306 15.7701 1708 62.5047 127.31 500.989
3125 0 108.808 14.0522 1529 65.3525 127.254 493.651
3126 0 111.287 13.6404 1518 65.8939 127.257 491.879
3127 0 117.314 14.4399 1694 63.964 127.329 496.699
3128 0 120.391 15.3334 1846 63.4594 127.592 490.679
3129 0 123.177 14.5401 1791 64.5667 127.854 491.199
3130 0 128.666 15.0855 1941 63.6595 126.787 490.397
3131 1 68.1501 12.9714 884 64.7545 126.666 515.432
3132 0 70.5562 12.8692 908 64.9416 127.401 517.111
3133 0 70.6292 13.9036 982 64.2088 127.574 517.472
3134 0 72.1594 12.6525 913 66.7229 126.819 515.045
3135 0 72.8245 11.5071 838 70.1229 127.683 508.765
3136 0 75.22 14.2382 1071 66.5966 127.16 511.356
3137 0 77.5145 11.2882 875 71.5691 127.657 505.611
3138 0 80.1765 15.2039 1219 65.2502 127.313 512.107
3139 0 84.4166 14.0375 1185 65.8675 127.089 510.945
3140 0 85.7748 12.9992 1115 67.6206 126.767 511.847
3141 0 88.2294 15.9017 1403 64.9865 126.681 510.064
3142 0 89.4321 13.9994 1252 67.5016 126.629 506.186
3143 0 94.4052 14.9992 1416 65.8354 126.465 506.714
3144 0 94.2709 13.9916 1319 67.6429 126.616 505.381
3145 0 99.7912 14.4201 1439 67.3614 126.668 502.103
3146 0 99.4612 13.4324 1336 68.884 126.612 500.618
3147 0 104.287 13.156 1372 69.5051 126.089 497.267
3148 0 110.143 14.8716 1638 66.4738 126.214 499.456
3149 1 55.1692 11.9632 660 70.0803 126.603 517.017
3150 0 62.321 13.4465 838 67.4045 125.648 518.511
3151 0 60.2933 14.7944 892 66.8094 125.943 518.815
3152 0 65.4527 13.5365 886 68.7596 125.889 517.529
3153 0 65.4882 14.934 978 67.8415 125.833 518.461
3154 0 67.0802 13.8491 929 70.6534 125.614 515.869
3155 0 68.3556 14.0296 959 70.4161 125.249 515.938
3156 0 73.0327 15.2124 1111 67.4221 125.267 517.817
3157 0 75.2404 13.6097 1024 69.0859 125.3 516.746
3158 0 76.3763 13.7084 1047 69.8816 125.455 514.078
3159 0 76.281 13.3061 1015 71.3862 126.149 513.626
3160 0 78.343 12.7261 997 72.7081 126.038 509.596
3161 0 79.4806 13.4876 1072 71.4468 126.359 512.356
3162 0 82.4431 15.8776 1309 67.8021 125.794 511.755
3163 0 85.2598 15.5407 1325 69.0702 125.76 509.162
3164 0 87.1448 14.2177 1239 71.2026 125.724 506.037
3165 0 90.4259 15.2722 1381 70.2462 126.19 503.541
3166 0 91.4933 14.0666 1287 73.0016 125.907 505.333
3167 0 95.5959 14.4985 1386 71.7424 125.013 504.223
3168 0 95.324 15.2427 1453 71.5258 125.875 501.746
3169 0 100.292 15.3453 1539 70.5913 126.153 501.634
3170 0 104.303 14.2661 1488 72.1949 126.183 500.792
3171 0 107.523 15.2246 1637 70.744 126.451 501.516
3172 0 110.299 14.3338 1581 72.9026 126.491 497.339
3173 0 110.267 14.3561 1583 73.8345 125.86 491.838
3174 0 115.187 15.3576 1769 72.0967 126.189 497.547
3175 1 61.3338 12.0488 739 73.2909 125.892 521.553
3176 0 63.1704 12.7591 806 73.6811 125.942 518.187
3177 0 66.3651 11.934 792 74.3523 126.082 517.899
3178 0 68.4333 12.6839 868 74.7995 126.327 516.862
3179 0 67.2586 12.0431 810 76.9235 125.732 514.647
3180 0 71.5265 14.3863 1029 73.6045 125.848 516.037
3181 0 73.4516 12.5253 920 75.5033 126.033 516.39
3182 0 75.4482 14.0361 1059 74 125.74 514.912
3183 0 74.1726 11.9181 884 79.3914 126.113 510.24
3184 0 79.1967 14.7607 1169 73.5594 126.07 514.131
3185 0 79.6963 13.702 1092 77.1795 126.076 508.658
3186 0 81.6543 13.2387 1081 77.432 126.252 510.94
3187 0 85.4886 14.9377 1277 74.556 125.899 510.082
3188 0 86.5517 11.9813 1037 80.5313 126.133 505.376
3189 0 89.1801 14.6894 1310 75.0863 126.388 510.026
3190 0 93.3673 15.6907 1465 74.3311 126.23 507.729
3191 0 95.2207 14.3771 1369 76.6472 125.912 504.961
3192 0 94.6762 13.6993 1297 78.7463 126.003 500.722
3193 0 99.5434 14.5766 1451 76.9497 126.036 501.463
3194 0 101.167 15.2124 1539 75.0695 124.687 504.138
3195 0 105.604 12.225 1291 80.3044 125.647 496.531
3196 0 108.681 13.7191 1491 77.3508 125.785 499.811
3197 0 106.339 15.2061 1617 76.8479 125.874 497.039
3198 0 115.514 14.8813 1719 76.1309 125.903 496.273
3199 0 118.397 13.9953 1657 76.8582 126.251 497.391
3200 1 60.1632 12.3664 744 77.0766 125.87 520.737
3201 0 62.4968 11.7926 737 79.5007 127.187 517.545
3202 0 64.4117 13.274 855 75.8246 127.117 519.081
3203 0 64.119 12.3052 789 78.3333 126.928 518.056
3204 0 66.361 14.2403 945 74.4275 127.187 519.97
3205 0 66.4837 13.0709 869 78.87 126.788 514.933
3206 0 70.3934 13.1831 928 77.1541 125.963 516.866
3207 0 68.4821 11.1416 763 83.1809 125.738 511.796
3208 0 71.2795 12.7807 911 79.9638 126.341 512.133
3209 0 73.1648 11.0299 807 83.3048 126.017 510.318
3210 0 75.4858 13.5257 1021 78.5328 126.416 512.975
3211 0 75.2686 15.1325 1139 77.2485 126.362 511.639
3212 0 79.2011 16.5149 1308 74.2538 126.204 512.82
3213 0 80.5735 15.1415 1220 76.5574 125.911 512.362
3214 0 80.737 13.0052 1050 81.3848 126.337 507.653
3215 0 84.2777 13.5267 1140 78.1316 126.63 511.961
3216 0 87.2497 15.9198 1389 75.6494 126.872 506.958
3217 0 84.2358 13.3435 1124 80.6157 127.081 505.733
3218 0 89.5596 13.8455 1240 79.3452 126.873 505.01
3219 0 93.2047 14.6774 1368 77.9883 126.967 503.781
3220 0 92.1197 12.3209 1135 82.9022 126.126 496.022
3221 0 87.0794 13.8494 1206 82.2894 126.098 495.802
3222 1 102.265 14.1984 1452 77.9607 125.806 498.395
3223 0 102.574 15.033 1542 77.1946 125.741 497.63
3224 0 108.3 15.5495 1684 75.288 126.408 498.391
3225 0 110.3 14.9864 1653 76.8088 126.087 491.155
3226 0 113.164 15.5349 1758 76.2708 126.252 489.129
3227 0 111.225 14.4662 1609 78.3772 126.239 490.361
3228 0 119.362 14.2424 1700 78.0518 126.803 490.179
3229 0 122.421 13.8293 1693 78.8677 126.605 487.151
3230 1 64.2226 10.2145 656 84.9771 126.791 509.471
3231 1 12.0328 6.14983 74 52.7568 129.514 544.649
3232 0 14.0092 10.4217 146 52.2055 128.678 543.294
3233 1 75.5447 13.4622 1017 76.2114 127.411 514.562
3234 0 77.3588 11.5695 895 81.543 127.025 506.034
3235 0 78.3242 11.6822 915 81.1519 127.189 507.823
3236 0 82.4239 12.0232 991 80.1261 127.41 509.099
3237 0 84.4445 11.3092 955 81.1937 126.974 507.984
3238 0 86.2746 13.3643 1153 78.3573 127.364 509.285
3239 0 89.3468 14.6396 1308 75.6651 127.008 509.83
3240 0 92.1639 14.0402 1294 77.5464 127.26 505.493
3241 0 91.3802 11.9172 1089 81.3875 126.535 501.972
3242 0 97.2296 13.0207 1266 78.1817 126.527 507.583
3243 0 98.4829 15.16 1493 76.4441 126.368 501.669
3244 0 101.263 13.1539 1332 79.5353 126.39 501.02
3245 0 102.456 12.4054 1271 79.8489 126.313 502.219
3246 0 107.415 15.3702 1651 74.6214 126.433 503.631
3247 0 110.56 15.123 1672 74.9504 126.135 501.036
3248 0 112.365 13.999 1573 77.1462 126.35 497.871
3249 0 115.145 13.8173 1591 76.8982 126.187 499.932
3250 1 64.8062 10.2614 665 82.021 126.128 518.024
3251 0 67.3067 13.3865 901 75.0444 125.972 522.108
3252 1 16.0428 5.48532 88 54.25 127.148 546.568
3253 0 15.2671 8.05656 123 53.9512 126.862 545.415
3254 0 11.0204 2.35927 26 58.5385 127.769 545.192
3255 1 71.2377 14.1077 1005 76.0249 126.118 517.134
3256 0 74.3166 12.1911 906 77.6004 126.024 517.787
3257 0 77.2082 13.9752 1079 76.4476 125.428 514.298
3258 0 78.3921 14.3382 1124 75.0142 125.856 517.978
3259 0 81.529 15.1235 1233 74.5215 125.962 516.477
3260 0 82.2127 14.9247 1227 74.7351 125.492 516.028
3261 0 82.2193 13.5735 1116 79.1389 125.532 508.709
3262 1 16.0069 9.24603 148 53.2365 126.5 547.176
3263 0 16.0178 11.175 179 53.0614 127.022 544.743
3264 0 15.0055 11.6624 175 53.4914 126.794 543.966
3265 0 14.0043 11.2109 157 53.828 126.516 543.981
3266 0 16.0359 10.1647 163 53.8773 126.681 544.294
3267 0 15.0591 7.63656 115 53.8174 127.296 545.939
3268 0 14.11 15.9461 225 51.0667 124.724 544.618
3269 0 15.0051 10.2632 154 53.8831 126.156 544.74
3270 0 15.0526 10.9616 165 52.4424 125.788 545.691
3271 0 12.0408 7.88984 95 55.4947 126.337 543.337
3272 0 15.1147 15.8124 239 51.4142 124.682 544.05
3273 0 15.0797 3.58098 54 57.7037 125.944 545.37
3274 0 17.0179 8.52044 145 54.7793 126.048 543.338
3275 0 14.0492 8.61257 121 55.1157 125.504 543.769
3276 0 15.083 3.58019 54 57.8518 126.074 544.222
3277 0 15.093 9.54082 144 55.1181 125.333 543.083
3278 0 16.013 8.80533 141 54.2057 125.191 544.489
3279 0 15.0205 10.053 151 54.4768 125.02 542.954
3280 0 14.0077 7.49589 105 56.1714 125.343 542.324
3281 0 15.0259 6.52206 98 56.6837 124.939 542.561
3282 0 17.0622 6.44698 110 56.2545 124.927 544.973
3283 0 16.0144 8.74216 140 54.9143 124.614 545.143
3284 0 11.017 5.71845 63 56.9206 125.27 544.81
3285 0 15.005 9.46348 142 55.5845 124.655 544.359
3286 0 11.0197 4.62806 51 58.549 125.569 540.412
3287 0 16.0269 8.17374 131 56.5038 124.695 542.473
3288 0 14.073 5.4004 76 57.7895 125.829 544.342
3289 0 14.0156 11.4159 160 55.3188 124.081 543.144
3290 1 85.2877 14.5742 1243 81.6806 123.439 507.736
3291 0 88.5135 14.1673 1254 80.9617 123.614 508.999
3292 0 88.4326 11.9074 1053 86.6714 122.766 504.283
3293 0 93.4047 14.6995 1373 80.6205 123.548 506.589
3294 0 94.5876 13.7756 1303 82.6723 123.468 505.173
3295 0 97.2632 14.4968 1410 80.1121 122.718 506.62
3296 0 99.4148 13.4487 1337 82.7502 123.104 503.369
3297 0 101.753 14.3386 1459 81.7032 123.587 500.017
3298 0 104.519 14.1792 1482 81.7146 123.77 499.756
3299 0 108.455 13.8859 1506 81.2503 124.015 501.747
3300 0 110.4 13.3515 1474 83.517 124.78 497.149
3301 0 110.569 13.2406 1464 83.6667 124.988 496.76
3302 1 60.4917 12.3653 748 81.3837 124.742 519.596
3303 0 59.4583 11.1507 663 83.8733 124.362 519.827
3304 0 62.2661 13.7474 856 79.6507 124.31 520.798
3305 0 62.2926 12.5055 779 82.3209 124.841 520.331
3306 0 59.4536 11.0506 657 84.0137 124.839 520.807
3307 0 68.7056 13.2595 911 81.1767 125.064 517.597
3308 0 66.5124 12.8547 855 82.3567 125.34 516.055
3309 0 70.3743 10.6715 751 86.1784 124.648 513.282
3310 0 70.3602 11.3558 799 85.7297 124.422 511.076
3311 0 73.475 12.2082 897 84.2442 124.454 509.634
3312 0 76.3391 13.0994 1000 82.057 124.501 510.741
3313 0 74.2028 10.4713 777 89.7014 125.152 505.39
3314 0 77.5408 12.0195 932 86.5987 125.181 506.622
3315 1 16.0961 11.1207 179 53.8939 126.57 540.363
3316 0 14.0088 6.99561 98 56.6531 127.765 538.337
3317 0 14.02 2.9244 41 59.8293 128.488 537.439
3318 0 11.0096 4.08735 45 59.7111 127.444 535.444
3319 0 15.0092 6.06295 91 56.967 127.956 538.626
3320 0 14.0078 3.14112 44 58.1136 128.705 542.591
3321 0 15.0814 7.559 114 57.2105 127.649 539.421
3322 0 13.0083 5.15054 67 58.2239 128.687 538.328
3323 0 11.0035 2.54466 28 61.2143 129.607 540.607
3324 0 16.0057 9.43414 151 55.5298 127.185 539.821
3325 0 15.0144 8.25876 124 56.4758 127.145 539.806
3326 0 13.0072 12.6853 165 54.7636 126.188 539.982
3327 0 15.0036 11.5972 174 56.3391 127.385 540.259
3328 0 16.0049 10.7467 172 56.4128 127.128 540.046
3329 0 14.1065 6.94715 98 57.9388 127.439 541.48
3330 0 15.0394 5.58533 84 58.2381 127.905 540.988
3331 0 15.0218 12.848 193 55.0155 127.098 540.062
3332 0 14.0207 6.63304 93 60.1075 128.215 538.892
3333 0 15.0334 2.46119 37 63.0811 129.703 541.243
3334 0 15.0157 5.52754 83 60.4217 129 540.771
3335 0 18.1857 5.71877 104 58.5288 129.019 541.702
3336 0 16.0606 9.7755 157 57.4777 127.255 538.408
3337 0 13.0035 4.07581 53 61.3396 128.132 538.17
3338 1 57.0331 13.4659 768 92.0326 125.812 508.309
3339 0 56.1006 14.2779 801 91.6767 125.579 508.126
3340 0 58.0858 13.7211 797 92.5144 125.097 506.642
3341 0 62.1183 14.907 926 89.3909 124.653 508.432
3342 0 61.0696 14.6227 893 91.6764 124.86 507.714
3343 0 62.3806 13.097 817 94.9608 125.022 505.229
3344 0 66.083 14.6028 965 90.7368 125.715 505.466
3345 0 66.2276 13.3328 883 94.3262 125.041 502.052
3346 0 73.0489 14.3329 1047 89.8491 124.62 504.073
3347 0 73.1482 14.163 1036 90.9874 125.103 503.489
3348 0 72.2902 13.4043 969 92.8679 125.218 503.484
3349 1 11.0026 6.5439 72 60.1944 128.819 540.708
3350 0 14.013 9.34846 131 58.5725 127.977 540.878
3351 0 13 0.692308 9 68.1111 130 538.556
3352 0 12.0411 9.30148 112 59.1786 127.973 540.134
3353 0 1 8 8 60.375 130.5 535.625
3354 0 3 4.66667 14 58.9286 128.571 536.643
3355 0 12.01 6.32805 76 60.171 127.5 541.184
3356 1 148.214 11.4767 1701 95.2822 124.16 469.162
3357 0 151.359 9.79128 1482 94.7227 123.877 480.488
3358 1 56.4311 10.2603 579 94.2107 124.192 513.149
3359 0 49.0929 13.668 671 90.8793 124.417 515.642
3360 1 13.0141 3.91884 51 62.3137 127.588 545.039
3361 0 14.0084 6.06779 85 61.3765 127.776 542.729
3362 0 14.0139 11.0605 155 58.0129 125.342 541.826
3363 0 16.0947 7.0831 114 59.7368 126.763 541.026
3364 0 14.0223 7.34543 103 60.2524 126.592 541.437
3365 0 15.0101 7.52828 113 59.9204 126.531 543.522
3366 0 14.024 7.98631 112 59.4464 126.536 543.348
3367 0 15.0162 8.9237 134 58.3731 126.448 544.343
3368 0 13.0033 6.61371 86 60.3721 126.93 544.942
3369 1 65.0961 13.3495 869 91.7595 123.978 509.193
3370 0 75.7347 14.4319 1093 84.9003 124.51 512.662
3371 1 0 0 0 -nan -nan -nan
3372 1 17.0592 10.0825 172 56.2849 125.93 544.314
3373 0 16.103 7.45202 120 58.0167 127.125 543.725
3374 0 16.0139 6.68168 107 56.9065 127.682 545.065
3375 0 17.1697 8.67808 149 56.1275 126.087 544.732
3376 0 16.0098 5.99632 96 56.9479 127.26 543.094
3377 0 15.0213 6.99006 105 55.6286 126.105 546
3378 0 17.2541 6.08551 105 56.7714 127.638 544.171
3379 0 15.0981 8.41166 127 54.874 127.26 545.307
3380 0 15.0111 4.92969 74 58.3514 128.122 543.486
3381 0 15.035 5.1879 78 57.782 127.974 544.538
3382 0 14.0208 11.3403 159 54.4906 126.245 542.88
3383 0 15.0112 10.6587 160 54.0938 125.888 544.894
3384 0 14.0274 4.5625 64 59.3594 127.734 541.297
3385 0 14.0014 2.35691 33 59.3333 129.091 544.758
3386 0 13.0548 6.81742 89 55.8202 126.966 545.303
3387 0 15.0047 6.93116 104 56.3365 127.567 543.779
3388 0 15.0711 4.8437 73 58.3699 127.274 544.767
3389 0 14.0079 7.13883 100 57.22 127.84 544.02
3390 0 15.0061 2.66558 40 59.4 128 546.6
3391 0 14.1109 8.43322 119 56.2857 127.815 544.05
3392 0 14.017 5.63601 79 57.962 127.747 544.532
3393 0 16.0469 13.2113 212 54.4009 126.184 544.849
3394 0 13.0316 5.0646 66 59.0303 127.742 545.485
3395 0 16.0027 5.31161 85 58.6471 128.365 544.012
3396 0 14.0846 7.02894 99 58.9394 128.071 544.101
3397 0 15.0523 9.83237 148 56.8378 127.676 541.926
3398 0 16.0205 4.93118 79 59.443 128.215 542.861
3399 0 13.0119 6.22505 81 59.7531 128.642 543.716
3400 0 12.0095 2.58129 31 62.7742 129.419 543.258
3401 0 16.0953 9.50588 153 56.6209 127.209 544.163
3402 0 15.0067 6.33049 95 57.8632 128.211 544.505
3403 0 16.1241 8.37254 135 57.3259 127.526 542.193
3404 0 17.192 10.1792 175 54.4343 126.549 544.377
3405 0 16.0253 12.1683 195 54.3487 127.174 542.036
3406 0 14.0067 7.63919 107 57.1215 128.103 543.093
3407 0 14.0082 8.06668 113 56.4602 128.177 543.947
3408 0 15.0071 13.9268 209 53.689 125.407 543.153
3409 0 16.0396 8.47903 136 56.4412 127.25 544.081
3410 0 14.0908 8.72909 123 56.1463 126.496 543.74
3411 0 13.0233 8.21606 107 55.9626 126.738 544.757
3412 0 13.0041 2.99905 39 60.0769 128.103 544.128
3413 0 13.0051 4.99804 65 59.5231 127.969 544.554
3414 0 13.0076 5.91962 77 58.1948 127.143 544.662
3415 0 16.004 2.62434 42 60.2857 127.548 541.119
3416 0 13.0315 3.99034 52 59.4231 128.423 542.942
3417 0 16.0941 5.59212 90 58.6889 127.778 541.044
3418 0 16.0309 8.92028 143 55.8531 126.622 542.392
3419 0 13.0121 4.3037 56 59.7321 129.071 542.714
3420 0 16.0544 8.28435 133 56.0977 126.669 543.12
3421 0 11.0067 3.45243 38 60.9737 129.263 543.974
3422 0 16.0242 8.7992 141 56.4539 127.83 541.553
3423 0 17.1206 6.71707 115 56.0348 127.713 544.861
3424 0 17.0819 6.55664 112 57.3214 127.688 542.848
3425 0 15.008 10.1945 153 56.5621 127.013 541.085
3426 0 14.0337 7.83827 110 58.4636 126.655 542.1
3427 0 15.1848 10.2076 155 55.9097 126.748 543.058
3428 0 15.2245 8.34184 127 56.2756 126.795 543.654
3429 0 14.1675 4.72913 67 59.2985 127.94 543.075
3430 0 14.0085 8.92312 125 56.48 126.176 543.192
3431 0 15.0867 6.89348 104 57.4904 126.442 543.212
3432 0 17.0098 8.93601 152 55.0855 125.395 541.836
3433 0 16.011 4.99655 80 57.8 126.625 543.562
3434 0 17.0702 10.6618 182 55.2308 125.984 541.434
3435 0 16.0407 8.91484 143 56.7133 127.07 541.853
3436 0 16.0612 10.211 164 55.9268 125.933 542.171
3437 0 17.0287 11.3925 194 55.8711 126.015 541.402
3438 0 16.0085 10.8068 173 55.948 126.035 540.809
3439 0 17.0292 7.92756 135 57.3333 126.556 540.948
3440 0 16.0257 10.0464 161 56.5342 125.87 540.963
3441 0 16.0697 11.5746 186 55.957 125.527 540.392
3442 0 14.1108 8.78757 124 57.4032 127.097 542.145
3443 0 12.0023 2.91611 35 62.8286 127.686 541.457
3444 0 17.0621 9.67058 165 57.297 126.552 541.236
3445 0 17.0161 8.34504 142 58.0563 126.437 540.268
3446 0 15.0619 6.57289 99 58.6566 126.818 543.667
3447 0 15.0114 13.3232 200 55.58 126.415 541.785
3448 0 14.0402 7.62099 107 59.0654 127.85 540.645
3449 0 13.0046 2.92205 38 62.1579 129.132 542.5
3450 0 18.077 11.8935 215 55.7302 125.814 541.516
3451 0 14.0257 3.85008 54 61.9815 127.963 540.889
3452 0 16.0957 8.13881 131 58.2366 126.977 542.42
3453 0 16.0141 7.99297 128 57.9219 127.195 541.25
3454 0 16.0364 5.67459 91 59.3626 127.44 542.374
3455 0 14.0305 4.8466 68 58.9706 126.912 543.235
3456 0 16.0138 9.49184 152 56.7105 126.763 539.145
3457 0 15.0304 9.78018 147 57.4218 126.49 539.714
3458 0 15.1036 8.87204 134 56.791 126.925 539.381
3459 0 17.023 9.2228 157 56.5223 127.108 538.994
3460 0 14.0983 7.80234 110 57.4455 126.991 537.591
3461 0 15.1164 5.09379 77 59.4675 126.286 539.558
3462 0 17.1509 3.20682 55 60.1455 127.527 539.509
3463 0 13.0595 3.9052 51 60.3137 129 540.529
3464 0 16.1156 7.26006 117 56.8632 127.538 540.504
3465 0 13.0263 5.22021 68 59.6912 128.632 539.221
3466 0 14.0341 8.05179 113 57.1327 127.54 539.522
3467 0 14.0425 5.62578 79 58.5823 128.886 540.139
3468 0 14.0098 6.85233 96 57.5938 128.01 539.604
3469 0 14.0754 9.73327 137 56.4015 127.613 539.394
3470 0 15.0307 4.79019 72 57.5972 128.819 542.417
3471 0 16.0711 5.28901 85 58.2941 128.318 540.494
3472 0 16.0557 7.16255 115 56.7391 127.348 540.67
3473 0 15.0661 8.4295 127 57.2677 127.402 538.063
3474 0 15.0058 10.2627 154 55.8442 127.994 538.955
3475 0 17.2694 5.26943 91 56.9011 127.473 541.538
3476 0 15.0557 7.04052 106 57.1887 127.377 539.368
3477 0 14.0261 3.13701 44 60.9773 128.159 541.091
3478 0 15.0534 8.1045 122 56.418 127.262 539.754
3479 0 14.0044 5.06984 71 58.9577 128.549 537.775
3480 0 16.0208 8.42656 135 56.763 128.044 538.793
3481 0 11.0056 4.90658 54 59.537 129.593 539.463
3482 0 15.0643 10.1565 153 55.7516 127.601 540.451
3483 0 16.0277 7.05031 113 57.3363 128.442 540.292
3484 0 15.0457 7.57689 114 56.0175 128.228 539.096
3485 0 16.0325 8.04614 129 56.3566 128.457 537.031
3486 0 16.0761 6.28262 101 57.396 129.317 536.792
3487 0 16.0534 5.41943 87 57.8736 128.793 536.828
3488 0 12.0075 3.16469 38 61.1053 129 541.368
3489 0 11.0092 3.54251 39 61 129.59 539.359
3490 0 14.0039 4.35594 61 59.2623 130.164 539.721
3491 0 16.0692 10.3925 167 53.9521 127.204 542.838
3492 0 14.0735 9.09514 128 56.3672 128.406 540.18
3493 0 16.1493 6.31608 102 57.3627 128.716 541.853
3494 0 13.0124 3.76563 49 59.9592 129.837 542.02
3495 0 14.1043 5.74291 81 57.2593 128.691 543.272
3496 0 13.0227 5.75916 75 58.4933 130.027 540.92
3497 0 15.0375 5.71905 86 57.9535 129.791 542.209
3498 0 16.0047 8.31005 133 57.188 128.444 541.331
3499 0 14.0046 9.13984 128 55.4609 128.641 541.805
3500 0 12.0474 5.97639 72 56.5833 128.958 542.486
3501 0 14.1276 9.9097 140 55.2 128.757 541.264
3502 0 14.0282 3.13654 44 60.5455 130.227 542.114
3503 0 13.04 4.75459 62 59.0968 129.468 542.677
3504 0 17.0084 9.34831 159 54.4717 128 543.333
3505 0 13.1038 5.72351 75 57.6267 129.4 542.307
3506 0 15.0175 8.12387 122 56.2787 128.295 542.992
3507 0 15.0878 7.95346 120 56.425 128.333 543.533
3508 0 14.0148 10.5603 148 54.973 127.872 543.784
3509 0 13.0169 3.30339 43 59.7442 129.767 543.256
3510 0 15.0026 11.1314 167 53.8204 126.85 544.299
3511 0 16.0201 5.99246 96 56.9688 128.844 544.323
3512 0 16.0745 12.6909 204 52.6667 126.525 544.471
3513 0 15.0983 12.0543 182 53.2253 126.725 545.016
3514 0 15.0253 8.31932 125 54.696 127.528 545.24
3515 0 15.0214 3.72802 56 58.3571 128.286 544.321
3516 0 14.0305 5.6306 79 57.1899 128.114 544.582
3517 0 12.0355 7.56094 91 56.3187 127.967 543.89
3518 0 13.0095 6.4568 84 56.9048 128.274 545.417
3519 0 14.0714 4.26398 60 58.1 129.2 546.3
3520 0 16.0797 6.90311 111 56.045 128.432 544.396
3521 0 17.0173 14.2796 243 52.0864 125.523 545.309
3522 0 17.0397 6.22076 106 55.7453 127.66 546.66
3523 0 14.0055 3.21302 45 59.2222 129.022 544.711
3524 0 14.0207 5.84849 82 57.0976 128.39 546.244
3525 0 15.0266 6.58834 99 56.899 128.414 546.091
3526 0 16.1533 8.79078 142 54.662 126.789 544.556
3527 0 15.0175 7.12503 107 55.4299 127.897 543.439
3528 0 13.0031 3.53762 46 58.9348 129.13 543.13
3529 0 15.0101 6.19585 93 57.3011 127.763 544.011
3530 0 15.0825 5.96718 90 57.1778 128.5 543.078
3531 0 15.0104 4.92993 74 56.7973 127.635 543.784
3532 0 14.003 5.28456 74 56.2973 127.541 545.014
3533 0 14.1155 10.4141 147 53.1361 126.361 543.401
3534 0 14.1325 5.16541 73 56.3562 128.562 544.425
3535 0 13.0024 4.61453 60 56.8667 128.533 546.283
3536 0 15.0135 13.1882 198 51.2626 126.434 545.136
3537 0 14.0043 7.92611 111 53.8288 127.577 545.622
3538 0 15.0942 9.20885 139 53.7338 128.504 544.77
3539 0 14.1267 5.1675 73 53.8356 128.027 544.89
3540 0 16.0378 4.17763 67 55.2537 128.299 544.672
3541 0 15.0087 1.6657 25 59.36 128.36 543.76
3542 0 14.0075 3.71229 52 57.0577 127.923 543.75
3543 0 16.1868 10.6878 173 50.3353 126.919 545.185
3544 0 16.1058 6.64356 107 53.5514 127.86 545
3545 0 15.0236 5.12527 77 55.7922 128.312 543.506
3546 0 16.0811 5.59665 90 54.7222 128.744 544.533
3547 0 14.0237 5.77594 81 54.8765 128.667 543.975
3548 0 13.015 7.99077 104 53.5 128.058 543.163
3549 0 15.0123 7.92681 119 52.6387 127.765 544.26
3550 0 14.0164 4.92281 69 55.3623 128.623 544.217
3551 0 14.0137 6.565 92 54.0978 128.239 543.141
3552 0 9 0.888889 8 60.125 130 542.5
3553 0 15.0277 3.46028 52 56.0962 129.038 541.269
3554 0 16.0018 4.31201 69 54.4783 128.145 543.478
3555 0 15.0067 6.66368 100 53.23 127.82 542.35
3556 0 15.0033 5.86537 88 53.7273 128.534 542.67
3557 0 13.0065 10.5332 137 52.438 127.715 542.438
3558 0 12.0153 3.9117 47 56.4043 129.681 543.021
3559 0 16.0164 4.62025 74 55.3784 128.473 540.743
3560 0 14.008 3.14105 44 56.7273 128.818 543.205
3561 0 16.0221 9.79894 157 52.5032 127.166 541.631
3562 0 15.0613 5.64362 85 54.9529 127.976 540.188
3563 0 16.0953 4.72187 76 54.671 128.5 544.237
3564 0 16.0069 6.05988 97 53.7629 129.103 541.639
3565 0 11.0248 4.62595 51 55.7255 128.765 541
3566 0 15.0455 4.7855 72 55.1528 128.333 541.236
3567 0 13.0041 4.15255 54 54.8518 129.185 540.13
3568 0 15.0095 5.92959 89 52.1685 127.596 542.562
3569 0 15.1013 9.07209 137 51.9197 127.482 541.445
3570 0 13.0499 5.74715 75 54.4 128.187 540.92
3571 0 14.0281 11.1205 156 51.4936 127.391 540.609
3572 0 14.003 6.99848 98 53.5612 128.337 540.684
3573 0 15.0052 8.93026 134 51.4328 127.56 540.821
3574 0 13.007 5.07417 66 54.7879 128.636 538.727
3575 0 16.0391 5.36188 86 53.1512 128.36 540.337
3576 0 15.1029 3.64167 55 54.6182 128.291 541.455
3577 1 79.7536 14.5197 1158 73.7893 124.902 510.484
3578 0 79.6299 13.2614 1056 76.7424 124.759 506.896
3579 0 84.9347 13.269 1127 76.5697 125.46 505.846
3580 0 81.7395 11.5122 941 81.9416 125.491 501.821
3581 0 86.8297 12.6454 1098 78.6157 124.883 503.337
3582 0 89.7047 13.3215 1195 77.2268 124.573 504.367
3583 0 91.6907 14.4617 1326 74.7979 125.633 504.998
3584 0 92.4356 14.3127 1323 76.9252 125.796 498.006
3585 0 97.8417 13.6956 1340 76.4702 125.404 501.041
3586 1 17.0046 5.93957 101 53.7228 128.287 539.881
3587 0 15.0207 3.6616 55 56.0182 129.2 539.745
3588 0 14.0112 5.56696 78 53.6538 129.141 541.269
3589 0 13.0028 4.15295 54 53.8889 129.389 541.278
3590 0 15.2194 3.74523 57 54.4386 129.228 540.982
3591 0 14.0452 2.49195 35 56.5429 130.486 538.943
3592 1 118.619 16.6163 1971 72.1593 125.927 489.441
3593 0 119.871 13.0974 1570 77.7688 125.501 489.762
3594 0 125.923 15.1442 1907 74.1395 125.853 488.633
3595 0 127.68 17.1523 2190 72.3534 125.605 484.472
3596 0 130.89 15.364 2011 75.0368 125.741 480.736
3597 0 130.711 13.4266 1755 79.1641 125.85 480.738
3598 0 139.628 13.3497 1864 78.5236 126.038 483.716
3599 0 142.095 14.6029 2075 76.4386 126.748 481.377
3600 0 146.737 16.2672 2387 74.1504 126.405 477.15
3601 0 149.746 13.4895 2020 78.851 126.712 474.157
3602 1 80.5374 12.7891 1030 78.7961 126.814 511.286
3603 0 80.6488 13.5526 1093 78.4913 126.357 510.973
3604 0 83.6872 13.0605 1093 80.0256 125.489 507.769
3605 0 86.8153 14.0874 1223 77.9828 126.364 510.68
3606 0 88.9044 14.2513 1267 78.0402 125.298 511.055
3607 0 88.8605 13.0767 1162 81.2668 125.888 506.103
3608 0 91.6257 14.4719 1326 77.5573 125.464 509.974
3609 0 94.3499 14.3932 1358 79.3373 125.931 507.494
3610 0 95.7103 14.1364 1353 79.5248 126.066 507.629
3611 0 99.7781 14.4922 1446 79.4198 125.688 505.679
3612 0 103.299 15.4696 1598 77.3936 125.581 505.749
3613 0 101.725 12.5731 1279 83.7998 125.54 503.069
3614 0 105.63 14.5318 1535 80.5322 125.368 501.162
3615 1 15.0691 10.286 155 53.2968 127.142 544.89
3616 0 16.2204 7.8913 128 54.1016 128.422 546.938
3617 0 18.0414 8.92391 161 52.6087 127.534 546.932
3618 0 15.0636 8.76282 132 54.1288 127.591 544.932
3619 0 14.0217 6.27598 88 55.8409 128.045 545.705
3620 0 15.0236 5.39152 81 55.7654 127.506 546.37
3621 0 15.1045 4.43578 67 57.2687 128.209 545.955
3622 1 130.708 14.7121 1923 79.9844 123.569 488.737
3623 0 133.571 12.9744 1733 82.9504 124.425 486.417
3624 0 142.646 14.5815 2080 78.7471 124.514 490.145
3625 0 143.648 15.5797 2238 78.105 123.362 485.202
3626 0 148.878 15.2206 2266 78.0962 124.369 488.199
3627 0 153.902 14.0934 2169 79.8949 124.385 484.501
3628 0 157.878 13.5168 2134 81.5211 124.289 479.838
3629 1 64.7012 12.1636 787 83.202 124.32 521.551
3630 0 67.8109 11.768 798 83.7732 124.412 520.711
3631 0 66.7275 13.113 875 83.912 124.241 518.247
3632 0 67.753 10.3021 698 89.659 124.933 516.383
3633 0 69.5389 13.2731 923 83.2156 124.265 518.723
3634 0 70.6074 14.0637 993 82.3102 124.243 519.191
3635 0 70.5618 13.5768 958 85.9614 124.437 515.03
3636 0 73.866 14.7564 1090 82.0229 124.172 518.955
3637 0 73.6937 12.9726 956 84.9142 124.316 518.396
3638 0 75.7645 15.1258 1146 82.7635 124.409 515.55
3639 0 77.8524 12.5879 980 85.6765 124.745 515.92
3640 0 78.7415 12.9411 1019 86.9087 124.809 511.944
3641 0 79.6433 12.5058 996 88.7651 125.396 508.358
3642 0 83.904 16.0302 1345 80.3591 124.761 512.925
3643 0 84.9476 14.0675 1195 83.4904 124.494 511.337
3644 0 87.716 12.9851 1139 85.2081 124.104 508.09
3645 0 89.9493 15.4087 1386 80.6429 124.26 509.331
3646 0 92.956 16.0183 1489 78.9772 124.005 509.073
3647 0 93.8046 12.4301 1166 86.3328 123.997 504.196
3648 0 95.5378 12.4244 1187 85.604 124.607 503.784
3649 0 101.728 15.5611 1583 78.8187 124.533 504.754
3650 0 102.658 12.9946 1334 84.0712 124.472 500.642
3651 0 104.59 13.3856 1400 84.3793 124.344 496.957
3652 1 14.0748 5.04448 71 55.3521 128.535 545.296
3653 0 14.0894 4.47145 63 57.127 129.46 544.206
3654 0 14.0395 6.9803 98 55.3878 128.663 543.306
3655 0 12.0384 4.4026 53 58.0755 129.377 544.208
3656 0 14.0091 6.35299 89 56.1573 129.371 541.966
3657 0 14.0219 6.98909 98 55.2449 129.378 541.847
3658 0 14.0271 6.84391 96 54.9688 129.625 544.01
3659 0 14.0307 5.84431 82 56.939 130.024 543.439
3660 0 12.0201 8.73538 105 55.2952 128.524 542.152
3661 0 15.0069 6.59696 99 56.6465 129.354 542.465
3662 0 15.1604 5.80459 88 57.2159 128.523 543.455
3663 0 15.0489 6.57854 99 57.202 128.949 542.788
3664 0 14.0318 3.49208 49 59.102 129.531 544.878
3665 0 16.0078 3.37337 54 61.8333 129.63 541.518
3666 1 75.8365 12.8434 974 87.153 125.004 511.802
3667 0 73.5322 11.7636 865 91.2139 125.325 509.205
3668 0 78.9896 13.5841 1073 86.8872 125.06 508.484
3669 0 77.7932 12.289 956 90.8117 124.465 507.542
3670 0 82.7439 14.0675 1164 85.9502 124.272 509.919
3671 0 82.6632 13.7667 1138 87.8032 124.972 508.291
3672 0 84.6831 13.5328 1146 87.733 125.012 506.541
3673 0 85.5187 13.2603 1134 87.5273 124.099 507.956
3674 0 87.6294 13.7853 1208 87.3733 124.618 508.69
3675 0 89.8053 13.752 1235 87.8437 124.439 506.634
3676 0 92.615 14.6305 1355 85.5602 124.342 504.994
3677 0 93.7345 14.2104 1332 87.8791 124.526 502.658
3678 0 95.6211 13.1038 1253 90.3105 125.155 501.901
3679 0 101.173 15.4784 1566 84.0326 124.636 504.849
3680 0 99.7176 13.9695 1393 89.1701 124.781 501.397
3681 0 101.742 12.7775 1300 91.4608 124.256 497.178
3682 0 107.638 15.9052 1712 84.7243 124.571 499.752
3683 0 109.865 14.6816 1613 86.9386 124.448 497.379
3684 0 114.805 16.2101 1861 83.3235 124.486 496.856
3685 1 14.0406 6.05385 85 59.9176 128.588 540.894
3686 0 15.0227 6.39034 96 59.6667 128.5 542.729
3687 0 14.1449 4.80738 68 61.0441 128.735 541.985
3688 0 16.2361 6.2207 101 58.1881 128.584 542.891
3689 0 16.1157 6.82563 110 58.2636 128.491 543.536
3690 0 15.0532 5.64665 85 60.6118 129.776 542.271
3691 0 14.051 7.75746 109 59.1284 129.037 540.431
3692 1 74.5754 13.302 992 86.9395 125.818 512.547
3693 0 75.9696 12.4524 946 90.4567 125.247 510.066
3694 0 77.7153 12.2498 952 88.8729 125.477 513.637
3695 0 77.6582 11.6021 901 92.566 124.863 509.016
3696 0 80.8089 12.5605 1015 90.7222 125.052 510.157
3697 0 82.7864 13.5409 1121 89.3604 125.112 507.322
3698 0 87.7965 15.3537 1348 85.5037 124.711 509.873
3699 0 87.7853 13.8292 1214 88.8122 124.819 505.307
3700 0 90.8345 14.598 1326 86.6003 124.772 506.388
3701 0 90.7021 14.6965 1333 88.7172 124.941 502.952
3702 0 92.8151 12.5195 1162 93.1902 124.577 500.144
3703 0 94.5114 12.1678 1150 92.7035 124.373 500.094
3704 0 101.534 15.6893 1593 84.3484 125.008 501.488
3705 0 102.765 13.7207 1410 89.7156 125.013 496.972
3706 0 106.873 14.8401 1586 87.034 124.38 496.683
3707 0 108.815 14.4097 1568 88.0982 124.69 492.786
3708 0 112.701 14.3654 1619 87.9827 124.791 492.632
3709 0 114.837 13.1753 1513 90.6662 125.254 490.438
3710 0 116.538 13.5663 1581 90.9374 124.528 487.509
3711 0 122.753 12.9447 1589 90.7099 125.044 486.678
3712 0 127.103 14.1539 1799 87.8255 125.462 484.92
3713 1 70.697 10.8774 769 92.8101 125.365 509.772
3714 0 69.6843 11.509 802 95.0037 124.314 506.711
3715 0 73.6959 11.9817 883 93.308 125.451 509.744
3716 0 75.2058 10.93 822 93.59 125.44 511.962
3717 0 75.8009 13.1793 999 90.8098 125.735 511.296
3718 0 77.9166 12.9369 1008 91.8859 124.739 508.707
3719 0 77.7333 12.8774 1001 93.7153 124.527 507.865
3720 0 79.9109 13.7904 1102 92.1152 125.565 507.528
3721 0 79.5584 13.2858 1057 94.7455 125.789 506.348
3722 0 83.9426 14.081 1182 91.9154 125.392 505.893
3723 0 85.771 15.1217 1297 90.229 125.708 506.572
3724 0 85.121 13.9684 1189 93.9739 125.846 505.169
3725 0 87.6094 14.2222 1246 92.7127 126.037 505.603
3726 0 89.9785 14.0923 1268 93.4251 125.677 500.981
3727 0 90.8463 13.2422 1203 95.9817 126.059 500.31
3728 0 93.8732 16.6608 1564 88.1471 125.569 503.807
3729 0 94.0799 13.4779 1268 96.5071 125.727 498.058
3730 0 96.8202 14.0673 1362 94.9816 125.509 499.869
3731 0 98.8606 14.5154 1435 95.0328 125.746 495.567
3732 1 16.3107 5.88569 96 63.3125 129.604 540.396
3733 0 15.1411 5.48176 83 65.012 130.036 539.41
3734 0 14.0327 3.70563 52 66.1154 130.038 539.288
3735 0 17.0851 4.21419 72 64.3889 129.764 539.722
3736 0 15.1762 5.66675 86 62.6046 129.605 540.895
3737 1 118.873 15.832 1882 88.4028 125.852 491.506
3738 0 122.602 17.3651 2129 85.1043 125.449 489.713
3739 0 123.745 15.2329 1885 89.9623 125.589 486.299
3740 0 131.946 18.0074 2376 82.8577 125.73 488.085
3741 0 130.858 15.3372 2007 89.426 126.221 482.019
3742 0 136.612 16.1919 2212 86.924 126.296 480.441
3743 0 140.922 14.5967 2057 89.7316 126.308 480.538
3744 1 77.6415 12.7638 991 92.4682 126.231 510.141
3745 0 79.6494 12.9819 1034 91.4623 126.184 511.367
3746 0 82.9923 13.2904 1103 90.447 126.456 512.704
3747 0 80.6721 13.3627 1078 93.5798 125.669 508.382
3748 0 81.7165 11.907 973 94.9681 125.59 509.486
3749 0 83.7319 11.704 980 97.8949 125.236 506.094
3750 0 85.6166 13.3152 1140 93.9886 125.459 506.496
3751 0 88.8874 14.209 1263 91.6421 125.292 508.113
3752 0 90.5092 12.739 1153 94.1258 124.981 507.696
3753 0 89.8894 13.2274 1189 95.9176 125.177 505.807
3754 0 94.7559 13.3923 1269 92.9338 125.111 505.864
3755 0 97.8211 14.5061 1419 90.4665 125.61 505.648
3756 0 98.7049 14.0419 1386 92.6241 125.065 503.098
3757 0 99.8391 13.3815 1336 94.5277 125.104 501.278
3758 0 102.594 12.9637 1330 94.7301 124.141 501.579
3759 0 107.842 14.0761 1518 92.0567 124.031 499.851
3760 0 110.611 15.0709 1667 89.9784 125.24 498.342
3761 0 112.129 13.3507 1497 93.3607 125.354 497.309
3762 0 114.763 12.6434 1451 95.7009 124.901 495.065
3763 0 120.775 15.028 1815 89.5702 124.69 494.249
3764 0 122.653 14.3576 1761 92.0869 123.917 488.815
3765 0 126.666 14.5817 1847 90.2431 123.702 490.971
3766 0 131.676 14.1028 1857 90.9015 123.354 489.268
3767 0 133.778 14.6287 1957 89.9816 122.973 487.323
3768 0 136.748 13.2872 1817 92.7303 122.438 484.078
3769 1 14.0296 3.56389 50 59.96 127.66 548.04
3770 0 14.0459 4.6277 65 61.2769 127.585 546.323
3771 0 15.0808 3.18285 48 61.4792 128.021 545.062
3772 0 15.0459 5.91524 89 60.1685 128.258 544.719
3773 0 12.06 3.98009 48 61.5625 127.479 544.625
3774 0 13.0113 6.22535 81 60.1605 127.296 543.802
3775 0 14.088 6.1045 86 59.6395 128.128 545.826
3776 1 170.996 14.6203 2500 89.8788 123.91 471.246
3777 0 174.676 14.9076 2604 89.7147 123.567 466.18
3778 0 179.915 14.6736 2640 89.1943 123.216 466.141
3779 0 184.838 14.4235 2666 89.8046 123.336 463.373
3780 0 189.812 14.5723 2766 88.9591 123.025 462.347
3781 0 193.871 15.1544 2938 88.596 123.253 457.516
3782 1 15.1156 4.96176 75 59.8267 127.987 544.373
3783 0 13.0215 6.75806 88 58.8182 127.182 543.375
3784 0 13.0044 6.45937 84 58.5476 126.595 543.5
3785 0 12.0031 3.33247 40 63.025 128.125 544.425
3786 0 16.0444 7.66623 123 59.2602 127.252 543.992
3787 0 13.0237 6.14265 80 62.4125 128.362 542.725
3788 0 16.1291 6.88197 111 61.1441 127.477 543.522
3789 0 16.1134 6.20602 100 61.58 127.44 543.75
3790 0 14.0875 3.62024 51 64.6667 127.961 543.941
3791 0 16.1906 7.04113 114 60.2807 128 543.675
3792 0 15.1269 7.53626 114 60.9561 127.737 542.447
3793 0 16.1108 6.64151 107 58.9065 127.28 545.72
3794 0 14.0726 6.60861 93 61.8602 127.785 543.591
3795 0 15.0282 6.8538 103 61.8544 128.107 542.816
3796 0 13.0401 8.3588 109 60.1284 127.541 542.028
3797 0 15.0759 4.77582 72 62.5417 128.667 542.736
3798 0 15.0165 9.85585 148 58.223 128.345 543.372
3799 1 166.485 14.0133 2333 93.0896 124.168 472.298
3800 0 171.774 15.7067 2698 89.7517 123.933 471.315
3801 0 175.668 14.9088 2619 90.9259 123.927 472.297
3802 0 179.675 13.8695 2492 93.1457 124.24 465.887
3803 0 187.04 15.9378 2981 87.8044 123.926 465.664
3804 0 191.695 15.7542 3020 88.297 124.386 463.043
3805 0 197.78 14.6628 2900 90.5386 124.296 453.359
3806 0 204.911 14.7186 3016 90.1144 124.018 451.37
3807 0 209.762 14.0111 2939 90.2372 124.356 452.304
3808 0 215.51 13.707 2954 90.6831 123.737 446.886
3809 0 222.818 14.2627 3178 89.9648 123.578 443.329
3810 0 231.031 14.5305 3357 88.4498 124.486 442.766
3811 0 238.777 15.8684 3789 85.3592 124.955 438.147
3812 1 14.0577 2.91655 41 61.6341 128.707 543.39
3813 0 17.0468 6.15953 105 57.9429 128.524 543.2
3814 0 14.1494 3.81643 54 60.9444 128.944 543.315
3815 0 15.1372 8.19176 124 55.0645 127.96 544.177
3816 0 14.0581 7.18447 101 56.3168 128.356 543.158
3817 0 15.1816 4.74259 72 58.4861 128.458 543.208
3818 0 17.1008 4.85357 83 61.012 128.349 541.795
3819 0 16.0792 6.28142 101 56.6832 128.158 543.119
3820 1 78.5266 12.1106 951 89.9926 124.128 507.233
3821 0 80.5378 12.9877 1046 88 123.896 508.95
3822 0 84.6738 14.2901 1210 84.6727 124.101 508.69
3823 0 85.6238 15.6031 1336 83.4955 123.918 507.247
3824 0 83.8399 13.156 1103 91.1868 123.603 502.035
3825 0 86.7097 14.1853 1230 88.1732 123.199 505.398
3826 0 90.7631 13.5297 1228 88.4373 123.813 504.367
3827 0 91.5173 14.7841 1353 86.1101 124.308 504.916
3828 0 95.5951 14.8229 1417 85.6055 123.958 503.3
3829 0 97.7438 14.3538 1403 86.9886 124.056 501.122
3830 0 98.6783 12.2621 1210 89.7636 124.302 500.137
3831 0 105.754 15.1956 1607 83.4101 124.185 499.455
3832 0 105.69 13.9464 1474 85.6133 123.761 497.011
3833 0 110.807 14.3312 1588 84.4761 124.505 495.351
3834 0 112.75 14.9801 1689 83.4263 123.762 494.899
3835 0 118.947 15.0487 1790 82.5654 124.216 491.717
3836 0 120.852 14.555 1759 84.2575 124.268 491.075
3837 0 126.99 15.4264 1959 81.5079 124.674 491.637
3838 0 129.538 17.1687 2224 78.2945 124.194 493.221
3839 0 133.992 17.098 2291 78.7639 124.135 488.955
3840 0 136.921 15.2497 2088 82.7069 124.014 481.259
3841 0 139.701 15.6406 2185 81.9227 124.405 481.807
3842 0 145.627 15.059 2193 83.4241 124.517 479.043
3843 0 147.92 15.3732 2274 83.3105 123.924 475.106
3844 0 152.708 15.6049 2383 82.3021 123.97 475.655
3845 0 157.658 15.9205 2510 80.853 123.69 477.91
3846 0 159.731 14.3554 2293 85.0423 124.153 472.88
3847 0 166.902 16.1472 2695 81.8412 124.324 470.49
3848 0 171.114 15.6913 2685 82.7657 124.323 468.854
3849 0 174.017 15.01 2612 84.4854 124.433 464.806
3850 0 178.839 16.1094 2881 83.0614 124.529 462.847
3851 1 110.266 13.7757 1519 80.4312 124.572 492.71
3852 0 110.409 14.7452 1628 76.5829 124.885 492.793
3853 0 115.012 17.1112 1968 71.0371 124.968 495.085
3854 0 115.076 17.1886 1978 70.4449 125.086 491.746
3855 0 114.057 15.501 1768 72.4231 125.269 490.78
3856 0 115.193 18.456 2126 67.3326 125.189 489.823
3857 0 112.947 18.2564 2062 67.4248 125.079 489.13
3858 0 111.613 20.5264 2291 63.684 124.845 489.169
3859 0 110.639 14.6241 1618 70.6001 124.875 487.922
3860 1 173.809 17.6804 3073 66.3222 125.893 453.696
3861 1 148.264 6.31979 937 83.8602 125.51 446.84
3862 1 163.009 13.8765 2262 65.8957 125.67 458.725
3863 1 68.4303 19.4943 1334 78.7091 125.004 410.941
3864 0 63.2388 16.1926 1024 86.9277 125.264 412.19
3865 0 67.1192 16.2845 1093 84.366 125.067 415.044
3866 1 155.224 7.75655 1204 73.4078 125.351 451.224
3867 0 158.439 11.0515 1751 63.0034 125.214 464.336
