time division length width area intensity CMx CMy
0 0 45.0349 11.6576 525 65.0686 735.263 525.208
1 0 45.051 12.275 553 65.264 735.137 522.794
2 0 49.0276 12.6256 619 62.5541 735.189 523.441
3 0 49.1274 11.7653 578 64.9048 734.597 522.055
4 0 49.0706 12.2273 600 63.5333 734.622 522.748
5 0 50.0731 10.7243 537 66.2067 734.685 522.158
6 0 51.0308 11.0913 566 65.3993 733.887 522.366
7 0 53.0659 11.7401 623 64.0241 734.14 521.952
8 0 54.0503 11.9888 648 64.2006 734.389 521.287
9 0 53.0561 10.6114 563 66.8099 735.06 521.005
10 0 55.0639 12.4038 683 63.7628 734.855 520.624
11 0 59.0499 12.8705 760 62.4553 734.908 518.516
12 0 58.1952 11.9426 695 64.7439 734.787 518.073
13 0 61.0506 13.6936 836 61.2105 735.207 519.624
14 0 62.0509 12.248 760 63.6934 733.966 517.683
15 0 63.0841 11.984 756 63.6336 733.688 519.172
16 0 66.0921 12.3615 817 63.5263 733.72 517.993
17 0 66.1229 11.6299 769 65.0884 734.189 517.792
18 0 67.0841 12.1787 817 64.7564 734.424 515.911
19 0 67.1212 11.7996 792 65.9975 733.886 513.649
20 0 70.1125 11.3532 796 66.2412 733.627 513.197
21 1 37.0234 10.2908 381 67.2047 733.953 529.045
22 0 40.0207 11.3441 454 64.9868 733.601 529.476
23 0 40.0113 10.722 429 67.4196 734.413 527.958
24 0 41.0409 10.7697 442 69.0701 733.98 525.941
25 0 42.0587 11.3413 477 67.9371 734.635 526.811
26 0 43.0537 11.7295 505 67.9663 734.683 524.772
27 0 44.0182 12.3131 542 67.7638 734.461 524.389
28 0 47.0265 12.7588 600 67.03 733.425 523.232
29 0 48.0365 11.9284 573 68.5044 734.883 523.99
30 0 48.0166 11.5793 556 69.5827 734.115 523.558
31 0 51.0458 11.7346 599 68.8714 734.115 522.16
32 0 52.0694 10.6589 555 70.555 734.103 521.18
33 0 56.0438 11.3304 635 68.5968 734.978 521.75
34 0 57.0415 12.6399 721 67.1415 735.143 519.732
35 0 59.0435 11.3306 669 69.3169 735.158 518.698
36 0 60.0937 12.6968 763 67.0367 734.389 518.252
37 0 62.1247 11.2033 696 70.1724 734.948 515.309
38 0 63.1106 11.6462 735 69.7891 735.245 515.818
39 0 67.0549 10.469 702 70.6353 734.752 516.113
40 0 69.0297 11.5458 797 70.5834 735.836 511.852
41 0 72.1079 11.8156 852 69.9131 735.937 511.209
42 0 72.1419 9.7724 705 72.9319 736.235 512.397
43 0 76.0875 12.1702 926 70.1847 735.637 509.769
44 0 79.0383 12.7913 1011 69.7527 736.072 508.039
45 1 40.023 9.99426 400 70.6525 735.645 527.92
46 0 41.0121 10.4116 427 71.0468 736.183 526.646
47 0 43.0552 10.8465 467 69.9379 736.246 526.146
48 0 45.0107 11.7306 528 68.6193 736.513 525.07
49 0 46.0913 12.3451 569 68.5589 736.656 524.571
50 0 45.0846 10.5136 474 72.0464 735.985 523.297
51 0 47.0333 11.4812 540 70.6778 735.913 523.515
52 0 49.0243 11.5657 567 70.3915 735.824 522.443
53 0 51.0346 11.6588 595 69.8807 736.545 522.425
54 0 52.0158 12.3424 642 69.4517 736.054 521.576
55 0 52.0261 9.86044 513 73.2086 736.456 520.879
56 0 54.0489 11.6746 631 70.6624 736.574 517.28
57 0 56.132 11.4017 640 70.1859 736.32 518.623
58 0 58.0946 12.4969 726 68.8306 736.759 517.426
59 0 60.096 10.6163 638 70.8276 737.069 517.083
60 0 63.0832 11.7305 740 68.8851 737.315 516.469
61 0 62.0364 10.0264 622 71.4164 736.222 516.905
62 0 65.0393 11.7775 766 69.4726 736.268 512.373
63 0 66.0991 10.9381 723 70.3859 736.311 512.131
64 0 70.0577 11.7332 822 68.7798 736.335 511.77
65 0 71.055 11.7937 838 68.9523 737.284 509.098
66 0 73.0784 10.9198 798 70.094 736.336 509.574
67 0 75.0439 10.6204 797 69.8193 736.678 508.822
68 0 80.1154 13.1935 1057 66.5251 736.731 506.067
69 1 40.0146 9.69646 388 70.1675 736.943 524.469
70 0 43.0157 12.5536 540 66.1518 736.248 525.289
71 0 41.0667 10.2273 420 70.469 736.443 522.021
72 0 44.0278 10.0164 441 69.4512 736.882 522.714
73 0 49.0437 12.8457 630 64.6 736.767 522.256
74 0 48.0697 9.9647 479 68.8831 736.526 522.052
75 0 50.0205 11.6552 583 66.8782 735.834 520.504
76 0 53.0356 11.5206 611 66.8445 736.964 518.745
77 0 55.1144 10.9772 605 67.281 736.519 517.988
78 0 56.0438 11.7587 659 66.5873 736.258 516.844
79 0 59.0455 11.381 672 66.878 736.731 516.643
80 0 59.0397 10.7216 633 68.316 737.183 515.709
81 0 61.0617 11.1199 679 67.5832 737.53 514.049
82 0 62.1325 10.3971 646 68.6424 738.212 514.751
83 0 67.1094 13.2172 887 64.7711 737.928 511.282
84 0 68.0324 11.7003 796 67.294 737.7 511.917
85 0 68.0741 11.6344 792 67.7942 737.529 511.124
86 0 73.0951 12.0938 884 66.138 737.56 510.716
87 0 75.1064 11.8765 892 67.0751 737.305 509.666
88 0 76.1337 10.8887 829 68.5476 737.062 508.2
89 0 79.0738 13.089 1035 65.7488 737.608 506.536
90 0 81.137 13.2738 1077 65.6379 737.519 504.5
91 0 84.0774 13.547 1139 66.0167 736.964 502.718
92 0 87.0906 11.8497 1032 68.0417 737.906 499.759
93 1 42.0218 10.9229 459 66.7298 738.007 526.261
94 0 42.0108 10.5687 444 68.8446 738.39 523.822
95 0 44.0386 10.6952 471 68.7346 738.257 523.951
96 0 45.024 10.2834 463 70.4881 737.512 522.458
97 0 46.0488 11.2489 518 69.4595 737.556 521.122
98 0 50.0077 12.2381 612 67.5376 737.583 523.034
99 0 50.0105 11.6975 585 68.7641 737.508 520.287
100 0 50.0589 10.7673 539 70.4954 737.538 518.779
101 0 52.076 12.3857 645 68.7457 737.837 517.941
102 0 56.0991 11.6579 654 68.7232 738.023 518.716
103 0 54.0694 12.225 661 69.5083 738.045 517.151
104 0 55.0503 11.3896 627 70.6938 738.174 515.08
105 0 58.093 12.9448 752 68.7793 737.398 515.358
106 0 60.0705 11.1369 669 71.5008 737.871 514.8
107 0 59.025 10.2329 604 73.3526 736.821 514.608
108 0 60.0708 10.4876 630 73.3048 736.906 512.744
109 0 61.0847 10.2153 624 73.4952 736.998 510.155
110 0 67.0982 12.7723 857 69.2649 737.027 513.068
111 0 68.095 13.4224 914 68.4989 737.12 511.423
112 0 71.0406 12.4295 883 68.735 736.956 511.515
113 0 74.1195 13.1409 974 68.037 737.42 510.473
114 0 76.0785 13.6044 1035 67.8647 737.258 507.894
115 0 79.0889 13.4153 1061 67.8982 737.437 508.487
116 0 80.1211 14.8775 1192 67.0218 737.658 506.581
117 0 81.0844 14.2814 1158 67.6149 737.685 507.896
118 0 82.0976 12.1806 1000 71.751 737.356 504.648
119 1 40.0724 10.9302 438 71.7854 737.918 525.139
120 0 43.0825 12.9287 557 68.6894 737.549 523.587
121 0 42.0397 11.6794 491 70.888 738.108 524.929
122 0 45.0244 12.5932 567 70.1975 737.231 521.919
123 0 47.0435 11.2874 531 71.1224 736.78 522.83
124 0 48.0353 12.0745 580 70.9534 737.06 521.845
125 0 48.0686 12.607 606 71.4307 737.672 520.252
126 0 50.0278 12.7529 638 71.0674 737.467 520.274
127 0 50.1134 11.7334 588 73.3078 737.539 520.054
128 0 53.0196 12.7311 675 71.1689 736.729 519.524
129 0 54.0422 13.4154 725 70.9655 736.368 518.327
130 0 58.0723 12.8977 749 70.5274 736.379 519.291
131 0 58.0309 11.9419 693 73.0996 735.56 517.717
132 0 58.0512 13.3847 777 71.5907 735.633 516.882
133 0 60.0587 12.7042 763 73.5557 736.058 515.098
134 0 62.102 13.188 819 72.9866 736.762 513.282
135 0 64.0882 12.2331 784 73.7857 737.36 513.774
136 0 66.0583 12.2165 807 74.3172 737.559 513.191
137 0 67.0566 12.7803 857 73.0688 737.697 514.026
138 0 71.1276 13.286 945 72.8836 736.975 511.703
139 0 72.0495 13.5324 975 73.4872 736.391 509.972
140 0 73.1328 13.7695 1007 74.3039 736.366 506.658
141 0 76.0818 13.5249 1029 74.7114 736.942 507.354
142 0 76.071 12.4357 946 76.2727 737.019 508.971
143 0 80.1124 13.1316 1052 76.5067 736.674 504.732
144 0 82.0725 13.9511 1145 75.1948 736.531 505.516
145 0 83.0712 13.2778 1103 76.8132 736.681 503.779
146 0 85.1068 13.3362 1135 76.6088 737.329 503.697
147 0 87.1285 13.5662 1182 76.7166 737.354 502.828
148 0 90.085 13.2097 1190 77.874 736.595 499.735
149 0 93.0813 13.3861 1246 77.016 737.211 504.144
150 0 90.0898 12.765 1150 80.4913 736.763 502.19
151 0 91.0332 13.0392 1187 81.3917 736.928 501.12
152 0 96.0908 14.3614 1380 78.6486 736.538 500.746
153 1 48.0463 12.488 600 81.5567 736.297 522.028
154 0 49.0382 11.2158 550 83.3145 736.858 522.082
155 0 51.0159 12.5255 639 81.3944 737.554 519.138
156 0 55.0531 13.3508 735 80.8041 737.298 518.03
157 1 300.503 8.58559 2580 78.2764 736.728 401.889
158 0 300.225 9.49621 2851 76.8095 736.919 404.948
159 0 299.146 8.92205 2669 79.7666 736.777 406.901
160 1 259.187 7.77431 2015 79.1216 736.792 457.928
161 0 257.258 8.11249 2087 81.9511 736.283 441.912
162 0 259.254 8.51289 2207 81.5859 736.843 440.012
163 0 260.117 9.1651 2384 80.6854 737.577 438.595
164 1 188.802 20.8843 3943 60.2701 736.401 436.397
165 0 198.717 20.4411 4062 60.8356 737.114 433.712
166 0 186.104 13.4656 2506 75.7953 737.823 450.183
167 0 193.701 20.671 4004 62.7675 737.682 434.221
168 0 195.02 21.8644 4264 62.7814 738.006 448.053
169 0 194.438 20.5104 3988 65.1968 737.754 444.206
170 1 205.62 20.8978 4297 62.7452 737.057 425.377
171 0 203.953 17.9551 3662 68.6434 737.184 439.519
172 0 209.49 20.7408 4345 64.6799 737.394 437.934
173 0 212.465 16.7793 3565 71.1809 737.543 440.316
174 0 210.327 20.7534 4365 66.0511 737.462 440.481
175 0 212.875 21.9988 4683 63.8881 737.722 426.815
176 0 202.451 18.686 3783 70.9759 737.876 435.478
177 0 205.319 20.3342 4175 68.6453 737.374 429.513
178 1 53.0527 12.252 650 84.8723 737.517 519.694
179 0 54.1017 13.7888 746 82.9249 737.269 517.847
180 0 57.1377 13.3712 764 82.106 736.581 518.148
181 0 59.0212 12.3007 726 83.8912 736.64 516.431
182 0 62.0977 12.8024 795 81.8956 737.318 515.873
183 1 226.35 17.1902 3891 67.1015 736.712 412.98
184 0 228.269 14.334 3272 70.5101 735.903 413.927
185 0 225.464 15.4659 3487 69.4393 736.402 415.7
186 0 229.289 14.3356 3287 71.937 736.342 413.154
187 0 226.361 13.9158 3150 73.4 735.91 416.355
188 0 228.425 15.3311 3502 71.4178 735.453 413.443
189 0 229.157 14.9243 3420 72.781 734.977 416.692
190 0 234.365 16.1841 3793 70.8663 734.922 422.973
191 0 232.328 13.7133 3186 75.8406 734.201 406.219
192 0 230.165 11.205 2579 82.7856 733.925 411.076
193 0 239.15 16.036 3835 71.5356 733.77 398.744
194 0 238.33 13.6408 3251 77.2095 734.401 408.162
195 0 237.185 13.1585 3121 79.9724 734.834 411.219
196 0 239.251 14.2403 3407 78.3466 734.18 412.243
197 0 244.239 17.7163 4327 71.5713 734.27 407.331
198 0 245.215 17.0259 4175 74.0287 733.635 409.611
199 0 249.376 23.3663 5827 64.7793 733.284 417.121
200 1 48.0911 11.6238 559 82.0358 734.267 525.694
201 0 49.0454 12.7025 623 80.3387 734.889 525.766
202 0 51.036 13.128 670 78.3179 734.304 527.628
203 0 53.0644 12.3246 654 79.3379 733.995 524.829
204 0 55.0458 11.445 630 79.1 733.664 526.281
205 0 55.0656 10.8598 598 80.9666 733.906 524.547
206 1 137.24 22.3696 3070 60.1423 733.623 475.874
207 0 139.314 17.9235 2497 66.1618 734.211 477.821
208 0 139.322 19.1212 2664 65.4899 733.837 477.666
209 1 66.0494 12.9146 853 76.4865 733.705 518.869
210 0 69.0953 12.1716 841 76.673 733.799 518.857
211 0 71.0807 11.8176 840 76.6417 733.261 515.806
212 0 72.0993 10.6242 766 78.107 732.535 517.013
213 0 75.1227 11.3947 856 76.7932 733.126 514.895
214 0 78.176 11.7683 920 76.2076 731.951 514.972
215 0 80.129 12.0556 966 76.2122 732.053 513.136
216 0 81.1326 9.78645 794 79.4395 731.51 510.908
217 1 42.0483 11.5106 484 75.407 731.845 529.971
218 0 43.035 11.4558 493 75.8296 732.059 529.467
219 0 44.1186 10.9931 485 76.3979 731.695 527.738
220 0 45.0389 10.058 453 76.0486 732.388 530.47
221 0 45.0237 11.6383 524 75.6584 732.569 527.137
222 0 47.0431 11.2237 528 76.7102 731.375 524.511
223 0 49.0464 11.2343 551 75.2795 732.45 527.327
224 0 51.0962 10.9597 560 76.0982 731.677 523.832
225 0 51.0299 11.7578 600 74.7833 731.375 522.903
226 0 53.1182 11.352 603 74.6501 731.307 521.96
227 0 54.0509 9.78707 529 76.6238 730.535 521.671
228 0 55.0403 7.72162 425 78.9529 731.068 521.153
229 0 59.0409 10.7553 635 74.7024 730.806 516.854
230 0 61.0705 11.2984 690 73.729 731.767 516.517
231 0 63.1034 9.90437 625 74.8976 731.928 515.562
232 0 65.0509 11.4679 746 74.0603 731.378 514.154
233 0 66.0508 10.068 665 75.2526 731.913 514.45
234 0 68.0654 11.2098 763 74.346 731.216 510.256
235 1 32.0444 9.61165 308 74.7273 732.192 528.523
236 0 35.1196 11.2758 396 71.505 732.134 528.939
237 0 35.0485 10.0147 351 73.3875 732.254 528.772
238 0 40.0474 12.0108 481 68.8025 731.809 528.726
239 0 39.0331 11.6312 454 70.837 732.727 527.306
240 0 40.05 10.3371 414 71.1425 732.891 528.551
241 0 43.0805 11.0491 476 70.5021 732.887 527.607
242 0 45.0187 11.262 507 70.43 732.247 525.7
243 0 45.0273 12.4147 559 68.5259 732.61 526.199
244 0 44.0157 9.54205 420 74.269 732.902 524.681
245 0 48.0564 12.1732 585 69.8957 732.079 523.068
246 0 49.0246 11.4636 562 71.637 732.151 522.744
247 0 51.078 12.7061 649 69.3421 732.647 522.424
248 0 52.0933 11.5178 600 71.3367 733.142 521.712
249 0 53.1026 12.0898 642 70.757 733.087 521.718
250 0 52.0337 9.66681 503 74.2962 733.205 520.64
251 0 54.0764 11.4283 618 71.4919 733.102 522.903
252 0 58.1365 12.075 702 70.2194 733.289 519.922
253 0 58.0845 10.3642 602 72.2841 733.287 522.615
254 0 61.0608 11.6277 710 70.8155 733.562 518.327
255 0 61.1975 11.8796 727 71.0124 734.01 517.876
256 0 64.041 12.3202 789 70.1787 733.507 518.522
257 0 69.0729 12.7981 884 68.9966 733.657 517.193
258 0 70.0968 11.7124 821 70.5213 733.387 516.915
259 0 73.0784 11.905 870 69.7276 732.826 517.64
260 0 74.0868 11.905 882 70.9773 732.847 513.405
261 0 78.1078 11.2793 881 70.8309 732.942 514.624
262 0 82.1968 12.4701 1025 69.1288 732.886 511.732
263 0 84.0491 14.0037 1177 67.8624 733.239 509.155
264 0 86.056 12.3176 1060 69.4802 732.946 512.306
265 0 88.0871 13.3845 1179 69.0653 732.878 508.296
266 1 47.078 11.8314 557 69.553 732.79 529.226
267 0 49.036 12.3379 605 69.1934 732.945 527.157
268 0 50.0455 13.5277 677 67.6115 732.994 526.838
269 0 51.016 11.1926 571 71.042 732.636 526.142
270 0 52.0332 10.5317 548 72.0839 732.181 524.453
271 0 55.0767 12.3464 680 69.4868 731.81 524.731
272 0 57.0602 12.1626 694 69.4006 732.239 524.218
273 0 57.0421 12.6748 723 69.2683 731.53 522.934
274 0 60.0908 13.463 809 67.2237 731.591 520.504
275 0 61.0625 11.7421 717 69.3919 731.674 523.543
276 0 64.2617 11.7333 754 69.5703 731.696 520.249
277 0 66.0749 11.3054 747 69.5047 731.533 520.633
278 0 69.025 13.0677 902 66.9922 731.471 519.452
279 0 69.0743 13.4493 929 66.4564 731.188 519.123
280 0 73.0632 11.319 827 69.3555 731.715 517.099
281 0 75.1695 13.0771 983 66.469 731.68 513.778
282 0 78.16 13.5235 1057 65.4201 731.508 514.836
283 0 79.0814 11.8865 940 68.0277 730.684 515.06
284 0 85.0801 12.5176 1065 66.1606 730.93 512.266
285 0 87.0317 12.2599 1067 66.3646 730.442 511.44
286 0 88.1346 11.2215 989 68.3215 730.774 508.669
287 0 92.1484 11.4815 1058 67.4253 730.639 508.312
288 0 95.0871 12.8514 1222 65.757 730.809 505.836
289 0 98.1297 12.9522 1271 65.3666 730.504 504.399
290 1 54.0734 11.0406 597 66.3903 730.258 525.846
291 0 55.0871 10.6922 589 67.691 730.718 524.292
292 0 57.1015 11.9436 682 65.6525 730.579 525.103
293 0 58.0858 11.4314 664 66.3976 730.39 524.81
294 0 61.1499 11.3982 697 66.7288 731.39 522.597
295 0 61.0726 11.5764 707 66.9222 731.105 521.079
296 0 65.0475 12.6677 824 65.2476 730.398 519.677
297 0 67.0631 12.0931 811 66.0296 730.212 518.043
298 0 68.1451 11.813 805 66.5217 731.217 515.837
299 0 70.0554 11.7193 821 67.4775 730.168 514.1
300 0 72.1097 11.954 862 67.3515 730.374 513.335
301 0 75.0656 12.6023 946 65.8732 730.536 510.534
302 0 78.1362 12.3246 963 66.7612 730.271 509.265
303 0 78.0769 11.8345 924 67.8398 731.135 510.168
304 0 82.1575 12.6099 1036 66.0319 730.876 509.347
305 0 84.0404 11.6849 982 67.6864 730.625 507.392
306 0 89.1323 13.1714 1174 65.8986 730.566 503.35
307 0 91.1016 13.5453 1234 65.4441 730.352 504.852
308 0 94.0944 12.9338 1217 66.3952 730.567 503.931
309 0 95.0972 13.7123 1304 66.4655 730.498 501.357
310 1 51.0209 10.3879 530 67.4717 730.732 523.755
311 0 52.1024 12.8977 672 64.8259 730.952 524.202
312 0 56.0485 12.1145 679 65.6878 731.271 521.24
313 0 54.053 10.8042 584 68.7483 731.212 520.062
314 0 56.1097 10.7112 601 69.1065 730.211 520.932
315 0 59.0878 11.5421 682 67.6584 729.878 519.733
316 0 59.1156 11.486 679 68.7482 730.92 517.735
317 0 62.0955 11.5145 715 68.4727 730.337 516.343
318 0 64.038 11.8992 762 68.1601 730.634 515.173
319 0 66.0926 10.7274 709 69.598 731.402 513.612
320 0 69.082 11.9713 827 68.0871 731.439 513.689
321 0 71.1028 12.5311 891 67.5174 731.57 512.582
322 0 73.0333 12.3368 901 67.7248 731.491 513.577
323 0 72.0989 12.8019 923 67.5883 731.055 513.317
324 0 75.0511 11.3922 855 70.1298 731.139 510.832
325 0 79.1068 11.6425 921 69.6319 731.05 509.248
326 0 81.0823 11.5808 939 69.476 730.476 510.954
327 0 84.0554 12.3014 1034 69.5058 729.588 506.352
328 0 87.0478 12.7516 1110 68.8108 730.504 504.729
329 1 44.0321 8.78905 387 70.9612 730.734 528.982
330 0 48.029 11.264 541 68.1922 730.689 526.133
331 0 49.0686 12.0444 591 68.3012 731.157 525.633
332 0 49.0947 10.5103 516 70.6667 730.847 525.866
333 0 51.0387 11.168 570 68.9579 730.523 526.181
334 0 53.0871 12.6584 672 68.2738 730.555 521.701
335 0 55.0499 12.2071 672 68.7098 730.769 521.71
336 0 55.0783 11.7832 649 69.6086 730.487 522.401
337 0 58.1598 12.139 706 68.8669 730.629 521.119
338 0 57.1207 12.3073 703 69.0854 730.822 521.698
339 0 59.0922 12.1167 716 69.5936 731.55 519.123
340 0 61.0401 10.9764 670 70.9224 730.719 519.604
341 0 63.0843 11.5243 727 70.4869 730.785 518.421
342 0 66.0646 11.8823 785 69.8586 730.549 515.124
343 0 66.1335 11.9455 790 70.1177 730.356 515.281
344 0 67.0611 12.8987 865 68.237 730.812 515.616
345 0 68.1262 11.42 778 70.5193 731.051 515.724
346 0 72.0727 12.5151 902 69.4557 731.08 512.632
347 0 75.1912 12.1956 917 69.6074 731.413 511.667
348 0 75.0693 11.496 863 71.4867 731.406 510.396
349 0 80.2004 13.2418 1062 67.5782 730.915 509.903
350 1 42.0361 10.9668 461 68.1345 730.718 527.08
351 0 43.023 11.552 497 67.5916 731.137 527.157
352 0 44.0367 10.3777 457 69.4026 731.05 525.993
353 0 47.0375 11.8204 556 65.937 731.007 526.782
354 0 46.0181 11.8649 546 66.9048 731.544 524.222
355 0 47.1053 10.8268 510 68.2726 730.486 523.041
356 0 48.0651 11.6092 558 66.3513 730.389 524.523
357 0 52.0381 12.7599 664 65.3705 730.889 522.485
358 0 50.0375 9.67275 484 68.7955 731.38 523.907
359 0 54.0311 11.5119 622 65.0225 731.899 521.841
360 0 54.0182 10.9222 590 66.1271 731.066 522.017
361 0 57.0161 12.6105 719 62.8901 731.17 521.533
362 0 56.0831 11.7861 661 65.115 730.841 518.991
363 0 59.1235 11.1462 659 65.6464 730.903 517.348
364 0 61.0785 11.2314 686 64.8265 731.429 518.388
365 0 62.0347 11.7031 726 64.2824 731.07 516.01
366 0 66.1013 13.5398 895 61.5687 731.663 514.468
367 0 67.077 11.9266 800 63.61 730.99 513.716
368 0 68.0733 11.8842 809 64.3993 731.768 511.701
369 0 69.0727 10.0474 694 66.3444 730.903 511.683
370 0 74.0542 11.4646 849 63.7138 731.283 513.236
371 0 76.0354 12.3364 938 63.1247 731.333 509.562
372 1 40.0262 8.64433 346 65.0231 730.87 528.382
373 0 39.059 10.9066 426 62.6925 731.15 527.662
374 0 42.0601 9.43887 397 64.3476 730.824 528.464
375 0 43.0902 10.1415 437 63.5858 731.176 525.364
376 0 44.0243 11.0848 488 62.0676 731.742 524.047
377 0 41.0689 8.01093 329 67.2918 731.839 524.313
378 0 47.1239 10.6528 502 62.9004 731.41 524.353
379 0 49.1053 12.3408 606 60.962 731.29 524.233
380 0 47.0901 11.4886 541 62.963 730.593 524.083
381 0 50.1747 10.2442 514 64.607 730.677 523.37
382 0 52.0812 12.4997 651 61.9939 730.501 522.654
383 0 52.1547 9.79778 511 65.9902 730.826 520.129
384 0 54.062 10.5065 568 65.3715 730.586 519.313
385 0 56.2332 10.901 613 64.7259 730.116 519.871
386 0 57.065 11.005 628 64.621 730.548 519.842
387 0 57.0582 10.3053 588 66.1752 730.847 516.932
388 0 60.0369 11.4097 685 64.4701 730.993 518.272
389 0 63.0923 11.3643 717 64.3292 730.626 517.169
390 0 64.0813 10.4399 669 65.7713 730.782 516.725
391 0 67.0679 11.5555 775 64.2619 729.817 514.599
392 0 65.1698 10.1888 664 67.122 730.688 512.173
393 0 70.0586 9.99164 700 66.9557 731.149 509.739
394 0 74.1012 12.402 919 63.469 731.347 512.448
395 1 35.0466 9.67283 339 65.6224 730.829 530.457
396 0 36.0267 9.90931 357 66.0756 730.863 529.297
397 0 41.1623 10.5193 433 63.4527 731.09 530.039
398 0 41.0557 11.8376 486 62.8272 731.451 529.16
399 0 41.0704 11.5412 474 64.0675 731.184 527.677
400 0 43.0662 10.9134 470 63.8957 731.687 527.411
401 0 44.0386 11.4445 504 63.1806 731.659 526.597
402 0 46.0298 10.8842 501 63.8224 731.685 528.405
403 0 46.0686 11.2658 519 64.1503 731.497 527.237
404 0 46.0364 11.4909 529 64.828 730.769 524.535
405 0 48.0396 11.5321 554 64.6282 730.915 525.904
406 0 50.0298 10.9735 549 65.4517 731.251 525.648
407 0 50.029 11.6133 581 64.4406 731.339 526.139
408 0 52.0949 12.4196 647 64.7264 731.743 522.926
409 0 54.0636 12.4853 675 64.4296 731.678 522.813
410 0 53.0806 9.98481 530 67.4415 731.464 524.638
411 0 56.0434 12.0621 676 65.6302 731.497 521.173
412 0 57.1102 12.9399 739 64.866 731.337 519.384
413 0 59.0246 12.6219 745 64.2174 731.486 522.766
414 0 60.0411 11.0258 662 67.0196 731.266 519.666
415 0 61.0735 11.4452 699 66.0987 731.21 521.601
416 0 64.0638 11.9256 764 66.5157 730.889 518.851
417 0 64.0605 11.2862 723 67.3444 731.266 517.52
418 0 66.078 10.9568 724 68.3204 730.924 517.054
419 0 69.049 11.4411 790 66.862 731.166 517.682
420 1 37.0788 11.8127 438 65.8379 730.902 532.436
421 0 37.0339 10.2069 378 67.7857 731.302 532.741
422 0 38.0238 11.5454 439 67.2141 730.943 530.841
423 0 39.0442 12.3962 484 65.1653 731.174 531.965
424 0 40.0637 12.1057 485 66.8577 730.959 530.843
425 0 41.0821 12.3655 508 66.878 730.339 528.882
426 0 42.062 12.7431 536 66.5019 730.935 529.86
427 0 42.0832 11.3347 477 69.4864 731.551 529.6
428 0 45.0833 11.4898 518 68.9131 731.232 528.355
429 0 45.0356 13.1674 593 67.2277 732.017 528.531
430 0 46.0304 12.47 574 68.284 731.688 528.355
431 0 48.0586 13.9413 670 66.5776 732.121 527.537
432 0 50.0862 14.2155 712 66.0604 731.119 526.223
433 0 50.0528 13.3259 667 67.5427 731.331 526.636
434 0 52.0757 13.4996 703 67.6117 731.411 524.011
435 0 54.0682 13.3165 720 68.5611 731.096 522.964
436 0 57.0468 13.8308 789 66.2459 730.679 525.013
437 0 56.1271 13.6832 768 68.6523 731.354 522.741
438 0 57.0559 13.0924 747 69.6707 731.347 521.214
439 0 61.0576 13.4463 821 68.6931 731.001 519.715
440 0 63.0727 13.3655 843 68.4603 730.598 521.189
441 0 64.1234 12.2264 784 69.6505 729.995 521.902
442 0 67.0202 13.2497 888 68.6813 729.809 520.488
443 0 69.1029 13.82 955 68.5435 730.11 517.943
444 0 71.0903 13.082 930 69.8839 729.962 517.349
445 0 73.0917 11.9849 876 71.8938 729.912 514.837
446 0 75.0414 13.1128 984 70.876 730.3 513.838
447 0 77.1579 12.2606 946 72.0296 730.366 512.988
448 0 79.0912 12.8333 1015 71.5882 730.193 513.314
449 0 84.1669 13.7108 1154 70.3423 731.016 510.177
450 1 40.012 10.4969 420 73.5976 731.005 531.09
451 0 43.0623 13.0044 560 70.1857 730.55 529.727
452 0 46.0824 12.1955 562 71.3381 730.329 529.781
453 0 45.1066 13.2797 599 71.1486 730.267 528.257
454 0 46.031 12.535 577 71.2409 730.454 529.756
455 0 46.0429 12.4232 572 72.9143 729.594 528.084
456 0 50.0877 12.6578 634 72.0962 730.232 526.191
457 0 50.2141 11.212 563 73.4618 730.281 526.648
458 0 51.0225 11.6811 596 73.6208 730.295 525.205
459 0 53.0147 11.4497 607 73.4662 730.142 524.353
460 0 57.1141 13.4117 766 70.4765 730.587 522.462
461 0 57.0315 12.3791 706 72.9759 730.714 522.003
462 0 59.0715 11.8501 700 74.0629 730.13 522.033
463 0 61.1336 13.217 808 71.6262 730.372 520.868
464 0 61.0437 12.3518 754 73.8912 730.244 519.739
465 0 65.0544 14.0805 916 70.5469 730.811 519.388
466 0 66.1373 11.4459 757 74.0066 730.328 520.25
467 0 70.0881 13.0978 918 71.8671 730.074 518.301
468 0 70.055 12.9612 908 72.3634 729.945 517.632
469 0 74.0875 14.2264 1054 70.6252 729.827 514.363
470 0 75.071 13.5072 1014 71.7919 729.796 514.326
471 0 76.107 14.0329 1068 71.1994 730.112 512.326
472 0 80.0888 13.0355 1044 71.8534 729.996 511.919
473 0 82.1171 13.0423 1071 71.281 730.621 512.674
474 0 85.1918 12.5482 1069 73.014 730.37 509.375
475 0 87.0744 13.0004 1132 72.0062 729.996 509.364
476 0 88.0739 13.0004 1145 72.0926 730.045 506.589
477 0 90.1022 11.3982 1027 73.8267 730.367 508.574
478 1 46.1024 12.7759 589 69.4448 729.917 531.504
479 0 47.0241 11.4409 538 72.7584 730.413 525.954
480 0 48.037 11.512 553 73.0253 729.902 526.776
481 0 51.0702 12.6297 645 70.4233 730.048 527.862
482 0 52.0315 11.493 598 71.6421 730.328 527.702
483 0 52.0858 12.9594 675 70.2533 730.628 525.813
484 0 56.0862 12.6591 710 70.4746 730.513 523.834
485 0 56.0847 12.3028 690 71.5377 730.481 522.699
486 0 59.0212 13.6561 806 69.0323 730.586 522.065
487 0 60.0354 11.9929 720 71.7056 730.092 522.364
488 0 61.0683 12.92 789 71.2915 729.919 519.051
489 0 65.1071 12.61 821 70.8551 730.72 519.861
490 0 65.0955 11.8902 774 72.8437 729.663 518.311
491 0 68.0836 13.0722 890 71.091 729.814 515.975
492 0 70.0612 12.3749 867 72.3979 729.751 516.768
493 0 74.1685 12.9165 958 71.6221 730.623 513.249
494 0 76.057 11.6623 887 73.3991 729.795 512.989
495 0 78.085 11.8717 927 73.6785 730.111 511.557
496 0 78.0587 11.722 915 74.6525 729.845 509.74
497 0 83.0944 13.0574 1085 72.5051 730.142 510.433
498 0 86.1543 13.4178 1156 71.7777 730.363 509.138
499 0 89.0927 12.4365 1108 72.8123 729.548 509.902
500 0 93.1401 13.4851 1256 71.6927 729.826 507.674
501 0 95.1448 14.4306 1373 70.5535 729.18 506.546
502 1 50.1389 13.3429 669 70.8819 729.447 527.874
503 0 50.0598 10.9669 549 74.9508 729.865 527.914
504 0 52.0771 11.5022 599 74.7429 729.923 525.023
505 0 54.029 12.7339 688 71.9985 730.135 525.625
506 0 55.0431 11.3366 624 74.5689 730.024 523.742
507 0 58.0817 12.6546 735 71.3265 729.585 524.248
508 0 60.0298 12.4105 745 72.8362 728.74 521.121
509 0 61.0595 13.5606 828 71.1353 729.344 519.955
510 0 63.0152 13.6316 859 70.8056 729.749 520.276
511 0 67.0759 13.4624 903 70.3378 729.538 519.825
512 0 68.0675 13.0165 886 71.6558 729.35 518.305
513 0 70.0535 13.8608 971 70.9928 729.781 516.096
514 0 73.0605 13.3725 977 71.2876 729.396 515.692
515 0 75.0987 13.7685 1034 70.9594 730.079 513.453
516 0 78.0755 14.1914 1108 69.4413 730.099 514.485
517 0 79.0478 12.5114 989 72.5581 729.964 511.253
518 0 84.093 14.2342 1197 69.7385 729.341 511.306
519 0 85.0562 12.4859 1062 72.3098 730.353 510.016
520 0 86.0197 11.5322 992 74.2157 729.993 509.111
521 0 90.1024 11.7755 1061 73.5608 730.224 507.105
522 0 94.171 13.6772 1288 70.4814 730.145 506.644
523 0 98.1018 12.3545 1212 71.6881 730.102 507.561
524 1 51.089 12.7425 651 70.3687 730.601 527.413
525 0 49.0583 10.8239 531 73.2128 730.373 527.687
526 0 53.0368 13.1984 700 70.0714 729.966 524.781
527 0 55.0213 13.3403 734 69.1172 729.139 524.542
528 0 56.1 11.9251 669 71.3632 729.505 525.212
529 0 59.0686 12.477 737 70.0611 729.778 520.855
530 0 61.0394 12.8933 787 69.5642 730.268 522.24
531 0 62.0437 11.3307 703 70.6373 730.478 522.694
532 0 66.1162 11.147 737 70.9037 730.083 519.988
533 0 68.0415 12.0662 821 69.5006 730.005 519.534
534 0 69.1207 12.008 830 70.2747 729.799 516.029
535 0 72.0494 12.1722 877 69.5485 729.611 516.158
536 0 74.085 12.4587 923 69.6696 729.624 514.523
537 0 77.068 12.5733 969 69.1197 729.996 514.052
538 0 78.1185 12.225 955 70.0304 729.803 508.925
539 0 83.1684 12.3605 1028 69.5175 729.588 510.063
540 0 84.1004 11.9143 1002 70.6178 729.083 508.833
541 0 87.2043 11.8572 1034 70.6383 729.206 506.538
542 0 92.1302 13.5135 1245 67.8562 729.239 505.672
543 1 48.0408 11.8649 570 67.9895 729.075 528.96
544 0 49.0389 12.1128 594 69.1296 729.177 524.652
545 0 52.0799 12.7112 662 67.3021 729.437 526.57
546 0 53.1687 13.2597 705 67.9631 729.179 524.108
547 0 55.0524 13.5507 746 66.6702 729.231 525.812
548 0 56.0712 12.5733 705 68.7745 729.03 522.884
549 0 59.0738 13.627 805 66.6683 728.802 521.421
550 0 60.3008 11.9733 722 69.0983 729.398 520.497
551 0 62.0553 12.6661 786 67.7163 729.275 520.206
552 0 63.0594 12.6706 799 68.5019 728.854 516.998
553 0 65.1282 12.8362 836 68.006 729.103 517.172
554 0 68.0542 12.0492 820 69.0573 729.506 515.846
555 0 70.051 11.9056 834 69.0863 729.817 513.667
556 0 72.0441 12.2564 883 68.1065 729.256 516.36
557 0 73.1459 12.4272 909 68.3641 729.69 512.737
558 0 77.0709 11.9241 919 68.8803 728.951 512.552
559 0 81.1111 12.8466 1042 67.2985 728.947 511.521
560 0 85.2035 14.3069 1219 64.8015 729.574 510.08
561 0 86.0978 11.9283 1027 68.9552 728.094 508.507
562 0 90.1438 13.1346 1184 66.8708 728.411 508.943
563 0 93.1706 13.7275 1279 66.8804 728.572 504.511
564 0 96.1422 12.908 1241 68.1378 728.556 503.936
565 0 97.1389 13.3108 1293 67.9505 728.52 501.408
566 1 50.0861 12.3987 621 66.5926 729.538 526.936
567 0 50.0288 11.3535 568 69.0158 729.486 526.012
568 0 52.034 12.6648 659 67.3596 728.959 526.074
569 0 53.1984 11.8801 632 68.769 728.926 522.339
570 0 55.0892 11.9624 659 68.4507 729.159 524.253
571 0 55.0729 11.6391 641 69.8549 729.03 522.479
572 0 58.0446 12.0425 699 68.6824 729.545 520.69
573 0 60.125 11.975 720 69.3139 729.488 519.988
574 0 62.0723 12.1471 754 68.9403 729.683 521.387
575 0 64.2081 12.7554 819 68.6435 729.1 517.683
576 0 65.2508 11.5248 752 70.6835 728.737 516.67
577 0 67.0569 11.3635 762 70.5486 728.621 516.789
578 0 70.0692 11.9739 839 69.6484 729.757 513.317
579 0 73.0569 13.688 1000 67.014 729.772 513.938
580 0 76.1827 11.4593 873 69.8362 730.473 513.549
581 0 78.2194 12.107 947 69.0602 730.186 512.587
582 0 80.1105 12.5452 1005 68.591 731.025 510.566
583 0 83.193 12.2005 1015 68.9714 730.971 508.137
584 0 85.1718 12.8446 1094 68.3327 730.846 507.674
585 0 90.265 13.0062 1174 67.8808 730.453 505.129
586 1 45.1062 10.7302 484 69.7831 730.279 525.322
587 0 46.0618 11.1155 512 70.2754 729.984 524.826
588 0 48.1254 11.2415 541 69.6691 729.817 523.211
589 0 49.1291 11.5817 569 69.3234 729.91 523.656
590 0 51.0877 11.0007 562 69.9342 729.842 522.424
591 0 53.0524 11.1399 591 69.3452 729.24 522.044
592 0 56.0909 13.8347 776 65.1392 729.848 521.062
593 0 58.29 11.7173 683 67.5403 729.583 521.603
594 0 60.1439 12.071 726 67.0565 729.583 519.64
595 0 63.1395 12.8762 813 65.7392 729.606 517.64
596 0 63.2011 11.8036 746 67.3432 729.741 515.749
597 0 66.0754 13.3786 884 64.6233 729.878 516.745
598 0 67.0942 11.8043 792 67.1755 730.408 514.688
599 0 70.1922 12.594 884 65.5181 730.431 515.781
600 0 74.3641 12.7077 945 65.4698 730.847 513.294
601 0 73.3884 12.7132 933 66.3194 729.332 510.243
602 0 78.2407 12.2187 956 66.4372 729.903 510.25
603 0 79.1344 12.2324 968 66.407 730.168 507.644
604 0 83.1881 12.5739 1046 65.6138 730.251 508.221
605 0 86.1517 12.7334 1097 65.5971 730.178 507.935
606 0 88.2773 12.0189 1061 66.0377 730.81 507.365
607 1 48.0559 9.71785 467 67.2784 730.899 527.182
608 0 50.1596 11.0647 555 66.1333 730.928 524.225
609 0 51.1496 11.6912 598 66.1321 730.329 521.135
610 0 53.121 13.4222 713 63.425 730.53 523.843
611 0 53.2131 12.8352 683 64.9766 730.742 521.577
612 0 55.0477 12.5164 689 65.09 730.573 520.119
613 0 57.1748 11.8409 677 65.455 730.102 517.842
614 0 59.2828 11.4873 681 65.7827 730.332 518.555
615 0 61.1966 11.03 675 66.1659 730.527 519.736
616 0 64.1515 11.6443 747 65.2771 730.503 516.778
617 0 66.2473 12.6798 840 63.7976 730.658 514.658
618 0 70.1658 11.7721 826 64.5908 729.924 514.805
619 0 71.232 12.3821 882 63.398 729.749 514.379
620 0 74.2034 13.1396 975 62.4841 729.706 513.133
621 0 74.2154 10.9816 815 65.1485 729.698 513.211
622 1 39.2676 10.2375 402 63.0871 729.906 530.522
623 0 38.14 9.75354 372 64.4866 729.68 530.481
624 0 38.1436 9.38559 358 66.3659 730.006 528.816
625 0 41.1964 9.68532 399 65.3985 729.962 528.987
626 0 41.079 10.4433 429 65.2051 729.984 527.534
627 0 44.0955 11.5658 510 63.1078 729.524 527.484
628 0 45.1016 12.0617 544 62.9246 729.96 525.739
629 0 47.2092 11.0784 523 63.4379 729.576 525.459
630 0 47.1139 11.5253 543 64.1989 729.928 522.177
631 0 51.097 11.6837 597 63.3417 730.121 522.851
632 0 51.1294 12.6346 646 62.709 729.968 521.113
633 0 54.15 11.6344 630 63.2397 730.795 522.497
634 0 54.0986 10.7951 584 65.8527 730.192 519.228
635 0 57.319 12.4217 712 62.8511 729.994 518.154
636 0 58.1185 11.8895 691 63.6136 730.204 518.91
637 0 60.192 12.1445 731 62.9521 729.239 517.506
638 0 60.1674 10.6702 642 65.2695 729.815 516.844
639 0 60.1175 10.1967 613 65.708 730.078 518.697
640 0 64.1207 12.3205 790 63.1747 729.871 514.782
641 0 65.1625 11.4023 743 64.5209 730.065 512.59
642 0 67.2299 11.483 772 64.3329 730.154 512.775
643 0 67.0873 10.1062 678 66.5369 730.083 512.195
644 1 38.2194 8.92217 341 65.2991 730.155 529.273
645 0 39.0402 11.2448 439 62.8861 730.82 528.159
646 0 41.1109 10.8974 448 64.6763 729.926 526.337
647 0 43.0833 11.0484 476 63.8887 730.634 526.067
648 0 42.1508 10.3675 437 65.3822 730.913 525.824
649 0 46.1837 11.7791 544 62.1948 730.493 526.618
650 0 43.1875 10.0955 436 66.5229 730.307 522.722
651 0 47.0995 11.0829 522 64.6628 731.048 522.194
652 0 49.1008 12.2809 603 63.0929 730.315 523.184
653 0 50.181 12.5147 628 62.9904 730.393 521.01
654 0 51.1201 9.9765 510 66.8863 729.796 519.476
655 0 54.1675 11.4275 619 64.5396 729.525 520.162
656 0 55.0679 11.3133 623 64.5409 729.907 520.461
657 0 56.0887 12.6585 710 63.5718 730.692 517.441
658 0 57.1563 12.8945 737 63.2999 730.482 517.395
659 0 60.0386 12.4587 748 63.5562 729.782 513.499
660 0 62.1156 12.1226 753 64.3147 730.02 514.813
661 0 64.1215 12.1176 777 64.3089 730.185 515.486
662 0 65.1464 11.973 780 64.632 729.303 512.295
663 0 68.16 11.1796 762 66.0092 729.803 513.689
664 0 70.1491 12.06 846 64.8582 729.18 513.72
665 0 71.1617 11.0312 785 66.051 729.875 513.852
666 0 75.098 11.7846 885 65.0452 729.723 510.286
667 0 76.0841 10.2912 783 67.8238 729.015 510.681
668 0 78.1627 10.2862 804 67.4067 729.816 510.991
669 0 83.1271 13.0162 1082 63.8808 729.548 506.454
670 0 86.0997 11.3357 976 66.3227 730.257 505.298
671 0 88.3341 11.5471 1020 65.4686 730.081 508.252
672 1 46.0934 12.236 564 63.2642 730.317 525.402
673 0 49.1255 12.5597 617 61.6499 730.358 526.88
674 0 49.1432 12.6569 622 62.4823 729.724 525.568
675 0 49.0489 12.7628 626 63.6693 730.252 522.363
676 0 49.0862 12.1012 594 64.2205 730.152 524.254
677 0 55.1098 12.4116 684 62.4269 730.925 523.94
678 0 54.05 12.7844 691 62.6715 730.826 522.058
679 0 53.0862 11.5284 612 65.8611 730.614 518.807
680 0 58.0321 12.6482 734 62.7452 730.065 520
681 0 60.0546 12.2888 738 62.9024 730.771 519.943
682 0 60.0405 12.6415 759 62.8445 730.628 519.854
683 0 62.0477 10.7498 667 65.105 731.163 517.853
684 0 65.0349 12.3933 806 62.3548 730.143 518.727
685 0 66.103 11.8452 783 62.5568 730.304 518.787
686 0 68.0469 11.0806 754 64.2732 730.659 514.15
687 0 68.0547 12.3136 838 63.5418 730.863 515.29
688 0 72.1212 12.7563 920 62.787 730.702 511.843
689 0 75.0977 12.0909 908 63.2269 731.12 514.409
690 0 76.0937 11.3281 862 64.3504 731.128 512.442
691 0 79.1447 12.6351 1000 62.833 730.944 510.964
692 1 40.0569 9.836 394 65.0178 731.203 529.274
693 0 40.0962 10.4998 421 64.7102 730.715 528.119
694 0 44.0965 10.2729 453 64.0905 731.022 527.64
695 0 43.0351 11.6649 502 64.6016 730.43 525.771
696 0 43.0506 10.8245 466 65.5343 730.009 527.483
697 0 45.0646 11.9162 537 65.1788 730.806 524.548
698 0 47.0424 12.2018 574 64.7038 730.707 523.221
699 0 47.0486 12.5827 592 65.2162 730.797 523.841
700 0 50.0681 12.2433 613 64.2431 730.055 523.046
701 0 50.0357 12.651 633 64.722 730.4 522.15
702 0 52.0417 12.9319 673 64.2229 730.556 520.88
703 0 51.0505 11.7922 602 66.5532 729.465 521.193
704 0 55.1087 12.1396 669 64.8445 729.292 521.979
705 0 57.0271 12.082 689 65.0363 729.594 520.319
706 0 58.0541 12.1094 703 65.5846 729.629 519.525
707 0 59.0617 11.5303 681 66.1351 729.96 519.881
708 0 60.0944 10.4169 626 67.5783 730.388 518.772
709 0 65.0599 13.3108 866 62.6432 730.68 519.092
710 0 64.3016 11.586 745 66.7705 729.863 517.113
711 0 67.0438 11.9922 804 66.3234 730.168 515.473
712 0 71.1809 13.4306 956 64.3504 729.789 515.264
713 1 38.0328 12.9099 491 64.9022 730.242 529.263
714 0 37.1142 13.0678 485 65.5464 729.588 528.34
715 0 41.0368 11.5263 473 66.8309 730.076 528.85
716 0 40.0732 11.3792 456 68.1623 730.601 527.518
717 0 43.0177 11.7858 507 66.432 729.777 530.333
718 0 44.1275 11.9427 527 67.1063 730.04 527.25
719 0 44.0502 12.0317 530 67.2226 730.428 527.598
720 0 46.0608 13.4605 620 65.5371 730.3 525.303
721 0 49.1613 13.4252 660 65.2515 729.714 525.582
722 0 49.2085 12.315 606 66.3795 729.82 526.069
723 0 52.1085 11.4185 595 67.0168 729.56 525.41
724 0 52.0691 11.5616 602 67.4884 729.633 521.274
725 0 55.062 12.604 694 66.1369 729.618 522.627
726 0 55.0304 12.7384 701 66.6048 729.909 520.561
727 0 59.1294 13.2591 784 64.3291 730.008 523.77
728 0 59.0979 10.9141 645 67.6589 729.758 521.085
729 0 62.0637 14.179 880 63.583 730 518.892
730 0 62.1592 14.7846 919 63.4374 730.192 517.18
731 0 66.141 13.3351 882 64.3991 730.032 518.006
732 0 68.0753 13.9551 950 63.9968 730.27 515.909
733 0 70.0754 14.413 1010 63.7653 730.193 515.406
734 0 72.2645 12.3159 890 65.4303 729.581 517.206
735 0 74.0518 12.9639 960 64.7406 729.746 514.984
736 0 75.1942 13.2191 994 64.7072 730.088 514.004
737 0 78.1392 13.0024 1016 65.3789 729.861 510.398
738 0 81.0892 13.3927 1086 64.302 730.314 512.507
739 1 41.0533 12.0088 493 65.6694 730.738 530.789
740 0 42.095 11.9967 505 66.6139 731.164 530.267
741 0 45.076 12.5788 567 65.8201 730.728 528.092
742 0 46.0242 12.7324 586 66.9164 730.073 526.864
743 0 46.0221 13.1024 603 66.2405 730.484 527.322
744 0 48.1017 13.4091 645 65.6527 729.322 528.084
745 0 49.0944 13.912 683 66.2782 729.883 525.378
746 0 52.0838 12.1151 631 67.7179 730.193 524.64
747 0 53.0409 13.3293 707 66.8175 730.477 524.11
748 0 54.044 13.9886 756 66.5026 730.561 523.589
749 0 53.1294 13.6271 724 67.9199 730.815 521.51
750 0 53.037 12.7081 674 69.5579 730.227 522.194
751 0 59.0964 14.7725 873 65.9393 730.677 521.722
752 0 60.0443 13.59 816 68.1618 729.706 519.284
753 0 62.1336 12.6341 785 69.6943 729.931 519.254
754 0 66.0593 13.8058 912 68.3465 729.732 518.148
755 0 68.1576 14.7306 1004 67.2321 730.126 518.622
756 0 69.083 14.5188 1003 67.9691 729.823 516.671
757 0 70.1897 12.4947 877 71.2714 729.382 514.798
758 0 74.1554 12.7435 945 70.8571 729.903 514.214
759 0 77.2528 13.8895 1073 69.0401 729.606 513.658
760 0 81.1616 14.3787 1167 67.9597 729.036 513.734
761 0 83.1347 14.278 1187 68.8602 729.58 511.714
762 0 84.0998 13.5196 1137 70.3061 730.423 509.974
763 0 87.1424 13.7476 1198 70.4524 730.512 507.5
764 1 42.0614 12.3391 519 73.1561 730.618 528.79
765 0 46.1091 15.8103 729 67.7792 730.129 529.067
766 0 49.0881 14.0971 692 69.0173 730.007 529.42
767 0 51.1006 14.6574 749 68.7704 729.806 527.328
768 0 50.0601 13.7435 688 70.7267 729.862 525.897
769 0 52.0468 14.0835 733 70.2756 730.143 525.619
770 0 56.0782 13.6238 764 69.4136 730.148 525.846
771 0 54.0488 14.5979 789 69.91 730.795 523.596
772 0 59.0875 14.3685 849 68.9953 730.092 524.592
773 0 58.1233 13.3509 776 70.4678 729.988 523.835
774 0 62.0867 15.72 976 67.9529 729.49 521.267
775 0 62.1493 13.8537 861 70.3949 729.482 522.055
776 0 64.075 13.5778 870 70.846 730.061 519.98
777 0 65.0433 15.0976 982 69.0041 729.536 520.147
778 0 67.0882 13.9071 933 70.6334 730.274 517.846
779 0 69.1204 11.8923 822 72.3418 730.23 520.068
780 0 72.1354 13.8351 998 71.0681 729.975 515.729
781 0 76.0545 13.3457 1015 71.2749 729.721 515.283
782 0 80.231 14.4209 1157 69.3984 729.572 514.94
783 0 79.2121 13.5585 1074 70.7672 729.975 515.147
784 0 82.1264 13.3575 1097 71.4932 730.094 510.409
785 0 83.1047 14.945 1242 69.5781 730.235 511.208
786 0 87.3842 12.9657 1133 70.8729 730.146 511.274
787 0 88.1764 13.0534 1151 72.0417 729.855 509.021
788 0 90.1093 13.6723 1232 71.4456 729.745 508.2
789 0 94.1936 12.8247 1208 72.6515 729.234 506.85
790 0 95.1121 12.7008 1208 73.4586 728.734 503.156
791 0 99.0801 11.5361 1143 74.1181 729.136 502.204
792 0 100.347 12.377 1242 73.0072 728.758 502.022
793 0 104.298 13.5189 1410 71.6362 729.241 500.565
794 0 106.147 12.8595 1365 72.2667 729.84 499.36
795 0 109.085 13.6041 1484 72.0418 729.72 496.85
796 0 112.285 12.5306 1407 73.7186 729.597 494.252
797 0 116.161 12.7753 1484 73.3113 729.46 491.369
798 0 119.071 12.7403 1517 73.8411 729.56 491.19
799 0 123.213 10.0801 1242 76.7995 729.742 492.735
800 1 62.089 13.1263 815 74.0982 730.007 518.249
801 0 66.2277 12.608 835 74.8383 729.462 515.869
802 0 67.1066 13.0092 873 75.4227 729.632 516.226
803 0 71.1456 13.0577 929 74.8708 729.354 515.131
804 0 74.1107 12.8052 949 75.6259 729.362 513.502
805 0 78.1494 14.2164 1111 73.6661 729.561 513.279
806 0 78.0632 11.9006 929 78.0043 729.484 511.715
807 0 80.0813 11.301 905 78.484 729.177 514.267
808 0 84.1695 11.6551 981 78.0082 729.402 512.32
809 0 90.1111 14.6819 1323 73.3477 729.509 511.076
810 0 92.1352 13.6538 1258 75.1725 729.204 508.984
811 1 47.0323 13.4588 633 74.0474 729.534 531.054
812 0 47.0626 13.4927 635 75.0173 730.432 529.954
813 0 47.1133 11.8013 556 76.7572 730.21 530.326
814 0 50.0659 11.1453 558 78.0806 729.858 530.054
815 0 51.0419 13.5771 693 75.8543 729.473 527.434
816 0 53.0409 13.7064 727 76.7235 729.864 526.275
817 0 56.1318 13.3792 751 76.5286 730.232 525.887
818 0 58.2208 13.5862 791 75.7257 730.166 526.63
819 0 61.3292 14.2999 877 73.9088 730.065 525.987
820 0 62.0682 14.323 889 74.378 730.043 524.461
821 0 63.1992 13.6869 865 76.4058 730.205 521.602
822 0 67.0714 14.1193 947 75.4108 729.784 521.225
823 0 68.1395 12.3423 841 77.7301 728.863 520.156
824 0 70.069 13.5153 947 76.3844 729.071 519.34
825 0 71.1508 13.886 988 76.0385 729.334 520.15
826 0 74.1606 13.5921 1008 76.8839 729.302 516.078
827 0 77.0456 12.7587 983 76.8566 729.879 519.467
828 0 78.2444 13.1128 1026 77.9756 729.967 514.682
829 1 38.0838 12.1836 464 78.4181 729.849 533.597
830 0 39.0956 13.0449 510 76.9902 730.186 533.259
831 0 43.0894 11.7894 508 78.0236 729.561 532.427
832 0 43.0282 13.9211 599 75.9666 729.833 531.591
833 0 44.0119 11.0197 485 78.8062 730.076 532.753
834 0 46.0825 12.6729 584 77.1866 730.291 530.298
835 0 48.0986 13.1605 633 75.6382 730.13 531.262
836 0 49.1206 14.0674 691 74.7858 729.99 529.399
837 0 49.115 12.2569 602 77.412 730.414 528.841
838 0 49.1549 12.6539 622 77.9309 730.217 527.357
839 0 55.1027 14.1917 782 72.9898 730.222 528.786
840 0 54.0329 13.0106 703 76.3286 730.303 525.704
841 0 57.0624 13.5816 775 75.32 730.026 525.128
842 0 59.1094 12.9929 768 76.4583 730.776 524.943
843 0 59.1236 13.5141 799 75.4956 730.65 525.418
844 0 63.1029 13.6761 863 74.8957 731.016 522.291
845 0 64.1253 14.8771 954 73.1153 730.449 521.702
846 0 66.0705 14.3029 945 74.5058 730.34 519.028
847 0 66.0744 13.4545 889 76.703 730.837 517.036
848 0 69.0605 13.6981 946 75.9218 730.409 519.177
849 0 74.109 13.723 1017 74.8024 730.346 518.022
850 0 74.1549 12.5009 927 77.1661 730.31 517.674
851 0 80.2667 14.2026 1140 74.1114 730.533 515.612
852 0 80.076 12.1884 976 77.541 730.127 515.006
853 1 39.056 12.2901 480 76.7771 730.654 533.223
854 0 42.0872 12.7592 537 76.298 730.426 531.479
855 0 42.0168 13.09 550 75.7636 730.216 531.016
856 0 46.1232 12.6618 584 74.1044 730.428 531.717
857 0 45.3717 13.2241 600 74.76 730.135 529.795
858 0 49.0785 13.2237 649 73.8213 730.356 530.502
859 0 48.1737 14.0325 676 73.6894 730.562 529.009
860 0 51.1095 15.4766 791 70.7257 729.877 528.723
861 0 50.0377 13.6497 683 75.3616 730.384 528.816
862 0 53.2732 14.5852 777 74.1094 730.468 526.97
863 0 55.1911 13.8428 764 74.1427 728.962 527.232
864 0 58.1558 13.6874 796 73.9925 729.658 525.808
865 0 59.2817 13.0226 772 75.1956 729.889 523.538
866 0 61.051 15.0038 916 71.6998 729.682 523.745
867 0 62.1474 13.999 870 73.5954 729.818 520.161
868 0 67.1942 13.8851 933 73.1715 730.712 520.823
869 0 67.0827 13.7741 924 74 729.908 519.569
870 0 69.1897 15.0889 1044 72.0852 729.345 517.798
871 0 71.1869 14.1178 1005 72.9791 729.502 518.503
872 0 75.3836 14.9502 1127 71.0976 729.636 518.535
873 0 77.2974 14.4248 1115 72.6502 729.982 512.851
874 0 78.0733 13.2696 1036 73.9189 729.581 514.559
875 0 80.0465 13.5546 1085 73.9419 729.249 513.158
876 0 84.1691 13.0808 1101 74.1735 729.654 514.33
877 0 85.0503 13.3686 1137 74.307 730.391 509.568
878 1 47.0828 11.7877 555 74.4901 729.6 530.76
879 0 47.1651 13.4846 636 73.3868 729.868 529.181
880 0 47.1579 13.8683 654 73.4878 730.174 528.931
881 0 49.1498 13.1231 645 74.338 729.947 528.206
882 0 52.1244 14.8683 775 71.6568 729.893 527.137
883 0 54.2028 13.4126 727 73.0729 730.492 527.106
884 0 56.1353 14.0019 786 72.4338 729.894 525.366
885 0 58.0906 13.3412 775 72.5794 730.075 525.772
886 0 59.1881 14.4117 853 71.4174 729.574 523.946
887 0 61.2065 13.626 834 71.458 730.457 524.778
888 0 64.1493 15.0742 967 69.4147 730.412 522.718
889 0 65.1309 14.11 919 70.8607 730.446 522.985
890 0 69.2053 15.0711 1043 69.1918 730.145 519.903
891 0 69.2232 12.568 870 72.9988 730.329 520.256
892 0 71.2333 14.5297 1035 70.3565 730.64 516.328
893 0 74.1564 13.9705 1036 71.3842 730.196 515.614
894 0 74.2436 12.6745 941 73.221 729.72 515.638
895 0 79.158 13.2393 1048 71.5992 728.824 514.565
896 0 83.1156 15.1957 1263 68.7807 729.479 512.447
897 0 83.1368 13.2673 1103 72.1287 729.553 509.525
898 0 86.1377 15.0573 1297 68.9707 729.668 512.97
899 0 89.112 14.4425 1287 69.5742 730.015 514.174
900 0 93.311 14.5106 1354 69.469 730.256 510.58
901 0 93.2151 14.7294 1373 70.1406 729.94 510.445
902 1 45.1964 13.9834 632 69.6203 730.237 532.994
903 0 44.1718 11.3647 502 74.1414 730.46 533.012
904 0 45.0694 14.8216 668 70.2949 730.696 531.883
905 0 47.0454 13.9865 658 71.5456 730.035 530.848
906 0 47.1976 12.6278 596 74.0722 730.582 530.433
907 0 52.1186 13.7954 719 70.4687 730.538 530.74
908 0 52.1968 15.614 815 70.1423 729.919 526.986
909 0 52.229 15.03 785 72.0459 730.678 528.389
910 0 51.0605 16.0594 820 71.1598 730.584 528.635
911 0 52.1526 11.2746 588 74.6361 730.758 532.408
912 0 54.1316 13.0053 704 76.5099 730.599 525.773
913 0 59.2575 14.3611 851 73.0905 731.065 525.922
914 0 59.0362 13.6188 804 74.0547 730.568 527.393
915 1 144.275 14.202 2049 72.3119 729.783 488.471
916 0 150.368 14.2584 2144 72.8391 729.336 483.8
917 1 64.0893 14.589 935 73.6364 729.714 524.213
918 0 67.381 13.2233 891 75.4545 729.798 522.323
919 0 71.0972 14.9232 1061 72.852 729.251 521.089
920 0 71.3847 14.0366 1002 75.494 729.372 518.83
921 0 76.105 13.7836 1049 74.123 728.913 519.846
922 0 78.2003 14.0537 1099 74.7061 729.047 517.424
923 0 80.271 13.6413 1095 76.1918 728.829 515.027
924 0 80.1948 13.966 1120 75.4634 729.014 514.818
925 0 82.1783 13.1422 1080 77.5093 729.306 511.892
926 0 84.3943 12.8208 1082 77.3244 729.36 515.028
927 0 89.3497 14.0571 1256 75.4291 729.519 513.334
928 0 92.2942 14.2587 1316 75.3283 729.372 510.654
929 0 95.2741 14.1801 1351 75.7084 728.772 509.702
930 0 95.1875 14.6973 1399 75.8227 728.891 510.008
931 0 99.2656 14.1842 1408 76.4197 729.246 508.231
932 0 102.28 13.7563 1407 77.8834 729.266 505.828
933 0 104.293 12.9347 1349 78.6709 729.573 506.216
934 0 105.167 14.1394 1487 78.4694 729.515 502.544
935 0 109.236 13.6127 1487 78.1547 729.895 504.184
936 0 112.327 14.716 1653 77.1627 729.74 502.413
937 1 54.3314 13.8042 750 78.7147 729.508 526.791
938 0 55.297 13.8886 768 79.5482 729.967 525.445
939 0 59.2131 13.4092 794 79.6801 730.064 525.785
940 0 59.2803 13.7482 815 78.935 729.809 525.164
941 0 61.2134 14.4086 882 77.9263 729.443 524.88
942 0 60.2554 14.1066 850 80.2682 729.971 523.884
943 0 64.2059 14.547 934 79.4561 729.578 522.335
944 0 64.1216 13.5212 867 81.1246 730.666 523.614
945 1 105.263 14.0315 1477 79.6865 730.169 506.672
946 0 108.29 12.8729 1394 81.6377 730.495 504.339
947 1 69.3053 13.087 907 82.0121 730.273 520.205
948 0 73.3086 14.5413 1066 79.5722 730.825 520.233
949 0 72.0868 14.2883 1030 81.8466 731.178 515.756
950 0 78.1589 14.752 1153 78.8586 730.396 517.296
951 0 77.2062 14.2605 1101 81.1653 730.625 515.004
952 0 80.3418 14.4508 1161 79.4858 731.52 515.911
953 0 82.3662 14.3991 1186 80.2462 731.01 511.95
954 0 86.5175 14.4942 1254 79.0805 730.606 513.23
955 0 88.1108 14.7315 1298 78.3382 730.358 511.945
956 0 89.3311 14.6086 1305 79.9172 729.821 510.543
957 0 90.2718 13.0052 1174 81.8399 730.925 508.591
958 1 44.1852 13.5113 597 79.2312 730.367 532.156
959 0 45.3383 13.1236 595 81.805 730.355 528.548
960 0 49.191 13.0918 644 80.0838 730.205 528.741
961 0 49.2729 13.8616 683 78.716 730.731 529.182
962 0 52.1761 14.2019 741 77.0729 730.677 529.753
963 0 50.0774 13.8186 692 79.8497 731.006 527.061
964 0 54.3504 13.9466 758 77.8483 731 527.34
965 0 56.1089 12.7431 715 80.1105 729.874 526.366
966 0 57.2763 13.3039 762 78.3635 729.576 527.093
967 0 59.1142 14.4974 857 77.2894 730.194 524.858
968 0 62.2785 14.403 897 76.9688 730.024 524.319
969 0 62.1853 13.8296 860 78.364 730.405 523.733
970 0 63.0789 13.8081 871 78.868 730.326 522.371
971 0 69.4633 15.375 1068 75.5899 730.469 520.47
972 0 69.2517 13.5015 935 79.7048 730.34 518.811
973 0 72.1193 14.6008 1053 77.7673 730.309 519.749
974 0 74.19 13.4789 1000 79.867 730.21 517.07
975 0 77.3541 15.0089 1161 78.1128 730.013 515.896
976 0 75.2827 13.2833 1000 82.292 730.027 514.915
977 0 80.1567 14.1722 1136 80.5431 729.697 514.651
978 0 84.1476 14.7479 1241 80.1491 730.142 512.456
979 0 85.0958 13.5024 1149 82.2916 730.84 512.681
980 0 89.0738 14.0558 1252 81.5903 729.964 511.115
981 0 89.0994 13.8609 1235 82.2275 730.28 511.874
982 0 93.1632 13.267 1236 83.3738 730.417 507.796
983 0 96.1248 15.3238 1473 80.112 730.209 508.079
984 0 99.1792 13.7529 1364 81.415 730.173 510.408
985 1 49.1582 15.2772 751 80.8708 730.722 529.948
986 0 50.1301 15.5396 779 80.154 731.108 529.922
987 0 52.035 13.3564 695 84.2302 730.391 530.255
988 0 54.2875 15.2153 826 81.0702 730.585 529.182
989 0 53.205 16.1451 859 81.298 730.352 528.566
990 0 52.0669 13.6747 712 86.7584 729.92 527.771
991 0 56.0488 13.9343 781 85.4814 730.268 527.586
992 0 55.101 13.3573 736 88.8655 729.908 525.312
993 0 57.0604 13.3192 760 87.454 730.83 526.909
994 0 60.0659 14.3842 864 86.2801 730.478 525.137
995 0 63.1231 15.6678 989 83.3023 730.608 524.208
996 0 64.0601 15.3293 982 84.9898 730.537 523.657
997 0 65.0442 15.574 1013 85.5874 730.722 521.968
998 0 69.2138 14.5347 1006 86.3638 730.127 522.55
999 0 70.1325 13.7882 967 88.485 729.474 521.117
1000 0 72.0704 13.9586 1006 87.6422 729.66 519.824
1001 1 162.466 12.8889 2094 85.7531 730.172 485.989
1002 1 77.1839 13.565 1047 88.1012 730.475 518.181
1003 0 78.0852 14.6891 1147 86.9442 731.01 516.244
1004 0 81.0678 14.5804 1182 86.6074 730.365 513.938
1005 0 84.1963 13.8842 1169 87.4859 730.198 513.782
1006 0 87.2232 14.847 1295 85.939 729.788 512.013
1007 0 89.2622 14.7431 1316 85.1155 729.986 514.65
1008 1 45.1452 12.8917 582 86.0619 729.94 533.533
1009 0 46.0971 13.1895 608 86.9359 729.52 533.01
1010 0 45.0688 13.6236 614 86.2117 730.419 533.79
1011 0 47.08 14.1886 668 86.7051 730.421 532.74
1012 0 49.1009 14.236 699 86.9514 730.668 532.288
1013 0 49.0388 14.3152 702 86.99 730.568 533.154
1014 0 52.2682 14.196 742 87.3531 729.771 532.028
1015 0 52.0934 14.7428 768 86.9336 730.307 530.947
1016 0 52.1655 14.4732 755 89.1762 729.797 529.976
1017 0 56.1787 14.9523 840 88.0155 729.851 529.095
1018 0 58.1691 14.3203 833 89.9244 730.004 528.148
1019 0 59.3137 13.6056 807 91.2726 729.641 527.204
1020 0 61.1533 14.9624 915 88.9552 729.41 527.057
1021 0 62.0537 13.6978 850 92.9624 729.664 524.151
1022 0 66.1639 14.2827 945 90.3132 729.264 525.321
1023 0 69.1259 15.4067 1065 88.9033 729.494 523.22
1024 0 68.1656 13.8193 942 93.0329 729.486 522.331
1025 0 69.1205 13.6139 941 93.4389 729.848 522.257
1026 0 73.0802 14.6004 1067 91.8257 729.83 519.714
1027 0 76.075 14.7486 1122 91.2353 729.459 518.214
1028 0 77.1042 14.4999 1118 91.7263 728.55 519.36
1029 0 82.1095 14.2371 1169 91.1523 729.34 517.863
1030 0 86.1421 14.2671 1229 90.3043 728.921 517.101
1031 0 86.1163 15.0959 1300 89.0946 728.809 517.955
1032 0 90.2087 15.2757 1378 88.6473 728.485 514.574
1033 0 92.2885 14.4113 1330 90.5962 729.069 511.977
1034 0 96.2507 14.7428 1419 88.747 728.838 511.786
1035 0 99.3214 14.8004 1470 88.1109 729.128 510.945
1036 0 101.146 13.5151 1367 90.9495 728.777 509.91
1037 0 105.243 14.8894 1567 87.3682 728.168 510.407
1038 1 52.1008 12.591 656 91.4268 728.006 532.742
1039 0 52.0886 13.2659 691 91.4096 727.588 532.884
1040 0 53.1155 13.7813 732 92.2596 727.652 530.658
1041 0 57.0442 14.182 809 89.9654 727.486 531.158
1042 0 59.072 13.9999 827 90.9093 728.382 530.906
1043 0 59.1708 14.1286 836 90.9426 728.203 529.034
1044 0 60.111 14.6063 878 90.4749 728.129 527.967
1045 0 63.1073 14.4199 910 89.4088 727.778 527.916
1046 0 64.1309 13.6596 876 91.6484 727.806 527.444
1047 0 66.2005 14.8035 980 89.4112 728.208 527.029
1048 0 68.1562 14.7162 1003 89.5653 728.361 525.762
1049 0 70.2281 15.4639 1086 88.0037 729.394 524.529
1050 0 72.1001 15.0763 1087 89.0193 728.266 523.538
1051 0 73.1033 14.117 1032 91.28 728.57 522.969
1052 0 76.0905 14.6273 1113 89.4025 727.985 522.169
1053 0 80.0994 15.8054 1266 87.2765 728.385 519.385
1054 0 81.0502 14.6206 1185 89.6236 728.298 519.559
1055 0 85.1707 15.2635 1300 87.4477 728.424 518.372
1056 0 86.0767 14.1966 1222 88.6162 728.775 518.29
1057 0 89.2109 14.3592 1281 87.7479 728.799 516.98
1058 0 94.1321 14.3097 1347 86.9102 728.883 514.534
1059 0 96.151 14.6956 1413 86.2017 728.49 512.219
1060 1 47.0729 13.0861 616 88.3653 728.646 536.417
1061 0 46.0332 13.6423 628 89.535 729.04 534.974
1062 0 50.118 14.5656 730 86.8548 728.353 535.059
1063 0 51.1459 13.9601 714 87.1415 728.852 536.443
1064 0 52.1456 14.9389 779 85.7625 729.031 534.267
1065 0 53.1448 14.8839 791 87.1808 728.827 533.923
1066 0 56.0924 14.3157 803 87.2553 729.757 531.854
1067 0 56.2556 13.8297 778 88.0797 729.779 531.816
1068 0 59.1393 13.8994 822 87.865 729.616 529.951
1069 0 61.1196 14.4307 882 86.4308 729.88 530.158
1070 0 59.0717 13.1704 778 91.0308 729.771 528.884
1071 0 64.0835 14.4811 928 86.8459 729.655 526.439
1072 0 66.0392 13.9008 918 87.3312 729.661 525.387
1073 0 69.0864 14.2575 985 85.9157 729.359 525.312
1074 0 72.2292 13.6648 987 85.8369 729.327 524.371
1075 0 74.0962 14.4542 1071 83.7442 729.097 524.5
1076 0 75.0568 13.9628 1048 84.8235 729.796 522.352
1077 0 78.1074 14.2496 1113 83.9371 729.426 520.968
1078 0 81.135 16.3555 1327 79.6247 729.39 518.518
1079 0 82.2256 14.1562 1164 83.7835 728.862 518.107
1080 0 86.304 14.0666 1214 82.6326 729.156 516.548
1081 0 90.0809 13.8431 1247 82.3857 728.657 516.304
1082 1 44.1151 13.2154 583 83.1115 728.787 536.576
1083 0 45.314 13.3292 604 81.8328 729.126 536.745
1084 0 47.0809 14.8043 697 80.0832 729.152 534.463
1085 0 50.0599 12.7847 640 81.8781 729.211 536.039
1086 0 46.0425 12.2061 562 85.2473 729.246 532.94
1087 0 51.0617 16.059 820 76.1549 729.827 533.972
1088 0 50.1938 13.4279 674 81.5712 728.901 532.466
1089 0 52.074 13.6344 710 80.8099 729.525 533.373
1090 0 55.0957 14.3568 791 79.0417 729.472 531.222
1091 0 57.3808 13.2274 759 80.9605 729.534 530.888
1092 0 58.4727 14.4854 847 78.9008 729.423 529.534
1093 0 60.2115 13.7515 828 79.3816 729.344 530.05
1094 0 63.2119 14.7915 935 77.2011 730.037 526.845
1095 0 62.2851 13.9359 868 80.2569 730.023 524.32
1096 0 67.1384 14.418 968 76.9081 729.713 527.204
1097 0 69.2032 15.6496 1083 75.241 729.752 523.759
1098 0 70.3006 15.1777 1067 76.5005 728.923 522.595
1099 0 72.1286 15.1674 1094 75.9497 729.559 521.061
1100 0 74.3156 14.0347 1043 77.6817 729.153 521.204
1101 0 77.1027 15.0319 1159 75.8456 728.571 519.204
1102 0 78.1661 14.8914 1164 76.134 728.794 520.252
1103 0 80.3097 14.8923 1196 76.1998 728.84 515.539
1104 0 85.3412 14.9752 1278 75.4757 728.772 517.027
1105 0 87.2464 14.7513 1287 75.718 729.044 515.538
1106 0 89.3155 15.2717 1364 74.8915 728.547 513.454
1107 0 93.3589 14.9316 1394 74.5452 728.167 511.232
1108 0 97.1443 15.3586 1492 73.7165 729.624 511.892
1109 0 100.113 15.023 1504 73.4628 729.528 511.377
1110 0 100.438 14.3073 1437 75.3911 730.015 507.079
1111 0 106.153 16.3066 1731 71.0786 729.856 508.267
1112 0 108.161 15.8652 1716 71.8718 729.882 503.772
1113 1 52.2094 13.2352 691 76.9725 729.932 529.729
1114 0 56.1222 14.3437 805 74.6994 729.229 528.024
1115 0 57.1431 14.2274 813 74.583 729.47 529.295
1116 0 60.1176 14.3552 863 73.9119 729.57 526.044
1117 0 62.1355 16.464 1023 70.2835 730.37 527.464
1118 0 61.0907 14.6012 892 74.5572 730.108 525.836
1119 0 65.0818 16.0414 1044 71.2107 729.2 524.398
1120 0 65.0256 14.5789 948 73.0981 729.71 525.458
1121 0 66.1009 14.1753 937 74.9509 729.974 522.996
1122 0 70.1295 15.6282 1096 72.1305 729.567 521.83
1123 0 72.1194 16.029 1156 72.0709 729.721 520.821
1124 0 74.2039 15.0262 1115 72.9229 730.149 519.954
1125 0 77.2197 14.2192 1098 74.2623 730.238 519.189
1126 0 78.1018 16.0688 1255 72.0494 729.649 517.73
1127 0 81.1261 16.0121 1299 71.796 729.553 517.127
1128 0 84.1106 14.5047 1220 73.6098 729.331 516.006
1129 0 86.137 14.744 1270 72.9079 729.854 514.664
1130 0 89.0962 16.9031 1506 69.678 730.182 514.784
1131 0 91.1758 16.1775 1475 71.6902 729.23 510.553
1132 0 94.1769 14.4621 1362 73.6674 729.793 511.358
1133 0 96.2266 15.3596 1478 72.4107 729.478 509.796
1134 0 98.0943 12.9161 1267 76.1247 729.194 508.369
1135 0 101.096 15.1934 1536 72.752 729.945 506.395
1136 1 47.0559 13.5158 636 73.8711 729.843 533.395
1137 0 47.0995 13.4821 635 76.0866 729.674 529.494
1138 0 45.1131 14.6742 662 74.6828 729.5 530.121
1139 0 47.0264 12.8438 604 76.7599 729.727 529.358
1140 0 49.1211 12.8254 630 77.6556 729.627 528.224
1141 0 55.0484 13.9332 767 73.8553 730.085 528.714
1142 0 54.0656 14.6859 794 73.6625 730.134 527.375
1143 0 54.1044 13.936 754 75.7825 729.686 525.275
1144 0 57.1652 13.977 799 75.0976 729.836 525.517
1145 0 60.0703 14.6328 879 73.6337 729.501 526.089
1146 0 62.0696 13.0176 808 75.3045 730.257 525.083
1147 0 64.0383 15.0067 961 72.8293 729.563 522.788
1148 0 67.1533 14.3552 964 73.9803 729.187 521.777
1149 0 67.1792 14.0073 941 75.2784 729.293 522.017
1150 0 71.1215 13.3996 953 75.2686 729.468 520.136
1151 0 71.124 13.3569 950 76.2674 729.19 519.766
1152 0 77.1009 15.2009 1172 72.7082 728.881 515.847
1153 0 77.0542 14.1848 1093 74.4812 729.379 516.517
1154 0 83.0452 14.9557 1242 71.7858 729.727 517.949
1155 0 82.1656 14.7142 1209 73.4078 730.013 511.925
1156 0 86.1561 15.971 1376 70.7013 729.504 511.73
1157 0 89.0735 14.4487 1287 72.2922 729.729 512.129
1158 0 91.2616 14.7269 1344 72.8676 729.938 510.475
1159 0 94.1584 13.5623 1277 73.5615 730.265 511.561
1160 1 45.0287 14.3464 646 70.2678 729.961 534.562
1161 0 46.0613 15.805 728 69.6799 729.853 533.266
1162 0 48.1283 14.586 702 70.6681 729.393 532.205
1163 0 49.1196 13.233 650 72.7292 729.497 531.435
1164 0 49.0555 13.6784 671 72.4665 729.389 532.429
1165 0 49.1049 13.3999 658 73.9772 729.433 529.865
1166 0 54.067 15.2404 824 70.2488 729.46 530.284
1167 0 54.113 12.9544 701 73.9244 730.198 529.22
1168 0 56.1161 12.7058 713 73.9677 730.463 528.978
1169 0 58.1366 13.3307 775 73.7781 729.799 527.09
1170 0 59.1111 14.1936 839 72.3445 729.77 527.265
1171 0 60.1023 13.8763 834 73.7086 730.011 524.565
1172 0 61.1373 12.1203 741 75.4845 729.686 526.018
1173 0 65.1415 15.3819 1002 71.8583 729.374 523.681
1174 0 68.1019 13.7294 935 73.3487 729.936 523.259
1175 0 69.0468 14.1788 979 72.239 730.08 524.235
1176 0 72.0789 15.0391 1084 71.5821 730.053 520.671
1177 0 75.1308 14.548 1093 72.1125 730.395 520.374
1178 0 76.0671 14.2111 1081 73.2007 730.808 518.513
1179 0 79.0742 15.3906 1217 71.0452 730.564 519.303
1180 0 80.1731 14.2816 1145 73.2664 729.527 517.821
1181 0 83.1436 16.4054 1364 70.7691 729.244 514.179
1182 0 85.1681 13.1387 1119 74.9875 730.035 515.838
1183 0 89.0728 13.9998 1247 73.3777 729.646 512.774
1184 0 91.2302 14.8306 1353 73.0436 730.016 509.687
1185 0 94.2039 14.5005 1366 73.0542 729.603 507.87
1186 0 96.1153 14.1705 1362 74.0066 729.579 506.832
1187 1 47.1081 13.4584 634 73.4022 729.336 531.752
1188 0 49.1652 12.7733 628 75.4045 729.553 529.705
1189 0 49.107 13.1753 647 75.3292 730.036 529.845
1190 0 51.044 13.0084 664 75.9624 729.78 528.387
1191 0 54.1161 14.9678 810 72.5518 729.599 529.178
1192 0 54.0837 14.2372 770 75.0468 729.623 527.845
1193 0 57.0643 14.3172 817 74.7711 730.267 527.49
1194 0 56.0303 12.9037 723 78.6266 730.308 524.833
1195 0 59.027 14.0275 828 76.0072 730.149 524.647
1196 0 62.0974 15.0892 937 74.4536 729.543 523.585
1197 0 64.1778 14.4287 926 75.6512 729.207 524.922
1198 0 65.2212 14.7192 960 75.9531 729.07 523.17
1199 0 66.0681 14.3337 947 77.0919 729.322 523.408
1200 0 68.0847 14.247 970 77.8186 730.295 521.006
1201 0 73.1687 22.0176 1611 59.1434 729.646 522.634
1202 0 73.189 13.8955 1017 78.2625 730.168 519.719
1203 0 77.076 14.5311 1120 76.8366 730.271 518.503
1204 0 79.0616 14.0903 1114 77.7496 729.306 516.71
1205 0 82.1209 14.917 1225 76.3478 729.218 515.118
1206 0 83.228 14.3101 1191 77.5273 729.39 513.58
1207 0 87.1498 15.1234 1318 74.8839 729.382 514.753
1208 0 91.0794 14.6466 1334 75.6334 730.193 511.945
1209 0 94.1885 14.7152 1386 74.8759 730.322 511.208
1210 1 43.1703 13.9448 602 76.6395 729.993 533.819
1211 0 45.0615 13.8477 624 76.1779 729.548 533.752
1212 0 44.0682 13.7514 606 77.797 729.78 532.898
1213 0 49.0513 14.9436 733 74.472 729.81 532.398
1214 0 49.1654 13.6885 673 76.1025 730.471 532.535
1215 0 51.082 14.1146 721 74.6824 729.918 532.297
1216 0 53.1707 14.5945 776 74.6804 730.133 530.294
1217 0 55.0955 14.6836 809 74.1422 730.154 529.836
1218 0 55.0396 13.354 735 76.9959 729.725 527.634
1219 0 57.1022 14.7805 844 74.7891 729.821 527.146
1220 0 60.0613 15.4509 928 73.1024 729.565 526.539
1221 0 61.2453 13.9766 856 75.0491 729.769 526.421
1222 0 62.0922 13.7859 856 76.3738 729.85 524.004
1223 0 64.099 14.384 922 75.6616 729.522 523.052
1224 0 66.1842 14.1424 936 76.7105 730.157 519.239
1225 0 69.1178 15.2638 1055 74.6332 731.039 520.424
1226 0 70.06 13.7168 961 77.5796 731.002 519.852
1227 0 72.1245 14.5304 1048 76.7223 731.136 517.746
1228 0 78.1314 15.5763 1217 74.2597 730.59 517.6
1229 0 76.0771 13.9069 1058 78.4112 729.926 515.89
1230 0 81.204 15.7258 1277 75.0486 730.452 515.116
1231 0 83.3266 14.3172 1193 76.8181 730.345 515.388
1232 0 85.0904 15.2426 1297 75.1326 730.643 515.222
1233 0 85.1094 13.3475 1136 78.9912 730.241 510.693
1234 0 91.1627 14.1725 1292 76.2175 730.063 513.399
1235 0 96.251 15.47 1489 74.415 729.993 510.58
1236 0 97.1886 15.5162 1508 75.0862 729.762 506.298
1237 1 42.0305 12.0627 507 80.9763 729.894 531.387
1238 0 47.1071 14.8385 699 75.7196 729.987 531.482
1239 0 49.1291 13.9022 683 77.0688 729.679 530.856
1240 0 50.067 13.2422 663 77.5143 730.225 530.653
1241 0 51.1433 14.8407 759 76.722 730.005 529.274
1242 0 51.1308 14.414 737 77.8019 730.216 528.315
1243 0 54.0449 14.2474 770 77.4506 731.221 527.645
1244 0 57.2234 13.4036 767 78.5606 730.864 526.866
1245 0 56.0546 13.7544 771 78.1582 730.213 528.385
1246 0 59.0723 14.6262 864 77.1169 729.668 525.552
1247 0 59.0678 15.5415 918 75.9009 730.584 524.972
1248 0 61.1658 14.4035 881 77.8411 730.891 524.175
1249 0 65.1873 14.374 937 77.19 730.301 523.054
1250 0 67.0206 15.5624 1043 76.1227 730.516 522.5
1251 0 67.0808 13.4614 903 79.5083 730.999 522.144
1252 0 69.1368 14.4785 1001 78.3866 730.452 519.764
1253 0 71.0362 14.6263 1039 78.2618 730.923 519.478
1254 0 72.1358 13.4053 967 80.1189 730.437 518.717
1255 0 76.1271 15.461 1177 76.723 730.516 517.547
1256 0 78.1295 14.5016 1133 77.9126 730.139 515.904
1257 0 79.1545 13.0504 1033 80.181 730.243 513.896
1258 0 82.2297 13.6569 1123 78.7801 730.676 512.454
1259 1 36.0936 11.8304 427 79.9087 730.185 536.518
1260 0 39.0385 13.064 510 79.2843 730.798 533.58
1261 0 39.0307 13.1691 514 78.7237 729.165 533.506
1262 0 40.0981 12.1203 486 78.8807 729.259 535.442
1263 0 43.0993 12.2044 526 78.7966 729.8 532.705
1264 0 45.1571 12.224 552 78.3188 729.179 533.623
1265 0 42.0437 12.82 539 80.2301 729.956 531.093
1266 0 44.0274 13.219 582 78.3814 730.521 533.804
1267 0 45.031 14.9897 675 77.0652 730.593 531.701
1268 0 45.2109 13.0278 589 80.4041 730.503 529.109
1269 0 50.0878 13.7359 688 78.1642 730.328 528.823
1270 0 49.0379 13.4794 661 80.3101 729.685 527.687
1271 0 51.1799 14.322 733 78.3233 729.254 528.24
1272 0 52.1744 12.7266 664 81.0618 729.742 527.328
1273 0 55.1642 14.8828 821 76.6285 729.541 528.23
1274 0 54.3437 12.697 690 80.429 729.532 527.859
1275 0 60.222 14.9447 900 76.2633 729.728 528.608
1276 0 61.1318 14.3133 875 78.6057 729.8 524.389
1277 0 61.2058 13.4138 821 79.5944 730.688 526.754
1278 0 66.2438 15.7449 1043 75.4382 730.107 526.38
1279 0 67.1328 15.4917 1040 76.8721 729.668 524.053
1280 0 71.2313 15.4567 1101 76.3197 730.382 521.402
1281 0 73.1258 14.5093 1061 77.557 729.187 521.05
1282 0 75.3825 13.7565 1037 79.1138 730.11 518.428
1283 0 75.2633 15.0937 1136 76.7746 729.511 518.998
1284 0 78.197 15.3331 1199 76.0567 729.79 518.746
1285 0 80.0976 13.5959 1089 78.9219 730.626 515.522
1286 0 83.0819 14.0103 1164 77.8797 730.682 515.56
1287 0 88.1774 14.6863 1295 76.8062 731.025 512.021
1288 0 88.1473 13.2619 1169 78.9846 729.817 513.305
1289 1 45.1216 14.472 653 76.1348 730.472 534.198
1290 0 45.2698 12.8783 583 78.5437 730.353 533.36
1291 0 46.0777 11.8713 547 80.4698 730.927 532.044
1292 0 48.0839 15.057 724 76.2182 730.178 532.249
1293 0 50.2112 14.3195 719 76.3254 729.807 533.211
1294 0 51.1137 13.5384 692 78.6315 729.056 530.09
1295 0 51.073 15.8401 809 76.1273 729.832 529.504
1296 0 53.0966 14.2005 754 78.3753 730.271 529.296
1297 0 55.2185 14.7233 813 76.7491 729.49 530.095
1298 0 55.0649 13.0392 718 80.8914 729.373 527.756
1299 0 57.0649 13.8439 790 79.943 729.754 525.777
1300 0 61.2106 12.4815 764 80.9123 730.056 525.544
1301 0 62.1751 14.7165 915 78.4404 729.972 523.871
1302 0 64.0957 13.4486 862 80.2135 730.35 525.742
1303 0 64.1396 14.3281 919 78.7247 729.444 526.626
1304 0 68.3285 15.0596 1029 77.4373 729.379 524.787
1305 0 69.0335 13.6166 940 79.3032 730.339 525.778
1306 0 72.153 14.3307 1034 79.3124 730.19 521.232
1307 0 74.1168 13.3708 991 80.2482 730.531 522.253
1308 0 74.1339 13.7049 1016 80.7815 730.148 518.716
1309 0 79.1533 13.8339 1095 79.0758 729.964 518.637
1310 0 80.146 14.6233 1172 78.4369 730.119 516.405
1311 0 81.2915 12.2276 994 81.9135 730.44 514.102
1312 0 84.3004 14.2348 1200 79.7825 730.349 511.804
1313 1 42.1594 13.4252 566 78.9028 730.39 534.502
1314 0 41.2434 13.5052 557 79.4309 730.416 533.874
1315 0 42.0499 14.3877 605 78.3107 730.061 534.058
1316 0 43.2588 13.7544 595 80.8992 729.887 532.943
1317 0 44.175 13.9898 618 79.9612 729.974 534.039
1318 0 48.2005 13.9003 670 78.6104 729.961 533.91
1319 0 47.1114 14.9008 702 79.6353 730.382 532.796
1320 0 48.2425 12.9139 623 82.3499 730.279 532.658
1321 0 50.2713 13.4271 675 82.52 730.498 530.499
1322 0 51.1581 13.6049 696 82.6825 730.095 529.707
1323 0 54.2523 14.5616 790 80.6266 729.391 530.427
1324 0 54.2756 13.9842 759 81.9908 729.771 531.108
1325 0 55.1497 13.69 755 82.898 729.993 529.483
1326 0 58.1708 14.2167 827 82.688 730.247 525.349
1327 0 59.2863 15.3661 911 80.1196 729.762 525.551
1328 0 61.2467 13.813 846 82.5307 730.323 524.638
1329 0 63.1555 13.9814 883 81.7622 730.2 524.715
1330 0 66.335 15.1654 1006 79.8101 730.47 524.185
1331 0 69.1317 15.0438 1040 79.4769 730.401 523.869
1332 0 71.085 14.1521 1006 81.665 729.916 520.668
1333 0 74.1792 15.2199 1129 79.1408 729.705 522.889
1334 0 76.1622 13.8126 1052 81.0437 730.445 522.315
1335 0 77.2796 14.1305 1092 82.3755 730.675 517.609
1336 0 80.0704 14.6121 1170 80.9231 731.023 516.724
1337 0 84.1921 15.3815 1295 78.7104 730.485 516.578
1338 0 86.302 15.8165 1365 77.7985 730.269 516.393
1339 0 88.1092 14.2437 1255 80.7044 729.888 513.444
1340 1 45.06 13.1602 593 79.7538 729.752 535.251
1341 0 47.2379 13.2944 628 79.4363 730.105 534.382
1342 0 46.2403 14.1868 656 79.6906 730.317 532.482
1343 0 48.1392 13.5025 650 80.4062 729.625 531.726
1344 0 51.0791 14.2916 730 77.763 730.199 532.318
1345 0 50.3011 13.5583 682 80.6672 729.198 530.441
1346 0 50.1227 13.8261 693 81.7316 729.1 530.029
1347 0 53.1872 13.9883 744 80.4288 729.737 528.982
1348 0 54.2371 14.0863 764 80.6793 730.206 528.276
1349 0 56.2527 14.1149 794 79.8312 730.545 528.776
1350 0 59.3957 15.0348 893 78.4826 730.186 527.446
1351 0 58.2533 13.3898 780 81.7513 731.187 528.004
1352 0 60.1596 16.0074 963 77.4112 730.183 527.486
1353 0 63.0485 13.6562 861 79.2021 729.397 526.623
1354 0 63.2344 14.5807 922 79.4718 729.959 524.133
1355 0 64.1069 14.3666 921 80.2595 729.719 523.642
1356 0 67.0825 14.1915 952 80.4937 729.441 520.673
1357 0 69.1491 14.8664 1028 78.9922 730.21 522.194
1358 0 72.1604 14.9389 1078 78.5826 730.562 519.813
1359 0 74.2474 13.3203 989 80.8099 730.373 518.731
1360 0 78.1532 14.881 1163 77.4892 730.72 518.787
1361 0 80.2671 13.1436 1055 80.3147 730.812 517.225
1362 0 82.1428 14.2922 1174 78.701 729.974 514.737
1363 0 84.1134 14.207 1195 78.6351 729.778 512.734
1364 0 86.0601 14.3504 1235 78.3036 730.21 514.767
1365 0 90.1076 14.9266 1345 76.7472 730.563 512.494
1366 1 42.106 14.1785 597 77.8576 730.291 532.791
1367 0 44.0526 13.8925 612 76.7108 730.48 535.913
1368 0 45.0658 14.4012 649 77.2003 729.795 533.348
1369 0 47.1967 14.1111 666 76.6006 730.258 534.544
1370 0 47.0857 14.8878 701 76.8759 730.33 533.465
1371 0 48.0824 14.7247 708 77.5537 730.686 533.154
1372 0 50.2312 14.2143 714 78.3319 730.364 532.482
1373 0 51.132 13.2794 679 79.9588 730.134 531.87
1374 0 50.2359 12.8593 646 82.3947 729.966 529.559
1375 0 53.1586 14.4473 768 78.6849 729.996 530.432
1376 0 55.2624 13.644 754 78.943 729.78 530.664
1377 0 56.2086 14.7842 831 78.1047 730.206 528.774
1378 0 57.1942 14.8442 849 78.5312 729.887 528.87
1379 0 59.0834 15.3512 907 78.1147 730.85 527.959
1380 0 59.4272 14.1854 843 80.0605 729.979 528.813
1381 0 61.2176 13.9992 857 80.4026 730.322 527.494
1382 0 63.1501 14.6318 924 79.5173 730.078 526.396
1383 0 66.0515 14.1708 936 79.7831 729.816 525.244
1384 0 66.0638 14.0773 930 80.0516 729.881 525.028
1385 0 70.1148 15.2464 1069 77.9242 730.475 521.519
1386 0 72.123 14.5585 1050 77.7924 730.403 523.372
1387 0 73.157 14.8311 1085 77.9023 729.835 521.479
1388 0 75.4301 14.3709 1084 78.3773 730.357 519.302
1389 0 78.1758 14.5441 1137 77.5541 731.025 520.338
1390 0 80.1728 14.4812 1161 77.7485 730.983 519.034
1391 0 84.2677 14.9642 1261 75.6019 729.852 518.78
1392 0 86.1727 14.4013 1241 77.4891 729.935 515.783
1393 0 89.1158 16.3383 1456 74.671 730.24 513.565
1394 0 92.0951 15.5274 1430 76.1979 730.336 513.622
1395 0 96.0719 15.4572 1485 76.0566 730.394 512.116
1396 1 46.1361 12.1163 559 80.0304 730.678 534.276
1397 0 47.082 13.8482 652 78.3727 730.247 534.627
1398 0 48.096 14.5334 699 77.907 730.114 534.096
1399 0 48.1288 13.6716 658 78.4939 729.954 536.014
1400 0 53.0831 13.2057 701 79.2967 730.076 535.603
1401 0 53.2093 14.4148 767 78.983 730.712 533.604
1402 0 56.4088 12.2321 690 81.4942 729.952 533.948
1403 0 57.0623 14.7908 844 78.1469 730.22 533.161
1404 0 55.1144 15.2047 838 80.2041 729.741 530.797
1405 0 59.191 13.1439 778 82.4627 729.225 530.145
1406 0 59.1788 13.1804 780 83.2077 729.281 530.156
1407 0 63.1287 14.5576 919 81.0424 729.527 529.532
1408 0 63.1586 12.8882 814 83.9398 729.88 529.912
1409 0 66.0751 14.2565 942 82.672 730.179 526.205
1410 0 67.1767 13.3379 896 84.7879 730.828 525.609
1411 0 71.0758 13.7318 976 83.0574 730.611 525.111
1412 0 72.2474 14.1735 1024 83.8867 730.498 522.698
1413 0 74.2347 14.0635 1044 84.159 730.267 520.79
1414 0 77.1108 14.745 1137 82.5646 730.201 520.067
1415 0 78.2549 14.7722 1156 82.0856 730.842 522.485
1416 0 79.4242 14.6177 1161 82.646 730.141 522.749
1417 0 81.4043 13.6602 1112 84.8273 730.19 519.076
1418 0 84.2268 13.6892 1153 83.9367 729.861 518.946
1419 0 87.2733 14.2082 1240 83.1839 729.569 516.302
1420 0 91.4283 14.0875 1288 82.9006 730.178 514.754
1421 1 45.2632 13.9186 630 82.3286 730.624 538.435
1422 0 46.0775 13.8245 637 83.1962 730.353 537.808
1423 0 46.2819 14.4765 670 83.3821 729.546 535.884
1424 0 50.2525 13.472 677 83.2171 730.58 535.539
1425 0 51.4047 14.4928 745 82.0846 730.844 535.102
1426 0 51.3516 13.3589 686 86.6093 730.819 531.618
1427 0 55.1255 13.5509 747 83.6171 731.064 534.9
1428 0 56.3875 14.7728 833 81.7707 730.448 533.005
1429 0 58.2653 13.9534 813 81.4453 730.257 534.194
1430 0 59.1835 14.4297 854 82.6323 730.562 529.924
1431 0 60.3179 15.3686 927 81.343 729.97 528.447
1432 0 60.474 13.7249 830 83.8036 730.002 530.223
1433 0 63.4101 16.5273 1048 79.9313 730.052 527.687
1434 0 65.3024 15.1449 989 81.7341 730.386 525.824
1435 0 69.3171 13.9792 969 81.5222 730.482 527.016
1436 0 70.2684 13.5623 953 82.4565 730.611 524.531
1437 0 72.3547 14.0143 1014 82.0079 730.019 523.766
1438 0 72.2484 13.0107 940 84.0777 730.827 522.988
1439 0 76.3914 14.3995 1100 81.2 730.632 519.674
1440 0 78.319 14.9389 1170 80.088 730.572 519.62
1441 0 81.0691 13.285 1077 82.831 730.481 518.184
1442 0 86.2367 15.7358 1357 77.4886 730.079 518.94
1443 0 88.1276 16.2038 1428 76.7752 730.44 517.255
1444 0 90.2024 12.9708 1170 81.1923 730.274 517.1
1445 0 91.1827 14.1474 1290 80.4419 730.559 513.065
1446 0 96.4475 14.1217 1362 80.3223 730.688 510.719
1447 0 98.3148 14.1993 1396 80.3173 730.315 507.995
1448 0 100.151 14.4581 1448 79.3156 729.733 510.08
1449 1 49.3239 12.4078 612 82.8905 729.127 530.724
1450 0 52.1678 15.0284 784 79.3826 729.665 529.925
1451 0 54.1871 13.601 737 81.0787 730.559 530.733
1452 0 55.2737 13.0985 724 81.9365 729.88 529.95
1453 0 56.114 15.1299 849 79.0106 730.63 529.4
1454 0 57.2916 14.2255 815 79.8307 730.508 528.923
1455 0 57.1636 14.7996 846 80.5863 730.505 527.914
1456 0 59.2595 13.0612 774 81.4264 730.192 528.999
1457 0 62.4138 13.4586 840 80.8155 730.239 527.742
1458 0 66.4096 14.772 981 78.5117 730.142 526.81
1459 0 66.2083 14.4091 954 80.0419 730.135 527.134
1460 0 68.136 13.0328 888 82.3423 730.14 525.398
1461 0 70.3702 14.6653 1032 80.7403 730.493 521.952
1462 0 71.121 13.8215 983 82.5341 730.777 522.702
1463 0 73.4282 14.1907 1042 82.667 730.754 520.643
1464 0 75.2186 14.3449 1079 82.5663 730.881 519.93
1465 0 77.3469 14.0277 1085 83.2618 730.467 519.198
1466 0 80.2531 13.2082 1060 83.3915 729.48 518.846
1467 0 83.1805 14.8472 1235 81.2219 729.886 515.583
1468 0 85.1913 14.8959 1269 80.8747 730.164 515.173
1469 0 85.1772 13.3956 1141 82.8247 729.895 514.363
1470 0 91.5222 13.494 1235 82.0348 729.659 513.293
1471 0 94.3009 14.4219 1360 80.3015 729.801 510.895
1472 0 95.3746 13.1586 1255 82.1562 730.202 511.276
1473 0 100.316 13.8264 1387 80.1673 729.701 511.045
1474 0 102.691 14.3051 1469 79.8223 730.364 505.368
1475 1 52.2618 13.8342 723 79.4952 730.054 530.741
1476 0 55.2341 12.8001 707 78.7426 729.876 533.249
1477 0 55.2326 14.448 798 78.9875 730.694 528.302
1478 0 58.2898 14.1191 823 78.599 730.736 527.149
1479 0 58.1927 13.2491 771 80.1245 730.907 525.957
1480 0 59.4083 12.5235 744 81.2325 730.364 527.852
1481 0 61.3356 13.6951 840 79.875 729.8 524.231
1482 0 65.3341 13.6835 894 79.1309 730.027 526.042
1483 0 67.3476 13.4674 907 79.2789 730.272 525.166
1484 0 67.2515 13.3231 896 80.683 730.57 524.675
1485 0 70.3622 15.8608 1116 75.5788 730.549 525.563
1486 0 72.3401 15.9248 1152 76.1571 730.949 523.182
1487 0 72.357 14.539 1052 79.6036 731.047 520.669
1488 0 74.5016 14.1071 1051 80.3987 730.066 519.075
1489 0 78.335 13.3146 1043 81.1783 729.998 520.445
1490 0 80.172 14.0573 1127 79.7524 730.16 519.768
1491 0 79.235 13.5168 1071 82.0812 730.568 515.441
1492 0 84.2819 13.4904 1137 80.7792 730.092 517.595
1493 0 85.4752 13.1032 1120 81.6321 730.311 515.062
1494 0 89.2536 13.949 1245 79.947 730.635 513.815
1495 1 43.3409 13.8899 602 79.0349 730.168 533.902
1496 0 42.3351 11.6452 493 83.1298 730.016 534.398
1497 0 45.2091 13.6919 619 78.1406 730.389 536.552
1498 0 47.3542 14.2332 674 78.2181 730.134 534.343
1499 0 50.234 15.9653 802 75.0499 730.504 534.373
1500 0 50.114 13.0502 654 79.448 730.534 535.188
1501 0 50.3869 13.5353 682 79.1217 730.084 534.089
1502 0 51.366 12.9852 667 80.054 729.718 533.43
1503 0 52.3853 13.668 716 78.5712 729.654 531.827
1504 0 54.4213 14.1489 770 77.4987 729.652 530.448
1505 0 58.3219 13.4255 783 76.8544 729.73 532.054
1506 0 58.3219 13.4083 782 152.671 730.742 532.059
1507 0 63.4438 14.0282 890 76.0146 729.878 528.763
1508 0 64.223 13.9203 894 76.3121 729.865 528.673
1509 0 66.2099 14.7712 978 75.9519 729.702 525.679
1510 0 67.4374 14.5023 978 74.9131 729.296 528.11
1511 0 69.1826 14.0787 974 76.5123 729.963 524.737
1512 0 70.2826 14.0291 986 76.9371 729.809 521.796
1513 0 75.1139 14.0054 1052 75.5266 729.355 522.679
1514 0 77.3405 14.7788 1143 74.713 729.353 523.056
1515 0 80.3408 15.4591 1242 73.9251 729.889 520.341
1516 0 82.2967 13.7551 1132 76.3357 730.255 520.509
1517 0 82.3792 14.7246 1213 76.3495 730.028 517.594
1518 0 89.4362 15.1169 1352 75.1095 730.121 517.291
1519 0 92.2591 16.6813 1539 72.4185 730.476 516.669
1520 1 44.1904 12.8535 568 76.6602 729.12 535.118
1521 0 44.223 14.5173 642 75.176 729.659 536.036
1522 0 44.2612 13.2622 587 76.6286 729.278 537.566
1523 0 46.1063 13.4472 620 76.971 729.874 535.548
1524 0 48.2061 15.0396 725 75.1393 730.014 535.859
1525 0 49.3393 13.6402 673 76.6315 729.715 535.037
1526 0 50.4166 13.924 702 76.0869 729.644 534.982
1527 0 50.2293 13.8963 698 77.1633 730.191 535.638
1528 0 51.1424 14.3912 736 78.322 730.206 530.83
1529 0 51.3484 12.6976 652 81.1748 730.181 531.857
1530 0 53.102 12.8244 681 81.4714 729.965 530.711
1531 0 56.1359 13.8949 780 78.1218 729.683 532.136
1532 0 55.4094 11.9655 663 81.7949 729.267 532.092
1533 0 57.3464 14.0724 807 80.2454 729.456 528.569
1534 0 59.4849 14.4743 861 79.3078 729.812 529.192
1535 0 60.2308 14.5606 877 79.4584 729.626 529.934
1536 0 61.1999 13.6438 835 81.5198 729.714 527.236
1537 0 63.3158 14.6567 928 79.8922 729.539 526.372
1538 0 65.2569 14.8796 971 79.0052 729.803 527.997
1539 0 69.4255 14.9801 1040 78.0346 729.205 526.749
1540 0 70.3895 16.4939 1161 76.708 728.803 525.054
1541 0 72.2958 14.911 1078 77.2848 729.037 525.583
1542 0 73.4545 14.948 1098 78.0838 728.948 524.356
1543 0 77.2386 14.9019 1151 77.6386 729.515 523.493
1544 0 77.383 13.207 1022 80.7211 729.354 520.52
1545 0 81.2908 16.5824 1348 74.6929 729.608 518.062
1546 0 84.1235 14.3242 1205 77.5154 730.103 519.655
1547 0 87.5617 15.4291 1351 75.7839 730.056 517.722
1548 0 90.5168 13.5334 1225 77.3943 729.433 517.689
1549 0 90.2471 14.9146 1346 76.5327 730.01 516.27
1550 0 96.1976 15.4578 1487 74.3235 729.818 515.635
1551 0 97.2936 14.0091 1363 77.2194 729.166 513.26
1552 0 97.3655 13.8961 1353 78.7864 729.286 507.9
1553 0 103.656 13.7763 1428 77.9041 729.3 509.064
1554 1 53.3568 14.2812 762 76.878 729.098 531.61
1555 0 55.2563 12.9397 715 78.7846 728.702 531.951
1556 0 59.437 14.2672 848 77.1061 728.658 529.973
1557 0 58.322 13.6484 796 79.0741 729.374 529.216
1558 0 58.3085 14.5262 847 78.5041 729.012 528.728
1559 0 60.3142 12.6836 765 80.9647 728.686 528.473
1560 0 62.2253 12.5833 783 81.6654 729.598 527.727
1561 0 65.4115 15.7159 1028 76.9309 729.674 528.978
1562 0 67.2696 14.5236 977 78.8004 729.102 526.301
1563 0 68.3105 15.3124 1046 78.6358 728.641 525.38
1564 0 69.3314 12.5628 871 83.3065 729.365 524.171
1565 0 72.451 14.4926 1050 79.7695 729.164 524.031
1566 0 73.1732 14.8688 1088 80.7188 728.63 520.315
1567 0 76.2192 13.0807 997 82.4674 728.726 520.398
1568 0 78.2521 13.8782 1086 81.7615 728.962 517.989
1569 0 84.463 15.9123 1344 77.0618 729.172 518.628
1570 0 85.1568 16.0762 1369 77.7801 728.289 514.797
1571 0 88.4459 14.9922 1326 79.0935 728.431 512.078
1572 0 91.1529 14.2727 1301 78.9662 729.095 515.118
1573 0 94.2261 15.4628 1457 76.9245 729.543 513.125
1574 0 97.4418 13.9673 1361 78.313 728.76 512.368
1575 0 98.2962 14.6903 1444 78.4744 729.255 507.251
1576 0 102.435 13.306 1363 79.5216 729.089 510.607
1577 0 107.22 15.0811 1617 76.6933 728.994 509.047
1578 1 54.3131 13.4222 729 77.6447 729.162 531.277
1579 0 51.2882 11.8351 607 81.7924 729.992 530.04
1580 0 57.3567 13.9478 800 77.4475 729.532 529.719
1581 0 57.4433 14.4316 829 78.0893 729.866 528.151
1582 0 58.5306 13.4801 789 79.8276 730.246 528.215
1583 0 61.1789 13.9754 855 79.0795 729.269 527.399
1584 0 62.2839 13.583 846 79.3392 729.506 527.888
1585 0 64.2609 14.2388 915 78.3967 729.746 528.355
1586 0 64.324 12.9812 835 80.0587 730.147 526.08
1587 0 67.241 13.8903 934 78.5182 729.796 524.347
1588 0 71.3185 15.0732 1075 76.4446 729.438 522.991
1589 0 72.3326 13.9909 1012 78.831 728.622 520.73
1590 0 74.2697 13.9088 1033 79.4153 728.763 519.958
1591 0 78.2585 15.4871 1212 75.9587 729.359 519.432
1592 0 81.1294 14.9761 1215 76.5942 729.664 518.459
1593 0 80.0992 13.8578 1110 79.3252 729.825 516.104
1594 0 85.4455 13.5525 1158 78.019 729.692 517.268
1595 0 87.2516 12.7218 1110 79.9432 729.921 514.665
1596 0 92.3519 14.2715 1318 77.2481 729.762 512.5
1597 0 92.2268 14.0957 1300 78.3108 729.019 510.499
1598 1 50.1054 13.0126 652 76.9847 729.942 532.617
1599 0 50.1963 13.1683 661 77.4871 729.377 531.337
1600 0 51.1994 13.4963 691 76.89 729.588 531.919
1601 0 53.2934 12.2529 653 78.8637 729.726 532.6
1602 0 54.282 14.0746 764 76.4974 728.644 531.9
1603 0 57.1589 14.4159 824 75.9951 729.371 530.26
1604 0 58.3539 14.275 833 76.5702 729.429 528.485
1605 0 60.1193 13.4898 811 78.0838 728.684 528.524
1606 0 61.2944 13.6717 838 78.5609 729.887 528.016
1607 0 64.2676 14.4863 931 77.4264 729.615 526.64
1608 0 66.4945 14.9336 993 76.6234 728.761 523.829
1609 0 68.2132 13.8243 943 77.4613 729.49 525.87
1610 0 69.1911 16.4328 1137 74.6746 728.964 521.899
1611 0 71.1184 12.9784 923 79.0748 729.183 522.657
1612 0 74.1979 14.4344 1071 77.3044 728.836 519.926
1613 0 78.3012 15.798 1237 74.3686 729.113 518.714
1614 0 77.2581 13.4743 1041 78.3977 729.128 518.876
1615 0 82.4143 14.9974 1236 75.0817 729.772 516.324
1616 0 84.0858 13.8668 1166 76.7924 728.979 516.654
1617 0 88.1312 13.6955 1207 76.4167 729.047 517.145
1618 0 90.474 14.9546 1353 74.6637 729.534 513.941
1619 0 91.3061 13.745 1255 76.5968 729.806 513.006
1620 0 96.2107 14.7281 1417 74.3698 729.558 510.856
1621 0 99.2214 14.1099 1400 74.5964 729.474 513.178
1622 0 100.323 14.7624 1481 74.2944 729.373 509.96
1623 0 103.206 14.379 1484 74.934 729.198 506.084
1624 0 108.366 13.7497 1490 75.3564 729.236 505.493
1625 1 57.4624 12.704 730 76.0849 729.536 530.656
1626 0 61.3579 14.4236 885 73.9514 729.581 526.885
1627 0 60.345 13.1908 796 75.8807 729.334 525.91
1628 0 63.3877 13.7882 874 74.9233 729.096 526.372
1629 0 67.4684 15.3998 1039 71.4601 729.234 526.779
1630 0 69.2609 14.9435 1035 72.3729 729.047 525.189
1631 0 71.3645 15.1336 1080 72.2667 728.597 522.994
1632 0 74.36 16.1646 1202 69.9368 729.468 523.438
1633 0 75.4078 16.0196 1208 70.5207 729.987 522.842
1634 0 76.4314 14.2088 1086 73.0635 729.606 522.029
1635 0 79.5421 14.9984 1193 71.2255 730.134 522.523
1636 0 79.3828 13.605 1080 74.3333 730.125 519.596
1637 0 83.5258 15.7436 1315 71.2814 729.197 516.611
1638 0 86.5672 15.5024 1342 71.6051 729.242 517.008
1639 0 86.4117 13.9217 1203 74.4106 729.345 516.342
1640 0 92.2988 16.9016 1560 68.7391 729.369 515.808
1641 0 95.4431 14.5008 1384 71.1438 729.99 515.572
1642 0 97.4155 15.1208 1473 71.3075 729.819 512.447
1643 0 99.1275 14.6377 1451 72.2605 729.742 511.14
1644 1 47.1151 12.5225 590 74.761 729.729 532.976
1645 0 49.4103 14.1266 698 71.9756 729.447 533.238
1646 0 52.1591 14.7817 771 71.0597 728.839 531.1
1647 0 54.0623 14.5203 785 70.9287 728.878 531.985
1648 0 56.1845 15.1999 854 68.8981 729.186 531.847
1649 0 55.0376 13.9723 769 72.4603 729.421 529.849
1650 0 56.174 13.5828 763 73.2228 729.969 526.44
1651 0 60.2377 13.6625 823 72.418 729.218 527.552
1652 0 60.4003 12.6655 765 74.0366 729.361 527.929
1653 0 63.2844 15.3276 970 70.6969 728.938 527.658
1654 0 65.3034 15.4663 1010 70.301 728.748 526.953
1655 0 68.1185 15.429 1051 69.4101 729.146 526.223
1656 0 69.2425 13.9943 969 71.709 729.306 525.32
1657 0 72.1853 15.5572 1123 70.1647 729.212 522.282
1658 0 74.2162 15.1719 1126 70.3801 729.174 521.297
1659 0 74.2842 13.3137 989 72.7937 729.338 521.766
1660 0 76.2705 14.6059 1114 71.7639 728.791 518.887
1661 0 80.2989 14.6453 1176 70.6565 728.604 519.614
1662 0 83.1518 13.9023 1156 71.6237 728.93 517.586
1663 0 84.2922 13.3108 1122 72.557 729.578 517.943
1664 0 88.578 14.3489 1271 71.6491 729.268 513.371
1665 0 90.2177 15.0857 1361 70.4394 729.21 514.051
1666 0 93.3518 15.3291 1431 70.5108 728.978 510.721
1667 0 97.2343 15.9409 1550 69.5497 728.888 510.03
1668 0 99.198 14.3753 1426 72.3135 729.168 506.694
1669 0 104.218 13.6732 1425 72.2105 728.91 508.232
1670 0 106.403 14.7082 1565 71.5521 728.598 503.303
1671 1 50.518 11.7384 593 74.9191 728.936 529.128
1672 0 55.126 14.748 813 69.9324 729.105 530.392
1673 0 55.1412 13.9098 767 71.0404 729.296 531.421
1674 0 56.2395 13.0513 734 73.1717 729.04 527.759
1675 0 60.19 14.1053 849 71.8822 729.32 526.822
1676 0 61.192 14.1522 866 71.9423 729.211 528.242
1677 0 63.2528 14.1179 893 72.2856 729.574 526.691
1678 0 65.142 13.9234 907 72.1962 729.053 526.23
1679 0 65.284 13.6634 892 74.1626 728.104 524.182
1680 0 66.2715 12.826 850 75.2094 728.468 523.425
1681 0 71.4827 15.1925 1086 71.2247 728.659 524.919
1682 0 71.5155 16.3461 1169 70.2583 728.662 523.075
1683 0 74.4331 14.859 1106 71.8002 728.895 524.227
1684 0 76.2398 15.4119 1175 71.5055 729.023 523.53
1685 0 79.3304 15.1518 1202 71.7338 729.107 521.356
1686 0 80.3281 15.3246 1231 71.9074 729.596 517.797
1687 0 84.1956 14.5851 1228 72.6368 729.075 516.844
1688 0 86.2386 15.747 1358 70.4462 729.342 517.563
1689 0 88.1538 15.507 1367 70.9217 729.181 513.056
1690 0 92.3525 16.5994 1533 68.7423 728.837 512.325
1691 0 96.1274 16.3741 1574 68.7363 728.935 510.712
1692 0 98.3926 14.5743 1434 70.7692 729.314 509.927
1693 0 103.281 15.3755 1588 68.6839 729.2 509.856
1694 0 104.139 14.5191 1512 70.5866 729.011 506.03
1695 0 109.264 14.3506 1568 69.426 729.346 508.938
1696 1 53.361 13.418 716 68.4902 728.475 532.32
1697 0 56.1801 12.6023 708 70.6045 729.267 531.394
1698 0 59.2281 14.1993 841 69.0654 729.638 529.53
1699 0 60.0304 13.8097 829 69.5657 728.794 529.192
1700 0 59.1693 13.2501 784 72.0625 729.047 525.855
1701 0 63.3141 13.0461 826 71.3838 729.609 527.946
1702 0 66.2754 13.2025 875 71.1474 729.413 526.757
1703 0 65.0963 11.506 749 74.8718 728.876 523.18
1704 0 69.2553 14.6704 1016 70.2667 728.607 525.367
1705 0 67.3127 11.6174 782 75.5384 728.544 520.308
1706 0 71.1667 14.0796 1002 72.514 729.339 523.891
1707 0 75.1054 14.0469 1055 71.6796 729.282 524.888
1708 0 77.2816 15.7088 1214 70.0502 729.071 519.37
1709 0 81.3098 15.1273 1230 69.9439 729.028 520.789
1710 0 82.3158 15.1733 1249 70.5821 728.846 516.752
1711 0 83.1835 14.2937 1189 72.3776 728.093 516.51
1712 0 86.2369 14.982 1292 71.3135 727.94 516.949
1713 0 90.2528 14.0827 1271 72.4587 728.221 514.9
1714 0 93.1512 13.2365 1233 72.7818 728.397 516.515
1715 0 97.2691 14.1874 1380 71.658 728.212 510.873
1716 0 97.3881 13.8518 1349 73.0749 728.619 509.6
1717 1 49.1493 12.9809 638 72.6003 728.671 533.867
1718 0 54.1532 14.0712 762 70.1444 728.976 533.426
1719 0 53.1048 13.0497 693 72.8427 728.205 532.558
1720 0 54.4718 12.4468 678 73.6519 729.239 531.193
1721 0 58.1653 13.3929 779 72.5122 729.246 530.189
1722 0 58.1306 14.2438 828 72.1244 729.714 528.281
1723 0 59.3185 13.4191 796 73.1583 729.251 529.421
1724 0 60.2292 12.8343 773 74.0013 729.587 528.309
1725 0 63.3857 13.9306 883 73.1404 729.253 527.176
1726 0 62.1498 12.0998 752 75.7673 728.807 524.676
1727 0 65.3764 13.8735 907 73.5138 728.818 525.119
1728 0 66.095 13.9042 919 74.8259 729.307 522.643
1729 0 70.3011 14.1961 998 74.023 729.119 523.426
1730 0 72.1424 15.0813 1088 72.4642 729.329 524.407
1731 0 74.2818 13.8661 1030 74.0854 728.954 524.421
1732 0 73.2076 12.5397 918 77.2233 729.54 520.47
1733 0 78.2051 13.5285 1058 74.9924 729.088 521.638
1734 0 81.262 14.804 1203 73.2552 728.966 521.17
1735 0 84.1341 14.465 1217 73.6426 728.801 519.262
1736 0 86.1058 15.33 1320 72.3205 729.167 519.382
1737 0 86.3608 13.4204 1159 75.6721 729.365 516.492
1738 0 93.2207 15.1898 1416 72.6158 729.103 513.987
1739 0 94.1059 13.6123 1281 74.9953 729.153 511.36
1740 0 97.1592 14.9857 1456 72.5948 729.512 513.471
1741 0 100.244 14.345 1438 74.7163 729.25 509.818
1742 0 105.084 14.8548 1561 73.6227 728.927 505.904
1743 0 109.197 13.1414 1435 74.5693 729.318 509.619
1744 1 55.2474 13.0323 720 74.5708 728.921 531.512
1745 0 61.3104 15.0708 924 70.9221 729.821 530.49
1746 0 61.1013 12.7657 780 74.8128 729.433 530.42
1747 0 64.3269 14.3952 926 73.0886 728.765 527.812
1748 0 65.0696 13.3396 868 74.7535 728.561 525.696
1749 0 68.1267 13.8419 943 74.2121 728.467 525.555
1750 0 70.5078 14.5941 1029 72.6084 728.869 526.557
1751 0 71.2712 13.5539 966 75.3996 729.008 522.305
1752 0 74.2448 15.4354 1146 72.1632 729.318 525.272
1753 0 75.1187 14.8166 1113 74.3145 728.996 522.656
1754 0 77.2622 14.3019 1105 75.3158 729.298 521.991
1755 0 79.1561 14.4272 1142 75.1848 729.039 521.715
1756 0 81.1554 14.2689 1158 75.899 729.248 520.058
1757 0 84.2564 16.3667 1379 73.2045 728.912 518.975
1758 0 87.2286 14.8804 1298 75.114 728.927 518.66
1759 0 88.2731 13.6735 1207 77.1367 729.167 517.449
1760 0 92.1571 14.5187 1338 75.7945 729.694 516.074
1761 0 93.2394 13.5565 1264 77.5878 729.976 516.786
1762 0 98.2823 14.9162 1466 75.5252 729.612 510.784
1763 0 99.258 13.6714 1357 77.2771 730.219 512.128
1764 0 104.179 15.3965 1604 74.4869 729.761 511.691
1765 1 53.2519 12.7883 681 77.2467 729.408 533.602
1766 0 55.159 13.5064 745 77.1544 729.346 531.961
1767 0 57.3109 14.0462 805 75.0037 729.417 533.296
1768 0 60.2028 14.2684 859 76.234 729.969 529.172
1769 0 62.1418 13.5979 845 77.1266 730.33 529.488
1770 0 66.0789 16.6468 1100 72.48 730.26 527.455
1771 0 66.1279 16.0598 1062 73.3955 729.601 526.989
1772 0 67.3886 14.3793 969 77.7503 729.215 523.778
1773 0 70.1326 14.0163 983 76.8159 729.416 526.445
1774 0 74.3957 14.7724 1099 75.4104 729.631 525.509
1775 0 75.3567 14.2257 1072 76.6241 729.431 524.236
1776 0 77.3262 14.6005 1129 76.8122 728.769 521.835
1777 0 81.3158 14.5236 1181 76.9069 729.672 520.728
1778 0 80.1903 12.3456 990 80.5556 729.613 520.482
1779 0 87.2039 15.4695 1349 75.4122 728.836 517.33
1780 0 85.2089 13.9892 1192 78.7383 728.822 516.452
1781 0 91.151 13.9988 1276 77.9585 729.254 516.324
1782 0 94.1682 14.6759 1382 76.2822 729.485 516.099
1783 0 98.2429 14.7492 1449 75.6605 729.424 515.916
1784 0 100.423 13.8913 1395 77.3806 729.131 512.908
1785 0 102.19 14.5807 1490 76.3685 729.653 511.622
1786 0 108.266 15.3048 1657 75.3192 729.812 509.828
1787 1 58.1377 12.092 703 78.2304 729.533 531.688
1788 0 57.1183 13.6734 781 77.1293 729.256 528.329
1789 0 61.3117 12.8197 786 76.7977 728.635 529.795
1790 0 63.1728 13.376 845 76.1207 728.898 529.372
1791 0 65.2642 14.7401 962 74.8524 729.152 527.869
1792 0 67.1851 15.5094 1042 74.0902 729.358 526.549
1793 0 67.2764 15.5775 1048 73.895 728.871 525.448
1794 0 68.2378 14.2003 969 76.4603 729.463 525.144
1795 0 71.1847 14.4413 1028 76.4232 728.864 522.916
1796 0 73.3224 14.1157 1035 75.7536 728.408 522.899
1797 0 74.2048 14.0153 1040 76.0058 728.988 522.394
1798 0 78.4616 14.9755 1175 73.8638 728.74 521.016
1799 0 81.2226 15.4021 1251 73.3917 728.187 517.769
1800 0 82.3987 14.7332 1214 74.645 728.488 514.699
1801 0 85.238 14.7117 1254 74.5295 729.333 518.081
1802 0 89.052 15.0699 1342 74.0388 728.932 515.805
1803 0 89.1741 14.2642 1272 75.5086 728.688 515.101
1804 0 94.318 15.7552 1486 72.2221 729.261 513.725
1805 0 96.2884 15.5367 1496 72.7874 728.731 511.061
1806 0 98.2548 14.381 1413 74.5605 729.251 508.994
1807 0 103.582 15.1667 1571 71.8326 728.718 509.798
1808 0 104.398 13.0079 1358 74.7224 729.38 508.108
1809 0 108.311 14.5784 1579 71.7327 729.926 508.194
1810 1 57.3602 14.069 807 70.8972 729.874 529.776
1811 0 56.4216 11.0596 624 75.3301 728.578 527.982
1812 0 58.2644 14.3312 835 70.7497 729.538 528.703
1813 0 60.3656 12.7556 770 73.313 729.052 526.694
1814 0 63.4094 14.8401 941 69.7216 729.318 528.002
1815 0 63.2979 13.1916 835 72.4036 729.377 527.018
1816 0 67.2342 14.9031 1002 69.3323 729.284 526.722
1817 0 67.3518 13.6893 922 72.2657 729.475 524.664
1818 0 67.1467 14.1779 952 71.874 729.494 523.389
1819 0 72.3137 14.7137 1064 70.4991 729.466 522.016
1820 0 72.1093 15.532 1120 69.9375 728.849 523.342
1821 0 75.562 13.6709 1033 71.8587 729.86 522.886
1822 0 77.247 13.6704 1056 71.9186 728.871 520.14
1823 0 77.3904 12.5209 969 73.5212 729.37 519.807
1824 0 81.1691 14.5745 1183 71.1547 728.907 517.694
1825 0 83.3503 13.9412 1162 72.1635 728.13 516.499
1826 0 87.3087 15.4509 1349 69.94 728.194 515.063
1827 0 90.4955 14.9179 1350 70.6207 728.669 513.034
1828 0 91.3064 13.1645 1202 72.8328 728.155 512.731
1829 0 96.2668 14.3352 1380 71.2341 728.572 511.044
1830 0 100.231 15.0652 1510 70.4318 728.823 509.138
1831 0 102.351 14.1768 1451 71.2116 728.799 508.775
1832 0 106.116 14.1637 1503 71.2448 728.744 506.013
1833 1 53.5385 13.2428 709 70.7546 728.432 529.804
1834 0 54.3722 13.1317 714 70.7171 728.378 532.672
1835 0 57.264 13.3941 767 70.06 728.452 531.284
1836 0 58.3363 14.125 824 70.5231 728.652 529.814
1837 0 60.2281 14.5945 879 69.38 728.824 529.893
1838 0 59.2089 13.1399 778 73.4704 728.864 528.03
1839 0 62.2221 13.7089 853 70.5838 728.894 530.548
1840 0 64.3267 14.0999 907 70.8534 728.554 527.39
1841 0 65.4245 14.6428 958 71.0846 727.842 525.563
1842 0 66.4915 14.9042 991 71.4914 728.216 523.29
1843 0 70.2707 14.2734 1003 71.2273 728.557 526.88
1844 0 70.254 14.9315 1049 71.0019 728.799 525.887
1845 0 73.228 14.5982 1069 71.9383 728.796 524.417
1846 0 73.1316 14.1526 1035 73.3072 728.023 522.002
1847 0 77.5669 15.8444 1229 70.9862 728.513 520.631
1848 0 79.2069 15.3522 1216 72.06 728.717 520.171
1849 0 78.4215 13.1214 1029 76.172 728.335 519.393
1850 0 81.1884 13.7828 1119 74.454 728.298 518.573
1851 0 86.153 15.4144 1328 72.1521 728.353 517.76
1852 0 88.1727 14.7324 1299 72.6959 728.371 517.946
1853 0 91.2501 15.4849 1413 72.2774 728.273 515.824
1854 0 96.6581 14.8151 1432 72.551 728.168 513.795
1855 0 97.1067 15.6323 1518 72.2444 728.391 509.628
1856 0 101.272 15.3744 1557 71.553 728.795 508.456
1857 0 104.287 14.1245 1473 73.6864 728.516 506.733
1858 0 108.391 14.2078 1540 72.7747 728.444 508.204
1859 0 111.193 15.1359 1683 71.9958 727.911 503.112
1860 1 56.2296 14.5475 818 70.1271 727.858 530.082
1861 0 57.1605 13.6983 783 71.0217 727.982 529.801
1862 0 59.1465 13.4919 798 71.693 728.029 527.865
1863 0 63.3817 14.3575 910 70.2516 728.321 525.742
1864 0 63.3228 14.1024 893 70.991 728.367 526.896
1865 0 64.2577 14.5041 932 70.7135 728.043 526.691
1866 0 67.233 15.186 1021 69.8756 728.193 524.334
1867 0 69.2569 14.6411 1014 71.0651 727.375 521.052
1868 0 70.682 13.9922 989 71.9141 727.843 520.689
1869 0 73.4733 13.9098 1022 70.7798 728.279 524.171
1870 0 73.1682 13.7081 1003 73.4427 728.31 519.792
1871 0 76.2599 14.4768 1104 70.5842 728.343 523.483
1872 0 79.2754 13.8883 1101 72.2716 728.503 519.652
1873 0 82.206 13.381 1100 73.5691 728.084 517.632
1874 0 82.1332 13.1494 1080 73.8852 728.049 516.211
1875 0 84.0869 14.1163 1187 72.6251 728.284 515.815
1876 0 87.2783 13.4283 1172 73.5913 728.319 512.95
1877 0 90.1834 13.6943 1235 72.8372 727.93 512.554
1878 0 94.2101 13.1727 1241 73.8598 727.988 511.14
1879 0 94.1299 14.0232 1320 73.1424 727.595 510.668
1880 0 102.206 13.2379 1353 73.4324 727.942 507.993
1881 0 102.465 12.8629 1318 74.4074 727.624 506.412
1882 0 106.504 13.2108 1407 73.7974 727.768 504.479
1883 0 111.152 14.6826 1632 71.9773 728.206 503.541
1884 0 112.401 12.9269 1453 74.384 728.073 502.092
1885 0 117.267 13.0301 1528 74.8161 727.791 501.153
1886 1 61.0898 11.6222 710 74.962 728.252 525.503
1887 0 62.5557 12.5488 785 74.3223 727.657 525.687
1888 0 65.1362 13.3413 869 74.0483 727.595 523.289
1889 0 66.4712 12.5769 836 74.4785 727.77 523.232
1890 0 68.1344 11.5654 788 75.5901 728.137 522.854
1891 0 69.3278 12.6212 875 75.0549 728.577 520.048
1892 0 70.1412 12.2752 861 76.626 728.059 519.17
1893 0 73.5194 13.5474 996 74.1496 728.164 521.86
1894 0 77.235 14.5141 1121 74.1311 728.287 520.897
1895 0 79.3103 14.3991 1142 74.6909 728.186 520.744
1896 0 80.2262 14.4093 1156 75.9221 728.304 517.667
1897 0 83.1509 14.4316 1200 75.1333 728.632 517.913
1898 0 85.1404 15.0575 1282 74.8994 728.434 514.355
1899 0 86.1473 14.6493 1262 76.0008 728.564 514.196
1900 0 90.1787 13.7394 1239 76.9257 728.412 513.029
1901 0 92.4073 14.4794 1338 76.1002 728.116 510.987
1902 0 95.2046 13.5813 1293 77.2738 728.127 510.681
1903 0 95.1994 13.456 1281 78.402 728.302 506.66
1904 0 98.2382 13.5792 1334 77.934 728.977 507.734
1905 0 103.226 15.4612 1596 74.3221 728.294 506.979
1906 0 106.421 14.6775 1562 75.4565 728.727 503.574
1907 0 109.335 14.3595 1570 76.2764 728.371 500.241
1908 0 112.277 12.8432 1442 77.8814 728.576 502.248
1909 0 116.093 15.0569 1748 74.774 728.778 496.5
1910 0 120.317 14.387 1731 75.5673 729.543 498.631
1911 1 65.2389 12.4312 811 76.037 729.661 525.419
1912 0 66.0719 12.6529 836 76.7679 729.012 523.104
1913 0 68.3557 12.3618 845 76.6852 728.614 522.543
1914 0 72.1493 13.375 965 75.4725 729.247 522.598
1915 0 73.239 14.0499 1029 75.4422 728.55 519.409
1916 0 72.3859 12.6682 917 77.7601 728.691 519.266
1917 0 78.1052 13.8915 1085 75.7364 729.078 518.529
1918 0 81.0961 14.4766 1174 75.1354 728.504 515.996
1919 0 84.1455 14.8196 1247 74.1804 728.654 516.775
1920 0 85.0725 14.1056 1200 75.7275 729.462 516.149
1921 0 89.1476 14.1563 1262 75.0127 729.374 516.082
1922 0 91.2625 15.2198 1389 74.2311 729.344 513.375
1923 0 93.1152 13.886 1293 76.4107 729.089 511.669
1924 0 97.244 14.8184 1441 74.9639 729.473 511.033
1925 0 99.2111 13.9601 1385 76.2895 728.968 510.588
1926 0 102.095 14.7118 1502 75.1698 729.834 510.28
1927 0 106.326 14.747 1568 74.4075 729.351 509.153
1928 0 108.374 14.3761 1558 75.6277 729.561 506.08
1929 1 59.2764 12.1296 719 76.5132 729.338 528.887
1930 0 64.3656 13.4233 864 74.7812 728.517 528.587
1931 1 17.0489 11.731 200 62.315 729.575 549.98
1932 0 14.0513 7.04562 99 66.495 729.566 550.293
1933 0 16.1054 12.1078 195 61.8359 728.615 549.487
1934 0 17.0164 9.40272 160 63.1188 729.206 550.656
1935 0 17.1264 10.3933 178 62.9663 729.045 550.416
1936 0 17.3917 11.2697 196 60.4796 728.199 550.714
1937 0 17.0779 14.6388 250 59.64 728.388 549.764
1938 0 18.0523 10.5804 191 60.1728 728.031 551.759
1939 0 17.0515 12.9021 220 60.9864 726.927 550.373
1940 0 16.2692 13.8912 226 59.823 727.075 551.31
1941 0 16.0117 13.1779 211 61.5877 726.772 549.976
1942 0 16.253 13.6591 222 60.6126 727.095 551.158
1943 0 17.0326 12.9751 221 61.7828 726.787 551.706
1944 0 16.1056 10.7416 173 62.9711 727.861 551.613
1945 0 17.3452 13.2025 229 61.2795 727.21 552.345
1946 0 16.2706 11.6161 189 63.9471 727.085 550.778
1947 0 16.0471 12.0894 194 62.7474 726.716 550.541
1948 0 16.2682 11.6792 190 61.3263 726.247 551.674
1949 0 16.0382 12.4702 200 62.085 726.05 550.655
1950 0 17.0167 12.811 218 61.8578 725.771 549.362
1951 0 16.0113 13.1158 210 61.5857 726.233 549.319
1952 0 15.0408 10.7042 161 62.087 726.199 549.807
1953 0 16.036 9.04218 145 62.7172 725.979 550.628
1954 0 16.1231 13.583 219 60.0639 725.384 549.89
1955 0 17.3199 9.12246 158 63.2215 725.62 550.601
1956 0 18.051 10.7473 194 61.3299 726.345 550.675
1957 0 16.1579 14.2964 231 59.9784 726.216 550.636
1958 0 17.1219 13.9003 238 59.8529 726.324 549.542
1959 0 17.0271 13.8603 236 58.8136 726.508 550.784
1960 0 16.0184 12.2984 197 62 727.264 549.619
1961 0 16.1361 13.3862 216 60.7917 726.523 548.583
1962 0 16.0162 11.3635 182 60.8407 727.159 549.56
1963 0 16.0074 10.3702 166 62.1747 726.825 549.548
1964 0 17.0478 10.3826 177 62.3446 727.158 549.452
1965 0 17.078 11.9452 204 61.2794 727.397 547.931
1966 0 16.0959 13.0468 210 59.0095 727.381 549.29
1967 0 16.122 9.11798 147 61.5986 728.674 549.361
1968 0 16.1285 10.6024 171 60.8889 728.21 548.462
1969 0 15.0084 10.1943 153 60.5686 727.013 549.105
1970 0 15.0176 9.92167 149 60.5839 728.047 549.772
1971 0 16.0448 11.7795 189 59.4497 727.593 548.878
1972 0 13.0118 4.7649 62 64.0645 728.016 550.339
1973 0 14.0761 12.4324 175 60.0114 728.4 547.12
1974 0 16.0918 10.5644 170 60.0059 728.435 548.465
1975 0 17.1217 13.3164 228 58.3333 728.939 547.728
1976 0 14.1309 11.8181 167 60.0599 728.868 547.868
1977 0 15.0123 11.2574 169 58.8757 727.592 548.13
1978 0 14.0818 13.2085 186 60.2796 727.796 545.806
1979 0 15.0408 14.4274 217 58.2627 728.309 547.009
1980 0 17.2087 11.2153 193 59.7513 729.14 547.15
1981 0 15.0901 11.8621 179 59.3575 728.581 547.173
1982 0 16.0055 9.55921 153 60.8431 729.36 547.784
1983 0 16.1534 9.34788 151 61.4702 729.596 548.252
1984 0 17.0767 13.5858 232 58.9224 728.435 547.03
1985 0 17.0133 13.9303 237 59.0928 728.789 546.591
1986 0 16.0079 9.62027 154 61.1753 728.864 548.071
1987 0 16.2191 11.468 186 60.5269 728.522 547.263
1988 0 17.0356 11.6814 199 61.0754 728.533 546.146
1989 0 16.0118 13.5525 217 60.2304 728.369 544.903
1990 0 16.1553 14.2987 231 58.7403 729.039 546.693
1991 0 17.088 11.6456 199 61.608 729.608 546.08
1992 0 15.0968 9.93587 150 64.4133 729.72 544.9
1993 0 16.0426 10.7215 172 62.686 729.186 546.279
1994 0 16.0386 9.78886 157 63.5669 728.739 546.688
1995 0 16.0145 15.5484 249 59.4217 729.056 546.064
1996 0 16.2112 12.3371 200 61.405 729.8 545.985
1997 0 17.0356 11.4466 195 63.4872 729.708 544.964
1998 0 18.1484 11.6263 211 61.9336 729.308 546.175
1999 0 18.0581 12.7921 231 63.0693 729.476 544.662
2000 0 18.0436 14.6313 264 62.303 728.822 544.492
2001 0 17.0104 10.4642 178 64.882 729.062 546.657
2002 0 18.0101 13.5479 244 61.8975 729.086 545.127
2003 0 17.0114 12.1095 206 62.9563 728.99 546.16
2004 0 17.1019 10.1158 173 63.3526 728.624 546.618
2005 0 17.015 10.6964 182 63.6264 729.203 545.791
2006 0 19.0136 11.5707 220 61.05 729.136 545.841
2007 0 17.0075 12.9355 220 61.9773 728.973 544.777
2008 0 16.0249 10.2965 165 62.9697 728.788 546.442
2009 0 18.0565 13.0147 235 60.1915 728.208 546.511
2010 0 19.0354 13.3961 255 60.5529 728.298 545.118
2011 0 18.141 11.4106 207 62.5411 728.082 544.401
2012 0 17.0152 12.4594 212 63.0802 728.863 544.326
2013 0 17.0088 12.4641 212 62.6321 729.208 544.92
2014 0 17.0709 13.5904 232 60.4267 728.487 544.918
2015 0 17.0434 12.8495 219 61.758 728.448 544.735
2016 0 17.0121 13.461 229 60.2314 728.445 545.07
2017 0 17.1688 9.55223 164 62.1159 728.445 545.945
2018 0 17.0324 12.9166 220 59.9182 728.759 545.445
2019 0 17.0257 14.6249 249 58.2691 728.843 545.751
2020 0 17.0092 11.6996 199 60.7538 729.07 546.015
2021 0 18.0163 12.9883 234 58.6111 728.517 546.786
2022 0 17.1242 15.9424 273 57.6667 727.747 546.297
2023 0 15.0062 11.995 180 60.9833 728.367 546.444
2024 0 17.0148 15.5747 265 58 728.196 546.283
2025 0 13.0172 5.60798 73 65.411 728.493 547.521
2026 0 16.0161 12.7996 205 59.1756 728.829 546.917
2027 0 18.0875 10.5598 191 59.2094 728.743 547.864
2028 0 17.0598 11.6648 199 61.0452 728.302 545.663
2029 0 18.0112 9.38307 169 62.3018 728.154 545.734
2030 0 17.0587 12.838 219 60.9178 727.753 545.84
2031 0 17.0197 12.3974 211 61.7441 728.488 545.758
2032 0 18.0099 10.2166 184 61.4294 728.821 548.359
2033 0 15.0524 6.37773 96 65.4688 728.562 547.635
2034 0 18.0393 12.9717 234 60.2436 728.363 547.355
2035 0 15.0317 8.78147 132 63.0076 728.008 547.258
2036 0 18.3304 12.602 231 60.3377 727.948 546.29
2037 0 15.0022 6.13242 92 63.8913 728.794 549.315
2038 0 16.0034 12.8098 205 60.278 728.185 547.176
2039 0 17.0053 13.1136 223 60.3722 728.269 547.48
2040 0 16.0127 10.4917 168 62.3869 728.5 546.923
2041 0 18.0075 12.7169 229 60.441 728.022 547.725
2042 0 16.0771 9.33003 150 63.5067 727.987 548.387
2043 0 17.0456 12.3199 210 61.619 726.976 546.948
2044 0 17.0763 10.5995 181 63.1381 727.42 547.53
2045 0 18.0825 11.9453 216 63.1157 727.463 547.472
2046 0 18.0436 10.4746 189 63.6508 727.942 547.582
2047 0 16.0069 12.807 205 62.2585 727.015 547.527
2048 0 17.1908 13.3792 230 61.3261 726.983 546.635
2049 0 17.2044 11.218 193 62.4197 727.43 547.788
2050 0 18.0123 11.6032 209 62.3254 727.201 548.871
2051 0 17.0179 9.93071 169 63.716 727.053 549.627
2052 0 16.0173 8.36598 134 65.0373 726.769 547.821
2053 0 19.0375 12.3441 235 61.2808 726.834 548.932
2054 0 17.0122 12.1677 207 61.1546 726.826 549.642
2055 0 17.0093 9.17143 156 64.1667 726.635 549.923
2056 0 19.0621 14.3216 273 60.5238 726.938 548.062
2057 0 16.0066 11.3703 182 63.3022 727.187 548.648
2058 0 18.0982 12.5979 228 62.4079 726.29 547.68
2059 0 17.0091 11.0529 188 63.1649 727.324 549.053
2060 0 19.0464 13.3359 254 62.1811 726.406 548.22
2061 0 16.0072 9.37076 150 65.9733 726.62 549.36
2062 0 19.0177 13.7767 262 62.0229 727.008 550.221
2063 0 18.0304 13.5327 244 62.6188 727.164 548.029
2064 0 18.0206 10.8764 196 63.7959 726.617 550.061
2065 0 19.2997 14.6634 283 61.5088 727.028 548.279
2066 0 17.0117 10.1695 173 64.2428 726.763 549.879
2067 0 18.1178 13.633 247 62.5628 727.251 548.142
2068 0 17.046 12.5543 214 63.8178 725.841 548.402
2069 0 18.0157 12.156 219 63.1507 726.128 548.42
2070 0 19.0457 13.1263 250 61.104 726.68 549.528
2071 0 16.0462 10.6567 171 65.0292 727.392 548.848
2072 0 17.139 10.9691 188 63.4894 726.867 548.867
2073 0 18.2802 11.4331 209 63.2105 726.545 548.766
2074 0 18.2939 12.2445 224 63.6964 726.621 548.509
2075 0 19.0364 12.2397 233 63.3991 726.305 549.034
2076 0 19.0395 15.9143 303 60.7063 726.36 546.865
2077 0 17.1719 14.6169 251 62.1195 725.331 546.068
2078 0 17.101 12.3384 211 63.5118 726.351 547.365
2079 0 18.3565 13.4013 246 61.9594 726.268 546.862
2080 0 18.0482 9.69628 175 63.88 726.554 548.246
2081 0 17.135 15.4654 265 61.8792 726.97 546.672
2082 0 19.3093 12.8954 249 63.1124 727.169 548.478
2083 0 19.0662 12.1157 231 63.3766 725.918 547.883
2084 0 20.6417 13.2741 274 62.635 726.274 547.715
2085 0 18.359 14.6522 269 62.7993 726.108 546.242
2086 0 18.1309 9.43142 171 65.1754 726.339 549.281
2087 0 17.0507 9.85297 168 66.4048 726.393 548.077
2088 0 19.2451 13.1462 253 62.3162 726.905 547.478
2089 0 19.1174 12.8155 245 63.3429 726.71 547.196
2090 0 19.1578 10.6484 204 64.3824 727.172 547.284
2091 0 17.0337 7.57323 129 67.2248 725.977 547.992
2092 0 18.2282 11.5206 210 63.6095 726.324 548.695
2093 0 19.1572 12.5802 241 62.0664 726.639 548.203
2094 0 20.1454 11.417 230 62.0087 726.052 548.922
2095 0 19.1582 10.1784 195 64.3692 726.841 548.328
2096 0 18.0288 13.1457 237 63.1477 726.152 547.937
2097 0 19.0824 11.4241 218 63.2844 726.353 548.353
2098 0 20.0717 12.7543 256 62.4648 725.375 546.949
2099 0 19.0416 10.7659 205 64.2683 726.18 546.863
2100 0 16.1815 9.57887 155 65.8452 726.871 548.955
2101 0 18.0854 14.8186 268 62.3396 727.246 546.414
2102 0 17.0566 14.5398 248 61.4556 727.186 546.488
2103 0 18.126 8.99262 163 64.9448 726.663 548.117
2104 0 18.0425 10.6415 192 63.8073 726.333 548.38
2105 0 19.0978 13.0382 249 61.6747 726.313 546.791
2106 0 18.0491 13.4633 243 61.3416 726.79 546.794
2107 0 19.0292 11.6137 221 62.7964 726.634 547.149
2108 0 19.1472 10.7587 206 62.2816 726.985 548.015
2109 0 19.0817 13.5208 258 60.593 726.969 547.705
2110 0 18.0426 8.53536 154 64.5779 726.02 547.994
2111 0 18.02 10.2664 185 63.2054 725.611 547.892
2112 0 19.039 10.925 208 62.0673 726.351 547.606
2113 0 16.0669 7.71774 124 65.629 726.089 548.71
2114 0 19.1533 10.5987 203 63.4828 726.34 546.153
2115 0 19.0102 11.2045 213 62.4976 726.84 548.258
2116 0 19.1948 15.0561 289 61.1384 726.958 546.588
2117 0 20.1912 11.9359 241 62.1909 725.917 548.216
2118 0 19.0317 11.2444 214 63.1916 725.888 548.509
2119 0 19.0368 11.2939 215 62.8465 726.223 548.535
2120 0 18.0111 9.93834 179 64.6927 727.078 549.441
2121 0 20.0887 13.6395 274 61.4818 725.967 548.099
2122 0 20.1338 11.5726 233 61.764 726.464 549
2123 0 19.0405 13.1824 251 61.3944 726.426 547.402
2124 0 18.0136 10.3811 187 62.9358 725.722 548.556
2125 0 19.0051 13.1017 249 61.7671 726.249 549.735
2126 0 19.0065 13.2586 252 61.4325 726.5 549.21
2127 0 17.0074 16.1106 274 60.5219 726.588 547.69
2128 0 18.0164 10.4904 189 64.0476 726.201 547.767
2129 0 17.0604 10.6094 181 65.0718 726.387 548.022
2130 0 19.0604 12.2768 234 63.4316 726.462 547.068
2131 0 19.0084 14.6777 279 61.8746 726.204 548.233
2132 0 19.038 10.3477 197 64.3046 726.34 549.888
2133 0 17.0102 9.58249 163 67.0859 726.472 550.178
2134 0 17.0142 11.6374 198 65.601 726.03 549.985
2135 0 19.0101 13.3613 254 63.9764 726.846 548.76
2136 0 19.0127 14.1484 269 62.7361 726.457 549.338
2137 0 19.0795 11.059 211 65.3697 726.441 549.81
2138 0 20.0232 13.6342 273 63.1209 726.546 548.297
2139 0 19.0153 13.0421 248 65.25 726.952 548.016
2140 0 18.0215 13.8723 250 64.136 726.952 547.248
2141 0 18.0123 13.9349 251 63.4064 726.777 548.558
2142 0 16.0261 11.7932 189 67.4921 727.556 547.889
2143 0 18.18 13.0363 237 64.7384 726.215 547.586
2144 0 21.1767 14.0248 297 61.5185 727.111 548.128
2145 0 20.0154 9.99232 200 57.645 726.675 550.45
2146 0 19.0122 10.5196 200 63.06 726.48 549.695
2147 0 17.0203 10.6931 182 63.6648 726.126 548.604
2148 0 18.061 11.3504 205 62.0976 726.049 549.424
2149 0 19.0087 12.8362 244 61.7008 726.783 549.156
2150 0 20.0214 11.5377 231 61.1558 726.212 549.892
2151 0 18.0085 13.9379 251 60.259 726.283 549.47
2152 0 20.0584 12.7129 255 60.3686 726.494 549.31
2153 0 19.0879 13.9355 266 60.9248 726.688 547.571
2154 0 17.0377 14.3799 245 62.102 725.661 547.726
2155 0 18.0427 14.4103 260 60.1769 725.908 549.035
2156 0 20.1733 14.6233 295 60.0712 725.17 548.122
2157 0 19.0217 11.1451 212 62.1604 724.981 548.75
2158 0 20.0831 14.6889 295 58.3627 725.915 549.678
2159 0 20.0089 13.8439 277 60.1047 726.087 548.895
2160 0 20.01 13.1434 263 60.076 725.703 547.624
2161 0 18.0443 9.19957 166 64.0301 725.343 549.434
2162 0 21.0602 11.7283 247 60.6842 725.194 549.012
2163 0 20.1832 12.337 249 60.6426 725.635 548.602
2164 0 19.0763 13.5771 259 60.1853 726.019 547.915
2165 0 19.0201 11.3564 216 60.912 726.065 548.148
2166 0 20.0233 10.8873 218 60.7706 726.372 549.528
2167 0 19.1861 11.6751 224 60.3839 726.884 548.504
2168 0 19.0085 13.9411 265 57.7057 726.679 549.517
2169 0 19.1238 11.138 213 59.8169 726.15 548.798
2170 0 18.0368 10.9776 198 59.1667 726.515 549.859
2171 0 18.0353 11.3112 204 58.4902 726.255 548.838
2172 0 18.032 15.1398 273 56.2234 726.348 548.168
2173 0 15.1801 9.35435 142 59.4437 726.683 549.218
2174 0 17.0327 12.2705 209 57.0574 725.818 547.962
2175 0 17.0149 9.87368 168 57.3393 726.405 549.179
2176 0 16.0019 8.12401 130 57.9615 726.854 549.777
2177 0 17.2608 12.7456 220 56.9227 726.027 548.605
2178 0 15.0043 12.1965 183 56.612 726.503 549.612
2179 0 16.0289 11.916 191 57.8115 727.026 547.681
2180 0 17.1461 12.131 208 56.7356 726.788 549.327
2181 0 15.0398 9.90707 149 57.4228 726.732 548.55
2182 0 17.0172 11.0476 188 57.9574 727.314 547.197
2183 0 17.023 12.5125 213 56.1408 726.779 548.77
2184 0 16.0365 9.10426 146 58.6712 726.877 547.952
2185 0 16.0955 10.127 163 57.5276 726.319 549.675
2186 0 17.0952 8.59891 147 58.7279 727.007 549.68
2187 0 17.0387 14.6138 249 55.4618 726.06 548.859
2188 0 18.0497 9.69546 175 57.6914 726.594 549.509
2189 0 15.0208 10.5187 158 58.9304 726.886 548.608
2190 0 15.0167 7.59156 114 59.9912 727.412 549.921
2191 0 16.0227 10.61 170 58.3353 727.088 549.241
2192 0 16.0113 10.4926 168 59.7381 726.744 547.482
2193 0 16.1627 12.4979 202 58.4653 726.228 547.515
2194 0 15.13 9.9141 150 58.24 726.513 550.32
2195 0 16.0889 8.39089 135 59.4 726.711 550.141
2196 0 17.0311 13.2111 225 56.5867 726.4 548.413
2197 0 14.0578 9.88778 139 60.0719 726.18 549.46
2198 0 16.2576 11.0717 180 57.8167 726.439 548.372
2199 0 18.065 10.8497 196 56.4898 727.265 550.668
2200 0 16.066 13.7558 221 57.6561 726.33 548.792
2201 0 18.0401 10.7538 194 58.9124 726.531 549.469
2202 0 16.1159 13.527 218 58.7156 726.353 547.321
2203 0 18.1187 9.7137 176 59.4602 726.489 549.205
2204 0 15.0355 11.9051 179 59.771 726.503 547.268
2205 0 17.0107 8.2889 141 51.4894 725.624 550.014
2206 0 18.0507 9.19634 166 58.247 726.632 549.434
2207 0 16.014 11.6148 186 58.5323 726.586 548.753
2208 0 17.3043 10.98 190 58.7737 726.916 548.51
2209 0 16.0134 9.92921 159 59.6101 726.767 548.912
2210 0 17.0293 11.5683 197 55.8071 726.442 550.223
2211 0 18.068 13.4492 243 56.4815 726.683 548.827
2212 0 17.2698 8.91728 154 59.1039 725.877 549.812
2213 0 16.1059 10.5552 170 59.0176 725.912 550.159
2214 0 18.0734 12.8919 233 58.0515 726.631 547.33
2215 0 18.0468 10.8607 196 57.801 725.959 549.49
2216 0 17.0134 14.224 242 56.2727 726.256 548.322
2217 0 16.1829 11.3082 183 58.5464 726.071 549.312
2218 0 17.0235 12.5709 214 56.7617 726.122 550.005
2219 0 15.0054 11.9957 180 58.4444 726.672 547.822
2220 0 15.2293 8.01085 122 59.5328 726.221 549.23
2221 0 15.0232 10.0511 151 58.3046 725.881 550.815
2222 0 15.0156 9.65664 145 60.0828 726.262 549.297
2223 0 16.0726 11.8214 190 57.9263 726.168 549.053
2224 0 17.0163 11.3421 193 57.9793 726.539 549.658
2225 0 16.0349 12.2857 197 58.3503 727.751 549.69
2226 0 17.0348 9.50992 162 59.4506 726.117 550.5
2227 0 17.038 10.3885 177 59.3785 726.898 549.158
2228 0 15.0873 11.0026 166 60.6084 726.699 548.669
2229 0 16.0171 10.8634 174 60.1897 726.988 548.851
2230 0 16.1067 9.2508 149 60.1007 727.537 550.255
2231 0 16.1826 12.1736 197 59.5939 727.401 549.878
2232 0 14.0319 11.8302 166 61.2349 726.771 547.886
2233 0 15.0263 9.51666 143 61.4825 727.21 550.531
2234 0 17.295 16.074 278 56.7194 726.601 548.946
2235 0 16.1958 9.75562 158 61.7468 727.399 550.69
2236 0 16.0518 11.3383 182 60.456 727.055 550.082
2237 0 17.215 14.1737 244 57.7008 727.123 548.836
2238 0 15.0598 11.5539 174 60.7988 727.787 548.764
2239 0 16.0481 11.7771 189 59.7778 727.365 548.37
2240 0 15.0139 7.92601 119 62.1345 728.05 550.748
2241 0 15.0186 9.45496 142 61.4225 727.979 549.584
2242 0 16.0251 8.23706 132 62.1212 728.485 550.576
2243 0 15.0419 8.6425 130 62.2308 727.654 550.562
2244 0 17.024 8.69363 148 61.4122 727.209 549.946
2245 0 15.0595 7.63638 115 62.2956 727.93 549.965
2246 0 16.0645 13.5703 218 58.7156 727.706 549.11
2247 0 15.1348 12.8182 194 58.4072 727.902 550.361
2248 0 14.0071 8.49571 119 61.3613 727.319 551.504
2249 0 16.1736 13.9116 225 57.1333 727.027 550.978
2250 0 14.0719 9.52255 134 61.2836 727.828 551.276
2251 0 16.1047 14.3436 231 58.2987 727.801 550.078
2252 0 15.0143 9.99049 150 60.9467 727.827 550.487
2253 0 17.0242 8.75226 149 60.6644 728.054 549.705
2254 0 19.017 8.99196 171 59.8538 727.626 550.825
2255 0 14.0067 10.2094 143 61.5524 728.049 548.755
2256 0 16.0412 9.6626 155 60.4064 727.923 549.981
2257 0 16.0721 9.76846 157 60.4204 728.783 550.026
2258 0 15.3622 13.2794 204 59.0294 727.951 550.701
2259 0 17.0162 13.9279 237 58.6709 727.173 550.321
2260 0 16.1136 10.426 168 60.1667 727.625 551.994
2261 0 14.0618 11.7339 165 60.5212 727.194 551.818
2262 0 15.0285 11.9107 179 60.2682 727.883 549.983
2263 0 16.0894 12.1198 195 58.5231 727.744 550.795
2264 0 16.006 14.1822 227 57.4449 726.965 550.819
2265 0 14.081 6.53361 92 62.0761 728.033 551.359
2266 0 16.109 9.80818 158 60.7532 728.089 550.348
2267 0 14.0608 10.8813 153 60.2222 727.758 550.379
2268 0 14.0326 7.055 99 62.0404 728.879 550.455
2269 0 15.0099 9.86018 148 59.4662 728.054 550.757
2270 0 15.0536 10.1637 153 59.9216 727.889 550.098
2271 0 16.0205 13.233 212 57.8679 727.561 550.241
2272 0 16.0862 9.88423 159 60.3396 728.289 550.761
2273 0 16.004 5.43615 87 61.7816 727.931 551.034
2274 0 15.0376 8.11299 122 58.7295 727.902 551.803
2275 0 15.0267 6.58827 99 60.9899 728.03 551.121
2276 0 14.008 7.6385 107 59.2897 727.804 552.047
2277 0 13.0055 12.3794 161 58.7888 727.807 548.938
2278 0 14.0178 10.13 142 58.6972 727.711 550.282
2279 0 15.004 9.93067 149 58.5369 728.584 549.564
2280 0 15.0246 8.05344 121 60.4298 728.901 550.298
2281 0 15.0245 10.7159 161 59.4969 727.565 548.919
2282 0 14.0034 9.92616 139 58.8489 727.568 549.604
2283 0 15.0118 13.123 197 58.3249 727.497 548.355
2284 0 16.0064 11.3079 181 58.7624 727.68 548.547
2285 0 14.009 11.564 162 59.1728 728.154 547.889
2286 0 14.0226 6.70349 94 60.7447 727.819 550.745
2287 0 13.0128 8.069 105 61.0476 728.305 550.057
2288 0 14.1432 6.22206 88 62.7273 729.705 548.386
2289 0 15.0084 11.9933 180 58.7444 728.772 548.067
2290 0 11.0028 9.72484 107 59.8785 728.122 549.523
2291 0 12.0049 9.16294 110 60.6818 728.436 548.918
2292 0 15.1278 11.5681 175 60.4229 728.08 547.749
2293 1 70.2196 14.298 1004 78.6494 727.836 525.206
2294 0 71.0886 12.3367 877 81.6956 728.111 523.61
2295 0 71.0569 12.8629 914 82.7987 728.044 519.872
2296 0 75.1439 13.0283 979 81.2022 727.305 520.133
2297 0 77.2308 13.2719 1025 80.5561 727.771 520.336
2298 0 79.2554 13.6899 1085 80.0986 728.188 518.573
2299 0 82.1064 13.994 1149 79.0783 727.762 518.273
2300 0 85.1113 14.5339 1237 76.1665 727.738 518.884
2301 0 86.4115 14.3384 1239 77.6489 728.025 514.103
2302 1 16.0442 13.8991 223 55.3991 728.054 548.525
2303 0 15.0722 11.5444 174 57.1494 728.552 547.58
2304 0 14.072 10.8726 153 56.8039 728.516 548.765
2305 0 16.0162 9.17819 147 56.6599 728.605 548.776
2306 0 15.0277 14.0407 211 55.7251 728.1 547.943
2307 0 16.149 8.66929 140 57.9643 728.471 547.721
2308 0 15.0127 10.3246 155 56.3419 729.226 547.419
2309 0 15.054 8.43631 127 58.0158 727.945 547.457
2310 0 16.0077 8.68334 139 56.8993 727.633 548.317
2311 0 16.013 7.61879 122 57.4098 727.361 549.582
2312 0 15.0067 10.462 157 57.242 727.414 548.217
2313 0 15.032 12.6397 190 55.3158 728.279 548.1
2314 0 16.1084 9.5602 154 56.3182 728.11 549.136
2315 0 15.0186 11.2527 169 55.9763 728.225 549.284
2316 0 13.0047 8.99674 117 57.4872 727.82 549.017
2317 0 15.2436 8.65936 132 57.8712 727.523 548.318
2318 0 16.0205 11.9847 192 55.2344 727.266 548.443
2319 0 15.0473 13.1585 198 55.2323 728.076 547.111
2320 0 14.0141 13.1296 184 55.7663 727.995 547.668
2321 0 15.0162 10.5886 159 54.9937 728.113 548.723
2322 0 15.0132 14.9869 225 54.6178 728.138 547.191
2323 0 13.0948 9.85127 129 57.1395 728.085 547.186
2324 0 14.0108 8.63617 121 56.405 728.752 548.438
2325 0 15.0336 11.1084 167 55.0659 728.431 547.168
2326 0 13.0069 5.45864 71 58.1127 728.507 547.507
2327 0 14.0566 9.74628 137 56.6642 727.657 547.409
2328 0 16.0218 12.8575 206 54.6893 728 547.568
2329 0 14.0055 10.6387 149 54.8725 728.685 548.611
2330 0 13.0082 5.1506 67 57.0746 727.552 549.433
2331 0 13.0373 10.2782 134 55.6045 728.037 547.298
2332 0 14.138 11.4585 162 55.3272 727.648 546.29
2333 0 14.0037 5.56996 78 57.5256 727.846 548.256
2334 1 117.412 13.3887 1572 75.4962 728.321 498.878
2335 0 122.17 13.9068 1699 74.7552 728.314 495.107
2336 0 128.138 15.5613 1994 71.3235 727.991 495.795
2337 1 68.2787 13.2838 907 72.0937 728.336 525.538
2338 0 71.2727 13.6939 976 72.1117 727.959 522.518
2339 0 69.1671 11.6963 809 76.4957 728.007 517.038
2340 0 74.1738 12.4168 921 73.9294 727.95 518.821
2341 0 73.0926 12.149 888 75.991 727.743 514.797
2342 0 79.4196 13.435 1067 72.4874 728.015 518.997
2343 0 81.1146 15.3117 1242 69.591 728.06 518.361
2344 0 83.1334 13.8573 1152 72.2734 728.918 514.983
2345 0 83.1928 13.6791 1138 73.036 727.957 514.067
2346 0 86.229 14.3339 1236 72.123 727.57 510.977
2347 0 89.1979 13.1842 1176 73.0595 727.802 513.219
2348 0 91.1593 12.9334 1179 73.1858 727.238 512.431
2349 0 95.2091 13.5281 1288 72.6731 727.902 509.366
2350 0 96.1711 13.1432 1264 65.6258 728.42 510.582
2351 0 99.1938 13.7609 1365 64.6542 727.525 505.306
2352 0 101.104 13.1251 1327 65.6436 727.084 503.043
2353 0 104.136 15.2397 1587 62.6654 727.464 505.243
2354 0 106.175 13.1293 1394 64.8673 727.877 505.924
2355 0 109.483 12.8148 1403 65.7812 727.892 497.329
2356 0 112.295 12.4761 1401 66.1863 727.941 495.989
2357 0 117.465 13.3656 1570 65.0338 728.292 496.651
2358 0 120.217 14.7649 1775 62.9572 728.316 498.41
2359 0 123.449 14.0382 1733 64.4778 728.061 489.989
2360 0 124.353 11.781 1465 67.8096 727.455 484.93
2361 0 131.245 14.7739 1939 63.4703 727.873 489.681
2362 0 136.262 15.2427 2077 62.5835 727.203 490.522
2363 0 142.427 13.2559 1888 65.3024 727.626 481.56
2364 0 146.231 14.4976 2120 63.041 727.654 487.384
2365 0 149.22 14.0799 2101 64.1266 727.624 484.369
2366 0 156.296 13.6408 2132 64.7397 727.585 480.753
2367 0 159.284 13.3912 2133 65.1603 727.12 480.499
2368 0 166.403 13.8639 2307 64.6697 726.656 475.419
2369 0 171.336 14.9764 2566 63.4774 727.33 474.056
2370 1 84.4899 13.3507 1128 61.7739 726.934 517.519
2371 0 86.1535 11.6072 1000 65.034 727.751 512.816
2372 0 90.0986 11.5207 1038 65.6879 728.309 508.027
2373 0 93.2465 14.0059 1306 62.8492 727.316 509.074
2374 0 93.1746 10.7111 998 66.6022 727.897 508.514
2375 0 97.1947 12.439 1209 64.6625 727.158 509.218
2376 0 101.153 13.8799 1404 63.4302 727.363 507.436
2377 0 103.194 15.6986 1620 61.3062 726.96 505.686
2378 0 105.277 12.8043 1348 64.2782 727.806 507.183
2379 0 108.18 13.4406 1454 64.3501 727.197 501.855
2380 0 111.392 13.2146 1472 64.0679 727.469 503.175
2381 0 114.215 12.6953 1450 65.4297 727.323 496.479
2382 0 116.204 12.2973 1429 65.9846 727.558 499.402
2383 0 121.11 14.2597 1727 63.7296 727.387 499.387
2384 1 58.2136 11.3032 658 63.7371 728.217 527.43
2385 0 57.13 13.548 774 62.0982 727.87 527.404
2386 0 59.2246 14.6223 866 61.366 727.906 526.567
2387 0 61.3703 12.335 757 63.6869 728.349 526.765
2388 0 62.3352 12.3846 772 63.6788 728.677 525.104
2389 0 65.1035 13.3326 868 62.485 727.787 524.707
2390 0 67.2827 13.0494 878 63.2631 728.813 522.375
2391 0 68.3906 12.0631 825 64.263 728.982 520.975
2392 0 70.1655 13.0691 917 63.7361 728.507 518.462
2393 0 71.0897 11.3096 804 65.8507 729.464 518.226
2394 0 74.1065 11.9827 888 65.6194 729.965 514.82
2395 0 77.2399 12.7913 988 63.1164 729.946 516.604
2396 0 79.2417 13.7554 1090 62.4532 729.302 513.515
2397 0 81.5219 10.2672 837 66.6499 729.325 511.08
2398 0 82.0671 10.1868 836 66.4079 729.141 508.297
2399 0 85.2619 11.6817 996 65.1386 729.505 507.117
2400 0 89.1114 13.0399 1162 63.259 729.173 507.596
2401 0 87.3464 10.1893 890 66.9393 729.439 503.437
2402 0 95.2852 13.0765 1246 62.7713 729.766 504.566
2403 0 93.2211 11.0275 1028 65.749 729.591 496.932
2404 0 101.249 13.6988 1387 62.2725 729.53 502.902
2405 0 104.255 12.0953 1261 63.0381 728.686 503.494
2406 0 107.245 11.7022 1255 64.1323 728.96 497.792
2407 0 111.189 14.1112 1569 61.3403 729.227 499.11
2408 0 116.198 14.9572 1738 59.6835 728.915 500.803
2409 0 116.201 12.289 1428 63.0973 728.707 490.043
2410 0 122.171 12.7935 1563 62.0921 728.865 495.823
2411 0 124.09 12.7891 1587 62.1052 729.144 494.836
2412 0 129.128 13.1266 1695 62.1746 729.646 490.07
2413 0 135.292 13.5706 1836 60.8404 728.946 493.061
2414 1 75.2861 12.2333 921 59.0098 728.913 520.9
2415 0 77.2775 10.7923 834 64.0731 729.803 510.3
2416 0 79.1382 12.2949 973 61.8705 729.633 512.433
2417 0 83.1752 13.3213 1108 59.8727 729.72 513.95
2418 0 85.1391 13.707 1167 59.4464 729.76 514.085
2419 0 85.2208 12.2153 1041 61.8559 729.361 510.946
2420 0 88.1561 14.5537 1283 59.3967 729.704 510.788
2421 0 94.1658 14.4638 1362 58.4104 730.037 511.631
2422 0 95.1515 12.9057 1228 60.7386 729.848 508.721
2423 0 99.1098 13.2479 1313 60.5263 729.264 502.464
2424 0 100.175 11.7295 1175 62.5677 728.929 498.305
2425 0 104.201 11.1996 1167 62.5347 728.544 500.256
2426 0 107.147 14.2048 1522 59.115 729.725 501.491
2427 0 111.288 13.2988 1480 60.1311 729.576 498.966
2428 0 112.407 12.1433 1365 61.5238 729.444 492.458
2429 0 114.296 11.9426 1365 61.4051 729.244 495.037
2430 0 110.166 12.4903 1376 61.6134 729.09 488.102
2431 1 205.292 5.98172 1228 65.1694 728.433 483.265
2432 0 205.285 7.3459 1508 65.2023 728.83 470.13
2433 1 70.1081 11.0829 777 60.4324 728.732 516.06
2434 0 60.0887 13.0973 787 60.9924 728.595 513.546
2435 1 75.163 7.96935 599 64.798 728.045 510.499
2436 0 78.1846 10.0915 789 62.4816 728.31 512.063
2437 0 76.4066 10.5488 806 62.5112 728.839 508.55
2438 0 82.1562 10.7478 883 61.5583 729.028 506.412
2439 0 85.0562 11.5688 984 60.7541 728.991 512.333
2440 0 80.4719 13.1847 1061 60.5646 728.626 504.606
2441 0 81.0909 12.9731 1052 60.7871 728.62 507.131
2442 0 92.2539 11.9345 1101 61.1698 728.702 505.919
2443 0 82.1481 14.1939 1166 60.3302 728.427 501.607
2444 1 98.2551 13.2818 1305 59.6138 728.789 505.461
2445 0 101.303 15.2907 1549 57.0516 728.573 506.74
2446 0 102.226 13.9201 1423 59.5545 729.672 500.408
2447 0 106.217 14.8375 1576 58.2424 729.02 500.913
2448 0 101.23 10.8466 1098 63.5073 729.124 494.848
2449 0 112.373 12.8856 1448 60.529 729.221 498.425
2450 0 116.222 13.655 1587 58.8614 728.503 501.684
2451 0 116.177 11.1296 1293 62.4029 729.07 493.252
2452 0 125.339 12.8292 1608 59.8906 728.41 489.328
2453 0 126.127 13.5657 1711 59.6458 728.811 489.317
2454 0 133.3 14.3585 1914 58.0408 729.151 493.646
2455 0 137.513 13.7951 1897 59.0269 728.354 487.597
2456 0 138.373 13.0083 1800 60.2039 728.633 479.767
2457 1 75.1564 13.6116 1023 57.9228 728.836 515.863
2458 0 76.1151 12.5468 955 59.178 728.909 514.544
2459 0 78.2834 12.608 987 59.003 728.363 515.694
2460 0 81.1836 13.3155 1081 59.1758 728.136 510.147
2461 0 81.0982 14.0324 1138 58.623 728.741 514.451
2462 0 83.2458 12.8175 1067 60.1425 728.742 510.868
2463 0 87.2617 13.7403 1199 59.3086 729.165 509.356
2464 0 86.2192 11.5635 997 62.656 729.101 505.878
2465 0 92.1253 11.4084 1051 62.7688 729.339 502.405
2466 0 98.3004 12.8585 1264 60.3109 729.112 503.66
2467 0 99.4342 13.2751 1320 59.778 728.619 500.139
2468 0 104.262 14.9144 1555 58.0232 728.585 502.74
2469 0 105.16 11.5158 1211 62.1263 728.75 498.339
2470 0 111.666 14.7135 1643 58.073 728.912 498.822
2471 0 113.277 10.5317 1193 62.3168 728.846 498.861
2472 0 119.208 14.395 1716 57.88 728.795 502.024
2473 0 124.268 14.8068 1840 58.0277 728.703 495.272
2474 0 129.31 14.9641 1935 57.8646 728.971 493.966
2475 0 133.366 12.1096 1615 60.2502 728.927 491.942
2476 0 136.249 13.8936 1893 58.7734 728.79 487.927
2477 1 73.2176 11.5683 847 60.0685 728.158 519.102
2478 0 73.2182 10.7487 787 62.3888 728.562 515.191
2479 0 75.2367 11.5236 867 61.5744 728.135 517.11
2480 0 79.1965 12.5006 990 60.4717 728.778 516.524
2481 0 81.2744 13.7559 1118 58.4973 729.064 517.148
2482 0 86.4257 14.1393 1222 58.1326 729.062 516.232
2483 0 86.1293 14.2692 1229 58.6143 729.459 512.911
2484 0 88.4233 13.0282 1152 59.7812 729.098 513.37
2485 0 91.3029 13.6688 1248 59.5817 728.619 511.171
2486 0 92.1574 11.2633 1038 62.7553 728.64 504.121
2487 0 98.4349 15.0048 1477 57.3913 728.428 509.217
2488 0 98.2094 12.7788 1255 60.8932 729.196 503.343
2489 0 103.242 13.386 1382 59.5094 728.78 506.977
2490 0 107.125 14.5438 1558 58.0988 729.147 503.537
2491 0 109.494 11.5988 1270 60.9488 728.783 501.017
2492 0 110.14 14.2909 1574 58.2586 728.868 501.032
2493 0 115.357 12.535 1446 60.1148 728.845 498.215
2494 0 117.259 13.645 1600 59.1338 728.88 489.726
2495 0 124.099 14.5126 1801 57.7996 728.617 493.378
2496 0 126.411 14.1127 1784 57.69 728.468 494.362
2497 0 130.199 12.5961 1640 59.6963 728.42 483.62
2498 0 135.175 13.1163 1773 58.8094 728.812 483.204
2499 0 139.142 13.9354 1939 57.6844 728.961 484.331
2500 0 141.305 13.439 1899 58.5598 728.568 480.665
2501 0 147.18 12.4474 1832 59.1075 729.522 478.505
2502 0 153.343 13.0035 1994 59.1063 729.04 472.068
2503 0 156.625 14.0335 2198 57.6952 728.56 479.903
2504 0 161.351 12.5937 2032 59.779 728.524 467.85
2505 0 169.352 14.4551 2448 56.8734 728.612 476.51
2506 0 175.393 13.427 2355 59.0106 728.419 464.254
2507 0 174.299 10.6828 1862 62.9372 728.983 461.785
2508 0 186.364 14.3 2665 57.8405 729.16 469.316
2509 0 191.276 15.2293 2913 57.8225 728.922 459.532
2510 0 196.42 13.3235 2617 60.2549 728.751 451.464
2511 0 203.388 15.1533 3082 57.7336 728.53 455.149
2512 1 9.00092 1.4443 13 62.6923 727.615 334.308
2513 1 216.496 13.3028 2880 60.3608 728.573 439.958
2514 0 226.472 13.8295 3132 59.2363 728.186 442.758
2515 0 233.538 13.4711 3146 59.706 727.732 428.033
2516 1 177.408 13.8043 2449 59.969 728.728 466.235
2517 0 184.233 13.8846 2558 59.6458 728.966 463.928
2518 0 189.312 14.2304 2694 60.163 728.566 453.153
2519 0 198.29 14.1157 2799 59.8528 728.209 454.123
2520 0 200.278 14.5048 2905 59.8506 728.341 443.26
2521 1 211.326 13.5904 2872 60.6156 728.657 444.734
2522 0 219.339 13.714 3008 60.0376 729.219 444.782
2523 0 226.715 15.2791 3464 58.4206 729.108 443.639
2524 0 233.31 16.5531 3862 57.6686 729.578 435.827
2525 1 70.0898 14.1105 989 56.637 728.936 515.154
2526 0 68.173 9.46123 645 62.9814 729.352 509.622
2527 0 71.2763 11.3362 808 60.8824 729.943 509.146
2528 0 76.2863 13.0168 993 58.2598 729.457 512.545
2529 0 79.1361 13.9127 1101 57.5768 729.138 511.827
2530 0 82.443 13.7428 1133 57.8314 729.676 510.8
2531 0 85.1541 13.8455 1179 57.0628 729.709 509.442
2532 0 84.123 14.8473 1249 56.8463 729.597 507.593
2533 0 86.1618 11.1302 959 60.8697 729.815 504.448
2534 0 92.1376 15.4769 1426 55.6613 729.741 506.223
2535 0 94.2882 14.0315 1323 56.3923 730.14 508.472
2536 0 98.185 13.7597 1351 57.2761 730.338 501.287
2537 0 100.112 15.2229 1524 56.0866 729.627 498.188
2538 0 103.124 13.1783 1359 58.0383 729.477 498.107
2539 0 107.246 13.7069 1470 56.9884 729.274 495.392
2540 0 108.13 12.0688 1305 58.6912 729.19 494.905
2541 0 114.155 14.1562 1616 56.9431 728.87 494.868
2542 0 117.186 13.5938 1593 58.0483 729.005 490.352
2543 0 120.39 11.0557 1331 60.3726 729.033 489.286
2544 0 123.444 12.1432 1499 59.3002 729.007 485.081
2545 0 124.169 12.3864 1538 59.8342 730.326 481.5
2546 0 132.222 13.1219 1735 58.6582 728.517 483.836
2547 0 139.487 15.3922 2147 56.4886 729.016 479.984
2548 0 142.334 13.7072 1951 58.0682 729.408 483.912
2549 1 15.0215 12.2491 184 43.1196 729.266 543.696
2550 0 15.0711 13.7349 207 43.1304 728.845 542.019
2551 0 15.053 6.70964 101 45.0792 728.03 541.95
2552 0 14.0104 6.28105 88 44.9545 728.273 543
2553 1 89.1554 11.8781 1059 61.2871 729.067 500.113
2554 0 95.1388 13.885 1321 58.2824 729.214 501.102
2555 0 94.218 15.2943 1441 57.0944 729.931 504.626
2556 0 96.2419 12.3439 1188 60.9175 729.55 497.191
2557 0 100.226 12.1924 1222 60.5818 728.902 500.637
2558 1 16.0212 9.86192 158 44 728.69 541.462
2559 0 15.0226 4.72621 71 45.6338 728.014 541.916
2560 1 108.21 15.0449 1628 58.3305 728.431 499.319
2561 0 109.233 12.0751 1319 61.8787 728.829 495.737
2562 0 114.129 13.5198 1543 60.7531 729.091 491.115
2563 0 118.317 17.4615 2066 56.0373 729.59 494.934
2564 0 120.589 15.2087 1834 58.9351 730.167 489.252
2565 0 122.284 12.6182 1543 61.2774 730.466 489.96
2566 0 128.189 13.8467 1775 60.1144 729.914 483.7
2567 0 132.265 14.985 1982 58.667 729.818 488.671
2568 1 70.3302 11.8583 834 59.2986 729.536 517.131
2569 0 72.3061 11.7694 851 61.2479 728.855 513.441
2570 0 74.0657 12.2864 910 60.4033 729.311 512.83
2571 0 77.1494 12.4823 963 60.1911 729.468 510.641
2572 0 78.2417 14.0079 1096 58.2774 729.682 512.344
2573 0 83.1569 11.9774 996 59.8745 729.798 511.278
2574 0 81.1552 13.3695 1085 59.3253 729.358 509.136
2575 1 14.0193 7.20434 101 45.7525 729.01 543.505
2576 0 11.0113 6.62958 73 45.726 728.041 542.849
2577 0 12.0164 4.74353 57 46.7544 728.018 543.439
2578 0 13.0354 3.22199 42 47.4048 727.167 544.5
2579 0 13.0203 10.9828 143 43.2028 727.853 541.846
2580 0 16.043 12.4665 200 43.445 728.085 541.995
2581 0 14.0287 17.2504 242 41.843 728.302 541.368
2582 0 11.0049 4.17995 46 46.2609 727.37 541.565
2583 0 12.1288 8.73951 106 44.0377 729.038 541.415
2584 0 0 0 0 -nan -nan -nan
2585 1 105.134 7.94222 835 63.4898 728.916 506.505
2586 0 104.142 11.0715 1153 59.4571 728.274 508.581
2587 1 122.17 13.3338 1629 60.4807 728.826 488.837
2588 0 122.158 12.4838 1525 61.6859 727.979 488.803
2589 0 128.263 13.371 1715 61.0595 728.14 481.785
2590 0 133.196 14.4599 1926 59.4699 728.155 485.314
2591 0 137.539 12.1638 1673 62.6222 728.267 476.151
2592 0 139.187 12.1563 1692 63.2565 729.159 475.007
2593 1 77.1473 12.4956 964 60.8932 728.829 510.477
2594 1 10.01 8.09192 81 45.5309 728.333 544.518
2595 0 13.047 15.4058 201 43.1692 728.403 541.632
2596 1 83.171 11.8311 984 64.4634 728.884 500.558
2597 0 87.227 11.0745 966 65.2164 729.02 500.843
2598 0 89.1918 10.7521 959 63.9187 729.892 507.637
2599 0 88.2438 13.5194 1193 63.4996 730.249 502.798
2600 0 94.1146 13.6323 1283 63.152 729.524 502.728
2601 0 98.1022 14.383 1411 62.2119 729.395 504.808
2602 0 87.0505 12.8546 1119 66.1019 729.213 498.592
2603 1 112.145 9.71068 1089 66.8228 729.484 499.111
2604 1 97.0888 12.1435 1179 66.6031 728.638 493.416
2605 1 111.225 13.1266 1460 63.9315 728.794 493.462
2606 0 101.341 14.2489 1444 63.9716 728.835 492.38
2607 1 14.0164 3.06784 43 47.907 727.558 543
2608 0 12.0032 2.24941 27 46.8889 727 544.704
2609 0 15.014 11.2561 169 43.6686 728.615 542.633
2610 1 126.175 11.7059 1477 65.4408 728.609 487.375
2611 0 132.26 15.961 2111 59.6381 729.862 490.073
2612 1 13.0548 4.44281 58 47.1207 728.948 542.828
2613 0 13.0233 14.3589 187 43.1818 729.064 543.059
2614 0 13.032 4.22038 55 46.1273 728.127 544.673
2615 0 13.0038 8.53598 111 45.036 728.64 543.351
2616 0 13.0741 12.6969 166 44.0843 729.072 542.825
2617 1 85.2479 11.8947 1014 65.7308 728.966 505.337
2618 0 85.0839 12.9872 1105 65.0977 729.421 506.551
2619 0 90.098 12.0202 1083 65.699 729.481 504.586
2620 0 94.1637 12.6163 1188 65.7146 729.306 502.788
2621 0 97.2728 11.9663 1164 66.896 729.544 499.335
2622 1 12.0115 13.8201 166 44.9699 729.169 541.458
2623 0 13.0138 13.8315 180 44.2944 729.161 542.044
2624 0 11.0809 10.5587 117 45.7949 729.282 542.701
2625 0 11.0035 3.63521 40 48.65 729.3 542.425
2626 0 11.0668 12.6504 140 45.2429 728.821 541.764
2627 0 9.0224 8.53432 77 47.039 729.909 540.48
2628 0 12.0089 9.74277 117 45.9231 728.658 542.966
2629 0 13.0178 5.1468 67 47.209 728.493 543.672
2630 0 13.0051 9.07335 118 46.517 728.864 543.314
2631 0 8 0.875 7 50.5714 728.286 544.143
2632 0 1 7 7 47 725.857 537.714
2633 1 12.0407 13.8696 167 44.2156 728.665 543.198
2634 0 13.0341 11.4315 149 44.9799 729.027 543.503
2635 0 12.0445 6.47598 78 46.7949 729.128 543.41
2636 0 13.0266 10.4402 136 45.75 728.765 544.096
2637 0 10.0045 7.39666 74 45.7568 729.5 546.608
2638 1 82.2437 10.0433 826 69.5254 728.904 506.771
2639 0 85.4418 11.8794 1015 67.3163 729.1 503.241
2640 0 76.2217 14.366 1095 66.4913 729.212 502.011
2641 1 93.1909 14.1108 1315 63.1939 729.89 509.556
2642 0 95.3395 13.7194 1308 64.5658 729.459 506.35
2643 1 12.0075 7.82847 94 46.2979 728.457 546.106
2644 0 12.0152 2.49684 30 47.8667 727.5 544.267
2645 0 11.0217 11.9764 132 45.3409 729.295 545.106
2646 0 12.0132 6.8258 82 46.2561 729.329 544.756
2647 0 11.0633 3.88673 43 47.3488 727.116 545.046
2648 0 11.036 11.0547 122 44.9426 729.607 545.959
2649 0 0 0 1.04732e-303 -nan 475 0.0653985
2650 0 11.0052 2.27165 25 48.28 728.96 543.08
2651 0 13.0099 9.22375 120 45.2583 728.467 545.717
2652 0 12.0995 11.0748 134 45.4925 728.127 544.425
2653 0 11.0097 6.2672 69 45.6522 728.13 544.899
2654 0 13.0593 8.57626 112 45.0536 728.205 545.786
2655 0 10.0036 7.09745 71 46.507 727.69 546.831
2656 0 14.0443 5.05542 71 46.9155 728.535 546.268
2657 0 13.0136 5.07162 66 47.2727 728.348 547.348
2658 0 11.0101 2.54312 28 48.0357 728.321 543.821
2659 0 12.0404 7.89009 95 45.8737 729.168 546.663
2660 0 13.01 5.45735 71 46.2394 728.338 549.648
2661 0 16.2492 10.8313 176 43.8523 728.903 548.46
2662 0 14.0057 6.49736 91 46.3077 729.429 547.418
2663 0 15.0398 12.1013 182 43.8571 728.571 547.242
2664 0 13.0304 5.83251 76 46.1316 729.329 547.566
2665 0 12.0055 3.83159 46 46.8696 729.109 549.565
2666 0 12.0081 7.16184 86 45.6977 728.372 548.744
2667 0 11.0183 6.2623 69 46.2464 729.014 546.681
2668 0 13.0466 6.59176 86 45.5814 729.372 547.651
2669 0 14.0138 7.49262 105 45.4095 728.838 548.181
2670 0 15.0134 11.0568 166 43.8434 728.169 547.783
2671 0 14.1885 8.45754 120 45 727.925 547.442
2672 0 14.0121 14.8443 208 42.7692 729.043 548.269
2673 0 13.0759 6.34756 83 45.988 728.578 549.024
2674 0 14.1434 6.57552 93 44.8817 730.043 546.688
2675 0 13.0657 7.27094 95 45.9474 728.695 548.347
2676 0 13.034 3.0689 40 48.25 728.875 550.275
2677 0 16.0316 5.86341 94 46.5638 728.553 548.021
2678 0 14.0136 6.92184 97 45.5258 729.588 550.959
2679 0 14.0219 8.05882 113 46.115 728.788 549.62
2680 0 10.0073 1.39897 14 49.8571 726.929 550.571
2681 0 14.0666 9.17065 129 45.8062 729.574 550.395
2682 0 16.0183 10.1758 163 45.2025 728.761 548.626
2683 0 15.03 5.72188 86 46.7209 728.105 550.837
2684 0 17.0062 12.7601 217 43.8018 728.253 550.263
2685 0 16.0103 8.80681 141 45.7021 728.376 549.241
2686 0 16.0166 6.68059 107 46.6168 727.486 550.262
2687 0 14.0108 6.85186 96 47.3646 727.969 550.469
2688 0 13.1657 14.1276 186 44.7581 728.753 549.043
2689 0 18.0229 12.7615 230 44.5609 728.865 547.07
2690 0 16.009 7.49578 120 47.125 728.792 548.125
2691 0 17.1025 8.65371 148 46.0743 728.885 549.493
2692 0 16.0079 8.87061 142 46.0282 728.155 548.887
2693 0 16.0431 5.23591 84 47.2976 729.083 550.464
2694 0 15.1555 7.9839 121 46.6198 729.223 548.43
2695 0 16.059 4.73254 76 47.9474 728.868 549.026
2696 0 15.0086 10.7272 161 45.4472 729.025 547.509
2697 0 16.1119 14.2751 230 44.0478 728.961 548.052
2698 0 15.0081 10.5942 159 45.1698 729.358 548.811
2699 0 16.0372 9.16619 147 45.5034 729.823 548.762
2700 0 14.0052 3.64151 51 47.7059 728.804 550.412
2701 0 13.0126 8.60703 112 46.1339 728.705 546.661
2702 0 14.0217 6.13335 86 47.1046 728.965 548.221
2703 0 14.0995 9.2202 130 45.2385 728.962 548.715
2704 0 13.1466 13.9961 184 43.8587 730.136 547.875
2705 0 12.0091 5.16274 62 47.371 728.855 548.936
2706 0 14.0023 15.8546 222 43.0721 729.527 548.527
2707 0 12.0344 13.8769 167 44.1258 729.683 547.814
2708 0 14.0963 11.1377 157 44.8153 729.338 548.318
2709 0 13.1442 6.92322 91 46.0769 729.275 546.637
2710 0 14.0292 8.76742 123 45.6179 729.813 547.87
2711 0 13.111 13.1188 172 43.9709 729.744 547.721
2712 1 1 3 3 49.6667 729.667 541.667
2713 1 12.0074 15.9902 192 43.4427 729.682 547.021
2714 0 12.0207 12.2289 147 44.7347 729.83 547.585
2715 0 14.0329 4.77449 67 45.8806 729.806 550.119
2716 0 12.0091 7.7441 93 45.6237 729.656 547.129
2717 0 13.0234 7.14098 93 45.3441 729.344 549.774
2718 0 12.003 8.83112 106 44.6038 729.67 547.547
2719 1 2 10 20 42.25 726.65 541.55
2720 1 13.1091 11.7475 154 43.2143 729.844 547.058
2721 0 10.0057 6.19648 62 45.2581 729.548 547
2722 0 13.0063 5.84332 76 45.3553 730.04 548.329
2723 0 14.0231 7.55897 106 44.2925 729.538 546.811
2724 0 12.0416 5.89622 71 45.507 730.113 549.239
2725 0 14.1399 12.3764 175 43.0457 729.709 548.863
2726 0 11.0039 9.36033 103 44.1845 729.767 547.359
2727 0 13.1169 9.91088 130 44.7615 729.492 548.692
2728 0 13.0125 11.9116 155 44.2323 730.361 548.652
2729 0 13.0344 13.2726 173 43.8266 730.387 548.012
2730 0 13.0397 9.66283 126 44.3333 729.556 547.079
2731 0 13.02 7.37329 96 45.6771 729.312 547.573
2732 0 11.0036 6.08891 67 46.2239 729.507 548.239
2733 0 11.0101 8.53765 94 45.1489 728.734 547.351
2734 0 13.0023 3.92237 51 46.9804 730.314 550.274
2735 0 14.0097 5.1393 72 46.25 728.444 546.486
2736 0 9 0.666667 6 48.8333 730.5 547
2737 0 10.0013 4.5994 46 46.7391 729.348 548.348
2738 0 12.0348 12.2146 147 43.449 729.034 546.837
2739 0 11.0315 4.98571 55 46.2727 728.691 549.691
2740 0 12.0055 3.49841 42 45.7619 727.976 547.476
2741 0 2 5.5 11 44.7273 731.818 541.909
2742 0 1 12 12 44.1667 730.417 541.667
2743 1 11.0109 3.99603 44 46.3864 730.114 549.591
2744 0 12.0206 11.7298 141 43.2128 729.482 546.433
2745 1 70.2511 16.256 1142 61.8695 730.206 511.706
2746 0 72.1715 14.521 1048 63.8903 730.47 510.351
2747 0 75.0748 14.1859 1065 65.0695 730.064 505.19
2748 0 76.0753 14.4199 1097 64.8113 729.75 506.738
2749 1 11.0023 8.99809 99 44.5657 729.333 547.485
2750 0 13.0349 3.6057 47 46.234 729.66 549.468
2751 0 13.1105 6.0257 79 45.1392 729.557 548.418
2752 0 14.0208 11.9109 167 43.5269 730.162 546.401
2753 0 15.0417 10.4376 157 44.0446 730.408 546.535
2754 0 14.0142 12.3446 173 43.3931 730.925 546.353
2755 0 12.0589 8.20974 99 44.505 730.444 544.748
2756 0 13.0353 3.52887 46 46.3696 730.37 546.044
2757 0 11.0365 14.4974 160 42.125 730.906 546.325
2758 0 13.0078 9.53277 124 43.3629 731.129 547.314
2759 0 11.0076 3.543 39 44.8462 730.231 548.103
2760 0 14.0053 4.21268 59 44.4576 729.712 549.356
2761 0 12.0445 8.38555 101 43.3762 729.485 545.931
2762 1 123.233 14.8093 1825 61.3814 730.525 480.836
2763 0 129.168 14.9727 1934 60.0703 730.392 484.477
2764 1 79.191 8.99092 712 65.2795 731.286 511.153
2765 1 69.066 14.4789 1000 60.808 731.1 510.799
2766 1 82.1464 12.0395 989 60.998 731.414 513.523
2767 0 81.2441 10.3146 838 64.1706 730.683 510.234
2768 1 13.0124 13.0645 170 41.5882 730.106 546.524
2769 0 11.0257 4.98836 55 44.8727 731.091 548
2770 0 13.0114 8.30042 108 43.1852 731.296 546.38
2771 0 12.0078 6.66234 80 43.675 731.1 547.262
2772 0 9.00077 3.11084 28 46.1786 731.393 546.821
2773 0 13.026 6.75573 88 43.6932 731.398 546.875
2774 0 15.2027 9.1431 139 43.1655 730.986 545.82
2775 0 11.0047 5.17958 57 44.3509 729.684 546.614
2776 0 10.0573 5.6675 57 43.3333 731 544.737
2777 0 1 10 10 43.2 731.5 541.6
2778 1 14.0312 9.05125 127 42.5512 730.961 547.52
2779 1 1 6 6 44.6667 732 541.5
2780 0 0 0 3 42.6667 727 541
2781 0 13.0062 5.45896 71 43.9014 730.62 547.944
2782 0 11.0511 9.22989 102 42.902 731.559 545.765
2783 0 1 13 13 42.3077 729.923 541.846
2784 0 2 11 22 42.5455 730.409 542.273
2785 0 12.0173 8.57099 103 43.2718 730.515 546.709
2786 0 11.005 12.7215 140 42 730.793 546.764
2787 0 1 9 9 41.2222 725.889 542.556
2788 0 12.0683 8.53475 103 43.1359 730.049 547.359
2789 0 11.0001 1.54544 17 47.1765 729.588 547.882
2790 0 0 0 0 -nan 1.69845e-313 1.82705e-307
2791 0 0 0 1.04732e-303 -nan 0 1.04765e-303
2792 0 1 7 7 42 736 541.714
2793 0 3 5.33333 16 43.6875 731.188 543.688
2794 1 13.0164 7.37533 96 43.3438 731.135 548.333
2795 0 13.1113 9.61007 126 42.873 730.413 546.405
2796 0 12.0117 11.905 143 42.5524 730.371 546.203
2797 0 10.033 11.2628 113 42.7522 730.38 545.796
2798 0 2 11.5 23 42.1739 732.391 541.913
2799 0 12.0084 4.08047 49 45.3061 730.898 546.633
2800 0 12.0096 2.91434 35 45.5714 730.2 547.857
2801 0 11.004 12.3592 136 42.875 731.294 545.956
2802 0 11.0142 10.7134 118 42.8644 731.263 545.864
2803 0 11.0007 1.09084 12 47.25 729.667 547.25
2804 0 12.0083 1.91535 23 46.1304 731.217 548.652
2805 0 12.0769 9.68795 117 43.6581 731.436 548.385
2806 0 11.0668 3.70479 41 45.9024 731.049 547.976
2807 0 12.005 5.24782 63 45.9206 730.857 546.762
2808 0 12.0359 8.80701 106 43.6604 730.915 544.491
2809 0 13.0118 6.07144 79 44.7975 731.494 549.392
2810 0 10.0177 5.29061 53 46.0377 731.151 546.924
2811 0 12.022 12.394 149 43.4564 731.476 546.966
2812 0 12.0206 2.6621 32 47 730.781 548.625
2813 0 13.0451 13.7983 180 43.0056 731.244 548.533
2814 0 12.01 12.2398 147 43.3742 731.204 547.878
2815 0 13.0415 10.8883 142 43.7958 732.028 548.049
2816 0 13.0352 9.28252 121 44.3471 731.364 547.372
2817 0 13.0355 7.28779 95 44.9789 731.568 548.99
2818 0 3 10.6667 32 45.2188 732.031 542.75
2819 0 12.071 4.55636 55 45.6727 731.109 546.127
2820 0 13.2793 11.2205 149 43.349 731.295 547.604
2821 0 12.0066 2.6652 32 46.75 731.125 546.375
2822 0 13.0241 6.44959 84 44.8095 730.333 548.81
2823 1 1 9 9 44.1111 733 542.333
2824 0 1 17 17 42.8824 732.235 542.471
2825 0 0 0 1.04732e-303 -nan 476 -0.0819244
2826 0 11.0098 6.99375 77 44.0519 731.52 549.857
2827 1 119.253 16.0918 1919 62.26 731.472 489.268
2828 0 125.21 15.6217 1956 62.4903 731.524 486.471
2829 0 128.382 14.3322 1840 64.0223 732.054 481.185
2830 1 68.0475 14.5927 993 65.0614 731.544 510.36
2831 0 72.3085 12.9999 940 66.0979 731.403 508.417
2832 0 73.1082 14.4854 1059 64.6922 731.588 510.532
2833 0 75.0952 15.9664 1199 62.5404 731.485 510.33
2834 0 78.1664 13.7655 1076 65.0762 730.804 507.954
2835 1 11.022 13.8814 153 42 731.02 548.039
2836 0 9.00103 2.44417 22 46.6818 730.455 550.045
2837 0 10 0.7 7 47.4286 732 546.143
2838 0 0 0 0 -nan -nan -nan
2839 0 12.0136 5.99319 72 44.3056 731.375 547.528
2840 0 13.0523 5.05658 66 44.2273 731.682 546.455
2841 0 13.0117 6.07144 79 44.8734 730.962 547.443
2842 0 11.0075 6.26847 69 45.3188 732 548.391
2843 0 9 1.11111 10 46.9 732.2 548.3
2844 0 1 16 16 42.8125 732.688 542.562
2845 1 12.0097 2.41471 29 45.7241 731.207 547.103
2846 0 12.0231 5.98849 72 44.3194 730.153 545.083
2847 0 2 10.5 21 44.0476 732.857 541
2848 0 4 6.75 27 44.6667 731.407 541.444
2849 0 2 7 14 44.5714 732 541
2850 0 12.0217 5.73964 69 44.6667 732.58 544.58
2851 1 63.3933 14.6861 931 65.1751 732.727 514.942
2852 0 64.1217 14.3633 921 66.5385 732.507 511.818
2853 1 65.1405 11.2987 736 71.1386 732.664 510.293
2854 1 69.0776 15.5333 1073 65.4278 731.787 510.884
2855 1 80.1667 12.6112 1011 66.9308 731.551 508.677
2856 0 73.0751 14.533 1062 66.7919 732.138 508.309
2857 0 76.1581 15.389 1172 65.0213 732.111 507.264
2858 0 77.3252 16.3595 1265 64.0545 732.659 506.79
2859 0 81.1649 14.7354 1196 66.8863 732.404 504.555
2860 1 183.273 11.2892 2069 67.6588 732.147 478.552
2861 1 172.29 12.5776 2167 69.3041 732.255 465.862
2862 0 172.479 10.8883 1878 69.8797 732.058 476.496
2863 1 154.457 11.9581 1847 70.2182 731.64 473.695
2864 0 147.171 13.8614 2040 68.85 732.511 474.143
2865 0 151.24 15.8358 2395 65.6877 732.241 473.726
2866 1 11.0046 6.72446 74 45.2297 731.257 547.5
2867 0 12.0214 11.0636 133 43.7744 731.534 544.023
2868 0 13.0827 4.28046 56 45.6964 731.357 545.786
2869 0 11.0027 7.54363 83 44.7349 732.663 546.916
2870 0 12.0305 1.9118 23 47.087 731.739 545.87
2871 0 13.01 6.37969 83 45.0482 732.325 547.145
2872 0 12.0345 6.56447 79 46.2405 731.076 544.532
2873 1 116.259 15.5859 1812 68.5502 732.53 487.779
2874 1 128.177 13.7388 1761 69.7411 731.541 487.434
2875 1 118.178 11.7958 1394 70.9168 732.071 496.051
2876 0 126.155 8.94138 1128 74.0461 731.775 491.95
2877 0 116.237 11.7605 1367 73.8427 732.23 490.377
2878 1 129.287 15.3303 1982 71.4576 732.523 477.984
2879 0 134.179 15.6358 2098 71.2707 732.201 484.002
2880 1 145.173 13.1429 1908 74.1226 732.326 477.384
2881 0 150.124 12.956 1945 73.983 732.61 475.304
2882 0 158.169 15.4645 2446 68.1141 732.767 482.448
2883 0 163.414 15.1211 2471 69.0615 732.052 476.48
2884 0 156.315 16.5372 2585 68.3006 732.702 471.159
2885 0 160.247 15.083 2417 70.6682 732.512 467.4
2886 1 168.212 12.5318 2108 73.2168 732.424 465.254
2887 0 160.123 13.1336 2103 71.6676 732.454 476.373
2888 0 161.336 9.51433 1535 75.4033 731.92 481.911
2889 1 133.482 14.4289 1926 68.5275 731.511 493.207
2890 0 135.285 10.6738 1444 75.5166 731.598 483.51
2891 0 128.422 13.8294 1776 72.2939 732.341 485.979
2892 0 126.122 12.7495 1608 74.51 732.035 485.751
2893 0 135.282 14.7692 1998 71.8128 732.177 481.876
2894 0 138.255 14.654 2026 72.3268 731.835 482.165
2895 0 141.179 14.471 2043 73.0724 731.61 477.973
2896 0 145.458 14.6778 2135 73.3279 731.984 471.474
2897 0 149.256 14.8805 2221 72.8762 732.444 475.337
2898 0 156.172 15.6751 2448 71.0637 732.289 474.862
2899 0 162.211 15.3936 2497 71.3432 732.102 473.736
2900 0 165.442 16.5858 2744 69.2434 732.151 472.512
2901 0 170.463 16.0269 2732 70.9239 732.4 465.385
2902 0 174.346 15.062 2626 72.3332 732.099 464.722
2903 1 189.377 14.3735 2722 72.4453 732.139 459.947
2904 0 184.186 16.8688 3107 69.9256 732.475 459.797
2905 0 194.344 12.7763 2483 74.5904 731.815 459.659
2906 1 132.177 11.583 1531 75.175 731.7 486.822
2907 1 12.084 9.93045 120 44.2917 730.9 548.383
2908 0 12.0914 5.0449 61 46.6066 731.18 548.541
2909 0 13.052 8.27459 108 45.1481 731.602 549.63
2910 0 11.0397 6.70311 74 45.5946 730.824 549.257
2911 0 10.0357 3.18862 32 46.8125 732.5 549.188
2912 1 154.153 13.013 2006 73.9467 731.799 473.201
2913 0 161.108 14.6548 2361 70.9327 732.079 472.443
2914 0 165.346 14.7086 2432 70.9881 732.037 470.543
2915 0 172.207 15.6265 2691 69.621 731.889 470.987
2916 0 177.199 15.5137 2749 70.0029 732.637 461.662
2917 1 189.177 12.2319 2314 73.9252 732.207 460.866
2918 0 197.256 12.4407 2454 73.3521 731.83 459.99
2919 0 196.203 14.5054 2846 71.6897 731.834 452.969
2920 0 198.279 14.3031 2836 71.5638 732.036 455.829
2921 0 204.269 15.0292 3070 71.2857 732.063 451.304
2922 0 209.358 14.9887 3138 71.181 732.164 451.426
2923 0 215.332 14.0388 3023 72.387 732.256 446.342
2924 1 72.0834 9.91906 715 75.0531 731.718 363.838
2925 1 154.19 13.8466 2135 74.2651 731.638 475.216
2926 0 155.31 15.5303 2412 72.2305 731.877 470.966
2927 0 163.152 14.8573 2424 72.434 731.382 472.024
2928 0 167.419 16.0317 2684 70.9113 731.694 469.329
2929 0 171.222 15.3251 2624 71.9893 732.255 462.143
2930 0 177.334 15.1804 2692 71.5646 731.912 466.079
2931 0 183.147 16.14 2956 70.4405 731.708 459.37
2932 0 183.232 15.1229 2771 72.9015 732.138 456.284
2933 1 193.223 15.0293 2904 71.8712 732.047 459.315
2934 0 198.421 16.1374 3202 70.7261 732.602 454.571
2935 0 206.311 14.7399 3041 72.4604 732.382 447.804
2936 0 216.314 14.8488 3212 71.8596 731.755 444.725
2937 0 216.371 14.5399 3146 73.2575 731.694 439.496
2938 0 217.334 12.9202 2808 73.9964 731.613 451.61
2939 0 215.216 12.3597 2660 76.0677 731.619 443.077
2940 0 224.27 9.87651 2215 78.3499 730.96 449.926
2941 0 227.293 10.0135 2276 76.8062 731.904 455.703
2942 1 61.431 11.1995 688 71.1235 732.653 519.875
2943 0 52.1382 14.2314 742 70.9542 731.27 519.234
2944 0 54.0915 13.8839 751 70.0772 732.161 518.863
2945 0 51.0194 13.3479 681 72.116 732.129 518.927
2946 0 51.1099 13.5003 690 70.8551 732.3 519.614
2947 0 51.0779 14.5073 741 71.7031 732.221 517.698
2948 0 59.0861 13.9796 826 69.2216 732.08 518.553
2949 0 54.0762 14.3501 776 70.7023 732.135 515.964
2950 0 59.3347 14.9828 889 67.5366 732.228 519.902
2951 0 60.1143 13.8237 831 70.7509 731.992 517.868
2952 0 57.0995 14.5185 829 70.6526 731.859 513.261
2953 0 63.1476 17.3403 1095 67.5964 732.06 516.881
2954 0 62.1892 15.9835 994 69.8521 732.201 515.766
2955 0 63.2013 14.2086 898 72.7617 732.167 512.455
2956 0 66.1659 14.8264 981 71.054 731.651 514.306
2957 1 76.4676 13.849 1059 69.2276 731.816 519.441
2958 0 73.0811 9.94786 727 77.0894 732.26 513.033
2959 0 64.1389 13.6734 877 75.2258 732.189 514.494
2960 0 65.2333 15.2836 997 71.7302 732.337 514.625
2961 1 80.0621 10.7417 860 75.536 731.814 509.609
2962 0 77.251 15.7927 1220 68.4787 732.103 511.007
2963 0 78.1145 14.4147 1126 71.0053 732.52 509.385
2964 0 82.2204 13.1597 1082 72.3494 732.067 506.836
2965 0 80.2414 14.1324 1134 71.6384 732 505.835
2966 0 87.2982 14.6968 1283 69.1309 732.058 507.834
2967 0 91.5119 15.4188 1411 68.2325 732.476 503.042
2968 0 93.3888 15.0018 1401 68.8201 732.131 501.066
2969 0 94.184 14.5035 1366 69.9407 731.857 498.681
2970 0 103.753 14.949 1551 67.374 732.019 497.922
2971 0 100.167 14.1563 1418 69.3032 731.87 497.652
2972 1 53.1327 13.551 720 68.6556 732.757 520.453
2973 0 53.2086 14.415 767 69.2907 732.836 518.386
2974 0 49.1913 12.9698 638 72.931 732.246 516.588
2975 0 58.2902 13.4843 786 69.6209 732.421 517.197
2976 0 60.2256 13.0011 783 69.6347 732.844 517.146
2977 0 62.1262 16.3377 1015 64.6709 733.259 517.588
2978 0 63.2404 13.6147 861 68.4785 732.287 514.636
2979 0 67.4011 16.8247 1134 64.1164 732.276 513.797
2980 0 69.705 13.5715 946 67.9207 732.63 512.288
2981 0 74.2939 15.3041 1137 65.2322 732.551 509.814
2982 0 73.0836 15.9954 1169 64.4739 732.584 508.671
2983 0 76.0839 14.7863 1125 65.4613 732.249 508.695
2984 0 77.1042 13.9292 1074 67.3557 732.441 502.485
2985 0 80.3121 14.9293 1199 65.6364 732.733 505.563
2986 0 88.1936 15.0464 1327 64.2178 732.356 504.182
2987 0 87.1601 13.6301 1188 66.5943 732.574 501.244
2988 0 93.1135 16.7323 1558 61.4686 732.069 499.737
2989 0 91.3123 14.2697 1303 65.7437 732.248 500.44
2990 0 97.2603 15.4122 1499 62.8426 732.392 496.744
2991 1 109.26 12.4748 1363 64.609 732.253 500.379
2992 1 98.5526 13.4142 1322 64.5923 732.337 500.657
2993 0 95.2747 10.6849 1018 65.72 732.023 506.53
2994 1 55.211 14.3812 794 63.1839 732.816 516.481
2995 0 57.1112 14.6556 837 63.0084 732.545 516.117
2996 0 60.4078 14.6504 885 62.8226 731.903 514.021
2997 0 62.1674 14.1875 882 63.22 731.443 515.033
2998 0 63.1809 14.1973 897 63.7603 731.394 514.349
2999 0 61.1489 12.2651 750 66.3933 731.973 513.011
3000 1 0 0 1.04732e-303 -nan 412 -0.0213411
3001 1 62.2144 13.5178 841 66.2973 732.107 509.97
3002 1 81.408 11.4731 934 64.9293 732.211 509.615
3003 0 76.2882 13.7898 1052 62.7652 732.233 511.519
3004 0 80.4194 15.7673 1268 60.5844 732.724 507.387
3005 0 81.2086 15.9096 1292 60.8731 732.498 507.5
3006 0 84.5748 14.4133 1219 62.7137 732.243 503.262
3007 0 83.2108 13.0031 1082 64.4723 732.427 502.584
3008 0 89.1974 15.0453 1342 60.9642 732.268 506.218
3009 0 95.2062 14.957 1424 60.7282 732.45 505.01
3010 0 96.1915 13.6187 1310 62.8305 731.245 500.99
3011 0 98.2872 14.1728 1393 63.0639 731.639 494.829
3012 0 101.258 14.4284 1461 62.1656 732.096 496.515
3013 1 56.1969 13.2748 746 62.4678 731.984 517.879
3014 0 52.1738 14.7967 772 62.706 731.95 515.163
3015 0 58.0664 9.60968 558 65.8333 732.443 462.72
3016 0 59.0407 7.89286 466 66.6288 732.376 458.734
3017 0 63.1245 16.111 1017 59.3904 732.545 514.948
3018 0 60.058 15.1021 907 61.9394 732.884 512.417
3019 0 67.4501 14.0252 946 60.8436 732.625 515.124
3020 0 68.3279 15.2207 1040 59.4433 732.639 515.549
3021 0 74.4447 12.882 959 62.0428 731.885 512.395
3022 0 77.4969 16.6975 1294 57.1368 732.621 515.268
3023 0 75.1145 15.097 1134 59.9153 732.96 512.581
3024 0 79.3819 13.8571 1100 60.7736 732.446 513.058
3025 0 79.3032 15.901 1261 59.6106 733.021 511.205
3026 0 74.2459 14.9099 1107 62.916 733.48 503.126
3027 0 78.0935 13.0741 1021 64.6601 732.34 503.213
3028 0 86.4228 12.9248 1117 63.3563 731.574 506.955
3029 0 89.641 16.0195 1436 60.071 732.643 504.581
3030 0 89.2157 13.8653 1237 63.3783 732.794 499.906
3031 0 95.7868 16.9543 1624 58.8953 732.547 504.632
3032 0 99.057 14.1939 1406 62.4132 732.797 499.644
3033 0 98.2815 14.55 1430 62.2741 732.994 497.152
3034 0 106.498 15.2772 1627 60.7498 733.191 496.012
3035 0 104.371 14.1802 1480 62.7527 732.979 494.107
3036 0 110.575 15.8173 1749 60.5209 732.998 495.437
3037 0 113.449 14.7908 1678 60.5447 732.492 498.231
3038 0 119.335 15.5277 1853 59.7107 732.654 496.283
3039 0 123.775 15.0758 1866 60.1811 733.07 491.004
3040 0 125.579 15.544 1952 60.4938 732.646 489.095
3041 1 66.3012 10.9651 727 65.8006 732.596 515.326
3042 0 69.1998 15.0868 1044 61.4042 732.444 513.911
3043 0 72.3534 11.9967 868 65.03 732.977 512.349
3044 0 67.145 13.5379 909 64.7525 732.897 509.492
3045 0 76.2583 15.3164 1168 61.9195 732.863 508.743
3046 0 73.1177 13.2663 970 63.1742 733.137 432.874
3047 0 78.4361 13.7437 1078 63.5148 732.725 510.29
3048 0 76.4953 12.6544 968 66.719 732.446 504.549
3049 0 84.3629 14.568 1229 63.5761 732.935 503.92
3050 0 86.4302 15.2493 1318 61.9355 732.448 507.385
3051 0 89.3029 13.4598 1202 64.9767 732.252 502.202
3052 0 91.2377 13.3936 1222 65.5835 733.012 500.23
3053 0 94.3804 14.325 1352 64.6731 732.93 500.265
3054 0 96.1138 15.6585 1505 62.8339 732.534 501.381
3055 0 101.471 14.8712 1509 63.8549 732.821 497.096
3056 0 97.3704 14.3986 1402 65.582 732.747 494.965
3057 0 106.323 15.4435 1642 62.4105 732.91 499.519
3058 0 103.143 14.475 1493 65.7328 733.023 490.79
3059 0 113.755 14.8653 1691 63.4175 732.801 493.281
3060 0 116.74 15.7701 1841 61.8408 733.717 494.797
3061 1 0 0 0 -nan -nan -nan
3062 1 116.133 12.7699 1483 67.379 733.54 483.016
3063 1 128.971 13.9954 1805 64.0416 733.026 487.161
3064 0 133.605 13.8543 1851 64.0935 732.93 482.763
3065 0 136.742 12.6808 1734 66.0167 732.86 482.347
3066 0 142.012 14.1608 2011 64.5152 733.096 477.239
3067 0 136.081 9.43555 1284 73.5008 732.376 396.831
3068 1 81.4581 13.7617 1121 63.9349 732.447 508.761
3069 0 75.2164 12.7632 960 68.3844 733.265 503.083
3070 0 76.0472 10.8748 827 68.2914 732.233 419.767
3071 1 88.6846 16.0343 1422 62.5872 732.993 502.257
3072 0 85.2054 12.5931 1073 68.5582 732.733 498.743
3073 0 89.1458 13.147 1172 67.6596 733.375 500.389
3074 0 90.3158 15.0804 1362 65.7665 733.352 495.278
3075 0 95.2812 14.5674 1388 65.7457 733.344 496.962
3076 0 102.56 12.5877 1291 67.8187 733.157 496.903
3077 0 103.303 15.1496 1565 64.669 733.629 496.824
3078 1 49.139 13.5737 667 68.4618 733.283 517.67
3079 0 53.06 14.003 743 68.8964 732.991 514.813
3080 0 55.1965 13.4972 745 69.8524 732.561 515.121
3081 0 57.156 15.2565 872 67.4553 733.058 515.342
3082 1 70.1461 10.9486 768 71.3255 733.323 512.099
3083 0 62.2021 16.5107 1027 65.9873 733.632 514.682
3084 0 64.1025 15.4128 988 66.9484 733.292 514.439
3085 0 65.3609 16.3401 1068 66.2537 733.51 511.831
3086 0 66.2216 15.1461 1003 68.5324 733.689 510.586
3087 0 70.2166 15.0392 1056 69.053 733.473 507.964
3088 0 70.3177 14.3776 1011 70.4629 733.205 508.337
3089 0 72.1991 14.9586 1080 69.4537 733.409 509.459
3090 0 75.378 17.3791 1310 66.0634 732.642 505.971
3091 0 79.2725 14.3808 1140 70.0018 733.636 505.548
3092 0 79.1383 16.4522 1302 68.1882 733.294 503.31
3093 0 82.1774 15.5396 1277 68.9186 732.899 502.408
3094 0 86.6453 16.0655 1392 67.8032 733.025 502.436
3095 0 88.2532 15.0136 1325 69.1426 733.448 500.266
3096 0 87.0651 14.851 1293 70.9072 733.261 497.347
3097 0 91.1092 15.004 1367 70.4375 733.759 497.191
3098 0 97.2019 17.0779 1660 65.8705 733.475 497.458
3099 1 110.651 14.6135 1617 67.2035 734.059 494.861
3100 0 102.283 15.5744 1593 68.1695 733.929 493.381
3101 0 106.446 16.1773 1722 67.0825 733.668 490.172
3102 0 111.16 15.4642 1719 67.669 732.838 489.002
3103 0 112.855 15.4003 1738 67.645 733.784 489.276
3104 1 126.327 13.7104 1732 68.3863 733.014 487.128
3105 0 128.946 16.8287 2170 63.7304 732.798 490.071
3106 1 58.1962 14.6745 854 69.5679 733.207 514.309
3107 0 58.212 14.8938 867 70.6102 733.148 511.81
3108 0 59.2907 14.6566 869 70.1784 733.205 512.69
3109 0 62.0471 14.5696 904 69.25 733.517 515.086
3110 0 63.1645 13.8052 872 71.2878 733.608 512.828
3111 0 63.0826 14.5365 917 71.7394 733.329 510.341
3112 0 66.1044 15.6873 1037 69.9865 733.154 510.171
3113 1 15.0847 3.91126 59 46.6441 731.661 544.695
3114 0 14.1814 3.87832 55 46.4182 732.291 547.745
3115 1 1 13 13 45.6923 728.231 539.385
3116 1 12.1633 3.37081 41 46.561 732.439 544.976
3117 0 13.0169 3.07294 40 47.375 731.275 547.375
3118 0 12.0156 1.58128 19 49.2105 731.895 547.105
3119 1 2 3.5 7 48.1429 730.143 539.857
3120 0 11.0199 5.44472 60 45.5 732.333 543.283
3121 0 14.1062 5.24592 74 45.6081 730.541 543.297
3122 0 14.0259 9.91022 139 43.8273 732.072 546.906
3123 1 0 0 5 43.4 729.4 539
3124 0 2 5.5 11 42.3636 728.727 539
3125 0 0 0 2.13051e-314 -nan 1.25523e-52 1.58963e-314
3126 0 2 8 16 39.8125 725.375 538.5
3127 0 12.0056 4.41459 53 45.0943 730.264 540.585
3128 0 14.0417 8.11866 114 44.1228 732.044 542.895
3129 1 2 1.5 3 49.3333 728.667 537.333
3130 1 58.0956 14.8376 862 70.5209 732.526 512.151
3131 0 59.3979 14.5796 866 69.8314 732.391 512.945
3132 0 62.2225 15.9106 990 68.2101 733.164 508.67
3133 0 57.6399 18.2686 1053 67.4929 733.344 508.936
3134 0 56.3314 15.6751 883 75.2106 732.418 509.872
3135 1 69.4128 17.3455 1204 67.8297 732.916 512.907
3136 0 63.2758 15.0453 952 73.2017 732.743 509.581
3137 0 64.0427 15.0056 961 73.7555 733.448 507.663
3138 0 69.2095 14.1888 982 71.6314 733.056 506.283
3139 0 71.0756 15.0403 1069 69.9121 732.873 507.5
3140 0 71.0791 13.492 959 74.2482 732.707 505.03
3141 0 70.0719 13.1151 919 75.2318 732.566 506.701
3142 0 67.323 16.6511 1121 75.9224 732.428 507.102
3143 0 68.5096 13.385 917 78.3948 732.285 509.96
3144 0 69.1247 13.3671 924 79.8799 732.409 507.624
3145 0 68.2148 13.4868 920 79.862 732.4 507.287
3146 0 73.5685 16.189 1191 74.1536 732.39 506.588
3147 0 75.3998 14.3767 1084 76.571 731.929 506.21
3148 0 75.3361 14.1234 1064 77.1645 732.199 503.012
3149 0 78.318 15.3094 1199 74.1877 732.458 502.415
3150 0 80.3142 14.9289 1199 73.7156 731.287 504.49
3151 0 84.7003 14.0968 1194 73.6801 731.78 502.055
3152 0 84.1109 14.8732 1251 73.3501 731.698 500.142
3153 0 89.1265 13.565 1209 73.7576 731.567 499.145
3154 0 91.111 14.7293 1342 71.4471 731.432 499.199
3155 0 92.38 13.0331 1204 74.0673 731.012 496.762
3156 0 97.161 13.9974 1360 71.9581 731.121 495.323
3157 0 98.2712 13.9817 1374 72.1215 731.114 492.576
3158 1 51.3866 13.1163 674 72.0089 731.263 514.54
3159 0 53.1227 13.2335 703 72.559 731.91 513.767
3160 0 51.1698 12.8787 659 74.4659 731.795 511.568
3161 0 57.0883 15.8001 902 69.4113 732.233 511.609
3162 0 58.3883 14.5063 847 70.4368 731.492 510.562
3163 0 62.4987 12.5763 786 72.4784 731.64 510.891
3164 0 61.1392 14.1808 867 71.3472 731.532 508.626
3165 0 69.0675 9.64275 666 70.7402 731.74 437.559
3166 0 74.6003 14.2493 1063 67.3584 731.548 511.291
3167 0 64.189 14.5352 933 71.1693 730.875 506.915
3168 0 69.1269 14.5385 1005 69.6348 731.797 507.707
3169 0 70.1201 14.8887 1044 69.7318 732.044 504.846
3170 0 80.8714 13.0825 1058 69.6947 732.039 505.168
3171 0 74.2462 15.2062 1129 68.8485 732.369 504.038
3172 0 81.8687 15.6592 1282 66.3237 732.311 505.01
3173 0 85.4963 13.486 1153 69.3192 731.691 501.561
3174 0 84.101 15.743 1324 67.9056 731.993 498.813
3175 0 91.3404 16.3564 1494 65.0147 731.523 500.708
3176 0 87.4116 17.7665 1553 64.4681 731.737 497.661
3177 1 98.2908 17.4991 1720 62.3186 731.915 499.315
3178 0 102.832 17.5043 1800 62.5444 732.042 496.054
3179 0 106.46 14.3528 1528 66.1329 731.516 491.429
3180 0 102.227 15.4362 1578 66.4037 731.622 489.912
3181 0 107.459 16.5924 1783 64.0308 731.758 488.647
3182 0 113.514 13.4785 1530 67.1523 731.558 489.146
3183 0 116.556 15.3918 1794 64.9493 732.016 487.606
3184 0 121.955 16.8996 2061 62.6016 731.82 484.704
3185 0 115.225 4.25254 490 75.4857 731.678 448.849
3186 1 171.469 10.2351 1755 68.4296 731.884 479.138
3187 0 167.795 11.1565 1872 67.9776 731.718 474.374
3188 0 167.88 11.806 1982 67.3668 731.903 476.406
3189 0 168.26 9.59824 1615 67.6929 732.159 486.284
3190 1 149.626 14.3424 2146 66.2367 732.009 474.32
3191 0 143.133 13.8543 1983 67.9415 731.708 475.382
3192 0 150.371 16.6854 2509 64.4607 731.823 473.575
3193 1 64.2768 13.3641 859 69.7299 731.825 510.335
3194 0 65.4401 12.8056 838 70.6659 730.476 507.895
3195 0 69.2194 16.166 1119 65.6604 731.417 509.957
3196 0 68.3165 12.2225 835 71.7569 731.534 506.213
3197 0 67.4801 13.5744 916 71.2238 731.826 504.033
3198 0 74.3185 15.003 1115 67.7812 731.823 506.787
3199 0 77.4489 14.2416 1103 68.3944 732.065 505.648
3200 0 78.4272 12.1004 949 70.8704 731.724 505.392
3201 0 82.3566 13.3687 1101 69.5786 732.993 503.548
3202 1 55.2781 8.32156 460 71.95 732.952 517.807
3203 0 47.3006 12.4946 591 64.8223 732.756 523.276
3204 0 41.3331 10.4759 433 72.0831 733.009 517.561
3205 0 42.2637 12.0908 511 70.8982 732.552 517.93
3206 0 47.7314 14.0159 669 67.6786 731.713 517.109
3207 0 48.267 14.0468 678 67.3156 731.363 519.218
3208 0 55.6453 11.753 654 67.789 731.728 519.832
3209 0 49.3646 14.0789 695 68.3223 731.725 516.98
3210 0 57.503 12.7993 736 67.5842 731.844 518.333
3211 0 56.5492 13.1567 744 69.4718 732.018 514.598
3212 0 52.42 12.4952 655 71.6076 731.939 515.38
3213 0 54.7017 12.9246 707 71.1825 731.603 513.67
3214 1 12.2207 10.8831 133 43.1053 730.925 545.12
3215 0 2 3.5 7 46.8571 727.143 539.571
3216 0 0 0 7 43.1429 726 539
3217 0 6 6.16667 37 43.4865 729.135 541.216
3218 0 12.023 4.40823 53 47.2642 730.226 545.943
3219 1 63.3555 14.4107 913 70.9179 732.727 511.495
3220 0 64.4883 14.4057 929 71.5996 731.964 508.347
3221 0 66.1648 14.4185 954 72.5231 731.878 508.032
3222 0 68.4531 13.8197 946 72.833 731.604 506.443
3223 0 69.2318 15.9898 1107 69.8979 731.494 507.64
3224 0 78.6785 14.4512 1137 69.4248 732.024 508.001
3225 0 77.5158 14.6551 1136 70.2535 731.717 504.467
3226 0 78.506 13.6168 1069 72.8185 732.16 500.975
3227 0 77.4467 13.8418 1072 73.2733 732.079 500.982
3228 0 84.7097 14.3903 1219 71.4167 732.596 500.014
3229 0 89.5495 14.2938 1280 70.4781 732.321 500.44
3230 0 88.446 15.8628 1403 69.3578 732.544 498.212
3231 0 92.3104 14.6679 1354 70.3124 733.406 500.096
3232 0 94.3974 15.4983 1463 70.3855 733.557 495.588
3233 0 93.3907 13.8344 1292 73.5248 733.104 491.933
3234 0 102.589 14.1828 1455 71.5959 732.628 493.713
3235 0 102.439 13.7057 1404 72.8903 732.876 491.252
3236 0 105.588 13.6473 1441 73.5344 733.101 490.561
3237 0 109.455 15.6594 1714 70.8355 732.539 488.998
3238 0 111.243 13.7896 1534 74.2588 733.045 487.641
3239 0 117.822 16.2364 1913 70.3267 732.797 486.414
3240 0 119.345 13.4484 1605 74.5495 732.918 485.11
3241 1 72.6028 12.6166 916 72.9552 732.095 513.517
3242 0 71.1243 11.5432 821 77.6248 732.286 509.818
3243 0 73.3227 11.3198 830 77.5084 732.194 512.371
3244 0 74.5113 14.065 1048 73.1851 731.951 515.158
3245 0 65.4268 14.5965 955 75.9026 732.045 513.522
3246 0 75.6635 11.419 864 79.8495 732.161 510.823
3247 0 76.2549 10.1371 773 83.0893 732 509.128
3248 0 78.1853 9.91235 775 83.6361 732.111 508.635
3249 0 72.6934 13.3162 968 80.7686 731.862 508.741
3250 1 82.5346 10.9045 900 83.7589 731.582 507.427
3251 0 84.2877 11.6506 982 82.5774 731.57 504.958
3252 0 87.5816 13.496 1182 77.1354 731.268 510.924
3253 1 12 1.5 18 52.7222 729.722 547.833
3254 0 13.0321 1.22774 16 52.5625 727.75 549.75
3255 1 3 7 21 47.5238 727.429 543.19
3256 0 0 0 6 48.5 724.5 542
3257 0 12.041 7.47445 90 48.4556 728.1 547.256
3258 1 91.4035 16.4436 1503 76.0412 731.645 503.931
3259 0 93.7224 15.802 1481 78.4997 731.704 500.706
3260 0 93.603 12.8094 1199 83.2494 731.224 499.445
3261 0 98.4749 14.5113 1429 80.5102 731.193 498.127
3262 0 101.612 14.6439 1488 80.7722 731.189 495.497
3263 0 104.32 13.104 1367 84.2107 731.442 492.852
3264 0 107.535 12.8702 1384 84.0397 731.244 493.036
3265 0 111.843 13.7246 1535 83.071 730.81 490.492
3266 1 13.0296 2.83969 37 52.1081 729.108 550.054
3267 0 11.0028 1.72684 19 54.8421 728.421 549.737
3268 1 2 7.5 15 51.0667 725.467 542.067
3269 0 13.0849 9.40018 123 48.748 727.789 547.008
3270 0 12.0262 3.07661 37 52.5405 727.622 550.162
3271 0 12.0189 1.91365 23 52.9565 726.087 543.609
3272 0 11.0065 2.27138 25 53.52 727.2 548.92
3273 0 13.2446 4.07715 54 52 727.426 549.185
3274 0 0 0 1 50 725 541
3275 0 11.0067 3.81586 42 52.5952 726.214 547.571
3276 0 1 5 5 52.2 727.4 541.6
3277 0 10.0089 2.09814 21 54.619 727.143 548.19
3278 0 1 9 9 50.5556 727.667 541.333
3279 0 0 0 1.04732e-303 -nan 475 -0.0528839
3280 0 0 0 3 48.3333 730 541
3281 0 0 0 4 48 728.25 541
3282 1 220.7 8.41415 1857 91.42 728.86 453.733
3283 1 225.157 9.0248 2032 87.5497 729.078 461.174
3284 0 222.63 8.99251 2002 85.2747 728.293 467.645
3285 1 236.476 8.0262 1898 86.6128 729.109 469.623
3286 1 222.307 6.67544 1484 86.6604 728.758 481.691
3287 0 224.881 7.42614 1670 84.7754 728.799 482.215
3288 0 225.812 9.99946 2258 83.8534 729.456 462.291
3289 1 12.0293 1.0807 13 55.6154 724.846 546.846
3290 0 12.0451 4.56619 55 52.8909 726.291 547.909
3291 0 13.1405 7.61006 100 51.11 727.12 546.77
3292 0 9 0.555556 5 58 724 544.6
3293 0 12.049 1.90888 23 54.1304 727.087 546.826
3294 0 13.142 4.33725 57 52.2105 726.649 549.246
3295 1 124.334 12.8847 1602 83.0506 728.38 483.491
3296 0 132.718 14.7833 1962 79.9399 728.796 480.197
3297 0 137.891 12.6259 1741 83.1821 729.303 480.848
3298 0 140.761 14.0806 1982 80.1832 729.429 481.992
3299 1 155.541 10.4796 1630 85.3239 729.807 478.044
3300 0 148.852 13.5168 2012 82.7271 730.55 472.727
3301 1 129.393 8.13803 1053 87.1263 730.68 496.165
3302 0 124.39 9.88023 1229 86.8535 730.275 486.873
3303 0 130.692 12.4721 1630 81.9877 729.668 486.574
3304 0 133.568 11.1778 1493 84.0978 729.898 486.38
3305 0 124.931 12.9831 1622 83.0721 730.441 485.681
3306 0 131.56 14.8525 1954 79.7032 730.27 479.662
3307 1 91.5804 11.509 1054 81.8805 730.621 505.863
3308 0 82.4136 14.221 1172 81.0555 730.833 500.622
3309 0 85.6014 14.2638 1221 80.697 730.153 499.07
3310 0 86.3205 13.5194 1167 81.0386 729.91 497.199
3311 0 90.541 14.1593 1282 80.3112 730.098 495.176
3312 0 100.656 10.5011 1057 83.79 730.147 495.619
3313 1 89.2979 12.4191 1109 80.9901 730.932 500.321
3314 1 45.4545 12.628 574 82.662 730.718 515.5
3315 0 55.0767 8.87852 489 86.5583 730.824 462.955
3316 0 50.5072 14.493 732 78.627 731.036 514.223
3317 0 51.4696 14.6688 755 78.0397 730.673 512.416
3318 0 54.5102 13.0434 711 81.0478 730.657 509.672
3319 0 55.1691 13.6671 754 79.5318 731.092 512.667
3320 0 55.5749 14.485 805 78.2199 731.019 513.414
3321 1 12.048 7.05509 85 48.1059 729.294 540.047
3322 0 1 2 2 51.5 727 536.5
3323 0 0 0 1 54 730 536
3324 0 1 8 8 51.625 726.5 537.625
3325 1 13.1584 7.21974 95 49.2421 730.021 545.516
3326 1 1 12 12 48.25 729.833 536.583
3327 1 13.0984 4.12264 54 51.8519 730.667 544.667
3328 0 14.0915 3.54824 50 52.08 727.24 543.7
3329 0 13.0081 4.76625 62 51.371 728.613 544.306
3330 1 171.498 12.4433 2134 80.4766 731.044 466.038
3331 0 162.337 12.9915 2109 81.1807 731.573 465.244
3332 1 14.1974 5.07134 72 51.0139 728.028 541.792
3333 0 12.0218 3.57683 43 52.5116 728 541.488
3334 0 14.0419 5.62602 79 50.5823 729.114 541.253
3335 0 12.0606 1.74121 21 53.2381 729.429 542.81
3336 0 13.0504 2.83515 37 51.6216 727.189 540.351
3337 0 12.0312 4.82078 58 50.7241 729.069 543.397
3338 0 12.0277 2.74366 33 52.5455 728.788 544.788
3339 0 10.0014 3.89944 39 50.4359 728.462 544.769
3340 0 12.0231 2.32885 28 51.3929 727.643 544.929
3341 0 0 0 0 -nan -nan -nan
3342 0 13.0898 3.28501 43 51.3721 727.93 545.884
3343 0 14.0591 4.7656 67 49.0597 728.522 545.925
3344 0 11.0604 4.52062 50 50.66 728.02 542.14
3345 0 13.0749 2.06503 27 51.2593 727.963 542.296
3346 0 12.0474 2.82218 34 50.1765 727.5 542.971
3347 1 1 7 7 47.4286 728.286 537.714
3348 0 2 10.5 21 47.0952 727.476 538.19
3349 0 1 11 11 48.1818 729.091 537.273
3350 1 64.2373 10.0565 646 79.1502 731.306 510.711
3351 0 57.4253 14.5929 838 73.7828 731.047 513.413
3352 0 56.4984 14.6022 825 76.2267 731.149 509.215
3353 0 55.3592 14.0175 776 77.9433 730.969 509.674
3354 0 57.1659 13.3821 765 78.8431 730.95 508.745
3355 0 60.3606 14.2146 858 76.2518 730.111 512.09
3356 0 61.6381 14.5365 896 76.3683 730.028 511.595
3357 0 61.1942 13.5307 828 79.7041 729.686 507.063
3358 0 67.7364 15.6046 1057 74.457 729.627 509.896
3359 0 76.4537 11.2094 857 80.0875 729.968 507.76
3360 0 80.7529 12.0243 971 77.5046 729.432 510.211
3361 0 70.4999 16.0993 1135 74.9595 730.277 508.214
3362 1 14.0576 1.84954 26 52.3846 726.038 545.154
3363 0 11.0057 4.36137 48 49.625 726.583 544.333
3364 0 13.0708 7.03861 92 49.2717 727.13 544.685
3365 0 14.1849 4.30035 61 50.4426 726.639 547.738
3366 0 13.1318 5.86361 77 49.039 726.935 546.26
3367 0 11.051 2.44322 27 51.7778 725.148 545.778
3368 0 13.2019 4.01457 53 49.8679 726.283 546.151
3369 0 11.0891 3.87768 43 51.093 726.86 546.581
3370 0 14.2121 2.67378 38 51.6053 727 547.921
3371 0 13.0261 2.61015 34 51.0588 726.941 546.882
3372 0 10.0385 2.78927 28 51.5357 727.571 548.857
3373 0 1 11 11 46.1818 730.182 541.364
3374 1 14.1007 8.93573 126 47.3968 728.889 548.302
3375 1 2 8 16 47.375 725.625 541.25
3376 0 2 3.5 7 49.5714 726 541.143
3377 0 1 2 2 50.5 726 540.5
3378 1 14.0225 3.92227 55 48.0727 727.545 544.382
3379 1 3 5 15 45.9333 725.933 542.8
3380 0 1 21 21 44.0476 729.286 541.571
3381 0 0 0 7 44.5714 729.429 541
3382 0 0 0 0 -nan -nan -nan
3383 0 11.0018 1.5452 17 50.9412 726 545.824
3384 1 125.485 14.7986 1857 80.0054 730.299 479.065
3385 0 129.735 14.4526 1875 79.4795 730.053 479.852
3386 0 134.367 15.9935 2149 76.9646 729.856 479.402
3387 1 147.621 13.5957 2007 80.1495 730.296 475.17
3388 0 151.476 11.9359 1808 82.6079 730.162 477.851
3389 0 156.768 13.1468 2061 79.72 730.655 478.568
3390 0 148.671 14.7709 2196 80.0601 730.288 473.86
3391 0 153.512 15.875 2437 78.0033 730.734 470.808
3392 1 68.3864 12.0199 822 82.4148 730.905 507.957
3393 0 73.3942 14.1019 1035 78.4406 730.592 507.918
3394 0 75.4045 13.2088 996 79.5442 730.79 506.088
3395 0 77.614 13.1162 1018 78.7652 730.612 508.211
3396 0 78.5721 13.0835 1028 79.9436 730.939 505.741
3397 0 81.2838 14.2341 1157 78.4581 731.147 505.025
3398 0 84.8753 13.5964 1154 77.877 730.785 506.228
3399 0 86.5604 13.1584 1139 81.1782 730.944 501.535
3400 0 85.2777 15.2209 1298 78.3783 730.861 502.157
3401 0 90.5397 13.1655 1192 81.2072 730.726 501.274
3402 0 87.5981 14.2355 1247 81.093 730.941 498.994
3403 0 89.4132 13.9689 1249 81.7942 730.884 498.126
3404 0 92.4207 14.131 1306 81.1263 730.671 500.352
3405 0 96.8243 13.1682 1275 81.9718 731.231 498.82
3406 0 102.775 15.1691 1559 76.9423 731.222 498.273
3407 0 98.5114 15.4703 1524 79.4272 731.104 494.472
3408 0 102.803 14.8244 1524 79.7461 730.129 499.503
3409 0 99.2228 14.7748 1466 82.0089 730.605 494.567
3410 0 100.559 14.2204 1430 85.7238 730.061 493.41
3411 0 103.411 14.2151 1470 85.617 729.914 494.08
3412 0 102.494 13.874 1422 88.4796 730.304 492.866
3413 0 103.433 13.6513 1412 89.6331 730.366 493.339
3414 0 102.649 14.4472 1483 89.5125 730.156 492.343
3415 0 105.532 15.8909 1677 85.7812 729.815 492.247
3416 0 106.429 14.7892 1574 89.0108 730.244 489.781
3417 0 110.613 15.0616 1666 87.5246 730.523 489.848
3418 0 107.647 14.789 1592 90.522 730.585 487.984
3419 0 108.561 14.9685 1625 90.248 730.927 488.607
3420 0 106.612 16.8179 1793 88.2147 730.134 490.045
3421 1 118.718 17.2089 2043 83.7318 730.881 492.113
3422 0 115.284 15.0498 1735 89.3902 731.096 488.539
3423 0 115.213 11.7 1348 92.5371 730.927 489.186
3424 1 102.678 14.6477 1504 95.8537 730.643 488.404
3425 1 116.809 13.3808 1563 93.6148 730.294 490.665
3426 0 101.447 13.3075 1350 99.0578 729.872 488.691
3427 0 104.567 16.0088 1674 93.9313 730.501 489.421
3428 1 10.002 3.09939 31 56.4839 726.097 543.419
3429 0 9 1.11111 10 62.5 729.1 548.1
3430 0 12.0341 3.73938 45 55.0444 725.489 543.089
3431 0 13.1092 6.10257 80 54.1375 726.112 544.188
3432 0 15.1265 6.28038 95 54.1368 726.2 542.095
3433 0 13.0093 3.68966 48 55.2292 725.25 542.396
3434 0 3 1.33333 4 63.25 728.25 547.5
3435 0 14.1878 9.72669 138 52.4493 728.413 544.855
3436 0 13.0351 4.52625 59 54.8305 727.949 546.593
3437 0 14.0443 5.12663 72 54.8056 727.931 546.014
3438 0 11.0239 4.62631 51 55.7059 727.863 546.02
3439 0 10.0417 3.18672 32 56.3438 726.938 543.844
3440 0 0 0 3 54 723.667 538
3441 0 12.0281 4.82203 58 54.2931 727.017 544.81
3442 0 14.0487 5.62332 79 54.1013 727.342 544.051
