time division length width area intensity CMx CMy
0 0 42.0377 9.2298 388 59.2964 658.972 522.072
1 0 42.0581 10.9848 462 57.0043 659.1 521.97
2 0 45.0555 9.29964 419 58.2482 659.222 521.036
3 0 45.0248 10.3498 466 57.1652 658.824 522.964
4 0 45.0681 10.8503 489 57.002 659.006 521.096
5 0 47.0331 9.46143 445 58.4337 658.964 522.409
6 0 45.0601 7.76741 350 60.24 658.474 522.806
7 0 47.0957 8.66322 408 58.7426 658.882 524.458
8 0 50.0745 11.2233 562 56.5249 658.947 520.52
9 0 48.1065 8.19016 394 60 659.612 521.107
10 0 52.1323 10.7994 563 57.2664 659.234 520.712
11 0 52.2458 11.5033 601 56.9135 659.356 519.256
12 0 53.1398 10.9711 583 57.7479 659.305 519.334
13 0 53.0456 10.7455 570 58.7474 659.488 517.675
14 0 57.0618 10.4273 595 57.9244 658.432 521.982
15 0 56.2066 9.0203 507 59.8304 658.252 522.568
16 0 59.0465 10.4325 616 59.0341 658.115 520.904
17 0 61.0313 11.0599 675 59.3111 658.56 518.255
18 0 62.0909 11.9663 743 58.8358 658.743 516.577
19 0 62.2232 9.14449 569 62.3796 658.299 516.223
20 0 65.194 11.3201 738 60.0136 658.125 515.16
21 1 38.0425 11.014 419 57.9093 658.274 531.368
22 0 37.0335 10.72 397 60.3451 657.738 528.965
23 0 36.0366 9.3516 337 61.9703 658.644 530.326
24 0 38.0599 10.72 408 61.3922 658.265 528.39
25 0 39.0719 11.4149 446 60.5404 658.942 527.993
26 0 40.0396 11.2389 450 61.2867 658.991 528.016
27 0 39.0357 10.452 408 63.7917 658.877 526.995
28 0 41.0136 11.1914 459 62.3094 657.695 526.776
29 0 42.0497 9.77415 411 64.1436 659.044 527.204
30 0 43.0309 11.2245 483 63.7723 658.429 524.222
31 0 43.0557 11.3806 490 63.9102 658.333 523.669
32 0 46.0461 11.4668 528 63.2784 658.443 525.383
33 0 47.0731 11.9176 561 62.3351 659.2 525.433
34 0 49.0215 12.0559 591 62.5584 659.459 524.893
35 0 51.1401 11.6738 597 63.1206 659.58 523.052
36 0 53.0373 12.576 667 61.997 658.7 523.183
37 0 51.0665 11.8473 605 64.8132 659.223 519.917
38 0 55.0131 11.2882 621 65.0113 659.622 520.465
39 0 54.0555 11.7472 635 64.663 658.995 521.123
40 0 57.0259 11.6964 667 64.1784 660.126 522.421
41 0 59.0783 12.7458 753 64.2749 660.276 517.729
42 0 59.0544 12.2429 723 65.8271 660.526 518.207
43 0 62.1009 12.0127 746 65.807 659.905 519.005
44 0 63.0796 12.1434 766 66.2637 660.339 517.735
45 0 66.1544 12.0173 795 66.1975 659.952 516.982
46 0 68.0744 13.1914 898 65.8742 660.292 514.194
47 0 67.1041 12.2049 819 68.2869 660.403 513.242
48 0 69.0821 11.8989 822 69.163 660.65 511.399
49 0 72.0569 13.4893 972 66.5844 660.746 515.389
50 0 74.1828 12.2805 911 69.4336 660.24 511.491
51 1 38.0453 11.1183 423 68.2837 660.043 530.194
52 0 38.0161 11.8371 450 67.9356 660.089 530.2
53 0 40.0304 12.1408 486 68.4218 660.698 529.183
54 0 40.0064 12.773 511 68.9609 660.372 527.632
55 0 42.0232 12.3503 519 68.7245 660.595 528.967
56 0 42.1183 11.3965 480 70.8125 660.792 528.331
57 0 44.0297 11.1516 491 71.666 660.405 527.941
58 0 44.0234 12.1981 537 71.6778 660.885 526.078
59 0 45.0367 11.9014 536 71.875 661.36 525.823
60 0 46.023 12.8849 593 70.4975 661.592 526.74
61 0 47.0455 12.8599 605 70.7339 660.392 525.526
62 0 49.058 12.2508 601 72.9983 660.504 521.233
63 0 50.0149 12.4963 625 71.7088 660.464 522.952
64 0 51.0674 12.2583 626 72.3946 660.417 522.543
65 0 53.0807 12.6411 671 72.7213 661.575 521.264
66 0 54.0638 12.5777 680 72.8044 660.518 521.356
67 0 56.088 12.1238 680 73.7662 660.776 518.859
68 0 57.1152 12.1509 694 74.3862 660.919 518.532
69 0 59.1009 13.8238 817 72.2448 660.918 518.083
70 0 59.1114 10.8778 643 76.2753 660.296 519.156
71 0 62.0373 12.4602 773 74.7516 660.483 515.925
72 0 65.0493 12.0063 781 74.7183 660.844 516.839
73 0 65.2521 12.6739 827 74.2527 660.868 515.424
74 0 69.0494 11.5859 800 74.9112 660.521 516.619
75 0 69.1855 11.9967 830 75.8807 659.795 513.708
76 0 70.1445 11.0058 772 77.3731 660.886 513.633
77 0 73.0266 13.899 1015 73.9084 660.428 510.667
78 0 76.1052 13.9806 1064 73.7669 660.179 509.725
79 0 75.1243 11.9269 896 76.9408 660.703 512.365
80 1 39.0202 12.3269 481 74.2141 661.245 527.424
81 0 40.0873 10.3025 413 77.2058 661.642 528.085
82 0 40.0458 11.4868 460 75.8978 662.172 527.994
83 0 40.1281 10.4914 421 78.6817 661.993 526.112
84 0 43.0342 10.9448 471 77.3121 661.888 527.138
85 0 43.0401 11.0827 477 78.3836 661.652 525.354
86 0 43.0282 12.2478 527 77.5351 661.704 523.491
87 1 92.2136 13.1542 1213 78.0668 661.202 503.188
88 0 90.068 10.0924 909 82.1903 661.086 504.41
89 0 95.0912 13.0506 1241 79.1048 661.579 500.009
90 1 156.25 12.7168 1987 79.5798 661.577 477.098
91 0 158.204 12.6798 2006 80.8415 660.84 473.473
92 0 163.098 13.826 2255 80.059 661.888 468.038
93 0 168.161 12.8567 2162 82.3825 661.759 465.029
94 0 172.229 13.3369 2297 82.1363 662.167 463.401
95 0 176.309 12.9829 2289 82.2023 661.905 465.391
96 0 182.366 13.7581 2509 81.878 661.428 462.517
97 0 180.357 11.749 2119 85.2072 661.364 466.891
98 1 192.276 13.543 2604 84.2189 661.386 458.018
99 0 196.37 13.4746 2646 84.0673 661.461 457.352
100 0 202.245 14.1166 2855 84.5779 661.336 450.063
101 0 207.276 13.113 2718 86.7958 661.661 450.251
102 0 213.245 12.9381 2759 87.7992 661.805 446.773
103 0 218.215 13.8121 3014 86.6745 662.022 449.413
104 0 220.183 13.7431 3026 88.6153 662.155 442.654
105 0 228.277 14.7672 3371 87.3877 661.307 440.899
106 0 234.348 14.359 3365 88.7168 661.76 438.825
107 0 237.369 14.3237 3400 89.4909 660.75 437.997
108 0 243.421 15.1466 3687 88.1638 660.958 435.544
109 0 252.43 15.0061 3788 88.4314 661.008 432.306
110 1 157.198 14.4849 2277 90.318 661.074 473.427
111 0 161.142 14.6827 2366 89.8652 661.162 472.43
112 0 164.27 15.9433 2619 88.1279 660.958 470.065
113 0 170.158 14.4337 2456 90.8978 661.318 468.487
114 0 174.246 14.1639 2468 91.7354 661.237 463.915
115 0 179.195 13.4378 2408 92.3252 661.446 465.73
116 0 187.288 15.1371 2835 89.6508 661.6 461.135
117 1 136.234 14.5412 1981 92.311 661.685 482.244
118 0 138.227 13.8612 1916 94.3518 661.51 479.973
119 0 140.162 14.4975 2032 95.622 661.834 479.836
120 0 142.253 14.3266 2038 96.8111 661.483 477.397
121 0 146.139 14.5615 2128 96.2946 662.058 478.696
122 0 151.259 14.9082 2255 96.0572 661.222 473.981
123 0 156.185 14.6621 2290 96.5961 660.838 474.528
124 0 159.171 14.7389 2346 97.5801 661.14 471.925
125 0 162.131 14.6055 2368 99.0777 661.601 467.903
126 0 167.242 14.3624 2402 100.084 661.34 464.714
127 0 171.139 14.6839 2513 99.3275 661.561 465.561
128 0 174.16 13.9756 2434 101.847 660.695 462.836
129 0 181.246 14.3838 2607 100.581 660.316 460.211
130 0 186.37 14.4819 2699 100.117 660.281 459.675
131 0 192.121 15.891 3053 97.6217 659.554 454.77
132 0 194.262 14.0274 2725 102.022 659.633 453.947
133 0 199.22 15.1892 3026 99.9597 659.988 448.243
134 1 36.0309 12.295 443 95.3476 661.004 528.321
135 0 36.034 12.849 463 95.7387 661.566 525.862
136 0 36.01 10.2472 369 98.1626 661.829 528.648
137 0 38.0134 12.9165 491 93.8452 662.012 526.014
138 0 38.0305 11.4382 435 96.2276 661.188 525.538
139 0 40.0827 11.9752 480 94.1271 660.538 524.821
140 0 41.0437 15.252 626 88.8562 660.797 522.089
141 0 40.0162 11.4204 457 95.6849 661.392 523.639
142 0 42.0631 11.6729 491 94.0611 661.352 522.475
143 0 43.0671 10.7507 463 95.6825 661.084 523.268
144 0 44.0203 12.2671 540 93.0574 660.806 522.796
145 0 45.046 10.7446 484 94.8078 661.052 522.068
146 0 47.0712 11.9818 564 93.2642 661.647 519.126
147 1 171.272 18.0707 3095 94.0578 661.45 453.927
148 0 180.197 18.8627 3399 90.8326 660.754 445.518
149 0 186.658 18.2901 3414 91.9341 661.329 448.819
150 0 188.251 17.721 3336 94.3729 660.908 443.146
151 0 190.585 16.8062 3203 96.6847 661.017 438.639
152 0 193.273 19.087 3689 92.6839 660.575 436.624
153 0 194.932 17.3291 3378 97.2889 660.341 436.582
154 0 198.943 18.6385 3708 94.4895 660.768 435.765
155 0 204.007 18.6121 3797 93.9134 661.334 430.392
156 0 205.568 17.1671 3529 98.4882 661.383 434.074
157 0 215.615 20.1146 4337 89.9172 660.644 422.191
158 0 215.425 15.6017 3361 100.057 661.046 421.374
159 0 219.32 16.8384 3693 98.0195 660.933 416.593
160 0 223.391 17.8655 3991 95.5635 661.025 416.351
161 0 225.773 15.1524 3421 102.889 660.519 420.858
162 0 234.042 17.091 4000 97.6035 661.121 414.018
163 0 238.39 17.7567 4233 96.2984 661.774 412.99
164 1 124.063 11.7843 1462 91.5554 661.527 484.884
165 0 125.225 12.0583 1510 92.049 661.551 484.883
166 0 126.098 11.7607 1483 93.029 661.898 483.866
167 0 126.13 8.85593 1117 96.4718 661.608 491.694
168 0 133.179 11.3532 1512 93.5053 662.075 481.254
169 0 138.178 10.6819 1476 94.0766 661.615 476.261
170 0 141.112 10.6653 1505 94.3402 661.648 475.482
171 0 145.117 11.7491 1705 91.5243 661.209 472.252
172 0 151.128 11.348 1715 92.2023 661.511 469.574
173 0 154.17 11.5652 1783 91.9753 661.543 469.835
174 1 50.0688 11.2246 562 90.7313 661.836 519.208
175 0 53.0804 11.5485 613 89.7015 661.661 516.054
176 0 55.0836 10.4387 575 91.28 662.127 514.943
177 0 56.102 11.2117 629 89.8013 661.417 514.784
178 0 60.0478 11.2577 676 88.9112 661.642 512.839
179 0 61.012 10.8995 665 89.8361 661.388 510.528
180 0 64.0867 10.4546 670 89.909 660.704 509.7
181 0 66.0694 9.86841 652 90.7638 660.759 509.804
182 0 69.0469 10.4132 719 89.9889 661.366 507.725
183 0 72.0523 11.4639 826 87.6852 660.823 506.363
184 0 73.2329 10.965 803 88.274 660.04 504.976
185 0 77.0325 10.2944 793 88.7491 660.279 502.444
186 1 41.0817 12.3169 506 82.587 660.32 520.858
187 0 42.0253 11.3027 475 83.3495 659.817 522.349
188 0 45.0543 11.7192 528 81.2898 659.237 522.496
189 0 47.1353 11.3927 537 81.229 658.998 522.192
190 0 49.0597 11.7 574 80.5714 658.718 521.253
191 0 52.1039 11.4387 596 79.8976 658.201 520.294
192 0 52.0396 12.0485 627 79.0175 658.086 519.933
193 0 56.0366 12.6881 711 76.8678 658.19 518.969
194 0 57.1002 12.2066 697 76.6514 658.419 518.895
195 0 57.121 12.0971 691 77.6744 658.946 516.984
196 0 60.1207 12.924 777 75.2072 658.226 515.662
197 0 64.059 12.3324 790 74.4608 658.199 516.768
198 0 64.0874 11.5779 742 76.0647 657.567 516.563
199 0 66.0627 11.4891 759 76.0659 657.808 513.622
200 0 70.1715 13.7093 962 70.9106 658.221 514.605
201 0 71.0918 11.9282 848 74.4127 658.81 512.101
202 0 73.0895 11.3696 831 74.4621 658.205 515.706
203 0 76.1277 12.1638 926 72.1436 657.989 512.886
204 0 78.1789 11.9597 935 72.4342 657.63 511.981
205 0 81.1607 12.1241 984 71.7978 657.8 508.924
206 0 81.1749 11.1118 902 73.2494 657.864 508.764
207 0 85.2289 12.2376 1043 70.907 658.227 507.554
208 1 42.097 8.4329 355 71.1268 657.625 530.882
209 0 44.1159 9.3617 413 70.9709 657.506 528.901
210 0 46.0514 9.5111 438 70.5662 657.822 527.724
211 0 46.1385 9.36311 432 70.7384 657.273 526.053
212 0 49.0989 12.0777 593 66.2782 656.513 525.491
213 0 49.1527 10.62 522 68.3812 657.149 522.753
214 0 54.0861 11.001 595 66.0924 655.866 524.378
215 0 55.0909 9.87458 544 67.739 655.906 523.044
216 0 54.1167 9.99691 541 68.0277 655.403 519.828
217 0 58.06 11.5398 670 64.6328 655.61 518.307
218 0 60.1113 11.695 703 64.0768 655.824 519.324
219 0 60.2042 11.0956 668 64.988 655.446 518.653
220 0 63.1594 11.3522 717 64.0446 656.029 517.112
221 0 65.2381 12.2015 796 62.2073 656.263 517.658
222 0 67.1254 9.84724 661 65.7171 655.171 515.926
223 0 69.0897 10.0739 696 65.1767 656.116 516.391
224 0 70.0676 10.6754 748 65.2206 655.499 510.074
225 0 73.0738 13.1511 961 61.948 655.303 509.407
226 0 76.1083 10.5902 806 64.5906 655.212 510.488
227 0 78.1462 12.1055 946 62.9514 654.381 506.161
228 0 81.1209 12.8573 1043 62.0652 654.867 506.087
229 0 84.1487 13.1077 1103 62.0598 654.825 505.214
230 0 87.1625 12.666 1104 62.2908 655.688 504.742
231 0 88.1613 11.9554 1054 63.8273 655.913 500.73
232 0 92.0822 14.2373 1311 61.5614 655.542 498.362
233 0 96.1867 13.8065 1328 61.805 656.09 497.788
234 1 47.1364 10.5226 496 63.0564 655.304 522.526
235 0 50.0756 10.6639 534 62.4925 655.916 521.373
236 0 51.0963 10.901 557 62.7522 655.89 522.05
237 0 53.1474 10.1416 539 62.7607 655.865 521.445
238 0 53.1533 11.0812 589 62.236 655.806 520.954
239 0 54.0896 10.5011 568 64.2095 656.836 516.864
240 0 56.0822 11.18 627 62.555 656.785 517.876
241 0 59.1818 11.8111 699 60.9843 656.804 518.009
242 0 60.1318 10.2941 619 62.9564 655.772 516.265
243 0 61.0926 9.46105 578 65.0017 656.144 510.178
244 0 66.1437 11.1273 736 62.8587 656.31 511.144
245 0 66.0686 10.9734 725 63.1283 655.759 513.007
246 0 69.1294 12.0354 832 61.6719 655.916 512.355
247 0 70.1254 11.0088 772 63.9236 656.436 509.575
248 0 74.2147 11.7227 870 62.5988 657.117 509.09
249 0 77.1148 11.5283 889 61.9944 656.968 511.136
250 0 79.0899 12.4542 985 61.2599 657.234 508.463
251 0 82.1617 10.7228 881 63.025 657.09 508.967
252 0 83.0911 11.1203 924 63.2836 657.203 503.148
253 0 88.0981 11.6234 1024 62.292 657.29 505.583
254 1 44.0423 10.1493 447 60.0962 658.081 525.051
255 0 46.0404 10.9686 505 59.5545 658.533 525.475
256 0 46.0689 9.74628 449 61.4209 658.036 525.971
257 0 48.0622 9.86221 474 61.5401 658.361 525.703
258 0 52.0416 10.1073 526 60.9677 657.998 525.338
259 0 50.0463 10.85 543 61.0589 656.983 525.495
260 0 53.1001 9.86815 524 62.3435 657.166 522.059
261 0 54.0653 11.7266 634 60.1041 657.145 521.842
262 0 54.0671 9.37723 507 63.1913 657.008 522.611
263 0 56.0922 9.39524 527 63.8368 657.285 521.806
264 0 60.096 11.3152 680 61.3809 657.106 519.984
265 0 60.0762 11.8017 709 61.3018 657.109 520.972
266 0 61.0913 11.9657 731 61.2955 657.003 518.484
267 0 62.0781 11.7433 729 61.118 657.182 520.248
268 0 65.1618 11.6633 760 61.8079 657.166 517.479
269 0 67.115 10.1915 684 62.9605 656.833 518.341
270 0 69.0692 10.2361 707 63.4144 656.328 515.487
271 0 72.137 9.9117 715 63.8182 655.922 516.477
272 0 72.1851 9.68344 699 64.2046 656.225 516.006
273 0 76.147 11.7536 895 62.1352 655.741 513.393
274 0 78.1305 10.8792 850 62.7035 655.854 513.759
275 0 80.0461 10.419 834 63.6283 655.845 513.223
276 1 42.0152 10.8532 456 60.3004 655.925 531.41
277 0 41.0312 8.92005 366 62.3033 655.56 534.003
278 0 42.0361 9.3729 394 62.6624 655.292 531.645
279 0 45.0401 12.2558 552 59.4638 655.123 528.54
280 0 46.038 10.2741 473 62.3002 655.831 530.564
281 0 48.0397 9.45052 454 62.6189 655.592 530.418
282 0 49.0654 11.4541 562 62.3754 655.973 526.336
283 0 52.0358 11.1077 578 61.8997 655.088 527.808
284 0 53.0262 10.806 573 63.0925 655.433 525.586
285 0 55.0372 11.3014 622 62.2235 654.781 524.534
286 0 57.0734 10.7931 616 63.0487 655.06 524.794
287 0 57.0577 10.6033 605 64.1322 654.955 522.426
288 0 58.1188 9.79028 569 65.4886 655.088 521.167
289 0 60.054 10.7237 644 64.1227 654.671 520.666
290 0 63.0451 10.1515 640 64.2547 654.403 521.914
291 0 65.0741 11.9402 777 62.5084 654.918 518.785
292 0 66.0759 11.063 731 63.8454 654.828 519.592
293 0 69.1993 11.1995 775 63.1084 654.6 517.895
294 0 70.0521 10.8205 758 64.5924 655.533 514.094
295 0 72.0595 10.2554 739 64.8552 655.041 515.448
296 0 74.0708 11.867 879 63.1024 654.637 512.702
297 0 77.066 11.6394 897 62.9376 654.447 514.211
298 0 80.061 12.9901 1040 61.3154 655.493 510.641
299 1 39.0555 7.60456 297 64.9933 655.02 530.976
300 0 41.0482 9.84209 404 63.4233 655.012 527.998
301 0 42.0321 10.5634 444 62.3311 655.27 527.45
302 0 41.0388 9.94181 408 64.6373 654.98 526.294
303 0 44.0743 11.1403 491 62.2974 655.719 528.334
304 0 44.0602 10.0771 444 64.0158 655.592 525.854
305 0 46.0764 11.0686 510 62.8039 655.298 525.19
306 0 47.0654 11.3884 536 63.1604 655.099 523.351
307 0 49.0935 10.7957 530 63.9811 654.934 523.175
308 0 51.0998 11.7417 600 61.7083 654.785 523.868
309 0 52.0687 10.1981 531 64.4539 654.682 522.414
310 0 52.0404 12.4711 649 62.057 654.81 520.203
311 0 53.028 10.9942 583 63.9537 655.189 523.01
312 0 55.0766 10.8576 598 64.087 655.42 520.047
313 0 58.1104 11.96 695 62.9065 655.335 518.317
314 0 59.047 10.9066 644 64.7857 654.314 519.028
315 0 61.0766 11.4446 699 63.6166 654.062 517.787
316 0 62.0463 11.2335 697 63.779 655.123 515.996
317 0 65.1285 10.7633 701 63.6576 654.468 515.452
318 0 65.0315 10.7486 699 63.6838 654.727 515.721
319 0 68.1578 11.4147 778 63.2429 655.478 512.572
320 0 70.0388 10.7512 753 63.9256 655.398 514.231
321 0 72.1118 11.2603 812 63.4384 655.626 511.814
322 0 73.0712 11.9472 873 63.1088 655.471 510.394
323 0 74.0731 11.2456 833 63.7743 654.981 508.604
324 0 78.083 10.5913 827 64.4039 655.2 507.906
325 0 82.1247 10.6545 875 63.8823 654.987 507.697
326 1 45.1116 9.7536 440 62.9159 654.448 527.241
327 0 47.0178 11.6339 547 60.5521 653.556 526.13
328 0 47.0907 9.6622 455 64.0549 654.804 524.635
329 0 48.0531 10.6133 510 63.8686 654.969 523.845
330 0 50.094 11.5183 577 62.6707 654.77 521.974
331 0 51.097 9.74618 498 64.8434 655.341 522.124
332 0 53.0611 10.9496 581 63.6231 655.098 520.909
333 0 53.0544 11.4599 608 63.3043 654.785 520.117
334 0 57.0338 11.6247 663 62.3167 654.697 519.175
335 0 58.0506 11.5761 672 62.6324 655 518.286
336 0 58.0394 10.9753 637 63.9294 654.799 516.898
337 0 60.0878 11.9658 719 63.1015 654.79 514.75
338 0 59.1569 11.8329 700 63.4429 655.144 514.75
339 0 65.1425 12.4189 809 61.7182 656.002 515.682
340 0 67.1769 11.1943 752 62.9854 655.196 515.698
341 0 68.0868 11.4266 778 62.7494 655.156 516.145
342 0 69.1312 12.0929 836 62.86 654.847 512.139
343 0 74.0975 13.9951 1037 59.9016 654.682 512.267
344 0 74.1021 10.58 784 64.5319 655.079 510.04
345 0 76.1142 11.6404 886 63.5688 655.331 508.449
346 0 77.134 11.2661 869 65.1922 655.259 505.437
347 0 81.0758 11.2117 909 64.4345 655.734 507.875
348 0 84.1804 12.0931 1018 63.9322 655.748 506.618
349 0 87.0849 12.0802 1052 63.6445 655.231 503.452
350 0 90.1149 11.8737 1070 64.2551 655.078 503.166
351 1 45.0704 13.0463 588 60.8112 655.573 524.65
352 0 45.0874 11.1117 501 62.8962 655.711 524.04
353 0 46.0795 11.8491 546 62.9469 655.419 522.482
354 0 49.0967 12.9336 635 61.3276 656.197 523.362
355 0 49.1471 11.0688 544 64.0092 654.98 521.695
356 0 53.0866 11.4718 609 62.4351 654.911 520.429
357 0 54.1264 11.4547 620 63.2226 655.356 520.287
358 0 55.1717 11.0201 608 63.2105 655.806 519.836
359 0 54.147 11.8012 639 63.2739 656.336 517.238
360 0 57.1517 9.97345 570 64.8263 655.686 519.528
361 0 61.0704 12.33 753 61.9203 655.773 517.142
362 0 63.0936 11.3165 714 62.5462 655.326 518.368
363 0 65.0952 10.8764 708 63.3023 655.314 517.01
364 0 66.0823 10.1843 673 64.7533 655.823 514.343
365 0 65.0683 10.927 711 64.2405 655.512 513.058
366 0 70.0606 12.7747 895 62.1162 656.038 510.049
367 0 71.0735 11.9313 848 63.5861 655.458 511.081
368 0 73.1258 12.1298 887 63.7407 656.18 509.933
369 0 77.1601 11.7677 908 64.6112 655.2 507.528
370 0 78.1348 11.6209 908 64.7412 655.524 509.52
371 0 81.1394 12.0657 979 64.9786 655.611 505.174
372 0 85.0792 12.0594 1026 65.0809 655.159 505.339
373 0 87.1322 11.9359 1040 65.275 655.518 504.805
374 0 88.0776 11.3196 997 66.8907 655.034 503.078
375 0 90.1417 11.249 1014 67.2347 655.329 502.26
376 0 93.076 11.6679 1086 67.07 655.84 499.159
377 0 97.1763 10.7331 1043 67.9329 655.972 503.044
378 1 53.1297 8.82745 469 66.791 656.021 524.164
379 0 55.1184 10.4321 575 65.3096 655.81 523.151
380 0 56.0798 11.02 618 65.3172 655.031 520.667
381 0 59.1146 10.2513 606 65.9092 655.04 519.271
382 0 61.0893 12.1462 742 63.0377 654.828 519.023
383 0 62.1256 11.4928 714 64.5798 655.214 517.678
384 0 64.0419 10.6493 682 65.5073 654.897 516.975
385 0 65.0576 11.6205 756 65.3823 654.448 514.328
386 0 67.052 11.4985 771 65.1219 654.764 514.485
387 0 70.0513 10.892 763 65.6501 655.043 514.342
388 0 72.0836 10.8624 783 66.0217 655.069 513.812
389 0 76.0961 12.4185 945 63.9482 654.977 513.212
390 0 76.1526 10.9517 834 66.3741 654.89 511.537
391 0 78.1082 11.2536 879 66.7122 653.98 509.192
392 0 80.1658 11.4014 914 66.9004 654.788 508.487
393 0 84.0594 11.48 965 67.0218 655.296 507.087
394 0 85.221 11.2883 962 67.7214 655.401 506.257
395 1 47.0911 11.9768 564 63.0603 655.02 525.963
396 0 48.0303 11.6177 558 64.5072 655.013 525.788
397 0 49.0443 10.0521 493 66.2738 655.412 524.026
398 0 51.0653 12.6505 646 62.7802 655.585 524.889
399 0 51.1207 10.9153 558 65.9821 655.369 522.545
400 0 53.0739 10.8528 576 65.3056 655.953 522.148
401 0 54.061 11.1911 605 64.914 655.78 520.836
402 0 58.1384 10.8534 631 65.3518 655.927 521.117
403 0 58.0871 9.6407 560 66.8982 655.8 520.041
404 0 62.0726 10.826 672 64.9062 655.433 518.652
405 0 61.053 11.2034 684 65.1491 655.42 516.867
406 0 64.1125 10.7155 687 65.8559 655.584 515.911
407 0 66.0271 11.3741 751 64.5886 655.799 515.18
408 0 67.0559 11.0057 738 64.5081 656.262 517.195
409 0 68.023 11.4373 778 63.9743 656.184 515.946
410 0 70.0964 10.186 714 65.2563 655.816 514.661
411 0 74.032 10.3199 764 64.8809 655.8 514.168
412 0 75.076 10.163 763 64.903 655.478 512.613
413 0 79.199 10.8082 856 63.4065 655.701 512.376
414 1 39.0358 8.86366 346 62.1387 655.39 529.405
415 0 38.025 8.86259 337 62.638 655.282 527.638
416 0 42.0386 9.2772 390 61.5692 655.036 528.867
417 0 43.0436 9.78078 421 61.6603 655.52 526.513
418 0 46.1168 10.4951 484 60.4731 654.841 526.147
419 0 46.1351 10.4476 482 60.3071 655.081 526.766
420 0 46.0754 9.81002 452 61.292 655.009 523.883
421 0 48.0742 9.44374 454 61.3282 655.377 525.93
422 0 51.0874 11.6076 593 59.4064 655.1 522.17
423 0 51.0468 9.44232 482 61.3693 655.407 523.635
424 0 52.0512 10.2399 533 61.045 655.077 519.482
425 0 54.0844 8.80106 476 62.4601 654.336 518.395
426 0 53.0655 9.51654 505 62.0218 654.917 519.148
427 0 56.0511 8.42089 472 62.8072 655.701 518.422
428 0 59.0881 8.66503 512 61.8945 655.506 517.676
429 0 61.1731 9.33417 571 61.2592 656.082 516.709
430 0 64.1411 10.2586 658 60.0775 655.862 515.46
431 0 66.2029 11.5101 762 58.6352 656.178 514.97
432 0 68.2094 10.585 722 60.0291 655.26 510.319
433 0 71.262 11.4367 815 58.7325 655.332 511.789
434 0 70.1368 8.4549 593 62.1636 655.386 509.408
435 0 75.0699 10.4569 785 60.344 655.071 508.14
436 0 78.1319 9.16398 716 61.0712 654.63 505.672
437 0 79.2034 9.87331 782 61.1969 655.373 505.051
438 0 82.1751 9.52844 783 61.4521 655.441 507.954
439 0 85.2511 10.299 878 60.6469 655.039 506.624
440 1 42.0266 10.5171 442 58.4683 654.805 525.344
441 0 44.0438 10.5804 466 58.0923 654.187 527.152
442 0 48.128 10.4305 502 57.8745 654.1 527.281
443 0 47.061 8.81835 415 60.7663 654.147 523.887
444 0 46.0406 9.64366 444 60.9369 653.793 523.189
445 0 48.0416 9.76238 469 61.0597 653.842 522.433
446 0 53.181 10.6429 566 59.9205 654.097 521.35
447 0 52.0967 11.6898 609 59.6158 654.58 521.146
448 0 53.2076 10.5248 560 61.4161 654.434 520.423
449 0 56.1629 10.6654 599 60.6711 655.207 520.073
450 0 56.1313 10.422 585 61.4581 655.274 517.631
451 0 59.0759 11.4091 674 60.1128 654.696 515.182
452 0 61.2737 10.9182 669 60.6203 654.584 515.871
453 0 62.2592 10.6651 664 60.5753 654.443 518.328
454 0 63.0507 10.4361 658 62.079 654.834 515.289
455 0 64.1631 9.32 598 63.2057 653.873 515.806
456 0 66.1068 9.53004 630 63.9524 654.565 511.619
457 0 70.0744 10.446 732 62.6844 654.529 511.016
458 0 72.0811 11.3899 821 62.3788 654.58 510.879
459 0 76.209 11.1929 853 62.8863 654.566 507.859
460 1 38.0288 10.1239 385 62.387 654.735 526.932
461 0 41.0819 10.3695 426 61.7465 654.937 527.192
462 0 38.0529 8.85608 337 65.2908 654.576 527.282
463 0 42.0315 11.3486 477 61.0629 654.686 528.281
464 0 42.0675 11.8619 499 62.7154 654.591 525.545
465 0 43.1057 9.62749 415 65.9301 655.094 523.908
466 0 45.117 11.7251 529 63.4915 654.664 525.178
467 0 45.0919 9.40302 424 67.1415 654.413 525.205
468 0 46.1379 9.51495 439 67.4009 654.257 523.695
469 0 50.0796 10.5033 526 65.424 654.169 524.802
470 0 49.0736 10.5556 518 66.3108 654.237 524.288
471 0 51.0854 11.5297 589 65.2003 654.39 522.479
472 0 54.0801 11.7788 637 64.5667 654.391 521.871
473 0 55.0582 10.5706 582 66.1495 655.117 519.467
474 0 55.0761 10.9667 604 66.5497 654.745 518.831
475 0 59.1117 10.1672 601 66.782 654.396 520.754
476 0 60.0884 11.3666 683 65.3089 654.495 519.761
477 0 61.2195 11.7283 718 65.1031 654.762 518.096
478 0 61.1299 10.1587 621 67.723 654.325 517.514
479 0 64.0826 11.7348 752 65.5 654.823 515.604
480 0 65.0289 11.3642 739 66.272 654.21 513.8
481 0 71.1119 11.6858 831 65.16 654.438 513.064
482 0 72.1023 9.3617 675 67.9644 654.665 513.311
483 0 74.1293 11.9656 887 64.5006 654.95 512.309
484 0 76.0806 11.7113 891 65.0258 654.842 511.056
485 0 79.1079 9.94844 787 67.493 654.708 508.025
486 0 83.067 12.7849 1062 63.1412 654.8 508.25
487 1 44.0559 10.5548 465 63.6129 654.634 526.643
488 0 46.0135 9.23642 425 65.4424 654.367 526.875
489 0 50.0488 10.4498 523 62.6157 655.18 527.327
490 0 51.0246 9.44643 482 65.0373 654.461 524.475
491 0 54.053 12.4138 671 60.9896 654.431 524.162
492 0 54.0363 11.0851 599 62.9449 654.454 524.571
493 0 55.0651 11.1323 613 63.6493 655.352 521.442
494 0 56.0876 10.8937 611 63.6465 654.529 521.085
495 0 58.1068 11.0142 640 63.5656 654.978 520.205
496 0 60.1146 11.528 693 62.6898 654.505 519.429
497 0 59.0869 10.0361 593 64.9747 654.971 520.374
498 0 64.0649 11.2698 722 61.6676 655.078 520.096
499 0 65.0981 12.412 808 61.1869 654.115 516.057
500 0 67.152 10.5581 709 63.4767 654.375 515.508
501 0 69.0212 10.8807 751 63.1491 653.776 516.81
502 0 71.0872 11.3663 808 62.5644 653.889 516.2
503 0 72.0921 10.7224 773 64.26 654.428 512.688
504 0 75.1716 12.518 941 61.0797 654.205 511.6
505 1 40.0253 9.71885 389 61.9409 654.514 528.609
506 0 39.0708 9.95629 389 62.4473 654.434 527.329
507 0 40.0367 8.19249 328 63.8476 653.884 527.82
508 0 42.0856 10.5262 443 60.9413 653.054 526.618
509 0 43.0352 11.781 507 59.6647 653.712 526.211
510 0 46.082 10.1558 468 60.6432 654.233 526.303
511 0 46.1196 12.2074 563 59.2504 653.934 525.485
512 0 48.1403 11.1549 537 60.1657 653.747 524.458
513 0 50.1155 9.15885 459 63.0806 654.196 523.137
514 0 51.1364 11.1467 570 60.8421 653.674 522.47
515 0 53.1489 9.95317 529 61.9527 654.48 519.926
516 0 55.1187 11.4299 630 59.7825 654.576 523.244
517 0 56.2233 10.067 566 61.4982 654.486 520.502
518 0 59.1249 11.0444 653 59.7948 653.986 520.937
519 0 56.1676 8.52805 479 63.5512 654.768 518.95
520 0 60.1327 11.1587 671 59.6751 654.572 520.849
521 0 64.1829 9.75338 626 61.262 654.663 519.051
522 0 63.1025 9.2231 582 61.3058 654.716 520.682
523 0 65.1483 10.5452 687 59.8908 654.619 517.838
524 0 68.1103 11.0262 751 59.8162 654.826 515.423
525 0 69.0775 8.48323 586 62.0307 654.732 514.993
526 0 70.19 9.84471 691 61.152 654.417 512.366
527 0 74.0885 9.79909 726 60.4449 653.391 511.033
528 0 75.111 10.0118 752 60.3165 653.797 513.672
529 1 39.0415 10.015 391 57.5166 654.568 530.11
530 0 39.0527 7.45147 291 60.2509 654.986 529.553
531 0 40.0163 8.79641 352 59.3295 655.327 529.483
532 0 44.0389 10.6724 470 57.3638 654.887 527.64
533 0 44.0534 11.0775 488 57.5984 654.633 525.381
534 0 44.086 9.61757 424 59.375 653.988 525.868
535 0 47.1208 9.18915 433 59.2979 653.711 525.938
536 0 48.1702 10.2553 494 58.753 654.02 524.613
537 0 47.169 7.12332 336 62.5536 654.31 521.527
538 0 51.0558 9.20562 470 59.6617 654.189 522.772
539 0 52.0865 9.82981 512 59.4082 653.754 521.902
540 0 56.1685 11.3765 639 57.4038 653.362 520.463
541 0 56.1252 10.4588 587 58.724 653.47 521.688
542 0 57.1753 8.67507 496 61.0927 653.637 518.44
543 0 60.1042 10.3986 625 59.2832 653.283 518.782
544 0 60.0816 10.2194 614 59.8094 653.314 516.66
545 0 62.0823 11.066 687 58.933 653.504 515.754
546 0 63.2898 10.681 676 59.0414 653.263 517.856
547 0 67.2268 10.6803 718 59.2382 653.313 514.049
548 0 68.0849 11.28 768 58.9883 652.927 512.141
549 0 71.2877 10.7312 765 59.3699 652.856 511.014
550 0 75.1698 10.9619 824 59.0473 653.325 511.432
551 0 77.2609 12.4513 962 57.9948 653.326 509.062
552 1 41.1449 9.84325 405 58.8988 652.938 527.595
553 0 42.0769 9.41134 396 60.154 653.548 524.126
554 0 42.0988 11.1167 468 58.3355 653.664 527.891
555 0 44.099 10.3857 458 58.821 653.838 525.288
556 0 43.0376 9.34066 402 59.8483 653.699 524.42
557 0 48.1266 9.30877 448 58.2589 654.257 526.924
558 0 47.1368 10.862 512 57.5137 653.42 525.184
559 0 48.1386 9.36878 451 59.2417 653.455 524.157
560 0 50.2016 10.0993 507 59.2308 653.927 522.615
561 0 49.1105 9.50917 467 60.6081 652.773 522.756
562 0 54.1464 11.7644 637 57.1805 653.102 521.959
563 0 55.2018 10.9779 606 58.4686 653.122 520.14
564 0 58.3146 10.8378 632 58.1962 653.19 521.655
565 0 60.1426 11.3564 683 57.5417 653.091 517.975
566 0 62.1416 12.2623 762 56.5052 653.93 518.139
567 0 62.2011 11.6718 726 57.6364 654.059 518.03
568 0 64.1152 12.0252 771 57.4267 653.427 518.815
569 0 65.1124 11.7489 765 58.2013 653.142 515.894
570 0 65.0619 11.758 765 58.6967 653.417 516.992
571 0 70.1868 11.9966 842 57.5926 653.158 514.434
572 0 70.0865 10.7296 752 59.7899 653.644 514.483
573 0 71.1221 11.6841 831 59.148 653.561 511.929
574 0 75.1742 12.3181 926 58.2495 653.684 512.244
575 0 78.1196 12.0584 942 58.6592 653.225 510.688
576 0 79.1335 11.9798 948 58.9304 652.958 509.665
577 0 82.0834 11.8172 970 58.8464 652.68 510.108
578 1 42.0214 9.97111 419 59.1432 654.088 528.317
579 0 42.0456 10.7978 454 58.7467 654.242 529.009
580 0 45.0298 11.0816 499 58.8778 654.715 525.295
581 0 46.0749 9.89693 456 59.8136 654.16 527.344
582 0 45.0472 9.94513 448 59.6674 655.886 525.998
583 0 44.1284 9.1551 404 60.3911 655.812 526.109
584 0 48.0492 11.072 532 57.8346 655.577 526.5
585 0 49.0524 11.5183 565 57.6018 655.165 523.614
586 0 51.0866 10.3158 527 58.5218 655.084 524.835
587 0 53.0813 11.115 590 57.8508 654.519 523.129
588 0 53.0824 9.41932 500 59.694 654.202 521.714
589 0 55.2893 12.1543 672 56.7307 654.228 521.896
590 0 57.0995 11.5938 662 57.0483 654.402 522.284
591 0 58.1579 11.3484 660 57.3758 653.632 520.652
592 0 60.1886 11.331 682 58.0909 654.042 518.465
593 0 60.1323 11.8738 714 57.4258 654.027 518.139
594 0 63.1471 13.9991 884 55.0837 654.062 517.303
595 0 63.1681 11.4457 723 57.8091 654.048 518.178
596 0 64.1655 11.9846 769 57.7802 654.3 515.148
597 0 69.0754 11.5816 800 57.4538 654.292 515.048
598 0 70.4327 13.0479 919 56.0958 654.894 512.479
599 0 71.1048 10.8572 772 58.8938 654.873 512.12
600 0 74.1576 12.1363 900 57.4567 655.143 513.282
601 0 74.1207 11.7106 868 58.5922 653.827 511.616
602 1 36.0642 9.84355 355 59.231 654.592 530.876
603 0 36.1312 11.0708 400 59.145 654.545 527.88
604 0 39.0494 9.93612 388 59.5541 654.552 528.652
605 0 39.1018 11.8153 462 58.8247 654.554 529.134
606 0 40.0162 11.1205 445 59.1461 655.254 529.058
607 0 42.049 11.4628 482 59.4751 655.189 526.672
608 0 42.054 10.5103 442 61.1471 655.217 526.348
609 0 44.0514 10.9872 484 60.2293 654.81 524.992
610 0 44.0495 12.2135 538 59.1264 654.76 526.093
611 0 44.0887 11.3861 502 60.5737 655.04 524.193
612 0 48.0141 12.1006 581 59.1084 654.764 524.268
613 0 50.0658 13.9217 697 57.2783 654.369 523.527
614 0 52.0956 11.3445 591 59.4112 654.604 523.325
615 0 53.0932 11.9036 632 59.799 654.905 522.547
616 0 54.0748 12.4642 674 58.8843 654.682 522.595
617 0 54.1514 11.5971 628 60.3615 654.893 520.93
618 0 57.1255 11.641 665 60.0286 654.162 521.212
619 0 59.086 13.1503 777 58.0965 653.97 521.987
620 0 61.1017 10.6053 648 61.6466 653.917 519.386
621 0 64.047 12.6782 812 58.8436 653.904 518.463
622 0 66.0873 14.6927 971 56.9166 654.157 515.81
623 0 69.0525 13.3087 919 58.4712 653.975 516.059
624 0 70.1215 12.407 870 59.5529 654.398 515.083
625 0 72.1229 12.2153 881 59.7548 654.26 514.932
626 0 74.1329 12.3427 915 60.0055 654.356 512.934
627 0 78.0735 12.2961 960 60.3438 653.786 510.499
628 0 80.122 11.7446 941 60.7545 654.153 513.567
629 1 39.0551 10.5236 411 60.871 653.964 528.226
630 0 40.027 11.892 476 59.6828 654.359 529.889
631 0 41.0185 9.9711 409 63.1883 654.445 528.69
632 0 42.0092 11.3785 478 61.8933 654.341 526.416
633 0 44.1013 12.4713 550 61.6055 654.973 527.144
634 0 44.0855 11.2282 495 62.297 654.475 527.64
635 0 44.0742 11.2084 494 63.1376 654.192 526.502
636 0 45.0546 10.7203 483 63.8861 654.358 524.896
637 0 48.0293 12.4507 598 62.0134 653.431 523.54
638 0 54.1475 14.2573 772 58.0531 654.023 523.947
639 0 52.1111 10.8998 568 63.0176 654.144 522.579
640 0 53.0546 11.6107 616 61.6997 654.094 523.688
641 0 55.1807 11.0546 610 62.7115 654.249 522.443
642 0 57.1292 11.4827 656 62.7119 654.364 521.724
643 0 57.1248 12.8315 733 62.2538 654.112 518.351
644 0 60.1007 11.4641 689 63.1277 654.08 516.853
645 0 62.1572 13.9163 865 60.7468 654.747 516.595
646 0 64.091 12.1078 776 62.634 653.91 518.506
647 0 66.1403 12.2164 808 63.0829 654.45 516.115
648 0 68.103 12.7454 868 63.1993 654.808 513.07
649 0 70.053 11.8767 832 64.2019 654.341 514.593
650 0 72.084 11.556 833 64.6987 654.281 514.205
651 0 75.1905 12.8873 969 63.1713 654.818 514.091
652 0 78.2529 14.3893 1126 61.8766 654.314 511.376
653 0 80.1922 13.0312 1045 63.6344 654.332 507.77
654 0 83.3023 11.5243 960 65.6354 653.703 508.462
655 0 82.0653 11.5152 945 66.1026 653.449 507.256
656 0 85.2425 9.71347 828 67.5326 653.905 509.013
657 1 44.1503 9.49031 419 66.2625 654.823 528.088
658 0 47.13 8.9964 424 68.0708 654.674 525.196
659 0 46.1446 10.7922 498 66.7872 654.04 523.711
660 0 49.1161 12.216 600 65.1683 654.37 523.328
661 0 49.2046 10.4462 514 67.214 654.49 523.549
662 0 50.1884 9.44442 474 68.8017 653.675 523.141
663 0 54.07 11.855 641 65.7036 654.192 522.02
664 0 57.1248 11.5011 657 65.7017 653.648 520.601
665 0 57.2117 11.7284 671 64.7764 654.295 522.113
666 0 56.177 10.8229 608 66.648 654.266 519.633
667 0 60.279 10.6671 643 66.3126 653.451 518.193
668 0 62.217 10.817 673 66.2615 654.336 518.42
669 0 66.1066 11.8294 782 65.312 654.068 514.38
670 0 67.1564 12.3145 827 65.006 654.804 513.689
671 0 69.0794 12.0441 832 64.9399 654.517 513.655
672 0 72.1129 10.858 783 65.7484 654.812 514.052
673 0 73.1103 9.45147 691 68.1346 654.731 510.722
674 0 76.1528 11.687 890 65.6708 653.997 511.731
675 1 36.0369 9.74003 351 67.0399 654.684 527.023
676 0 41.1993 11.1167 458 64.4629 654.755 526.852
677 0 42.1568 11.1251 469 64.7058 655.352 526.97
678 0 40.1292 10.5659 424 66.7476 655.257 526.601
679 0 44.1201 10.6981 472 66.197 654.996 525.97
680 0 45.1348 12.5402 566 63.5442 654.65 525.793
681 0 46.066 11.5486 532 66.3177 655.336 524.848
682 0 47.051 11.6682 549 66.5282 655.217 523.452
683 0 49.1171 11.7067 575 66.1391 655.609 524.143
684 0 51.1941 11.1732 572 66.1608 654.684 525.035
685 0 50.1387 9.31415 467 69.8672 654.608 522.475
686 0 54.1679 13.6982 742 64.3046 655.055 522.062
687 0 53.1492 11.8346 629 68.6184 655.354 519.27
688 0 57.1059 11.7326 670 67.2358 655.206 521.037
689 0 56.116 10.906 612 70.6176 655.399 517.528
690 0 62.0484 13.7151 851 65.1622 655.456 518.94
691 0 62.1373 11.5229 716 68.8715 655.38 518.679
692 0 65.2491 12.3833 808 67.5606 655.426 517.959
693 0 67.1082 12.0701 810 68.3679 654.896 516.225
694 0 70.2061 11.9363 838 68.1909 655.227 514.493
695 0 71.0979 12.4476 885 68.0644 654.71 513.515
696 0 74.2436 12.432 923 67.9545 654.112 513.169
697 0 78.1058 13.4689 1052 66.999 655.036 511.596
698 1 41.1455 11.4472 471 66.2017 655.062 530.399
699 0 41.0637 9.22956 379 69.9657 655.301 529.612
700 0 43.1614 10.1943 440 68.95 654.357 527.605
701 0 44.1784 11.0009 486 68.6708 654.644 525.959
702 0 45.2147 11.0362 499 68.6092 655.05 526.228
703 0 46.1718 11.4139 527 67.8046 653.835 527.013
704 0 48.1994 12.801 617 65.6564 653.768 525.016
705 0 49.1753 11.3065 556 67.8363 654.002 524.953
706 0 53.3492 13.1773 703 64.4495 654.02 523.582
707 0 52.1623 11.2917 589 67.4669 654.316 524.014
708 0 54.181 10.1696 551 68.8476 654.808 523.474
709 0 55.1039 11.8503 653 66.7734 655.159 522.926
710 0 57.0935 11.2272 641 68.1326 654.335 521.236
711 0 59.0875 13.5562 801 65.3858 654.608 519.78
712 0 61.0552 12.89 787 66.4219 654.28 518.487
713 0 61.0919 11.6873 714 68.2115 654.745 518.779
714 0 65.16 12.078 787 66.9784 653.925 518.196
715 0 67.0672 12.3906 831 66.6643 654.48 516.993
716 1 33.0489 10.8324 358 66.0894 655.355 532.95
717 0 33.0665 10.5545 349 67.8138 654.519 532.53
718 0 35.0707 10.3505 363 66.6942 654.534 532.906
719 0 38.0475 10.6183 404 66.3936 655.062 532.577
720 0 36.0313 11.2957 407 67.2334 654.862 530.717
721 0 39.0428 12.5503 490 64.7735 654.188 530.616
722 0 39.1136 11.8373 463 66.6393 654.33 529.892
723 0 41.1708 11.4887 473 66.4863 654.07 530.154
724 0 41.0316 10.9184 448 68.0089 654.065 527.828
725 0 42.1135 11.564 487 67.5708 654.119 527.468
726 0 45.0717 12.4912 563 65.9964 654.471 527.277
727 0 44.1213 11.6497 514 67.4747 654.383 527.457
728 0 46.0451 11.3367 522 67.2893 653.935 525.282
729 0 48.1195 10.9727 528 67.6004 654.411 525.419
730 0 48.0496 11.6338 559 67.1807 654.53 524.295
731 0 51.0478 11.2835 576 67.0885 654.637 522.46
732 0 54.0746 12.7601 690 64.5435 654.558 522.6
733 0 55.0759 11.8564 653 66.0674 654.415 523.418
734 0 57.1085 10.4363 596 67.4463 653.943 521.495
735 0 57.1471 10.6217 607 66.9736 653.972 519.478
736 0 61.1162 13.2207 808 62.8861 654.405 520.03
737 0 62.0694 12.4055 770 63.7442 654.155 519.332
738 0 63.1063 13.295 839 62.5101 654.621 517.746
739 0 66.0919 12.6491 836 63.2751 654.953 516.963
740 0 68.057 10.6822 727 65.3425 655.404 518.139
741 1 31.0739 9.94405 309 66.1003 655.071 530.133
742 0 35.0528 11.4684 402 63.1741 654.298 532.963
743 0 36.0155 11.7727 424 62.8467 654.868 530.321
744 0 36.1126 10.2734 371 65.3801 653.733 529.493
745 0 38.0969 10.867 414 64.2754 654.341 529.722
746 0 39.0169 12.7124 496 62.4032 654.657 528.022
747 0 40.0848 11.1513 447 64.1521 654.881 528.908
748 0 42.1805 13.0866 552 61.7971 654.989 528.65
749 0 43.0436 11.8949 512 63.2168 655.256 528.283
750 0 44.1199 10.6981 472 65.3347 654.57 524.981
751 0 46.187 12.7958 591 62.0948 655.015 525.428
752 0 45.022 11.772 530 64.7547 654.113 524.704
753 0 47.0593 12.6861 597 63.7806 654.152 524.61
754 0 49.063 12.6572 621 63.6296 654.042 523.971
755 0 49.1568 10.7818 530 66.0642 654.408 524.713
756 0 51.135 12.731 651 63.5484 654.126 523.476
757 0 55.1164 13.3173 734 62.3638 653.779 522.349
758 0 57.1061 13.6238 778 61.6684 654.226 522.351
759 0 55.0194 10.6144 584 66.3288 653.832 521.007
760 0 57.0995 11.0859 633 65.91 653.259 519.573
761 0 60.0576 13.2872 798 63.3609 653.771 519.147
762 0 62.0566 11.9085 739 65.1191 654.702 519.13
763 0 62.0617 12.2942 763 65.6579 654.67 516.345
764 0 67.0519 12.3337 827 65.4571 654.692 514.888
765 0 70.0714 12.3446 865 65.0578 654.268 516.571
766 1 34.1039 10.9665 374 66.0508 654.171 532.241
767 0 36.0161 11.5226 415 64.4578 654.299 532.542
768 0 33.071 10.5833 350 68.2629 654.283 530.66
769 0 37.0258 11.5055 426 65.6385 654.315 531.765
770 0 38.0313 10.3073 392 67.0485 654.464 531.156
771 0 43.1897 12.3872 535 62.815 655.213 531.645
772 0 41.1028 12.2376 503 65.5209 654.422 528.068
773 0 40.0147 11.9206 477 66.1866 654.499 529.476
774 0 43.0394 13.5922 585 63.9111 653.921 527.532
775 0 45.1629 11.2703 509 66.6876 653.806 526.32
776 0 47.0183 12.6547 595 63.6538 654.287 527.645
777 0 46.0456 12.0967 557 65.395 653.862 526.542
778 0 49.0406 12.7445 625 63.6768 654.562 524.51
779 0 51.0272 12.8559 656 63.2454 654.398 525.087
780 0 52.0825 12.7298 663 63.4796 654.231 524.805
781 0 55.1101 12.0305 663 63.8552 654.106 524.006
782 0 56.174 11.678 656 64.3216 653.91 524.023
783 0 57.0892 12.2615 700 63.5543 654.257 523.179
784 0 61.0592 13.3641 816 61.5502 654.376 523.493
785 0 61.0935 10.3448 632 65.4778 654.544 520.992
786 0 63.1331 12.3549 780 63.4269 654.504 518.883
787 0 63.0498 11.1816 705 65.0496 654.033 517.058
788 1 32.0492 10.9831 352 62.4233 654.165 534.665
789 0 32.0195 9.90023 317 64.0946 653.492 534.451
790 0 34.0411 11.3392 386 64.057 653.174 532.43
791 0 35.0647 10.723 376 63.2048 653.535 533.83
792 0 35.0258 11.8484 415 63.3518 653.12 532.087
793 0 35.0142 10.51 368 65.0462 653.617 531.361
794 0 38.1361 11.7998 450 63.2778 654.216 528.673
795 0 40.0238 13.2421 530 61.3415 654.108 529.615
796 0 39.0375 11.5274 450 64.2556 653.991 527.911
797 0 41.087 10.9037 448 64.0938 653.96 529.522
798 0 41.0841 10.3203 424 65.4363 653.986 527.512
799 0 43.1014 11.0669 477 64.2432 654.145 526.717
800 0 45.0407 11.7671 530 63.1453 654.415 526.336
801 0 49.0476 13.3748 656 60.0107 653.823 526.971
802 0 46.0783 11.3285 522 63.408 654.144 525.927
803 0 50.0684 10.8052 541 63.1978 653.649 524.754
804 0 51.0646 12.2002 623 62.2344 653.801 521.282
805 0 51.0589 11.7707 601 62.6855 653.869 521.263
806 0 53.059 10.6108 563 63.5311 653.83 522.817
807 0 55.0863 10.2385 564 63.3599 653.438 522.683
808 0 58.0895 10.5699 614 63.1319 653.588 519.933
809 0 60.0751 11.5522 694 62.2968 653.765 518.082
810 0 61.1336 11.0578 676 61.787 653.433 519.3
811 0 60.0536 9.97442 599 63.7663 653.791 515.691
812 0 68.0336 12.3175 838 60.3866 654.741 516.508
813 0 69.1185 13.7734 952 58.4706 654.366 515.067
814 0 70.1502 11.4183 801 61.9014 653.933 513.69
815 0 74.0211 11.1725 827 61.7219 653.651 512.817
816 1 34.0064 8.88068 302 62.9205 654.156 531.944
817 0 36.055 9.20815 332 62.9187 654.545 529.506
818 0 39.0101 10.3563 404 61.6535 654.304 529.55
819 0 41.1094 11.7005 481 59.4491 654.299 530.152
820 0 40.0542 12.2084 489 59.2495 654.333 530.403
821 0 44.1617 13.5185 597 57.1474 654.543 529.382
822 0 43.0388 10.2698 442 61.8439 654.136 528.412
823 0 45.0682 11.649 525 60.1448 653.109 526.234
824 0 46.0244 12.2978 566 59.6095 653.459 525.44
825 0 50.1684 12.757 640 58.4078 653.603 525.67
826 0 50.0397 13.1296 657 58.5251 653.807 523.011
827 0 53.0611 12.5139 664 58.8795 654.33 524.887
828 0 53.0232 12.9189 685 58.6175 654.575 522.133
829 0 54.0798 12.8329 694 58.8718 654.389 522.751
830 0 58.0507 12.9197 750 58.4267 654.631 522.331
831 0 60.1158 12.1599 731 59.4063 654.239 520.795
832 0 59.0964 11.2866 667 61.1079 654.234 519.712
833 0 61.0908 10.4598 639 61.3631 654.574 520.912
834 0 62.062 10.5217 653 61.7381 654.631 517.73
835 0 67.0778 11.345 761 60.2746 654.56 519.591
836 0 66.0738 11.018 728 61.6992 654.262 514.666
837 0 70.0661 11.5177 807 60.834 654.642 514.25
838 0 73.042 11.6234 849 60.8822 654.581 514.464
839 0 73.0996 11.3681 831 61.2828 654.56 515.176
840 0 75.0602 11.8571 890 61.1337 654.593 513.031
841 1 39.0303 9.42856 368 61.962 654.495 530.432
842 0 40.0355 11.0652 443 61.2032 655.077 529.363
843 0 39.0144 9.61184 375 63.36 655.035 529.365
844 0 42.0184 11.019 463 61.622 655.298 529.905
845 0 45.0857 10.469 472 61.7839 654.807 527.047
846 0 45.024 10.1501 457 63.5799 654.676 525.171
847 0 47.0534 12.2202 575 60.5652 655.09 526.924
848 0 48.0164 10.1424 487 63.2772 654.674 527.259
849 0 50.1182 13.967 700 58.8857 654.624 525.01
850 0 52.0873 12.9206 673 59.9034 654.612 526.14
851 0 55.0463 12.9164 711 59.4726 654.675 525.381
852 0 55.1905 12.0854 667 61.3058 654.325 522.577
853 0 58.0303 12.5279 727 60.5653 654.849 522.506
854 0 61.0706 13.6072 831 59.2371 654.566 520.877
855 0 58.0721 11.4341 664 62.7274 654.217 518.117
856 0 64.0594 14.6739 940 58.0692 654.555 518.622
857 0 64.1122 10.1073 648 63.2639 654.066 519.786
858 0 67.1041 12.4732 837 61.2557 654.295 516.404
859 0 70.0734 11.2025 785 62.2306 654.655 518.414
860 0 72.1406 13.5569 978 60.5828 653.914 512.734
861 0 76.1541 14.3919 1096 60.0228 654.562 515.174
862 0 78.1349 12.1713 951 63.0662 654.4 514.401
863 0 79.1456 12.5465 993 62.8137 653.087 513.276
864 0 81.2296 11.486 933 64.7417 653.582 509.369
865 1 43.1124 12.2239 527 62.6186 654.03 528.71
866 0 45.1209 10.4608 472 64.6886 653.896 528.364
867 0 47.0437 13.4556 633 60.8736 653.967 528.371
868 0 46.0306 9.36334 431 67.5661 654.993 526.896
869 0 49.0434 12.2137 599 63.9533 654.114 525.347
870 0 52.0616 13.0807 681 62.5815 653.51 524.652
871 0 50.0952 11.4981 576 65.7014 653.675 524.116
872 0 55.0706 14.1636 780 61.9269 653.819 523.522
873 0 56.1274 12.24 687 64.4934 654.115 523.374
874 0 58.1265 11.1653 649 65.6394 653.726 523.217
875 0 60.0789 12.7166 764 63.7722 653.528 521.637
876 0 60.0594 10.1233 608 67.5 653.87 522.74
877 0 64.0818 13.8417 887 62.637 654.727 518.371
878 0 64.0919 12.8253 822 63.0998 653.725 520.698
879 0 68.1886 12.0841 824 64.3592 653.992 517.411
880 0 69.0518 13.2509 915 63.0022 654.286 517.099
881 0 69.084 12.4486 860 64.7221 654.051 515.912
882 0 74.1481 13.0684 969 63.6842 654.009 515.208
883 0 76.101 13.9289 1060 62.2396 654.465 514.727
884 0 79.1218 14.4714 1145 62.007 653.971 513.357
885 0 81.2609 13.0567 1061 64.2535 654.126 510.794
886 1 40.1393 11.8338 475 64.2526 653.741 530.947
887 0 39.0759 10.1853 398 66.9422 654.656 531.178
888 0 42.0272 11.5877 487 64.9918 654.657 530.55
889 0 46.0764 12.3925 571 63.683 654.672 528.021
890 0 42.0373 11.2519 473 66.3911 654.533 528.932
891 0 48.0327 11.7212 563 64.389 654.666 528.222
892 0 46.0609 12.8526 592 64.3868 654.976 525.292
893 0 50.145 12.4838 626 64.2428 654.422 525.899
894 0 50.0284 10.7739 539 66.3061 653.998 524.456
895 0 52.038 12.3179 641 64.3479 653.111 524.7
896 0 55.0258 12.7031 699 63.8598 653.711 522.305
897 0 55.1231 13.5878 749 63.1255 653.769 520.475
898 0 58.0926 13.3752 777 62.8044 653.987 523.445
899 0 58.0389 12.4572 723 64.5311 654.297 524.196
900 0 60.0545 12.6718 761 64.2352 654.464 521.658
901 0 64.0538 13.395 858 63.035 654.146 521.68
902 0 65.0783 12.2007 794 64.6008 654.428 521.029
903 0 67.1108 13.515 907 64.1555 654.466 517.123
904 0 70.1094 12.509 877 64.9145 654.633 518.904
905 0 71.0833 12.2673 872 65.3016 654.179 518.476
906 0 75.1354 12.8967 969 64.7523 654.64 516.843
907 0 76.1135 12.6522 963 65.4071 654.484 517.357
908 0 78.1821 11 860 68.3326 653.906 513.723
909 0 80.3132 12.3765 994 67.6992 654.636 515.408
910 0 81.0961 10.4691 849 70.172 654.543 514.445
911 1 38.0401 9.72658 370 71.7811 654.968 531.359
912 0 44.0465 12.3279 543 67.7808 654.838 530.131
913 0 42.0901 12.1406 511 68.6067 655.211 530.957
914 0 44.0157 12.5864 554 68.3339 654.805 530.814
915 0 46.1271 13.0292 601 67.8619 654.073 529.388
916 0 45.0435 13.1429 592 68.2399 653.747 530.522
917 0 47.1239 12.2019 575 71.9304 653.939 530.804
918 0 48.1035 12.9305 622 69.2267 653.868 535.299
919 0 47.0388 12.7342 599 72.1703 653.755 533.775
920 0 46.0657 12.6124 581 74.1274 654.026 533.585
921 0 49.0743 14.4882 711 71.7876 653.433 531.696
922 0 48.1407 14.7069 708 72.8969 653.544 530.473
923 0 46.2951 14.4292 668 74.1332 652.931 530.859
924 0 47.2217 14.9084 704 73.5895 652.982 528.733
925 1 110.57 13.0325 1441 75.1756 653.337 504.041
926 0 119.348 12.6856 1514 75.1222 653.482 501.262
927 0 123.272 12.8821 1588 74.4295 653.705 500.24
928 0 126.36 12.963 1638 74.9231 653.444 497.581
929 0 132.259 14.1465 1871 73.9482 652.814 489.925
930 0 137.193 14.7967 2030 72.6803 652.971 492.159
931 1 65.1562 13.0609 851 71.9882 653.314 522.83
932 0 67.0887 12.9381 868 71.356 653.391 524.199
933 0 67.1542 12.9553 870 72.6966 653.641 519.874
934 0 70.0822 9.07506 636 74.956 653.517 524.181
935 0 67.1905 11.4302 768 74.7734 653.868 517.693
936 0 71.2315 13.5333 964 70.7189 653.75 522.784
937 0 73.2491 12.5872 922 71.9306 653.523 521.885
938 0 74.048 13.6128 1008 72.3929 653.802 520.477
939 0 72.4104 12.6501 916 75.4629 654.002 519.705
940 0 73.2879 11.9119 873 77.2944 653.675 518.596
941 0 73.2303 12.7953 937 76.0235 653.302 519.734
942 0 75.1537 14.131 1062 76.4049 653.683 516.95
943 0 76.2525 13.2061 1007 77.5432 653.363 516.762
944 1 142.749 13.128 1874 78.5726 654.536 487.177
945 0 144.588 12.3316 1783 79.7252 654.127 484.892
946 0 150.641 13.0973 1973 77.9017 654.41 483.476
947 0 152.752 13.1782 2013 78.0343 654.085 484.173
948 0 157.682 14.1487 2231 76.8198 654.812 479.682
949 0 161.633 13.7843 2228 77.5076 655.091 477.217
950 1 49.0549 13.4951 662 72.7719 654.473 529.6
951 0 50.3018 13.6973 689 72.9855 654.855 530.035
952 0 51.1929 12.0525 617 74.5608 655.729 529.64
953 0 54.1528 12.4832 676 74.3018 655.112 526.602
954 0 53.2284 12.4745 664 74.5889 654.748 526.364
955 0 55.1203 11.8468 653 75.9342 654.429 523.178
956 0 60.0947 13.1293 789 73.5526 654.028 525.169
957 0 59.1187 13.8027 816 74.0074 655.245 521.722
958 0 60.1771 11.6822 703 76.4737 654.384 524.626
959 0 62.1473 14.1438 879 74.1923 654.49 523.371
960 0 62.1678 13.6405 848 75.9116 654.129 521.454
961 0 62.2129 13.6788 851 76.0458 654.821 523.765
962 0 63.0991 15.3726 970 74.0361 654.803 523.986
963 1 97.3467 16.6929 1625 59.6868 655.102 514.028
964 0 91.6289 19.6663 1802 56.9229 655.019 507.517
965 0 94.1714 17.3195 1631 60.7658 654.27 512.282
966 0 93.5413 23.1983 2170 54.1747 653.705 502.798
967 0 95.9764 16.2436 1559 63.016 654.306 511.558
968 0 86.3037 24.7035 2132 56.197 653.867 508.748
969 0 91.3225 17.367 1586 63.7194 654.415 508.977
970 0 95.3119 18.0145 1717 62.2423 654.321 508.106
971 0 95.2991 23.1587 2207 57.1749 653.962 504.522
972 0 92.4982 25.4383 2353 56.7718 653.895 505.493
973 0 94.3348 16.9715 1601 66.263 654.181 506.34
974 0 99.2447 22.0767 2191 59.2273 654.061 501.298
975 0 99.7252 18.8117 1876 63.6493 653.84 504.795
976 0 100.321 19.5174 1958 63.407 653.79 504.116
977 0 103.542 19.847 2055 63.3085 653.678 503.702
978 0 101.411 17.6805 1793 67.1813 654.02 506.816
979 1 50.3352 13.6882 689 72.7228 654.373 532.086
980 0 54.209 13.9276 755 72.2636 653.656 529.413
981 0 56.1902 14.789 831 71.698 653.797 528.328
982 0 54.3939 12.722 692 74.4624 653.91 528.318
983 0 57.1356 12.1115 692 74.7876 653.66 527.484
984 0 59.3035 14.3162 849 72.3922 653.879 526.027
985 0 60.3267 13.775 831 73.5247 654.141 524.256
986 0 63.3072 14.9588 947 70.3126 654.54 525.495
987 0 63.2168 14.9169 943 70.5716 653.842 526.636
988 0 66.3548 14.7992 982 70.8605 653.968 523.778
989 0 67.3534 15.3667 1035 70.1285 653.646 522.918
990 0 67.2381 13.6976 921 72.3084 653.204 522.68
991 0 70.3266 14.5464 1023 71.2053 653.603 520.472
992 0 71.4163 14.0584 1004 71.6245 653.214 521.759
993 0 74.1826 14.1138 1047 71.6371 654.225 519.488
994 0 76.2678 16.7174 1275 67.8345 653.85 520.194
995 0 78.4589 13.0897 1027 72.7205 653.982 516.517
996 0 79.5365 13.4404 1069 72.9934 654.003 514.376
997 0 80.1277 12.505 1002 70.9611 654.924 514.196
998 0 81.1424 12.2131 991 72.3623 654.177 510.18
999 0 86.1075 14.2729 1229 68.8641 653.517 511.795
1000 0 88.242 12.3864 1093 71.3934 653.764 509.694
1001 0 91.085 13.6027 1239 69.5125 654.328 509.684
1002 0 92.0685 13.3053 1225 70.5396 654.587 508.369
1003 1 49.4313 12.8259 634 70.3959 655.268 528.483
1004 0 49.1564 11.9415 587 71.5315 654.574 528.254
1005 0 48.0965 11.4977 553 73.9765 654.477 525.62
1006 0 54.2366 12.3533 670 70.8328 654.1 526.788
1007 0 54.1381 12.5051 677 72.13 654.148 524.578
1008 0 54.0402 12.3612 668 70.5883 654.054 527.608
1009 0 58.1771 13.8542 806 68.8064 653.861 525.964
1010 0 58.0824 11.2599 654 73.1284 654.563 522.945
1011 0 62.1785 14.0402 873 69.228 654.558 523.313
1012 0 65.1494 13.4153 874 70.2014 654.871 522.137
1013 0 66.0614 10.9595 724 71.9641 654.786 523.877
1014 0 65.0443 12.2071 794 72.2002 653.94 520.899
1015 0 69.135 13.3073 920 69.5163 654.51 521.48
1016 0 70.128 12.6198 885 71.1412 653.913 520.414
1017 0 76.1612 14.8763 1133 67.9894 653.985 518.731
1018 0 76.0653 13.002 989 71.5794 654.209 515.025
1019 0 79.0878 12.1005 957 72.6385 653.781 514.402
1020 0 80.1978 12.5689 1008 72.0327 653.641 514.078
1021 0 83.2139 11.3202 942 73.4873 653.814 513.811
1022 0 87.1514 13.1725 1148 71.4808 653.43 511.308
1023 0 90.106 12.0081 1082 73.7431 653.609 509.126
1024 1 44.0777 12.4553 549 71.5392 653.767 529.933
1025 0 47.0726 12.0877 569 71.9139 654.33 529.75
1026 0 48.1821 14.2376 686 69.57 654.104 530.356
1027 0 47.0204 13.2921 625 71.3008 653.918 530.448
1028 0 49.0703 13.1852 647 72.6012 652.787 526.11
1029 0 51.0261 14.0712 718 70.9192 653.606 526.997
1030 0 53.0871 13.9205 739 70.6549 653.16 525.851
1031 0 54.0485 13.1918 713 71.6157 653.036 525.83
1032 0 55.1078 12.0491 664 72.5256 652.685 525.118
1033 0 57.0472 12.7263 726 71.7961 653.318 523.326
1034 0 59.0841 12.8292 758 71.2876 652.97 523.142
1035 0 62.0586 14.6958 912 68.0285 653.344 520.817
1036 0 66.0427 13.9304 920 67.812 653.048 523.547
1037 0 66.2014 12.1599 805 70.6559 652.343 518.52
1038 0 69.1402 13.1327 908 68.859 652.204 518.891
1039 0 70.162 13.1695 924 69.3831 651.763 516.893
1040 0 74.1053 14.5199 1076 66.7249 651.802 518.903
1041 0 73.1401 11.5532 845 70.6296 651.611 517.353
1042 0 81.0922 12.27 995 69.6171 652.569 515.663
1043 0 81.1641 13.2325 1074 68.0447 652.22 511.762
1044 0 82.1223 14.3079 1175 67.0826 652.248 511.483
1045 0 85.0836 13.3986 1140 67.1596 651.901 511.765
1046 0 90.1435 14.8541 1339 65.4055 651.965 509.228
1047 0 92.0784 15.4216 1420 64.5634 652.325 508.566
1048 0 95.0968 13.2917 1264 66.9438 652.562 506.066
1049 0 97.0986 12.8529 1248 67.6827 653.425 504.277
1050 0 100.203 13.5725 1360 66.8948 652.408 503.151
1051 0 103.205 13.9432 1439 65.9034 652.691 505.422
1052 0 107.2 13.6288 1461 66.5044 652.173 499.871
1053 0 109.154 13.0549 1425 67.5874 652.453 501.272
1054 1 59.1186 13.0416 771 66.8054 652.534 525.144
1055 0 62.0639 12.1488 754 67.1247 652.695 525.328
1056 0 65.1436 13.2937 866 65.8418 652.999 523.495
1057 0 68.1113 13.5073 920 65.6978 652.99 521.863
1058 0 69.3882 13.1434 912 66.4868 653.127 519.868
1059 0 71.1361 11.724 834 68.5468 652.644 517.942
1060 0 75.0986 13.1693 989 66.455 652.585 516.332
1061 0 78.1132 13.6213 1064 65.5564 653.118 519.86
1062 0 81.1359 13.1877 1070 66.4878 652.427 516.331
1063 0 82.1028 12.5452 1030 67.3641 653.047 515.343
1064 0 86.0725 14.7899 1273 65.0542 653.209 511.749
1065 0 87.2284 14.2843 1246 66.5554 652.897 507.274
1066 0 92.2782 12.8524 1186 67.4182 653.873 510.895
1067 0 96.0671 11.8979 1143 68.4226 653.819 508.175
1068 0 99.1937 13.8114 1370 66.0591 653.661 506.234
1069 0 103.15 12.9036 1331 66.6814 653.914 509.011
1070 0 108.108 13.246 1432 66.9553 653.857 504.029
1071 1 57.0893 13.908 794 63.1977 653.856 531.416
1072 0 57.1711 13.2235 756 66.0106 653.835 527.07
1073 0 58.0981 13.5461 787 64.6722 653.651 528.922
1074 0 61.0421 12.2866 750 66.4773 653.459 526.013
1075 0 65.1208 13.283 865 64.3387 653.394 525.845
1076 0 67.1657 13.2955 893 64.1971 653.83 525.518
1077 0 70.0946 14.081 987 63.0385 653.691 525.324
1078 0 71.0427 12.5277 890 66.0764 653.457 520.708
1079 0 73.0886 13.5178 988 64.7267 652.967 520.649
1080 0 77.178 14.1102 1089 63.8999 653.318 518.911
1081 0 79.067 13.8617 1096 64.4608 652.751 517.881
1082 0 79.0746 12.3428 976 66.7111 652.83 515.181
1083 0 86.2068 13.5256 1166 64.2213 653.242 517.508
1084 0 88.1414 13.4443 1185 64.9705 653.075 513.578
1085 0 89.0678 12.7094 1132 66.2942 653.328 512.742
1086 1 47.1437 12.0695 569 65.594 653.366 532.647
1087 0 46.0462 12.987 598 64.9498 653.997 531.759
1088 0 50.065 11.5849 580 66.1034 653.09 530.624
1089 0 50.0687 11.8038 591 66.6379 653.827 530.541
1090 0 52.1979 12.4718 651 66.4869 653.642 526.74
1091 0 55.1152 11.3036 623 67.4318 653.73 525.812
1092 0 57.115 14.2169 812 63.9224 653.564 525.363
1093 0 58.1455 11.7292 682 67.0425 653.397 524.054
1094 0 58.069 13.0018 755 65.6026 654.142 522.193
1095 0 62.0296 13.413 832 65.0276 654.303 521.198
1096 0 65.1501 12.4942 814 65.484 653.858 518.577
1097 0 67.0524 12.3933 831 65.1974 653.832 518.312
1098 0 67.0751 11.42 766 66.4347 653.111 518.394
1099 0 70.0688 12.0168 842 65.3005 653.679 514.925
1100 0 74.1845 12.8733 955 63.6084 653.404 517.114
1101 0 76.0744 12.3826 942 64.3333 652.745 514.704
1102 0 80.0809 12.4624 998 64.9279 653.131 512.138
1103 0 81.0585 11.5596 937 66.0939 652.991 511.108
1104 0 87.0508 12.3491 1075 64.6623 652.984 512.332
1105 1 44.035 11.1956 493 65.2028 653.112 530.014
1106 0 47.1321 12.2634 578 63.8512 652.841 529.886
1107 0 47.173 13.9274 657 62.3927 652.521 528.428
1108 0 51.0316 13.6974 699 62.2961 653.805 527.953
1109 0 49.083 11.1036 545 66.1431 653.793 524.615
1110 0 54.0705 11.5035 622 64.4196 654.352 527.387
1111 0 56.107 12.6544 710 63.4761 654.184 524.325
1112 0 56.0314 11.1545 625 65.2576 654.232 523.667
1113 0 58.0598 13.6067 790 62.7266 654.022 522.475
1114 0 59.0654 13.0364 770 63.6169 653.434 518.778
1115 0 63.0741 11.4469 722 64.3795 653.705 520.769
1116 0 66.0465 12.4609 823 63.2564 653.7 517.78
1117 0 69.1374 13.8709 959 61.6204 654.431 516.658
1118 0 70.0527 12.9617 908 62.6729 654.188 516.85
1119 0 74.0761 13.4726 998 61.7024 653.287 513.869
1120 0 74.1562 11.6646 865 63.9746 653.797 514.494
1121 0 77.1753 12.8279 990 62.6061 654.133 513.2
1122 0 82.2054 12.8824 1059 62.8083 653.602 509.236
1123 1 43.0621 10.0785 434 63.9747 654.134 530.272
1124 0 45.2016 12.6544 572 61.1783 654.348 529.108
1125 0 49.3697 11.4038 563 62.3552 654.696 528.361
1126 0 49.0273 12.8908 632 60.6725 654.076 529.829
1127 0 49.0318 11.6251 570 63.5702 654.039 527.36
1128 0 51.0674 11.2009 572 64.2622 653.67 523.727
1129 0 55.1586 12.1105 668 62.1362 654.322 525.31
1130 0 56.1391 13.6981 769 60.6008 654.492 525.391
1131 0 53.062 13.1921 700 62.8971 653.609 521.987
1132 0 59.1092 10.9966 650 64.6815 654.314 522.385
1133 0 60.0657 13.5851 816 61.6287 653.789 520.505
1134 0 61.0516 12.8743 786 61.9796 653.552 522.45
1135 0 64.3417 13.9101 895 61.0905 654.437 518.302
1136 0 68.1745 12.0866 824 61.9915 654.024 521.106
1137 0 69.1365 13.5384 936 61.0972 653.842 516.995
1138 0 70.1263 14.0889 988 60.6528 653.597 516.389
1139 0 69.1513 11.0482 764 64.9162 653.957 512.873
1140 0 75.0636 13.6551 1025 61.2693 653.826 514.807
1141 0 75.1875 14.6035 1098 61.0319 654.213 509.423
1142 0 82.0894 13.668 1122 61.2656 654.343 511.089
1143 0 81.0907 13.935 1130 61.677 653.954 508.492
1144 0 87.1908 13.4074 1169 61.8161 654.012 508.5
1145 0 89.0791 13.0558 1163 62.8547 653.675 506.788
1146 0 90.0658 14.1341 1273 61.8884 654.489 506.958
1147 0 93.1906 14.0143 1306 62.304 653.723 503.643
1148 0 98.0988 13.2519 1300 63.4892 653.288 500.9
1149 0 100.109 13.1557 1317 63.8762 653.413 500.995
1150 0 103.158 12.8734 1328 64.4292 653.55 498.242
1151 0 106.217 12.4933 1327 65.1914 653.303 499.178
1152 1 47.1013 12.5686 592 62.6926 653.252 525.588
1153 0 49.0885 11.3061 555 64.582 653.67 524.315
1154 0 53.2229 11.9122 634 62.735 654.12 526.082
1155 0 52.114 12.7413 664 62.5858 654.334 523.184
1156 0 53.1059 10.8086 574 65.0209 653.681 520.052
1157 0 57.2096 11.6239 665 64.206 653.959 519.477
1158 0 60.0234 13.0116 781 61.63 654.287 522.456
1159 0 60.0347 12.8093 769 62.8947 654.58 519.667
1160 0 62.0809 13.1603 817 62.3941 654.131 519.422
1161 0 65.0571 13.3268 867 61.7451 654.048 519.915
1162 0 68.3278 11.9863 819 62.8046 653.57 518.316
1163 0 68.1464 13.2215 901 62.2442 653.758 516.646
1164 0 71.0834 13.3083 946 62.1268 653.49 516.114
1165 0 73.1245 13.5933 994 62.005 653.576 512.99
1166 0 75.1724 13.1032 985 62.4995 653.639 511.487
1167 0 76.1833 11.8924 906 63.6302 654.302 514.448
1168 0 79.1372 11.499 910 64.3286 654.409 511.596
1169 0 83.1642 13.792 1147 61.544 653.845 509.163
1170 0 86.281 12.552 1083 62.5965 653.904 509.003
1171 0 86.2052 12.9575 1117 62.1656 654.026 507.536
1172 0 90.1416 12.3805 1116 62.5493 653.593 506.997
1173 0 95.157 12.4951 1189 61.9302 653.495 506.108
1174 0 97.2561 12.8527 1250 61.4808 653.959 505.899
1175 1 50.1119 9.49875 476 61.2752 654.231 528.941
1176 0 54.0283 12.2899 664 59.4789 654.227 527.158
1177 0 55.147 12.5301 691 60.4573 654.624 523.755
1178 0 56.098 12.3356 692 60.6994 654.773 524.9
1179 0 58.0664 14.2768 829 59.1254 654.756 520.688
1180 0 59.0641 13.1552 777 59.8803 653.764 522.947
1181 0 62.0691 12.7116 789 60.7883 653.323 519.677
1182 0 62.1061 11.9151 740 62.4338 654.089 519.573
1183 0 63.1567 12.0177 759 62.2411 653.751 519.22
1184 0 67.1878 12.6065 847 61.8926 654.151 517.778
1185 0 70.1378 13.3166 934 60.469 653.932 517.642
1186 0 70.1239 12.3638 867 62.2122 653.735 517.084
1187 0 71.0981 12.0256 855 62.6246 653.352 516.758
1188 0 75.139 13.0159 978 61.365 653.642 515.07
1189 0 75.1515 12.8673 967 62.4012 654.122 512.447
1190 0 78.1753 11.5893 906 63.777 653.978 510.442
1191 0 79.2468 13.9816 1108 61.4386 653.674 509.915
1192 0 81.212 14.4437 1173 61.601 653.741 506.935
1193 0 84.198 12.9219 1088 62.2583 654.358 510.004
1194 0 85.0584 13.1204 1116 62.8701 654.411 506.193
1195 0 89.1142 11.7153 1044 63.9492 654.249 501.624
1196 0 91.1851 13.2039 1204 62.7907 653.68 498.841
1197 0 95.3029 12.2871 1171 62.8574 653.173 504.054
1198 0 99.2271 13.4439 1334 61.6409 653.1 500.018
1199 0 101.109 11.6607 1179 63.7108 653.414 500.178
1200 0 103.178 12.8225 1323 62.3643 654.371 499.731
1201 0 110.172 16.4834 1816 51.9196 653.804 497.727
1202 0 110.282 13.3385 1471 61.4432 654.271 498.551
1203 0 113.1 13.6162 1540 61.3831 654.41 494.412
1204 0 118.113 12.5897 1487 62.4116 653.245 491.411
1205 0 119.206 11.4675 1367 63.5699 653.345 492.351
1206 1 57.1077 12.5377 716 60.2877 653.746 522.494
1207 0 58.3249 12.619 736 61.0299 653.723 520.37
1208 0 56.0522 8.31367 466 66.2382 654.53 519.487
1209 0 62.0525 11.6836 725 62.1186 654.611 519.952
1210 0 64.1036 13.135 842 60.9774 654.236 517.135
1211 0 66.1972 12.7951 847 61.2137 653.731 518.244
1212 0 67.0717 12.2704 823 62.0134 654.022 517.831
1213 0 71.1116 12.628 898 62.3853 653.955 515.39
1214 0 73.042 12.13 886 63.1287 654.746 511.396
1215 0 79.1004 13.0846 1035 61.372 654.042 510.649
1216 0 81.1865 13.8077 1121 60.8938 654.126 511.12
1217 0 84.1393 13.1092 1103 62 654.279 509.388
1218 0 85.1083 14.2407 1212 61.2888 653.914 510.364
1219 0 89.1559 13.4147 1196 62.4214 653.898 509.811
1220 0 93.1373 13.1311 1223 63.2616 653.662 506.993
1221 0 96.12 13.8473 1331 62.3892 653.823 506.6
1222 1 51.0204 12.1128 618 63.6472 654.036 526.4
1223 0 53.0625 10.7043 568 65.4472 653.884 525.116
1224 0 55.0474 13.116 722 63.1274 654.486 526.043
1225 0 57.0459 12.8844 735 63.8626 655.257 523.735
1226 0 58.1588 12.2252 711 65.0155 655.2 523.021
1227 0 58.0704 12.4848 725 65.8979 655.497 521.914
1228 0 60.1257 13.4053 806 64.9206 654.983 522.182
1229 0 63.1596 12.4922 789 66.3257 654.171 521.038
1230 0 68.1244 13.1231 894 65.4564 654.692 520.389
1231 0 67.066 11.0786 743 68.5949 654.618 520.611
1232 0 71.1875 12.2634 873 67.1695 655.011 519.049
1233 0 71.0811 14.2232 1011 65.7745 654.529 516.497
1234 0 75.0499 13.1113 984 67.2297 654.251 516.949
1235 0 75.2786 10.4678 788 71.2703 654.4 517.062
1236 0 78.1651 13.1261 1026 68.2914 654.024 514.924
1237 0 79.1376 12.4214 983 70.1618 654.261 514.884
1238 0 84.1087 13.6133 1145 68.0323 654.1 512.97
1239 0 85.1888 13.5933 1158 68.6183 653.951 511.026
1240 0 88.2674 12.4168 1096 70.5912 654.443 509.707
1241 0 89.1054 13.1193 1169 70.0428 654.219 510.778
1242 0 92.0971 12.2697 1130 71.731 654.43 507.909
1243 0 93.2336 12.0772 1126 72.5053 655.399 506.827
1244 0 99.2505 13.8538 1375 69.6742 655.119 504.645
1245 0 100.105 11.6079 1162 72.0043 654.33 506.819
1246 0 105.244 13.6539 1437 69.7418 653.819 502.351
1247 0 105.137 11.7466 1235 72.2032 654.755 502.453
1248 0 109.151 12.7346 1390 71.9209 655.081 498.174
1249 0 114.165 14.9783 1710 68.0538 654.552 499.895
1250 0 115.131 13.0721 1505 71.7043 654.672 495.158
1251 1 58.0917 13.6164 791 67.2478 655.129 525.465
1252 0 60.2338 12.5511 756 69.0265 654.821 524.098
1253 0 62.1338 13.0686 812 68.4532 655.387 523.395
1254 0 64.0648 12.5186 802 69.096 654.824 523.504
1255 0 64.1296 12.6774 813 69.1611 654.8 522.863
1256 0 66.0586 13.9422 921 67.6775 654.51 522.484
1257 0 66.1201 12.1597 804 69.9179 654.578 522.575
1258 0 69.2047 12.7881 885 68.591 655.033 521.188
1259 0 71.1532 12.7331 906 68.6898 654.699 521.045
1260 0 72.1599 13.1652 950 69.2442 654.95 518.408
1261 0 75.1012 12.7029 954 68.6184 653.587 518.965
1262 0 76.1595 12.789 974 69.5965 653.611 516.485
1263 0 78.1169 12.7373 995 69.5397 654.036 515.921
1264 0 81.1467 12.2987 998 69.4549 653.541 515.587
1265 0 83.1594 11.52 958 71.8121 654.186 509.427
1266 0 86.0826 13.9169 1198 68.9474 654.835 510.415
1267 0 89.1623 13.6717 1219 68.9803 654.815 511.006
1268 0 92.1138 14.8729 1370 67.7146 654.752 508.01
1269 0 95.149 14.1673 1348 68.6803 654.422 507.947
1270 0 95.1526 13.0632 1243 70.6541 653.875 509.068
1271 0 100.097 13.6967 1371 69.3362 653.334 507.339
1272 0 100.217 11.7544 1178 73.0408 654.001 502.706
1273 0 105.214 12.1181 1275 72.0141 653.871 503.445
1274 0 108.241 12.4445 1347 71.8211 653.67 503.22
1275 0 111.097 13.8798 1542 70.2912 653.972 502.925
1276 0 114.317 12.7803 1461 72.4942 653.965 498.437
1277 1 63.0534 11.7519 741 73.6937 655.136 520.982
1278 0 66.1075 11.3754 752 74.6516 654.638 522.282
1279 0 69.172 12.8376 888 72.0631 654.178 522.337
1280 0 71.0769 12.2684 872 73.8544 654.834 519.759
1281 0 71.0885 12.8432 913 73.3965 653.586 518.586
1282 0 77.3227 13.4631 1041 72.3208 654.481 515.476
1283 0 79.1892 13.1584 1042 71.9156 653.905 516.762
1284 0 80.3794 13.5856 1092 71.9606 654.122 513.954
1285 0 84.3488 13.0174 1098 71.8443 654.953 515.795
1286 0 87.2131 11.9821 1045 73.5081 654.951 513.234
1287 0 88.4213 13.4131 1186 71.7656 655.325 512.196
1288 0 90.4141 13.8695 1254 71.0486 654.176 511.1
1289 0 94.458 13.424 1268 71.2011 654.763 512.713
1290 0 98.4298 14.2132 1399 69.8513 654.764 508.841
1291 0 99.1913 11.9567 1186 73.2277 655.236 509.488
1292 0 102.276 12.3098 1259 73.1104 654.46 505.168
1293 0 107.331 14.3575 1541 69.7047 654.033 504.888
1294 1 65.2651 12.3496 806 72.0447 653.468 524.727
1295 0 64.526 12.0417 777 74.0952 654.203 522.524
1296 0 68.5892 13.1508 902 72.5177 654.672 521.207
1297 0 71.2112 13.4529 958 71.6774 653.921 519.49
1298 0 71.2351 11.7639 838 73.7912 653.817 519.517
1299 0 74.2696 12.9797 964 71.5467 654.202 520.232
1300 0 75.2779 12.5933 948 72.615 654.503 516.822
1301 0 80.3021 13.2126 1061 70.4204 654.364 518.534
1302 0 80.423 12.6829 1020 72.3902 654.81 515.224
1303 0 83.3977 12.6982 1059 71.9254 653.736 516.424
1304 0 84.5297 12.9895 1098 71.5446 653.723 513.188
1305 0 88.2613 14.9443 1319 68.3465 654.726 512.638
1306 0 89.3358 13.8914 1241 70.2796 654.502 508.812
1307 0 94.2994 13.1072 1236 70.9911 654.873 510.336
1308 0 96.4774 14.2313 1373 69.2782 654.356 506.521
1309 0 100.451 14.4647 1453 68.0757 654.262 507.739
1310 0 101.145 14.2073 1437 69.0974 654.29 504.652
1311 0 106.294 13.7072 1457 69.5683 654.762 502.099
1312 0 106.643 13.3905 1428 70.7829 654.595 499.242
1313 0 108.405 12.0658 1308 73.0084 654.53 500.075
1314 0 114.441 13.2295 1514 70.856 654.443 498.202
1315 0 117.532 14.0046 1646 69.5492 654.207 497.012
1316 0 121.531 14.268 1734 69.628 653.914 496.182
1317 0 122.452 13.2868 1627 71.4173 654.087 493.761
1318 1 55.3629 12.8967 714 68.7829 654.328 529.849
1319 0 54.399 11.1031 604 72.5977 654.682 526.604
1320 0 58.2674 14.8625 866 66.9677 654.708 527.374
1321 0 57.1382 12.286 702 71.1781 655.064 527.714
1322 0 60.2934 12.9699 782 69.8478 654.46 526.04
1323 0 62.2559 11.6294 724 71.5041 653.784 527.191
1324 0 64.1965 13.5833 872 69.8291 654.185 523.876
1325 0 64.4613 11.3401 731 72.9767 654.312 523.365
1326 0 66.283 13.0501 865 71.0728 654.519 521.271
1327 0 69.2068 12.2965 851 70.8002 654.149 522.987
1328 0 72.4897 13.2019 957 69.5977 654.553 521.114
1329 0 72.308 13.0553 944 70.1388 654.46 521.57
1330 0 77.1689 14.086 1087 68.2291 654.622 520.512
1331 0 78.2077 13.4258 1050 69.7505 654.55 518.633
1332 0 80.263 15.661 1257 66.2625 654.079 518.367
1333 0 82.3059 13.462 1108 69.5054 654.017 516.043
1334 0 84.3691 13.2157 1115 70.2708 654.591 515.253
1335 0 86.3086 12.4321 1073 71.3998 654.912 513.883
1336 0 87.4098 13.7628 1203 70.0066 655.235 511.201
1337 0 92.2931 12.3628 1141 70.6626 654.649 512.136
1338 0 95.3311 13.4059 1278 68.669 654.396 512.663
1339 0 97.3605 12.9313 1259 69.8165 654.054 509.243
1340 0 101.51 13.8213 1403 68.0478 653.957 509.751
1341 1 50.1674 12.0795 606 68.6898 654.495 531.439
1342 0 52.231 13.1531 687 67.8413 654.83 530.265
1343 0 51.1149 11.4252 584 70.3442 654.337 529.214
1344 0 53.2137 13.3424 710 67.2535 654.625 530.708
1345 0 55.2859 13.7829 762 67.6076 653.63 527.339
1346 0 55.1868 12.8835 711 68.9888 653.636 527.654
1347 0 60.1103 13.9743 840 66.5905 654.098 527.23
1348 0 61.2481 13.9106 852 67.4894 654.6 526.563
1349 0 62.4318 13.743 858 68.0618 654.934 524.161
1350 0 62.3432 12.1585 758 69.8786 654.693 527.055
1351 0 66.1618 14.4343 955 67.6293 655.575 524.044
1352 0 65.1174 12.0859 787 70.8526 654.494 525.402
1353 0 68.4492 13.8205 946 68.3795 653.926 523.846
1354 0 71.2835 14.1407 1008 68.4643 654.28 522.931
1355 0 72.2394 13.6768 988 70.0374 654.046 522.387
1356 0 71.2694 13.3297 950 71.16 653.898 521.494
1357 0 76.1619 14.9156 1136 69.6347 654.558 518.76
1358 0 77.1353 13.2754 1024 71.2646 654.891 520.13
1359 0 81.2857 13.4587 1094 70.979 654.762 518.274
1360 0 82.1492 12.3069 1011 73.3155 654.954 515.298
1361 0 84.1361 13.5257 1138 72.5844 655.074 512.618
1362 0 90.3018 16.0573 1450 67.9352 654.298 513.377
1363 0 91.1091 14.9272 1360 69.8963 654.11 512.402
1364 0 93.3196 12.8162 1196 72.4306 654.483 513.983
1365 0 95.353 14.3677 1370 71.1737 654.751 509.552
1366 0 98.2054 14.3271 1407 70.5068 654.362 511.107
1367 0 103.25 13.9371 1439 71.7179 654.623 507.156
1368 0 105.195 13.9931 1472 72.0489 653.965 507.087
1369 0 107.211 14.8119 1588 71.6612 654.39 503.548
1370 0 109.258 13.1981 1442 74.1949 654.495 504.127
1371 0 113.489 13.7723 1563 73.5969 654.828 503.36
1372 1 57.1715 12.996 743 73.3661 654.715 528.015
1373 0 61.2909 14.162 868 71.4194 654.543 527.377
1374 0 63.2163 14.917 943 70.456 654.202 527.016
1375 0 64.1099 14.0072 898 72.167 654.336 524.657
1376 0 65.2188 13.3857 873 73.071 654.071 525.079
1377 0 68.2384 13.4089 915 73.2842 654.401 522.692
1378 0 71.2929 13.7461 980 72.6561 654.205 523.002
1379 0 72.1482 13.6525 985 73.133 655.058 522.192
1380 0 75.3431 13.0337 982 74.4898 654.346 520.501
1381 0 78.2898 14.7912 1158 72.2738 654.56 519.322
1382 0 80.2909 15.1449 1216 71.7064 654.247 519.743
1383 0 80.2184 12.9272 1037 74.9344 654.04 520.493
1384 0 84.286 12.7661 1076 75.5957 654.099 518.204
1385 0 86.2462 14.076 1214 74.131 654.717 515.697
1386 0 89.2286 14.659 1308 73.2852 654.596 513.317
1387 1 48.3329 11.8553 573 75.2949 654.337 532.829
1388 0 50.1857 13.2109 663 73.0422 655.035 533.845
1389 0 51.1257 13.3201 681 74.0073 655.549 533.245
1390 0 54.2473 13.2173 717 74.2399 655.34 532.978
1391 0 55.3098 13.3792 740 74.3932 654.415 530.385
1392 0 56.2522 14.915 839 73.006 654.429 530.249
1393 0 59.2596 14.5462 862 72.9443 654.686 529.281
1394 0 58.3789 13.3953 782 76.2596 654.731 527.815
1395 0 60.1528 12.2854 739 77.065 654.704 528.041
1396 0 63.1599 14.3129 904 74.135 655.038 526.409
1397 0 65.2643 13.3917 874 75.5252 654.708 526.9
1398 0 64.2227 12.1297 779 77.9422 654.656 524.212
1399 0 68.3276 13.5084 923 75.403 654.37 523.524
1400 0 72.2862 14.6363 1058 73.5 654.283 524.441
1401 0 75.2393 14.6998 1106 73.4105 655.012 522.306
1402 0 74.2282 13.9704 1037 75.323 654.161 520.122
1403 0 79.3306 14.1686 1124 74.2811 654.532 520.034
1404 0 80.2246 13.6367 1094 75.6207 653.981 516.883
1405 0 82.2335 13.7535 1131 75.5809 653.432 514.693
1406 0 84.3581 14.7348 1243 73.7788 653.538 515.319
1407 0 89.2938 14.1443 1263 74.0206 653.714 514.427
1408 0 91.2289 13.2524 1209 75.6038 654.036 514.477
1409 0 94.2402 14.4206 1359 73.599 654.343 512.612
1410 1 49.2866 12.6403 623 74.3868 655.159 533.279
1411 0 51.1139 13.9492 713 73.5203 654.921 531.473
1412 0 51.1871 11.9757 613 76.4943 654.759 529.121
1413 0 56.0355 12.4029 695 74.341 654.655 529.676
1414 0 57.1237 13.1294 750 73.648 654.548 528.961
1415 0 58.1058 12.8386 746 73.6917 655.099 530.398
1416 0 60.2142 13.7177 826 72.7772 654.404 529.753
1417 0 61.1745 12.7177 778 73.9087 654.41 527.852
1418 0 63.3097 13.5208 856 73.3096 654.127 526.702
1419 0 64.0772 13.2652 850 73.2259 653.765 526.9
1420 0 65.2447 13.0279 850 74.3035 654.466 524.339
1421 0 69.2395 14.5148 1005 71.192 654.755 526.684
1422 0 72.1521 14.3031 1032 71.9952 654.523 524.319
1423 0 73.146 12.81 937 73.3127 653.657 524.19
1424 0 74.0977 12.7534 945 74.7831 654.629 519.89
1425 0 78.1397 13.5783 1061 72.8869 655.138 522.392
1426 0 78.1528 13.9854 1093 73.5087 654.876 521.653
1427 0 84.7965 14.2459 1208 72.9015 655.048 519.305
1428 0 83.4558 11.6828 975 77.1046 654.508 517.506
1429 0 87.1135 14.5557 1268 72.7019 654.331 518.558
1430 0 90.2111 13.291 1199 75.2085 654.641 514.266
1431 0 91.2699 14.8242 1353 72.9934 653.959 514.267
1432 0 95.1164 13.7095 1304 74.7868 654.074 513.747
1433 1 51.2232 13.1191 672 74.6146 654.167 533.195
1434 0 51.2589 12.0955 620 77.2581 654.65 532.571
1435 0 54.2083 12.95 702 76.0342 654.836 530.607
1436 0 55.2096 13.0956 723 75.3859 654.786 530.441
1437 0 56.0475 13.9524 782 75.0754 654.46 528.524
1438 0 57.1069 14.9544 854 73.308 654.979 530.198
1439 0 61.1844 12.0129 735 76.7388 654.793 526.524
1440 0 63.2196 13.0498 825 75.777 654.875 525.326
1441 0 65.4904 13.8188 905 73.8862 654.775 526.91
1442 0 67.3726 13.7741 928 74.0711 654.325 526.502
1443 0 67.1275 12.7518 856 76.0958 654.707 523.838
1444 0 70.2994 14.8365 1043 72.5149 654.535 524.659
1445 0 73.4562 12.9873 954 74.782 654.833 524.127
1446 0 75.2066 12.685 954 76.3952 654.965 520.536
1447 0 76.1965 13.8326 1054 74.0844 654.561 521.597
1448 0 78.2414 14.1357 1106 74.3843 653.924 519.601
1449 0 81.1866 13.1179 1065 76.0441 653.172 518.888
1450 0 84.1856 13.1139 1104 76.4149 653.744 518.148
1451 0 84.2709 12.0326 1014 79.6657 654.65 514.96
1452 0 87.1571 12.2881 1071 79.1587 654.028 516.377
1453 0 92.2127 14.9003 1374 74.6725 654.721 515.665
1454 1 48.0659 12.9406 622 74.5305 654.791 534.436
1455 0 47.0264 11.7381 552 77.5761 654.846 534.274
1456 0 48.0817 12.2708 590 78.1847 654.502 531.654
1457 0 48.2165 13.2527 639 76.2019 654.507 534
1458 0 49.101 11.6291 571 78.599 654.529 532.681
1459 0 52.038 13.0097 677 78.9424 654.304 528.839
1460 0 54.0799 13.7019 741 76.7881 654.382 531.108
1461 0 53.1156 12.5199 665 78.0571 654.758 532.075
1462 0 53.1533 12.0971 643 79.1617 655.016 531.051
1463 0 57.0463 12.8492 733 80.1855 655.001 526.664
1464 0 62.1271 13.1827 819 77.2137 655.051 529.186
1465 0 61.1119 12.2235 747 79.4311 654.605 527.751
1466 0 63.0814 12.254 773 80.2781 653.692 523.827
1467 0 67.2047 12.6182 848 78.3078 654.105 525.406
1468 0 70.2224 14.511 1019 76.2051 654.408 522.131
1469 0 71.1415 13.6348 970 76.8216 654.205 522.353
1470 0 73.2724 12.0782 885 79.3107 653.944 522.584
1471 0 73.1651 14.8841 1089 76.4141 653.952 518.871
1472 0 79.173 12.6432 1001 79.033 654.426 518.806
1473 0 78.1346 14.0655 1099 77.7944 653.954 517.442
1474 0 82.1073 13.0439 1071 78.1998 654.533 518.039
1475 0 83.2176 12.8458 1069 79.2975 654.096 516.297
1476 0 86.091 12.9979 1119 79.3164 653.88 514.742
1477 0 87.1761 11.7349 1023 81.044 654.839 514.88
1478 0 91.2625 14.0364 1281 77.74 654.767 511.788
1479 0 91.1258 11.6323 1060 82.1349 654.676 508.678
1480 0 95.1663 13.219 1258 78.6439 654.27 513.136
1481 0 98.1121 13.3011 1305 79.459 653.721 507.188
1482 0 102.112 13.6028 1389 78.7703 654.036 506.398
1483 0 103.124 12.2279 1261 80.8874 654.17 504.605
1484 0 107.165 13.7452 1473 78.6083 654.598 505.676
1485 0 111.114 13.3736 1486 78.1608 654.565 506.331
1486 1 57.1771 12.1727 696 78.4339 655.052 527.328
1487 0 59.0911 14.3338 847 75.0992 655.217 527.754
1488 0 61.0918 12.0474 736 78.6481 654.189 528.073
1489 0 62.0821 12.6123 783 78.2695 654.115 527.667
1490 0 66.161 11.4267 756 78.9802 654.246 525.421
1491 0 68.0865 12.0582 821 78.3739 654.569 524.798
1492 0 70.1421 13.3729 938 77.113 654.145 521.728
1493 0 71.2411 12.8016 912 78.1864 654.27 520.986
1494 0 73.1376 12.4697 912 78.273 654.746 520.825
1495 0 77.14 13.1579 1015 77.266 654.162 519.903
1496 0 79.1156 14.0301 1110 75.5054 653.73 519.188
1497 0 83.2268 12.5801 1047 77.3706 654.358 515.48
1498 0 85.1516 15.2082 1295 73.6649 654.202 514.945
1499 1 45.1993 11.8365 535 75.2505 654.85 536.284
1500 0 48.1827 12.2866 592 73.7179 654.579 535.184
1501 0 49.1115 11.647 572 75.1888 654.177 534.671
1502 0 49.0602 11.4145 560 76.7482 653.927 532.582
1503 0 52.0766 12.4816 650 73.6523 653.895 533.165
1504 0 52.1065 13.53 705 73.7716 653.797 529.526
1505 0 56.1271 13.5229 759 72.5916 653.812 530.108
1506 0 55.1313 12.7695 704 145.284 653.828 531.197
1507 0 58.0542 13.9352 809 72.958 654.126 529.094
1508 0 59.0743 12.662 748 75.0468 654.091 530.333
1509 0 60.1674 14.1937 854 74.0492 653.861 525.704
1510 0 63.0416 13.3087 839 73.5721 653.464 528.607
1511 0 65.0921 13.212 860 73.5279 654.081 527.804
1512 0 64.1957 11.4338 734 77.8202 653.882 523.21
1513 0 66.057 12.6557 836 76.0598 653.446 521.318
1514 0 68.1527 11.9731 816 76.2524 653.461 522.616
1515 0 72.1737 13.0103 939 74.6741 653.956 520.662
1516 0 73.1782 12.5994 922 75.1898 654.265 519.745
1517 0 78.1467 14.4088 1126 72.2593 654.109 519.418
1518 0 78.208 14.7683 1155 72.6017 654.333 517.354
1519 0 82.08 13.7305 1127 73.2777 654.601 516.39
1520 0 84.2118 14.5348 1224 72.0899 653.176 515.145
1521 0 89.0983 14.7253 1312 71.6837 653.549 512.441
1522 0 91.084 15.5241 1414 70.6959 653.426 512.76
1523 0 92.0529 13.1012 1206 73.7413 653.734 511.386
1524 0 98.064 14.1642 1389 72.0569 654.006 511.772
1525 0 99.1107 13.8229 1370 72.9518 653.652 507.286
1526 0 102.122 14.9527 1527 70.8599 653.742 506.274
1527 0 104.241 13.4016 1397 73.418 654.208 503.853
1528 1 55.0764 10.1677 560 75.9482 654.296 526.091
1529 0 61.1473 11.6931 715 71.7972 654.319 530.436
1530 0 62.1121 13.0892 813 71.6384 654.034 525.791
1531 0 64.1476 14.0925 904 69.9635 653.905 524.632
1532 0 66.0862 12.9982 859 71.2468 653.354 525.024
1533 0 67.1164 12.754 856 72.0853 653.569 521.57
1534 0 71.1643 13.4196 955 70.2639 653.961 522.183
1535 0 72.1561 12.5561 906 71.5055 653.805 522.001
1536 0 75.1564 13.7181 1031 69.8031 653.893 520.069
1537 0 79.1755 12.4786 988 70.0354 653.735 521.197
1538 0 81.0548 12.7321 1032 71.0678 653.984 516.235
1539 0 83.1922 14.2441 1185 68.8979 653.313 516.143
1540 0 87.0648 14.047 1223 68.9534 652.956 514.305
1541 0 89.2963 12.8785 1150 69.4496 653.2 513.981
1542 0 92.1022 15.7434 1450 66.3517 653.086 511.611
1543 0 94.2168 12.8533 1211 70.7514 653.638 511.87
1544 0 97.0766 12.897 1252 71.2899 653.58 508.831
1545 0 98.1888 11.5492 1134 72.4762 653.734 507.114
1546 0 103.232 13.9782 1443 68.9342 654.283 507.539
1547 0 106.208 13.2664 1409 70.2264 654.194 506.633
1548 1 56.1514 12.8581 722 67.5776 653.715 528.572
1549 0 58.1503 11.9002 692 68.5549 654.318 528.789
1550 0 60.106 12.6111 758 67.7282 654.142 528.045
1551 0 61.1532 11.7901 721 69.7448 653.524 526.437
1552 0 62.1095 12.2365 760 69.5592 653.596 525.43
1553 0 66.1195 12.6287 835 68.2252 653.71 523.802
1554 0 68.1059 12.0988 824 68.6905 653.317 522.335
1555 0 69.2112 12.0501 834 69.4436 652.836 520.393
1556 0 72.183 12.0388 869 69.0782 652.77 519.518
1557 0 75.1273 13.8032 1037 66.5391 653.383 519.23
1558 0 76.1632 13.2085 1006 66.9483 653.217 519.16
1559 0 79.2498 13.6909 1085 66.8876 652.813 515.661
1560 0 82.1763 12.1324 997 68.666 653.669 515.528
1561 0 83.2415 13.0103 1083 68.0065 653.818 513.801
1562 0 87.4271 10.8776 951 70.5783 653.364 510.838
1563 0 91.2476 13.7647 1256 66.7938 652.787 510.69
1564 0 92.1777 11.7382 1082 70.1146 653.408 507.895
1565 0 97.2722 12.0178 1169 69.2438 653.254 505.518
1566 0 100.377 13.2102 1326 67.6425 652.747 503.919
1567 0 103.171 12.3872 1278 68.8302 652.82 501.214
1568 0 106.36 14.1501 1505 66.5169 653.082 502.116
1569 0 109.208 12.1328 1325 69.0506 653.242 500.122
1570 0 112.19 12.9067 1448 68.2548 652.304 494.945
1571 0 117.307 14.023 1645 66.3495 652.509 496.202
1572 1 64.1307 10.9776 704 67.2273 653.371 522.885
1573 0 66.2236 11.1441 738 67.8238 653.728 521.367
1574 0 66.1952 11.5114 762 67.9777 652.972 517.525
1575 0 71.1682 11.803 840 66.5667 653.381 519.215
1576 0 72.2001 12.0221 868 67.1359 653.402 515.881
1577 0 72.1867 10.7361 775 69.2994 653.173 514.73
1578 0 76.244 10.4271 795 69.2956 653.342 514.614
1579 0 80.1549 12.7503 1022 66.3229 654.083 514.248
1580 0 80.0764 11.002 881 69.5823 653.548 510.663
1581 0 85.2647 13.0417 1112 66.7518 653.989 508.936
1582 0 88.1198 12.4376 1096 67.5511 654.244 509.107
1583 0 90.2339 12.8001 1155 66.7965 653.347 509.129
1584 0 96.0924 13.0083 1250 66.1288 653.602 509.403
1585 0 97.243 12.9572 1260 66.7643 653.851 508.899
1586 0 99.2757 11.322 1124 68.2678 654.193 507.508
1587 0 102.301 12.5707 1286 67.2652 653.897 503.737
1588 0 107.241 13.8846 1489 65.1276 653.471 504.403
1589 0 108.142 11.9288 1290 68.6178 652.769 495.233
1590 1 62.1221 10.7047 665 66.2 653.116 525.171
1591 0 61.0608 10.8908 665 67.5865 653.544 520.952
1592 0 64.1925 12.5871 808 64.8168 654.045 524.412
1593 0 66.4635 12.142 807 66.1648 654.094 519.492
1594 0 68.2241 13.2651 905 64.8232 654.082 519.484
1595 0 67.1249 10.7114 719 68.1933 654.172 517.44
1596 0 71.1605 12.5772 895 65.5676 654.02 518.333
1597 0 74.2152 13.3935 994 64.8692 653.254 517.014
1598 0 76.185 11.4721 874 67.1007 654.122 516.159
1599 0 78.2246 13.0905 1024 65.2022 653.505 514.517
1600 0 78.1949 11.7399 918 66.7135 653.539 515.023
1601 0 79.187 10.5699 837 69.239 653.92 510.969
1602 0 87.3357 13.9805 1221 63.8501 652.823 513.763
1603 0 88.3981 12.1835 1077 66.0316 653.471 513.369
1604 0 90.2285 13.4104 1210 65.2471 653.48 509.802
1605 0 94.1191 12.6329 1189 66.3785 652.799 509.639
1606 0 98.3199 14.819 1457 63.6129 653.954 510.309
1607 0 97.3494 13.467 1311 66.942 653.627 504.694
1608 0 101.346 12.5807 1275 67.6918 652.631 505.694
1609 0 105.209 14.0388 1477 66.1503 653.474 500.396
1610 0 108.305 12.1971 1321 68.3036 653.023 503.251
1611 0 110.553 12.6002 1393 68.2434 653.169 499.637
1612 1 17.0054 8.40908 143 56.6154 652.657 546.993
1613 0 17.0144 10.0503 171 56.0526 652.977 546.129
1614 0 17.0309 7.63317 130 58.1538 652.685 546.323
1615 0 15.0236 10.184 153 55.8627 653.739 547.02
1616 0 17.0224 7.93074 135 57.3111 652.926 547.504
1617 0 16.014 10.1786 163 57.1043 652.988 545.546
1618 0 17.0285 9.21986 157 57.3885 653.631 545.962
1619 0 18.0258 11.2061 202 55.8416 653.886 545.792
1620 0 17.0081 9.5249 162 55.8951 653.29 547.426
1621 0 17.0084 10.3478 176 56.233 653.511 546.994
1622 0 16.0672 8.02876 129 58.3721 653.248 547
1623 0 17.1569 10.8994 187 56.3316 653.332 546.241
1624 0 17.0648 10.0792 172 56.3721 653.343 546.86
1625 0 17.0064 10.2902 175 55.8457 653.76 547.726
1626 0 19.055 9.97116 190 56.021 653.81 546.447
1627 0 17.0464 11.4393 195 54.7692 653.21 547.097
1628 0 18.0052 10.9968 198 55.9141 653.389 546.854
1629 0 19.0248 6.78062 129 58.3023 653.271 547.837
1630 0 15.0139 7.32655 110 60.3182 652.927 546.955
1631 0 18.0056 7.44211 134 58.8955 652.985 546.925
1632 0 16.0647 9.95975 160 57.3625 653.694 546.562
1633 1 116.143 13.1218 1524 69.1686 653.972 500.859
1634 0 119.368 12.1138 1446 70.2552 653.595 498.797
1635 1 18.0115 10.4933 189 57.7354 654.302 545.847
1636 0 17.0315 7.69165 131 59.2137 654.26 547.092
1637 0 16.0177 8.61548 138 60.1956 653.594 545.833
1638 0 15.0248 7.85366 118 59.8729 653.924 546.364
1639 0 17.081 9.60133 164 57.5 653.561 548.122
1640 0 15.0247 9.917 149 58.9597 653.664 546.168
1641 0 15.0174 7.65779 115 58.6348 654.67 547.522
1642 0 15.0059 7.26381 109 58.789 654.349 548.771
1643 0 15.0588 6.70705 101 59.2772 654.099 547.931
1644 0 16.0251 9.79714 157 56.9618 654.293 547.974
1645 0 15.0114 8.52688 128 57.5 654.102 548.766
1646 0 17.0233 8.7527 149 59.0134 653.322 546.866
1647 0 18.0038 11.6087 209 57.2679 653.493 546.694
1648 0 16.0184 10.1758 163 58.3926 653.914 546.436
1649 0 16.019 8.6772 139 60.1439 654.173 545.604
1650 0 17.009 10.8766 185 59.1351 654.751 545.4
1651 0 17.0242 7.63617 130 62.5154 653.831 544.508
1652 0 18.0444 10.3633 187 60.1711 654.214 546.353
1653 0 17.0095 9.81803 167 61.2994 653.467 546.719
1654 0 18.0494 10.1389 183 60.694 653.842 546.153
1655 0 18.0382 8.53745 154 62.987 654.11 545.169
1656 1 72.3727 11.6757 845 74.3314 653.621 517.876
1657 0 75.2428 12.1075 911 72.7311 653.564 518.822
1658 0 77.2496 11.4823 887 73.1375 653.444 519.319
1659 0 79.2694 12.1232 961 72.8606 653.552 514.571
1660 0 82.2272 12.5019 1028 72.2938 652.949 515.763
1661 0 85.6791 11.9399 1023 72.2766 652.878 513.489
1662 0 89.3698 13.4833 1205 70.5768 653.159 512.502
1663 0 90.4202 13.2492 1198 70.9983 653.884 510.841
1664 0 93.6336 13.5315 1267 70.045 653.455 512.141
1665 0 95.306 12.8743 1227 71.2722 653.531 509.42
1666 0 96.2615 11.8947 1145 73.7712 653.217 505.583
1667 0 102.379 14.124 1446 70.0671 653.151 504.968
1668 0 105.297 12.9824 1367 71.8252 653.349 505.84
1669 1 22.0479 9.97827 220 62.9273 653.773 543.705
1670 0 24.0563 10.7248 258 61.9419 653.516 544.182
1671 0 23.0277 8.64177 199 65.3869 653.648 542.442
1672 0 25.018 10.5124 263 62.4791 653.916 543.635
1673 0 26.024 10.1829 265 63.3283 654.011 542.608
1674 1 128.258 14.6892 1884 68.7495 653.141 492.492
1675 1 76.2858 11.6929 892 69.4182 653.512 519.425
1676 1 28.0404 11.0198 309 63.7087 653.864 540.178
1677 0 30.0252 10.9575 329 63.8359 654.429 540.79
1678 0 28.0039 10.1414 284 64.993 653.803 540.644
1679 0 29.065 11.3194 329 63.8784 652.751 540.936
1680 0 31.0578 8.1461 253 64.9921 653.047 541.605
1681 0 31.0483 10.4031 323 64.7864 653.362 539.269
1682 0 30.013 9.79575 294 66.3299 653.452 538.99
1683 0 34.0488 11.7772 401 63.3865 653.551 537.99
1684 0 36.132 8.74571 316 66.0854 653.782 540.108
1685 0 33.0428 9.86598 326 66.9264 653.822 536.917
1686 0 35.0911 12.1113 425 64.4 654.188 535.461
1687 0 38.054 11.5888 441 64.78 653.8 535.694
1688 0 38.0327 11.8582 451 63.3969 653.896 537.783
1689 0 39.056 11.5475 451 64.4701 653.749 536.397
1690 0 38.0409 12.3025 468 64.9145 653.419 533.515
1691 0 41.0649 10.4956 431 66.5615 653.568 534.311
1692 0 42.0747 12.4303 523 64.5468 653.943 534.639
1693 0 42.0478 11.2491 473 66.5581 653.801 534.091
1694 0 45.0349 13.6561 615 63.0585 653.621 534.236
1695 0 45.0772 10.5153 474 66.8228 654.03 533.633
1696 0 46.1033 10.3246 476 65.7521 653.05 533.7
1697 0 49.1637 11.0854 545 65.9284 653.811 531.554
1698 0 50.0731 11.2236 562 64.2633 654.164 533.808
1699 0 47.0429 9.52323 448 68.3438 653.422 529.013
1700 0 50.1415 9.45324 474 67.7489 653.492 530.578
1701 0 52.1782 11.2691 588 65.3826 654.1 530.076
1702 0 54.102 11.4044 617 65.6515 654.031 528.214
1703 0 54.0953 9.79753 530 67.6962 653.43 529.474
1704 0 58.0828 12.947 752 64.0253 653.209 527.243
1705 0 56.0492 10.0626 564 67.4007 652.949 526.578
1706 0 60.164 10.3717 624 66.4119 653.79 529.019
1707 0 61.085 10.3954 635 67.3244 653.72 525.572
1708 0 66.1019 13.2825 878 63.4749 653.457 524.444
1709 0 66.0784 8.52019 563 68.4263 653.705 526.075
1710 0 67.0894 8.76442 588 68.2772 653.264 524.111
1711 0 72.161 11.1695 806 65.3288 652.641 519.976
1712 0 75.1987 11.0241 829 65.5476 652.405 516.752
1713 0 78.147 13.3722 1045 62.0555 652.559 517.465
1714 0 76.0911 10.0275 763 66.9463 652.869 516.339
1715 0 81.1028 10.3942 843 65.2479 652.756 518.017
1716 0 80.0778 9.80297 785 66.6943 653.057 517.836
1717 0 83.031 9.99627 830 66.2157 652.945 518.063
1718 0 89.1219 12.208 1088 63.4715 653.254 512.83
1719 0 88.0881 11.8972 1048 64.5029 652.446 511.725
1720 0 88.2758 11.6906 1032 65.0901 653.44 507.374
1721 0 90.2086 10.0988 911 66.8277 653.386 508.473
1722 1 169.469 13.0053 2204 66.9233 653.712 471.498
1723 0 173.527 12.0385 2089 68.102 653.318 472.857
1724 0 180.571 12.8149 2314 68.0177 653.61 463.865
1725 0 185.537 14.3045 2654 65.9013 653.262 467.727
1726 1 106.348 10.917 1161 65.1163 652.984 506.33
1727 0 108.164 11.5935 1254 65.1714 653.022 500.952
1728 0 111.22 13.1271 1460 63.3884 653.31 503.6
1729 1 50.1302 9.99397 501 64.4411 653.575 531.014
1730 0 52.0576 11.2568 586 63.5085 653.715 530.734
1731 0 55.0875 9.87519 544 64.204 653.34 531.072
1732 0 51.0201 9.19245 469 66.5672 653.977 528.192
1733 0 57.046 11.6397 664 62.6852 653.386 528.465
1734 0 57.0496 10.3419 590 65.022 653.454 528.044
1735 0 59.0499 10.9738 648 63.7747 653.322 528.693
1736 0 61.0637 10.6282 649 63.7334 653.582 528.843
1737 0 62.0351 10.5424 654 64.081 653.691 527.907
1738 0 65.0372 11.5472 751 63.2863 653.509 525.269
1739 0 65.1374 9.85609 642 65.8333 653.639 523.419
1740 0 69.1279 10.4444 722 65.6856 653.849 521.88
1741 0 71.243 11.552 823 65.6027 653.636 520.686
1742 0 72.2756 10.377 750 67.4147 653.419 519.445
1743 0 75.2265 9.89013 744 67.1169 653.625 523.151
1744 0 77.0239 11.7756 907 66.591 653.16 517.004
1745 0 80.1186 10.7715 863 67.9548 654.182 516.674
1746 0 83.1011 11.4319 950 67.7126 653.763 516.597
1747 1 40.1299 9.31972 374 67.123 653.382 536.128
1748 0 44.0204 10.0862 444 66.2658 653.216 534.414
1749 0 46.0308 12.3613 569 63.7663 652.993 533.315
1750 0 48.0764 9.63051 463 66.9222 653.426 534.451
1751 0 45.0529 9.10042 410 69.9317 653.505 532.493
1752 0 49.0507 9.82656 482 68.973 653.61 532.139
1753 0 50.1638 9.8876 496 68.869 653.232 532.044
1754 0 53.0835 11.6044 616 66.4951 653.562 531.18
1755 0 52.1333 9.14963 477 69.1803 653.371 532.004
1756 0 57.1483 11.0764 633 67.2275 653.487 529.736
1757 0 58.0664 10.7291 623 68.6726 653.156 529.09
1758 0 59.1239 10.977 649 67.8844 653.21 528.666
1759 0 62.0784 10.97 681 67.9677 653.476 526.536
1760 0 62.0697 9.60211 596 70.3054 653.842 525.878
1761 0 64.1291 10.1826 653 69.5942 654.271 525.565
1762 0 67.1185 12.1874 818 66.9022 653.91 523.584
1763 0 69.1534 10.3972 719 69.388 654.573 523.412
1764 0 71.2246 11.7235 835 68.4659 654.019 521.835
1765 0 73.2383 12.7938 937 66.6596 653.69 520.144
1766 0 77.1476 12.9881 1002 66.5659 653.549 519.273
1767 0 77.1908 11.7501 907 68.8611 653.706 518.366
1768 1 38.0204 8.02202 305 70.5934 654.79 537.341
1769 0 42.0775 9.26862 390 69.1923 655.056 536.292
1770 0 42.0357 9.1113 383 69.765 654.93 536.478
1771 0 43.0323 10.8058 465 67.3699 654.305 533.985
1772 0 45.0486 10.6108 478 68.3954 653.82 533.084
1773 0 46.0105 11.5626 532 66.3196 654.194 533.921
1774 0 47.0212 11.2077 527 67.093 654.317 533.613
1775 0 49.0476 10.8058 530 67.3302 654.234 531.885
1776 0 50.0152 10.1569 508 68.5158 653.697 531.201
1777 0 51.0237 12.2884 627 65.7097 654.47 530.788
1778 0 53.0577 11.1765 593 66.8752 654.381 530.703
1779 0 54.0742 10.726 580 67.3397 653.724 530.921
1780 0 58.076 10.5035 610 66.482 653.73 529.503
1781 0 59.0872 11.83 699 64.9628 654.074 528.514
1782 0 59.1132 11.165 660 66.1076 654.374 527.889
1783 0 61.2011 10.5554 646 66.13 654.192 528.505
1784 0 63.1244 10.2654 648 66.7732 654.103 526.157
1785 0 65.1969 12.562 819 64.3272 654.298 522.006
1786 0 67.1083 13.0982 879 63.537 654.505 521.711
1787 0 67.1054 11.2063 752 65.8737 654.101 523.556
1788 0 69.1196 10.2431 708 67.6186 653.706 520.071
1789 0 73.1179 12.049 881 65.1896 653.092 518.713
1790 0 73.0368 11.3504 829 66.234 653.248 517.311
1791 0 79.2102 12.0565 955 64.9278 653.609 516.857
1792 0 80.0934 11.549 925 66.4778 653.731 515.774
1793 0 82.1052 10.7789 885 67.5288 653.127 515.028
1794 0 82.0866 10.5864 869 68.8872 653.532 511.72
1795 0 87.1168 10.595 923 68.3153 652.983 514.067
1796 1 45.0873 10.5129 474 65.5422 652.778 531.551
1797 0 47.1118 9.72155 458 66.7162 653.321 531.771
1798 0 48.0828 9.69162 466 67.618 653.185 531.077
1799 0 48.0388 9.97111 479 67.0668 652.685 531.353
1800 0 49.1325 8.32442 409 70.1125 652.787 528.726
1801 0 52.0922 10.6734 556 67.563 653.444 528.457
1802 0 51.0856 10.1203 517 69.1354 653.137 526.694
1803 0 56.0799 10.3246 579 67.8756 652.917 527.466
1804 0 56.0719 9.27381 520 69.6423 653.317 527.319
1805 0 59.1313 9.01383 533 69.8518 652.998 526.394
1806 0 59.1171 10.9444 647 67.9753 653.39 522.359
1807 0 61.132 11.2543 688 67.6424 652.791 523.283
1808 0 64.1082 11.3558 728 67.2953 653.613 520.92
1809 0 64.1118 9.60821 616 69.974 654.054 521.971
1810 0 65.1211 9.72034 633 70.199 653.908 521.101
1811 0 68.2138 10.9069 744 68.2379 652.519 518.116
1812 0 71.1024 10.9279 777 68.0631 653.691 518.492
1813 0 73.1139 11.8035 863 67.0394 653.134 518.104
1814 0 75.0697 9.96408 748 69.516 653.437 519.021
1815 0 77.2114 10.9051 842 68.943 653.447 514.886
1816 0 81.1809 12.2935 998 65.8216 653.397 516.691
1817 0 82.1808 11.1948 920 68.7413 653.496 513.425
1818 0 87.1175 11.6509 1015 66.9902 653.595 509.704
1819 1 46.0525 9.57603 441 66.4082 653.837 532.846
1820 0 46.0236 9.66894 445 67.4831 653.427 533.645
1821 0 47.0929 10.8509 511 65.8728 654.446 530.761
1822 0 50.0853 11.8997 596 63.8993 653.512 529.482
1823 0 50.1204 8.81876 442 68.7828 654.215 528.129
1824 0 52.0909 11.4415 596 65.2886 653.653 527.604
1825 0 53.0676 11.1744 593 66.1383 652.855 526.261
1826 0 53.0666 11.2877 599 65.2638 653.058 527.472
1827 0 57.1103 10.0858 576 66.7483 653.325 526.146
1828 0 59.0779 11.4087 674 64.8071 652.917 526.228
1829 0 63.1145 11.8832 750 63.696 653.447 525.071
1830 0 62.0909 10.3075 640 67.0938 653.748 522.088
1831 0 66.1146 10.7087 708 65.4576 653.778 523.436
1832 0 67.0315 11.5021 771 65.1686 653.709 520.346
1833 0 69.073 12.1755 841 64.1332 653.051 519.378
1834 0 69.0472 9.58765 662 68.5801 653.275 517.971
1835 0 72.0394 10.5914 763 66.4024 653.178 518.933
1836 0 76.0752 10.2004 776 67.1198 653.321 516.689
1837 0 76.1121 9.84075 749 68.0921 653.422 514.049
1838 0 79.1649 11.255 891 67.2132 653.43 513.37
1839 0 82.1122 11.0946 911 66.3557 653.443 511.992
1840 1 40.0197 9.67023 387 62.1964 653.597 534.868
1841 0 41.0458 9.18486 377 62.8541 652.722 533.393
1842 0 41.0482 9.59847 394 62.0432 653.388 534.363
1843 0 42.0683 7.53537 317 63.959 653.656 534.271
1844 0 42.083 8.43571 355 63.5352 653.868 533.555
1845 0 45.03 10.5485 475 60.701 653.75 533.577
1846 0 45.02 9.48468 427 63.1756 652.902 530.414
1847 0 48.0882 12.3315 593 59.4081 653.526 529.857
1848 0 50.092 9.26296 464 63.6056 653.724 527.75
1849 0 51.1286 10.0726 515 62.6252 653.293 529.862
1850 0 51.0268 9.72039 496 63.7238 653.21 528.343
1851 0 53.0744 10.2686 545 63.6752 653.163 526.706
1852 0 54.2101 10.0904 547 64.2907 653.168 526.055
1853 0 55.1224 10.1229 558 64.0072 652.962 528.16
1854 0 56.1151 9.60525 539 65.1503 652.772 525.698
1855 0 60.124 12.2081 734 61.7398 652.909 523.244
1856 0 59.0872 11.2376 664 63.5196 653.482 522.602
1857 0 63.0763 10.955 691 64.0029 652.991 522.194
1858 0 64.1146 12.2125 783 62.7535 652.907 520.128
1859 0 66.0858 11.8936 786 62.2557 652.42 521.982
1860 0 67.0929 10.7016 718 63.9889 652.171 520.83
1861 0 68.0526 10.918 743 63.5572 652.376 520.651
1862 0 71.2023 12.6681 902 61.2738 652.476 518.472
1863 0 74.1103 11.9687 887 62.2368 652.726 515.957
1864 0 76.1921 11.0379 841 63.1546 652.811 515.706
1865 0 76.27 10.2268 780 64.9667 652.441 514.163
1866 0 82.1425 11.7722 967 61.9772 652.517 514.441
1867 0 83.1213 12.0787 1004 61.6624 651.682 513.013
1868 0 87.1292 12.1658 1060 61.2708 652.286 510.464
1869 1 44.0375 9.10587 401 63.4339 653.065 530.13
1870 0 44.0311 7.83537 345 64.7478 652.893 532.733
1871 0 46.1173 9.86615 455 61.9011 653.255 531.189
1872 0 47.0994 10.6795 503 62.0537 653.219 528.33
1873 0 48.1167 8.18843 394 64.9568 652.876 528.797
1874 0 51.1527 10.6348 544 61.6526 652.835 525.847
1875 0 53.0547 11.9499 634 59.4748 653.144 526.931
1876 0 52.1189 10.2074 532 62.8496 653.064 524.592
1877 0 57.1325 11.9722 684 59.8874 652.708 524.427
1878 0 56.0577 10.2038 572 63.0035 652.808 522.666
1879 0 58.1288 10.58 615 62.4488 652.249 522.402
1880 0 59.097 9.89899 585 63.6171 652.6 521.465
1881 0 63.1623 13.0933 827 58.9758 652.349 522.386
1882 0 65.0982 12.9036 840 59.1976 652.375 521.67
1883 0 64.0413 12.1172 776 60.7113 652.848 521.863
1884 0 67.1344 11.9313 801 61.0674 652.618 520.705
1885 0 67.0753 11.3604 762 62.7218 652.232 517.755
1886 0 71.094 13.1375 934 59.8929 652.499 517.472
1887 0 73.1016 12.0244 879 61.9761 652.066 518.449
1888 0 75.0593 11.6441 874 62.667 651.744 516.222
1889 0 76.1616 13.2482 1009 60.9435 651.93 513.679
1890 0 78.1079 12.1883 952 62.3067 652.271 513.847
1891 0 80.1473 11.6535 934 63.2034 652.639 514.209
1892 0 82.1692 10.9043 896 64.5625 652.136 514.106
1893 1 44.1488 10.2154 451 62.98 652.328 531.461
1894 0 43.0524 9.70911 418 66.7584 652.562 529.316
1895 0 46.0866 9.06989 418 66.6292 652.579 531.333
1896 0 49.089 11.2653 553 64.604 652.752 527.93
1897 0 48.0656 12.3581 594 63.5909 652.988 526.557
1898 0 51.0459 11.4799 586 63.9232 652.809 526.843
1899 0 52.0522 10.7008 557 66.158 652.882 525.765
1900 0 54.0537 10.8781 588 65.0884 652.92 527.332
1901 0 56.0768 11.1989 628 65.6688 652.53 524.99
1902 0 55.0714 12.4747 687 64.8341 652.518 525.13
1903 0 58.0375 11.2858 655 66.6428 652.673 523.562
1904 0 59.1374 11.059 654 67.2003 653.295 524.202
1905 0 59.0845 11.1197 657 67.6986 652.501 522.437
1906 0 63.1648 11.2563 711 67.1857 653.039 521.976
1907 0 65.0933 11.6602 759 67.2424 652.544 519.663
1908 0 67.098 11.8334 794 66.7481 652.686 519.6
1909 0 69.1105 13.2397 915 65.4798 652.98 516.368
1910 0 72.1438 13.1959 952 65.23 653.67 517.731
1911 0 73.1133 12.8294 938 66.5107 653.586 517.132
1912 0 74.0806 13.3233 987 66.1246 653.18 514.009
1913 0 75.112 12.528 941 67.8034 652.702 513.351
1914 0 76.1345 11.3221 862 69.9629 653.246 513.753
1915 0 81.0625 12.916 1047 66.9656 652.626 512.994
1916 0 82.1245 13.1995 1084 67.4908 652.744 508.688
1917 0 86.068 13.1524 1132 67.5318 653.115 509.658
1918 1 44.0588 10.4179 459 69.5468 652.636 528.423
1919 0 48.0412 10.262 493 69.2049 653.039 530.185
1920 0 48.0414 10.824 520 69.125 653.637 529.66
1921 0 49.0423 12.0304 590 68.2678 653.541 528.37
1922 0 53.0691 11.6075 616 68.1006 653.529 527.635
1923 0 49.0476 10.5 515 71.4932 653.379 526.023
1924 0 54.032 11.1045 600 69.6833 653.655 526.94
1925 0 56.0615 12.4328 697 67.2927 653.208 526.314
1926 0 58.0256 12.0981 702 68.6581 654.004 524.89
1927 0 59.0382 11.1792 660 69.8258 653.682 523.523
1928 0 60.043 11.4251 686 69.9708 653.711 522.095
1929 0 63.0774 13.206 833 66.8451 653.365 522.914
1930 0 64.1475 12.2842 788 68.4784 652.608 523.722
1931 0 65.0573 11.2516 732 70.3907 653.164 522.369
1932 0 68.041 12.9628 882 68.2347 652.882 519.324
1933 0 70.0559 13.3037 932 67.633 652.453 519.981
1934 0 72.0483 12.6304 910 68.9066 652.734 521.035
1935 0 75.1027 13.7146 1030 67.4291 652.172 520.127
1936 0 79.1193 13.2332 1047 67.6514 651.611 520.17
1937 0 79.0668 12.7361 1007 70.3853 652.111 514.627
1938 0 82.0336 12.5315 1028 70.7189 651.266 513.309
1939 1 46.177 10.633 491 70.5092 650.914 534.589
1940 0 48.0747 10.4837 504 70.6548 650.956 535.107
1941 0 49.0725 10.3113 506 72.834 650.885 532.128
1942 0 50.0092 10.878 544 71.5368 650.939 534.25
1943 0 52.0619 11.3135 589 72.0866 650.654 531.944
1944 0 53.0715 12.323 654 70.9037 651.194 528.998
1945 0 53.0262 10.6928 567 73.6208 650.998 530.326
1946 0 55.1076 10.8333 597 73.7605 650.801 528.4
1947 0 58.0659 12.193 708 70.7189 650.637 528.744
1948 0 57.0766 10.7925 616 73.4075 650.195 527.36
1949 0 62.055 12.5856 781 70.2676 649.945 524.553
1950 0 62.0878 11.2421 698 72.682 649.827 523.314
1951 0 66.0599 12.307 813 70.1279 650.026 524.009
1952 0 67.051 12.8708 863 70.3801 650.024 519.306
1953 0 72.0421 12.576 906 69.3002 649.48 523.03
1954 0 72.0819 11.2511 811 72.2515 649.703 520.509
1955 0 73.0633 11.4695 838 72.08 649.345 517.763
1956 0 78.1175 12.814 1001 69.3746 649.722 516.038
1957 0 80.1523 11.3035 906 71.9923 650.234 516.631
1958 0 82.0842 10.8303 889 72.9089 650.35 510.901
1959 0 87.125 13.1191 1143 69.2423 650.618 512.858
1960 0 89.1234 11.1755 996 71.9608 651.241 512.372
1961 0 93.1848 10.345 964 72.4772 650.539 511.928
1962 0 96.2305 13.2806 1278 68.73 651.144 508.477
1963 1 53.0397 10.5016 557 67.9461 650.993 530.91
1964 0 55.0227 9.79596 539 69.0891 651.612 530.959
1965 0 57.0143 11.8918 678 66.6578 651.571 529.648
1966 0 57.0428 11.0619 631 67.4532 651.978 528.769
1967 0 58.0623 10.2304 594 68.9983 652.749 527.231
1968 0 61.0942 10.4102 636 69.7626 652.333 524.539
1969 0 62.1083 11.6087 721 67.3384 651.424 524.868
1970 0 63.0213 9.67926 610 70.0721 651.967 524.066
1971 0 66.1325 11.8096 781 67.4738 651.69 522.314
1972 0 68.056 10.9763 747 68.7938 651.89 521.269
1973 0 69.0297 10.7925 745 69.1745 652.392 518.522
1974 0 71.033 10.7415 763 69.4115 652.199 517.887
1975 0 74.1113 11.2264 832 68.6863 652.861 516.553
1976 0 76.1155 12.5993 959 66.5068 652.54 517.921
1977 0 80.1248 13.2543 1062 65.8851 651.764 512.83
1978 0 81.1278 10.1445 823 70.4848 651.842 512.028
1979 0 86.0576 11.5039 990 68.4707 652.23 509.432
1980 0 89.1139 12.1642 1084 67.4557 652.701 510.935
1981 0 90.1593 11.4242 1030 68.9689 652.062 507.696
1982 0 93.134 10.5117 979 69.8151 652.665 507.673
1983 1 49.1092 11.2199 551 66.4882 653.459 527.701
1984 0 51.0537 10.205 521 67.2706 652.795 528.178
1985 0 53.0441 10.84 575 66.5739 653.282 528.696
1986 0 54.0773 10.7439 581 67.1377 652.656 525.852
1987 0 58.0511 11.5415 670 64.5985 652.41 526.033
1988 0 58.0501 10.7666 625 66.0384 652.754 523.605
1989 0 60.1003 10.6156 638 66.9749 652.65 520.561
1990 0 62.0816 10.9855 682 65.7229 653.261 523.497
1991 0 63.0688 11.9552 754 65.1976 653.224 520.443
1992 0 66.092 11.1663 738 65.9444 653.301 517.766
1993 0 67.1662 12.0447 809 64.8158 652.753 517.362
1994 0 70.0738 11.8446 830 65.0145 652.768 515.899
1995 0 72.0808 11.0432 796 65.6972 653.376 516.237
1996 0 72.2091 10.8712 785 66.6242 653.703 513.172
1997 0 75.2043 12.1935 917 64.8386 653.812 514.746
1998 0 77.0965 9.39083 724 69.0235 653.195 511.546
1999 0 80.055 11.3047 905 65.7978 653.545 512.273
2000 0 83.2088 12.8832 1072 63.7724 653.086 512.376
2001 0 87.1039 11.9283 1039 65.18 652.922 509.144
2002 1 41.0237 8.58041 352 66.8239 653.497 530.886
2003 0 45.0351 10.9248 492 63.7785 653.173 530.435
2004 0 46.1145 10.9944 507 64.4892 652.949 528.765
2005 0 46.0651 9.7905 451 66.0576 653.224 530.404
2006 0 49.0606 10.8641 533 64.8687 653.313 527.507
2007 0 50.1531 12.6612 635 63.389 653.507 525.49
2008 0 51.2393 11.2219 575 65.1983 653.155 526.106
2009 0 52.1389 10.8364 565 66.308 652.453 524.929
2010 0 54.102 12.2177 661 64.7549 652.551 522.793
2011 0 57.1077 12.3101 703 64.0612 652.203 522.875
2012 0 57.202 10.9087 624 66.0609 653.128 522.322
2013 0 59.1933 11.454 678 65.0324 653.354 522.755
2014 0 63.2194 11.4522 724 64.2099 652.506 522.142
2015 0 63.2287 11.2607 712 64.7289 652.671 521.803
2016 0 64.197 11.231 721 65.5895 652.392 517.004
2017 0 68.1144 10.6439 725 65.4069 652.686 519.396
2018 0 68.1811 10.2668 700 66.1414 652.759 518.141
2019 0 72.2157 12.7119 918 63.1013 652.77 516.17
2020 0 74.2241 11.2767 837 64.724 652.859 516.944
2021 0 76.0582 11.294 859 65.5867 652.398 512.234
2022 0 77.1694 10.0169 773 67.1307 652.031 512.819
2023 0 82.3111 11.0435 909 65.6128 652.543 514.013
2024 0 84.1426 11.9678 1007 64.579 652.567 513.534
2025 0 87.1359 11.155 972 65.9846 652.551 510.434
2026 0 89.3799 12.6874 1134 63.7919 652.606 510.643
2027 1 48.1559 9.57308 461 66.2234 652.503 529.618
2028 0 50.0838 9.74366 488 65.8094 652.252 527.805
2029 0 49.1148 10.1191 497 66.3219 652.054 527.398
2030 0 52.3395 10.0498 526 66.3194 651.914 525.897
2031 0 54.112 11.5132 623 64.3804 652.543 525.718
2032 0 55.3056 12.458 689 63.148 652.762 526.29
2033 0 57.1143 11.6958 668 64.1407 652.313 525.198
2034 0 56.0463 10.6519 597 66.4271 652.4 523.476
2035 0 60.1809 11.9307 718 63.7911 652.007 524.375
2036 0 60.1286 10.0784 606 67.0082 651.934 521.488
2037 0 64.1378 11.5221 739 64.9635 652.59 522.904
2038 0 65.0625 11.5274 750 65.332 652.224 521.283
2039 0 65.1022 11.2439 732 66.5451 652.363 519.809
2040 0 69.0468 12.4119 857 64.4247 652.415 519.784
2041 0 71.1096 12.1784 866 65.0635 651.897 520.104
2042 0 72.1183 12.5904 908 65.0628 651.54 517.126
2043 0 75.0907 12.6514 950 64.9032 650.752 516.835
2044 0 77.0902 13.0367 1005 64.797 651.227 515.019
2045 0 80.1076 13.8688 1111 63.9289 651.357 513.759
2046 0 80.0908 12.5233 1003 66.2662 651.502 513.834
2047 0 84.1186 12.1971 1026 66.6228 650.979 511.929
2048 0 88.1092 15.3332 1351 62.4789 651.016 510.347
2049 1 46.0586 9.42278 434 68.2258 651.452 531.205
2050 0 49.043 10.3379 507 67.0335 651.558 529.888
2051 0 49.0275 11.1366 546 66.7436 651.073 528.784
2052 0 50.0507 9.5703 479 68.5532 650.699 528.18
2053 0 53.0212 11.5237 611 66.4714 650.905 528.077
2054 0 54.0537 10.6191 574 67.4634 650.981 528.821
2055 0 56.0868 11.4287 641 66.9766 650.754 526.588
2056 0 57.0214 10.8906 621 67.3929 651.187 527.103
2057 0 60.0573 10.6565 640 67.1406 651.314 526.323
2058 0 63.0763 12.8733 812 64.4951 650.832 525.016
2059 0 63.1095 11.995 757 66.0198 651.497 523.901
2060 0 65.0905 12.1677 792 68.3624 650.976 520.497
2061 0 66.0781 11.6983 773 69.6572 650.834 520.708
2062 0 70.0713 12.3303 864 67.5116 651.428 522.464
2063 0 72.1017 12.524 903 67.4363 651.288 520.19
2064 0 73.0871 11.8078 863 69.2908 651.145 519.07
2065 0 76.106 12.3906 943 68.3552 651.398 517.074
2066 0 78.0345 11.6615 910 69.0725 651.077 514.476
2067 0 80.1634 11.277 904 69.5431 651.764 516.648
2068 0 82.0484 10.8716 892 70.315 650.35 514.41
2069 1 43.0385 9.50312 409 69.0147 650.758 532.452
2070 0 46.041 10.5558 486 66.9732 651.335 533.276
2071 0 47.0872 12.8273 604 65.1606 652.078 532.265
2072 0 50.1057 12.9127 647 64.7527 651.352 530.946
2073 0 50.0544 11.8671 594 66.399 651.38 531.037
2074 0 53.0599 13.0607 693 65.469 651.387 529.792
2075 0 51.042 10.1093 516 69.6686 650.622 531.205
2076 0 54.1132 11.8271 640 67.7359 650.716 526.048
2077 0 58.1231 11.8886 691 67.0333 650.124 526.411
2078 0 57.1086 11.9422 682 67.7375 651.082 526.392
2079 0 58.1049 12.7872 743 67.4226 650.864 524.773
2080 0 60.0257 11.8782 713 69.2679 651.055 523.247
2081 0 64.0604 12.9253 828 66.5036 651.425 525.867
2082 0 66.0388 13.1741 870 66.9023 651.653 524.893
2083 0 64.1147 12.774 819 68.4383 650.37 521.955
2084 0 68.1638 12.69 865 68.1792 651.005 522.378
2085 0 71.044 12.3445 877 68.5519 650.405 521.001
2086 0 71.1791 12.2648 873 69.1031 650.621 519.103
2087 0 73.0615 14.3304 1047 66.9045 650.72 518.95
2088 0 77.0463 12.7845 985 68.3655 651.451 517.681
2089 0 76.0221 12.3648 940 69.7085 651.28 517.942
2090 0 80.0668 12.2023 977 69.9611 651.466 517.178
2091 0 81.1376 12.6945 1030 69.5621 650.74 516.677
2092 0 84.0829 13.1061 1102 69.177 650.981 517.297
2093 0 88.1533 14.1004 1243 68.6862 651.17 512.338
2094 0 89.0908 13.2449 1180 70.2381 650.605 512.023
2095 0 92.1507 13.3694 1232 70.4602 651.181 511.558
2096 0 94.0598 13.3001 1251 71.1831 650.763 510.584
2097 0 97.133 13.0646 1269 71.8857 650.699 508.68
2098 0 100.071 13.1307 1314 72.156 650.088 508.075
2099 0 102.188 13.4263 1372 72.0415 650.606 505.098
2100 0 105.163 13.5028 1420 72.0824 651.097 506.613
2101 0 108.078 12.9721 1402 73.7511 651.597 501.905
2102 0 111.061 12.8578 1428 73.8326 651.204 501.864
2103 0 115.083 14.3549 1652 71.839 651.011 499.552
2104 1 58.0534 11.5239 669 72.3707 651.019 529.466
2105 0 57.0618 12.2148 697 74.1722 650.892 525.875
2106 0 62.0603 13.5352 840 71.0119 651.037 526.588
2107 0 63.0757 13.7771 869 71.1968 650.933 526.724
2108 0 64.0963 12.4032 795 73.7333 651.343 525.524
2109 0 66.1259 12.6879 839 74.1001 651.232 523.863
2110 0 69.1652 12.7665 883 73.2072 650.481 524.113
2111 0 72.041 13.0204 938 73.0522 650.278 523.263
2112 0 74.0614 12.5301 928 75.0043 650.797 519.533
2113 0 76.0754 13.2632 1009 73.887 650.529 519.871
2114 0 77.2046 11.5667 893 76.8891 651.019 518.679
2115 0 80.1722 12.76 1023 75.4321 651.062 517.338
2116 0 83.0361 12.9823 1078 75.8868 651.227 515.711
2117 0 86.1099 12.8789 1109 76.3057 650.008 515.509
2118 0 89.0918 12.706 1132 77.0565 650.019 514.05
2119 0 92.0662 13.4143 1235 76.1344 650.364 512.306
2120 1 52.0618 11.5632 602 76.3821 651.404 532.88
2121 0 53.0373 12.0104 637 75.9859 650.758 533.185
2122 0 53.0363 11.9164 632 76.8829 650.634 531.44
2123 0 56.0384 12.4736 699 76.2117 650.695 530.486
2124 0 57.0216 13.2055 753 75.8566 650.031 528.219
2125 0 57.0358 11.221 640 79.4484 650.667 530.183
2126 0 59.0474 11.9565 706 79.1771 650.705 528.016
2127 0 63.087 12.9187 815 76.5742 650.719 526.329
2128 0 67.0351 11.9042 798 77.49 650.544 525.966
2129 0 67.0722 11.7634 789 77.8593 650.681 525.166
2130 0 69.083 12.7673 882 77.1848 650.871 523.13
2131 0 72.1217 13.3663 964 75.7127 650.47 523.243
2132 0 73.0922 11.6155 849 78.5548 650.73 522.71
2133 0 77.0836 12.6746 977 77.1208 650.476 520.253
2134 0 78.0668 12.0666 942 77.8949 650.427 519.864
2135 0 80.0968 12.4849 1000 77.483 651.099 518.385
2136 0 84.055 13.4436 1130 75.5478 650.699 516.767
2137 0 86.036 12.3437 1062 77.9962 650.589 513.96
2138 0 87.0986 11.6764 1017 78.8142 650.666 514.708
2139 0 91.0814 12.5163 1140 77.657 650.8 512.824
2140 0 94.0652 11.9066 1120 77.8411 650.96 512.357
2141 0 98.1039 13.0168 1277 76.7604 650.878 508.984
2142 0 98.0939 11.6623 1144 79.4913 651.581 507.74
2143 0 103.173 12.0768 1246 78.5963 650.534 505.282
2144 1 56.0561 11.6669 654 75.4052 651.179 528.078
2145 0 60.0417 13.9237 836 64.756 650.684 530.964
2146 0 59.0596 11.3106 668 76.4042 650.75 525.53
2147 0 62.053 11.4579 711 75.9564 650.443 526.139
2148 0 62.0392 12.6049 782 74.8044 650.54 524.174
2149 0 65.037 13.3155 866 72.3718 650.768 525.834
2150 0 67.1261 12.3499 829 74.5549 650.261 523.54
2151 0 67.1291 11.4406 768 76.5104 650.375 521.358
2152 0 71.121 11.8109 840 75.0607 650.74 520.543
2153 0 72.1264 11.4105 823 75.5018 650.567 520.256
2154 0 76.1382 13.6331 1038 71.4547 650.223 519.289
2155 0 79.1656 12.4675 987 73.2259 649.955 517.32
2156 0 80.0775 11.851 949 74.4679 649.192 517.946
2157 0 84.1445 12.0864 1017 73.4848 649.288 515.204
2158 0 86.1115 12.3445 1063 73.731 650.01 512.154
2159 0 91.1642 12.5707 1146 73.2286 650.058 510.821
2160 1 48.0964 10.1255 487 73.7536 650.035 529.448
2161 0 50.0489 9.97024 499 72.6834 649.928 530.78
2162 0 51.1232 10.5823 541 72.1349 649.457 529.958
2163 0 53.0821 11.9249 633 70.1548 649.97 529.602
2164 0 55.0812 11.1835 616 71.1932 650.122 528.382
2165 0 55.0284 11.1579 614 72.3388 650.368 524.632
2166 0 60.1164 11.4445 688 69.7791 650.47 527.215
2167 0 60.1472 11.0562 665 71.2481 650.893 525.83
2168 0 61.0635 12.5443 766 68.5392 650.813 526.765
2169 0 63.1004 10.7131 676 71.4512 650.321 524.061
2170 0 65.112 12.3172 802 69.2943 650.364 521.557
2171 0 68.0807 12.4411 847 68.8288 650.21 520.414
2172 0 68.1227 11.8169 805 70.1106 650.277 520.098
2173 0 72.2028 13.1851 952 67.7006 649.986 518.914
2174 0 70.1073 11.4396 802 71.3903 650.07 517.229
2175 0 75.088 12.6252 948 68.3492 650.112 518.179
2176 0 77.1346 11.5383 890 70.1865 649.962 515.417
2177 0 80.1167 11.7204 939 69.1832 650.015 517.855
2178 0 81.0788 11.0386 895 70.7475 650.055 513.956
2179 0 86.1384 13.3738 1152 66.6128 650.677 515.361
2180 0 89.1529 10.8353 966 70.3106 650.264 514.402
2181 0 89.1083 12.1201 1080 69.525 650.137 507.493
2182 0 93.1865 12.0404 1122 69.6052 650.809 508.429
2183 1 53.1001 10.8474 576 66.9184 650.894 531.441
2184 0 53.0887 11.4337 607 68.1203 650.489 526.236
2185 0 55.1631 10.5324 581 68.1377 649.955 529.687
2186 0 55.054 11.3888 627 68.4737 650.758 525.364
2187 0 57.092 12.2434 699 67.0415 650.144 526.91
2188 0 58.0185 10.6518 618 68.9871 650.725 525.76
2189 0 62.0436 13.3616 829 65.0386 651.218 525.746
2190 0 64.1095 11.3868 730 67.5411 650.614 523.374
2191 0 66.1246 11.2969 747 68.2142 650.967 523.189
2192 0 67.0973 10.9691 736 68.0095 650.62 524.558
2193 0 68.0491 11.6827 795 68.0642 650.277 517.979
2194 0 68.2086 10.3359 705 70.0099 650.13 519.695
2195 0 71.0815 11.6064 825 68.4376 650.497 518.989
2196 0 75.09 12.1188 910 67.0319 650.226 517.464
2197 0 76.055 10.9526 833 68.6567 649.785 512.4
2198 0 80.0593 12.6032 1009 66.5203 650.08 512.024
2199 0 82.1998 11.3261 931 68.362 651.122 514.173
2200 0 85.1534 12.131 1033 67.4589 650.405 511.673
2201 0 88.1213 12.2899 1083 67.4451 650.178 508.802
2202 0 90.2071 13.5688 1224 65.7688 650.124 510.376
2203 0 94.2048 12.7594 1202 66.9251 650.224 509.396
2204 0 93.0882 9.65751 899 71.6763 650.372 506.04
2205 0 98.1312 13.2476 1300 58.1262 649.169 509.062
2206 1 54.0712 11.5958 627 67.2727 650.29 528.582
2207 0 55.1907 12.3209 680 66.9147 650.682 524.891
2208 0 56.0218 11.1028 622 69.1077 650.762 525.646
2209 0 57.1175 11.1875 639 68.4476 650.429 528.255
2210 0 59.1123 11.5204 681 69.1718 650.473 524.382
2211 0 62.1323 11.733 729 68.5748 650.79 524.575
2212 0 62.072 11.1 689 69.8839 649.929 520.958
2213 0 65.1346 13.5105 880 66.6034 649.586 524.589
2214 0 68.1009 13.3919 912 67.0998 650.405 523.06
2215 0 67.1966 13.3935 900 68.0533 650.208 522.488
2216 0 72.1097 12.8416 926 68.122 650.269 521.952
2217 0 73.0969 15.5136 1134 65.1032 650.029 521.085
2218 0 74.1659 12.2428 908 70.1575 649.958 519.836
2219 0 76.1675 12.4725 950 70.0147 650.179 517.793
2220 0 79.1308 12.7384 1008 69.5814 649.61 516.605
2221 0 82.2545 13.3488 1098 68.2559 649.761 517.709
2222 0 83.1029 11.8889 988 71.418 649.888 515.747
2223 0 88.1328 13.7179 1209 68.3375 650.058 512.311
2224 0 90.3066 11.7489 1061 71.5966 650.592 511.364
2225 0 91.1 11.2404 1024 72.4434 651.408 511.779
2226 0 95.18 13.0385 1241 70.1322 649.865 506.586
2227 1 52.0934 10.7691 561 70.713 650.62 529.519
2228 0 53.2026 11.1085 591 71.0457 650.667 529.873
2229 0 53.0776 11.4926 610 70.9246 650.849 528.577
2230 0 56.059 11.5414 647 70.9583 651.031 527.447
2231 0 57.0434 12.4817 712 69.7275 651.452 525.472
2232 0 59.0602 11.1412 658 71.0456 650.804 525.705
2233 0 64.0899 12.1392 778 68.6093 651.005 526.19
2234 0 65.0718 13.2776 864 68.1863 650.575 522.507
2235 0 66.0786 12.9391 855 68.8363 651.032 522.668
2236 0 69.1411 12.3805 856 69.1682 650.836 520.466
2237 0 69.0313 11.0964 766 71.4843 651.047 520.556
2238 0 72.0487 11.9502 861 70.2753 651.47 518.97
2239 0 74.0967 11.6604 864 70.544 651.066 516.295
2240 0 77.0381 11.5917 893 70.757 651.329 516.964
2241 0 79.0674 11.9645 946 70.8372 651.415 513.768
2242 0 83.099 13.9232 1157 68.0225 652.137 515.299
2243 0 86.0561 14.4208 1241 67.1499 651.144 514.415
2244 0 86.0853 12.4411 1071 70.8637 650.563 510.897
2245 0 91.1433 12.025 1096 71.052 650.989 511.164
2246 0 95.1652 13.9126 1324 68.9592 651.557 509.737
2247 1 48.0569 12.2355 588 69.0408 651.354 534.517
2248 0 50.067 10.6258 532 71.6447 651.096 532.054
2249 0 51.0342 12.6778 647 69.9923 651.029 531.21
2250 0 54.0589 12.6529 684 69.0117 651.414 532.55
2251 0 54.0223 11.2361 607 72.7018 651.644 530.17
2252 0 55.0188 12.0686 664 72.0301 651.396 528.655
2253 0 57.0898 12.5942 719 71.1321 651.634 526.389
2254 0 59.0312 11.7565 694 72.0418 651.473 527.648
2255 0 60.0579 11.4057 685 72.5854 651.515 524.92
2256 0 64.0453 12.5536 804 69.6443 651.621 525.272
2257 0 64.1117 12.0883 775 70.649 652.074 524.486
2258 0 66.1116 11.8739 785 71.6701 651.713 521.762
2259 0 68.1989 12.9328 882 69.678 651.119 522.274
2260 0 71.0477 12.8646 914 70.3424 651.033 521.338
2261 0 72.0683 12.0996 872 71.6697 650.71 520.181
2262 0 76.0567 13.0166 990 70.0576 651.387 518.632
2263 0 78.0395 11.4814 896 72.4754 651.631 518.656
2264 0 81.0602 12.8793 1044 70.2663 651.017 516.543
2265 0 84.1074 12.8764 1083 70.5162 651.141 515.946
2266 1 44.0245 10.8122 476 71.8277 651.767 534.66
2267 0 44.1441 11.5531 510 71.5627 651.431 535.602
2268 0 47.0606 11.4958 541 70.7671 651.97 534.699
2269 0 47.0227 11.8879 559 70.8336 651.687 533.678
2270 0 49.0271 11.9322 585 71.0855 651.778 531.938
2271 0 51.0376 11.6189 593 71.0422 651.565 530.486
2272 0 53.1287 12.1968 648 69.4676 652.063 531.895
2273 0 55.0183 13.1229 722 68.6939 651.591 530.152
2274 0 53.0568 10.7621 571 72.4606 651.727 529.881
2275 0 58.0478 12.6792 736 69.0299 651.832 528.482
2276 0 58.0762 12.5008 726 69.0523 651.835 528.581
2277 0 60.0527 12.922 776 68.049 651.961 527.235
2278 0 62.0662 13.0022 807 68.5142 652.012 525.311
2279 0 64.0517 11.5688 741 70.3549 652.426 524.31
2280 0 66.0692 13.274 877 67.5576 652.646 524.418
2281 0 69.176 12.1719 842 68.2827 651.612 523.797
2282 0 69.0428 13.2237 913 67.805 651.372 522.217
2283 0 73.0612 13.564 991 66.4339 651.428 521.078
2284 0 75.066 12.7088 954 68.066 651.581 518.824
2285 0 76.1001 11.1169 846 70.3038 652.076 517.434
2286 0 76.1026 13.127 999 68.8919 651.889 513.054
2287 0 82.1342 14.6711 1205 65.6249 651.998 516.554
2288 0 81.1984 11.7736 956 70.4341 652.869 514.855
2289 0 86.09 13.0445 1123 68.5628 652.836 513.457
2290 0 89.1442 12.6985 1132 69.2217 651.524 510.368
2291 0 91.0991 12.0967 1102 70.7976 651.547 510.016
2292 1 50.0981 10.5793 530 68.8642 652.017 531.091
2293 0 51.0988 14.149 723 65.758 652.176 528.73
2294 0 51.0409 10.0116 511 71.3444 652.472 529.671
2295 0 54.0944 11.443 619 69.5186 652.307 528.711
2296 0 53.0183 10.2983 546 72.4945 651.568 524.242
2297 0 58.1058 12.5461 729 67.8395 652.123 526.76
2298 0 59.113 10.5899 626 70.655 652.54 525.77
2299 0 60.0842 12.2495 736 68.9946 652.139 523.083
2300 0 59.1308 10.4345 617 70.4489 652.034 522.511
2301 0 65.0717 13.1394 855 66.1871 652.289 522.483
2302 0 65.033 12.1938 793 67.9395 652.401 521.228
2303 0 69.1719 12.6352 874 67.3124 652.79 519.804
2304 0 69.1339 11.1957 774 69.4612 652.514 520.43
2305 0 73.0396 13.5132 987 65.9848 652.235 519.405
2306 0 75.1303 13.044 980 67.0796 652.235 517.387
2307 0 78.1284 11.5067 899 69.0801 652.7 516.336
2308 0 82.114 11.7641 966 68.5176 652.953 513.782
2309 0 83.2009 12.8845 1072 67.6791 652.061 511.471
2310 0 86.0242 11.892 1023 68.6559 651.755 512.529
2311 0 88.1312 12.402 1093 68.6176 651.413 511.475
2312 0 92.1574 12.0446 1110 68.9928 651.355 510.537
2313 0 95.1822 11.3467 1080 70.6306 652.094 505.625
2314 1 54.1126 10.5151 569 68.6397 652.497 528.736
2315 0 54.0359 10.419 563 67.3694 652.329 531
2316 0 59.0617 10.9377 646 68.1532 652.385 526.234
2317 0 59.0372 12.0602 712 66.9831 651.642 526.256
2318 0 60.0669 10.4217 626 69.7204 651.757 524.569
2319 0 63.017 10.5686 666 69.2462 652.686 522.074
2320 0 64.0922 10.7345 688 69.4782 652.458 519.562
2321 0 67.0676 10.6012 711 69.0717 652.263 522.152
2322 0 68.0295 11.3627 773 68.6287 652.204 517.111
2323 0 71.0481 11.6822 830 67.6892 652.487 520.387
2324 0 74.0832 11.8515 878 66.8656 653.009 520.071
2325 0 77.0757 11.2357 866 67.9146 652.633 518.052
2326 0 78.0883 11.3974 890 68.2933 652.602 516.617
2327 0 80.1215 10.5215 843 69.0925 652.2 515.878
2328 0 85.0809 12.7526 1085 66.5899 652.514 514.355
2329 0 86.098 11.4288 984 69.2246 652.92 510.436
2330 0 90.084 10.6345 958 69.4144 652.113 512.311
2331 0 90.0866 11.1115 1001 69.7233 652.048 507.17
2332 0 95.1309 11.973 1139 68.6743 652.392 507.702
2333 0 98.073 11.002 1079 70.076 652.505 504.467
2334 1 54.0176 12.2738 663 65.0287 653.012 528.06
2335 0 56.0189 10.3715 581 67.7659 652.868 526.793
2336 0 56.0164 11.5859 649 66.9045 652.709 524.74
2337 0 59.0274 9.41935 556 69.1924 652.833 526.599
2338 0 60.0236 9.99606 600 68.6967 652.625 524.998
2339 0 63.1804 10.5254 665 67.8977 652.804 522.242
2340 0 64.1114 10.5285 675 67.3393 652.594 522.425
2341 0 65.046 9.91606 645 68.3163 652.198 521.146
2342 0 70.1144 11.1104 779 65.4801 652.567 522.633
2343 0 71.0558 11.1602 793 65.9496 652.2 518.579
2344 0 73.1014 10.5333 770 67.013 653.078 518.5
2345 0 76.1432 11.0844 844 66.6765 652.19 515.788
2346 0 76.0796 10.2261 778 67.7057 651.718 513.706
2347 0 81.1577 11.6317 944 65.0816 652.08 514.997
2348 0 85.1383 10.6885 910 66.1275 651.541 512.522
2349 0 87.0907 12.1482 1058 64.2448 652.19 509.795
2350 0 91.0383 12.8517 1170 57.4521 652.723 507.912
2351 0 92.0986 11.4443 1054 58.0797 651.936 509.048
2352 0 98.1359 11.7694 1155 57.3273 651.361 506.742
2353 0 99.2086 11.7732 1168 57.7894 651.571 502.926
2354 0 103.056 14.235 1467 54.7812 652.075 507.356
2355 1 61.082 11.8529 724 55.1146 652.333 525.533
2356 0 62.0217 10.2867 638 57.29 652.464 524.806
2357 0 63.0679 11.8127 745 56.4819 652.588 523.976
2358 0 65.0756 10.9718 714 57.3179 652.714 523.482
2359 0 65.0583 10.4829 682 58.61 652.339 519.927
2360 0 69.0668 11.4093 788 57.2373 651.682 521.442
2361 0 69.1049 12.1554 840 56.8952 652.105 518.56
2362 0 72.0552 10.1034 728 58.5247 651.385 520.782
2363 0 74.1974 11.402 846 57.6619 651.738 517.596
2364 0 75.0673 11.8294 888 57.6644 651.797 514.598
2365 0 78.1573 10.6708 834 58.3945 651.757 517.465
2366 0 80.0731 13.3753 1071 56.3473 651.689 511.75
2367 0 83.1955 11.5992 965 57.7586 651.08 510.31
2368 0 85.1278 10.772 917 58.9302 650.742 510.471
2369 0 84.065 11.3841 957 58.5841 651.406 509.703
2370 0 91.0579 12.7391 1160 56.3198 650.998 508.058
2371 0 92.2019 11.0084 1015 58.335 651.82 508.119
2372 0 94.1166 11.3582 1069 57.7053 652.399 507.499
2373 1 51.2093 10.6426 545 57.4073 651.437 526.717
2374 0 55.2564 13.0664 722 53.9834 652.122 527.866
2375 0 56.1358 10.528 591 57.0948 651.393 527.311
2376 0 57.2649 10.2331 586 58.4625 651.404 524.829
2377 0 60.1545 12.2185 735 55.7674 651.335 524.005
2378 0 60.0976 13.0787 786 55.1947 652.075 524.422
2379 0 64.0687 12.2681 786 55.9822 651.52 521.419
2380 0 64.0714 13.5006 865 54.9491 651.788 521.099
2381 0 66.1238 11.7961 780 56.5936 651.632 519.818
2382 0 71.1541 13.3091 947 54.7666 651.945 520.948
2383 0 72.1812 12.1361 876 56.5274 651.802 518.586
2384 0 72.1895 11.3313 818 57.3912 652.56 519.534
2385 0 78.1336 13.0674 1021 54.3634 652.437 520.238
2386 0 78.1248 10.7136 837 57.7431 652.284 516.687
2387 0 81.2713 13.092 1064 55.5611 652.616 514.424
2388 0 84.1571 11.7043 985 56.8995 653.025 514.532
2389 1 42.1191 10.684 450 55.2333 652.564 532.311
2390 0 43.0341 9.92236 427 55.7143 653.696 533.89
2391 0 45.1398 8.26321 373 57.0429 653.665 532.426
2392 0 46.0758 10.0053 461 56.0195 653.035 530.649
2393 0 49.1534 12.0236 591 53.621 653.893 529.734
2394 0 49.0477 11.3563 557 54.6284 654.644 528.054
2395 0 48.0851 10.419 501 55.7485 654.473 527.587
2396 0 52.0548 11.0461 575 54.513 653.812 524.781
2397 0 55.198 12.0657 666 53.4129 653.902 525.054
2398 0 57.0589 12.8639 734 51.9564 653.969 527.248
2399 0 57.1584 11.162 638 54.4749 653.94 523.633
2400 0 60.0921 12.2812 738 53.5081 653.547 522.39
2401 0 62.0724 12.2438 760 53.2697 654.025 519.647
2402 0 65.0603 10.5748 688 54.8198 654.39 522.295
2403 0 67.0979 12.9065 866 52.4931 654.156 520.503
2404 0 67.0612 12.4364 834 53.5612 654.11 520.259
2405 0 71.1346 10.9089 776 54.0709 653.269 520.09
2406 0 74.1003 11.9028 882 53.7732 653.454 517.577
2407 0 72.1363 11.0624 798 55.5777 653.772 515.301
2408 0 76.1356 12.99 989 53.4044 653.488 517.081
2409 0 79.2855 11.8811 942 54.7771 653.204 513.071
2410 0 83.0842 12.5174 1040 54.2538 653.388 511.542
2411 0 85.238 12.776 1089 54.2268 653.512 510.348
2412 0 84.142 12.2056 1027 55.3982 654.064 511.758
2413 0 92.2032 12.2664 1131 54.7224 653.447 511.521
2414 0 92.172 11.3917 1050 55.8505 653.266 511.322
2415 1 49.0576 9.37673 460 56.8739 654.45 530.439
2416 0 50.035 13.1708 659 53.8346 654.185 528.678
2417 0 52.0821 10.9251 569 56.2601 654.239 526.478
2418 0 52.1037 9.76898 509 58.1041 654.287 529.438
2419 0 57.0756 11.4059 651 55.9309 653.952 527.906
2420 0 58.0325 12.5619 729 54.5624 653.878 528.332
2421 0 58.0659 10.9875 638 57.2962 654.246 525.066
2422 0 61.1038 12.356 755 56.1073 654.008 525.319
2423 0 63.1339 11.9745 756 56.5106 653.409 524.97
2424 0 63.0753 12.0174 758 57.0462 653.212 523.204
2425 0 65.0341 11.4094 742 58.3073 652.693 523.782
2426 0 68.095 12.3063 838 57.3258 653.729 521.599
2427 0 71.0834 13.3505 949 56.4362 653.656 518.932
2428 0 71.0969 12.6728 901 57.7691 653.56 519.048
2429 0 73.033 12.1178 885 57.9616 653.428 520.662
2430 0 75.1284 10.8082 812 59.5948 653.289 518.582
2431 0 76.0577 12.2933 935 58.5979 652.654 519.156
2432 0 79.0662 11.5346 912 59.648 652.925 517.059
2433 0 82.0374 11.0681 908 60.1905 652.807 516.59
2434 0 85.0747 12.1423 1033 59.8403 652.648 513.196
2435 0 84.2014 11.8525 998 61.0491 652.156 512.051
2436 0 90.191 11.398 1028 61.2996 652.443 511.19
2437 0 92.1079 11.0414 1017 62.1347 653.121 509.519
2438 1 52.0672 11.5236 600 60.5667 653.373 528.517
2439 0 54.0452 12.6006 681 59.5007 653.28 527.483
2440 0 55.1004 12.9763 715 59.2406 652.884 528.859
2441 0 56.0258 12.5299 702 60.4829 652.989 526.36
2442 0 57.0183 13.4167 765 60.1294 653.034 525.618
2443 0 58.0393 11.3371 658 61.8298 652.806 526.278
2444 0 61.0744 11.2813 689 62.3933 653.001 522.642
2445 0 64.138 13.05 837 59.9319 652.814 523.576
2446 0 64.1444 13.0019 834 60.9137 653.802 522.18
2447 0 64.0799 13.2491 849 60.9423 653.375 521.144
2448 0 68.1049 12.378 843 61.7639 653.458 520.102
2449 0 70.0938 12.255 859 62.4063 653.454 518.811
2450 0 69.0448 10.7611 743 64.4953 652.686 520.141
2451 0 71.0719 10.6371 756 64.4444 653.374 518.206
2452 0 76.1603 14.0887 1073 59.6589 652.75 517.978
2453 0 79.1189 11.7292 928 62.9741 652.992 515.909
2454 0 80.1315 13.5028 1082 60.9316 653.421 514.465
2455 0 82.0568 11.4799 942 63.7962 652.586 511.937
2456 0 85.0473 11.9816 1019 63.4868 652.884 511.239
2457 1 44.0213 10.9947 484 61.8905 653.167 531.748
2458 0 45.0218 11.7276 528 60.9261 653.35 532.896
2459 0 46.0626 11.6146 535 62.6 652.779 528.443
2460 0 48.0288 11.2641 541 62.5009 652.477 530.105
2461 0 49.033 11.9715 587 62.3731 652.947 528.808
2462 0 48.0701 11.088 533 63.6435 652.991 528.088
2463 0 51.1197 10.1331 518 64.7606 653.38 526.459
2464 0 52.0261 11.9363 621 64.2077 653.201 523.25
2465 0 54.1034 11.0714 599 65.2254 653.481 525.598
2466 0 54.0274 11.9384 645 63.8326 653.155 526.031
2467 0 59.0548 12.9202 763 62.2136 652.796 520.322
2468 0 61.015 10.9645 669 64.9223 652.837 521.629
2469 0 62.0751 11.18 694 64.6787 652.732 523.657
2470 0 64.0788 13.062 837 62.264 652.842 520.935
2471 0 65.0387 11.2087 729 65.6502 652.804 518.898
2472 0 75.3549 13.3767 1008 59.1944 653.278 524.116
2473 1 18.3567 10.2959 189 85.7354 654.661 549.18
2474 0 19.1103 12.8726 246 82.7561 655.333 547.614
2475 0 20.1304 12.6178 254 84.9055 655.067 548.409
2476 0 20.2155 12.5152 253 86.8972 654.779 547.85
2477 0 20.292 13.1086 266 86.6992 654.274 547.733
2478 0 18.2359 12.0093 219 92.9132 654.63 548.525
2479 0 20.3207 12.1551 247 89.749 654.352 549.34
2480 0 19.4964 12.2587 239 92.1716 654.883 549.69
2481 0 20.2491 13.0376 264 88.4697 655.254 548.42
2482 0 21.4615 13.3262 286 86.0245 654.972 548.787
2483 0 20.1839 12.9311 261 86.7893 655.195 548.709
2484 0 19.4049 12.6772 246 88.687 654.98 548.581
2485 0 20.2863 14.3446 291 85.6564 654.454 547.89
2486 0 18.1931 10.1137 184 95.2989 654.261 548.886
2487 0 19.0782 11.1646 213 92.7934 654.146 547.775
2488 0 19.4733 11.9138 232 89.25 654.759 548.203
2489 0 22.1994 11.7571 261 89.1226 654.241 546.966
2490 0 22.0641 13.2342 292 92.1781 653.579 546.24
2491 0 22.005 11.9518 263 95.6768 653.08 545.76
2492 0 23.0955 12.7731 295 90.4576 653.759 545.186
2493 0 22.0032 11.771 259 94.3822 653.958 546.556
2494 0 23.0656 11.0988 256 100.738 653.793 546.473
2495 0 22.0954 12.9891 287 91.4599 653.589 547.955
2496 0 20.045 10.8755 218 107.28 653.794 548.885
2497 0 22.0877 12.8125 283 98.1413 653.982 546.035
2498 0 21.1116 15.347 324 95.5617 654.67 545.608
2499 0 22.0845 14.037 310 99.4194 654.968 545.152
2500 0 22.2004 13.1079 291 103.385 654.385 546.296
2501 0 22.1184 12.1166 268 104.847 655.168 546.631
2502 0 20.0705 13.1536 264 107.288 654.269 546.674
2503 0 23.1243 11.5896 268 104.922 653.66 545.548
2504 0 21.1759 11.5698 245 108.416 653.535 545.763
