time division length width area intensity CMx CMy
0 0 45.1504 11.7607 531 60.4162 203.211 521.175
1 0 45.0807 11.2909 509 60.8389 202.654 522.768
2 0 47.1138 12.629 595 59.4824 202.099 522.755
3 0 48.1031 12.8682 619 59.8885 202.079 521.011
4 0 51.1755 12.4278 636 59.3742 201.014 521.682
5 0 49.1049 11.8522 582 62.3918 201.51 519.55
6 0 49.187 12.4017 610 61.8443 201.133 521.12
7 0 50.1754 11.4997 577 63.4107 200.222 520.057
8 0 52.1037 11.7458 612 62.5376 200.088 520.962
9 0 52.0703 12.0414 627 63.1499 200.866 517.968
10 0 55.1391 11.8791 655 62.3725 200.42 519.423
11 0 57.0791 12.6666 723 61.2905 200.624 518.317
12 0 57.0431 11.4475 653 63.0123 200.591 518.775
13 0 59.1134 12.1461 718 62.429 200.972 516.251
14 0 60.1033 11.0976 667 64.1694 199.876 515.868
15 0 62.0688 12.3411 766 62.4034 201.007 514.854
16 0 63.1281 11.7222 740 63.3568 201.249 515.578
17 0 66.078 11.9858 792 62.8788 200.604 512.995
18 0 67.1048 11.6683 783 63.6513 201.393 512.932
19 0 69.0647 11.9888 828 63.6944 201.129 511.129
20 0 71.1199 11.7548 836 63.9115 200.732 511.767
21 0 74.1189 12.7498 945 62.7714 201.566 511.692
22 0 76.1974 11.8114 900 64.5878 201.151 509.003
23 0 77.0799 13.4406 1036 62.3967 200.574 510.027
24 1 38.0156 10.8113 411 63.764 201.657 528.1
25 0 37.0472 12.0927 448 63.7299 201.982 527.656
26 0 38.0057 9.94586 378 68.1164 201.103 526.098
27 0 39.0552 10.2163 399 69.4511 201.742 524.647
28 0 41.0326 11.8199 485 66.2412 201.569 525.398
29 0 44.0418 10.7171 472 67.4619 202.828 525.841
30 0 42.0639 11.8154 497 68.1871 201.336 523.008
31 0 44.0554 11.4855 506 68.0474 202.451 523.715
32 0 48.0712 11.0461 531 67.565 202.075 523.16
33 0 48.018 11.3707 546 68.6007 201.817 522.046
34 0 50.0496 12.4077 621 66.7681 202.428 521.681
35 0 51.064 11.7695 601 68.6988 202.684 519.767
36 0 52.0178 12.2458 637 67.9435 202.799 520.538
37 0 53.1194 11.0882 589 69.2632 202.664 520.908
38 0 55.0868 12.1263 668 68.232 202.582 519.208
39 0 57.0228 12.5213 714 67.2311 202.756 518.427
40 0 58.0158 12.2553 711 67.6512 203.098 519.06
41 0 59.0794 11.5607 683 69.2767 202.785 515.687
42 0 60.0622 11.7878 708 69.2288 202.161 513.565
43 0 63.0654 12.8755 812 67.0062 201.74 513.062
44 0 66.1233 13.2026 873 66.9003 202.627 513.332
45 0 65.1433 10.7302 699 70.6495 202.19 513.589
46 0 70.101 12.7102 891 67.4893 202.466 512.9
47 0 71.0274 11.8123 839 69.1192 203.011 511.18
48 0 73.0618 12.4005 906 68.4481 202.93 509.935
49 0 75.1479 12.5752 945 67.9714 202.685 509.333
50 0 77.0391 12.1107 933 68.8896 202.849 505.299
51 0 79.0941 12.7064 1005 68.2975 202.501 505.248
52 0 82.0698 13.0986 1075 67.6809 202.765 505.659
53 0 82.1526 10.8092 888 71.3716 202.372 505.276
54 1 44.0567 11.4171 503 68.159 202.742 521.751
55 0 44.029 11.129 490 68.9673 202.888 520.906
56 0 45.0398 10.2132 460 69.6174 202.515 522.578
57 0 47.0608 11.5383 543 68.1639 203.254 520.046
58 0 48.082 10.5237 506 69.2431 202.917 520.275
59 0 49.1863 9.98246 491 69.9267 202.709 520.287
60 0 52.0692 11.0622 576 67.6285 202.891 519.983
61 0 54.0713 11.004 595 67.2353 202.896 519.427
62 0 56.0524 11.4179 640 66.9828 202.289 517.109
63 0 57.0315 11.6076 662 66.9562 202.415 514.917
64 0 57.171 10.7572 615 68.1951 202.982 514.987
65 0 59.0453 11.2625 665 67.6436 203.108 514.624
66 0 61.0368 11.2883 689 67.6212 203.077 513.687
67 0 61.1014 11.129 680 67.7147 202.443 513
68 0 66.0495 10.5224 695 68.7612 202.908 509.525
69 0 67.0787 11.658 782 67.4437 202.839 510.018
70 0 70.1907 14.6031 1025 64.0341 202.59 510.504
71 0 70.1403 11.7194 822 68.4769 201.974 508.397
72 0 74.0808 12.1759 902 66.7871 202.265 508.381
73 0 76.2207 12.4507 949 66.8641 202.06 504.151
74 0 79.1664 12.0506 954 66.9361 202.624 507.159
75 0 82.1225 12.5422 1030 65.9689 202.446 504.326
76 0 85.0617 12.7907 1088 65.7721 202.471 503.108
77 0 87.0584 12.8764 1121 66.4746 202.778 498.92
78 0 90.094 14.2296 1282 64.1279 203.046 499.967
79 1 45.0451 9.23518 416 67.7524 202.894 520.728
80 0 47.0561 9.24429 435 66.6345 203.34 521.977
81 0 49.0296 11.0138 540 64.8333 203.239 520.419
82 0 49.0508 11.1517 547 65.2212 204.024 518.943
83 0 50.1588 12.4006 622 63.6511 203.217 518.429
84 0 53.0668 11.5326 612 65.7958 203.513 517.918
85 0 54.0617 10.6175 574 67.6568 203.73 516.057
86 0 56.0575 10.5606 592 68.0304 203.407 514.498
87 0 58.0421 11.7846 684 66.1696 203.446 513.518
88 0 59.0466 11.3639 671 67.465 204.019 512.057
89 0 61.1306 12.3833 757 65.3157 203.728 513.478
90 0 63.1036 12.4557 786 65.2761 203.933 513.109
91 0 65.0374 11.4242 743 66.5653 203.935 511.7
92 0 65.0739 12.0939 787 65.4257 204.433 512.59
93 0 69.0375 10.4436 721 68.0194 204.49 510.662
94 0 72.1274 13.8505 999 63.7007 204.088 507.569
95 0 71.1804 11.6605 830 66.9494 203.813 506.718
96 0 75.1251 12.193 916 65.5513 204.031 507.213
97 0 75.1257 12.8451 965 65.6197 203.772 504.798
98 0 78.1131 10.8817 850 67.5094 203.414 504.389
99 0 82.1596 11.1734 918 66.719 202.953 499.454
100 0 85.2197 11.9456 1018 65.7485 203.374 498.048
101 0 86.1255 10.6356 916 68.8886 203.479 499.425
102 0 90.2725 11.0997 1002 67.8303 203.477 498.346
103 1 40.1459 8.19511 329 70.386 203.17 519.38
104 0 45.0387 10.058 453 66.9558 203.605 517.821
105 0 46.0962 10.9554 505 66.4238 203.319 515.673
106 0 49.1462 12.9613 637 62.8838 203.33 515.672
107 0 49.0761 11.0645 543 66.3278 202.396 516.606
108 0 51.1171 11.2487 575 65.3357 202.939 514.539
109 0 51.0727 9.77038 499 67.477 201.802 514.539
110 0 54.0911 12.3311 667 63.5607 202.673 513.975
111 0 56.0907 12.2659 688 63.8314 202.424 513.055
112 0 56.1476 11.3451 637 65.1366 202.474 513.835
113 0 59.0763 11.2566 665 66.2 202.761 510.609
114 0 59.1528 10.9716 649 66.228 202.989 509.438
115 0 61.0709 11.5767 707 65.5785 202.881 509.669
116 0 60.1003 9.90011 595 68.2639 202.818 510.002
117 0 66.1087 11.829 782 64.7442 202.524 510.096
118 0 67.1972 13.0065 874 63.5481 203.484 507.586
119 0 64.0972 9.37639 601 69.4309 203.458 500.233
120 0 71.1151 11.84 842 65.1128 203.308 504.913
121 0 72.1492 11.3376 818 66.2029 203.273 503.414
122 0 75.0932 12.358 928 64.7522 203.506 502.475
123 0 78.1059 10.3961 812 67.1958 203.19 499.744
124 0 79.222 11.8654 940 65.8181 202.628 502.134
125 0 83.0362 12.067 1002 65.1667 202.845 500.171
126 0 87.1572 12.8733 1122 63.8788 202.924 498.114
127 1 41.0975 8.71099 358 66.5978 203.101 519.626
128 0 43.0719 8.96177 386 67.2487 203.679 518.482
129 0 47.0917 11.0211 519 63.6493 203.547 517.761
130 0 48.26 11.4588 553 63.9765 203.143 514.953
131 0 48.098 11.9963 577 63.1646 203.125 515.201
132 0 50.0278 11.6335 582 63.8557 203.366 514.137
133 0 51.0901 11.098 567 65.2804 203.085 514.005
134 0 54.1815 10.9262 592 65.0034 203.088 517.133
135 0 54.1673 9.87681 535 66.4374 204.09 515.695
136 0 57.1646 12.5602 718 62.8914 203.713 512.577
137 0 59.1236 12.0426 712 62.5815 203.896 513.954
138 0 61.0606 11.1037 678 63.9985 203.322 512.478
139 0 63.1477 11.6711 737 63.0054 203.738 512.197
140 0 63.1454 12.0515 761 62.707 203.455 512.77
141 0 65.0786 12.6923 826 61.73 204.211 510.754
142 0 68.2471 12.6013 860 61.7395 204.198 508.198
143 0 69.0745 11.1619 771 63.6589 203.778 508.446
144 0 71.1792 11.4219 813 64.016 203.431 505.597
145 0 73.2187 13.0021 952 61.9559 203.743 504.706
146 0 74.0548 12.0586 893 63.9619 203.03 502.897
147 0 78.0766 11.2966 882 64.517 202.435 501.158
148 0 79.1466 12.0789 956 63.7897 202.802 499.664
149 0 81.2132 11.3528 922 64.5098 202.821 502.287
150 0 84.1313 13.1818 1109 62.3607 203.251 497.117
151 0 87.1502 13.1841 1149 62.2654 203.75 498.11
152 0 90.2391 11.7355 1059 64.2021 203.304 498.44
153 0 91.1607 10.476 955 65.933 203.538 497.277
154 0 93.2392 11.1219 1037 65.1765 203.852 496.808
155 1 49.0931 11.2439 552 62.8207 204 518.221
156 0 49.164 10.6786 525 64.5238 204.463 517.93
157 0 49.1273 9.48555 466 66.2339 203.371 516.835
158 0 54.1224 12.1392 657 61.8371 203.381 516.791
159 0 53.1373 10.5764 562 64.4751 202.578 517.078
160 0 54.0919 10.5931 573 65.0279 203.021 514.586
161 0 56.1015 11.5327 647 63.0804 203.552 516.474
162 0 59.1955 13.5314 801 60.7266 203.723 513.722
163 0 57.1709 11.8767 679 63.8704 203.28 510.915
164 0 61.098 10.9333 668 63.8039 203.618 512.048
165 0 61.1029 10.7851 659 63.6783 203.294 512.628
166 0 64.0735 11.6897 749 63.0441 203.613 510.115
167 0 65.0662 11.4345 744 63.3535 203.227 507.976
168 0 67.1526 10.7218 720 64.2486 203.767 507.726
169 0 66.0371 10.4487 690 64.8652 203.465 507.13
170 0 73.1202 12.7325 931 61.6509 203.276 507.362
171 0 73.1571 10.0469 735 64.9401 203.672 506.963
172 0 74.1912 10.6616 791 64.5082 204.152 503.004
173 0 79.3206 13.5148 1072 60.6166 204.038 503.839
174 0 82.1455 12.9892 1067 61.4948 203.702 501.913
175 0 83.1592 12.3258 1025 62.5688 203.954 500.339
176 0 86.0844 12.4064 1068 62.2041 204.478 501.847
177 0 87.069 12.1628 1059 62.8442 203.668 502.669
178 0 90.1286 11.4281 1030 64.3204 203.589 498.732
179 0 93.1397 10.962 1021 64.6964 204.426 496.559
180 0 96.1106 10.8417 1042 64.5461 203.97 498.61
181 1 52.0381 9.68521 504 64.5893 203.71 517.752
182 0 52.0429 10.3953 541 63.854 203.59 517.412
183 0 53.0308 10.7107 568 64.743 202.838 515.662
184 0 56.0525 12.6667 710 62.6887 203.172 514.673
185 0 58.0697 12.6228 733 62.206 202.259 514.426
186 0 60.1321 12.9049 776 61.6598 203.122 515.093
187 0 61.1582 13.4569 823 61.0097 202.392 511.767
188 0 60.0921 11.8818 714 63.8305 202.354 512.408
189 0 64.2299 12.2996 790 62.2658 201.787 513.485
190 0 65.169 10.7106 698 64.4685 201.378 510.923
191 0 68.0639 14.2366 969 60.6667 201.555 508.957
192 0 69.0952 9.50862 657 66.0852 201.107 508.205
193 0 72.0428 11.4932 828 63.7367 201.062 508.484
194 0 75.1269 11.3142 850 63.6965 200.725 509.38
195 0 77.138 13.1842 1017 61.8604 200.971 506.831
196 0 79.1171 11.7168 927 63.9817 200.796 505.422
197 0 82.0412 12.6156 1035 62.3952 200.76 506.729
198 0 85.0647 11.7675 1001 64.4865 201.141 504.378
199 0 87.0738 12.3229 1073 63.4212 201 506.694
200 0 90.1333 12.892 1162 63.543 201.003 502.776
201 0 94.117 11.677 1099 65.4386 200.361 502.999
202 0 95.0597 12.0766 1148 66.3763 200.488 500.249
203 1 48.0517 9.44816 454 66.5463 200.78 526.595
204 0 49.1529 9.70441 477 67.3585 200.117 525.392
205 0 51.0739 11.1016 567 66.3333 201.316 523.765
206 0 51.1335 10.9908 562 66.9502 200.703 523.589
207 0 55.0451 11.2998 622 65.955 200.651 522.892
208 0 55.0344 10.2663 565 68.2584 200.763 522.039
209 0 57.0874 11.4386 653 66.7412 200.974 521.594
210 0 57.0677 11.0395 630 67.8714 200.598 520.083
211 0 58.1023 12.8566 747 65.1714 200.115 520.047
212 0 60.2061 11.4274 688 66.5494 199.587 518.453
213 0 63.1394 12.8763 813 64.3801 198.932 518.496
214 0 66.1553 11.473 759 65.9855 199.296 520.111
215 0 67.2265 12.4356 836 65.1388 197.867 518.761
216 0 69.1583 12.9702 897 64.8294 198.398 513.973
217 0 70.0778 10.945 767 67.3442 197.561 515.091
218 0 73.0862 10.8776 795 67.4981 198.66 512.294
219 0 77.1688 11.3777 878 66.3132 198.214 513.255
220 0 79.27 12.3502 979 65.906 197.971 508.132
221 0 82.1796 12.9229 1062 64.4642 198.027 508.811
222 0 84.0905 11.8682 998 66.9579 198.291 505.658
223 0 85.1125 11.2557 958 67.9447 197.936 505.149
224 0 88.104 10.76 948 68.6498 197.725 503.495
225 1 47.0733 9.68702 456 66.7588 198.151 524.013
226 0 49.0698 10.3118 506 66.7352 198.209 521.381
227 0 50.0434 11.0704 554 66.1426 198.365 522.641
228 0 51.1746 12.5844 644 65.5186 197.713 520.703
229 0 52.0545 12.2564 638 66.4718 198.685 518.729
230 0 53.0471 12.668 672 65.6399 198.619 519.223
231 0 56.0988 11.8006 662 66.7251 198.674 518.705
232 0 56.0621 11.3624 637 67.2904 198.688 520.009
233 0 58.1109 11.9427 694 67.3012 197.906 517.177
234 0 60.1271 10.5111 632 69.3038 198.225 515.128
235 0 62.0577 11.3765 706 67.881 198.354 514.014
236 0 63.1477 11.5285 728 67.9245 197.995 515.118
237 0 63.1299 11.7535 742 68.5916 198.543 510.48
238 0 66.0602 10.8991 720 69.3514 198.986 511.599
239 0 68.0605 12.1069 824 67.9891 199.149 511.157
240 0 72.1214 12.4512 898 67.7918 199.35 508.983
241 0 73.1387 12.3601 904 68.7157 198.875 507.482
242 0 75.0756 11.9213 895 68.8089 198.962 508.155
243 0 78.1016 13.4952 1054 66.6803 199.293 506.002
244 0 80.1644 11.7384 941 69.6142 198.903 503.355
245 0 82.0959 11.0968 911 71.7914 198.153 503.056
246 1 44.0827 11.728 517 65.2186 199.621 523.632
247 0 42.0274 10.1838 428 69.6402 199.157 522.771
248 0 45.0492 11.5873 522 67.546 199.228 523.483
249 0 47.072 12.1516 572 65.8549 200.355 524.533
250 0 46.0312 12.2308 563 67.3908 199.877 522.734
251 0 48.071 10.5469 507 68.6568 199.542 524.588
252 0 52.1471 12.6949 662 65.3943 199.097 523.032
253 0 51.0512 11.2632 575 67.9357 199.918 523.403
254 0 53.1636 10.6464 566 67.735 199.942 523.744
255 0 55.1362 11.39 628 67.5414 199.046 521.352
256 0 57.0647 11.4782 655 67.4962 199.692 519.666
257 0 58.2213 12.3151 717 65.7852 198.424 520.176
258 0 60.1133 10.8462 652 67.5245 199.184 521.21
259 0 61.1263 12.057 737 65.6974 198.874 520.209
260 0 62.0954 11.5951 720 66.65 198.921 519.386
261 0 61.2315 10.4031 637 69.1633 198.846 517.998
262 0 65.1529 11.45 746 67.1702 198.492 516.529
263 0 67.1179 10.9658 736 67.4891 198.753 517.467
264 0 67.2261 10.6209 714 68.1148 198.496 515.359
265 0 71.1566 12.5638 894 65.9239 198.399 513.654
266 0 73.1757 11.3426 830 67.6651 198.423 512.435
267 0 75.2019 11.4359 860 67.493 198.195 513.812
268 0 78.3924 12.3864 971 66.6571 198.151 510.532
269 1 41.1903 8.78848 362 65.5055 198.903 529.727
270 0 42.1181 9.78201 412 65.1311 198.544 529.393
271 0 43.2507 10.2426 443 64.7901 198.813 529.011
272 0 43.1668 8.91888 385 66.7455 198.268 529.218
273 0 45.0691 10.5172 474 64.5063 198.376 529.027
274 0 46.1423 10.2292 472 65.2034 198.159 527.21
275 0 48.0551 10.3631 498 64.6707 197.556 527.9
276 0 50.1518 12.1631 610 62.6033 197.57 525.893
277 0 51.161 10.2813 526 65.5057 197.605 526.053
278 0 53.089 10.8874 578 64.5415 197.412 523.519
279 0 53.1305 12.0835 642 63.8037 197.34 522.874
280 0 55.2059 11.0495 610 64.5443 197.713 524.382
281 0 55.1808 10.4022 574 65.2143 196.803 523.941
282 0 59.1073 11.826 699 63.6681 196.27 521.956
283 0 58.1432 9.02943 525 67.0914 196.23 523.825
284 0 59.0955 9.52695 563 66.6092 195.924 521.238
285 0 62.1602 10.0225 623 65.6581 196.809 520.568
286 0 62.1109 9.24153 574 66.6359 196.395 519.458
287 0 65.2 9.55522 623 66.1573 196.38 520.186
288 0 69.1173 11.6324 804 63.8122 196.655 515.274
289 0 70.3268 11.7025 823 63.5869 197.166 515.095
290 0 72.1652 10.4344 753 65.3147 196.946 515.158
291 0 74.1263 9.86154 731 65.4008 197.033 516.543
292 0 77.0983 11.3362 874 64.4863 196.724 512.961
293 0 80.2173 12.0174 964 63.3568 196.831 510.087
294 0 83.122 12.0907 1005 63.4965 197.415 508.761
295 0 83.1117 11.4665 953 64.6621 196.878 510.402
296 1 46.0656 10.4416 481 62.3514 197.127 528.807
297 0 45.1011 10.2215 461 63.0542 196.95 527.547
298 0 45.0717 9.05224 408 65.6716 197 525.772
299 0 47.1437 9.7786 461 65.2017 197 523.95
300 0 49.1316 11.0723 544 63.5515 196.66 521.739
301 0 51.0544 9.65636 493 64.8215 196.86 520.888
302 0 52.1193 10.1882 531 63.9303 197.104 522.362
303 0 53.0592 11.082 588 62.7925 197.041 521.801
304 0 54.2806 11.2195 609 62.3924 196.642 521.924
305 0 56.1339 10.1365 569 64.2689 196.757 520.306
306 0 57.0567 11.6901 667 62.4363 197.18 517.453
307 0 59.1776 8.16188 483 65.619 196.677 519.308
308 0 62.0988 11.3368 704 62.3224 197.003 518.787
309 0 63.2957 11.3594 719 63.2184 196.46 514.054
310 0 62.1054 8.54998 531 66.1751 196.499 515.335
311 0 66.0868 11.5606 764 63.3285 197.065 513.658
312 0 67.1887 11.0286 741 63.4386 196.453 510.453
313 0 71.1231 10.6716 759 63.6179 196.796 510.292
314 0 73.1309 10.994 804 63.4577 196.114 509.945
315 0 75.1032 9.46697 711 64.5738 195.906 510.724
316 0 78.1978 10.7676 842 63.3575 196.034 508.292
317 0 80.108 11.6842 936 62.9231 196.319 502.026
318 0 84.0491 10.5534 887 63.5028 196.219 504.984
319 1 45.1026 11.4184 515 61.0893 196.46 521.856
320 0 48.0206 9.55839 459 63.2723 197.172 524.209
321 0 48.0936 9.83498 473 64.019 197.531 523.932
322 0 49.0908 10.7352 527 63.0076 197.882 523.732
323 0 53.0339 11.5586 613 61.5041 197.023 522.313
324 0 52.1211 9.95758 519 64.6917 196.734 518.938
325 0 57.0294 13.1686 751 60.1358 197.089 519.64
326 0 55.1866 10.7454 593 63.5953 197.607 521.196
327 0 57.1205 10.6617 609 64.7783 196.43 517.282
328 0 60.1581 12.1513 731 62.5609 197.204 518.379
329 0 60.1664 9.93911 598 66.1873 197.418 515.353
330 0 65.0811 11.7699 766 63.6854 197.585 514.307
331 0 64.2392 9.16886 589 66.7216 197.683 516.175
332 0 66.2361 11.3684 753 64.3785 197.632 514.883
333 0 69.1327 11.6587 806 63.3797 197.038 514.334
334 0 70.141 11.6622 818 64.3289 196.089 512.506
335 0 72.3129 10.6205 768 65.4232 196.46 512.316
336 0 77.239 12.0017 927 63.548 196.612 509.595
337 0 75.3649 11.8888 896 65.24 196.551 507.521
338 0 79.2424 11.3071 896 65.5 197.07 507.946
339 0 82.1497 11.8442 973 64.5704 196.968 506.983
340 0 84.1676 10.9425 921 66.0456 196.964 505.154
341 0 88.0937 12.0213 1059 64.881 196.281 500.94
342 0 93.1377 11.6709 1087 64.9853 196.953 498.768
343 0 97.1214 12.4998 1214 63.6252 196.867 499.502
344 1 46.0414 9.49146 437 65.1876 196.783 523.714
345 0 53.0736 11.7196 622 61.6849 197.092 522.129
346 0 54.0805 11.4459 619 62.0226 196.648 522.583
347 0 55.1376 10.4466 576 64.559 197.436 518.142
348 0 56.1372 10.1181 568 64.6268 197.454 519.076
349 0 59.1564 13.5235 800 59.8062 197.682 516.838
350 0 60.1178 12.4755 750 61.6267 197.569 515.387
351 0 61.3298 16.5336 1014 46.3264 196.932 516.553
352 0 62.119 11.9609 743 61.4603 197.595 517.441
353 0 64.0721 12.0333 771 62.1258 197.451 514.064
354 0 66.224 12.2614 812 61.5283 196.98 513.808
355 0 70.0992 12.0972 848 61.3608 196.35 512.86
356 0 71.2596 13.5561 966 59.94 197.152 510.334
357 0 73.2204 12.3463 904 60.8684 196.551 511.079
358 0 74.2695 12.5489 932 61.5075 197.442 508.477
359 0 76.2072 11.7049 892 62.6121 198.002 505.072
360 0 78.0604 11.6961 913 62.4064 196.659 509.436
361 0 81.1265 13.8672 1125 60.1733 196.6 505.847
362 0 84.0714 12.644 1063 61.8373 196.891 504.998
363 0 86.0515 11.6326 1001 63.3137 197.096 505.053
364 0 87.0749 11.0709 964 64.8382 197.622 502.889
365 1 40.0309 8.49345 340 65.2559 198.212 524.941
366 0 42.144 11.8403 499 63.0301 197.804 522.836
367 0 45.0381 10.48 472 64.161 197.502 522.273
368 0 45.078 10.4042 469 63.58 197.708 525.663
369 0 48.0587 10.9241 525 62.9333 197.81 524.225
370 0 47.0684 9.66679 455 65.6989 196.989 523.8
371 0 51.0944 10.9405 559 63.6208 197.372 521.826
372 0 53.0526 12.4593 661 61.8775 197.41 521.216
373 0 52.0716 10.812 563 64.0071 197.343 520.19
374 0 56.0927 13.656 766 60.2794 197.41 520.065
375 0 57.0447 12.1484 693 62.3391 197.723 516.988
376 0 58.0851 11.4659 666 62.6547 197.677 519.572
377 0 59.0767 9.00525 532 65.8985 196.996 518.536
378 0 62.0887 11.8379 735 62.4857 196.799 516.294
379 0 61.0683 10.6602 651 64.8618 197.163 513.71
380 0 67.0387 11.3367 760 63.0237 196.65 513.703
381 0 70.1197 11.3378 795 63.1044 196.762 512.357
382 0 72.0997 13.1069 945 61.4466 196.687 511.407
383 0 75.0918 12.6112 947 61.811 197.298 509.487
384 0 76.1032 12.5882 958 62.048 197.358 509.88
385 1 37.1034 10.3764 385 63.2 197.314 526.605
386 0 37.0449 9.31303 345 64.3391 197.542 526.936
387 0 40.0315 10.7415 430 63.0535 197.549 526.93
388 0 42.1458 11.8636 500 61.388 198.02 527.706
389 0 43.1122 10.3683 447 63.6197 197.942 526.025
390 0 47.1797 11.5092 543 62.2099 197.84 523.888
391 0 47.1388 11.9434 563 61.0888 197.877 524.375
392 0 47.158 11.9174 562 62.5445 197.297 521.368
393 0 51.1717 10.455 535 62.8243 197.419 523.348
394 0 50.0536 11.6275 582 63.0653 197.502 522.349
395 0 51.1321 11.128 569 63.5343 197.058 523.55
396 0 55.1014 12.5587 692 61.4061 197.608 520.481
397 0 55.3309 11.874 657 62.1963 197.686 522.291
398 0 56.0716 11.4318 641 62.1669 197.846 519.418
399 0 59.166 12.4058 734 60.5831 197.95 519.243
400 0 61.0996 12.8151 783 60.8608 198.07 516.314
401 0 63.0585 11.6241 733 61.8377 197.593 515.562
402 0 64.3684 9.38349 604 64.3079 197.825 517.098
403 0 65.0917 11.3993 742 62.4555 197.888 512.45
404 0 68.1503 10.5942 722 63.2327 197.913 514.802
405 1 35.0457 9.92988 348 61.2414 198.31 531.744
406 0 36.0795 11.7518 424 60.533 197.722 529.425
407 0 35.0568 9.75559 342 63.0234 198.143 530.164
408 0 39.1385 12.8007 501 58.8164 197.972 527.627
409 0 39.0707 9.64916 377 62.9708 198.66 530.334
410 0 42.0702 11.5997 488 60.293 198.305 529.326
411 0 42.0589 9.5818 403 62.6328 197.722 529.675
412 0 44.0833 12.1134 534 60.1124 198.174 526.884
413 0 45.1199 11.1481 503 61.4016 197.972 527.282
414 0 46.1396 11.2268 518 62.5618 197.753 524.153
415 0 47.1453 11.1146 524 62.75 197.485 525.592
416 0 47.2397 10.669 504 64.3214 197.466 524.744
417 0 51.1575 10.9075 558 62.4821 198.256 526.586
418 0 52.0584 11.7176 610 63.3689 198.018 523.038
419 0 53.063 10.2143 542 64.7712 197.648 524.467
420 0 55.2769 12.7359 704 62.2159 197.611 523.555
421 0 56.1121 12.1721 683 63.1288 197.552 521.729
422 0 58.102 11.7208 681 63.8928 197.301 521.186
423 0 59.0958 10.8299 640 64.6969 197.853 521.597
424 0 60.2133 11.1769 673 63.9153 197.374 520.574
425 0 63.1595 12.603 796 61.4058 197.143 516.715
426 0 63.0406 10.9295 689 64.8839 197.358 514.28
427 0 57.0692 10.4785 598 66.8478 197.236 511.632
428 0 58.1722 6.63547 386 69.9301 197.513 504.575
429 1 0 0 3 54.3333 195.667 478
430 1 37.0672 8.25527 306 69.4118 196.621 495.405
431 0 38.0485 9.0148 343 68.6006 196.752 492.166
432 0 39.0829 11.0023 430 61.5326 197.944 531.023
433 0 40.0195 11.1695 447 61.9262 197.761 528.038
434 0 41.04 10.7943 443 62.3318 197.585 528.98
435 0 43.0268 11.8763 511 61.1213 197.45 527.065
436 0 45.0807 12.0673 544 61.3199 198.083 526.325
437 0 44.0803 11.5244 508 62.7638 197.496 526.045
438 0 46.1013 10.542 486 63.5885 197.438 525.175
439 0 47.0322 10.3759 488 63.3996 197.033 524.195
440 0 51.0608 12.162 621 60.4605 197.166 522.902
441 0 50.0751 11.4428 573 61.0681 197.351 526.279
442 0 52.0613 11.7938 614 60.4951 197.546 524.871
443 0 54.0728 11.4106 617 61.1475 196.801 522.861
444 0 55.0841 10.6746 588 62.2432 197.415 521.641
445 0 55.0364 12.1919 671 60.8584 197.066 519.823
446 0 60.0592 11.9216 716 59.5768 197.447 521.69
447 0 59.1809 12.4871 739 59.7605 197.129 518.506
448 0 61.0359 10.4529 638 61.6505 197.5 519.472
449 0 63.077 12.2549 773 59.3144 197.974 517.461
450 0 64.0883 13.2942 852 58.6232 196.335 513.904
451 0 68.0951 13.0993 892 58.0437 197.185 514.621
452 0 72.1058 12.4123 895 58.5765 197.331 514.666
453 1 36.0968 11.4415 413 58.862 197.738 530.581
454 0 38.0355 10.8057 411 59.5645 198.241 531.467
455 0 38.0168 12.6786 482 58.4336 197.749 527.815
456 0 38.0367 10.0166 381 61.6903 197.1 529.255
457 0 40.0273 11.2923 452 59.6504 197.728 528.79
458 0 41.024 11.0667 454 59.6366 197.042 527.987
459 0 42.0477 12.581 529 58.9301 197.299 525.474
460 0 45.1534 13.133 593 57.5582 197.121 527.226
461 0 44.0308 11.0604 487 60.8583 197.76 525.441
462 0 46.0216 13.1243 604 58.3262 197.762 525.826
463 0 48.0243 12.2438 588 59.8044 197.65 524.124
464 0 45.0753 11.625 524 61.355 196.525 522.531
465 0 50.0271 12.8331 642 59.5997 197.086 522.861
466 0 51.0971 11.9772 612 61.0294 197.078 520.588
467 0 54.0648 12.2816 664 60.3434 197.262 522.245
468 0 54.027 11.883 642 61.2804 197.097 520.858
469 0 55.068 12.5845 693 60.8903 197.089 520.758
470 0 56.1063 12.209 685 61.2058 197.304 521.858
471 0 59.0925 10.5766 625 63.2 197.075 516.952
472 0 61.0826 12.8023 782 60.8414 196.88 517.742
473 0 60.1261 10.9769 660 63.3409 197.058 515.638
474 0 62.1354 11.9899 745 62.5638 197.153 518.009
475 0 65.0396 11.5468 751 62.6085 197.083 517.26
476 0 69.1533 12.494 864 61.5544 196.553 514.292
477 0 68.0983 10.7345 731 64.2326 196.383 513.616
478 0 75.1143 12.1149 910 62.411 196.553 512.564
479 1 39.0482 12.062 471 60.4968 196.592 529.533
480 0 37.0701 9.17181 340 65.0088 195.971 529.982
481 0 41.0291 12.4058 509 61.1532 196.721 527.64
482 0 41.0887 11.4387 470 62.9362 196.968 527.757
483 0 43.0484 12.8925 555 60.8378 196.506 525.124
484 0 45.1011 12.1061 546 61.9689 196.537 526.386
485 0 46.0606 10.8118 498 63.6627 197.693 525.054
486 0 49.173 12.6899 624 60.9856 197.079 524.458
487 0 49.0239 12.5245 614 61.6596 197.112 524.718
488 0 51.0872 10.7855 551 63.5608 197.1 523.775
489 0 53.0482 12.4604 661 61.1604 197.711 524.811
490 0 55.0398 10.7558 592 64.1554 197.532 521.13
491 0 55.1263 11.8274 652 62.9034 197.656 522.885
492 0 57.0382 11.0277 629 64.0111 197.267 519.983
493 0 59.208 11.772 697 62.4878 197.151 519.65
494 0 61.1042 11.4886 702 62.6339 196.979 519.751
495 0 63.0673 12.5739 793 62.0719 196.073 515.689
496 0 65.0993 12.8726 838 61.9021 196.986 513.375
497 0 67.0641 11.8245 793 62.0441 196.28 517.542
498 0 69.1457 10.2682 710 64.5366 196.793 514.144
499 1 33.0073 8.11941 268 63.5933 196.519 532.601
500 0 36.0802 10.8924 393 60.9059 197.094 532.476
501 0 34.0119 9.58488 326 64.2853 196.558 531.199
502 0 37.1392 12.1704 452 60.7412 197.341 531.708
503 0 41.0393 10.6727 438 62.2215 197.135 530.329
504 0 42.0188 11.59 487 60.8501 197.474 528.846
505 0 41.0314 11.2597 462 61.3874 197.221 529.043
506 0 44.0633 13.0948 577 59.643 197.241 527.558
507 0 43.0658 11.7959 508 62.2953 196.687 526.679
508 0 46.0695 11.678 538 61.7918 196.606 525.993
509 0 48.0565 12.7142 611 61.1047 196.64 524.334
510 0 47.0156 11.4217 537 63.7058 196.685 524.466
511 0 50.1621 13.1972 662 61.5559 197.24 524.485
512 0 51.0533 13.1235 670 60.9254 196.888 525.437
513 0 53.0654 11.0241 585 63.5487 196.754 525.88
514 0 54.0272 10.6983 578 64.7924 197.135 524.4
515 0 55.0549 11.6611 642 64.8022 197.202 520.033
516 0 57.0382 11.5712 660 65.1773 196.965 520.385
517 0 60.0497 12.4897 750 63.8813 196.055 520.096
518 0 63.0372 11.6915 737 64.5482 196.672 520.913
519 0 66.1044 13.0854 865 63.2254 196.373 518.151
520 0 68.0796 12.0447 820 64.2732 196.429 519.688
521 0 70.0583 14.0169 982 62.8554 196.463 516.652
522 1 38.1026 11.9414 455 63.8374 196.448 532.741
523 0 38.0384 11.1203 423 65.1348 196.95 532.232
524 0 38.0554 12.4293 473 64.4355 196.858 530.905
525 0 40.0787 9.83067 394 67.3503 196.893 530.607
526 0 41.0523 9.79238 402 67.995 196.326 529.386
527 0 42.0434 10.9649 461 66.7831 196.479 528.85
528 0 45.0307 11.8586 534 65.9064 196.775 527.713
529 0 46.0645 12.0483 555 65.9532 196.602 527.78
530 0 47.0249 11.781 554 66.435 196.018 527.718
531 0 48.0677 12.2535 589 66.1834 195.273 525.937
532 0 49.0447 10.888 534 68.0861 196.154 524.577
533 0 51.0188 11.0155 562 67.1032 195.641 525.747
534 0 50.0689 11.9236 597 67.1809 196.134 525.739
535 0 53.0753 11.6438 618 67.2832 196.196 524.626
536 0 54.0625 12.615 682 66.4971 196.626 522.434
537 0 57.0299 11.4852 655 66.7099 196.278 523.681
538 0 60.1266 12.0912 727 66.0853 195.706 520.695
539 0 60.0508 11.84 711 66.6723 196.391 522.332
540 0 64.0899 13.1066 840 65.2798 196.56 519.318
541 0 66.0532 12.6716 837 66.1183 196.32 516.916
542 0 64.0933 11.3116 725 68.5379 196.727 515.372
543 0 69.0457 11.8907 821 67.4032 196.252 515.635
544 1 36.0206 10.2164 368 68.3288 196.614 530.677
545 0 38.0201 10.889 414 67.3768 196.505 532.461
546 0 39.0409 10.7067 418 69.1938 196.323 530.835
547 0 39.0099 10.3051 402 70.097 196.241 529.396
548 0 44.0583 12.7104 560 65.4214 196.602 529.534
549 0 43.0579 13.2612 571 65.8494 196.233 527.89
550 0 45.1133 12.6127 569 66.5237 196.019 526.817
551 0 46.0598 12.3101 567 67.6261 196.116 528.175
552 0 47.0702 12.7469 600 66.965 196.498 529.382
553 0 49.0431 12.5196 614 68.0684 196.963 527.495
554 0 51.03 11.8166 603 69.0564 196.769 526.774
555 0 49.146 12.1475 597 69.5159 196.672 525.114
556 0 53.1063 13.746 730 66.9452 196.233 523.051
557 0 55.0325 12.7016 699 67.7611 196.345 525.509
558 0 57.0799 12.1233 692 69.2327 196.561 522.741
559 0 57.1085 13.4831 770 68.4091 196.39 521.138
560 0 57.0325 11.7126 668 70.9701 196.811 521.29
561 0 59.0985 12.5384 741 69.7355 196.667 521.424
562 0 63.0274 13.8987 876 68.0365 196.644 519.878
563 0 65.0439 12.4993 813 69.5904 196.369 520.411
564 0 66.0665 12.6539 836 69.7871 196.374 518.439
565 0 67.047 12.1109 812 70.8288 196.2 516.009
566 0 70.0834 12.9703 909 69.7888 195.976 514.175
567 0 75.056 14.0295 1053 67.4027 195.934 515.615
568 0 75.0977 12.5303 941 70.6589 195.313 513.374
569 0 78.158 13.9845 1093 68.5746 195.665 510.587
570 0 78.1791 11.7934 922 72.3948 196.308 511.986
571 1 44.0349 11.4228 503 72.2147 196.616 528.425
572 0 46.0242 12.2544 564 71.8475 196.351 526.863
573 0 48.0311 12.4086 596 71.6795 196.176 525.799
574 0 47.0714 12.7466 600 72.9683 196.902 524.823
575 0 49.0463 11.7236 575 73.7548 196.437 525.53
576 0 53.0435 13.5738 720 71.5653 196.476 523.736
577 0 55.1351 13.9294 768 70.2409 196.457 523.421
578 0 56.0974 13.7083 769 70.9558 196.349 522.229
579 0 56.0984 12.5672 705 73.6142 197.383 521.797
580 0 60.0995 12.7788 768 72.6068 198.32 520.585
581 0 61.0319 13.3045 812 71.6047 197.735 519.722
582 0 62.0508 12.2641 761 72.5414 197.47 521.478
583 0 62.0556 12.6983 788 72.7805 198.046 517.452
584 0 66.0262 13.7218 906 70.6402 197.11 516.179
585 0 69.1547 13.7229 949 70.6417 196.727 514.392
586 0 70.0356 13.2218 926 71.4935 197.347 514.837
587 0 74.0592 12.679 939 71.7114 196.745 513.885
588 0 75.0963 12.7836 960 71.6125 196.386 511.158
589 0 79.1254 13.1437 1040 70.8221 196.762 510.362
590 0 81.1159 14.5224 1178 68.4321 196.458 510.763
591 1 40.0258 11.2677 451 72.7805 196.39 527.583
592 0 41.0083 12.217 501 70.9561 196.723 527.086
593 0 43.0352 12.3155 530 70.7755 196.247 528.2
594 0 43.0842 12.6032 543 71.2652 196.899 526.171
595 0 46.0408 12.7061 585 70.8701 196.66 525.205
596 0 46.03 11.6229 535 73.1776 196.972 525.428
597 0 48.0254 13.2014 634 71.47 196.756 523.853
598 0 51.1072 13.0314 666 70.1261 197.155 524.41
599 0 52.0208 13.4369 699 70.5894 196.415 523.276
600 0 52.0712 12.6557 659 72.6373 196.865 521.185
601 0 54.0795 12.8145 693 73.1833 196.823 518.577
602 0 56.076 11.1991 628 75.2946 196.927 520.72
603 0 57.0593 11.269 643 74.9098 196.479 521.457
604 0 59.0657 12.2237 722 73.9058 196.424 517.506
605 0 61.0676 11.4136 697 74.8049 197.763 519.189
606 0 62.0257 11.8822 737 74.2578 197.091 517.224
607 0 66.019 12.5418 828 73.8188 197.516 514.302
608 0 67.0537 12.5422 841 73.6219 197.231 516.262
609 0 70.0756 13.0573 915 72.7803 196.667 512.693
610 0 74.0824 13.8764 1028 71.1946 196.877 511.996
611 0 75.1003 13.5019 1014 72.1874 197.249 510.526
612 0 75.1148 12.9002 969 74.3932 197.061 508.118
613 0 80.0465 12.9175 1034 74.0783 196.769 509.269
614 1 39.0138 9.53508 372 77.4624 197.086 528.091
615 0 44.0422 11.33 499 74.1443 196.974 527.752
616 0 44.032 11.7642 518 74.7432 197.112 527.039
617 0 45.0546 11.4971 518 75.7934 197.55 526.181
618 0 48.0425 11.0735 532 76.6917 197.299 525.31
619 0 51.1079 12.0334 615 73.9577 197.075 526.341
620 0 50.1017 12.3948 621 75.4477 197.427 523.644
621 0 52.0157 11.9387 621 76.0338 197.227 522.823
622 0 53.0147 13.8264 733 73.9973 197.087 520.303
623 0 56.0742 13.0185 730 74.0603 197.47 521.182
624 0 56.0978 12.2286 686 76.2536 197.735 520.173
625 0 60.0431 14.0399 843 72.172 197.625 519.771
626 0 61.0803 12.5081 764 74.8403 196.726 517.999
627 0 61.0784 12.4758 762 75.1234 196.596 516.577
628 0 64.0461 13.4278 860 73.8477 197.26 515.908
629 0 68.0658 12.723 866 72.955 197.307 517.166
630 0 69.097 14.1106 975 72.1477 197.307 512.369
631 0 72.0706 13.6533 984 71.5884 197.331 514.762
632 0 74.0908 14.2123 1053 71.2982 196.962 512.644
633 0 78.0491 13.9912 1092 71.1996 196.814 513.39
634 0 78.0799 12.436 971 73.3316 197.272 514.352
635 0 82.3222 13.2892 1094 72.8291 197.243 510.139
636 1 43.1674 12.2546 529 72.4745 197.677 526.575
637 0 43.2162 10.6441 460 73.2304 197.939 528.396
638 0 46.1142 12.2739 566 71.3869 197.73 526.237
639 0 47.2333 12.5124 591 71.9002 196.812 525.064
640 0 48.171 11.8536 571 72.5744 197.366 525.04
641 0 47.0802 10.6839 503 75.7992 196.702 524.817
642 0 51.076 12.7261 650 71.8554 196.888 523.457
643 0 52.0332 12.5689 654 70.867 196.537 524.119
644 0 55.1283 13.9856 771 68.4968 196.591 522.516
645 0 54.0579 12.3201 666 71.7417 197.218 522.222
646 0 57.0272 12.0118 685 71.981 196.661 519.936
647 0 57.0737 12.0721 689 72.7242 196.755 517.444
648 0 60.1718 12.697 764 70.8743 196.946 519.474
649 0 63.0365 12.8497 810 70.3457 196.494 518.179
650 0 63.0507 11.3877 718 73.1421 196.968 516.428
651 0 66.1165 12.8712 851 70.6005 197.301 515.324
652 0 70.1061 11.7108 821 71.4738 196.837 516.129
653 0 70.0633 12.2318 857 71.0035 196.932 515.763
654 0 69.138 10.8768 752 74.1343 197.285 512.743
655 1 38.0385 10.6997 407 71.6929 197.312 529.624
656 0 39.0371 9.8368 384 73.0573 197.102 529.331
657 0 42.0211 11.8988 500 71.42 198.09 527.714
658 0 43.0322 12.5255 539 69.9722 197.443 527.043
659 0 45.0264 11.3489 511 71.0705 197.262 526.793
660 0 46.0582 10.7907 497 73.5412 197.505 524.706
661 0 47.1172 12.1824 574 70.3206 197.221 526.441
662 0 46.0177 11.9737 551 71.9982 197.414 524.755
663 0 49.011 12.5278 614 70.228 197.539 525.433
664 0 50.1137 12.5115 627 71.3365 197.147 522.36
665 0 52.1628 13.132 685 70.3431 197.425 521.101
666 0 53.0256 11.8056 626 72.853 197.026 521.083
667 0 55.0956 12.5781 693 71.5238 197.177 521.115
668 0 57.0911 12.2086 697 71.6083 196.769 520.902
669 0 57.0409 12.5875 718 72.3357 196.464 518.859
670 0 60.1099 13.3089 800 70.01 196.612 521.474
671 0 60.0815 12.3832 744 72.672 197.413 518.25
672 0 64.2102 13.5025 867 69.677 197.498 518.667
673 0 65.1019 13.5941 885 70.1955 196.911 515.276
674 0 69.0395 14.2527 984 68.1738 196.7 516.294
675 0 69.1014 12.4744 862 72.2204 196.916 514.258
676 0 73.1812 14.4436 1057 68.6831 197.156 514.447
677 0 75.1037 13.2617 996 70.2088 197.589 514.386
678 0 77.2103 14.3375 1107 69.2882 197.193 512.266
679 1 43.1113 12.2242 527 71.7192 197.239 528.279
680 0 44.1117 13.6472 602 69.6179 197.002 527.827
681 0 44.0737 12.2522 540 73.7796 197.42 526.263
682 0 45.0273 13.0365 587 73.017 197.33 527.361
683 0 47.0806 13.445 633 72.4597 197.858 525.583
684 0 50.0722 13.6004 681 72.1189 197.3 524.526
685 0 50.0425 13.2488 663 73.5747 197.486 524.813
686 0 51.1375 13.5322 692 73.4321 197.225 522.727
687 0 51.0364 11.6387 594 77.7593 196.316 522.604
688 0 56.0694 13.6795 767 73.1786 196.9 523.027
689 0 57.1344 12.9519 740 75.8459 197.689 522.099
690 0 61.0764 15.0631 920 71.1402 197.466 521.5
691 0 61.1224 14.4464 883 72.3262 197.096 521.787
692 0 62.0703 14.2741 886 74.2167 197.128 518.137
693 0 63.0807 13.3955 845 75.5598 196.444 519.279
694 0 66.0822 14.0734 930 73.8538 197.012 518.086
695 0 68.1005 14.0528 957 74.0345 196.506 517.145
696 0 67.2246 13.5813 913 76.8127 196.61 514.597
697 0 71.1293 13.609 968 76.0486 196.997 516.913
698 0 75.0793 13.852 1040 75.3798 196.86 514.09
699 0 75.0777 12.587 945 78.3439 197.207 513.816
700 0 79.1045 14.6262 1157 74.7485 197.031 511.075
701 0 82.0544 14.6976 1206 74.2546 197.049 513.09
702 0 81.1506 12.5323 1017 79.3461 197.591 511.547
703 0 85.2281 14.6079 1245 75.7944 196.772 511.192
704 1 46.1153 13.0976 604 78.144 196.922 528.897
705 0 47.0299 14.7991 696 76.5316 196.943 528.491
706 0 48.1204 12.9259 622 79.9421 196.796 528.579
707 0 48.0904 14.348 690 79.6145 197.104 526.035
708 0 50.0605 12.7845 640 81.4531 196.317 526.155
709 0 52.0997 13.5509 706 79.4731 196.776 526.432
710 0 55.0501 14.7865 814 77.3796 197.068 525.455
711 0 56.0544 15.0568 844 77.5083 196.711 523.309
712 0 58.108 15.2647 887 76.6043 196.274 524.303
713 0 60.0208 14.9282 896 77.6518 196.364 521.567
714 0 61.1396 14.3442 877 78.4367 196.358 521.572
715 0 64.0558 13.3946 858 79.549 196.978 520.559
716 0 65.0424 13.8832 903 78.959 196.878 520.209
717 0 67.0805 14.3559 963 78.8017 196.968 518.472
718 0 70.11 14.6199 1025 77.5102 197.037 518.01
719 0 72.2559 14.4348 1043 77.8802 197.323 517.8
720 0 75.2188 14.5044 1091 76.5692 196.603 518.267
721 0 79.1775 14.1454 1120 77.1848 196.579 515.257
722 0 78.0649 14.0524 1097 78.5178 197.139 513.698
723 0 82.1783 14.3103 1176 77.8061 196.543 512.413
724 0 84.2137 15.9357 1342 75.1624 196.589 510.796
725 0 87.2237 13.9068 1213 77.85 196.897 513.076
726 0 90.0497 15.7247 1416 75.8383 197.068 508.277
727 0 93.0704 13.7638 1281 79.0882 197.023 507.969
728 0 95.1664 13.7233 1306 79.7427 196.909 505.667
729 1 49.0953 13.4432 660 80.3697 196.753 527.415
730 0 51.0462 14.1832 724 80.1064 197.018 526.744
731 0 52.0387 13.5284 704 80.5724 197.172 526.205
732 0 53.0315 13.954 740 81.2081 197.034 524.922
733 0 57.0503 13.5495 773 81.6688 196.878 523.969
734 0 59.0255 15.4848 914 77.1597 196.73 523.909
735 0 60.0963 15.2422 916 76.8581 196.945 523.596
736 0 61.0982 15.7942 965 76.7492 197.136 521.962
737 0 64.2195 14.9799 962 76.8035 197.502 520.628
738 0 65.054 15.0029 976 76.9252 197.258 520.221
739 0 66.078 14.831 980 77.3357 197.272 520.989
740 0 72.0936 15.9515 1150 74.3235 197.13 518.711
741 0 72.0533 15.3359 1105 75.6208 197.126 517.596
742 0 72.1012 13.9665 1007 78.3962 196.778 516.325
743 0 75.1575 14.1835 1066 77.4353 196.623 514.782
744 0 79.1606 15.6517 1239 74.9903 196.273 513.692
745 0 79.169 13.9322 1103 78.0626 195.723 513.426
746 0 83.2645 14.0996 1174 76.8612 196.293 512.519
747 0 87.2309 14.9374 1303 76.1704 196.136 511.309
748 0 89.129 13.9236 1241 77.8461 195.938 508.546
749 0 91.2489 13.9947 1277 77.8857 196.567 509.522
750 0 94.1549 15.124 1424 76.0534 196.28 508.574
751 1 47.0928 13.4415 633 78.9984 196.055 527.564
752 0 48.2444 13.784 665 79.5008 195.958 526.756
753 0 50.052 13.9855 700 79.3686 196.749 526.959
754 0 50.2073 14.8584 746 77.8499 196.71 527.173
755 0 52.0317 13.8761 722 78.8019 196.616 526.916
756 0 55.1294 15.1643 836 76.4234 196.914 526.184
757 0 55.1105 15.6776 864 77.3854 196.406 524.185
758 0 55.1216 13.8966 766 79.9909 196.055 524.103
759 0 59.1286 15.7115 929 75.8482 196.76 522.351
760 0 62.0724 13.6131 845 78.3444 196.415 522.275
761 0 63.1737 14.8638 939 77.4239 196.446 518.489
762 0 65.3297 14.0365 917 77.6314 196.244 520.798
763 0 66.0623 14.8496 981 77.5311 196.087 519.386
764 0 69.1497 14.8085 1024 76.7324 196.645 519.778
765 0 71.1847 13.7389 978 78.2025 195.887 518.521
766 0 75.1081 15.7639 1184 74.2694 197.067 517.388
767 0 75.228 12.5884 947 79.5364 195.837 515.231
768 0 78.2047 14.3086 1119 77.1912 196.449 515.206
769 0 82.2413 14.1048 1160 76.7621 196.703 515.239
770 0 85.2061 14.7759 1259 76.0087 196.256 512.581
771 0 86.0883 14.7871 1273 76.806 196.418 510.882
772 1 43.1015 15.5911 672 74.7098 196.476 533.244
773 0 40.1316 13.4059 538 79.7974 196.249 532.563
774 0 41.1174 13.4493 553 79.9892 196.007 531.933
775 0 44.1141 15.3692 678 76.7714 195.968 531.549
776 0 45.0852 14.395 649 77.7304 196.47 530.892
777 0 47.0915 13.9303 656 78.1921 196.206 531.021
778 0 46.1671 14.6425 676 78.4379 196.482 528.096
779 0 48.165 14.8863 717 77.6974 196.053 528.96
780 0 49.0499 13.4149 658 79.7325 196.337 529.767
781 0 51.107 15.2817 781 77.265 196.06 527.889
782 0 53.1491 15.1461 805 75.6199 196.678 529.128
783 0 52.1032 13.9147 725 78.4952 196.621 527.79
784 0 55.1838 14.2795 788 77.5279 196.445 526.688
785 0 59.104 17.1562 1014 72.2209 197.112 525.235
786 0 59.1885 14.9184 883 75.3194 196.558 525.599
787 0 62.2056 14.5324 904 75.5454 196.324 524.503
788 0 63.0981 15.5155 979 75.1461 196.291 521.523
789 0 66.1414 16.7822 1110 73.745 195.891 520.993
790 0 67.1311 14.7324 989 76.998 195.427 520.917
791 0 69.1177 12.6885 877 79.7742 195.727 519.921
792 0 73.191 14.7969 1083 76.2881 196.247 519.475
793 0 75.1993 15.1065 1136 75.5616 196.339 519.167
794 0 77.1551 14.1274 1090 77.3073 196.806 515.846
795 0 78.2799 14.5631 1140 76.8386 196.181 517.026
796 1 38.0901 13.9669 532 76.3064 196.148 534.761
797 0 38.0833 13.8118 526 76.827 196.306 534.728
798 0 40.1548 12.651 508 77.75 196.307 534.531
799 0 39.0674 13.8735 542 77.2251 196.378 533.716
800 0 41.1011 14.9388 614 76.1156 196.363 532.586
801 0 41.0826 14.1909 583 78.223 196.384 532.28
802 0 44.1003 14.2176 627 76.4099 196.581 532.547
803 0 44.1878 14.1442 625 77.0976 196.6 531.536
804 0 46.0701 13.6965 631 77.1807 196.643 532.113
805 0 48.0973 14.4499 695 76.8719 196.511 529.173
806 0 49.1157 14.4964 712 76.7261 196.277 529.303
807 0 49.0604 13.412 658 78.3602 196.505 528.913
808 0 53.1902 14.4764 770 75.7325 196.319 529.581
809 0 55.1222 15.0212 828 74.9601 196.699 528.414
810 0 58.2338 15.558 906 72.883 196.472 527.978
811 0 59.0392 16.8024 992 72.8236 196.502 524.014
812 0 60.2088 14.1508 852 76.6854 196.087 523.786
813 0 62.115 13.9741 868 76.1509 197.029 525.513
814 0 64.1007 13.6192 873 77.3918 196.497 523.029
815 0 67.1562 14.6673 985 75.8071 196.523 523.992
816 0 69.1514 13.4777 932 78.4678 196.579 520.909
817 0 71.1538 13.8714 987 78.2756 197.111 520.37
818 0 75.1386 14.6662 1102 76.5499 196.728 520.136
819 0 77.1214 14.6522 1130 76.8248 196.679 519.739
820 0 80.1392 16.1968 1298 74.6741 196.71 516.527
821 0 80.2 14.2145 1140 77.1711 196.427 518.702
822 0 82.238 13.5096 1111 78.9919 196.761 514.859
823 1 38.0376 14.3016 544 76.2978 195.982 536.039
824 0 38.1096 14.5633 555 76.6793 195.868 536.175
825 0 38.0919 13.5462 516 77.1667 196.612 536.719
826 0 40.2001 15 603 74.8076 196.325 536.64
827 0 41.1006 14.5497 598 75.913 196.468 536.726
828 0 41.212 14.5589 600 77.2433 196.388 534.845
829 0 42.253 14.5552 615 77.7463 196.135 533.618
830 0 43.1711 14.0372 606 77.6518 196.657 534.726
831 0 43.1454 15.0885 651 76.2273 195.65 534.048
832 0 44.1278 14.2994 631 78.8177 196.13 531.448
833 0 47.2008 14.4277 681 77.7019 196.195 531.404
834 0 49.0944 14.4619 710 77.2789 196.996 532.277
835 0 51.1418 15.7601 806 75.6427 196.738 531.301
836 0 51.0827 14.1144 721 78.5104 196.671 530.671
837 0 52.2861 14.4207 754 78.6008 196.347 529.899
838 0 54.3226 14.4323 784 78.9541 196.096 529.061
839 0 56.2026 14.7324 828 78.0531 195.998 528.559
840 0 58.1714 15.9013 925 77.3632 196.466 527.461
841 0 59.4936 13.1611 783 81.1877 196.64 527.861
842 0 63.1091 14.3878 908 79.4956 196.54 526.156
843 0 64.1425 15.4812 993 78.7694 196.972 523.545
844 0 67.1358 15.2825 1026 78.1306 196.863 524.582
845 0 67.2292 14.1605 952 80.1555 196.767 523.075
846 0 71.1168 14.4129 1025 79.2634 196.072 522.29
847 0 72.2029 13.8637 1001 80.3896 196.341 520.663
848 0 76.2376 14.481 1104 79.0951 196.484 519.866
849 0 76.2393 13.5888 1036 79.9836 196.052 519.861
850 0 80.4062 13.0214 1047 80.6189 195.935 517.491
851 0 83.1599 14.5383 1209 78.6733 196.692 515.503
852 1 41.2093 14.0017 577 80.1196 196.208 533.865
853 0 45.2171 13.3357 603 80.1493 196.158 532.217
854 0 46.0793 13.5853 626 79.7077 195.955 533.548
855 0 47.4613 14.7278 699 78.4635 196.275 532.123
856 0 49.2056 15.6486 770 77.2039 195.996 530.405
857 0 50.1333 14.7806 741 78.5789 196.142 531.404
858 0 51.1094 13.5591 693 81.3016 195.58 530.074
859 0 54.1064 14.7857 800 78.8588 195.81 529.932
860 0 53.2468 14.63 779 80.9807 196.471 529.049
861 0 55.2477 14.6431 809 83.0593 195.978 527.393
862 0 57.3578 14.9587 858 82.2995 196.305 527.833
863 0 60.5933 15.2987 927 80.9148 195.6 526.205
864 0 60.1815 13.7418 827 84.5333 196.062 526.135
865 0 63.089 14.218 897 84.019 196.136 523.741
866 0 65.1055 13.5012 879 84.116 196.709 525.595
867 0 67.1794 14.7664 992 82.6482 196.175 523.501
868 0 71.1661 15.8502 1128 80.5887 196.604 522.627
869 0 73.4032 15.1764 1114 82.0099 196.794 520.86
870 0 76.2098 14.9981 1143 81.6544 196.298 519.393
871 0 77.2039 14.8568 1147 82.1229 196.016 520.033
872 0 81.2387 16.8393 1368 77.9306 196.319 519.367
873 0 83.1891 13.848 1152 83.184 195.361 517.693
874 0 84.1484 15.128 1273 81.2734 195.768 515.203
875 1 39.1768 13.605 533 83.0901 196.113 536.308
876 0 40.1232 13.9321 559 83.9499 196.34 535.081
877 0 42.0983 13.3497 562 82.1281 196.137 536.286
878 0 42.1286 15.5002 653 80.4885 195.519 533.657
879 0 43.0891 16.2454 700 80.4743 195.996 532.633
880 0 45.1817 15.0503 680 81.225 196.119 534.018
881 0 44.2115 14.5437 643 83.5334 196.395 533.479
882 0 48.2526 15.2116 734 81.2262 196.166 532.518
883 0 49.1782 14.1119 694 83.2608 196.195 531.491
884 0 50.1521 16.3702 821 79.3788 196.234 530.482
885 0 51.1926 16.0375 821 80.8368 196.217 529.206
886 0 51.2086 16.2277 831 81.3646 196.361 527.663
887 0 54.1478 15.3838 833 81.1933 196.229 528.736
888 0 57.1783 16.4048 938 79.0693 196.538 528.638
889 0 58.0811 15.9777 928 79.6659 196.365 527.955
890 0 59.0757 16.0472 948 80.2848 196.739 525.331
891 0 61.1306 15.5896 953 80.8059 196.286 525.058
892 0 63.1247 14.8912 940 81.267 196.441 525.159
893 0 65.164 15.3459 1000 80.813 196.942 522.946
894 0 66.2442 15.775 1045 79.6555 196.296 523.566
895 0 69.1552 14.5759 1008 80.6935 196.271 523.091
896 0 70.2278 15.2361 1070 81.0262 196.28 519.65
897 0 74.1486 16.2377 1204 78.956 196.275 518.798
898 0 76.1283 15.8811 1209 79.3275 196.257 517.258
899 0 77.2136 16.0075 1236 79.0971 196.646 517.035
900 0 79.3856 16.2876 1293 78.2831 196.732 516.026
901 0 84.3088 16.5582 1396 77.2887 196.453 515.942
902 0 85.2104 15.8549 1351 78.8127 196.264 515.337
903 0 86.2654 15.5335 1340 79.75 195.959 512.688
904 0 89.3308 14.7989 1322 80.4266 195.957 513.299
905 0 92.4052 15.2589 1410 79.083 196.265 512.699
906 0 94.2399 15.121 1425 79.8211 196.081 509.769
907 0 99.2311 15.8922 1577 77.9537 196.24 509.574
908 0 102.439 16.2732 1667 77.4415 196.624 504.651
909 0 105.456 17.1446 1808 76.8402 197.04 506.014
910 0 107.229 15.6861 1682 79.6058 197.801 505.951
911 0 108.317 14.873 1611 81.7343 197.544 505.041
912 0 112.278 16.6908 1874 79.0507 197.709 502.153
913 0 113.196 14.9564 1693 81.8937 197.913 503.927
914 0 116.205 15.8943 1847 81.0401 197.664 502.468
915 0 119.351 14.8637 1774 83.0158 196.944 499.636
916 0 121.251 15.1091 1832 83.0901 197.067 499.08
917 0 125.165 15.3957 1927 82.506 196.974 496.222
918 0 131.273 18.054 2370 77.2713 196.916 497.984
919 0 135.297 16.1497 2185 80.4151 196.504 494.375
920 0 139.359 16.4755 2296 80.3698 196.606 491.17
921 0 145.432 16.5438 2406 79.2988 196.342 489.094
922 0 148.243 16.8777 2502 79.1411 196.873 484.886
923 0 153.238 15.5053 2376 81.1111 196.154 484.301
924 0 158.473 15.744 2495 80.414 196.699 480.316
925 0 164.444 15.5554 2558 80.0195 196.864 481.032
926 0 169.341 14.3498 2430 82.3461 196.402 477.64
927 1 121.382 15.6118 1895 82.2675 196.932 500.476
928 0 126.409 15.2995 1934 83.5372 196.522 495.825
929 0 131.365 15.1944 1996 83.4153 196.554 494.528
930 0 135.468 16.1145 2183 81.9569 196.472 493.017
931 0 139.229 14.6378 2038 84.2669 196.672 492.708
932 0 144.227 16.2314 2341 81.8607 196.513 488.792
933 0 150.434 14.8238 2230 83.5238 196.848 486.442
934 0 154.271 15.233 2350 83.3068 197.111 485.815
935 0 159.257 15.3212 2440 82.5041 197.079 482.938
936 0 163.376 15.2838 2497 83.0324 197.395 481.449
937 0 171.609 15.6694 2689 81.8048 197.279 476.996
938 0 176.269 16.2536 2865 81.0496 197.124 474.432
939 0 179.394 15.976 2866 82.0897 196.849 472.108
940 0 185.268 15.3022 2835 83.2656 196.235 468.296
941 1 118.137 16.0915 1901 84.0005 196.701 500.409
942 0 121.152 15.9056 1927 84.5672 197.181 497.591
943 1 49.0864 14.1994 697 92.0933 196.865 530.337
944 0 50.0485 15.1853 760 91.4053 197.493 530.533
945 0 54.0816 16.1238 872 87.6892 197.579 529.76
946 0 53.0725 14.9984 796 91.4636 197.303 528.167
947 0 56.0925 15.2249 854 90.7131 197.717 527.59
948 0 56.044 15.4343 865 90.0728 197.365 527.405
949 0 59.1 15.7191 929 88.3681 197.784 527.307
950 0 61.0682 16.3915 1001 87.014 197.254 526.57
951 0 62.1345 15.1767 943 89.912 197.304 524.549
952 0 63.2442 16.128 1020 87.9275 196.797 523.042
953 0 65.1438 16.7322 1090 86.2083 197.346 523.613
954 0 68.0595 15.8244 1077 86.6574 197.279 522.064
955 0 69.1578 15.5731 1077 87.0093 196.31 522.007
956 0 73.249 17.0378 1248 84.5978 197.07 519.646
957 0 74.0787 16.145 1196 85.2609 196.517 520.324
958 0 74.1058 14.8571 1101 89.1299 197.142 517.88
959 0 78.1356 14.846 1160 88.8517 196.453 517.936
960 0 79.1668 15.0947 1195 88.9883 196.772 517.05
961 0 83.1557 15.934 1325 88.0015 197.3 514.595
962 0 85.2568 16.1629 1378 88.0994 196.956 513.758
963 0 88.5197 16.4935 1460 88.0096 197.555 511.635
964 1 159.256 16.4766 2624 84.3601 196.51 480.909
965 0 162.419 15.1891 2467 87.0697 196.822 482.761
966 0 168.297 15.7341 2648 86.0804 197.232 480.447
967 0 172.241 14.4158 2483 88.7656 196.87 477.855
968 0 170.381 12.1727 2074 92.2338 197.066 484.031
969 1 181.14 13.6083 2465 91.4726 196.774 471.372
970 0 188.343 15.4718 2914 88.1283 197.236 468.446
971 0 189.252 15.0065 2840 87.3761 197.101 478.402
972 0 198.368 14.1656 2810 90.7979 197.141 461.726
973 0 204.26 14.2025 2901 89.7966 197.251 469.689
974 0 209.425 14.4157 3019 90.4167 197.08 459.547
975 1 121.158 15.096 1829 94.5041 196.902 500.411
976 0 126.314 15.0261 1898 94.411 196.842 497.985
977 0 129.19 14.2194 1837 96.6015 196.899 496.137
978 0 133.204 14.9621 1993 95.6528 196.805 493.893
979 0 136.17 15.8405 2157 94.0825 196.619 492.124
980 0 138.172 14.3662 1985 97.067 196.958 490.688
981 1 61.0865 16.4848 1007 99.4677 196.774 525.801
982 0 62.0414 15.9732 991 101.03 197.265 524.214
983 0 66.1181 16.2739 1076 98.9238 197.126 523.98
984 0 66.0507 16.4116 1084 99.9151 197.365 522.217
985 0 67.1246 14.5848 979 104.254 197.474 521.121
986 0 71.0957 17.0053 1209 97.1026 197.158 520.804
987 0 74.0712 15.7686 1168 100.378 197.533 518.449
988 0 73.0776 14.9841 1095 102.712 197.219 518.048
989 0 77.0556 15.5602 1199 99.5379 196.405 519.445
990 0 79.1072 15.8266 1252 100.783 197.272 517.046
991 0 79.1125 15.459 1223 101.132 196.896 518.07
992 0 82.0773 14.2183 1167 104.98 197.171 514.814
993 0 87.0745 16.7443 1458 98.6818 197.077 513.606
994 1 38.0512 14.4279 549 104.967 197.605 534.434
995 0 40.0631 14.9264 598 102.498 197.062 534.916
996 0 39.2011 14.0812 552 106.764 197.839 534.819
997 0 42.0595 15.2641 642 104.33 197.357 533.863
998 0 43.0682 14.7673 636 105.255 196.95 533.384
999 0 44.1021 14.6025 644 106 197.3 533.036
1000 0 44.0994 15.0115 662 105.515 197.145 533.091
1001 0 43.0069 14.8581 639 106.77 197.18 533.721
1002 0 45.0595 15.424 695 106.019 197.098 533.304
1003 0 47.1214 14.1125 665 107.768 196.809 533.2
1004 0 50.0906 15.9711 800 104.265 196.929 530.788
1005 0 49.1837 14.5373 715 108.587 196.221 530.983
1006 0 53.0355 16.4041 870 102.921 196.531 530.766
1007 0 51.1489 15.6602 801 107.095 196.888 529.493
1008 0 52.2227 15.2233 795 108.558 196.522 528.704
1009 0 52.2403 14.797 773 108.979 196.312 529.545
1010 0 54.1569 15.1781 822 108.353 196.535 528.586
1011 0 56.074 15.1585 850 107.752 196.845 527.667
1012 0 58.1012 15.3353 891 105.806 196.072 528.718
1013 0 60.2245 15.9569 961 104.035 196.288 528.236
1014 0 64.1537 15.9461 1023 103.31 196.387 527.402
1015 0 64.1384 17.3531 1113 100.03 196.206 526.236
1016 0 65.0544 15.4794 1007 102.055 196.88 528.882
1017 0 68.1349 16.5114 1125 101.023 196.929 525.702
1018 0 69.104 14.8472 1026 104.948 196.823 525.026
1019 0 72.0708 16.4422 1185 100.737 196.484 523.468
1020 0 73.0526 16.2075 1184 102.205 196.378 521.264
1021 0 76.0655 15.2106 1157 103.563 196.23 522.023
1022 0 77.1245 15.3388 1183 103.31 196.325 520.99
1023 0 80.1087 15.454 1238 104.099 196.047 518.036
1024 0 82.1209 15.599 1281 103.627 196.3 516.798
1025 0 85.1582 16.5339 1408 101.515 196.085 516.857
1026 0 87.0667 15.9533 1389 103.492 196.376 516.937
1027 0 94.17 15.3764 1448 102.701 195.509 516.481
1028 0 93.0801 16.6093 1546 102.541 195.735 512.704
1029 0 97.1454 15.9864 1553 102.935 195.468 512.404
1030 0 100.193 16.6579 1669 101.994 195.249 510.38
1031 0 102.116 15.2474 1557 105.642 195.187 510.855
1032 0 104.237 14.9468 1558 107.055 195.756 509.022
1033 0 107.164 15.5743 1669 105.107 196.04 507.573
1034 0 110.133 16.1442 1778 103.186 195.624 507.31
1035 0 113.249 16.0355 1816 104.488 195.877 504.758
1036 0 114.338 15.4804 1770 105.425 195.425 505.582
1037 0 119.068 16.2681 1937 102.715 195.692 505.89
1038 0 120.266 15.0167 1806 107.487 194.888 503.38
1039 0 123.212 15.94 1964 105.631 195.181 501.128
1040 0 130.297 14.6742 1912 106.883 194.419 502.608
1041 0 129.138 15.3712 1985 105.687 194.926 500.952
1042 0 133.086 15.2909 2035 106.102 195.071 496.739
1043 0 138.17 16.458 2274 102.62 195.276 497.072
1044 0 142.16 15.3559 2183 104.338 194.996 494.407
1045 0 146.325 16.1217 2359 102.367 194.855 493.606
1046 0 152.196 16.6627 2536 99.9641 194.707 491.169
1047 1 107.156 15.4728 1658 105.139 194.569 509.811
1048 0 109.143 15.4019 1681 105.752 195.872 507.462
1049 0 111.246 15.3534 1708 105.442 195.787 507.52
1050 0 116.337 16.0225 1864 103.622 195.37 505.104
1051 0 119.115 17.0676 2033 101.747 195.136 503.747
1052 0 123.175 15.6768 1931 104.458 195.059 501.308
1053 0 126.146 16.0131 2020 103.934 195.012 500.689
1054 0 130.18 16.8844 2198 101.991 194.6 498.8
1055 0 134.373 15.6207 2099 104.381 195.214 497.483
1056 0 139.19 16.1506 2248 102.57 194.818 494.824
1057 0 144.142 16.3033 2350 101.999 194.909 492.143
1058 0 147.179 16.5512 2436 101.95 194.744 490.408
1059 0 155.341 16.4348 2553 100.319 195.21 489.6
1060 0 158.273 16.5348 2617 100.659 195.016 486.148
1061 0 163.2 16.3236 2664 101.546 195.387 485.697
1062 0 169.184 17.0998 2893 99.1552 195.421 484.574
1063 0 174.196 16.5044 2875 99.9774 195.529 481.27
1064 0 178.216 15.4868 2760 102.816 195.218 474.521
1065 0 185.218 16.6074 3076 100.143 195.538 475.473
1066 0 188.225 15.2212 2865 103.186 195.011 471.175
1067 0 195.27 16.7204 3265 99.2564 195.003 468.202
1068 0 202.278 15.8939 3215 100.34 195.508 466.566
1069 0 209.32 16.2574 3403 98.1125 195.091 468.656
1070 0 214.209 16.3672 3506 99.2379 196.187 462.963
1071 1 167.087 15.7763 2636 101.732 195.353 486.938
1072 0 170.191 14.9067 2537 104.106 195.781 482.75
1073 0 176.255 14.6662 2585 103.154 194.997 481.803
1074 0 180.353 14.9319 2693 102.645 196.207 479.291
1075 0 187.238 16.2093 3035 99.8735 195.765 472.599
1076 0 193.242 14.6345 2828 102.332 195.854 472
1077 0 198.245 16.1618 3204 98.5964 195.98 469.066
1078 0 204.314 15.7258 3213 99.3589 196.158 466.961
1079 0 211.309 15.2336 3219 100.22 196.206 460.691
1080 0 216.397 14.4641 3130 101.654 196.006 458.413
1081 0 223.254 14.974 3343 99.7481 196.547 460.572
1082 0 229.218 15.23 3491 99.2793 196.207 453.542
1083 1 119.169 16.0445 1912 102.195 196.431 506.486
1084 0 122.15 14.1793 1732 105.721 195.662 504.6
1085 0 125.2 13.9617 1748 106.492 196.527 501.831
1086 0 131.202 15.8763 2083 101.201 195.82 498.782
1087 0 134.104 14.884 1996 103.376 195.972 496.2
1088 0 139.255 15.7194 2189 100.794 195.838 495.863
1089 0 142.134 15.3658 2184 102.086 195.624 492.06
1090 0 147.141 15.9507 2347 100.732 196.62 490.132
1091 0 150.166 15.03 2257 103.185 195.896 489.653
1092 0 157.244 15.4282 2426 101.561 197.204 487.974
1093 0 160.198 16.9228 2711 97.6422 196.392 487.374
1094 0 164.413 14.7738 2429 102.739 196.315 483.122
1095 0 171.251 16.9225 2898 97.7995 197.175 478.9
1096 0 175.276 14.2347 2495 103.317 196.497 480.78
1097 1 46.0646 14.6968 677 108.408 195.879 536.297
1098 0 46.0426 14.6603 675 109.904 196.236 535.222
1099 0 46.0939 14.8827 686 109.208 196 535.229
1100 0 48.1303 13.6297 656 112.372 196.245 534.654
1101 0 49.087 14.3419 704 109.919 196.607 534.3
1102 0 51.1332 14.3742 735 109.2 195.982 533.574
1103 0 53.0519 14.7214 781 108.479 196.469 532.565
1104 0 54.0541 15.614 844 106.883 196.174 532.492
1105 0 56.0725 14.7131 825 108.423 196.217 531.939
1106 0 54.0516 13.9866 756 111.272 196.143 531.784
1107 0 57.1387 14.7186 841 107.931 196.308 530.491
1108 0 59.0555 15.6124 922 105.973 196.136 529.17
1109 0 61.0969 15.5163 948 104.722 196.525 529.427
1110 0 63.2329 14.7075 930 106.409 196.596 526.733
1111 0 64.1423 16.4166 1053 101.566 196.69 528.046
1112 0 65.0855 14.9957 976 105.374 196.086 526.016
1113 0 68.1091 14.1978 967 105.91 196.424 524.226
1114 0 71.04 15.3153 1088 102.597 196.331 523.656
1115 0 73.1291 15.7666 1153 101.348 196.695 521.31
1116 0 75.1718 16.0965 1210 99.5603 196.9 521.809
1117 0 77.0584 14.2619 1099 102.899 196.313 519.648
1118 0 82.1166 15.7459 1293 98.0418 196.486 519.827
1119 0 82.0453 15.1989 1247 100.149 195.981 516.576
1120 0 84.1051 14.4462 1215 101.896 195.669 515.715
1121 0 90.1172 14.8917 1342 98.4784 196.419 516.675
1122 0 94.084 15.2417 1434 97.2336 196.537 513.93
1123 0 97.129 14.1358 1373 99.9352 196.428 510.784
1124 1 42.0663 14.596 614 98.8616 196.813 536.436
1125 0 42.0455 14.9362 628 99.9475 197.032 534.422
1126 0 44.0575 14.0952 621 101.422 197.011 534.39
1127 0 44.0865 15.0613 664 99.994 196.926 534.572
1128 0 47.0342 14.2024 668 101.168 196.802 533.759
1129 0 47.0389 15.2427 717 99.4045 197.187 533.742
1130 0 50.0889 15.193 761 98.067 196.991 533.779
1131 0 50.065 15.3401 768 99.431 196.723 532.365
1132 0 51.0389 15.3608 784 99.6186 196.541 532.26
1133 0 54.1246 15.372 832 97.8317 196.863 532.935
1134 0 54.0482 14.5981 789 99.6553 196.29 532.134
1135 0 55.0826 15.0501 829 98.7189 196.8 531.859
1136 0 57.1407 16.5906 948 95.9146 196.618 530.035
1137 0 57.1711 14.6578 838 100.468 196.308 529.736
1138 0 60.0523 16.5189 992 96.3115 197.007 527.828
1139 0 62.0597 15.7268 976 97.3012 197.08 526.1
1140 0 64.0729 15.4512 990 98.3606 197.269 526.578
1141 0 66.0935 15.8563 1048 96.812 197.498 526.169
1142 0 67.1274 14.7481 990 99.3717 197.678 524.173
1143 0 70.084 15.724 1102 97.1234 197.214 522.499
1144 0 73.326 15.9425 1169 95.1805 197.049 522.968
1145 0 77.1304 17.1657 1324 92.4184 197.167 520.747
1146 0 77.0992 15.5384 1198 96.0351 196.795 521.498
1147 0 80.0917 15.9692 1279 94.7396 196.356 518.563
1148 0 82.1646 15.0308 1235 96.9296 197.023 517.268
1149 0 85.234 16.4488 1402 94.2924 197.155 518.009
1150 0 86.1272 15.5932 1343 96.7372 197.284 515.304
1151 0 91.1373 16.4258 1497 94.0762 197.295 514.983
1152 0 95.0985 15.9098 1513 94.2954 196.552 512.177
1153 1 40.0484 14.7072 589 98.4754 197.042 537.273
1154 0 42.0598 14.0514 591 98.5516 197.876 537.068
1155 0 42.0645 15.0958 635 98.7858 197.561 535.764
1156 0 46.0364 15.5312 715 95.8559 197.357 534.045
1157 0 45.0669 15.2662 688 98.5203 196.913 534.283
1158 0 47.0247 15.7152 739 97.7957 197.426 534.043
1159 0 47.1888 14.5373 686 101.605 197.191 534.63
1160 0 49.0776 16.9731 833 96.2941 196.623 534.606
1161 0 50.0889 15.4126 772 100.317 197.105 533.306
1162 0 49.0278 15.0119 736 102.598 197.152 532.576
1163 0 51.065 15.7055 802 100.86 197.494 531.67
1164 0 52.0745 14.9977 781 102.641 196.776 532.365
1165 0 54.132 15.222 824 101.879 197.217 531.15
1166 0 54.0773 15.3669 831 103.467 197.034 528.793
1167 0 56.1215 16.2505 912 100.362 197.344 529.466
1168 0 58.106 16.6592 968 98.5558 197.381 530.331
1169 0 59.0868 15.8242 935 101.071 197.033 529.036
1170 0 61.151 15.8624 970 100.912 196.821 527.007
1171 0 62.0495 16.1484 1002 101.183 196.655 526.366
1172 0 63.1323 16.2357 1025 100.978 196.915 524.505
1173 0 67.0545 16.7177 1121 98.7413 196.328 524.394
1174 0 68.0925 15.0384 1024 102.11 196.471 524.008
1175 0 71.1285 15.6477 1113 100.393 196.462 522.686
1176 0 74.1213 16.0278 1188 98.7845 196.866 521.749
1177 0 76.1593 16.8988 1287 96.6014 196.832 521.026
1178 0 78.179 15.5668 1217 100.168 197.119 519.988
1179 0 80.1862 16.8982 1355 96.9904 196.81 519.483
1180 0 84.1037 15.4928 1303 99.3753 196.342 517.97
1181 0 86.238 15.8051 1363 98.7674 196.73 516.011
1182 0 88.1921 15.4889 1366 99.7958 196.207 515.702
1183 0 92.091 16.0493 1478 98.4682 197.112 513.685
1184 0 95.0833 15.9229 1514 97.7517 197.009 513.38
1185 0 99.1372 17.1379 1699 94.8505 196.42 511.384
1186 0 100.171 15.813 1584 97.9722 196.648 510.223
1187 0 104.17 15.2539 1589 97.8389 196.803 508.788
1188 0 108.135 15.2217 1646 98.0413 196.597 506.627
1189 0 110.183 16.0097 1764 97.6899 196.176 502.978
1190 0 115.207 16.0146 1845 96.1198 196.696 503.215
1191 0 117.116 15.0962 1768 98.2087 196.402 499.928
1192 0 123.185 15.2859 1883 96.4599 196.87 500.822
1193 0 126.098 15.258 1924 96.302 196.83 498.885
1194 0 130.279 15.4054 2007 96.0344 196.441 494.348
1195 0 136.301 15.6859 2138 93.8059 196.509 495.491
1196 0 139.16 14.2857 1988 97.4935 196.57 491.273
1197 0 144.174 16.0224 2310 93.3225 195.985 490.353
1198 0 149.32 16.1867 2417 92.3368 196.528 488.661
1199 0 154.213 17.4109 2685 89.524 196.62 485.974
1200 0 158.239 15.8368 2506 92.488 196.208 480.292
1201 0 162.51 16.1652 2627 91.2718 195.999 482.252
1202 0 169.343 15.2472 2582 92.1127 196.534 482.203
1203 0 174.331 15.9811 2786 90.4253 196.266 478.395
1204 1 86.2654 15.3364 1323 97.7914 196.425 516.519
1205 0 89.2891 15.825 1413 96.3064 196.271 515.567
1206 0 90.1023 15.3714 1385 97.0809 195.745 516.068
1207 0 93.3454 16.3372 1525 94.7561 196.179 512.953
1208 0 96.1542 15.2775 1469 97.3975 196.291 511.496
1209 0 100.145 15.4676 1549 95.5229 196.323 511.265
1210 0 103.235 16.4769 1701 93.9248 196.266 509.155
1211 0 106.254 14.9077 1584 96.6117 196.444 508.557
1212 0 108.122 15.7045 1698 96.1419 196.897 505.992
1213 0 115.243 15.4456 1780 95.2983 196.701 505.377
1214 0 119.183 15.0609 1795 95.8368 196.155 502.988
1215 0 122.142 14.0902 1721 96.2144 196.221 501.752
1216 1 58.0921 14.6664 852 101.897 196.888 529.319
1217 0 62.0867 16.3964 1018 97.5923 196.418 527.465
1218 0 64.1137 14.9266 957 99.1076 196.606 528.102
1219 0 66.2176 16.1739 1071 97.6078 196.751 526.309
1220 0 69.1418 16.7048 1155 95.8035 196.737 523.981
1221 0 69.0799 15.4025 1064 99.2791 195.921 522.975
1222 0 72.2984 16.3627 1183 96.6179 196.207 522.263
1223 0 72.1959 15.5549 1123 99.3909 196.343 520.983
1224 0 74.0731 16.2677 1205 98.1751 196.993 520.646
1225 0 78.1657 16.4394 1285 97.3323 196.708 518.745
1226 0 80.1657 16.6281 1333 96.8005 196.786 515.789
1227 0 82.1283 16.462 1352 96.3602 196.866 518.135
1228 0 84.1151 16.3229 1373 97.5215 197.125 515.047
1229 0 87.1331 16.4691 1435 97.0488 196.548 515.295
1230 0 91.0962 16.7076 1522 94.638 196.44 516.785
1231 0 95.1064 16.9915 1616 94.1801 196.77 511.848
1232 0 97.1713 16.8774 1640 94.3634 196.845 511.887
1233 0 101.079 17.8574 1805 91.9424 196.519 509.095
1234 0 102.307 15.737 1610 96.9093 196.356 507.822
1235 0 107.172 16.5808 1777 95.0343 196.887 505.892
1236 0 110.373 16.3537 1805 95.8166 197.289 503.701
1237 0 114.22 16.4333 1877 95.7448 197.419 502.213
1238 0 119.276 15.8707 1893 95.4422 197.483 501.741
1239 0 122.367 16.5813 2029 94.0685 196.834 501.675
1240 0 126.234 16.0654 2028 95.3797 197.031 498.797
1241 0 128.247 15.9458 2045 96.4489 197.081 497.547
1242 0 132.298 15.3063 2025 97.4859 197.044 497.335
1243 0 136.24 15.9498 2173 96.2793 197.549 492.409
1244 0 140.258 16.3484 2293 95.4483 197.714 490.867
1245 0 145.202 17.8372 2590 91.9375 196.96 488.273
1246 1 62.1735 16.3896 1019 102.385 196.564 526.314
1247 0 64.1709 16.1132 1034 103.567 197.515 523.654
1248 0 65.0911 16.9148 1101 102.808 196.993 522.936
1249 0 66.1519 15.54 1028 105.268 197.271 523.58
1250 0 69.1302 16.8089 1162 101.365 197.801 524.555
1251 0 73.1021 17.3046 1265 99.9644 197.157 520.978
1252 0 73.2965 16.3309 1197 103.001 197.589 519.853
1253 0 76.1079 16.3452 1244 102.693 197.461 518.457
1254 0 78.283 16.7725 1313 101.759 197.25 517.72
1255 0 79.1924 16.5673 1312 101.986 197.425 519.221
1256 0 82.1766 16.5619 1361 102.191 197.253 516.644
1257 0 84.2384 17.7473 1495 98.2662 197.84 516.23
1258 0 88.1701 16.4228 1448 101.05 197.606 513.432
1259 0 91.2435 17.0971 1560 99.0744 197.171 513.86
1260 0 94.2262 18.4237 1736 96.2212 197.495 513.021
1261 0 94.191 16.6258 1566 101.282 196.886 511.436
1262 0 97.2582 16.0603 1562 101.796 196.98 510.496
1263 0 98.2092 16.5565 1626 101.355 197.322 508.723
1264 0 102.593 17.087 1753 99.3822 196.788 507.136
1265 0 106.395 16.9181 1800 99.9294 197.176 505.889
1266 0 109.299 17.6763 1932 99.3049 196.854 501.147
1267 0 112.568 17.7581 1999 98.2801 196.985 503.03
1268 0 116.167 16.2439 1887 101.342 197.15 503.356
1269 0 118.299 17.1515 2029 100.335 196.985 500.537
1270 0 121.239 15.4158 1869 103.755 196.458 499.756
1271 0 124.214 16.4152 2039 101.385 196.887 497.493
1272 0 128.337 16.3475 2098 100.479 196.734 498.835
1273 0 133.203 17.1242 2281 99.3661 196.858 494.147
1274 0 137.57 17.293 2379 98.7222 197.261 492.293
1275 0 143.365 17.5286 2513 97.9037 197.567 491.892
1276 0 148.455 16.7661 2489 99.311 196.801 489.299
1277 0 151.198 16.3295 2469 100.609 197.868 486.237
1278 0 156.23 16.6486 2601 99.8931 197.308 485.343
1279 0 161.384 16.8666 2722 98.6176 197.205 487.219
1280 0 166.375 16.8835 2809 98.9954 197.025 479.142
1281 0 172.176 17.0291 2932 97.9069 197.85 480.197
1282 0 175.366 17.09 2997 98.8882 196.092 477.25
1283 0 176.296 15.7236 2772 101.507 197.273 479.538
1284 0 181.354 15.9688 2896 102.243 197.047 474.639
1285 0 185.263 15.5995 2890 102.783 196.026 473.802
1286 0 192.512 17.7547 3418 98.1425 196.36 472.118
1287 0 196.25 17.3859 3412 99.17 197.082 465.749
1288 0 199.307 17.0691 3402 99.8633 197.204 467.108
1289 0 207.394 16.8616 3497 100.144 196.947 465.218
1290 0 212.17 17.2268 3655 98.7149 196.196 461.341
1291 1 150.308 15.9872 2403 105.019 196.772 487.868
1292 0 152.257 15.5986 2375 95.0244 196.675 485.232
1293 1 66.0877 14.2235 940 95.3096 196.288 437.305
1294 0 67.2174 14.3862 967 94.4747 197.12 438.043
1295 0 69.0431 15.121 1044 93.0795 196.031 437.465
1296 0 70.0905 14.7666 1035 95.1014 196.692 436.47
1297 0 74.0635 14.6226 1083 93.6879 196.128 437.477
