time division length width area intensity CMx CMy
0 0 52.0646 12.1003 630 67.6032 278.368 519.987
1 0 56.0799 12.9993 729 64.7394 277.823 520.071
2 0 58.0238 13.46 781 64.251 277.471 519.234
3 0 59.0706 14.1187 834 63.0683 277.349 519.032
4 0 60.1178 13.9227 837 63.7455 276.438 517.241
5 0 61.037 12.9102 788 65.2678 276.868 517.442
6 0 62.0291 12.7037 788 65.335 276.456 517.962
7 0 65.0752 13.5382 881 64.3678 275.694 515.63
8 0 67.0433 12.8574 862 64.0093 275.491 518.523
9 0 70.0402 13.2495 928 64.5636 276.5 514.234
10 0 73.0866 15.0917 1103 60.8749 275.897 515.995
11 0 73.0422 13.8139 1009 63.9594 276.033 512.297
12 0 75.1321 13.5362 1017 64.2812 276.042 513.328
13 0 78.0741 15.306 1195 62.1247 276.507 510.849
14 0 79.0692 14.2027 1123 63.4363 275.391 512.106
15 0 83.1287 13.4129 1115 64.3049 276.477 510.625
16 1 40.02 11.6442 466 68.1459 276.961 528.693
17 0 44.0428 13.1917 581 64.5077 276.241 528.616
18 0 43.0483 12.1724 524 67.9275 277.267 525.977
19 0 46.0212 12.4943 575 66.2922 276.859 525.805
20 0 50.1031 12.3146 617 65.5186 276.421 526.425
21 0 49.0131 12.3232 604 64.8212 277.21 528.392
22 0 52.1164 13.6234 710 64.4873 276.883 522.923
23 0 52.0704 13.1361 684 65.2354 276.246 523.591
24 0 52.0594 12.8507 669 67.0673 276.709 521.843
25 0 54.0631 11.8935 643 67.3375 277.14 522.882
26 0 56.0563 13.1297 736 66.5543 276.279 519.981
27 0 59.0246 14.1636 836 64.5239 276.827 519.861
28 0 60.0812 12.9824 780 66.1833 276.631 519.488
29 0 64.1153 13.6629 876 64.9863 277.939 517.826
30 0 65.1437 14.4603 942 63.8079 276.479 515.547
31 0 67.0653 12.4953 838 65.9558 277.853 517.316
32 0 70.0711 12.473 874 65.1796 277.314 516.253
33 0 72.1169 13.0344 940 65.2936 277.168 513.361
34 0 74.1571 12.2847 911 66.146 277.78 511.772
35 0 75.0475 13.8179 1037 64.9026 277.969 509.364
36 0 77.1117 12.5402 967 66.3909 278.12 510.221
37 0 79.0557 11.9915 948 66.9937 278.13 509.562
38 0 81.1213 12.7463 1034 66.9004 278.074 505.598
39 1 44.0449 11.6245 512 65.8418 278.148 526.422
40 0 44.0271 11.4702 505 67.4911 278.733 526.121
41 0 47.1378 11.477 541 66.5878 278.325 526.277
42 0 49.0493 11.4375 561 66.9287 277.631 523.69
43 0 49.043 10.8272 531 68.6083 277.303 522.731
44 0 52.0804 12.6343 658 65.3116 278.144 523.758
45 0 51.0829 11.5303 589 67.9236 277.891 520.489
46 0 53.0596 11.5342 612 67.8105 278.199 520.654
47 0 56.1178 12.6876 712 66.5028 278.761 518.841
48 0 57.1338 12.322 704 66.8963 278.621 519.848
49 0 58.0695 12.8639 747 67.3869 278.383 516.435
50 0 60.1063 12.9936 781 66.2612 278.58 518.038
51 0 59.0904 12.0155 710 68.4915 278.137 516.377
52 0 65.1262 11.9153 776 66.8879 278.419 516.477
53 0 67.0371 14.1862 951 64.0673 278.117 516.538
54 0 67.0659 10.9445 734 68.2248 278.605 515.236
55 0 71.1018 11.8422 842 67.5392 278.721 513.265
56 0 74.1041 12.6309 936 66.7009 278.299 511.122
57 0 74.1589 12.244 908 67.9361 279.218 509.21
58 0 77.0826 11.1439 859 68.5064 278.455 511.275
59 0 81.0787 11.9883 972 67.5195 278.458 508.19
60 0 83.0972 13.3819 1112 66.7905 278.487 504.85
61 0 86.0774 13.2323 1139 66.3889 278.517 506.966
62 1 44.0512 11.8499 522 66.6418 278.002 525.766
63 0 44.0721 11.277 497 68.2596 278.042 524.744
64 0 45.0255 10.3719 467 69.3383 278.645 525.27
65 0 48.0527 12.0909 581 66.8537 278.793 523.484
66 0 50.1693 11.7203 588 67.983 278.872 523.077
67 0 50.082 11.5011 576 67.8542 278.165 522.453
68 0 50.1068 11.5553 579 68.3005 278.39 523.111
69 0 53.0349 11.5396 612 68.3562 278.444 521.255
70 0 54.076 10.5592 571 68.9247 278.231 523.117
71 0 55.0683 12.8023 705 67.2851 277.648 519.17
72 0 57.0354 12.5887 718 67.1407 277.802 518.6
73 0 59.0188 13.3517 788 65.8871 277.689 517.49
74 0 61.0663 13.035 796 65.9347 278.289 518.284
75 0 64.0852 12.2337 784 66.2245 278.091 517.351
76 0 66.0765 13.2725 877 65.2851 277.807 515.555
77 0 68.0359 12.4787 849 66.3934 278.028 514.216
78 0 71.05 12.2168 868 66.8502 278.374 512.395
79 0 71.0429 11.9787 851 67.6216 278.345 511.241
80 0 73.1004 11.9425 873 68.6758 278.683 507.458
81 0 77.1295 11.4612 884 67.8744 278.567 511.188
82 0 78.2122 12.8241 1003 67.4786 279.413 506.66
83 0 82.0971 13.3744 1098 66.6576 278.67 505.84
84 1 40.0304 10.0424 402 68.1866 278.833 526.95
85 0 42.0954 10.6187 447 67.6577 279.02 525.072
86 0 43.0362 9.96835 429 68.7949 278.632 525.186
87 0 44.0444 10.9889 484 67.7335 278.82 524.052
88 0 46.0288 9.66786 445 69.1618 279.184 524.84
89 0 48.0697 12.3362 593 65.7521 279.25 522.847
90 0 49.0828 12.5706 617 65.8655 279.483 522.358
91 0 51.0509 11.6354 594 66.2778 279.38 522.618
92 0 52.0551 10.7962 562 67.7402 279.956 520.941
93 0 53.0925 11.7154 622 66.8698 280.092 521.016
94 0 56.0807 11.4656 643 67.3064 279.555 520.081
95 0 57.0494 11.8143 674 66.8813 279.159 518.519
96 0 57.0936 12.0329 687 67.1994 279.413 518.512
97 0 61.1183 11.1587 682 67.9223 279.154 518.041
98 0 62.1031 12.3021 764 67.377 278.976 516.134
99 0 63.0699 10.1316 639 70.4351 278.609 513.347
100 0 64.0235 9.99633 640 70.8016 278.98 514.086
101 0 68.0939 11.6897 796 68.5955 279.193 511.715
102 0 71.0582 14.4811 1029 64.105 279.408 513.381
103 0 73.0615 11.8393 865 68.2428 279.325 509.166
104 0 73.0621 13.03 952 67.3981 279.626 506.16
105 1 41.0485 11.3281 465 66.5398 279.467 524.488
106 0 41.0483 10.8409 445 68.2629 279.301 521.53
107 0 44.0899 11.726 517 66.7002 278.391 522.663
108 0 44.0374 10.1959 449 67.882 278.688 525.143
109 0 44.0332 12.5814 554 65.2509 277.641 522.756
110 0 47.0299 10.6953 503 68.1909 278.427 521.288
111 0 50.021 11.835 592 65.6436 278.078 521.333
112 0 52.0569 11.8908 619 65.8934 278.061 519.378
113 0 51.0273 11.3077 577 67.5321 278.386 519.395
114 0 54.0593 12.8747 696 64.9167 278.615 517.583
115 0 55.0751 12.1834 671 65.3964 278.566 518.566
116 0 56.0384 12.5093 701 66.1455 278.545 516.491
117 0 56.0779 12.4291 697 66.4075 278.297 516.103
118 0 60.0226 10.9625 658 66.8875 279.211 518.179
119 0 62.135 11.8935 739 66.4438 279.065 514.976
120 0 64.0681 11.8468 759 66.0158 278.938 514.066
121 0 65.0907 11.5531 752 65.9721 279.043 514.217
122 0 67.1617 12.2987 826 66.0569 279.209 510.132
123 0 68.0802 12.8525 875 64.944 278.926 511.715
124 0 70.0481 10.2501 718 67.9304 278.472 511.886
125 0 74.0816 12.9992 963 64.1028 278.73 509.737
126 0 76.0674 12.673 964 64.8029 278.589 507.927
127 0 78.0823 13.6907 1069 63.5828 278.85 505.741
128 0 81.1156 12.9322 1049 64.8341 279.411 503.114
129 0 81.0595 12.2256 991 66.3925 278.871 502.95
130 0 81.0356 10.2547 831 68.1023 278.419 505.982
131 1 44.0283 9.90271 436 67.8922 278.273 520.929
132 0 44.1026 9.9087 437 67.8307 278.449 522.247
133 0 44.053 10.9187 481 67.7609 278.565 520.765
134 0 46.0224 11.4292 526 66.5209 278.567 521.519
135 0 47.0382 11.4588 539 66.8924 279.386 520.263
136 0 48.0386 10.9912 528 67.7746 279.106 519.398
137 0 48.0297 11.6595 560 67.5589 279.277 518.539
138 0 50.1261 10.4935 526 67.8783 278.838 520.392
139 0 53.1609 13.0923 696 65.454 279.254 516.312
140 0 54.0854 11.7037 633 67.3633 279.036 516.131
141 0 55.056 11.0978 611 68.0393 279.684 516.84
142 0 57.0992 13.8531 791 64.6258 279.527 513.479
143 0 58.083 10.4161 605 68.281 279.375 516.064
144 0 62.0856 11.8707 737 65.8765 279.054 516.117
145 0 60.072 10.554 634 69.2476 279.129 511.063
146 0 66.0608 14.744 974 63.3244 278.615 510.452
147 0 68.0625 12.6207 859 65.8731 278.054 511.52
148 0 67.0407 12.4999 838 66.5919 278.376 509.357
149 0 71.0768 13.2111 939 65.5314 278.138 509.111
150 0 73.0558 13.2228 966 65.8716 278.663 507.199
151 0 76.0754 12.6322 961 66.5754 279.071 506.846
152 0 79.0846 13.3907 1059 65.8026 278.645 506.223
153 0 79.1317 12.3086 974 66.6396 278.873 507.355
154 0 84.0597 11.9439 1004 67.6604 279.211 503.937
155 0 85.0595 12.5677 1069 67.7306 279.082 499.813
156 0 88.1683 11.5121 1015 68.5882 279.441 502.009
157 0 91.1099 13.6758 1246 65.4888 278.608 501.562
158 0 94.2222 12.6403 1191 67.0386 278.455 499.851
159 1 47.0168 10.9535 515 66.4097 277.93 523.402
160 0 47.0337 12.119 570 67.0702 278.274 521.126
161 0 49.037 11.7258 575 67.2383 278.797 521.217
162 0 49.0806 12.8972 633 67.1106 278.956 519.823
163 0 50.0248 11.8941 595 67.6151 278.607 520.721
164 0 52.0639 10.7752 561 69.0018 278.845 519.802
165 0 56.0457 13.3106 746 66.0402 278.509 516.601
166 0 57.1556 12.1073 692 67.7038 278.844 516.353
167 0 58.0494 11.8003 685 68.4467 278.416 516.187
168 0 58.0499 12.2481 711 67.5865 279.028 517.024
169 0 63.0561 12.5285 790 67.2367 278.886 513.723
170 0 64.0402 12.7264 815 67.1779 278.572 514.535
171 0 65.0675 12.4179 808 68.8589 278.943 509.623
172 0 67.0347 12.1877 817 68.53 279.563 512.706
173 0 70.0736 11.3738 797 70.128 279.315 510.641
174 0 74.0897 13.6861 1014 67.2939 278.982 508.956
175 0 75.1181 13.4056 1007 68.2731 279.199 508.815
176 0 76.0852 11.6974 890 71.618 279.742 506.02
177 0 78.058 12.5035 976 71.0184 279.013 507.638
178 0 82.1621 13.3395 1096 69.7099 279.03 505.768
179 0 83.1369 12.0885 1005 72.2119 279.714 503.867
180 1 46.0493 13.6376 628 68.3997 279.392 523.78
181 0 43.0216 12.0172 517 73.1489 278.977 522.164
182 0 48.0915 11.4365 550 72.1236 278.705 523.155
183 0 49.0727 10.6373 522 73.3333 278.18 522.956
184 0 50.1028 12.7538 639 71.7574 278.382 521.692
185 0 50.0741 10.6442 533 74.1426 277.477 522.784
186 0 53.0504 12.6295 670 72.603 278.261 519.824
187 0 55.1041 12.8666 709 71.4386 277.577 518.623
188 0 55.0727 11.4576 631 74.6038 277.61 519.097
189 0 55.0203 11.214 617 74.8574 277.057 518.81
190 0 60.05 11.94 717 73.0976 276.802 517.462
191 0 62.1259 12.0723 750 74.432 276.888 514.501
192 0 62.0266 12.0916 750 74.3667 276.568 516.349
193 0 66.0856 12.1055 800 73.4975 276.366 516.984
194 0 69.0389 12.7175 878 72.6925 276 515.804
195 0 68.0553 13.0482 888 73.1745 276.328 514.734
196 0 72.1509 13.0975 945 72.7926 276.168 513.625
197 0 74.1013 10.3102 764 76.2814 276.156 514.499
198 0 77.084 12.6875 978 74.7454 276.438 510.847
199 0 80.1651 11.4763 920 75.7217 276.252 510.874
200 0 82.1715 12.5956 1035 73.7546 276.224 511.091
201 1 45.0255 11.5712 521 73.6583 275.587 528.476
202 0 45.032 11.7028 527 74.4402 275.947 528.607
203 0 45.0327 11.9469 538 73.6636 275.476 529.074
204 0 49.1156 13.0712 642 72.014 274.869 528.232
205 0 51.0366 13.8332 706 70.9235 276.211 526.04
206 0 49.162 10.2925 506 76.9783 275.478 526.85
207 0 54.0395 11.2325 607 73.5091 275.438 527.035
208 0 55.0488 12.389 682 72.5894 275.735 525.491
209 0 56.0576 12.3623 693 72.1688 275.909 526.182
210 0 56.0915 11.1069 623 74.923 275.689 523.315
211 0 61.1504 10.9239 668 72.3623 275.281 524.966
212 0 61.042 12.2375 747 71.8621 274.854 521.475
213 0 64.0446 12.179 780 70.7513 274.146 523.085
214 0 67.09 13.6235 914 69.0492 274.661 520.828
215 0 67.0816 12.1643 816 71.3162 273.3 521.565
216 0 72.1068 12.2873 886 70.2596 273.704 519.842
217 0 73.1349 13.5366 990 68.903 272.943 517.437
218 0 73.0615 11.9899 876 72.3447 274.065 515.63
219 0 76.0466 12.0058 913 72.0898 273.566 512.918
220 0 78.0619 11.2859 881 72.9103 273.418 513.891
221 0 80.0497 12.6297 1011 71.1602 273.5 509.813
222 0 85.1179 12.0421 1025 71.681 273.756 510.167
223 1 42.0474 10.2979 433 74.5358 273.522 528.797
224 0 45.0441 11.7441 529 72.758 273.208 526.098
225 0 49.06 13.2287 649 68.9137 273.134 525.468
226 0 48.1673 13.3493 643 69.0607 273.221 525.728
227 0 51.0394 12.7352 650 68.92 273.335 524.648
228 0 51.0466 12.3025 628 70.2962 272.766 523.005
229 0 55.0973 13.3945 738 67.874 273.724 521.168
230 0 54.0337 11.7149 633 69.6177 273.618 521.984
231 0 57.061 13.2315 755 67.4768 273.856 518.464
232 0 59.0819 12.4404 735 68.3646 273.875 518.799
233 0 59.0338 11.8068 697 69.0803 273.258 517.717
234 0 63.0489 12.0541 760 67.9303 273.571 518.209
235 0 67.0532 12.0203 806 66.7072 273.609 517.653
236 0 66.058 13.3368 881 66.2974 273.05 515.524
237 0 69.037 13.0075 898 66.4042 273.869 512.418
238 0 73.1099 11.9683 875 66.7474 274.167 513.693
239 0 75.0637 13.9881 1050 64.5895 274.453 510.697
240 0 79.1558 13.7956 1092 64.3535 274.681 510.093
241 0 79.0734 12.128 959 66.5589 274.268 509.845
242 0 83.0832 12.2889 1021 66.047 274.39 505.041
243 0 85.1166 13.8516 1179 64.2214 274.699 504.088
244 0 86.0847 11.9998 1033 66.4376 274.152 505.316
245 0 89.157 11.8106 1053 67.6448 273.387 505.111
246 0 91.03 11.6225 1058 67.103 274.398 503.901
247 0 95.2002 12.9201 1230 65.6715 273.794 502.795
248 0 97.0527 11.9317 1158 67.3351 273.896 500.251
249 1 56.0736 12.8938 723 63.7704 275.214 523.379
250 0 55.1087 12.4663 687 65.837 274.665 520.795
251 0 58.1014 12.7708 742 65.2318 274.53 521.686
252 0 59.0505 11.5833 684 66.924 274.196 520.988
253 0 59.0319 10.9771 648 68.2438 275.074 519.651
254 0 61.0409 11.6807 713 66.6928 275.161 519.489
255 0 64.1352 13.5495 869 64.6444 274.253 518.716
256 0 68.0633 12.4884 850 65.2259 274.965 517.249
257 0 68.1002 12.4376 847 65.3837 273.557 517.42
258 0 71.0596 12.1025 860 65.4326 274.321 517.251
259 0 74.1037 13.0763 969 64.2043 273.918 514.45
260 0 76.0902 12.6955 966 64.8872 274.041 514.578
261 0 79.0892 12.3531 977 65.0031 274.108 511.829
262 0 83.1981 12.3681 1029 64.3071 273.906 509.193
263 0 84.0813 12.8447 1080 63.9528 274.079 509.932
264 0 87.1052 12.9958 1132 63.8675 273.734 506.606
265 0 90.078 11.5344 1039 65.5428 273.698 508
266 0 94.0704 12.5119 1177 64.1555 273.712 506.195
267 0 98.1657 13.9254 1367 62.474 273.434 503.102
268 0 99.0626 13.547 1342 63.3338 273.566 503.425
269 1 53.0663 10.044 533 66.1689 273.687 525.467
270 0 56.0722 11.1998 628 63.6401 273.29 526.199
271 0 57.0334 12.1858 695 64.1799 273.751 522.655
272 0 59.0789 11.2731 666 64.3859 273.194 524.038
273 0 62.1008 12.834 797 62.271 273.499 522.951
274 0 61.0505 11.1383 680 64.8059 273.369 520.749
275 0 64.0884 12.9821 832 62.4784 272.537 519.157
276 0 67.0756 12.7468 855 62.4959 272.63 519.738
277 0 69.102 12.1994 843 63.2088 272.688 518.332
278 0 71.1004 11.5611 822 63.6423 272.685 519.943
279 0 75.0785 13.6923 1028 61.0399 272.783 517.854
280 0 76.0596 12.4113 944 62.965 272.903 515.25
281 0 79.1006 11.9595 946 63.9429 272.085 513.817
282 0 82.0489 12.6144 1035 63.4155 271.744 511.289
283 0 87.0599 12.21 1063 62.8758 271.516 514.345
284 0 87.0783 10.5078 915 64.859 271.275 514.301
285 0 92.2277 11.8077 1089 63.8466 272.166 508.77
286 1 46.0614 11.1156 512 61.7285 271.832 532.584
287 0 47.0223 10.1867 479 64.3841 271.743 531.758
288 0 46.0545 11.3344 522 64.6245 272.215 527.766
289 0 47.0265 11.249 529 64.9055 272.202 527.896
290 0 52.0406 12.202 635 63.189 272.06 526.644
291 0 51.0104 13.9383 711 62.5584 272.224 524.812
292 0 54.0989 13.2905 719 62.6328 272.004 526.808
293 0 55.0877 11.4363 630 65.7317 271.932 524.725
294 0 58.0908 13.3067 773 63.7025 272.677 524.435
295 0 58.1116 11.6156 675 66.0785 272.021 522.636
296 0 60.1171 13.7565 827 63.2346 272.058 523.039
297 0 63.1461 12.1306 766 65.6971 271.815 519.905
298 0 65.0866 13.3514 869 64.6824 272.01 519.102
299 0 66.0967 12.6935 839 65.3969 271.987 519.079
300 0 67.1097 12.949 869 65.7215 271.579 516.673
301 0 69.0459 12.5569 867 66.5363 271.779 513.706
302 0 74.1241 12.7759 947 65.7022 271.831 513.649
303 0 74.0801 11.798 874 67.5057 271.971 514.535
304 0 79.1433 13.8609 1097 63.7758 271.5 513.832
305 0 79.1504 11.1939 886 68.2528 271.728 513.79
306 0 84.0969 11.9981 1009 67.1338 272.016 510.469
307 0 85.1162 13.8282 1177 64.5777 271.494 509.099
308 0 87.0999 12.5603 1094 66.5622 271.898 508.892
309 1 44.0174 11.3364 499 67.0641 271.601 526.737
310 0 47.067 11.643 548 64.9033 271.557 529.089
311 0 48.0537 11.0501 531 65.6648 272.354 529.315
312 0 49.0737 10.8816 534 66.5861 271.562 525.846
313 0 49.0293 12.0336 590 65.922 272.125 525.658
314 0 51.1063 11.7207 599 66.6294 271.234 524.861
315 0 54.0845 12.7023 687 64.706 271.068 523.627
316 0 56.0672 12.4315 697 64.7446 271.248 524.017
317 0 57.0385 11.1679 637 66.8352 271.733 520.827
318 0 59.1158 11.3675 672 65.9717 271.342 521.231
319 0 61.0582 11.399 696 65.3261 271.313 520.282
320 0 63.1017 12.5987 795 64.3509 271.819 517.787
321 0 66.115 11.3136 748 65.1858 272.106 519.171
322 0 68.0414 11.5959 789 64.9328 272.466 517.053
323 0 70.0479 13.1196 919 62.1099 271.655 515.94
324 0 73.1089 11.7633 860 63.7895 271.798 514.088
325 1 36.0431 10.4042 375 63.072 271.603 530.736
326 0 36.0177 9.52309 343 63.2945 271.831 532.569
327 0 38.0716 9.9024 377 61.9814 270.931 531.979
328 0 38.0416 9.67363 368 62.9592 272.035 531.318
329 0 41.026 12.0655 495 60.0566 272.541 530.424
330 0 40.0236 10.119 405 62.4025 272.731 529.817
331 0 42.159 11.1008 468 61.1538 272.885 529.541
332 0 41.0698 8.08379 332 66.1325 273.03 528.196
333 0 46.0876 11.0225 508 61.3091 272.341 528.157
334 0 48.0681 9.71538 467 63.4946 271.396 526.998
335 0 48.0405 10.0956 485 62.0433 271.924 527.691
336 0 50.0568 10.2883 515 62.4602 272.105 525.177
337 0 50.1706 11.1619 560 61.9589 272.048 523.5
338 0 52.0955 10.999 573 61.9284 272.562 524.223
339 0 54.1738 11.8138 640 60.4844 272.452 522.02
340 0 56.0676 11.9499 670 59.8716 272.451 522.863
341 0 56.1323 10.9384 614 60.3876 271.871 522.573
342 0 61.0489 12.4818 762 59.5223 272.356 519.474
343 0 61.1856 11.6204 711 60.7257 272.173 517.893
344 0 62.0875 11.516 715 60.5217 271.945 519.526
345 0 62.0966 10.0167 622 63.2379 272.349 517.223
346 0 67.1459 11.3931 765 60.9739 271.922 516.77
347 1 32.1425 8.15119 262 64.1489 273.347 532.485
348 0 37.0234 10.5609 391 60.8414 273.34 531.698
349 0 39.0953 10.4105 407 61.0295 273.654 529.167
350 0 39.0419 9.80996 383 61.1749 273.076 529.869
351 0 40.0384 8.76659 351 48.1709 272.447 529.735
352 0 40.0318 11.0163 441 59.9138 273.231 528.093
353 0 43.0212 10.0416 432 60.9005 272.866 528.37
354 0 42.0598 10.8179 455 61.3407 272.892 527.033
355 0 45.0588 12.1175 546 58.7784 272.071 527.141
356 0 45.0642 10.6515 480 61.1562 272.829 524.5
357 0 46.0675 10.6583 491 61.2464 272.352 526.945
358 0 46.1263 10.7748 497 61.6056 273.115 525.69
359 0 50.0567 10.9276 547 60.4808 273.803 523.938
360 0 51.0453 11.7151 598 59.4532 272.452 523.855
361 0 54.0591 11.7464 635 59.0299 272.424 522.948
362 0 54.0429 10.9358 591 60.3283 272.667 522.494
363 0 54.1113 10.4599 566 61.1272 272.965 520.74
364 0 56.0757 10.6107 595 61.163 273.487 519.467
365 0 59.0886 12.7944 756 58.0648 273.262 517.522
366 0 61.0439 11.8767 725 59.12 273.17 518.855
367 0 63.091 11.0951 700 59.3886 272.874 518.446
368 0 64.0423 9.27512 594 62.064 273.017 514.801
369 0 68.1184 14.6363 997 55.7633 272.897 513.918
370 0 69.0498 11.8176 816 59.1985 272.304 514.797
371 0 71.1377 12.6796 902 58.0155 272.85 513.619
372 1 34.0295 10.197 347 59.7839 272.775 531.758
373 0 36.0325 9.38042 338 59.5325 272.651 533.225
374 0 36.0604 9.09585 328 60.9787 272.759 532.155
375 0 38.0194 12.6514 481 56.3514 273.191 531.272
376 0 36.0541 9.84632 355 61.1521 273.203 529.155
377 0 41.0556 11.935 490 57.7755 272.345 529.673
378 0 42.01 11.9019 500 58.18 272.282 529.238
379 0 45.0215 13.0826 589 56.4414 272.521 528.776
380 0 47.0473 11.7966 555 57.3964 272.077 526.777
381 0 45.0175 10.9735 494 59.6741 272.211 526.998
382 0 45.0265 10.8159 487 60.694 272.181 525.7
383 0 47.0262 11.8445 557 59.7056 272.408 524.549
384 0 49.0318 12.7264 624 58.0385 272.532 526.529
385 0 50.0458 10.7901 540 60.7278 272.241 525.909
386 0 53.0942 11.9787 636 59.8569 272.237 523.877
387 0 54.0688 11.5039 622 60.6849 272.426 523.667
388 0 56.0904 14.0309 787 57.3761 272.881 523.316
389 0 56.0892 12.1414 681 60.2496 272.887 521.097
390 0 59.0912 11.6599 689 60.7663 273.09 520.733
391 0 60.055 11.3563 682 61.0674 272.85 519.277
392 0 61.1048 12.0122 734 60.6158 272.591 518.835
393 0 64.0739 12.3763 793 59.8058 272.584 520.289
394 0 67.11 12.5615 843 60.4365 272.681 517.116
395 0 67.1006 12.2801 824 60.6905 272.231 519.053
396 0 70.0477 10.293 721 63.0416 272.903 517.687
397 0 72.0703 12.1964 879 61.372 272.945 515.521
398 1 39.0114 11.7145 457 59.8775 273.403 533.131
399 0 40.047 9.43892 378 63.6587 273.497 530.81
400 0 41.0558 10.571 434 63.7926 273.786 528.456
401 0 43.1811 11.1391 481 62.9938 273.281 528.472
402 0 44.0607 10.5536 465 62.6301 273.422 529.641
403 0 46.0512 10.9009 502 62.9004 273.524 526.376
404 0 48.0288 12.3676 594 60.9444 273.401 526.254
405 0 51.0693 11.9446 610 61.3164 273.272 525.392
406 0 50.0404 11.2309 562 62.1548 272.858 526.991
407 0 49.06 11.6592 572 63.1766 273.087 524.096
408 0 52.0679 11.4082 594 63.0539 273.034 524.093
409 0 54.0674 11.3562 614 62.9609 273.552 525.021
410 0 55.0758 11.4569 631 63.626 273.067 521.534
411 0 58.0284 11.8563 688 62.811 272.65 521.234
412 0 61.137 11.9895 733 61.8868 273.141 520.668
413 0 59.0258 12.215 721 62.5284 272.795 519.154
414 0 62.0433 12.6847 787 62.5464 272.864 516.391
415 0 65.0736 14.2915 930 60.1989 272.333 517.142
416 0 66.0584 12.9128 853 61.8242 272.501 516.664
417 0 67.0548 11.9902 804 63.2102 273.103 517.923
418 0 68.1123 10.0569 685 65.8161 273.045 514.641
419 0 72.0417 11.3129 815 64.3215 272.594 511.659
420 0 72.1035 12.6901 915 63.3945 272.692 511.097
421 0 75.0665 11.9627 898 63.8396 272.703 512.636
422 0 78.0494 12.1333 947 63.7223 272.285 512.523
423 0 79.0733 11.1289 880 65.4239 272.832 508.794
424 1 41.0086 9.12004 374 66.115 272.545 529.07
425 0 46.0887 10.2845 474 63.4494 272.076 529.068
426 0 47.0955 12.6976 598 63.1756 272.266 525.431
427 0 50.0996 12.8344 643 62.0607 272.17 527.216
428 0 51.0246 12.6606 646 63.2461 272.638 524.954
429 0 52.1084 12.4932 651 62.9877 272.869 526.659
430 0 54.0845 12.9797 702 63.8789 272.12 522.974
431 0 56.0719 12.7158 713 64.0926 272.217 524.344
432 0 58.0789 13.6194 791 62.981 272.64 523.434
433 0 57.0268 12.7133 725 65.4138 272.726 519.652
434 0 61.0479 13.1372 802 64.3828 272.607 521.602
435 0 60.0392 13.1248 788 65.2157 272.704 518.472
436 0 64.0534 12.2398 784 65.6862 273.212 521.052
437 0 65.0418 12.761 830 65.6795 272.543 518.105
438 0 68.1468 13.1481 896 64.6708 272.629 520.199
439 0 70.0329 12.7654 894 65.4228 272.388 516.732
440 0 72.1986 12.4933 902 65.5676 272.529 517.49
441 0 75.1147 12.8204 963 65.1921 272.721 515.239
442 0 76.0996 14.2576 1085 64.1677 272.838 514.704
443 0 79.0284 11.8818 939 66.9904 272.102 512.394
444 0 81.2424 11.9888 974 66.6324 272.821 514.718
445 0 83.0908 13.2987 1105 65.3195 272.654 511.703
446 0 87.1978 11.9498 1042 67.2543 272.912 510.903
447 0 86.185 11.8466 1021 68.6592 272.588 506.8
448 1 41.0733 8.66742 356 68.5899 273.087 531.281
449 0 44.0791 10.9349 482 66.4481 273.556 529.508
450 0 46.0908 11.6726 538 65.1859 271.961 529.119
451 0 47.077 10.6846 503 65.2028 272.976 530.845
452 0 48.1305 11.2195 540 66.3259 272.85 527.096
453 0 49.151 10.6407 523 65.4665 273.105 529.541
454 0 51.0691 11.3767 581 65.4871 273.509 526.478
455 0 53.0617 11.5714 614 64.8583 273.243 526.052
456 0 53.0292 12.2008 647 65.1453 272.47 524.907
457 0 55.0594 10.861 598 65.209 273.095 526.348
458 0 56.0828 13.1769 739 63.6658 272.311 521.913
459 0 57.1084 11.0842 633 66.3886 272.698 521.78
460 0 62.0422 11.9757 743 64.2961 272.49 520.871
461 0 64.1002 12.1529 779 64.1348 272.97 519.638
462 0 66.0396 12.1745 804 63.8408 273.234 520.214
463 0 65.0585 12.1583 791 65.1757 273.129 518.015
464 0 67.0516 11.5732 776 66.6173 271.887 515.825
465 0 69.0798 11.3347 783 67.1788 272.434 513.448
466 0 71.0918 12.0408 856 67.1203 272.481 514.9
467 0 73.0205 11.5995 847 66.32 272.463 515.745
468 0 79.2268 12.0793 957 66.6176 272.271 510.044
469 1 42.0421 11.2506 473 63.9091 272.294 530.727
470 0 44.1939 11.4043 504 63.5754 272.496 531.504
471 0 45.1425 9.83552 444 66.6689 272.304 528.556
472 0 45.0755 11.3809 513 64.9708 272.066 528.556
473 0 51.1104 12.3067 629 61.9905 272.335 529.372
474 0 50.08 10.3035 516 65.3314 272.351 528.905
475 0 49.0847 10.7569 528 65.733 272.339 527.188
476 0 54.1332 11.6195 629 63.3752 271.677 526.615
477 0 52.1432 12.3123 642 63.2025 271.798 527.142
478 0 53.1177 11.1074 590 64.7339 271.798 526.371
479 0 56.144 13.0557 733 61.9059 271.703 523.24
480 0 59.1543 11.9518 707 63.3027 271.014 522.629
481 0 60.164 12.5324 754 62.2202 271.802 521.729
482 0 63.1495 12.4467 786 62.3066 272.039 521.196
483 0 63.0701 11.6854 737 63.2008 271.647 519.338
484 0 66.1467 11.7768 779 62.8383 271.665 518.525
485 0 67.1062 11.6383 781 62.694 272.914 518.408
486 0 70.0552 11.7051 820 62.2732 272.356 515.529
487 0 72.0363 11.2166 808 62.276 272.575 517.058
488 0 74.1126 10.9158 809 62.3585 272.408 516.467
489 0 77.1524 11.393 879 61.6473 273.077 513.785
490 1 36.0643 10.4258 376 61.7261 272.941 532.287
491 0 38.1582 11.3475 433 61.254 272.995 531.012
492 0 43.1009 10.9047 470 60.017 272.962 532.143
493 0 41.1121 9.29167 382 63.8272 272.885 529.592
494 0 45.0879 10.7568 485 61.499 272.404 528.761
495 0 44.0585 10.5996 467 62.0921 271.55 529.85
496 0 49.179 12.668 623 59.1974 272.433 528.372
497 0 48.0706 10.547 507 61.7278 271.97 530.016
498 0 50.128 14.0241 703 58.2475 272.262 526.505
499 0 52.0971 10.4804 546 61.9359 271.925 527.927
500 0 51.0732 12.2373 625 60.9536 272.403 525.03
501 0 54.0597 13.5406 732 59.0137 271.902 524.586
502 0 55.0783 10.8936 600 62.1283 272.718 525.732
503 0 59.1085 12.4009 733 59.5744 272.51 524.191
504 0 59.0507 13.0227 769 59.2315 272.667 520.315
505 0 62.1212 11.1878 695 60.9266 272.535 520.312
506 0 64.0744 13.4375 861 58.2904 272.632 518.702
507 0 63.081 11.6992 738 61.0949 272.257 517.588
508 0 68.0836 11.8678 808 60.3849 272.101 516.29
509 0 69.0733 11.7267 810 60.1852 271.998 518.643
510 0 72.1395 13.6264 983 58.5473 272.071 516.07
511 0 74.0917 12.1201 898 60.3107 272.531 514.845
512 0 77.0778 13.1036 1010 58.7485 272.311 515.156
513 1 40.0421 11.7377 470 59.5298 272.1 532.194
514 0 41.0226 10.3358 424 62.2099 272.651 531.764
515 0 43.0279 10.3654 446 61.8274 272.688 531.922
516 0 42.0115 12.1395 510 60.6078 272.533 531.598
517 0 44.0482 10.6474 469 62.4222 271.503 530.708
518 0 50.1585 11.2244 563 62.1439 272.231 528.062
519 0 49.0687 11.596 569 61.7293 271.837 527.473
520 0 50.0625 11.6055 581 61.4045 271.905 528.1
521 0 52.0871 11.8264 616 61.862 272.096 526.477
522 0 53.0651 10.3646 550 63.8091 271.905 526.404
523 0 56.0773 12.8216 719 60.8331 272.31 523.131
524 0 57.1576 11.722 670 62.0552 272.248 523.516
525 0 61.2066 12.515 766 61.1762 272.202 521.668
526 0 61.085 11.9997 733 62.3111 271.821 519.626
527 0 62.0745 11.6312 722 62.6787 272.152 520.949
528 0 66.2049 12.4764 826 61.3801 272.331 520.685
529 0 67.1345 11.5887 778 63.0039 272.217 517.504
530 0 70.147 10.8629 762 63.4869 271.415 520.1
531 0 71.0623 11.9473 849 63.1531 270.7 514.73
532 0 74.0739 12.9735 961 61.6004 271.648 514.927
533 0 76.1082 12.7187 968 62.1921 270.979 513.269
534 0 78.0766 12.8592 1004 62.5279 271.427 513.35
535 0 82.1408 12.7099 1044 62.3966 271.655 512.833
536 0 83.1318 10.333 859 65.4098 271.953 512.121
537 0 85.1587 11.5314 982 65.0041 271.596 507.746
538 0 89.0414 12.1966 1086 63.7339 271.095 507.813
539 1 49.0223 11.6478 571 63.5114 271.806 528.608
540 0 49.0728 11.432 561 64.1551 272.073 529.071
541 0 53.1152 11.748 624 63.7804 271.737 526.926
542 0 51.0323 12.11 618 65.521 272.126 522.793
543 0 53.0974 12.8255 681 64.8385 271.808 523.47
544 0 57.0517 13.6368 778 63.0681 271.934 521.593
545 0 58.0434 13.6105 790 63.143 271.446 522.657
546 0 58.0724 11.744 682 66.1144 271.598 521.556
547 0 62.0555 13.3912 831 62.8267 271.511 523.171
548 0 65.0592 12.2811 799 64.6884 271.663 520.186
549 0 66.1036 13.7058 906 63.4007 271.305 516.681
550 0 70.1365 14.7997 1038 61.5356 271.235 517.316
551 0 71.1313 12.9479 921 64.3561 271.385 517.024
552 0 73.1089 13.1448 961 63.847 271.606 516.313
553 0 76.0732 12.8823 980 64.3929 272.14 514.109
554 0 77.0916 12.3879 955 65.3277 272.096 512.361
555 0 81.2422 12.5551 1020 64.3873 271.911 511.396
556 0 83.1984 11.5387 960 65.8646 271.666 510.491
557 0 88.1998 13.0726 1153 63.536 271.624 509.086
558 0 89.1421 12.654 1128 64.4291 271.918 506.095
559 0 92.1216 11.9842 1104 65.4203 271.724 503.971
560 1 49.0877 10.4099 511 65.0176 272.192 526.613
561 0 48.0335 11.4503 550 65.0655 271.938 524.464
562 0 52.0818 10.7331 559 65.8515 272.089 524.914
563 0 52.1534 12.0606 629 65.1224 271.908 522.615
564 0 55.0489 10.4634 576 66.9497 271.899 523.995
565 0 57.0356 12.0276 686 64.2099 271.582 520.918
566 0 58.0698 13.2082 767 62.528 271.549 521.542
567 0 58.0796 12.1902 708 64.5805 271.278 520.326
568 0 62.0956 11.9654 743 64.86 270.778 518.834
569 0 63.098 11.7436 741 64.865 270.958 517.955
570 0 66.1278 13.3832 885 63.1186 271.582 516.141
571 0 67.0692 12.2709 823 64.5055 271.834 517.244
572 0 69.1221 11.2844 780 65.6808 271.755 516.326
573 0 73.1284 13.1002 958 63.1785 271.661 513.377
574 0 73.0652 13.2074 965 63.8332 272.463 512.474
575 0 75.0837 11.627 873 65.6082 271.943 512.838
576 0 79.1238 12.8027 1013 63.8184 272.111 511.37
577 0 79.0936 12.1754 963 64.9076 271.927 510.241
578 0 83.099 11.5164 957 66.1191 271.909 506.843
579 0 85.1209 11.842 1008 65.7202 272.851 506.379
580 0 90.134 12.1597 1096 64.8887 273.934 504.486
581 0 90.1157 12.5616 1132 64.5954 273.357 504.019
582 1 50.1045 12.0548 604 62.8311 273.013 527.195
583 0 50.157 10.5868 531 65.3992 273.719 524.797
584 0 51.091 12.0178 614 63.5635 272.777 526.661
585 0 51.0588 11.2419 574 65.9233 272.408 523.362
586 0 56.2156 13.0924 736 62.3451 272.947 522.864
587 0 56.0385 13.4372 753 62.571 272 521.592
588 0 58.043 12.1462 705 63.2298 271.769 521.321
589 0 59.0463 12.8035 756 63.3479 272.025 518.184
590 0 60.0913 11.1331 669 64.843 271.632 519.743
591 0 63.2225 13.9665 883 61.5074 271.559 517.624
592 0 60.0687 12.2859 738 64.1978 271.978 514.801
593 0 67.0858 12.4318 834 62.5647 271.62 518.118
594 0 68.044 13.6235 927 61.2406 272.152 516.994
595 0 69.0506 12.3822 855 63.9649 271.855 514.385
596 0 72.0396 11.8268 852 63.8263 272.068 515.541
597 0 73.0683 14.0006 1023 61.6696 272.121 514.428
598 0 77.0662 12.1324 935 63.9497 272.272 511.426
599 0 78.0921 13.7274 1072 63.0429 271.627 508.768
600 0 80.412 13.7417 1105 62.1249 271.907 512.057
601 0 83.0575 13.3883 1112 63.5495 272.008 505.961
602 0 85.1277 13.2272 1126 63.6767 272.082 507.855
603 0 88.0457 13.5157 1190 63.3311 271.745 504.769
604 1 46.0801 12.0225 554 63.6516 271.819 526.753
605 0 47.0534 11.6463 548 65.9909 273.21 524.67
606 0 50.0551 12.8458 643 63.2753 272.58 524.323
607 0 50.0701 13.4212 672 63.4271 272.818 524.171
608 0 52.0334 12.0115 625 64.3296 272.656 524.379
609 0 55.0699 12.8201 706 63.0283 272.035 520.882
610 0 57.0667 12.5117 714 63.4482 272.352 520.169
611 0 58.067 12.3478 717 63 272.615 520.675
612 0 60.0871 12.2988 739 63.115 272.525 518.433
613 0 61.1067 12.2081 746 63.1408 272.127 519.162
614 0 63.061 12.5434 791 62.7358 272.478 516.753
615 0 64.0546 12.5362 803 63.2503 272.222 513.854
616 0 67.0352 12.8589 862 62.7077 272.466 512.671
617 0 70.1547 12.9713 910 61.7231 272.891 515.075
618 0 72.1174 13.478 972 61.177 272.671 512.8
619 0 75.0919 12.6911 953 62.0776 272.503 512.524
620 0 77.06 11.8349 912 62.4945 272.715 513.943
621 0 79.1276 13.1433 1040 61.6269 272.498 507.6
622 0 79.0892 11.9738 947 63.0517 272.524 507.499
623 0 85.0424 13.5932 1156 60.4628 272.841 508.452
624 1 37.0141 11.9144 441 63.3243 273.24 527.673
625 0 40.0073 10.823 433 64.2286 272.928 527.365
626 0 38.0257 11.7026 445 63.8719 272.254 526.656
627 0 45.064 12.5377 565 61.3363 272.018 526.354
628 0 43.0305 12.1774 524 62.8073 272.7 525.729
629 0 46.0443 12.7486 587 61.3748 272.847 525.274
630 0 47.0708 12.4706 587 62.2709 272.865 524.186
631 0 49.0571 12.9441 635 61.6835 272.795 524.449
632 0 48.0588 12.6304 607 62.8616 272.433 521.636
633 0 51.0746 12.1978 623 63.4061 272.228 521.44
634 0 50.1051 11.8551 594 64.0993 272.675 521.783
635 0 53.0498 11.1593 592 64.6182 272.806 520.899
636 0 55.0573 12.042 663 64.0226 273.09 518.33
637 0 56.0675 9.88096 554 65.1733 273.273 522.121
638 0 58.0616 12.349 717 63.5969 273.11 515.498
639 0 62.0447 13.4419 834 61.8273 272.374 515.606
640 0 62.2428 11.1981 697 64.6528 272.875 516.469
641 0 65.0728 14.3685 935 61.692 272.176 512.741
642 0 68.0749 12.8094 872 63.469 272.458 512.946
643 0 71.1205 13.8779 987 62.1682 272.004 511.183
644 0 71.0741 11.5373 820 65.2256 272.03 512.438
645 0 76.1584 13.078 996 63.3012 272.706 510.004
646 1 37.0106 12.9963 481 63.447 272.335 527.416
647 0 41.067 12.37 508 62.2382 272.516 529.6
648 0 41.0348 11.868 487 64.5914 272.639 526.559
649 0 44.131 12.2816 542 63.6919 272.057 526.55
650 0 43.1148 13.0814 564 63.5709 272.606 526.619
651 0 44.0949 11.8835 524 65.1985 272.893 525.729
652 0 48.0465 14.3195 688 61.9797 272.567 524.894
653 0 49.172 13.1579 647 62.5348 272.547 525.836
654 0 50.195 12.312 618 64.0939 272.969 524.008
655 0 50.4463 11.4379 577 65.201 272.702 523.95
656 0 51.2415 12.4508 638 64.7649 272.682 522.707
657 0 53.1015 13.8602 736 63.8954 273.39 520.136
658 0 58.3181 14.4038 840 61.7393 272.785 521.23
659 0 58.1123 12.6307 734 64.4387 272.665 520.85
660 0 60.0553 12.988 780 64.4256 273.046 520.083
661 0 64.2677 13.8016 887 62.9166 272.543 518.4
662 0 64.0982 13.4481 862 64.0371 272.849 517.552
663 0 67.1471 14.0587 944 63.3559 272.872 516.159
664 0 69.1195 12.529 866 65.7379 272.499 514.431
665 0 71.3815 13.1827 941 63.8704 272.802 516.846
666 0 72.1028 12.8289 925 65.6032 272.459 513.65
667 0 74.1249 13.3019 986 65.4219 272.458 511.214
668 0 77.0554 14.1976 1094 63.9415 272.204 511.693
669 1 39.1554 13.2804 520 64.4692 272.038 530.067
670 0 42.0231 14.7538 620 62.6194 272.19 529.34
671 0 43.1023 13.1779 568 64.8715 273.095 528.35
672 0 43.2825 12.0372 521 67.3071 273.109 528.301
673 0 46.0371 14.4449 665 63.6932 272.526 526.814
674 0 44.2229 12.9119 571 66.4413 272.347 526.678
675 0 46.2071 13.6775 632 65.7421 272.614 525.809
676 0 48.0272 13.3466 641 66.5367 272.711 525.56
677 0 50.0613 12.8842 645 66.5767 273.126 525.957
678 0 51.1668 13.3876 685 66.5343 272.603 523.524
679 0 55.1001 13.3938 738 65.6938 272.921 523.652
680 0 54.0705 13.168 712 67.0646 272.357 520.744
681 0 55.0662 13.1297 723 67.6929 272.876 520.882
682 0 58.1796 13.7505 800 66.295 272.915 520.652
683 0 59.1383 12.902 763 67.3919 273.182 521.303
684 0 63.0487 13.4816 850 66.6424 272.728 518.862
685 0 64.1133 15.0047 962 64.8212 272.928 518.993
686 0 65.0513 13.6815 890 66.0652 272.783 520.561
687 0 71.0847 15.9669 1135 63.5137 271.972 516.822
688 0 69.125 12.2821 849 69.4982 272.356 514.155
689 0 72.1952 14.1422 1021 67.2684 273.29 513.643
690 0 72.1003 13.1622 949 68.8567 272.802 514.122
691 1 36.0186 11.5774 417 71.5036 272.679 528.832
692 0 41.2673 12.3342 509 70.1218 272.601 526.088
693 0 42.1591 11.6463 491 70.1527 272.041 528.723
694 0 45.2044 12.8527 581 67.7917 272.594 528.358
695 0 43.0719 11.9567 515 70.1845 272.146 527.728
696 0 46.0531 11.1393 513 70.9493 272.224 527.696
697 0 49.124 12.784 628 68.4395 272.618 526.412
698 0 48.07 13.4179 645 68.5457 272.467 525.631
699 0 51.045 12.6751 647 68.8176 273 524.884
700 0 52.0627 12.3505 643 69.6252 272.552 522.947
701 0 56.0552 14.236 798 66.5489 272.536 522.536
702 0 55.2229 12.7302 703 69.0114 273.038 522.004
703 0 58.0731 14.3096 831 67.0529 272.166 521.327
704 0 60.2516 12.564 757 68.9868 272.263 520.432
705 0 63.1287 14.5259 917 66.1581 272.354 520.254
706 0 63.058 12.766 805 68.8857 272.15 520.511
707 0 66.1077 14.6882 971 66.6406 272.407 517.91
708 0 68.1141 14.2555 971 66.9207 271.773 517.875
709 0 70.0994 13.5379 949 67.1412 272.28 517.331
710 0 72.1116 13.7565 992 67.0665 272.363 516.569
711 0 72.1988 12.9919 938 68.9083 272.134 514.3
712 0 79.264 15.7449 1248 64.7612 271.797 512.911
713 0 81.0782 15.1705 1230 65.7626 271.887 511.767
714 0 83.1264 14.3998 1197 66.274 271.803 512.429
715 0 84.2346 13.4861 1136 68.2218 272.559 510.081
716 0 86.2113 12.9681 1118 69.2478 272.267 508.339
717 0 88.2444 12.1481 1072 69.889 272.497 511.114
718 0 93.2639 13.8103 1288 68.0722 272.515 507.318
719 0 91.1138 12.446 1134 71.142 272.826 505.294
720 0 96.1336 14.4486 1389 68.0468 271.999 504.96
721 0 99.4455 13.9876 1391 69.0417 272.023 501.363
722 0 102.33 13.4858 1380 69.3094 272.528 501.634
723 1 55.0886 14.159 780 68.4872 272.077 524.018
724 0 54.1865 12.7707 692 70.2601 272.201 524.655
725 0 57.0784 13.5953 776 69.5941 272.327 522.679
726 0 58.0558 13.4698 782 70.3325 272.614 521.879
727 0 62.2968 14.0136 873 68.047 272.606 523.701
728 0 62.1401 13.4535 836 69.8852 272.455 520.191
729 0 65.0727 13.5848 884 69.7115 272.231 519.872
730 0 68.1575 13.8649 945 69.6624 272.523 519.362
731 0 68.056 14.5321 989 68.6299 272.642 517.197
732 0 70.1529 13.4563 944 69.6684 272.576 519.18
733 0 75.189 14.4303 1085 68.7853 272.312 515.749
734 0 77.1953 13.8869 1072 69.0513 272.151 516.832
735 0 79.0914 13.3516 1056 69.2689 272.41 515.845
736 0 79.1623 13.3271 1055 70.1251 272.611 514.73
737 0 83.2549 13.5968 1132 69.8834 272.975 510.741
738 0 83.218 12.7496 1061 70.9811 272.733 509.896
739 0 89.0977 14.254 1270 68.8709 272.843 509.846
740 0 90.2215 13.9767 1261 68.9302 272.619 511.799
741 0 93.1888 12.2869 1145 71.6192 272.639 507.703
742 0 95.2934 12.855 1225 70.809 272.271 507.763
743 0 99.1917 16.4127 1628 65.5375 272.165 508.248
744 0 101.109 13.9849 1414 69.744 271.675 502.443
745 0 106.236 14.1384 1502 69.3708 271.204 501.639
746 0 106.267 13.5319 1438 71.0682 271.722 497.261
747 1 52.1926 12.5688 656 71.8857 271.613 526.677
748 0 55.2091 13.5485 748 70.4626 271.531 526.095
749 0 57.2849 13.8431 793 70.5725 272.13 523.805
750 0 58.1113 13.5602 788 70.7741 271.811 523.972
751 0 61.1167 16.264 994 67.0664 271.593 521.806
752 0 62.2999 14.0931 878 70.2312 271.448 520.5
753 0 65.3027 14.226 929 69.6577 272.155 520.262
754 0 67.2105 14.6554 985 69.5462 272.185 518.859
755 0 69.2948 14.3445 994 69.6338 272.054 517.941
756 0 70.1297 13.2184 927 71.5102 272.325 518.231
757 0 72.0969 12.8438 926 71.8531 271.954 517.797
758 0 75.2047 13.6295 1025 70.7639 271.641 516.762
759 0 79.2784 15.1365 1200 67.9617 272.128 514.712
760 0 79.2782 12.5003 991 72.554 271.832 510.694
761 0 84.1196 14.7647 1242 69.1377 272.021 509.868
762 0 84.2018 13.3726 1126 70.8481 271.752 510.927
763 0 89.2641 14.0818 1257 69.6746 271.397 509.807
764 0 92.1507 15.3336 1413 67.8995 272.1 507.144
765 0 93.1546 13.9446 1299 69.8299 271.3 506.079
766 0 97.2943 16.0647 1563 66.4939 272.523 502.827
767 1 50.1701 13.9924 702 69.6296 271.49 527.474
768 0 51.306 12.3767 635 71.5496 272.02 527.046
769 0 51.184 12.3281 631 71.7876 272.195 527.32
770 0 52.0557 11.8527 617 72.9984 271.862 524.241
771 0 58.1035 14.8356 862 67.326 271.993 525.584
772 0 60.2202 14.7957 891 67.8664 272.155 523.361
773 0 62.0594 14.76 916 67.5153 271.831 523.207
774 0 63.0848 14.6153 922 67.9425 271.564 522.632
775 0 64.3575 14.5748 938 68.6098 271.48 520.002
776 0 67.2931 12.2747 826 69.8499 272.01 522.602
777 0 68.5368 13.0149 892 69.9641 271.868 519.182
778 0 72.2026 14.9856 1082 66.7976 271.996 517.211
779 0 74.0675 14.9863 1110 66.8396 271.623 516.881
780 0 76.1339 14.5664 1109 67.5672 271.863 515.409
781 0 78.0634 14.7444 1151 67.4083 271.599 514.77
782 0 80.0726 14.287 1144 67.6241 272.248 515.084
783 0 85.331 15.9028 1357 64.9322 272.223 513.15
784 0 89.2884 14.4588 1291 66.395 272.017 512.005
785 0 90.2641 15.2995 1381 65.5098 272.664 509.474
786 0 90.1355 12.803 1154 69.3969 272.08 505.023
787 0 96.2048 15.5917 1500 64.8033 272.007 507.596
788 1 47.0813 11.0235 519 69.3603 271.784 529.362
789 0 48.2476 11.0886 535 70.7832 271.441 526.675
790 0 52.2386 13.6489 713 67.0435 271.142 527.798
791 0 51.0953 12.2712 627 70.5997 271.512 526.461
792 0 56.1045 13.8313 776 66.9046 271.808 526.452
793 0 56.1449 13.3583 750 67.972 271.976 525.915
794 0 58.1628 11.7945 686 70.4577 272.426 522.663
795 0 63.1099 13.2784 838 68.1444 271.717 520.276
796 0 63.3279 13.7854 873 67.9026 271.785 521.087
797 0 65.0723 14.5069 944 67.7447 271.913 519.748
798 0 66.1698 14.0094 927 68.0388 271.964 520.886
799 0 69.1202 12.7749 883 69.6025 272.142 518.388
800 0 72.0719 11.9742 863 70.0695 271.846 519.658
801 0 75.0794 13.6123 1022 68.6135 272.025 516.55
802 0 76.2027 12.7292 970 70.5753 272.149 515.199
803 0 79.3595 12.2355 971 70.6993 272.291 515.47
804 0 81.4054 14.4585 1177 67.9643 272.268 514.189
805 0 85.1444 14.0467 1196 68.7207 272.11 510.741
806 0 84.245 11.9651 1008 72.2966 271.873 508.785
807 0 85.06 11.439 973 73.3402 272.143 505.703
808 0 88.0614 12.2301 1077 72.1495 271.863 505.631
809 1 50.0885 12.5777 630 67.073 272.335 531.837
810 0 48.1181 12.8642 619 68.4152 272.094 529.502
811 0 51.2201 13.4127 687 66.8384 272.1 529.159
812 0 50.0667 12.9627 649 68.5547 271.684 527.949
813 0 51.1485 12.669 648 69.0463 272.596 525.815
814 0 54.0464 12.8778 696 67.6034 272.243 527.534
815 0 54.2992 12.9284 702 67.8974 272.165 527.085
816 0 58.2075 13.2457 771 66.7432 272.174 526.703
817 0 59.2396 13.8252 819 66.5153 272.687 524.277
818 0 61.1637 13.1941 807 66.8922 272.165 524.877
819 0 64.2423 13.4958 867 66.827 272.2 522.401
820 0 64.1519 12.2522 786 68.9822 272.223 519.618
821 0 67.1526 13.4768 905 67.3624 271.863 519.526
822 0 69.1355 13.7122 948 66.8207 272.329 516.609
823 0 73.2352 13.1221 961 67.2092 271.608 516.187
824 0 74.356 13.6909 1018 66.3694 271.446 517.092
825 0 76.169 12.9318 985 67.4792 272.23 515.282
826 0 77.211 12.9904 1003 67.4207 271.872 514.593
827 0 82.2449 13.0464 1073 67 272.048 513.193
828 0 85.1567 13.4458 1145 66.421 272.053 509.753
829 0 84.1333 12.6704 1066 68.1998 271.718 507.005
830 0 89.2775 12.5676 1122 67.0838 272.32 510.729
831 0 92.194 12.5279 1155 68.0667 271.326 505.326
832 0 94.1036 12.4437 1171 67.7583 271.681 504.968
833 0 98.1089 14.2189 1395 65.4846 271.751 503.641
834 0 99.2594 11.3944 1131 69.4695 272.563 504.291
835 1 50.2266 12.6626 636 66.8994 272.168 527.451
836 0 54.1818 13.4916 731 65.5376 272.231 525.923
837 0 54.1521 11.6708 632 68.7468 271.867 524.494
838 0 57.18 13.2914 760 66.4882 271.645 522.939
839 0 59.3043 13.456 798 66.1065 271.52 520.946
840 0 60.3648 12.2754 741 67.4845 271.974 522.467
841 0 60.2437 11.7523 708 69.5 272.253 519.866
842 0 65.1631 13.9343 908 65.326 272.198 520.238
843 0 66.2044 13.1562 871 67.1676 272.447 517.692
844 0 71.1475 15.0392 1070 63.686 272.33 517.511
845 0 74.1956 14.1653 1051 64.1846 272.25 516.636
846 0 76.1132 12.3106 937 66.2006 271.559 517.598
847 0 75.3239 13.037 982 66.9705 271.868 513.727
848 0 78.1495 12.4505 973 67.7903 272.009 512.478
849 0 80.3106 13.6844 1099 65.4904 271.613 513.045
850 0 86.0567 13.7932 1187 65.1171 271.409 511.008
851 0 87.1537 13.3901 1167 66.3128 272.322 508.672
852 0 88.1218 11.2912 995 68.9668 271.787 509.475
853 0 91.2488 11.5289 1052 68.9316 271.701 504.947
854 0 96.3172 13.1129 1263 66.1821 271.553 505.322
855 0 96.1159 13.2444 1273 66.5357 271.803 503.181
856 0 100.076 12.0109 1202 67.4626 271.583 502.949
857 0 100.191 11.2884 1131 68.7427 271.736 501.628
858 1 50.1002 13.2335 663 64.6259 271.22 525.992
859 0 53.2178 11.8006 628 65.5127 271.562 525.788
860 0 53.1619 11.117 591 67.022 272.107 524.971
861 0 55.1417 12.7127 701 66.1541 271.641 523.822
862 0 56.2584 11.696 658 66.807 271.995 525.081
863 0 59.1677 12.8279 759 65.2609 271.109 523.333
864 0 60.3054 12.5528 757 65.2893 271.811 521.946
865 0 61.1199 11.9601 731 65.7073 271.858 521.077
866 0 65.0683 12.2026 794 64.9408 272.385 518.906
867 0 64.264 12.153 781 65.5237 271.799 518.378
868 0 68.1396 10.7867 735 67.0517 272.309 516.291
869 0 72.1015 11.2619 812 65.4335 272.325 517.672
870 0 71.1488 12.3544 879 65.2867 271.903 513.554
871 0 74.2949 13.3926 995 63.5879 271.687 514.927
872 0 77.1719 13.2432 1022 62.7847 272.084 513.861
873 0 80.1655 11.6758 936 64.7831 271.051 513.004
874 0 83.1414 12.3404 1026 64.0292 271.435 509.106
875 1 45.2572 11.9318 540 62.537 271.939 527.935
876 0 45.112 8.77815 396 66.0682 271.972 527.24
877 0 49.1213 12.3775 608 60.3618 271.72 528.026
878 0 47.0406 13.2864 625 60.6752 271.115 523.739
879 0 49.1087 10.2019 501 63.4431 271.543 524.351
880 0 52.137 11.2013 584 62.024 271.589 524.736
881 0 54.261 10.1546 551 62.539 272.163 525.466
882 0 56.0792 11.8761 666 60.5766 271.892 524.02
883 0 58.1423 12.3662 719 59.5146 271.821 522.256
884 0 58.07 11.8994 691 60.0839 272.006 520.673
885 0 62.2079 13.1977 821 58.2984 271.924 519.495
886 0 60.3756 10.1531 613 62.168 272.031 516.881
887 0 62.1961 12.332 767 59.4185 271.879 518.741
888 0 66.0878 13.1946 872 58.0975 272.151 518.876
889 0 68.1268 11.7135 798 59.6491 272.066 516.802
890 0 69.1489 11.468 793 59.8285 272.42 515.798
891 0 70.1159 9.11348 639 62.6588 271.848 514.926
892 1 36.1817 11.1106 402 58.4776 272.373 530.403
893 0 38.0643 11.5331 439 57.3098 272.845 531.989
894 0 38.1519 9.43596 360 60.0722 272.292 531.336
895 0 41.0839 11.0749 455 58.1538 272.147 530.235
896 0 42.0327 10.6822 449 57.7283 272.274 529.693
897 0 43.0549 10.1034 435 59.3632 272.097 527.579
898 0 45.0331 11.6359 524 56.834 271.962 528.046
899 0 43.0809 10.3526 446 59.074 272.406 525.989
900 0 45.0468 11.588 522 57.5766 272.261 524.715
901 0 47.1628 11.6829 551 57.2505 272.027 525.053
902 0 48.0651 12.4623 599 56.217 271.743 525.993
903 0 50.0134 12.5966 630 56.5921 271.403 524.233
904 0 52.0785 12.9036 672 56.1756 271.467 523.387
905 0 53.1305 12.234 650 56.7231 271.885 523.568
906 0 54.1585 13.0912 709 55.6488 271.757 523.035
907 0 58.1309 14.2265 827 53.9637 271.97 522.549
908 0 58.0403 11.9055 691 56.2402 272.314 522.019
909 0 59.0749 10.5121 621 57.7923 272.657 523.845
910 0 60.1353 10.3101 620 58.5355 273.461 519.421
911 0 63.1121 11.7885 744 57.2298 273.263 518.741
912 0 64.0581 9.63189 617 58.8428 273.31 520.321
913 0 67.1185 10.6379 714 58.056 273.384 517.501
914 0 71.066 11.7919 838 57.074 273.221 515.61
915 0 73.1195 11.912 871 57.1504 272.409 516.061
916 0 73.0933 10.8765 795 58.4956 272.509 514.96
917 1 36.0203 11.1604 402 58.3259 272.393 531.903
918 0 38.1176 11.8318 451 57.4058 272.612 530.361
919 0 41.1973 11.9911 494 56.5688 272.13 531.168
920 0 41.0503 12.3994 509 57.5658 272.016 528.819
921 0 43.0463 12.1265 522 57.272 271.862 527.918
922 0 43.0653 14.0252 604 55.5911 272.412 527.856
923 0 45.0372 12.2565 552 57.6703 271.629 526.295
924 0 45.0551 11.7856 531 58.226 272.267 527.173
925 0 47.0166 12.4211 584 58.3031 272.219 523.092
926 0 50.1218 11.3723 570 58.9456 271.744 524.486
927 0 48.0391 10.9702 527 60.575 272.338 521.994
928 0 51.071 12.8644 657 58.6545 271.935 521.597
929 0 52.0241 12.8979 671 58.8435 271.879 522.085
930 0 55.0611 14.0208 772 57.8057 271.964 521.056
931 0 55.1057 11.6503 642 60.1075 272.129 521.382
932 0 60.0738 13.9329 837 57.6117 272.008 518.866
933 0 61.0855 13.3092 813 57.9926 272.359 520.662
934 0 62.1005 13.4138 833 58.9712 272.658 519.146
935 0 62.066 12.9862 806 59.3573 272.409 519.045
936 0 66.1218 15.6832 1037 56.2671 272.877 516.841
937 0 66.0249 12.2832 811 60.7608 272.732 515.153
938 0 69.0403 11.6019 801 60.7615 272.705 517.286
939 0 72.1161 15.0729 1087 58.011 272.253 511.162
940 0 74.0822 13.0936 970 60.0722 271.676 512.636
941 1 112.198 11.5064 1291 62.1038 272.249 497.127
942 1 77.0652 12.8722 992 61.2157 272.658 509.842
943 0 81.0885 12.4309 1008 61.5556 272.269 507.572
944 0 85.0733 13.6588 1162 60.4552 272.987 506.623
945 0 85.0733 11.8604 1009 62.7483 272.995 508.343
946 1 45.0576 10.9637 494 63.6377 272.739 528.265
947 0 45.0514 12.2971 554 63.1986 273.179 526.782
948 0 48.0321 13.9282 669 61.2302 272.825 523.753
949 0 49.0287 13.7063 672 61.5 273.427 525.518
950 0 51.08 12.8426 656 62.1951 272.643 523.755
951 0 49.0592 12.597 618 63.2929 272.751 525.307
952 0 52.0438 11.2213 584 65.0719 272.231 521.545
953 0 57.1305 13.1629 752 61.1051 272.681 522.782
954 0 56.0616 12.3614 693 63.1472 272.671 521.6
955 0 58.1049 12.5635 730 62.3548 271.645 520.808
956 0 58.1446 12.9677 754 62.9562 272.481 520.394
957 0 62.156 13.5466 842 61.399 271.975 518.371
958 0 64.1945 13.241 850 61.9976 272.507 515.821
959 0 65.0492 12.0832 786 62.9402 271.891 518.698
960 0 69.0961 14.7476 1019 59.6075 272.217 516.144
961 0 70.0994 13.0386 914 61.9376 272.58 515.302
962 0 72.2243 12.2673 886 62.8702 272.456 514.516
963 0 78.1159 14.4529 1129 59.5678 273.004 514.917
964 0 77.0859 12.4796 962 62.4543 271.825 508.895
965 0 82.1807 12.8984 1060 61.933 272.255 511.952
966 0 82.1775 13.3857 1100 61.77 272.616 508.431
967 0 85.0624 13.1198 1116 62.2052 272.394 507.467
968 0 87.1306 12.6133 1099 62.8198 272.543 506.363
969 0 90.2991 12.3146 1112 63.1637 272.221 507.094
970 0 90.1108 12.9285 1165 62.9433 272.647 501.728
971 1 47.2219 11.8377 559 63.7442 272.515 524.945
972 0 51.2524 11.7653 603 62.403 272.6 525.202
973 0 49.0541 11.9868 588 63.0918 272.75 524.413
974 0 52.0543 11.3151 589 63.1766 272.479 523.844
975 0 52.0912 12.5357 653 62.3798 272.349 524.064
976 0 55.3344 11.548 639 63.1534 272.238 520.061
977 0 58.0376 14.7663 857 59.6616 272.212 519.874
978 0 59.2812 10.931 648 62.9522 272.21 521.522
979 0 62.056 11.9731 743 62.2167 272.156 520.139
980 0 63.0718 12.5254 790 61.0152 272.42 520.968
981 0 67.2087 13.6887 920 59.7717 272.153 518.452
982 0 67.1703 12.0887 812 61.9901 272.644 514.419
983 0 72.0377 12.6045 908 60.9923 272.559 516.446
984 0 73.0859 13.1352 960 60.95 272.802 514.549
985 0 75.1469 13.6799 1028 59.8307 272.932 515.69
986 0 75.086 12.9318 971 61.1524 272.618 513.216
987 0 80.0601 12.9777 1039 61.4543 273.072 511.654
988 0 82.2598 14.4177 1186 59.6855 272.719 511.448
989 0 84.0542 11.7781 990 63.2384 271.863 507.079
990 0 85.1765 10.625 905 64.0343 272.694 510.58
991 1 46.0562 11.8334 545 62.8991 272.297 525.938
992 0 49.2148 12.5572 618 61.0502 272.518 529.065
993 0 48.0675 12.0664 580 62.9741 272.586 526.06
994 0 51.1317 12.5363 641 62.5803 272.789 523.471
995 0 53.0388 12.1421 644 62.2578 272.323 524.02
996 0 54.0738 14.0364 759 60.2385 272.97 523.735
997 0 55.163 11.7833 650 62.76 272.709 524.665
998 0 56.1057 13.8132 775 61.2684 272.2 522.026
999 0 61.2742 13.5946 833 60.7047 272.54 520.437
1000 0 62.1449 11.5858 720 63.0236 272.272 518.231
1001 0 62.1718 11.1465 693 63.8196 272.258 519.6
1002 0 66.2779 13.383 887 60.9391 272.2 516.826
1003 0 67.1995 13.14 883 61.2831 271.963 518.742
1004 0 70.0837 11.3864 798 63.4825 272.085 515.95
1005 0 72.0826 13.2209 953 62.0336 271.338 513.861
1006 0 77.1527 13.5186 1043 61.4084 271.784 514.211
1007 1 37.0373 11.6909 433 63.6467 272.118 531.589
1008 0 38.1235 12.3021 469 63.0981 271.627 529.759
1009 0 40.2994 12.7049 512 62.4004 271.449 530.863
1010 0 42.1343 11.9855 505 63.3703 271.687 530.489
1011 0 43.139 12.5872 543 63.5341 271.845 528.608
1012 0 46.1131 12.491 576 62.8698 271.212 529.929
1013 0 48.0953 13.1822 634 61.6625 271.552 531.099
1014 0 49.1325 14.0844 692 61.4913 271.588 528.208
1015 0 48.2695 10.7107 517 65.2708 271.342 529.574
1016 0 50.0556 13.0655 654 62.7737 271.957 529.038
1017 0 53.1239 12.9132 686 63.105 272.191 526.926
1018 0 54.1417 12.6889 687 63.9534 272.169 526.546
1019 0 55.1548 14.9398 824 61.4369 271.768 523.576
1020 0 57.1101 12.5722 718 64.3886 271.724 525.898
1021 0 60.2215 13.1348 791 63.8647 271.506 524.274
1022 0 63.1327 13.2578 837 63.3405 271.712 522.828
1023 0 64.1275 12.4596 799 64.8135 271.352 520.685
1024 0 65.1156 13.5144 880 64.1432 271.739 517.173
1025 0 67.2776 12.0248 809 66.0457 271.551 517.63
1026 0 69.0819 14.0413 970 64.0485 271.718 518.87
1027 0 72.0906 13.5385 976 64.7357 270.941 516.994
1028 0 73.2554 13.7874 1010 65.495 271.21 514.483
1029 0 75.1047 12.5425 942 67.327 270.988 515.551
1030 1 40.1021 12.1689 488 68.3443 270.572 531.541
1031 0 42.1213 12.0604 508 68.7618 270.533 532.207
1032 0 43.1157 11.6663 503 69.4175 271.044 532.177
1033 0 44.1805 11.8152 522 69.295 271.297 531.172
1034 0 49.0571 13.9022 682 65.3534 271.059 531.477
1035 0 49.1239 12.9876 638 67.1552 271.282 529.984
1036 0 53.1579 14.0337 746 65.0617 270.845 529.89
1037 0 53.0791 13.9603 741 65.8151 271.038 529.484
1038 0 54.1182 13.0825 708 67.0706 270.319 527.698
1039 0 56.0889 14.6018 819 64.7302 270.613 528.513
1040 0 58.1053 12.5634 730 68.4877 269.704 525.544
1041 0 59.0892 12.8958 762 67.5328 270.507 526.19
1042 0 61.0412 12.2376 747 68.2343 270.353 525.076
1043 0 65.1573 14.1504 922 65.718 270.709 523.556
1044 0 66.1146 13.9152 920 66.5446 270.37 521.361
1045 0 70.1057 14.5067 1017 65.1642 270.312 521.939
1046 0 71.219 13.297 947 67.4002 270.167 518.922
1047 0 74.2221 12.9611 962 67.7672 270.03 517.122
1048 0 78.0679 15.4225 1204 64.5473 271.328 516.985
1049 0 81.2655 14.4588 1175 65.2553 271.073 517.738
1050 0 83.1015 15.8481 1317 64.0744 270.913 516.35
1051 0 87.1486 14.6072 1273 65.6339 270.59 514.005
1052 0 89.1757 16.1143 1437 64.0411 270.45 514.514
1053 1 48.0631 11.5057 553 69.4159 270.602 534.423
1054 0 48.0403 11.9275 573 70.8202 270.166 530.934
1055 0 50.1045 13.8311 693 68.3896 270.763 531.548
1056 0 52.0317 14.0299 730 67.9589 270.281 530.519
1057 0 55.0404 14.5893 803 66.6314 270.382 530.818
1058 0 55.0631 13.8023 760 68.1355 270.222 529.683
1059 0 56.1158 14.4344 810 67.8247 270.716 526.315
1060 0 59.0866 13.1333 776 69.0966 270.478 527.905
1061 0 58.0797 12.6378 734 71.2834 270.913 526.76
1062 0 62.1132 14.216 883 68.4088 270.967 527.475
1063 0 66.1416 14.3631 950 66.8274 271.1 527.448
1064 0 66.1928 13.642 903 67.7874 270.72 526.932
1065 0 68.0939 13.9513 950 68.3232 271.121 524.663
1066 0 73.1079 14.8 1082 66.2079 270.41 523.011
1067 0 73.2666 14.2493 1044 66.4828 270.481 523.194
1068 0 76.0581 14.0813 1071 67.465 270.955 518.573
1069 0 79.1031 14.7908 1170 65.547 270.668 521.31
1070 0 83.0828 14.1184 1173 67.1006 271.608 518.348
1071 0 83.1503 14.564 1211 66.7861 270.794 514.827
1072 0 87.1208 14.0724 1226 66.6313 271.238 516.693
1073 0 89.0626 12.8337 1143 68.2773 270.473 511.879
1074 0 91.1161 12.281 1119 68.9473 271.539 511.657
1075 1 50.1066 13.3116 667 67.066 271.225 533.438
1076 0 52.0739 14.2106 740 65.2716 271.384 533.805
1077 0 50.1328 13.4243 673 68.049 271.459 529.804
1078 0 53.0515 14.2503 756 66.4272 271.651 529.899
1079 0 55.1025 13.7925 760 66.8395 271.622 528.672
1080 0 55.1026 13.611 750 67.676 271.521 525.721
1081 0 59.0585 14.6465 865 65.5376 271.962 524.227
1082 0 60.1205 14.6539 881 65.0204 271.699 526.781
1083 0 61.086 15.5355 949 64.9294 271.887 524.219
1084 0 63.0966 14.2955 902 65.9224 271.237 522.669
1085 0 67.3517 15.0108 1011 64.3689 271.978 520.725
1086 0 67.0715 14.7007 986 64.6836 271.327 520.367
1087 0 72.0284 14.6887 1058 64.1144 271.412 517.986
1088 0 74.1857 13.6954 1016 65.2136 271.277 517.89
1089 0 75.0681 13.974 1049 64.8818 271.032 517.813
1090 0 79.1152 11.7044 926 67.2851 272.104 518.308
1091 0 80.1514 13.2874 1065 66.5709 271.194 513.661
1092 0 82.1604 13.7171 1127 65.6007 272.667 513.629
1093 0 87.1781 13.6158 1187 65.0329 271.798 512.898
1094 0 91.0801 14.2512 1298 64.5686 271.726 508.744
1095 1 45.0764 11.3585 512 67.8516 272.738 530.867
1096 0 49.0625 13.8802 681 64.2555 271.937 530.584
1097 0 49.0699 12.5128 614 66.0765 271.274 529.578
1098 0 51.0303 13.4626 687 65.5648 271.597 527.432
1099 0 53.051 14.2316 755 63.4291 271.343 526.494
1100 0 53.0596 11.6096 616 66.6461 271.709 527.659
1101 0 56.1087 13.9016 780 63.7538 271.981 524.692
1102 0 57.148 13.1938 754 64.7082 271.403 524.114
1103 0 60.2033 14.0026 843 63.7639 271.921 522.335
1104 0 63.0888 14.0754 888 63.0417 271.586 522.463
1105 0 61.1017 13.1093 801 65.2634 271.713 520.453
1106 0 65.1136 14.4977 944 63.2585 271.63 518.481
1107 0 68.1143 12.7727 870 64.5264 271.711 517.871
1108 0 69.1667 12.9976 899 63.6585 271.729 518.902
1109 0 71.1022 13.4032 953 63.5792 272.016 516.341
1110 0 73.2355 12.7943 937 63.8997 272.054 514.054
1111 0 78.1538 12.2323 956 63.9801 272.2 510.603
1112 0 81.1734 14.6477 1189 61.0976 271.467 512.411
1113 0 84.3788 14.0675 1187 61.1373 271.981 506.161
1114 0 87.2729 13.6125 1188 62.0993 271.759 507.614
1115 1 47.1612 12.3194 581 61.7573 272.131 531.079
1116 0 44.204 11.4469 506 65.1739 272.33 527.289
1117 0 51.2016 15.312 784 59.2679 271.71 524.462
1118 0 51.3277 12.0987 621 62.8068 271.892 527.084
1119 0 53.2233 12.8515 684 61.8363 271.405 525.45
1120 0 54.272 13.8746 753 61.0956 271.155 522.98
1121 0 56.1423 12.6108 708 62.1935 271.939 523.419
1122 0 60.1679 12.7144 765 61.0314 272.059 525.288
1123 0 63.1926 12.9604 819 59.8205 271.956 525.77
1124 0 64.0845 12.2651 786 61.556 272.141 522.027
1125 0 67.3157 13.043 878 60.2255 272.277 520.894
1126 0 68.2273 13.8068 942 59.7962 272.277 518.087
1127 0 72.3277 14.0887 1019 58.7978 272.176 518.956
1128 0 72.0743 13.8468 998 59.9319 272.15 515.947
1129 0 75.256 12.7697 961 60.796 272.43 514.605
1130 0 77.2516 13.0224 1006 60.1074 272.333 516.69
1131 0 80.1768 13.5076 1083 59.8061 271.965 512.83
1132 1 41.0304 12.6735 520 59.4481 271.813 534.848
1133 0 41.1846 14.6414 603 58.8624 272.106 532.116
1134 0 42.2603 12.0444 509 61.0413 271.8 531.151
1135 0 44.1924 13.9617 617 59.2285 272.126 529.272
1136 0 45.2561 11.5565 523 61.6061 271.967 531.038
1137 0 49.0942 14.1972 697 58.2382 271.594 530.828
1138 0 49.1647 14.9497 735 57.8531 272.283 526.77
1139 0 50.0862 13.6764 685 59.2555 272.426 526.982
1140 0 51.0897 14.5626 744 58.7137 272.804 528.797
1141 0 52.0539 12.7944 666 60.7117 272.877 525.56
1142 0 54.0339 12.3256 666 61.0435 272.959 525.622
1143 0 56.0368 13.509 757 59.4544 272.58 526.489
1144 0 57.1267 13.0237 744 60.2379 272.507 524.417
1145 0 61.0799 13.4742 823 59.4763 272.478 523.687
1146 0 64.1301 14.7045 943 58.0276 272.17 523.492
1147 0 64.0994 14.1499 907 59.1742 271.645 518.91
1148 0 67.1108 13.7683 924 59.3074 272.474 521.066
1149 0 68.1325 15.1176 1030 58.7777 272.498 519.139
1150 0 72.1026 15.9079 1147 57.4377 272.834 517.916
1151 0 75.0928 14.6885 1103 58.6219 272.756 519.657
1152 0 74.0863 12.6609 938 61.5874 271.97 516.51
1153 0 79.2409 15.0806 1195 58.5983 272.336 516.36
1154 0 82.1867 13.2382 1088 60.9062 273.32 516.266
1155 0 82.3634 14.9702 1233 59.4939 272.833 513.982
1156 0 86.278 14.4649 1248 59.8558 272.649 508.597
1157 0 87.0812 14.2626 1242 60.781 272.192 509.273
1158 1 45.0902 12.5083 564 62.7996 272.518 530.867
1159 0 49.18 14.2538 701 60.1141 272.479 531.937
1160 0 46.1741 13.8389 639 63.4288 271.879 528.64
1161 0 50.1545 13.6777 686 61.8455 272.443 531.859
1162 0 52.0574 14.4264 751 62.273 272.485 527.963
1163 0 51.1052 11.3883 582 65.9467 272.73 527.696
1164 0 53.2352 13.8066 735 64.4517 272.052 526.029
1165 0 58.2972 13.1396 766 63.4099 272.521 527.663
1166 0 59.1955 14.6295 866 62.4838 272.413 525.045
1167 0 63.2765 14.9977 949 61.9715 272.639 524.123
1168 0 63.0635 13.3992 845 64.697 272.594 521.428
1169 0 66.146 15.0727 997 62.7141 272.356 521.528
1170 0 68.1537 14.614 996 63.1084 272.005 520.834
1171 0 67.1292 15.5521 1044 63.0326 271.897 520.614
1172 0 70.1638 13.2689 931 65.29 272.372 521.438
1173 0 75.2394 15.3776 1157 62.7442 271.582 518.968
1174 0 76.2777 13.5426 1033 65.8364 271.825 517.514
1175 0 81.3172 15.0522 1224 62.7051 271.842 518.172
1176 0 81.4562 14.3513 1169 64.5047 272.165 516.597
1177 0 85.3803 13.7151 1171 65.3476 272.058 514.87
1178 0 88.2169 14.1129 1245 65.1655 272.412 514.979
1179 0 90.2661 13.6928 1236 66.034 272.198 512.752
1180 1 44.2975 13.7254 608 66.0724 271.51 533.747
1181 0 46.2369 14.4041 666 65.8589 272.144 532.974
1182 0 47.3135 11.0539 523 70.4092 271.426 533.185
1183 0 48.3039 14.2846 690 67.529 272.468 531.604
1184 0 51.2508 14.8876 763 66.4849 272.308 531.388
1185 0 52.1866 13.5475 707 68.0283 271.925 530.946
1186 0 53.2152 13.0414 694 69.3833 272.21 530.133
1187 0 53.1083 14.461 768 67.7057 272.215 529.676
1188 0 56.344 14.7487 831 67.9146 271.989 528.606
1189 0 58.0873 15.098 877 68.577 271.558 525.269
1190 0 61.2748 14.4268 884 69.3224 272.1 523.748
1191 0 62.2989 14.4304 899 69.4972 271.853 524.571
1192 0 64.1035 15.9898 1025 67.8224 272.321 522.947
1193 0 67.2607 15.5663 1047 68.148 272.311 522.121
1194 0 67.3485 16.0508 1081 68.1073 271.823 520.068
1195 0 70.0602 14.6731 1028 70.2169 271.942 519.871
1196 0 72.0598 14.6822 1058 70.4641 271.961 519.474
1197 0 75.3219 13.4357 1012 71.7816 271.4 519.375
1198 0 79.1051 15.3214 1212 69.4596 271.991 516.383
1199 0 81.1317 15.9124 1291 68.7297 272.149 515.917
1200 0 84.0877 15.4244 1297 69.4719 271.713 512.726
1201 0 89.1389 16.1994 1444 67.9875 271.476 513.518
1202 0 90.1899 15.29 1379 69.6693 271.906 512.768
1203 0 91.0946 15.4565 1408 69.9482 271.655 508.038
1204 0 95.1868 14.8025 1409 70.4422 271.757 509.424
1205 1 50.3371 13.7274 691 72.0116 271.505 531.084
1206 0 53.1117 12.8785 684 73.0292 271.086 529.713
1207 0 58.059 14.6403 850 69.4459 271.516 527.518
1208 0 59.2031 15.0668 892 69.4765 271.697 525.576
1209 0 59.0895 14.7403 871 70.1607 271.762 526.382
1210 0 60.2064 14.2178 856 71.5713 271.579 523.737
1211 0 62.0641 14.7428 915 70.4197 271.799 522.499
1212 0 64.1426 13.0646 838 72.9881 272.242 523.328
1213 0 66.0723 15.2712 1009 70.2587 271.949 522.032
1214 0 69.2999 13.4776 934 72.3051 271.496 520.608
1215 0 72.2436 17.358 1254 66.2863 271.538 520.976
1216 0 73.2323 13.7644 1008 71.7054 272.164 520.225
1217 0 77.3073 16.622 1285 67.2568 271.493 519.696
1218 0 81.0919 16.0189 1299 68.0677 271.937 517.085
1219 0 83.1953 14.7725 1229 69.9471 272.03 515.72
1220 0 86.3449 14.1641 1223 70.7449 272.081 514.335
1221 0 88.2023 15.3624 1355 69.9196 271.23 510.271
1222 0 91.2867 15.1829 1386 69.9149 271.521 509.369
1223 0 94.1244 15.0227 1414 70.1238 271.63 508.373
1224 0 99.1225 15.3749 1524 68.9462 272.258 509.036
1225 1 48.1977 13.2164 637 72.3155 271.984 530.126
1226 0 50.1156 14.706 737 70.9417 272.126 528.83
1227 0 51.0799 14.6633 749 70.0694 272.211 530.636
1228 0 53.2324 14.277 760 71.4158 272.42 527.22
1229 0 55.1718 14.627 807 71.2429 271.839 526.872
1230 0 55.2196 13.2562 732 73.2541 271.806 527.022
1231 0 58.0964 14.6653 852 70.6244 272.204 526.791
1232 0 59.1544 13.5915 804 72.5746 272.28 525.376
1233 0 63.1305 14.8264 936 69.765 271.792 523.112
1234 0 63.1048 16.322 1030 67.9874 271.915 524.31
1235 0 67.1548 15.9184 1069 68.4967 272.264 520.47
1236 0 68.1365 14.603 995 70.7025 272.684 520.141
1237 0 68.1151 12.8899 878 73.68 272.834 518.385
1238 0 73.1111 12.7067 929 72.4898 272.813 517.687
1239 0 76.2553 15.1989 1159 68.7403 272.274 516.349
1240 0 78.1732 13.3422 1043 71.5686 272.566 515.9
1241 0 80.1727 13.5458 1086 71.3039 272.481 515.36
1242 0 83.0594 14.8087 1230 70.1886 272.556 512.606
1243 0 88.3215 14.9567 1321 68.6223 272.936 512.677
1244 0 89.0859 15.0192 1338 69.2242 273.184 511.571
1245 1 43.1871 12.8511 555 72.0234 272.393 531.82
1246 0 44.1079 14.3512 633 70.9021 272.032 529.302
1247 0 46.0417 13.857 638 70.7069 272.859 529.718
1248 0 48.0323 13.5117 649 71.0462 272.425 529.941
1249 0 51.092 13.7986 705 71.0128 272.548 527.922
1250 0 49.0439 13.4369 659 73.39 273.097 526.495
1251 0 54.1181 14.2836 773 70.5679 272.486 523.42
1252 0 54.0673 14.2415 770 71.5169 273.001 522.642
1253 0 58.2509 14.5921 850 69.4165 272.794 524.132
1254 0 57.1655 13.7321 785 70.9325 272.702 525.138
1255 0 61.1774 13.845 847 70.3388 272.823 523.907
1256 0 61.0474 14.0055 855 70.4327 272.726 522.262
1257 0 63.1145 14.9252 942 69.3652 273.109 518.752
1258 0 69.1193 14.6558 1013 68.1994 273.1 518.794
1259 0 70.3102 13.0138 915 70.5847 272.626 517.792
1260 0 71.1396 14.324 1019 68.893 272.768 518.304
1261 0 72.1191 13.9075 1003 69.6351 272.333 515.913
1262 0 74.4379 13.4071 998 70.0601 272.522 514.571
1263 0 80.1233 13.3419 1069 69.1076 272.85 514.653
1264 0 82.2769 14.5606 1198 67.8339 272.269 512.043
1265 0 86.1643 15.2731 1316 66.6892 272.671 511.153
1266 0 87.1232 15.4723 1348 66.8427 272.436 508.09
1267 0 92.2099 15.584 1437 66.0181 272.44 509.574
1268 1 47.0893 14.0584 662 69.1601 272.494 527.495
1269 0 49.2012 13.1704 648 69.9954 272.443 527.991
1270 0 51.0859 15.8752 811 66.2922 271.991 527.888
1271 0 53.2166 14.2625 759 67.7681 272.236 525.926
1272 0 57.2021 14.003 801 66.8939 272.201 526.734
1273 0 57.0957 14.4494 825 66.4218 272.297 525.642
1274 0 59.05 14.022 828 67.4589 272.617 522.585
1275 0 59.105 14.1782 838 67.6325 272.963 522.016
1276 0 63.0576 14.5105 915 66.1333 272.213 522.906
1277 0 65.0929 14.5792 949 65.7239 273.172 522.673
1278 0 62.0544 11.4416 710 70.5014 272.777 520.669
1279 0 71.2364 15.1748 1081 64.1924 272.616 520.196
1280 0 74.3235 14.6925 1092 64.6914 272.392 516.814
1281 0 75.0863 15.2358 1144 64.8427 273.146 514.531
1282 0 77.073 14.7522 1137 65.4213 271.469 511.511
1283 0 78.343 14.5642 1141 65.3812 272.584 509.655
1284 0 82.1015 14.2507 1170 65.3752 272.454 510.898
1285 0 86.1864 14.1786 1222 65.1899 271.453 510.588
1286 0 87.271 13.6242 1189 65.8713 271.699 508.628
1287 0 89.0784 13.1233 1169 66.5449 272.382 505.572
1288 0 95.1918 15.4005 1466 63.7892 272.516 504.809
1289 0 95.1898 14.6339 1393 65.0926 272.203 505.896
1290 1 50.2425 13.8926 698 65.3811 271.467 524.895
1291 0 55.0756 13.8355 762 63.6745 271.979 526.055
1292 0 53.0854 14.0151 744 65.1546 271.98 525.336
1293 0 57.2124 13.983 800 63.69 271.671 524.342
1294 0 58.0492 13.0579 758 64.595 272.458 524.492
1295 0 60.0961 14.8263 891 62.4478 271.559 521.651
1296 0 62.2287 14.6396 911 62.9857 272.326 521.529
1297 0 63.0778 13.5705 856 64.2033 271.602 520.266
1298 0 66.2923 13.0935 868 64.4171 272.225 519.801
1299 0 65.1064 13.931 907 64.3363 271.552 517.824
1300 0 67.0564 11.4232 766 66.6501 272.397 517.487
1301 0 74.1494 14.0662 1043 63.6788 271.64 514.315
1302 0 77.2013 13.6785 1056 64.1657 272.07 515.193
1303 0 78.1815 14.4535 1130 63.3513 272.407 515.683
1304 0 81.2281 14.5516 1182 63.9746 272.284 511.443
1305 0 83.1972 13.7745 1146 64.7312 272.168 512.708
1306 0 87.179 13.478 1175 65.2102 272.095 508.106
1307 0 94.2517 15.5223 1463 61.7334 272.538 512.552
1308 1 48.2184 12.5886 607 65.4695 272.273 529.41
1309 0 50.2574 11.9982 603 66.335 272.909 529.859
1310 0 49.167 12.7118 625 66.5328 272.926 529.262
1311 0 51.1825 12.9146 661 66.6672 272.814 526.731
1312 0 52.1038 12.7054 662 67.2764 272.852 527.014
1313 0 56.0461 15.2375 854 64.0656 272.474 524.47
1314 0 58.2146 13.8281 805 64.754 271.939 525.446
1315 0 59.1533 14.0651 832 64.9231 272.85 522.808
1316 0 62.2904 16.3749 1020 62.0127 272.463 523.711
1317 0 62.0939 13.689 850 65.3824 272.012 521.74
1318 0 66.0506 13.3383 881 65.504 272.395 520.459
1319 0 68.0979 14.0827 959 64.5391 272.543 520.96
1320 0 69.151 12.1184 838 67.9391 271.724 517.742
1321 0 75.1771 15.3238 1152 63.3811 272.634 517.92
1322 0 77.3339 15.4783 1197 63.3868 272.076 517.518
1323 0 77.2091 14.6097 1128 65.7837 272.115 517.517
1324 0 80.134 13.8268 1108 67.3213 271.634 513.687
1325 0 82.3193 15.452 1272 65.1242 272.121 513.682
1326 0 87.2034 14.9077 1300 65.8008 271.227 510.819
1327 0 91.2845 16.1802 1477 63.8382 272.19 510.781
1328 0 93.6037 15.2131 1424 65.0695 272.027 508.975
1329 0 93.2649 13.7887 1286 67.5435 271.697 507.53
1330 0 99.0792 14.0696 1394 66.7425 271.719 507.674
1331 1 52.2589 14.0263 733 66.5362 271.535 529.626
1332 0 54.2488 13.2906 721 67.5201 271.713 528.92
1333 0 54.468 12.411 676 69.0281 272.293 527.722
1334 0 54.0975 14.0117 758 68.4749 272.637 525.799
1335 0 59.1192 13.1091 775 68.5652 271.914 526.423
1336 0 60.1561 12.9829 781 69.3534 271.828 524.467
1337 0 64.2335 14.1359 908 67.2885 271.077 524.142
1338 0 64.1933 14.1915 911 67.5982 271.656 523.271
1339 0 66.3362 15.5722 1033 65.4192 271.741 524.366
1340 0 69.1283 13.786 953 67.4197 271.682 522.027
1341 0 70.1907 13.3351 936 68.6442 271.732 520.587
1342 0 70.3418 13.605 957 69.2309 271.79 517.66
1343 0 76.5459 14.7624 1130 66.3504 271.538 519.394
1344 0 76.2954 14.1555 1080 67.538 271.715 517.799
1345 0 82.2426 13.9709 1149 67.6832 272.141 517.308
1346 0 82.539 13.1817 1088 69.5147 271.963 514.156
1347 0 85.1592 15.242 1298 66.6587 271.582 511.003
1348 0 89.303 14.266 1274 68.0377 272.104 510.798
1349 1 44.1489 11.1215 491 70.7597 272.23 531.346
1350 0 47.2077 13.8749 655 66.4351 272.304 532.763
1351 0 46.3447 12.6228 585 69.0154 271.484 532.108
1352 0 50.2626 14.0661 707 66.9562 271.648 530.191
1353 0 51.1987 12.2464 627 68.0558 271.534 531.813
1354 0 51.2638 14.0645 721 66.5617 271.725 530.917
1355 0 54.0991 14.5474 787 66.5959 271.597 527.179
1356 0 55.1549 13.4893 744 68.4301 272.109 526.81
1357 0 57.2544 13.9553 799 67.3317 271.879 526.771
1358 0 59.1124 13.5335 800 67.7975 272.612 525.444
1359 0 62.3694 13.0673 815 67.4859 272.303 526.787
1360 0 65.54 14.6018 957 64.8861 272.245 525.732
1361 0 66.2171 15.268 1011 65.5618 272.286 522.37
1362 0 65.0957 14.0562 915 67.7169 271.636 519.783
1363 0 69.2698 12.9205 895 67.8123 272.355 521.185
1364 0 71.5135 13.3681 956 67.5199 271.928 520.266
1365 0 76.2711 14.0682 1073 65.959 272.635 519.638
1366 0 77.3524 14.4404 1117 64.7663 271.882 521.136
1367 0 77.4056 12.596 975 67.7036 272.224 519.881
1368 0 80.3018 12.7519 1024 68.752 272.324 515.1
1369 0 84.1751 13.0561 1099 67.9409 272.315 515.745
1370 0 83.5275 12.5827 1051 69.9886 272.569 512.637
1371 0 89.478 14.6963 1315 66.6213 272.597 510.844
1372 0 91.2356 12.4184 1133 69.3283 272.191 510.973
1373 1 49.2699 14.2684 703 65.6159 272.031 531.952
1374 0 48.2659 13.0734 631 67.9604 272.173 530.25
1375 0 48.1683 11.2937 544 70.9044 271.822 529.244
1376 0 54.4135 14.2796 777 65.731 271.346 529.708
1377 0 55.2133 13.7829 761 66.4139 272.536 528.664
1378 0 56.643 13.6116 771 66.6472 272.593 529.861
1379 0 53.1342 12.1767 647 70.2427 272.532 526.924
1380 0 58.1064 13.0795 760 67.9618 272.364 528.667
1381 0 63.1287 13.0844 826 67.1477 272.403 527.872
1382 0 66.1633 15.5071 1026 64.1881 272.016 525.766
1383 0 66.4031 13.3578 887 66.2988 272.169 526.006
1384 0 68.3654 15.2563 1043 65.5283 271.988 522.074
1385 0 72.3965 15.0422 1089 64.0826 272.15 525.532
1386 0 72.3821 15.8879 1150 64.6009 272.164 519.923
1387 0 74.2197 13.1906 979 67.7702 272.276 520.64
1388 0 76.4198 12.8108 979 67.8264 272.083 519.817
1389 0 78.2104 14.6784 1148 66.8145 272.221 516.868
1390 0 81.4281 13.1895 1074 67.7821 272.121 518.939
1391 0 85.4141 12.9955 1110 68.5532 271.658 513.939
1392 0 87.3922 13.4795 1178 68.2258 271.497 515.626
1393 0 91.4645 13.1089 1199 68.6272 272.527 512.038
1394 0 91.5672 12.428 1138 70.3366 271.506 510.88
1395 0 95.3108 13.4088 1278 69.0141 272.275 509.144
1396 0 97.1565 12.4335 1208 70.5927 271.783 508.357
1397 0 102.458 14.2205 1457 67.8305 272.069 508.527
1398 0 105.338 14.6481 1543 67.337 272.322 505.653
1399 1 57.5822 11.9308 687 70.6594 271.344 528.687
1400 0 60.1976 12.2929 740 69.8068 271.828 529.035
1401 0 58.4669 14.179 829 69.199 272.311 528.393
1402 0 63.4068 12.9008 818 69.6956 271.917 528.59
1403 0 62.2375 13.5449 843 70.4116 271.458 525.584
1404 0 66.2686 13.898 921 67.9218 271.936 528.97
1405 0 63.0387 14.7211 928 69.695 271.86 524.05
1406 0 66.3793 14.161 940 69.2372 271.736 525.57
1407 0 68.1534 14.2473 971 70.9722 271.577 520.107
1408 0 72.3944 14.0066 1014 70.6371 272.014 522.062
1409 0 73.1491 14.3269 1048 69.8082 271.751 522.509
1410 0 75.1899 11.8766 893 73.4031 272.073 521.421
1411 0 78.2469 12.4733 976 72.791 271.98 520.492
1412 0 82.4859 13.6993 1130 71.0133 271.603 517.688
1413 0 83.2483 14.5829 1214 71.4992 271.452 514.497
1414 0 88.447 13.9745 1236 71.2225 270.849 513.03
1415 0 91.5886 13.5279 1239 71.3559 271.81 514.896
1416 0 92.2028 12.9063 1190 73.2017 272.668 513.193
1417 0 97.3634 13.6704 1331 71.7776 272.53 512.434
1418 0 100.103 13.2464 1326 73.3582 271.677 508.846
1419 1 45.1694 13.1726 595 71.7176 271.351 535.034
1420 0 45.0834 12.9538 584 72.7825 271.945 534.762
1421 0 47.0205 14.1002 663 73.3499 271.736 531.281
1422 0 48.0561 13.4842 648 73.3148 271.747 533.242
1423 0 52.1724 15.1996 793 70.4224 272.436 528.937
1424 0 54.1956 13.9864 758 71.872 272.336 530.41
1425 0 56.0945 14.2082 797 72.4881 272.198 528.511
1426 0 57.1476 14.4713 827 71.9637 271.68 528.382
1427 0 57.1623 13.068 747 74.7229 272.332 528.576
1428 0 61.3912 15.9143 977 69.9754 271.841 528.374
1429 0 60.1731 13.2618 798 74.7581 271.996 525.927
1430 0 62.0675 13.6787 849 74.0342 271.955 524.278
1431 0 66.2931 15.9292 1056 69.9062 272.201 525.506
1432 0 68.0684 14.1181 961 72.9188 272.113 524.305
1433 0 70.1636 13.6966 961 73.0458 271.787 524.427
1434 0 73.1561 13.6967 1002 73.9521 272.163 517.563
1435 0 75.2242 14.5299 1093 72.4236 271.719 518.959
1436 0 82.1954 15.0373 1236 69.9409 272.203 520.026
1437 0 79.2291 14.7799 1171 71.6985 271.579 518.266
1438 0 81.311 13.762 1119 73.3396 271.727 516.131
1439 0 87.2875 15.3401 1339 69.7707 271.642 516.843
1440 0 89.2001 14.6749 1309 71.1429 271.12 513.798
1441 0 91.231 14.0632 1283 72.1146 271.346 513.262
1442 0 95.1694 14.1642 1348 71.2337 271.513 513.892
1443 0 99.192 14.4568 1434 71.1381 271.365 508.974
1444 0 100.171 13.6865 1371 72.8009 271.375 506.262
1445 1 48.2058 13.3594 644 73 271.317 532.481
1446 0 50.0982 12.6152 632 73.3734 271.174 533.005
1447 0 51.1688 14.2665 730 71.7822 271.105 531.045
1448 0 54.3347 13.4537 731 72.606 271.618 530.78
1449 0 53.2782 13.3263 710 73.4366 271.356 529.638
1450 0 54.0881 13.2931 719 74.5174 271.949 528.682
1451 0 58.2461 12.9794 756 73.9828 272.192 529.552
1452 0 60.3694 14.9248 901 72.02 271.676 527.653
1453 0 62.406 13.7327 857 73.3186 271.628 527.529
1454 0 64.1668 14.3688 922 71.756 272.013 526.607
1455 0 63.2229 14.6466 926 73.3024 272.189 522.437
1456 0 68.5108 14.6108 1001 71.6793 272.108 524.278
1457 0 71.5259 14.0508 1005 72.0796 272.172 523.25
1458 0 73.0816 14.6685 1072 71.6427 271.634 521.05
1459 0 77.1421 15.1409 1168 70.4443 271.912 519.365
1460 0 78.1922 14.2981 1118 71.7048 272.667 519.311
1461 0 81.4641 14.4358 1176 71.4277 272.095 516.84
1462 0 84.0758 13.8446 1164 71.7569 272.525 516.558
1463 0 87.109 14.9698 1304 70.4095 272.355 515.183
1464 0 90.5659 15.7123 1423 68.4947 271.921 515.467
1465 0 95.2991 15.1103 1440 68.8208 271.842 514.138
1466 0 95.1637 13.1458 1251 71.9161 271.612 506.186
1467 0 102.349 16.1898 1657 66.7085 272.117 508.998
1468 1 50.5929 12.3337 624 71.4984 271.718 532.221
1469 0 49.1483 12.1673 598 71.8997 271.365 531.381
1470 0 52.25 13.6842 715 69.9916 271.789 530.045
1471 0 54.2344 12.9807 704 71.2699 272.145 528.717
1472 0 54.1698 12.9408 701 70.7789 272.175 531.056
1473 0 57.2721 14.7192 843 68.4947 271.597 529.26
1474 0 59.3035 14.0633 834 69.4628 271.996 528.295
1475 0 60.4613 13.612 823 70.1446 272.386 528.089
1476 0 63.0677 14.9522 943 68.4963 271.986 526.807
1477 0 64.3813 14.1811 913 70.0635 272.198 524.921
1478 0 69.3065 15.0635 1044 67.8056 271.986 521.734
1479 0 70.3619 15.3066 1077 67.8561 272.224 521.438
1480 0 74.4529 15.2445 1135 67.8194 271.909 521.194
1481 0 73.248 13.3382 977 70.7288 271.586 519.803
1482 0 77.1486 14.9711 1155 68.297 271.896 521.45
1483 0 79.1355 15.6061 1235 66.8211 271.437 521.898
1484 0 81.0642 15.2718 1238 69.0388 271.644 516.299
1485 0 83.1573 14.3102 1190 69.4429 271.724 517.639
1486 0 87.3968 15.012 1312 68.6288 271.006 514.279
1487 0 90.4344 14.0323 1269 69.7888 271.994 515.394
1488 0 94.3552 14.2334 1343 68.9643 271.669 515.02
1489 0 97.5087 13.8347 1349 69.8792 271.672 510.666
1490 0 100.873 15.8219 1596 67.1811 271.261 507.784
1491 0 102.26 15.0695 1541 67.9786 271.641 510.562
1492 0 106.165 14.9014 1582 68.4046 270.75 506.726
1493 1 56.19 13.8637 779 67.846 271.386 531.854
1494 0 57.2094 14.5081 830 67.4771 271.055 532.051
1495 0 58.2108 14.1726 825 69.1539 271.805 529.789
1496 0 58.2159 13.0377 759 71.6324 271.473 527.543
1497 0 62.1281 15.4198 958 67.9645 271.469 528.79
1498 0 64.5608 14.5599 940 69.3181 271.778 526.87
1499 0 67.3062 15.8232 1065 68.1023 271.577 525.208
1500 0 67.2719 14.9542 1006 68.9304 271.394 527.543
1501 0 69.3846 15.6951 1089 69.3049 271.394 522.487
1502 0 71.52 16.1493 1155 69.0104 272.014 522.709
1503 0 72.1548 14.3164 1033 72.272 271.524 520.182
1504 0 74.1191 13.2085 979 73.7314 271.795 519.834
1505 0 78.3576 14.5104 1137 71.4213 271.337 520.259
1506 0 80.0637 14.2387 1140 72.7079 271.804 518.353
1507 0 84.3879 17.384 1467 67.9121 272.177 516.44
1508 0 86.3251 14.8624 1283 72.1512 271.458 516.065
1509 0 89.0784 15.8175 1409 71.1178 271.596 514.033
1510 0 92.6644 15.4428 1431 71.7952 271.664 510.454
1511 0 96.2454 16.1462 1554 70.7265 271.746 511.822
1512 0 99.1165 15.6483 1551 71.2766 271.478 510.605
1513 0 100.482 14.4702 1454 73.6802 271.748 507.21
1514 0 105.36 15.4329 1626 72.19 271.528 506.578
1515 0 107.27 15.2885 1640 73.0732 270.92 504.998
1516 0 111.27 14.631 1628 73.793 272.115 502.979
1517 1 55.1229 16.2727 897 71.7157 271.608 530.949
1518 0 53.1708 12.8266 682 78.0718 271.129 528.63
1519 0 60.5332 14.967 906 74.0199 271.37 528.479
1520 0 60.0954 14.2607 857 75.9685 271.428 526.42
1521 0 60.3808 15.0379 908 76.6465 271.335 524.539
1522 0 61.2657 14.6412 897 77.4025 271.824 526.08
1523 0 65.2198 15.0568 982 76.5 271.545 524.182
1524 0 69.3603 15.9169 1104 75.1141 271.53 524.133
1525 0 71.2879 15.3883 1097 75.804 271.477 523.792
1526 0 73.1234 14.9884 1096 76.3723 271.324 522.289
1527 0 74.5585 13.7476 1025 78.6185 271.228 523.636
1528 0 76.1366 15.5247 1182 76.0008 271.272 521.05
1529 0 80.2596 16.1725 1298 74.5894 271.052 520.334
1530 0 81.1854 14.5839 1184 78.2821 271.376 516.38
1531 0 84.3627 14.8762 1255 77.3546 271.706 516.441
1532 0 85.3349 14.0388 1198 79.3038 271.61 515.848
1533 0 90.3386 15.464 1397 76.4223 271.613 513.431
1534 0 94.9022 16.2588 1543 74.1011 271.347 514.143
1535 0 95.398 15.4196 1471 76.2814 270.969 511.052
1536 0 97.4214 13.7341 1338 79.4978 271.488 509.699
1537 1 43.1356 12.2405 528 80.9015 271.328 534.636
1538 0 47.1417 13.7034 646 77.356 271.025 535.432
1539 0 47.2232 14.1879 670 78.1433 271.158 535.103
1540 0 50.5197 15.4791 782 76.3836 270.513 532.61
1541 0 49.286 13.168 649 81.0924 270.59 531.854
1542 0 52.4206 13.964 732 79.0178 270.5 531.958
1543 0 51.4587 13.2339 681 82.2907 271.106 529.416
1544 0 54.28 13.9831 759 79.2292 271.478 531.863
1545 0 55.3915 15.255 845 77.7657 270.949 528.523
1546 0 58.4054 15.341 896 77.2757 271.29 529.258
1547 0 58.3462 16.2993 951 77.8118 271.241 526.429
1548 0 58.3717 15.1443 884 79.1448 270.843 526.048
1549 0 64.5328 16.8596 1088 75.1645 271.594 525.577
1550 0 65.4061 14.9833 980 78.6327 271.417 523.722
1551 0 66.5461 16.4998 1098 76.4654 271.228 524.024
1552 0 70.4918 15.8742 1119 76.8293 271.498 522.073
1553 0 69.2614 14.3659 995 80.5266 270.955 520.86
1554 0 74.1953 15.6614 1162 76.5534 270.948 521.615
1555 0 75.3891 15.745 1187 77.1137 271.024 521.364
1556 0 76.1813 14.5705 1110 79.4252 271.138 519.922
1557 0 78.4293 13.5281 1061 80.508 271.191 518.73
1558 0 82.2829 15.3859 1266 77.049 271.25 517.975
1559 0 82.2959 14.861 1223 78.7179 270.88 516.803
1560 0 87.7048 14.3094 1255 79.1514 271.074 513.961
1561 0 88.3713 14.4164 1274 79.1319 271.583 515.15
1562 0 91.3295 14.9897 1369 78.5997 270.677 509.762
1563 0 95.3366 15.1883 1448 77.9088 270.925 509.825
1564 1 44.6516 14.4452 645 78.5178 270.622 532.293
1565 0 46.1435 12.7429 588 81.8367 271.405 530.983
1566 0 49.5532 15.216 754 76.382 271.324 531.968
1567 0 50.5067 15.1465 765 76.9686 271.099 530.957
1568 0 50.2803 14.6181 735 78.1918 270.948 531.064
1569 0 52.2192 13.7689 719 79.8248 271.612 529.382
1570 0 51.1596 11.8257 605 83.076 271.003 529.683
1571 0 54.1141 14.9869 811 78.7941 271.063 528.94
1572 0 56.4352 14.2464 804 78.9614 271.333 528.873
1573 0 55.4853 14.6165 811 79.3107 271.266 528.195
1574 0 58.0723 15.5496 903 77.5626 271.146 526.878
1575 0 62.2383 14.9104 928 78.2985 271.556 526.108
1576 0 61.3243 16.1274 989 77.815 271.044 524.96
1577 0 64.186 15.1591 973 78.8458 271.175 523.665
1578 0 66.2881 15.4326 1023 78.4321 271.06 524.954
1579 0 67.3179 14.6172 984 80.2327 271.376 522.198
1580 0 69.4335 14.8631 1032 79.781 271.277 520.795
1581 0 73.2468 16.1099 1180 76.8364 271.226 521.846
1582 0 73.3042 14.242 1044 79.7816 271.233 522.08
1583 0 76.3376 15.759 1203 77.739 271.061 517.764
1584 0 78.3133 14.1866 1111 79.4464 271.451 518.302
1585 0 82.3021 14.5804 1200 78.5092 271.988 518.099
1586 0 85.2657 13.9681 1191 78.2284 271.264 517.245
1587 0 86.4709 14.6061 1263 78.673 270.931 512.98
1588 0 89.3713 14.7027 1314 78.5297 270.614 510.757
1589 0 94.4338 17.875 1688 58.9336 270.285 513.386
1590 0 96.2807 15.5794 1500 76.996 270.907 510.459
1591 0 97.3426 13.17 1282 80.8822 271.037 508.505
1592 1 47.309 14.6061 691 77.767 270.942 531.524
1593 0 47.3404 13.6247 645 80.6775 270.909 530.845
1594 0 48.1835 13.6354 657 82.6591 270.209 528.038
1595 0 50.3616 12.0528 607 84.4399 269.633 527.727
1596 0 54.2958 15.0104 815 78.7975 270.064 528.467
1597 0 54.3618 14.4587 786 80.4987 270.277 528.022
1598 0 56.1427 14.9441 839 79.0215 269.951 529.26
1599 0 57.5614 13.8634 798 81.8008 270.031 526.808
1600 0 59.2279 14.2332 843 82.4093 270.714 524.592
1601 0 60.4681 13.5774 821 83.8465 271.088 525.083
1602 0 61.1731 15.2355 932 81.3777 270.446 525.251
1603 0 65.3698 14.548 951 81.0736 270.709 526.082
1604 0 65.2808 14.1083 921 83.0195 271.042 523.252
1605 0 67.614 13.9764 945 83 271.063 524.726
1606 0 70.4974 14.0573 991 83.1362 270.649 521.716
1607 0 73.3802 13.3687 981 84.2171 270.61 521.201
1608 0 77.3628 13.6758 1058 82.8696 270.638 520.337
1609 0 78.388 14.5686 1142 81.4054 270.874 519.254
1610 0 80.537 14.5026 1168 81.6678 270.772 516.444
1611 0 81.6363 13.1804 1076 83.7853 271.185 514.585
1612 0 84.3889 13.8525 1169 82.9675 270.858 512.259
1613 0 88.5168 13.8279 1224 82.402 270.432 512.027
1614 0 92.5802 15.1544 1403 79.1354 271.44 510.756
1615 0 95.661 15.649 1497 78.1737 270.836 509.013
1616 1 45.2203 13.2684 600 83.325 270.673 530.813
1617 0 44.1871 12.515 553 85.4467 271.248 530.112
1618 0 48.3739 13.6024 658 82.6337 271.426 529.856
1619 0 49.1303 13.2912 653 83.9188 271.248 528.953
1620 0 50.5995 13.676 692 82.4682 271.329 529.033
1621 0 53.3676 14.4657 772 80.6321 271.501 527.791
1622 0 55.217 14.1261 780 82.1013 270.986 527.653
1623 0 55.2138 14.4891 800 82.2312 271.17 528.446
1624 0 58.4977 14.1373 827 82.2285 271.438 527.491
1625 0 60.3658 14.8428 896 81.3158 271.693 527.162
1626 0 62.4865 14.4191 901 81.4972 271.344 526.326
1627 0 64.524 15.9786 1031 79.6634 271.121 523.032
1628 0 66.3081 15.5637 1032 81.0078 271.246 521.096
1629 0 69.3558 14.577 1011 81.8971 270.838 521.879
1630 0 72.4464 15.1974 1101 80.4659 271.081 521.964
1631 0 74.477 16.354 1218 78.4754 270.479 519.837
1632 0 76.4579 16.2181 1240 78.7435 270.894 517.762
1633 0 78.386 15.4492 1211 79.9595 271.561 517.031
1634 0 82.4118 15.4711 1275 79.2604 271.146 517.997
1635 0 85.1849 15.6718 1335 78.8427 271.45 515.5
1636 0 84.256 15.0256 1266 80.9289 271.261 514.926
1637 0 89.2695 15.4364 1378 79.6074 271.591 513.43
1638 0 93.3903 15.9224 1487 78.3329 271.854 511.028
1639 0 94.4402 15.1313 1429 80.119 271.358 510.188
1640 0 96.6262 14.4888 1400 81.215 271.641 507.988
1641 0 100.41 14.8691 1493 78.4648 271.528 509.347
1642 0 106.381 16.0367 1706 77.0879 271.403 506.979
1643 1 55.186 14.6233 807 80.3259 271.134 528.784
1644 0 57.1326 15.1752 867 78.9965 271.609 527.554
1645 0 58.3023 15.7798 920 79.0348 271.411 525.493
1646 0 58.5539 14.4994 849 81.6596 270.819 523.913
1647 0 61.2291 14.6009 894 81.0872 271.686 524.847
1648 0 65.4441 15.4177 1009 78.5114 271.435 523.832
1649 0 65.4772 14.3561 940 80.8191 271.476 523.709
1650 0 68.5327 15.7735 1081 77.7095 271.586 522.586
1651 0 69.4591 15.1312 1051 79.1208 271.52 522.055
1652 0 71.4242 14.6869 1049 80.0419 270.889 520.949
1653 0 75.3566 16.2162 1222 77.2381 270.563 521.125
1654 0 77.2651 14.5085 1121 79.099 271.335 520.352
1655 0 79.4672 15.5284 1234 77.594 271.497 519.356
1656 0 81.4267 16.2723 1325 76.1472 271.386 518.606
1657 0 85.4697 14.0284 1199 79.3578 271.746 516.57
1658 0 87.5261 15.1155 1323 77.3046 271.302 514.963
1659 0 88.921 15.1933 1351 77.2176 271.169 511.229
1660 0 92.9484 15.6861 1458 75.9774 271.107 512.227
1661 0 96.4865 16.6966 1611 73.4103 271.228 508.588
1662 0 98.5695 14.68 1447 76.414 271.192 507.706
1663 0 102.751 15.9512 1639 74.1733 271.496 505.943
1664 0 106.57 14.6571 1562 76.1332 271.184 505.555
1665 0 111.719 15.002 1676 74.6647 270.796 504.569
1666 0 114.631 16.2521 1863 73.1004 271.1 502.643
1667 0 117.606 15.926 1873 73.6295 270.959 500.53
1668 0 122.673 15.3987 1889 74.0588 270.981 500.441
1669 0 125.69 15.2439 1916 73.9802 270.849 496.993
1670 0 128.74 13.9506 1796 76.5045 271.229 493.532
1671 0 132.56 13.7825 1827 76.7017 270.739 489.799
1672 0 139.568 15.0106 2095 73.8115 271.371 487.763
1673 0 140.836 13.4341 1892 76.7738 271.439 486.262
1674 0 148.756 16.2414 2416 72.2086 271.74 486.199
1675 0 152.043 14.2723 2170 75.1447 271.599 486.725
1676 0 156.544 13.8108 2162 76.1772 271.312 481.156
1677 0 163.393 16.1941 2646 72.7007 271.429 479.192
1678 0 169.601 16.7923 2848 71.4473 270.8 473.542
1679 0 174.69 16.7267 2922 71.7721 270.649 471.313
1680 0 182.637 15.4186 2816 72.8874 270.89 473.198
1681 0 186.821 14.6558 2738 74.1333 271.465 468.073
1682 0 193.691 15.3027 2964 73.2072 271.084 466.208
1683 0 197.736 13.5585 2681 75.5942 271.861 464.006
1684 0 205.718 14.1359 2908 75.3119 271.213 459.807
1685 0 212.72 14.277 3037 74.9111 271.458 457.926
1686 1 157.557 13.5126 2129 77.4086 271.23 484.907
1687 0 165.688 14.135 2342 76.6734 271.182 484.811
1688 0 168.55 14.6663 2472 76.4648 270.917 477.962
1689 0 175.643 14.5807 2561 76.8192 270.669 473.887
1690 0 180.699 14.0953 2547 77.9069 271.548 471.06
1691 1 55.5094 14.0517 780 79.8526 271.222 526.458
1692 0 58.4225 14.6861 858 78.5385 271.268 527.718
1693 0 60.6237 14.2354 863 79.3975 271.753 526.958
1694 0 61.3624 14.9603 918 79.5752 271.255 525.749
1695 0 62.5138 14.4448 903 80.9391 270.671 524.435
1696 0 65.453 15.8893 1040 78.0173 271.127 524.586
1697 0 66.4239 15.5817 1035 79.1014 270.92 525.116
1698 0 69.5343 16.3516 1137 77.7863 271.68 525.071
1699 0 69.5056 16.5454 1150 78.0713 271.521 523.41
1700 0 73.5231 16.7158 1229 77.8991 271.369 521.215
1701 0 74.2805 16.882 1254 77.6922 271.415 521.607
1702 0 77.5147 16.6033 1287 78.2323 270.941 518.273
1703 0 81.4528 16.795 1368 76.5548 270.976 519.246
1704 0 86.5659 13.3193 1153 80.9219 270.644 519.521
1705 0 85.6888 14.7277 1262 80.1292 270.816 514.451
1706 0 87.616 15.0087 1315 80.1103 271.075 512.892
1707 0 89.5835 14.679 1315 80.0806 270.774 513.424
1708 0 93.7582 15.124 1418 79.0261 271.07 510.248
1709 0 96.7848 14.9817 1450 78.4745 270.854 510.034
1710 0 100.738 14.2647 1437 78.929 270.594 508.753
1711 0 104.632 15.5785 1630 77.3061 271.297 505.897
1712 0 108.616 14.7769 1605 78.0305 270.595 505.917
1713 1 46.3544 13.8067 640 76.6641 270.759 533.52
1714 0 47.4024 12.2146 579 80.0518 271.173 532.85
1715 0 49.362 14.343 708 77.7246 271.415 530.425
1716 0 49.4353 13.2699 656 80.1707 271.748 530.829
1717 0 50.6523 13.9184 705 79.9475 270.823 531.044
1718 0 51.4544 13.8181 711 80.9677 270.83 529.037
1719 0 52.4768 14.5016 761 79.9028 271.121 528.244
1720 0 56.4595 14.3997 813 79.2448 270.943 527.587
1721 0 58.4565 16.2856 952 75.5536 271.181 529.133
1722 0 58.5143 15.0732 882 78.0726 271.289 527.768
1723 0 58.6956 14.0896 827 81.1572 270.961 525.47
1724 0 61.4487 15.7367 967 77.7032 270.479 526.953
1725 0 62.6187 14.5963 914 79.326 270.979 527.422
1726 0 65.4967 16.3214 1069 76.5295 271.058 525.368
1727 0 66.3604 15.8528 1052 78.7662 270.831 525.084
1728 0 69.6763 15.3424 1069 78.6473 270.555 523.579
1729 0 70.5562 15.6613 1105 78.8462 271.059 523.16
1730 0 71.5383 14.5097 1038 80.2418 270.486 522.218
1731 0 75.4207 15.1683 1144 78.5341 271.178 521.229
1732 0 74.4568 16.2779 1212 77.8845 271.035 518.743
1733 0 79.5845 15.0406 1197 77.4578 270.521 520.102
1734 0 80.4349 16.3238 1313 76.329 270.928 516.672
1735 0 82.2167 15.3862 1265 77.7486 271.112 516.043
1736 0 86.169 14.4484 1245 78.739 270.559 514.085
1737 0 86.1984 14.3506 1237 78.5044 270.812 514.272
1738 0 88.2319 14.4392 1274 78.7339 270.604 511.525
1739 0 88.2411 13.4858 1190 80.5622 270.99 508.598
1740 0 95.1814 14.257 1357 78.3088 271.214 510.037
1741 0 99.4093 13.9021 1382 78.9146 271.103 508.191
1742 0 101.234 13.5923 1376 78.9455 271.033 507.096
1743 0 105.211 12.4417 1309 80.0619 271.079 505.506
1744 0 109.558 15.161 1661 75.7225 271.284 504.571
1745 1 51.1753 16.7073 855 75.5719 270.895 526.442
1746 0 56.2585 14.3978 810 76.9728 270.888 526.735
1747 0 61.2911 14.5861 894 75.2293 270.668 526.798
1748 0 60.4919 14.4647 875 75.936 270.729 526.59
1749 0 62.5154 14.2365 890 76.8247 270.958 523.119
1750 0 65.3155 14.162 925 76.1805 270.697 524.506
1751 0 69.175 13.7766 953 75.8604 271.033 525.234
1752 0 68.3229 13.8899 949 76.9568 271.056 523.788
1753 0 70.8026 14.5051 1027 76.1899 270.981 521.965
1754 0 74.4944 13.4104 999 76.8639 270.669 522.881
1755 0 75.5931 14.2341 1076 76.6775 270.576 519.581
1756 0 75.6127 13.1327 993 79.4028 271.047 516.004
1757 0 79.2428 14.0202 1111 77.8695 270.987 513.896
1758 0 81.47 14.9626 1219 76.1395 270.683 517.29
1759 0 84.388 13.0706 1103 78.6174 271.002 514.745
1760 0 87.5351 15.4566 1353 74.2779 270.075 515.682
1761 0 90.6837 14.4238 1308 76.3142 270.078 513.729
1762 0 93.5779 13.999 1310 76.6237 270.673 511.515
1763 0 95.7196 15.023 1438 75.201 271.046 510.13
1764 0 98.6185 14.5612 1436 76.0481 270.791 510.95
1765 0 102.589 15.2454 1564 74.7257 271.099 508.708
1766 0 102.592 14.6016 1498 77.0587 270.999 504.21
1767 0 105.587 13.8654 1464 77.7828 270.878 505.057
1768 0 108.653 13.2071 1435 78.216 270.385 502.56
1769 1 51.512 12.3855 638 79.9796 270.785 527.928
1770 0 55.3704 13.509 748 77.611 271.328 527.384
1771 0 58.4389 12.9708 758 77.5844 270.954 527.645
1772 0 61.4781 14.8671 914 74.5142 270.659 529.01
1773 0 63.5093 15.0844 958 74.453 270.913 527.918
1774 0 61.3375 15.6674 961 75.718 270.856 525.606
1775 0 64.9421 14.5514 945 76.6349 270.857 524.354
1776 0 64.5252 13.4056 865 78.5364 270.055 525.387
1777 0 69.5566 15.2394 1060 75.0632 270.127 523.844
1778 0 70.3492 15.9916 1125 74.5627 270.53 523.729
1779 0 72.5169 14.1622 1027 77.9231 270.441 521.49
1780 0 72.3466 14.7485 1067 77.0309 270.107 519.458
1781 0 75.3353 14.9996 1130 75.631 270.897 521.09
1782 0 77.4867 14.0411 1088 76.7316 271.172 520.166
1783 0 81.3262 14.7677 1201 75.4788 271.191 518.165
1784 0 79.3977 13.7661 1093 78.2589 271.086 514.519
1785 0 85.4484 15.2256 1301 75.8693 270.915 512.221
1786 0 87.4185 14.4363 1262 76.5634 270.803 513.793
1787 0 90.4024 15.1766 1372 75.2638 271.084 513.649
1788 0 92.4203 14.5098 1341 75.5779 270.677 509.887
1789 0 97.4743 14.7526 1438 75.4047 270.616 507.85
1790 0 99.495 15.4279 1535 74.7954 270.707 504.54
1791 1 48.5652 12.8693 625 77.8208 271.251 530.416
1792 0 50.5753 12.9312 654 77.9419 271.078 530.682
1793 0 48.3021 12.5667 607 80.7875 271.166 528.621
1794 0 52.323 14.2576 746 76.8941 271.694 531.327
1795 0 54.3594 13.9258 757 78.6777 270.723 527.777
1796 0 55.3838 14.7697 818 77.7714 270.441 526.057
1797 0 56.6538 15.2858 866 77.0416 271.402 528.418
1798 0 58.4334 13.8619 810 78.9519 271.175 527.92
1799 0 61.3072 14.5008 889 78.9741 270.9 525.172
1800 0 63.4203 15.3736 975 77.8954 270.673 525.404
1801 0 63.2762 14.6817 929 80.3821 271.147 524.576
1802 0 66.2753 14.817 982 80.0285 270.848 524.241
1803 0 66.4413 14.193 943 81.4008 271.151 524.003
1804 0 71.3777 14.3042 1021 80.9902 270.792 521.032
1805 0 72.3753 15.2262 1102 79.6797 270.818 521.412
1806 0 73.2868 15.3507 1125 80.6302 270.809 519.188
1807 0 76.3621 15.9503 1218 79.055 270.925 518.9
1808 0 81.453 16.132 1314 77.2998 271.059 517.784
1809 0 82.3839 16.1318 1329 77.2318 271.336 517.434
1810 0 85.537 14.3447 1227 80.2771 271.046 515.471
1811 0 87.5403 16.1983 1418 76.9083 270.877 515.549
1812 0 91.3392 15.4698 1413 78.0078 270.695 511.979
1813 0 93.4325 15.8724 1483 77.2859 270.492 512.486
1814 0 94.4126 13.8647 1309 80.4966 271.044 510.172
1815 0 96.33 13.8171 1331 80.6679 270.006 509.397
1816 0 101.439 15.5462 1577 77.9873 270.108 505.913
1817 0 105.301 15.1091 1591 78.4023 270.219 505.379
1818 0 108.3 14.8661 1610 78.2571 270.219 503.842
1819 1 54.5353 15.4579 843 76.9371 271.195 527.636
1820 0 55.371 14.5202 804 78.4353 270.182 528.738
1821 0 55.2938 14.7756 817 78.8127 270.424 527.332
1822 0 60.2308 14.5275 875 78.12 270.654 526.473
1823 0 60.2431 15.5537 937 77.1622 270.223 525.017
1824 0 60.3173 13.6611 824 80.1529 270.391 525.922
1825 0 62.5705 13.8724 868 80.2949 270.392 525.032
1826 0 64.461 14.1946 915 79.8787 270.507 522.754
1827 0 64.2794 15.2615 981 78.6371 270.717 522.287
1828 0 66.4083 16.0221 1064 77.6945 270.326 521.167
1829 0 69.2803 14.8527 1029 79.7221 270.144 518.914
1830 0 69.5102 13.739 955 81.8387 269.576 518.325
1831 0 71.6397 15.9269 1141 78.2612 269.935 516.8
1832 0 75.5195 14.8306 1120 78.5884 270.123 520.454
1833 0 74.3968 16.1297 1200 77.4633 270.303 518
1834 0 76.4337 14.4701 1106 80.4756 270.026 516.375
1835 0 80.4874 14.1264 1137 80.5427 269.485 513.181
1836 0 83.6717 16.3138 1365 76.5626 269.621 513.738
1837 0 87.3348 15.8929 1388 76.5893 270.2 514.264
1838 0 88.4205 15.3811 1360 78.6904 269.961 510.499
1839 0 91.432 15.4322 1411 77.7746 269.678 507.547
1840 0 92.398 14.102 1303 79.7045 269.784 508.54
1841 0 98.2943 16.2777 1600 75.5462 269.902 507.591
1842 0 101.554 16.4642 1672 74.8212 269.541 506.917
1843 0 103.249 15.0703 1556 77.0675 270.206 505.074
1844 0 107.87 15.769 1701 75.6526 270.42 501.819
1845 0 110.474 14.8089 1636 77.1797 270.263 502.34
1846 0 114.435 15.0741 1725 76.273 270.399 501.174
1847 0 115.551 14.5823 1685 77.8724 270.343 495.759
1848 0 123.67 15.703 1942 75.4001 269.738 495.994
1849 0 126.629 14.1437 1791 76.5265 270.422 499.235
1850 0 130.799 16.1775 2116 74.6777 269.439 493.293
1851 1 65.5837 14.5768 956 77.6506 269.829 523.659
1852 0 68.4452 15.18 1039 76.5419 270.237 523.976
1853 0 70.5589 13.8749 979 79.6384 269.491 521.462
1854 0 71.7797 14.5584 1045 78.3062 269.909 521.894
1855 0 71.4443 14.0109 1001 79.8591 270.508 520.527
1856 0 76.5004 14.0391 1074 79.6443 270.311 518.527
1857 0 73.34 14.426 1058 80.8705 269.941 517.732
1858 0 80.5082 15.8121 1273 77.2797 269.686 517.307
1859 0 80.2278 13.8107 1108 80.1697 270.671 517.097
1860 0 85.4481 16.9811 1451 75.2688 270.325 515.944
1861 0 83.2782 14.5536 1212 80.7682 270.426 512.583
1862 0 87.2156 13.3577 1165 82.6438 269.868 509.002
1863 0 91.3282 15.5264 1418 78.0085 270.094 511.382
1864 0 95.201 15.6721 1492 78.1213 270.405 508.77
1865 0 96.2704 15.0514 1449 79.3354 269.842 507.288
1866 0 98.7009 14.0222 1384 80.1142 270.46 508.062
1867 0 103.548 14.5923 1511 79.7478 270.098 504.622
1868 0 108.517 15.4078 1672 77.5347 269.37 505.164
1869 0 104.281 14.3746 1499 83.2422 269.8 500.34
1870 0 100.339 17.8295 1789 82.1889 269.717 504.893
1871 0 104.589 14.7147 1539 86.2982 270.034 506.031
1872 0 107.373 15.4321 1657 84.9252 270.209 502.077
1873 0 111.478 15.4918 1727 84.4702 270.247 501.448
1874 0 115.099 15.4302 1776 84.3378 270.21 499.65
1875 0 113.633 17.3189 1968 83.5757 269.532 499.88
1876 0 115.945 17.034 1975 85.3408 269.843 502.742
1877 0 115.478 15.2063 1756 90.0103 269.837 501.859
1878 0 118.578 16.5967 1968 87.8902 269.718 500.291
1879 0 120.632 15.568 1878 89.7449 269.446 498.176
1880 0 122.547 14.3374 1757 92.9511 270.087 494.36
