time division length width area intensity CMx CMy
0 0 55.09 12.2164 673 64.1055 731.496 518.701
1 0 56.0654 12.1644 682 63.4282 730.858 517.111
2 0 57.0302 12.432 709 63.2779 730.614 516.777
3 0 59.0288 13.0614 771 62.2075 730.674 517.288
4 0 60.0531 12.9386 777 62.4311 729.637 517.607
5 0 61.0727 13.9342 851 61.7062 729.953 516.609
6 0 62.0932 13.0288 809 63.3585 729.629 516.532
7 0 65.0554 12.6969 826 63.4855 728.824 517.076
8 0 66.1649 12.6049 834 64.1846 728.633 514.664
9 0 72.095 14.9109 1075 60.9628 729.677 515.258
10 0 71.0462 13.9768 993 63.136 728.926 512.919
11 0 73.0819 13.6696 999 63.6737 729.104 513.343
12 0 75.1624 14.941 1123 62.4782 729.148 512.928
13 1 38.0142 10.3646 394 67.0558 729.548 530.386
14 0 40.0989 10.6985 429 67.0093 728.515 530.814
15 0 41.0347 12.331 506 66.0573 729.617 529.51
16 0 44.0263 13.3329 587 65.1346 729.808 529.233
17 0 45.0246 13.2594 597 65.191 729.179 528.772
18 0 45.0416 11.7447 529 68.4688 730.157 527.59
19 0 45.0201 12.1057 545 68.3376 729.842 527.046
20 0 46.0207 11.8642 546 68.5861 729.357 526.879
21 0 51.0287 12.5812 642 66.5171 730.065 526.905
22 0 52.0642 12.1581 633 66.9731 729.784 526.311
23 0 51.0374 13.3236 680 66.9353 729.028 524.716
24 0 54.0222 12.9576 700 68.0029 729.72 522.3
25 0 54.0986 13.3275 721 68.2899 729.971 521.333
26 0 55.0589 12.4412 685 69.9299 729.191 520.91
27 0 59.0687 12.7987 756 69.2368 729.683 521.353
28 0 61.1175 14.4967 886 66.9018 729.544 520.596
29 0 63.1742 13.2966 840 69.7512 731.021 518.296
30 0 65.0601 12.3578 804 70.9104 729.415 518.526
31 0 64.0362 12.6179 808 71.0408 730.774 518.118
32 0 68.1071 13.9633 951 69.734 730.387 515.309
33 0 72.1492 14.276 1030 69.0845 730.128 516.032
34 0 71.1102 14.2877 1016 70.9183 730.775 512.148
35 0 76.1349 12.885 981 71.5851 731.062 512.876
36 0 78.1446 14.2684 1115 70.7767 731.201 510.162
37 1 40.0264 12.0171 481 71.8274 731.112 529.827
38 0 41.061 11.422 469 72.258 731.124 530.068
39 0 42.0154 13.5664 570 69.4842 731.3 529.051
40 0 44.0224 11.8576 522 71.6034 731.684 530.117
41 0 44.0497 11.9183 525 72.4629 731.316 528.404
42 0 45.0673 12.4259 560 72.6482 730.593 525.759
43 0 44.0215 11.4717 505 74.4416 730.335 525.636
44 0 47.0203 11.3568 534 73.3277 731.019 526.466
45 0 47.0148 12.7832 601 71.4509 730.884 525.908
46 0 50.0438 12.9287 647 71.949 731.097 524.09
47 0 52.0678 12.4453 648 72.1574 731.693 523.782
48 0 50.0653 12.1242 607 73.8204 731.585 523.822
49 0 54.0924 12.6635 685 73.2642 731.266 522.791
50 0 57.0123 12.1728 694 72.6182 731.537 522.87
51 0 58.0561 11.9195 692 73.1286 731.108 521.058
52 0 60.0441 13.64 819 71.0183 731.388 520.747
53 0 63.0569 14.0349 885 70.7096 731.137 519.166
54 0 64.0807 12.6403 810 73.6222 731.531 517.075
55 0 64.1263 12.7561 818 74.709 731.658 515.35
56 0 67.0973 13.7561 923 74.0531 731.26 514.185
57 0 70.066 14.3151 1003 72.9482 732.201 514.676
58 0 71.1239 11.248 800 78.1438 731.462 514.542
59 0 74.0727 12.6902 940 76.1255 731.296 513.236
60 0 77.1627 13.3614 1031 76.2493 731.466 510.77
61 0 79.0926 13.3767 1058 76.1389 731.556 510.627
62 1 42.0785 10.7418 452 78.0929 731.031 528.137
63 0 44.0591 11.53 508 77.4291 731.018 525.876
64 0 45.0326 12.0135 541 76.6044 731.558 526.285
65 0 49.0127 12.711 623 75.9454 731.801 523.727
66 0 46.03 11.8401 545 78.7376 731.908 524.266
67 0 51.0255 12.386 632 76.2563 731.361 523.65
68 0 52.0287 12.6277 657 77.0578 731.47 521.711
69 0 53.0506 11.4042 605 79.6231 731.494 521.354
70 0 55.0642 12.7851 704 76.0526 731.428 523.517
71 0 55.041 12.3181 678 77.6357 730.805 522.258
72 0 58.0522 12.3165 715 77.4657 730.88 520.573
73 0 60.0689 12.1194 728 77.0907 730.793 520.957
74 0 60.0405 12.2251 734 78.4932 731.462 517.845
75 0 63.1206 13.3237 841 76.5339 731.182 515.463
76 0 66.087 13.5125 893 75.3225 731.017 516.619
77 0 68.0832 12.896 878 75.9146 731.243 515.85
78 0 69.0478 13.2517 915 75.9137 731.544 513.236
79 0 73.0945 13.3526 976 75.3648 731.532 512.458
80 0 75.098 12.0776 907 77.2778 731.841 512.748
81 0 78.0564 11.6198 907 77.7905 731.714 512.706
82 0 79.1292 14.2425 1127 74.819 732.577 509.331
83 0 83.0579 12.088 1004 77.8496 731.787 508.702
84 1 43.025 11.993 516 75.3004 732.204 528.459
85 0 42.0492 10.5829 445 78.8225 732.236 526.762
86 0 46.0891 11.4344 527 77.019 731.924 525.271
87 0 47.0365 10.6088 499 77.3427 732.034 525.543
88 0 45.0197 11.1285 501 78.6228 732.511 522.986
89 0 49.0938 12.0178 590 75.2458 732.368 524.585
90 0 50.0619 10.8666 544 77.7739 732.583 524.022
91 0 52.1035 12.0913 630 75.6667 732.519 522.687
92 0 54.0304 11.2899 610 77.1262 732.936 520.518
93 0 54.0394 11.4176 617 77.1734 733.157 520.648
94 0 56.0698 11.45 642 76.6791 732.626 521.438
95 0 58.0875 13.4108 779 73.932 732.312 518.524
96 0 60.0553 12.4385 747 74.3106 732.576 519.621
97 0 61.0261 11.4869 701 76.4094 732.348 518.392
98 0 63.101 11.3469 716 76.345 732.053 518.468
99 0 64.0281 12.8381 822 74.1618 731.712 515.734
100 0 68.0537 13.2395 901 72.7037 732.071 515.371
101 0 71.0832 12.3517 878 74.3428 732.38 512.618
102 0 70.0572 11.9902 840 75.4952 732.414 512.708
103 0 73.0401 10.2683 750 76.936 732.452 512.363
104 0 75.1621 11.2291 844 76.1552 732.708 509.757
105 0 79.0634 12.3445 976 74.6609 732.287 506.712
106 0 83.117 13.2584 1102 72.412 732.24 507.149
107 1 44.0349 12.0586 531 72.2881 731.354 525.09
108 0 45.0784 12.09 545 72.255 731.895 523.321
109 0 44.0199 11.2449 495 74.2707 730.786 522.774
110 0 45.0161 10.5074 473 74.8901 731.56 523.679
111 0 47.0777 11.2367 529 73.949 731.25 522.301
112 0 49.0392 12.4798 612 71.567 731.234 521.83
113 0 51.0389 12.8921 658 71.5274 731.594 520.889
114 0 51.0491 13.7319 701 69.7732 731.806 521.274
115 0 53.0299 13.5584 719 70.2517 731.759 519.115
116 0 53.0816 11.8308 628 73.3264 731.717 518.834
117 0 55.0489 12.4435 685 72.2394 731.374 517.593
118 0 57.0507 11.814 674 72.5134 732.291 518.286
119 0 61.0333 12.8455 784 71.4235 732.316 516.353
120 0 60.0569 12.3882 744 72.4086 732.079 514.278
121 0 63.0547 12.9887 819 70.967 732.2 513.86
122 0 65.0524 12.8973 839 71.1836 732.316 513.984
123 0 65.0917 11.9677 779 72.5866 731.923 513.458
124 0 66.1074 11.9956 793 73.0618 731.392 512.506
125 0 70.0747 13.4856 945 70.6275 731.583 509.994
126 0 72.0556 13.101 944 71.5572 731.557 507
127 0 74.0641 13.1643 975 71.3487 731.871 506.309
128 0 76.087 12.052 917 72.8855 732.27 508.177
129 0 79.0448 12.0944 956 73.1538 731.951 506.366
130 0 81.0676 13.1865 1069 71.5098 731.447 505.081
131 1 42.0643 11.5062 484 71.9814 731.455 523.508
132 0 43.0483 12.0795 520 71.7135 731.583 522.29
133 0 43.1166 11.1094 479 73.8413 731.752 522.192
134 0 45.0211 11.1059 500 73.472 731.806 523.124
135 0 48.0447 11.4477 550 71.9691 732.462 521.742
136 0 49.0656 11.9024 584 70.5976 732.13 522.07
137 0 52.0632 12.6769 660 69.8879 732.332 520.645
138 0 52.1205 12.5862 656 70.1585 731.934 519.166
139 0 54.0356 11.8625 641 70.9126 732.351 519.005
140 0 54.0289 12.1602 657 70.9361 732.055 517.265
141 0 57.1149 11.9584 683 69.9546 732.668 518.564
142 0 59.0968 12.4034 733 69.3329 732.675 516.476
143 0 59.0809 11.3742 672 71.5833 732.353 515.778
144 0 62.0324 12.2033 757 70.1664 731.908 515.275
145 0 63.0837 12.634 797 69.6713 732.077 513.492
146 0 66.1324 11.4165 755 71.5656 731.648 512.216
147 0 69.0756 11.9 822 70.1496 731.047 512.392
148 0 71.1048 12.8402 913 69.6539 731.273 509.37
149 0 72.0436 12.423 895 69.4469 731.153 512.041
150 0 74.255 12.888 957 69.8004 731.638 509.076
151 0 78.2073 12.876 1007 70.1619 732.123 506.363
152 0 79.0408 12.7529 1008 71.3125 731.728 506.349
153 1 41.0068 11.5591 474 70.9072 731.808 524.411
154 0 42.0241 10.375 436 71.6766 732.25 525.954
155 0 45.0303 13.2577 597 67.7437 731.97 523.558
156 0 45.0127 11.2635 507 71.5819 732.477 521.99
157 0 48.0943 12.3923 596 68.6007 731.482 523.228
158 0 48.035 11.679 561 69.6881 731.503 522.422
159 0 50.0234 10.4751 524 71.834 730.746 521.166
160 0 53.0348 11.2568 597 69.8693 731.305 521.461
161 0 53.0279 10.9565 581 70.8296 731.559 520.164
162 0 52.0321 11.8004 614 70.4951 731.87 518.218
163 0 55.1368 11.3717 627 69.3014 731.538 519.301
164 0 58.0479 11.3355 658 68.5122 731.617 519.409
165 0 59.0383 11.3486 670 69.597 731.325 516.537
166 0 61.1608 12.5734 769 68.29 731.698 512.978
167 0 64.0888 13.1068 840 67.2024 731.395 512.95
168 0 66.04 11.2356 742 69.4623 731.819 513.538
169 0 67.14 11.2005 752 70.0106 731.739 511.145
170 0 72.1967 13.4494 971 66.6179 731.417 510.27
171 0 73.2246 10.6112 777 70.3076 731.911 511.084
172 0 76.0439 11.1646 849 69.7091 732.336 510.835
173 0 79.0975 12.2507 969 68.9856 732.262 506.53
174 1 41.0506 10.6454 437 67.4119 731.709 526.67
175 0 41.0686 10.9086 448 68.2455 731.92 525.199
176 0 45.0628 11.1844 504 68.0615 732.427 523.137
177 0 46.0194 11.1257 512 68.4434 731.783 523.838
178 0 49.0305 12.788 627 65.9027 731.707 522.411
179 0 48.0158 10.559 507 70.1223 732.32 520.535
180 0 50.0252 11.2943 565 70.0566 731.853 519.651
181 0 51.0322 10.5424 538 69.6598 731.448 521.621
182 0 53.1045 10.0368 533 71.1989 731.169 517.156
183 0 55.0778 11.3839 627 70.2344 730.756 515.021
184 0 58.0814 11.1051 645 68.7302 730.949 517.44
185 0 58.0552 10.0938 586 71.2628 730.128 516.831
186 0 60.0899 11.6326 699 69.0057 731.042 513.99
187 0 60.0553 11.0065 661 69.7262 730.457 514.542
188 0 63.0953 10.9517 691 70.081 730.465 512.865
189 0 65.0429 10.8851 708 70.2599 729.757 511.387
190 0 69.0396 11.182 772 69.4961 729.434 510.808
191 0 71.1669 11.466 816 69.6765 729.495 510.62
192 0 74.13 13.0042 964 67.0197 729.175 509.353
193 0 74.1212 11.9669 887 69.2018 729.147 509.212
194 0 77.2138 11.1379 860 70.1767 728.767 509.085
195 0 81.1508 11.9284 968 69.4597 729.189 505.749
196 1 41.1277 10.4309 429 67.2308 729.028 528.282
197 0 41.0243 9.6772 397 70.2116 729.018 527.877
198 0 45.085 11.1789 504 67.2837 729.248 526.901
199 0 45.1317 10.3032 465 68.3097 729.181 528.688
200 0 46.0653 10.5502 486 67.3292 729.374 527.562
201 0 47.0427 11.649 548 66.9945 728.756 524.987
202 0 51.0458 12.048 615 65.2797 729.208 526.728
203 0 51.0202 11.0936 566 66.8834 728.588 525.368
204 0 52.0911 11.979 624 66.7131 727.979 525.787
205 0 54.0971 10.5921 573 68.4311 729.297 524.599
206 0 56.0835 10.5914 594 67.3451 728.66 526.604
207 0 60.0976 13.0787 786 64.0165 728.548 522.704
208 0 58.1732 10.6578 620 67.9984 728.663 524.168
209 0 59.0967 10.5082 621 69.0467 728.816 522.502
210 0 64.0366 12.774 818 64.8912 728.542 520.912
211 0 65.0533 11.114 723 66.9267 728.082 521.894
212 0 68.0571 12.6511 861 64.331 727.697 520.503
213 0 66.0345 11.4183 754 66.8342 726.94 519.505
214 0 69.0675 11.9593 826 66.1768 727.513 520.119
215 1 34.0636 8.98319 306 67.415 726.075 536.582
216 0 35.0424 11.8143 414 65.1956 726.481 533.466
217 0 38.0364 10.8054 411 65.6983 725.684 533.771
218 0 39.057 10.3951 406 65.9581 726.86 534.446
219 0 39.0368 10.0674 393 67.2926 726.216 531.71
220 0 40.0403 10.5893 424 66.0778 726.061 532.505
221 0 41.0121 9.33872 383 67.7467 726.185 532.157
222 0 42.0316 11.2534 473 65.9577 726.495 530.858
223 0 45.0381 10.3246 465 67.4366 726.071 528.873
224 0 46.0462 12.8349 591 64.7157 726.244 526.24
225 0 48.1336 11.6551 561 65.6756 726.127 526.77
226 0 49.0635 11.7603 577 65.792 726.184 524.77
227 0 49.0188 12.1586 596 65.9396 726.102 524.539
228 0 52.0732 12.1176 631 65.5071 725.604 524.025
229 0 50.1422 11.4474 574 67.5436 726.643 522.432
230 0 54.0726 12.3722 669 65.281 726.475 523.472
231 0 56.057 12.2019 684 65.5278 726.613 521.823
232 0 55.1009 12.831 707 65.6124 726.87 520.272
233 0 59.0364 11.7724 695 66.3468 726.091 520.186
234 0 62.0499 13.8276 858 62.6107 726.502 520.688
235 0 59.0561 11.0234 651 67.5883 726.43 517.925
236 0 65.0469 12.3296 802 65.1396 726.167 518.615
237 0 65.0527 11.9903 780 66.0256 726.849 515.955
238 0 66.0638 11.1256 735 67.3483 727.101 515.661
239 0 72.1122 12.8827 929 63.9107 727.499 516.413
240 0 72.0766 13.1527 948 64.673 727.796 513.505
241 0 73.0806 11.111 812 67.8066 727.3 512.208
242 0 76.1196 13.0058 990 64.9252 727.456 512.881
243 0 78.0326 12.4051 968 66.0868 727.781 510.336
244 1 41.0698 11.3465 466 66.221 727.165 528.021
245 0 42.041 12.4402 523 65.782 726.291 527.807
246 0 43.1655 11.7455 507 65.9389 727.454 527.619
247 0 46.0474 11.8791 547 66.4899 726.786 526.26
248 0 45.038 10.5023 473 68.9704 726.78 527.584
249 0 45.0291 13.6134 613 66.1517 727.956 525.644
250 0 48.1517 12.2114 588 67.3469 727.576 526.934
251 0 48.1312 13.9203 670 65.5776 727.561 527.804
252 0 50.1063 12.4136 622 67.6479 727.039 527.457
253 0 51.0567 11.4774 586 69.5785 727.896 527.148
254 0 53.1087 12.0319 639 68.7167 727.931 526.545
255 0 53.1485 11.4397 608 70.329 727.135 525.724
256 0 56.0566 12.1663 682 69.7595 727.89 523.909
257 0 57.1706 13.346 763 68.7366 726.596 522.37
258 0 58.0716 11.3481 659 71.217 727.372 524.492
259 0 60.1243 11.2101 674 71.6187 726.91 522.954
260 0 63.0228 12.0433 759 70.9381 727.071 521.664
261 0 62.0538 10.4103 646 73.3313 727.158 522.836
262 0 65.0211 11.2117 729 72.3416 726.837 520.985
263 0 67.137 11.3946 765 72.898 727.142 518.878
264 0 67.0394 9.94937 667 75.1484 726.865 518.463
265 0 69.0902 10.6093 733 74.4161 726.813 520.037
266 0 74.1366 12.2207 906 72.4592 726.838 516.201
267 1 37.0422 10.8255 401 71.2718 726.598 534.456
268 0 40.0129 10.4216 417 72.8489 726.703 532.729
269 0 43.0633 11.3089 487 70.694 726.786 533.335
270 0 44.0216 13.2889 585 68.4496 726.497 531.971
271 0 45.0108 12.4192 559 70.186 726.925 532.295
272 0 47.0802 12.4893 588 69.4796 726.565 532.974
273 0 47.0341 12.7142 598 70.4248 726.515 531.716
274 0 47.021 11.8245 556 71.7518 726.54 531.626
275 0 49.0461 12.1926 598 71.7893 725.748 528.875
276 0 51.0391 11.932 609 71.7044 725.951 529.711
277 0 52.0273 12.455 648 71.4043 726.006 527.36
278 0 54.0543 12.7834 691 70.068 725.974 528.59
279 0 55.0452 13.2073 727 69.271 725.931 530.314
280 0 56.0315 13.5103 757 69.897 726.264 526.717
281 0 58.0875 12.0852 702 71.8675 725.313 525.657
282 0 60.0604 12.887 774 70.6202 724.898 526.275
283 0 61.0701 13.2471 809 70.4524 724.79 525.719
284 0 61.0677 12.4616 761 71.8633 724.537 524.731
285 0 63.0252 11.9793 755 71.9854 725.38 524.732
286 0 66.0817 12.651 836 71.6208 725.135 521.456
287 0 67.0409 12.112 812 72.8276 724.958 521.103
288 0 68.062 10.7255 730 74.689 725.314 520.058
289 0 72.0594 12.7672 920 71.4804 725.447 518.927
290 0 73.0306 12.1867 890 72.7899 725.149 517.292
291 0 76.0695 12.4623 948 70.866 725.314 520.146
292 1 42.0709 11.2905 475 70.5305 725.124 534.528
293 0 42.0291 10.7069 450 71.1289 725.258 534.278
294 0 43.0258 10.4821 451 71.7251 725.767 535.188
295 0 44.019 11.2679 496 71.5101 725.276 533.252
296 0 47.049 11.6049 546 70.5238 725.209 531.146
297 0 48.0512 12.008 577 69.9567 725.061 530.78
298 0 49.0211 11.1789 548 71.9069 725.153 528.923
299 0 51.0496 11.9883 612 70.3219 725.114 527.737
300 0 50.0622 12.1049 606 71.632 724.678 524.241
301 0 53.0171 12.3922 657 69.9893 724.881 525.202
302 0 55.1003 11.2885 622 71.6833 725.027 524.31
303 0 56.0169 12.5319 702 69.7165 725.101 523.746
304 0 58.0702 12.2955 714 69.437 724.689 523.226
305 0 58.0359 11.7686 683 70.3397 724.95 522.144
306 0 61.0259 11.9949 732 69.765 725.074 520.27
307 0 62.0522 12.9246 802 68.52 724.638 519.857
308 0 65.1394 11.4677 747 70.3507 724.949 518.609
309 0 67.0471 12.7522 855 68.6234 724.691 516.801
310 0 68.1036 11.8643 808 69.3898 724.578 518.387
311 0 70.0905 13.24 928 67.8901 725.312 514.308
312 0 73.1132 11.8583 867 69.2318 724.604 513.576
313 0 76.0774 11.6198 884 69.3088 724.975 513.215
314 0 78.0635 13.0151 1016 67.69 724.277 509.424
315 1 41.0561 12.7387 523 64.3939 723.977 531.574
316 0 41.1145 10.7505 442 67.8959 724.158 531.457
317 0 41.0416 10.867 446 68.2758 724.648 529.659
318 0 44.0332 11.7866 519 66.0308 724.503 530.459
319 0 44.092 11.408 503 67.5328 724.348 528.336
320 0 47.0674 12.6839 597 64.464 724.844 529.665
321 0 48.0861 12.1033 582 65.8419 725.452 527.95
322 0 46.2314 11.3559 525 67.7467 725.705 526.912
323 0 48.0557 11.1537 536 67.5989 724.841 525.179
324 0 49.0713 10.4746 514 67.4319 724.737 527.354
325 0 51.1351 10.2474 524 67.6183 724.979 524.884
326 0 55.0647 11.6409 641 65.8799 725.61 523.123
327 0 54.0719 10.5785 572 67.3217 724.544 523.052
328 0 57.0626 12.46 711 64.9564 725.55 522.291
329 0 59.1044 11.9957 709 65.2666 725.578 522.501
330 0 59.0542 11.6334 687 66.3857 725.683 520.683
331 0 62.1478 12.8725 800 64.7012 725.826 518.665
332 0 64.1026 13.1976 846 64.1324 725.885 517.498
333 0 66.0987 12.5418 829 64.3305 725.264 518.68
334 0 69.1566 11.7849 815 65.7031 724.265 517.919
335 0 69.1046 11.6345 804 66.607 724.801 516.086
336 0 70.0477 10.3644 726 68.4738 724.963 515.836
337 0 73.0827 13.6284 996 64.5733 724.887 515.729
338 0 76.1644 12.3811 943 66.6543 725.408 512.254
339 0 76.1021 10.4465 795 69.234 725.336 512.67
340 0 81.0717 15.6158 1266 62.109 725.33 512.634
341 0 81.0546 11.1283 902 69.2905 724.647 507.926
342 0 85.1142 12.9003 1098 67.1066 725.284 507.821
343 1 44.0581 11.1444 491 68.3442 725.346 527.839
344 0 47.0237 11.7175 551 66.8385 724.79 529.013
345 0 48.0353 11.1168 534 68.8371 725.275 526.831
346 0 48.0556 11.6948 562 68.863 724.916 527.582
347 0 51.0938 12.6043 644 67.5994 725.863 524.46
348 0 50.0836 11.2811 565 70.5522 725.883 523.922
349 0 53.0433 12.141 644 66.5606 726.194 526.18
350 0 54.0976 12.7547 690 67.471 725.852 522.712
351 0 57.2462 13.9398 798 50.896 725.093 524.35
352 0 60.1154 11.611 698 67.0917 725.926 522.688
353 0 60.1379 12.8704 774 66.9005 725.736 518.908
354 0 64.0799 12.1099 776 67.2448 725.331 520.076
355 0 62.0348 11.6064 720 69.3167 724.676 517.424
356 0 67.0708 12.8521 862 66.116 725.363 517.39
357 0 70.0799 12.0149 842 67.886 724.886 515.536
358 0 70.0952 11.2704 790 69.3304 725.729 514.692
359 0 74.0632 12.2598 908 67.9956 726.393 512.873
360 0 76.128 12.6103 960 67.8188 725.027 512.359
361 0 78.111 12.8151 1001 68.3097 724.95 508.032
362 1 40.0245 9.74402 390 68.6641 725.413 532.415
363 0 39.0624 11.1104 434 69.2972 725.53 529.272
364 0 44.041 11.4666 505 67.8515 726.261 529.101
365 0 45.0269 10.8158 487 68.2977 726.129 527.926
366 0 45.0341 12.7237 573 66.7522 725.946 527.86
367 0 48.0211 12.6819 609 66.1264 725.642 527.573
368 0 49.0453 11.6015 569 68.2496 725.777 526.23
369 0 51.0531 11.4587 585 68.282 725.884 525.489
370 0 52.0476 12.5846 655 67.1863 725.064 523.336
371 0 55.0857 11.6727 643 67.1991 725.792 523.635
372 0 54.0336 12.2516 662 67.3429 725.727 523.147
373 0 56.036 10.9394 613 69.1126 725.643 521.842
374 0 58.0776 11.1058 645 68.4279 725.67 521.881
375 0 58.0515 10.5251 611 69.527 726.075 519.052
376 0 62.0491 11.2169 696 67.3635 726 520.905
377 0 64.0392 12.7734 818 66.3961 725.348 517.203
378 0 66.0404 12.0229 794 66.5819 725.17 519.037
379 0 68.0782 12.8382 874 66.1934 725.519 515.22
380 0 71.0703 12.9309 919 65.6823 725.149 513.556
381 0 74.0792 12.5136 927 65.8964 725.14 513.354
382 0 76.1806 12.2735 935 67.0278 724.975 511.03
383 0 77.0923 11.804 910 67.3769 725.659 509.777
384 0 80.1399 12.0789 968 67.4845 725.788 507.459
385 0 82.0657 11.7101 961 68.409 725.361 506.649
386 0 85.1205 10.35 881 69.4915 725.342 507.663
387 0 89.1082 12.4343 1108 66.898 725.507 506.132
388 0 92.0877 11.7822 1085 68.3825 725.872 504.122
389 0 95.0912 12.1988 1160 67.7388 725.871 501.921
390 0 97.0918 12.483 1212 67.6403 726.002 501.383
391 0 101.16 12.1886 1233 68.2368 725.954 496.531
392 0 105.12 12.0433 1266 68.0861 725.554 498.825
393 1 53.0632 11.2696 598 65.704 725.527 524.365
394 0 51.0555 9.79326 500 69.048 725.58 523.382
395 0 56.0499 12.2748 688 64.8794 725.115 522.794
396 0 58.1387 11.335 659 65.5281 725.554 525.501
397 0 59.065 12.7317 752 65.6729 725.442 519.617
398 0 63.0823 11.7466 741 66.0621 725.87 520.742
399 0 63.2202 10.7402 679 67.3196 725.991 521.306
400 0 65.0372 11.8701 772 66.6023 726.262 518.089
401 0 64.1135 11.2457 721 67.8252 725.781 515.804
402 0 72.2358 12.5976 910 64.0022 726.162 518.481
403 0 74.1229 12.938 959 64.0115 726.322 514.68
404 0 72.1843 10.016 723 68.5809 726.068 513.521
405 0 79.4189 12.7929 1016 64.0974 726.174 512.899
406 0 82.162 12.8283 1054 64.1898 725.772 512.397
407 0 84.1032 12.2231 1028 64.8706 725.95 510.471
408 0 85.0984 11.6806 994 65.6489 725.972 510.741
409 1 44.0744 9.25708 408 66.9412 726.596 527.998
410 0 45.1449 11.2083 506 65.5652 726.188 528.65
411 0 46.093 10.2185 471 66.9321 725.473 524.696
412 0 49.0524 11.8649 582 64.3385 726.15 525.574
413 0 52.0486 11.1626 581 64.2444 725.938 524.68
414 0 51.084 11.4909 587 63.8126 726.112 522.76
415 0 53.0457 11.6315 617 63.2204 725.382 525.015
416 0 55.0551 12.9325 712 62.014 725.596 522.347
417 0 58.0437 12.1116 703 62.3883 726.135 523.191
418 0 59.0559 10.5663 624 64.516 726.096 521.728
419 0 60.0366 10.0772 605 65.5686 725.826 519.922
420 0 61.121 11.8617 725 63.2662 725.877 518.127
421 0 64.0516 11.7874 755 62.8119 725.804 518.025
422 0 65.0904 10.3548 674 65.1706 725.35 515.439
423 0 68.0179 13.0701 889 61.2272 725.821 516.466
424 0 70.0619 11.1473 781 63.0461 725.356 516.86
425 0 74.1591 12.2709 910 61.4692 725.014 514.126
426 0 74.1348 10.7237 795 64.1786 725.2 511.847
427 1 37.0465 10.8512 402 62.3209 725.244 530.804
428 0 40.06 10.9586 439 61.2483 725.451 529.9
429 0 40.0414 10.4891 420 62.4405 725.769 529.943
430 0 41.1636 7.74957 319 66.6991 725.088 529.589
431 0 42.0537 11.9609 503 62.0418 724.956 527.101
432 0 43.0955 11.3933 491 63.1059 725.525 525.906
433 0 44.0323 10.2652 452 63.2146 725.825 526.67
434 0 47.0412 11.8619 558 61.4767 726.056 527.31
435 0 50.0527 10.409 521 62.9213 726.192 526.453
436 0 49.0613 11.557 567 63.2892 726.788 524.668
437 0 50.191 11.2172 563 63.6803 726.35 525.643
438 0 52.025 10.1682 529 64.9546 726.287 526.786
439 0 55.0714 11.8755 654 63.0872 726.041 523.118
440 0 56.0609 11.2378 630 64.1683 726.103 523.643
441 0 59.0921 12.2182 722 62.8961 726.184 521.576
442 0 59.1567 11.6977 692 64.1662 726.384 522.374
443 0 61.1082 11.2424 687 64.8952 725.429 521.574
444 0 64.1398 12.5975 808 62.8094 726.155 521.246
445 0 65.254 12.3824 808 63.6436 725.678 519.926
446 0 70.1228 12.1644 853 64.068 725.977 517.062
447 0 70.1936 12.3088 864 64.1424 725.532 515.058
448 0 74.1143 11.6172 861 64.8839 725.884 517.175
449 0 75.1571 12.893 969 63.7193 726.246 512.746
450 0 78.0724 11.2075 875 65.9269 724.695 514.465
451 1 40.0713 9.40822 377 66.4748 725.175 531.584
452 0 43.0814 10.4454 450 65.0844 725.222 530.964
453 0 42.0486 11.2489 473 63.2262 725.488 531.791
454 0 44.065 11.3242 499 63.7896 725.605 530.2
455 0 45.0156 10.7518 484 64.1281 725.442 531.209
456 0 47.034 11.7787 554 63.0397 724.791 528.291
457 0 48.0167 11.1628 536 63.6828 725.287 528.543
458 0 49.0391 11.3175 555 63.3712 724.571 526.854
459 0 51.2069 12.5569 643 61.8756 724.952 526.673
460 0 51.0814 12.2158 624 62.4471 724.672 526.673
461 0 54.0547 11.5624 625 63.2512 725.206 523.198
462 0 57.0415 12.5873 718 61.415 725.272 522.295
463 0 59.0732 12.967 766 60.1906 725.436 522.74
464 0 58.0547 11.1102 645 63.0992 724.209 521.938
465 0 60.0619 10.5891 636 63.4513 724.808 521.84
466 0 62.1257 12.1528 755 61.6371 725.289 520.201
467 0 61.071 10.4632 639 64.3052 725.116 519.534
468 0 65.0472 10.3463 673 63.5646 725.076 520.305
469 0 67.1703 11.5081 773 63.2445 725.057 518.767
470 0 71.1043 11.6027 825 63.3345 725.361 516.029
471 0 73.155 13.0135 952 61.1166 725.501 514.366
472 0 76.1659 12.3546 941 61.406 725.16 513.222
473 0 80.1448 12.3027 986 60.4797 725.283 515.205
474 0 80.0569 11.0296 883 63.1552 725.324 512.926
475 1 44.0349 11.0367 486 62.3272 725.342 530.321
476 0 45.0354 11.4799 517 62.236 725.097 529.01
477 0 45.0531 10.7429 484 63.1033 725.163 529.415
478 0 47.059 11.6874 550 62.2818 724.905 526.705
479 0 49.0519 10.1729 499 63.1042 724.469 526.114
480 0 50.0977 9.96055 499 63.0762 723.876 526.784
481 0 52.0654 12.5611 654 59.4113 724.778 524.905
482 0 53.0757 11.4742 609 61.2709 724.939 523.683
483 0 55.0532 11.5343 635 60.6646 724.666 524.72
484 0 57.0376 12.9038 736 59.3424 724.682 521.442
485 0 58.0557 12.4191 721 59.9487 725.949 522.015
486 0 61.0525 12.2681 749 59.4539 725.318 521.047
487 0 60.0601 12.2044 733 60.296 725.432 519.168
488 0 64.1021 12.0901 775 60.1587 725.363 520.436
489 0 65.0773 13.5992 885 57.8294 726.144 521.4
490 0 65.052 12.0826 786 60.2468 725.794 518.73
491 0 69.0929 12.2878 849 59.4711 725.962 516.627
492 0 69.0915 10.696 739 62.0203 725.589 517.794
493 0 72.1222 13.2553 956 59.7364 725.618 515.861
494 0 73.075 12.6582 925 60.8108 725.489 511.383
495 0 75.0589 11.2312 843 62.5089 724.643 514.04
496 0 79.08 11.4694 907 62.1532 725.475 511.759
497 0 81.1482 12.5203 1016 60.8317 724.939 510.361
498 0 82.0542 11.919 978 61.4816 725.427 513.233
499 0 85.1232 13.3806 1139 60.4337 724.959 506.845
500 1 40.1306 9.66844 388 63.384 725.201 530.572
501 0 43.0218 9.57653 412 62.9927 724.558 530.192
502 0 46.0903 10.0455 463 62.0475 725.328 531.514
503 0 46.0183 10.322 475 63.5221 725.063 528.158
504 0 49.0812 12.2858 603 60.1758 725.106 526.766
505 0 50.023 11.5147 576 61.8663 724.998 524.549
506 0 53.029 13.0306 691 59.4978 725.054 524.564
507 0 53.0535 12.9115 685 59.762 724.769 523.555
508 0 55.0619 11.7867 649 61.339 724.524 522.028
509 0 54.072 10.7449 581 62.8967 724.415 524.041
510 0 58.0356 13.8019 801 58.5181 724.583 522.271
511 0 60.0518 10.8906 654 62.3838 724.942 520.74
512 0 62.0748 11.6472 723 60.8963 724.721 519.978
513 0 63.065 10.5288 664 62.8253 724.649 518.708
514 0 65.0379 10.9475 712 61.2163 725.334 520.39
515 0 69.0724 11.3649 785 60.4051 725.339 519.22
516 0 70.1138 10.8966 764 61.8757 725.382 515.124
517 0 73.1064 11.9825 876 59.9269 724.38 517.086
518 0 76.0873 11.0531 841 62.6373 725.031 515.502
519 0 79.1926 12.1602 963 59.8806 724.878 513.139
520 0 80.1062 11.1103 890 62.1214 725.153 511.172
521 1 40.0431 9.53972 382 61.9031 725.034 532.27
522 0 43.0367 10.735 462 59.8377 724.972 532.19
523 0 41.0505 10.5724 434 61.4654 725.253 528.092
524 0 43.0203 10.9018 469 60.3134 725.426 530.473
525 0 46.0337 9.92751 457 61.6105 725.442 528.179
526 0 47.0508 11.0306 519 61.896 724.634 528.212
527 0 47.0249 9.88838 465 64.2237 724.798 526.598
528 0 50.081 11.0022 551 62.0708 724.991 526.555
529 0 52.0196 12.6298 657 59.6347 724.93 525.527
530 0 53.0386 11.256 597 61.1558 724.543 527.166
531 0 54.1299 10.8073 585 62.465 723.54 523.479
532 0 57.1008 11.6111 663 61.6063 724.658 521.291
533 0 58.0758 9.72867 565 63.4 724.085 524.053
534 0 57.0624 10.1643 580 63.9466 724.428 522.297
535 0 61.0586 11.0058 672 62.1548 724.829 522.878
536 0 62.092 11.8856 738 62.0054 725.167 518.516
537 0 66.0726 11.669 771 61.5642 724.667 517.717
538 0 68.0921 10.897 742 62.3585 724.069 516.387
539 0 69.0855 11.189 773 62.163 724.869 513.453
540 0 71.1765 11.6752 831 61.6125 725.077 515.921
541 0 73.143 11.6894 855 61.6971 724.862 514.385
542 0 75.1421 10.6066 797 62.9423 725.332 510.314
543 1 41.0171 10.7516 441 60.2834 724.574 530.952
544 0 40.0355 9.76633 391 62.2072 724.593 529.028
545 0 42.0387 9.87186 415 61.6024 724.301 529.708
546 0 45.0111 10.3308 465 60.972 724.258 528.892
547 0 44.0204 10.9949 484 61.1715 724.258 526.246
548 0 45.0253 9.97216 449 62.1715 724.512 527.027
549 0 47.0348 11.332 533 60.3396 724.026 525.358
550 0 50.0491 11.5886 580 59.1603 724.1 526.102
551 0 50.0722 10.6646 534 61.6948 724.077 523.303
552 0 52.0506 9.0681 472 63.1017 724.472 525.917
553 0 53.0508 11.5927 615 60.8862 725.063 523.524
554 0 55.108 11.3958 628 60.9029 725.037 521.288
555 0 56.0403 10.3675 581 61.8709 724.802 521.272
556 0 60.097 10.7826 648 60.6235 724.537 519.071
557 0 60.1276 12.2739 738 59.3198 724.733 520.47
558 0 62.0996 11.9486 742 60.0418 724.845 517.183
559 0 65.1621 11.8013 769 59.7802 724.683 515.286
560 0 65.0459 11.4381 744 60.7513 725.199 515.876
561 0 68.0444 12.9033 878 59.1093 725.076 515.575
562 0 71.0769 11.3398 806 61.0372 725.102 513.974
563 0 71.1342 10.7684 766 61.701 724.77 513.611
564 0 74.0991 11.7545 871 60.8519 724.799 510.582
565 0 76.1273 11.7566 895 60.2402 724.515 510.377
566 0 78.0791 11.5012 898 60.6949 724.452 509.933
567 1 40.0442 10.1887 408 60.7476 724.23 529.49
568 0 43.0734 10.4937 452 60.708 723.657 529.484
569 0 40.0814 10.803 433 61.8129 723.857 528.157
570 0 43.054 10.7075 461 62.0152 724.831 527.568
571 0 41.048 9.8665 405 63.8889 724.965 527.709
572 0 44.0674 11.5959 511 61.3953 724.748 526.526
573 0 45.042 11.9666 539 60.6827 724.462 526.258
574 0 48.0193 10.9748 527 61.6831 725.22 526.992
575 0 47.0677 10.793 508 62.4311 724.736 526.951
576 0 50.0313 11.5328 577 61.3761 724.834 525.208
577 0 50.074 11.8624 594 61.6178 724.712 522.921
578 0 50.0718 9.84586 493 63.716 724.661 523.036
579 0 52.0801 10.4646 545 63.0569 725.602 521.923
580 0 54.0362 10.6965 578 62.8772 726.514 520.313
581 0 59.049 11.7022 691 60.2692 726.007 522.33
582 0 58.0528 12.6264 733 60.1487 725.728 519.202
583 0 61.0464 12.1547 742 59.9555 726.319 519.85
584 0 62.0482 12.587 781 59.6159 725.584 519.475
585 0 65.1434 10.899 710 61.7648 725.192 517.439
586 0 64.0901 10.7661 690 63.1942 725.868 516.564
587 0 63.1076 9.11142 575 64.4696 725.143 507.647
588 1 115.72 8.60701 996 56.3353 724.874 504.947
589 0 117.933 16.6281 1961 45.2254 725.139 487.556
590 0 118.746 17.5248 2081 45.7213 725.309 494.568
591 0 128.26 12.2719 1574 51.0076 724.841 499.839
592 0 133.486 11.8514 1582 50.4324 724.857 490.4
593 1 41.0211 10.4337 428 62.25 724.402 527.005
594 0 45.1126 12.1031 546 59.6502 725.174 526.868
595 0 43.0344 11.5954 499 61.9058 725.02 524.902
596 0 46.0171 12.1259 558 61.0161 725.254 522.332
597 0 47.0377 11.2676 530 61.8906 725.174 523.096
598 0 48.0914 11.3326 545 62.4459 725.446 523.494
599 0 48.0209 11.2035 538 63.5744 724.766 520.807
600 0 51.0222 12.7592 651 61.7665 725.241 520.306
601 0 51.2119 11.7355 601 63.1464 725.238 520.191
602 0 53.0323 12.4264 659 62.9332 725.473 518.542
603 0 56.1742 11.3397 637 63.3752 725.008 520.688
604 0 58.151 13.6369 793 60.6267 724.889 516.391
605 0 58.0403 11.9055 691 63.7569 726.334 516.423
606 0 59.1582 12.4919 739 63.0568 725.708 514.323
607 0 61.306 10.6841 655 64.9939 726.056 515.304
608 0 65.1284 11.3315 738 63.7561 725.785 516.089
609 0 67.0848 10.7029 718 64.3997 725.127 514.435
610 0 69.2077 12.7009 879 62.4471 725.486 511.821
611 0 73.0756 12.0286 879 62.6553 725.828 510.157
612 0 75.1919 11.996 902 63.5964 725.66 507.237
613 0 75.0969 10.1203 760 65.6066 725.288 507.724
614 0 78.0988 11.3446 886 64.1467 725.556 506.683
615 1 38.067 8.45878 322 66.8665 725.177 526.012
616 0 40.079 9.65594 387 65.814 725.478 525.421
617 0 42.0861 9.57561 403 66.4442 725.844 524.948
618 0 41.019 7.24055 297 68.7003 725.714 526.569
619 0 44.0149 10.7691 474 65.4198 725.527 524.238
620 0 46.0223 11.1685 514 65.4319 725.702 522.965
621 0 46.0402 10.6212 489 65.8466 725.571 524.037
622 0 47.0369 11.3315 533 65.469 725.522 519.253
623 0 51.1564 11.2791 577 64.5945 725.754 521.494
624 0 50.0824 11.1017 556 65.205 726.212 521.549
625 0 48.104 10.0408 483 67.0932 725.979 517.725
626 0 55.1893 13.0279 719 62.5688 725.211 520.004
627 0 56.0329 10.4581 586 65.4539 725.147 518.254
628 0 56.0215 11.4777 643 65.0047 725.717 516.418
629 0 56.0634 8.16932 458 67.4825 725.83 514.382
630 0 55.0549 8.31897 458 68.0022 725.884 510.415
631 0 54.1259 6.81744 369 68.9295 726.089 509.23
632 0 51.0479 4.34885 222 68.3739 725.432 495.203
633 1 200.247 5.0188 1005 73.1294 725.211 418.5
634 0 206.306 5.64695 1165 74.1442 725.806 400.771
635 0 209.135 5.88136 1230 74.422 725.85 396.04
636 1 65.0564 6.67114 434 70.3456 726.092 498.929
637 0 63.1476 5.49506 347 71.294 726.222 491.565
638 1 26.0107 10.611 276 66.7355 726.319 518.109
639 0 29.0329 5.92432 172 70.4651 725.616 518.64
640 0 32.0066 9.15436 293 68.7236 726.048 519.689
641 0 32.0236 6.4952 208 69.4279 725.394 514.471
642 1 48.0578 11.8815 571 64.0385 725.666 524.681
643 0 51.1422 12.6901 649 62.0801 725.1 524.804
644 0 51.1023 11.2715 576 64.816 725.083 522.792
645 0 54.0596 12.0793 653 63.4334 725.732 523.224
646 0 56.0934 11.7839 661 64.4312 725.466 519.729
647 0 57.0428 11.6053 662 64.0589 725.548 521.654
648 0 59.0788 13.4735 796 62.6445 725.807 519.466
649 0 61.1006 11.2274 686 65.0875 725.213 518.777
650 0 63.1736 11.1281 703 65.4324 725.659 517.209
651 0 65.1346 12.6507 824 64.2318 725.955 516.073
652 0 68.1123 12.45 848 64.5731 725.542 515.425
653 0 71.1062 13.4447 956 63.0649 725.543 514.537
654 0 72.0597 11.5182 830 65.7458 725.966 513.857
655 0 76.3043 12.1487 927 64.932 725.671 512.184
656 0 76.0868 11.3686 865 66.5642 725.674 511.995
657 0 80.2112 12.7912 1026 65.2329 726.448 508.394
658 0 82.0659 11.3689 933 66.7985 725.846 507.19
659 0 86.2435 12.7894 1103 64.4787 725.7 507.636
660 1 43.0868 10.3512 446 66.8632 726 524.747
661 0 48.0892 10.0854 485 66.1588 725.722 524.889
662 0 48.0305 10.4517 502 66.7729 725.91 522.062
663 0 50.1287 10.7124 537 65.5624 725.985 522.207
664 0 53.0344 10.3895 551 65.9292 725.566 520.466
665 0 54.0905 10.2421 554 65.7383 725.964 521.171
666 0 57.0774 11.7209 669 63.7937 725.55 518.873
667 0 59.0895 10.628 628 64.3408 725.508 519.304
668 0 60.1644 11.3522 683 63.7379 725.237 515.801
669 0 64.0493 11.9595 766 61.8277 725.017 516.664
670 0 66.1671 11.5314 763 62.3355 724.91 515.606
671 0 67.1066 11.2061 752 62.2846 725.916 514.102
672 0 70.1299 13.09 918 59.8017 726.013 513.805
673 0 71.2937 10.6741 761 61.9672 725.417 513.911
674 0 77.0749 11.5213 888 60.6644 725.207 510.056
675 0 79.1682 11.4187 904 60.8562 725.517 508.096
676 0 82.1219 11.2759 926 60.9395 725.64 508.06
677 0 83.1208 10.4186 866 62.0624 725.992 503.885
678 0 86.0909 11.0697 953 61.6842 725.438 502.991
679 0 88.1707 10.6498 939 61.7391 725.665 504.812
680 0 93.1164 11.9098 1109 60.3093 725.27 502.601
681 1 48.1452 10.1983 491 58.7821 725.625 526.811
682 0 50.0674 11.6842 585 59.2171 725.82 522.518
683 0 52.0619 11.6784 608 58.5049 725.987 522.567
684 0 53.0644 10.1952 541 60.6673 725.695 520.767
685 0 56.0623 9.93537 557 61.5817 725.871 519.957
686 0 58.0722 10.7797 626 60.599 725.69 519.958
687 0 59.164 10.3948 615 61.3106 724.753 517.587
688 0 60.0722 10.1212 608 61.6299 725.174 517.533
689 0 65.0572 11.9894 780 59.25 726 517.894
690 0 65.1548 11.465 747 60.083 725.68 514.197
691 0 68.0753 11.0466 752 59.3564 725.488 516.491
692 0 69.0596 11.4973 794 59.369 725.54 513.634
693 0 71.0993 13.1506 935 57.9102 724.788 509.076
694 0 75.0887 11.826 888 58.4426 725.552 510.994
695 0 78.2418 11.9246 933 58.5724 725.048 508.407
696 1 38.139 10.619 405 58.0272 725.272 529.788
697 0 39.0419 9.477 370 58.7838 725.559 530.068
698 0 42.1339 10.7514 453 58.4349 725.358 526.519
699 0 44.0566 11.4852 506 57.6087 725.771 524.83
700 0 46.0262 9.36424 431 59.2877 725.367 525.473
701 0 48.2029 10.8085 521 57.8752 725.424 524.399
702 0 50.0577 10.9474 548 57.7482 726.162 523.283
703 0 52.3513 10.4486 547 57.7642 725.514 523.66
704 0 52.0357 11.5882 603 56.8574 725.434 521.977
705 0 54.2176 12.3576 670 56.7896 725.452 520.834
706 0 55.1446 10.1551 560 58.6518 725.198 522.27
707 0 55.1006 12.3592 681 57.3656 725.624 519.401
708 0 59.0214 11.7923 696 57.9555 724.773 519.763
709 0 62.1205 12.8782 800 55.985 725.31 518.415
710 0 62.0917 11.9662 743 57.8358 725.424 516.172
711 0 63.1458 11.7031 739 58.3085 725.211 515.602
712 0 64.1375 11.4598 735 59.3415 724.891 515.367
713 0 67.0319 13.7845 924 56.5184 725.038 513.276
714 0 70.1397 13.0882 918 57.4096 724.885 511.129
715 0 71.0894 11.788 838 58.5143 725.49 514.234
716 0 75.1716 13.5956 1022 56.6399 725.353 508.414
717 0 74.1671 10.773 799 60.4118 725.532 508.6
718 0 78.1067 12.8414 1003 57.5972 725.515 509.522
719 0 82.0888 13.9727 1147 57.0026 725.861 506.86
720 0 85.0676 12.8486 1093 58.0622 725.145 506.896
721 0 88.1136 12.4839 1100 58.83 725.057 503.42
722 0 89.0786 13.1794 1174 58.7675 725.566 502.066
723 1 45.2423 10.9632 496 61.498 725.272 524.772
724 0 45.0543 10.8758 490 62.3102 725.276 523.3
725 0 49.0898 12.304 604 59.7219 725.661 524.366
726 0 48.049 11.2802 542 61.9502 725.738 521.478
727 0 52.0771 12.2511 638 60.0658 725.536 523.339
728 0 53.026 13.352 708 59.5946 725.364 519.153
729 0 57.1142 11.4858 656 61.1418 725.204 518.896
730 0 57.151 11.8808 679 61.5479 725.476 518.081
731 0 59.1655 13.2341 783 59.4393 725.609 517.571
732 0 61.1179 12.5986 770 60.7442 725.531 517.839
733 0 64.0921 12.5913 807 60.7546 725.418 516.938
734 0 66.1126 11.7678 778 61.1542 725.171 516.572
735 0 67.2401 11.8828 799 60.5044 725.529 516.741
736 0 70.1608 12.1435 852 60.1913 725.614 514.011
737 0 73.0699 13.8908 1015 57.7034 725.996 514.219
738 0 76.1437 11.6359 886 59.8499 725.806 512.502
739 0 77.2825 12.7196 983 58.9206 725.831 511.203
740 0 79.1117 11.8946 941 59.305 725.598 512.404
741 0 82.1065 11.5094 945 59.7429 725.614 509.169
742 0 85.1518 13.2587 1129 58.2418 725.225 507.632
743 1 44.0106 12.2243 538 58.1097 725.098 525.974
744 0 48.043 12.4056 596 58.8272 724.81 522.164
745 0 52.1614 12.4613 650 57.5738 724.231 522.905
746 0 51.0367 13.5393 691 57.233 724.873 519.682
747 0 53.093 11.3009 600 59.845 724.79 522.04
748 0 56.063 12.2719 688 58.1555 724.705 520.801
749 0 56.0465 12.0614 676 58.7248 725.308 519.169
750 0 58.1379 12.2295 711 58.5513 724.924 518.731
751 0 61.0822 12.8024 782 57.3747 724.744 519.499
752 0 62.1245 10.978 682 60.0044 724.625 516.5
753 0 64.0719 11.2998 724 59.326 725.369 518.228
754 0 63.2407 12.3338 780 59.1 725.317 513.065
755 0 66.2678 14.0491 931 56.9946 725.264 513.813
756 0 67.0679 11.0485 741 60.7476 725.471 513.802
757 0 72.1411 11.9488 862 58.6264 724.843 516.918
758 0 74.1971 12.5207 929 59.3315 724.659 510.537
759 0 77.1209 12.8759 993 58.7251 725.129 509.8
760 0 79.2029 14.7469 1168 56.8356 724.869 509.403
761 0 81.1075 13.2663 1076 58.7519 725.06 507.958
762 0 83.1457 12.6405 1051 60.0057 724.767 508.571
763 0 87.1911 12.3178 1074 60.1406 724.64 508.391
764 0 91.1421 13.6271 1242 59.1691 725.107 503.243
765 0 94.2978 14.0194 1322 58.3457 724.416 505.387
766 1 48.0512 8.51176 409 63.2176 725.506 525.927
767 0 52.084 12.9214 673 59.2021 724.536 523.623
768 0 54.1885 11.1094 602 60.7824 724.821 523.932
769 0 55.0549 12.3331 679 59.9838 725.278 522.887
770 0 57.0813 12.9465 739 58.5318 724.796 524.576
771 0 59.1176 12.4329 735 59.5823 724.947 522.491
772 0 60.1885 13.0424 785 59.5643 725.04 520.215
773 0 62.0657 14.3235 889 57.9381 724.886 520.246
774 0 64.0499 13.4583 862 59.4594 724.628 516.854
775 0 67.1258 12.6628 850 59.82 724.4 518.169
776 0 68.0856 12.4696 849 60.1425 724.968 517.225
777 0 70.0506 13.4331 941 59.2636 724.624 517.935
778 0 73.0942 12.4223 908 60.7643 724.874 514.393
779 0 72.0501 13.0326 939 61.4963 724.619 510.163
780 0 76.1738 12.1433 925 62.4086 724.835 511.489
781 0 79.1392 12.8129 1014 61.6322 724.527 510.33
782 0 82.1192 12.6645 1040 61.6644 725.146 511.659
783 0 84.0841 13.427 1129 61.163 725.065 507.905
784 0 87.153 13.6886 1193 60.6471 724.987 508.798
785 0 91.1228 13.7946 1257 60.6714 725.5 505.399
786 1 50.0458 10.4105 521 63.0806 725.156 525.038
787 0 50.0318 11.7925 590 61.6424 724.922 525.386
788 0 49.2469 11.818 582 62.4244 724.814 525.522
789 0 52.0951 11.3638 592 62.6605 724.551 526.699
790 0 54.0556 12.9681 701 62.0357 724.086 523.488
791 0 55.0628 11.8773 654 63.7294 724.482 523.044
792 0 56.0546 11.4531 642 64.3178 724.765 522.625
793 0 58.0974 12.8061 744 62.289 724.884 523.108
794 0 61.0472 13.1046 800 61.5075 725.501 521.835
795 0 62.0843 12.6441 785 62.6051 724.847 518.762
796 0 64.0775 11.0335 707 64.2178 724.765 519.27
797 0 66.0394 11.9323 788 63.1675 724.976 519.268
798 0 70.1 12.5535 880 61.8989 724.87 517.166
799 0 72.11 13.4378 969 60.937 725.111 515.666
800 0 73.161 12.2606 897 62.3857 724.851 515.095
801 0 74.1132 11.7253 869 63.2463 724.977 512.999
802 0 80.0948 13.4341 1076 61.2797 725.143 510.668
803 0 79.0548 11.0303 872 63.9816 725.279 510.349
804 0 84.1384 13.9889 1177 60.2532 725.343 509.389
805 0 86.0868 13.8233 1190 60.9017 725.132 505.055
806 0 89.3007 13.001 1161 61.5935 724.89 502.156
807 0 93.0972 13.1905 1228 61.0326 725.299 503.48
808 0 92.0785 9.48104 873 65.244 724.953 502.178
809 0 98.0767 11.8581 1163 62.4385 725.441 501.807
810 0 101.143 12.161 1230 62.1179 725.08 497.45
811 0 106.117 13.6736 1451 60.4452 725.131 495.376
812 0 108.233 12.1774 1318 62.1358 724.742 495.411
813 1 50.0665 8.96807 449 63.6303 725.88 524.042
814 0 56.097 10.7136 601 62.1914 725.489 520.7
815 0 57.0276 12.5378 715 60.2867 725.186 520.315
816 0 58.0472 12.4898 725 60.789 725.527 519.499
817 0 60.2854 11.9266 719 61.3839 726 517.889
818 0 62.0432 13.3294 827 59.7086 725.457 517.684
819 0 63.12 12.4683 787 60.69 725.574 515.756
820 0 66.0755 11.9257 788 60.8769 725.511 514.986
821 0 68.1459 13.1923 899 59.3537 725.15 515.507
822 0 71.131 13.6228 969 58.7172 725.504 514.799
823 0 72.1276 11.7015 844 60.7867 724.812 514.432
824 0 75.1253 13.8568 1041 58.5034 724.701 509.513
825 0 76.1776 10.3836 791 62.2187 725.455 511.072
826 0 81.191 13.8808 1127 58.2325 725.12 508.524
827 0 82.0951 13.6427 1120 58.6714 725.165 510.56
828 0 85.1115 12.8302 1092 59.6832 725.161 508.342
829 0 88.1473 12.74 1123 59.8753 724.845 505.307
830 0 91.2344 13.3831 1221 58.9001 725.516 504.586
831 0 93.2346 14.2329 1327 58.3828 724.433 501.39
832 0 97.1226 12.3761 1202 59.8511 725.009 502.058
833 0 99.2771 13.6184 1352 58.6139 724.979 500.558
834 0 102.138 12.3656 1263 59.9264 725.788 498.305
835 0 103.165 11.3701 1173 61.5209 725.305 494.926
836 1 54.0941 13.3471 722 57.9114 725.432 521.46
837 0 58.0756 12.5526 729 57.6036 725.074 524.188
838 0 59.1612 12.6434 748 58.1297 724.841 520.301
839 0 60.0334 11.7934 708 58.9477 724.699 520.562
840 0 61.0261 10.0777 615 60.8683 725.094 518.92
841 0 64.0599 11.4268 732 59.6585 725.452 516.09
842 0 66.0865 10.2896 680 61.0603 725.369 517.935
843 0 69.0679 12.5818 869 58.4131 725.573 517.321
844 0 72.097 11.8174 852 58.8404 725.484 517.363
845 0 74.0704 11.6781 865 59.0543 725.526 513.869
846 0 75.1016 11.0384 829 60.3667 724.689 512.296
847 0 76.0949 11.8405 901 59.3452 725.078 514.326
848 0 80.1533 9.46936 759 61.9829 725.242 512.092
849 0 85.1905 13.6048 1159 57.8102 724.774 508.562
850 0 84.0874 12.594 1059 59.7583 724.638 506.502
851 1 44.0423 10.3764 457 60.2516 725.414 528.582
852 0 44.0423 10.4218 459 130.708 726.41 528.645
853 0 46.0319 12.3393 568 59.8151 724.805 526.334
854 0 48.0491 12.8826 619 58.8724 724.577 526.788
855 0 50.0696 10.6851 535 61.1888 724.927 527.114
856 0 51.0751 12.3152 629 60.1288 724.782 523.596
857 0 54.0758 12.9818 702 58.7436 724.716 524.82
858 0 55.058 13.1135 722 58.9446 724.125 523.734
859 0 54.1692 11.261 610 61.6033 724.407 522.087
860 0 55.0518 11.7344 646 62.144 725.014 519.639
861 0 59.1166 13.2112 781 60.9603 724.534 519.627
862 0 60.048 11.5907 696 63.1264 724.878 519.461
863 0 62.0526 12.86 798 61.5526 724.045 518.722
864 0 64.089 10.9379 701 63.7389 724.7 517.67
865 0 66.1442 11.7471 777 62.9717 724.754 517.782
866 0 68.108 13.4639 917 61.4242 725.262 516.265
867 0 72.0561 13.1981 951 61.3018 724.9 513.883
868 0 73.072 11.605 848 64.158 725.146 513.831
869 0 76.0654 13.8171 1051 61.4225 725.372 512.667
870 0 79.2169 12.1186 960 63.75 724.93 510.257
871 0 80.1021 12.5964 1009 63.8553 724.669 509.32
872 1 45.0877 10.4241 470 64.9192 724.936 526.092
873 0 46.0568 12.3326 568 62.4718 724.146 526.903
874 0 47.1719 11.7019 552 64.5091 724.346 523.149
875 0 48.0782 9.75493 469 67.1983 724.812 525.791
876 0 49.0717 10.882 534 66.8258 724.79 522.318
877 0 50.0363 10.3325 517 67.0251 724.7 522.054
878 0 53.0627 12.4947 663 63.4661 724.226 523.103
879 0 56.2183 11.4909 646 64.904 724.477 522.034
880 0 55.0938 10.1826 561 67.3209 724.638 520.383
881 0 61.1138 13.2867 812 63 725.05 518.764
882 0 60.0205 11.7293 704 65.304 724.726 518.528
883 0 63.0617 11.1954 706 65.2748 724.769 519.245
884 0 66.0904 11.9382 789 64.7541 724.754 514.63
885 0 70.05 12.8051 897 63.6243 724.85 514.124
886 0 70.1605 11.944 838 64.7434 725.029 514.883
887 0 73.1522 11.811 864 64.853 724.92 511.883
888 0 77.2658 12.0234 929 64.2659 725.153 510.426
889 0 79.1574 11.7614 931 64.406 725.193 508.179
890 0 82.0835 12.999 1067 62.5398 725.415 508.378
891 0 84.0877 12.7724 1074 63.4078 724.917 506.522
892 0 86.0407 10.7972 929 65.282 725.163 504.973
893 0 90.0842 11.8778 1070 64.085 725.652 505.03
894 1 47.1531 9.0132 425 65.4447 725.176 526.861
895 0 52.0867 10.4825 546 63.2491 725.106 526.238
896 0 52.0716 11.7146 610 62.4344 724.938 524.764
897 0 51.1073 12.6596 647 62.3555 724.906 522.66
898 0 54.0739 11.6322 629 63.2448 724.984 522.173
899 0 57.0822 11.8075 674 63.2315 725.211 521.228
900 0 58.0788 11.9665 695 63.2201 725.242 520.039
901 0 59.0441 11.6862 690 63.2348 725.062 520.283
902 0 62.0413 11.6374 722 63.1177 724.921 520.557
903 0 63.0919 12.8384 810 62.3358 724.682 517.91
904 0 64.0422 11.3519 727 63.2063 724.484 519.582
905 0 68.106 12.4365 847 62.0012 725.02 518.573
906 0 70.0995 12.6677 888 62.1261 724.795 514.946
907 0 74.1638 12.351 916 61.5295 724.92 516.642
908 0 71.1577 10.1465 722 65.0817 725.28 513.794
909 0 76.2388 11.2148 855 64.0971 725.455 514.083
910 0 78.1583 12.1932 953 63.0661 726.313 513.052
911 0 79.1182 11.843 937 63.5742 726.13 511.69
912 0 82.1028 13.1299 1078 62.3655 726.248 510.167
913 0 87.1268 12.9926 1132 62.0283 726.476 508.882
914 0 87.1753 12.7674 1113 62.4438 726.257 508.183
915 0 92.1825 12.4536 1148 62.5122 725.423 506.378
916 0 92.2262 10.7887 995 64.5859 725.673 504.681
917 1 51.0145 11.5653 590 62.9271 725.573 524.644
918 0 52.0558 12.8132 667 61.1259 725.519 525.084
919 0 55.0903 11.6173 640 62.4203 725.156 523.228
920 0 57.1031 12.1535 694 61.8098 725.141 522.695
921 0 58.1246 12.4044 721 60.7448 724.857 521.56
922 0 59.0583 13.8169 816 59.5956 725.474 518.181
923 0 59.0922 11.0505 653 62.0613 724.678 519.564
924 0 63.1236 11.9131 752 60.6543 725.222 518.398
925 0 64.1171 12.6019 808 59.9901 725.4 514.974
926 0 68.2518 12.7469 870 59.7966 724.944 512.91
927 0 68.0578 12.0486 820 60.3524 725.555 513.524
928 0 71.0808 11.0016 782 61.4642 725.026 509.601
929 0 75.1707 12.2255 919 59.8836 725.119 511.919
930 0 77.1243 12.6679 977 59.8045 725.045 510.029
931 0 80.0428 11.3314 907 61.323 725.337 507.757
932 0 84.147 11.2541 947 60.7043 725.154 510.742
933 0 83.1828 12.9714 1079 59.8601 725.395 505.37
934 1 41.057 12.9576 532 59.9304 725.773 525.508
935 0 42.0452 10.4649 440 61.6977 725.657 527.48
936 0 43.0254 11.0168 474 60.5781 726.169 528.257
937 0 47.0968 13.2705 625 59.1152 725.99 522.875
938 0 49.0312 12.7674 626 59.369 725.866 522.327
939 0 49.0537 11.2122 550 61.4655 725.535 522.371
940 0 51.0311 14.5205 741 58.0364 725.043 521.626
941 0 53.157 11.5507 614 60.8388 725.404 520.155
942 0 56.131 12.4708 700 59.9529 725.829 519.637
943 0 56.0892 12.3553 693 60.5931 725.473 518.465
944 0 58.0641 12.9857 754 60.1286 726.105 517.899
945 0 61.1242 12.5809 769 59.961 726.051 519.166
946 0 62.1351 10.8956 677 62.1433 725.811 516.347
947 0 62.0811 10.293 639 63.4429 726.299 515.172
948 0 69.098 13.5894 939 59.6965 725.908 514.904
949 0 69.1527 11.8723 821 62.2375 726.386 512.039
950 0 71.1212 11.7546 836 62.3852 725.786 512.228
951 0 75.1745 11.2804 848 62.4741 725.816 513.654
952 0 78.1025 13.1238 1025 60.9737 725.222 510.406
953 0 81.1196 10.7865 875 63.1589 725.766 511.086
954 0 83.1383 13.267 1103 61.1895 725.751 505.152
955 0 85.206 11.4311 974 62.9302 724.797 507.804
956 1 46.1258 11.512 531 62.0151 725.736 526.081
957 0 47.0937 11.0206 519 62.5819 725.27 525.599
958 0 47.0495 11.6473 548 62.0876 725.679 526.124
959 0 49.0659 11.5559 567 62.5238 725.123 523.489
960 0 51.08 11.9029 608 62.0822 725.41 521.411
961 0 53.0611 10.9496 581 62.9552 725.79 521.621
962 0 54.106 10.6458 576 62.8906 725.627 522.767
963 0 56.0771 13.7489 771 59.8197 726.102 518.027
964 0 59.0678 13.1882 779 60.3582 725.098 518.729
965 0 59.046 11.9568 706 61.6544 725.474 520.489
966 0 62.0576 15.0183 932 59.5483 725.854 515.601
967 0 64.1068 10.3733 665 64.0271 725.629 517.31
968 0 64.0953 11.2957 724 64.0235 725.689 514.845
969 0 69.0768 12.1314 838 62.9189 725.523 513.068
970 0 73.0776 12.6851 927 61.6969 725.785 514.824
971 0 75.0559 12.7372 956 61.9613 725.607 513.403
972 0 77.093 13.3605 1030 61.1058 725.736 512.585
973 0 80.1445 12.3527 990 62.6313 725.868 509.953
974 0 81.0453 13.2765 1076 62.2686 725.638 507.304
975 1 41.0191 12.4576 511 61.1781 725.706 529.014
976 0 44.0421 11.6934 515 61.9146 725.596 525.818
977 0 43.0418 11.6631 502 62.753 725.578 526.221
978 0 48.2015 11.8461 571 61.7145 725.567 527.063
979 0 49.1545 12.3488 607 60.9506 725.384 527.756
980 0 50.2044 13.445 675 60.5896 725.825 523.956
981 0 50.1191 11.0537 554 63.278 725.384 524.978
982 0 54.0533 11.4517 619 62.706 725.767 521.882
983 0 55.1435 12.8392 708 61.0056 725.604 523.527
984 0 54.0729 10.8002 584 64.2706 725.837 520.966
985 0 57.1141 12.1861 696 62.5819 726.076 520.846
986 0 62.0393 12.5888 781 60.7286 725.766 521.949
987 0 63.2111 10.9949 695 63.2288 726.131 519.226
988 0 66.0861 11.8482 783 61.8595 725.7 520.448
989 0 66.1515 13.59 899 60.9377 724.895 516.475
990 0 67.1154 11.6367 781 62.5621 725.704 519.093
991 0 70.1174 13.4774 945 61.1354 725.398 514.392
992 0 69.1324 11.1525 771 64.214 725.68 515.114
993 0 73.1793 13.7471 1006 60.993 725.57 513.048
994 0 74.0667 11.8137 875 63.936 725.983 508.223
995 0 78.15 12.2329 956 62.3734 725.445 511.981
996 0 80.0783 12.5377 1004 62.1673 726.042 510.023
997 0 84.1071 11.9372 1004 63.4203 725.68 508.333
998 0 88.1541 14.5654 1284 60.419 725.317 507.329
999 0 90.1514 11.3476 1023 64.434 725.605 504.167
1000 0 93.1878 11.2461 1048 64.4294 725.4 505.288
1001 0 98.3715 12.3206 1212 62.7376 725.468 502.328
1002 1 52.3047 11.2992 591 62.3519 725.56 524.108
1003 0 53.0676 12.2674 651 61.9186 725.192 523.078
1004 0 55.1474 11.3514 626 62.9121 725.211 521.597
1005 0 56.1965 12.1894 685 62.3139 724.689 522.655
1006 0 59.1468 12.2069 722 61.7022 725.047 520.535
1007 0 59.0672 11.2414 664 63.7575 725.396 520.002
1008 0 61.2082 12.5964 771 61.8547 724.975 518.519
1009 0 62.1432 11.8919 739 62.774 724.785 519.802
1010 0 68.109 12.7296 867 61.271 725.022 519.37
1011 0 67.119 11.3083 759 63.6232 725.294 516.925
1012 0 69.1612 12.3191 852 62.3451 724.563 516.667
1013 0 74.2251 12.4351 923 61.9447 724.807 516.54
1014 0 76.1669 11.698 891 62.8833 724.857 515.887
1015 0 76.0998 10.7885 821 64.2485 724.663 515.049
1016 0 79.143 12.3195 975 62.9015 725.367 514.343
1017 0 81.1557 12.285 997 63.5306 725.448 511.191
1018 0 85.2899 11.1854 954 64.6352 725.427 510.534
1019 0 88.117 13.5275 1192 62.031 725.039 511.204
1020 0 89.121 12.8477 1145 63.9913 724.987 507.768
1021 0 94.2593 11.7866 1111 64.9406 724.807 508.216
1022 0 96.138 12.7629 1227 64.7498 724.931 501.433
1023 0 100.279 13.1233 1316 64.1018 724.61 504.353
1024 1 54.2584 11.4821 623 64.9534 724.979 524.504
1025 0 55.0567 10.9523 603 66.869 724.696 525.025
1026 0 57.0448 13.3404 761 64.2733 724.953 524.029
1027 0 58.0975 10.8094 628 67.2803 724.108 526.333
1028 0 59.2836 12.6848 752 65.8245 724.42 524.249
1029 0 63.0975 13.1859 832 64.9796 724.195 522.828
1030 0 66.2091 14.0766 932 63.8273 723.893 521.299
1031 0 66.0537 14.034 927 64.5663 723.881 520.041
1032 0 71.1218 12.795 910 65.3494 724.316 520.776
1033 0 70.0952 12.911 905 66.2088 724.68 517.712
1034 0 74.1345 13.4081 994 65.1922 724.278 516.518
1035 0 74.1157 12.6019 934 66.6124 724.408 517.373
1036 0 78.1324 12.978 1014 66.0907 723.897 517.171
1037 0 80.132 13.3904 1073 66.1212 724.203 513.269
1038 0 84.157 12.7381 1072 66.959 723.392 513.321
1039 0 86.1327 14.5241 1251 65.2886 723.71 510.143
1040 0 88.1789 12.985 1145 67.8114 722.9 508.995
1041 0 92.1514 14.9537 1378 64.8686 723.62 509.425
1042 0 95.2395 12.7573 1215 67.7942 723.559 509.63
1043 1 51.0791 12.0206 614 67.5814 723.945 531.62
1044 0 53.0782 12.3214 654 67.0749 723.489 530.602
1045 0 55.1236 13.8598 764 66.3168 723.465 526.501
1046 0 56.0711 12.5555 704 67.9318 723.345 527.062
1047 0 58.0782 12.8103 744 67.4624 723.222 526.044
1048 0 60.1046 13.1105 788 67.2259 724.593 524.345
1049 0 62.1105 12.1236 753 68.745 724.323 521.282
1050 0 65.2514 12.9499 845 67.3349 724.008 520.912
1051 0 66.073 13.137 868 66.7823 723.72 523.195
1052 0 69.0699 14.1161 975 66.0133 723.671 521.011
1053 0 72.2285 11.6851 844 69.0628 723.632 519.62
1054 0 73.2464 13.3522 978 67.5123 723.245 517.43
1055 0 75.174 13.7414 1033 67.1133 723.816 517.249
1056 0 77.1135 12.8382 990 68.1212 723.401 516.89
1057 0 82.3166 13.8611 1141 65.8212 723.474 516.982
1058 0 85.3009 13.3996 1143 66.9825 723.353 513.712
1059 0 87.1913 13.694 1194 66.4883 723.803 514.418
1060 0 90.1493 16.2952 1469 63.3261 723.682 513.335
1061 1 47.0691 11.2813 531 68.2674 724.232 534.341
1062 0 50.2145 11.4907 577 68.8198 724.274 531.79
1063 0 50.0577 13.1448 658 66.9483 724.216 532.953
1064 0 54.1347 13.5588 734 66.0845 723.971 530.974
1065 0 55.224 12.4765 689 68.0755 724.321 529.862
1066 0 56.2294 12.3067 692 67.935 723.72 528.325
1067 0 58.1117 13.388 778 65.9807 723.629 527.54
1068 0 59.0966 12.708 751 67.1438 724.154 526.116
1069 0 61.1389 14.05 859 65.1444 723.766 527.08
1070 0 62.1134 12.606 783 68.0549 724.815 524.553
1071 0 65.0953 12.4126 808 67.6114 724.104 525.618
1072 0 67.1023 13.5316 908 66.6454 724.317 523.369
1073 0 68.0858 13.2333 901 67.1665 723.687 519.806
1074 0 70.0973 12.6824 889 67.9235 724.746 519.738
1075 0 73.1536 12.7266 931 67.3383 724.414 519.784
1076 0 73.0755 13.5339 989 66.7502 724.365 520.36
1077 0 77.1204 13.0705 1008 67.3105 724.612 518.161
1078 0 79.1918 12.2866 973 68.4491 724.775 516.436
1079 0 81.1095 13.0441 1058 67.9121 724.769 515.546
1080 0 85.1693 15.3929 1311 64.7674 724.696 511.983
1081 0 87.099 13.1574 1146 68.0689 725.14 508.914
1082 0 91.0983 13.1616 1199 67.387 724.709 510.927
1083 0 91.1387 12.3658 1127 68.9157 724.993 510.295
1084 0 96.1693 12.1452 1168 68.6926 724.292 508.149
1085 0 98.2646 12.7615 1254 67.2903 725.167 511.163
1086 0 102.479 12.8611 1318 67.739 724.383 504.338
1087 1 53.0639 11.7406 623 68.4414 724.706 526.639
1088 0 55.0459 12.2807 676 67.1657 724.479 527.669
1089 0 58.0524 13.0399 757 66.6975 724.247 525.028
1090 0 60.2956 14.4787 873 64.6838 725.224 523.915
1091 0 62.0819 13.6272 846 65.974 724.386 521.844
1092 0 64.0368 13.4454 861 65.6005 725.833 524.092
1093 0 67.1867 14.3927 967 64.1169 724.932 520.782
1094 0 67.0811 13.506 906 65.3642 724.9 520.522
1095 0 70.0474 13.8478 970 64.9495 725.829 520.079
1096 0 73.1283 13.7156 1003 64.8734 725.168 518.665
1097 0 75.1251 12.4459 935 66.4909 724.382 518.185
1098 0 78.2655 13.7097 1073 65.5722 724.742 513.119
1099 0 80.1331 12.317 987 66.311 724.463 515.331
1100 0 83.0702 13.4705 1119 65.7936 724.731 512.088
1101 0 85.1135 11.6903 995 67.0412 725.028 514.597
1102 1 43.1579 13.4158 579 65.342 724.639 530.691
1103 0 45.1326 10.7904 487 67.5195 725.144 531.474
1104 0 47.1496 11.9195 562 66.5836 724.81 530.566
1105 0 48.0423 12.156 584 67.0017 724.738 527.897
1106 0 50.0925 12.0777 605 66.3835 724.739 529.134
1107 0 54.0862 13.1642 712 64.5716 724.933 525.84
1108 0 56.2115 12.2751 690 65.313 724.809 527.088
1109 0 55.0899 13.4144 739 64.9919 725.227 524.896
1110 0 58.076 13.4823 783 64.3525 725.317 522.439
1111 0 57.0685 11.8805 678 67.0531 725.268 523.025
1112 0 60.0609 15.2012 913 63.1544 724.756 521.06
1113 0 62.1345 14.6456 910 63.6725 725.146 520.809
1114 0 64.1512 17.5367 1125 60.8498 725.032 517.577
1115 0 67.1176 14.0947 946 64.5497 725.279 517.666
1116 0 71.1981 13.5397 964 64.8019 725.517 516.382
1117 0 72.1266 14.1279 1019 64.1001 724.989 516.536
1118 0 74.0973 15.2232 1128 63.3945 725.042 515.469
1119 0 78.117 13.5822 1061 64.6098 724.684 516.342
1120 0 78.2198 12.0174 940 67.616 724.27 512.824
1121 0 81.0898 12.9486 1050 66.7524 725.107 513.597
1122 0 84.1405 14.0004 1178 65.6698 725.148 512.01
1123 1 40.037 13.7373 550 66.5309 725.007 532.282
1124 0 43.1403 11.3351 489 67.8834 725.368 533.468
1125 0 44.2819 15.0174 665 64.9654 725.618 529.58
1126 0 46.1387 13.8495 639 65.3897 725.462 532.473
1127 0 47.0995 14.204 669 66.0777 725.286 528.587
1128 0 50.2861 15.3124 770 64.0403 725.32 529.522
1129 0 52.4085 13.2994 697 65.7891 725.611 529.504
1130 0 51.1431 13.1592 673 67.1189 725.532 529.013
1131 0 53.1588 13.977 743 66.2517 725.166 527.614
1132 0 55.0892 13.4691 742 66.9946 725.074 526.997
1133 0 60.1978 13.057 786 65.6221 725.271 528.886
1134 0 57.2827 14.4721 829 65.2497 724.826 526.829
1135 0 60.2926 13.8491 835 66.109 725.341 524.866
1136 0 63.4357 14.8339 941 64.9469 725.07 521.752
1137 0 63.1013 16.4339 1037 63.5651 724.784 522.643
1138 0 66.1922 13.9594 924 66.631 725.289 521.118
1139 0 69.1216 13.6282 942 66.9788 725.567 518.429
1140 0 72.3698 13.9146 1007 66.5015 725.715 520.206
1141 0 72.1359 12.9478 934 68.2505 726.04 518.214
1142 0 75.25 12.9302 973 68.7266 726.064 517.178
1143 0 75.0935 15.9135 1195 65.7138 725.758 515.052
1144 0 79.1965 14.0158 1110 67.7459 725.682 514.45
1145 0 81.3965 13.1701 1072 69.348 725.6 513.828
1146 0 82.1195 14.6372 1202 67.8486 725.281 515.205
1147 0 85.2018 14.0607 1198 68.2462 724.854 512.575
1148 0 88.1436 15.2592 1345 67.403 725.477 509.42
1149 1 45.1025 12.3053 555 71.1153 725.69 530.798
1150 0 46.0696 11.895 548 71.7117 725.85 531.066
1151 0 50.1472 13.58 681 68.9662 725.996 529.266
1152 0 50.1817 12.8134 643 70.1415 725.095 530.236
1153 0 53.2992 11.351 605 71.8364 725.562 529.407
1154 0 56.1737 13.1556 739 68.4398 726.505 528.349
1155 0 56.1661 14.7598 829 67.6671 726.059 525.409
1156 0 57.0443 15.7772 900 66.3578 725.83 523.633
1157 0 56.2281 12.3248 693 71.9293 725.446 523.264
1158 0 62.1692 13.4794 838 69.148 725.835 523.612
1159 0 63.1424 14.3327 905 68.1436 725.702 523.325
1160 0 64.0749 13.7808 883 69.5662 725.071 522.609
1161 0 65.1745 14.3154 933 68.9303 725.547 519.942
1162 0 70.339 14.1458 995 67.99 725.608 519.555
1163 0 72.4248 13.407 971 69.6643 725.895 515.954
1164 0 74.2028 14.8377 1101 68.267 725.308 516.534
1165 0 76.3874 12.921 987 70.231 725.626 516.487
1166 0 77.2032 13.8336 1068 69.9363 725.458 514.669
1167 0 79.4056 12.6817 1007 71.9533 725.894 512.671
1168 0 83.3553 13.4245 1119 70.5934 725.796 512.19
1169 0 83.2143 13.9519 1161 70.9208 725.572 510.59
1170 0 88.2296 14.7343 1300 69.0546 725.245 510.157
1171 1 43.092 12.7866 551 71.7949 725.221 529.485
1172 0 47.0903 13.9094 655 69.2428 725.554 530.878
1173 0 45.2182 12.7161 575 72.8504 724.899 529.678
1174 0 46.1275 13.2459 611 71.8102 725.097 529.972
1175 0 50.2542 11.9194 599 71.1169 725.058 531.825
1176 0 51.2658 13.8689 711 70.339 725.442 527.595
1177 0 50.1238 13.5465 679 71.3932 725.381 527.698
1178 0 53.1561 12.9054 686 72.3615 725.62 525.754
1179 0 55.0321 14.4098 793 70.5586 725.541 525.916
1180 0 55.1218 12.9894 716 71.9525 724.887 526.559
1181 0 60.1764 15.521 934 68.3801 725.478 522.278
1182 0 62.1762 14.3624 893 70.6461 724.615 521.393
1183 0 63.1142 13.0557 824 72.29 725.751 521.58
1184 0 64.3896 13.0456 840 72.9143 725.517 521.002
1185 0 69.1655 13.6918 947 71.1763 725.013 519.455
1186 0 69.0277 14.0958 973 71.6948 725.318 518.121
1187 0 69.1184 12.9922 898 72.8864 725.564 518.685
1188 0 73.1407 12.9613 948 72.5327 725.157 518.472
1189 0 77.1771 14.3436 1107 71.0117 724.751 516.016
1190 0 79.0994 13.6031 1076 71.6431 725.185 514.365
1191 0 83.3613 13.1836 1099 71.7225 725.043 516.253
1192 0 83.191 13.6673 1137 71.7291 725.326 514.084
1193 0 86.0833 14.8577 1279 70.2815 725.432 510.539
1194 0 91.2418 14.8287 1353 69.7036 725.055 508.285
1195 0 92.1546 14.6493 1350 70.0333 725.046 508.739
1196 0 94.0858 14.2636 1342 71.041 725.104 506.974
1197 0 97.2138 13.2491 1288 71.4907 724.577 507.648
1198 1 53.0369 14.3485 761 69.1774 725.104 528.088
1199 0 51.1308 13.0841 669 72.4155 725.293 526.658
1200 0 55.1119 14.026 773 70.1824 724.9 526.083
1201 0 58.0466 11.663 677 72.6086 724.635 525.956
1202 0 57.2438 12.8398 735 71.3374 725.216 525.842
1203 0 60.3766 15.3702 928 68.1821 724.925 524.335
1204 0 63.2034 14.1448 894 69.4116 724.828 521.958
1205 0 63.1847 14.0224 886 69.3792 724.757 520.085
1206 0 67.082 13.2673 890 70.064 724.162 518.571
1207 0 68.0952 12.4238 846 70.7305 724.786 519.019
1208 0 72.0892 14.6763 1058 67.4433 724.894 517.103
1209 0 73.0565 13.4964 986 69.1663 724.771 516.773
1210 0 76.1998 14.1733 1080 68.5213 724.844 512.851
1211 0 77.0435 14.0051 1079 68.6413 725.001 513.564
1212 0 81.0751 13.802 1119 68.9562 725.392 510.296
1213 0 83.0921 13.9845 1162 69.0241 725.183 509.444
1214 0 86.0892 14.5314 1251 67.9504 724.695 511.915
1215 0 91.1523 13.0331 1188 68.9411 724.784 511.142
1216 0 93.0738 13.8707 1291 68.299 725.327 510.084
1217 0 96.1861 14.6071 1405 67.3872 724.758 507.1
1218 0 100.346 12.8157 1286 69.1081 724.974 504.194
1219 0 102.283 13.3649 1367 68.8866 725.121 501.637
1220 0 105.208 15.2365 1603 66.2888 725.266 502.825
1221 0 109.142 13.7802 1504 68.3025 724.404 497.959
1222 0 114.13 13.8352 1579 67.9525 724.607 495.665
1223 0 115.206 13.4455 1549 68.601 724.845 493.773
1224 0 120.28 12.1716 1464 69.7555 725.324 492.87
1225 0 125.446 13.0574 1638 68.6551 725.19 490.031
1226 0 129.159 14.0215 1811 67.3694 725.246 486.839
1227 0 135.178 13.7449 1858 67.6324 725.337 484.434
1228 0 138.144 12.8707 1778 68.8217 725.56 481.96
1229 0 142.139 12.7481 1812 69.0866 724.965 479.788
1230 0 147.178 12.2165 1798 69.8337 724.816 478.432
1231 0 153.236 13.4433 2060 68.1184 725.274 474.985
1232 1 66.1358 13.4572 890 68.4663 725.338 519.921
1233 0 68.1414 14.4846 987 67.2756 725.046 516.95
1234 0 69.0945 13.0401 901 68.9534 724.893 517.428
1235 0 74.1059 13.8046 1023 68.0919 725.433 513.846
1236 0 73.1048 13.4191 981 69.1009 725.761 513.648
1237 0 80.0652 13.9511 1117 67.3868 725.88 512.961
1238 0 82.1063 13.1537 1080 67.8574 726.002 511.994
1239 0 84.2091 14.1671 1193 66.5155 725.337 512.03
1240 0 89.1678 14.5905 1301 65.5988 725.613 509.835
1241 0 91.3234 14.695 1342 65.465 725.609 510.27
1242 0 92.1826 12.4102 1144 68.8059 725.567 506.039
1243 0 96.0746 12.9587 1245 67.7261 726.025 503.599
1244 0 99.183 14.4682 1435 65.6941 726.239 501.339
1245 0 104.183 14.8393 1546 64.4748 725.488 502.845
1246 0 104.098 14.1598 1474 65.9668 725.023 499.81
1247 0 106.097 14.6188 1551 123.502 725.083 499.045
1248 0 116.305 15.1928 1767 64.0368 725.531 493.456
1249 0 118.096 13.3282 1574 66.3704 725.649 494.557
1250 0 121.155 13.4951 1635 66.8061 726.234 492.12
1251 1 51.0817 14.7215 752 64.1569 725.582 527.315
1252 0 50.1144 13.549 679 66.1915 726.165 526.308
1253 0 54.1064 12.5124 677 67.4653 725.95 523.934
1254 0 56.3857 16.6886 941 62.2922 725.752 524.479
1255 0 57.1912 12.3795 708 67.9054 725.894 522.733
1256 0 60.198 13.1566 792 66.5682 725.724 523.278
1257 0 62.2386 13.625 848 65.5696 726.13 521.153
1258 0 65.3329 13.7144 896 65.4163 726.171 520.492
1259 0 67.2914 14.296 962 65.0353 725.633 518.797
1260 0 70.0992 13.3525 936 65.532 725.956 520.03
1261 0 73.0632 14.07 1028 64.6819 725.471 519.088
1262 0 72.5134 13.3768 970 65.5856 725.472 516.953
1263 0 75.1869 13.3401 1003 65.2313 725.824 515.424
1264 0 79.421 14.3287 1138 63.3822 725.194 515.552
1265 0 80.0692 13.3135 1066 65.6341 725.889 510.637
1266 0 84.2088 13.1221 1105 64.7321 725.51 512.129
1267 0 89.2254 14.4241 1287 63.4794 725.539 507.78
1268 1 45.0967 13.8591 625 63.2896 725.606 530.64
1269 0 44.212 11.4449 506 66.3241 725.484 530.852
1270 0 50.273 12.4321 625 64.1584 725.046 531.766
1271 0 51.445 11.8573 610 65.1639 725.356 528.762
1272 0 54.4413 11.6639 635 65.1228 725.209 529.764
1273 0 55.1216 14.1324 779 61.5892 725.345 529.004
1274 0 57.3443 14.317 821 61.7369 725.753 527.633
1275 0 57.3922 13.6604 784 62.963 726.083 525.598
1276 0 59.5008 13.1427 782 63.3696 725.279 524.783
1277 0 60.287 14.3314 864 62.1157 726.416 524.623
1278 0 63.172 14.3101 904 61.8993 725.773 524.021
1279 0 64.3501 14.4677 931 62.1826 725.801 520.786
1280 0 65.2282 14.8555 969 61.6801 725.561 519.803
1281 0 68.4463 13.0759 895 63.6279 726.28 517.59
1282 0 73.6285 13.3508 983 62.7487 724.52 517.73
1283 0 73.2737 13.8249 1013 62.0908 725.69 518.301
1284 0 74.3581 13.8922 1033 62.6283 725.661 514.896
1285 0 78.411 14.6025 1145 61.5668 724.574 515.662
1286 0 79.2306 12.4699 988 64.248 724.81 513.626
1287 0 86.3412 15.9715 1379 59.7375 725.478 511.146
1288 0 86.2908 13.7095 1183 62.9036 725.594 513.308
1289 0 86.4899 12.117 1048 65.7386 725.363 508.151
1290 0 90.5683 13.1834 1194 63.8752 724.693 509.217
1291 0 94.4358 13.0777 1235 64.0478 725.151 507.738
1292 1 47.6037 12.2049 581 65.1601 725.205 531.274
1293 0 52.2813 13.3891 700 63.4743 724.773 531.023
1294 0 53.8074 13.697 737 63.7951 725.482 528.399
1295 0 54.4493 12.9662 706 64.4419 724.51 528.728
1296 0 57.2874 14.0694 806 63.9739 725.402 526.249
1297 0 57.1789 15.7051 898 62.5679 724.825 524.601
1298 0 59.3513 13.934 827 64.5683 725.304 524.075
1299 0 60.2523 13.9912 843 65.019 724.576 521.033
1300 0 61.1264 14.7727 903 64.4729 725.516 522.597
1301 0 65.3121 13.5963 888 65.4831 724.863 520.082
1302 0 68.2145 14.2638 973 64.4388 725.234 522.117
1303 0 69.2098 14.5789 1009 65.2329 725.55 520.563
1304 0 69.1385 13.4223 928 67.3588 725.342 517.045
1305 0 75.2541 13.5674 1021 66.2899 725.264 519.331
1306 0 77.2532 14.7696 1141 65.6985 725.192 514.896
1307 0 78.3327 13.5576 1062 67.9595 725.574 512.503
1308 0 81.4592 13.7247 1118 67.4472 725.335 513.662
1309 0 86.4724 15.7623 1363 64.5737 726.011 514.444
1310 0 89.2783 14.3708 1283 66.8168 726.023 510.454
1311 0 91.3832 15.4842 1415 65.5166 725.989 512.568
1312 0 93.4751 14.6884 1373 66.8325 726.021 511.118
1313 0 96.4313 14.5077 1399 67.9821 725.527 504.961
1314 0 100.452 13.8673 1393 67.9792 724.953 506.611
1315 0 102.395 15.0886 1545 66.7217 725.844 506.06
1316 1 53.9595 12.5464 677 68.9675 725.504 529.128
1317 0 55.391 14.4247 799 66.4994 725.085 528.683
1318 0 54.3339 14.2084 772 67.3938 725.525 528.484
1319 0 58.1329 13.3831 778 68.5925 725.549 525.685
1320 0 57.3248 14.1998 814 67.7789 724.823 525.812
1321 0 62.7326 13.4858 846 67.9066 725.547 526.02
1322 0 64.2989 13.3906 861 68.2462 725.1 524.761
1323 0 62.0984 13.2693 824 70.9405 725.237 521.354
1324 0 69.5347 14.2231 989 67.6663 724.714 523.959
1325 0 68.4104 13.7698 942 69.5276 725.136 519.736
1326 0 72.195 13.6852 988 69.4312 724.398 518.324
1327 0 75.5587 13.9627 1055 69.1052 725.318 516.406
1328 0 76.139 14.5129 1105 68.333 725.039 517.952
1329 0 76.1298 13.2143 1006 71.2237 724.717 516.124
1330 0 80.3243 13.8065 1109 70.3345 724.694 513.878
1331 0 83.1023 15.511 1289 68.3894 724.795 512.511
1332 0 83.0867 15.6583 1301 68.5434 724.873 512.017
1333 0 88.0703 14.5338 1280 69.7414 725.416 511.89
1334 0 89.3051 13.4483 1201 71.8193 725.793 509.567
1335 0 93.1785 13.9946 1304 71.3612 725.087 506.316
1336 0 96.1798 14.6496 1409 70.5436 724.96 504.627
1337 0 97.1446 13.7218 1333 72.027 724.207 501.857
1338 0 101.157 14.7098 1488 70.6001 724.675 503.347
1339 1 53.0386 10.992 583 75.0257 724.823 526.079
1340 0 57.0456 11.3067 645 73.8651 724.834 525.971
1341 0 59.0579 12.1068 715 74.0084 724.979 522.208
1342 0 61.2057 13.4465 823 72.486 725.036 523.171
1343 0 65.044 11.8843 773 73.5395 724.814 522.169
1344 0 66.0683 14.7726 976 70.2684 724.854 520.335
1345 0 70.0652 13.8871 973 72.2333 725.299 518.085
1346 0 70.1984 13.063 917 73.4798 725.231 519.402
1347 0 74.082 12.7831 947 72.849 724.655 518.058
1348 0 77.0793 14.0245 1081 72.0851 725.206 516.327
1349 0 82.0618 13.9773 1147 71.4473 725.433 514.913
1350 0 84.0902 14.972 1259 70.6267 725.333 513.482
1351 0 86.1053 15.4462 1330 70.1444 724.692 512.157
1352 0 88.5814 14.45 1280 71.0625 724.888 512.262
1353 0 92.0654 13.9901 1288 71.5505 724.717 508.96
1354 0 96.0647 15.5 1489 69.4231 724.917 508.721
1355 0 100.266 13.6637 1370 71.3307 724.776 508.712
1356 0 101.167 13.5815 1374 72.7001 725.195 506.617
1357 0 108.228 14.7374 1595 70.3906 725.034 506.134
1358 0 109.149 15.6025 1703 68.7117 725.816 505.468
1359 1 56.2051 12.7569 717 72.1088 725.563 529.792
1360 0 59.0915 13.6399 806 71.629 725.476 525.932
1361 0 61.2126 15.389 942 69.5446 725.608 525.01
1362 0 62.1125 13.6204 846 72.013 724.923 524.517
1363 0 65.1489 13.5689 884 71.1538 725.546 524.56
1364 0 70.2207 15.5937 1095 68.8932 725.169 521.909
1365 0 70.2523 13.8501 973 71.482 725.864 520.37
1366 0 71.1146 13.8368 984 72.0152 725.011 519.237
1367 0 73.1048 14.9101 1090 71.3486 725.419 517.383
1368 0 76.1238 12.7949 974 73.2228 725.604 519.814
1369 0 79.0993 14.7283 1165 70.7579 725.608 519.175
1370 0 80.2585 13.6185 1093 73.108 725.84 517.859
1371 0 85.0883 14.1618 1205 71.7394 725.788 514.508
1372 0 88.1056 13.2114 1164 72.7972 725.405 514.955
1373 0 87.1563 14.5142 1265 72.3186 725.122 510.772
1374 0 91.2128 13.1012 1195 74.0937 725.413 510.341
1375 0 95.4251 14.4092 1375 71.6662 724.958 511.217
1376 0 97.1288 14.7433 1432 71.4232 724.535 506.366
1377 0 100.21 15.9665 1600 69.7475 725.77 504.237
1378 0 105.123 13.5365 1423 72.799 725.794 504.143
1379 1 50.0984 12.6351 633 73.831 725.75 530.719
1380 0 53.0762 13.7726 731 72.7715 725.534 529.108
1381 0 55.1277 14.8383 818 70.1491 725.511 529.918
1382 0 57.152 13.7003 783 72.673 725.176 526.766
1383 0 57.1119 13.8675 792 72.8472 725.4 525.194
1384 0 61.2714 13.024 798 72.1592 725.031 527.549
1385 0 63.1714 13.4396 849 72.5512 725.2 523.802
1386 0 62.2119 12.4735 776 74.6443 725.16 522.11
1387 0 66.2475 14.159 938 71.5928 725.403 522.646
1388 0 69.17 12.8813 891 72.4927 725.248 519.378
1389 0 71.1992 14.0732 1002 70.6567 725.335 521.602
1390 0 74.0865 13.8082 1023 71.217 725.189 520.267
1391 0 75.087 12.9716 974 72.8131 724.897 515.893
1392 0 81.1162 13.869 1125 70.9102 724.618 515.672
1393 0 81.0828 12.9374 1049 72.8684 725.667 513.037
1394 0 82.1823 13.9568 1147 72.2058 724.62 510.901
1395 0 83.2291 13.5409 1127 72.6131 725.406 512.377
1396 0 87.2108 13.5304 1180 72.5492 724.892 510.247
1397 0 91.2112 14.3403 1308 70.6705 725.27 510.546
1398 0 93.1796 14.3272 1335 70.6127 725.483 508.288
1399 0 96.0777 14.3426 1378 70.6517 724.536 506.042
1400 0 99.158 13.7558 1364 71.3416 725.063 504.932
1401 0 103.174 13.9085 1435 70.8314 725.387 506.439
1402 0 106.271 13.6067 1446 71.5311 724.983 502.98
1403 0 111.193 15.0099 1669 69.2702 724.607 501.155
1404 0 112.192 14.5911 1637 70.598 724.991 496.004
1405 1 54.0906 11.9984 649 72.9368 724.946 524.854
1406 0 58.0996 12.2376 711 71.6414 724.842 526.848
1407 0 59.0677 13.1883 779 71.5366 724.734 523.394
1408 0 59.2648 12.3514 732 73.4413 725.112 522.402
1409 0 62.0516 12.7958 794 72.4572 724.668 522.377
1410 0 65.0661 12.9407 842 71.9869 725.178 520.178
1411 0 67.1806 15.4211 1036 67.9083 725.134 521.419
1412 0 69.1649 12.8389 888 71.4122 724.614 517.548
1413 0 72.2181 14.207 1026 69.8168 724.514 518.277
1414 0 74.1693 14.1838 1052 68.9762 723.991 515.248
1415 0 81.2315 15.0188 1220 66.873 725.035 515.37
1416 0 82.2213 13.7556 1131 68.5225 725.777 515.226
1417 0 83.226 14.4186 1200 67.9925 725.607 512.517
1418 0 86.1987 12.9584 1117 69.9364 724.635 510.334
1419 0 92.2185 14.1512 1305 67.1333 724.561 510.524
1420 0 93.2093 14.7303 1373 66.7065 725.084 510.106
1421 0 95.2017 12.7414 1213 69.5688 724.871 505.574
1422 0 98.1836 13.4238 1318 68.3589 724.888 503.068
1423 0 103.208 13.9718 1442 66.8266 725.592 503.994
1424 0 108.128 13.8725 1500 66.5067 725.343 500.249
1425 1 55.0449 12.3717 681 66.0837 725.251 530.524
1426 0 54.1842 11.9777 649 68.4884 724.639 526.063
1427 0 55.0731 11.7299 646 68.9071 725.291 525.155
1428 0 59.2802 12.9554 768 66.3581 724.827 526.32
1429 0 58.133 12.4714 725 66.9559 724.895 526.516
1430 0 60.1745 13.5107 813 66.0849 725.106 520.672
1431 0 60.2326 11.688 704 68.5 725.099 519.838
1432 0 67.0918 11.8494 795 67.673 725.138 520.976
1433 0 70.2141 13.1028 920 66.037 724.827 520.154
1434 0 72.1013 12.7321 918 66.6765 725.162 515.02
1435 0 73.4163 11.9592 878 67.3918 724.654 515.708
1436 0 77.1826 13.8762 1071 64.6993 725.119 516.231
1437 0 76.2694 13.3736 1020 65.8539 724.458 515.502
1438 0 80.3284 15.3619 1234 62.8582 724.692 513.898
1439 0 84.3362 14.6556 1236 63.5016 724.63 512.279
1440 0 83.5145 12.7642 1066 66.2383 724.188 511.386
1441 0 86.2866 11.5661 998 67.525 724.386 507.416
1442 0 88.1872 11.4529 1010 67.5941 724.534 505.894
1443 0 93.2726 12.5117 1167 66.174 724.198 503.543
1444 0 96.3754 13.5615 1307 64.4461 724.409 503.35
1445 0 99.1712 12.4431 1234 65.5786 724.305 502.039
1446 0 102.23 15.338 1568 62.2519 724.293 500.339
1447 0 105.405 12.5991 1328 65.2274 724.182 499.068
1448 0 109.48 11.9382 1307 65.5585 724.678 498.925
1449 0 112.394 13.2302 1487 64.6348 724.535 495.726
1450 0 114.284 11.8565 1355 66.4745 724.94 495.201
1451 0 122.459 13.2289 1620 63.8377 725.228 496.283
1452 0 125.349 12.6526 1586 65.1677 724.804 488.781
1453 0 127.171 14.7125 1871 62.7483 724.788 488.633
1454 0 134.324 12.5964 1692 64.3895 724.966 488.078
1455 0 137.271 12.2021 1675 65.1481 725.161 484.315
1456 1 64.3568 13.3941 862 63.3248 725.23 518.427
1457 0 66.1837 12.42 822 63.7944 725.272 517.403
1458 0 69.2192 12.8866 892 62.7803 724.849 517.82
1459 0 70.2409 12.3005 864 63.9664 725.047 517.336
1460 0 74.1364 12.7063 942 63.1348 725.707 515.059
1461 0 78.3988 14.439 1132 60.7959 725.405 513.209
1462 0 81.3649 12.9417 1053 62.7958 725.578 511.999
1463 0 83.3396 12.2271 1019 63.7929 725.405 511.814
1464 0 85.1356 12.7914 1089 63.2911 724.839 510.96
1465 0 88.342 13.5609 1198 62.2805 724.921 510.826
1466 0 89.2971 12.0273 1074 63.3454 724.682 507.776
1467 0 94.3583 13.7773 1300 61.4246 725.287 506.898
1468 0 97.304 12.3736 1204 62.9892 724.744 505.684
1469 0 100.261 15.0606 1510 59.555 724.536 505.079
1470 0 101.458 11.8572 1203 63.5719 724.884 502.495
1471 0 106.305 12.2196 1299 62.9577 725.323 499.479
1472 0 110.226 13.7173 1512 61.7586 725.279 498.854
1473 0 113.288 12.7462 1444 62.6939 724.619 499.701
1474 1 45.1759 11.9976 542 64.0978 724.937 528.336
1475 0 47.1947 11.4843 542 64.4225 725.363 530.635
1476 0 49.2279 12.3507 608 63.903 724.857 528.842
1477 0 49.075 12.7356 625 63.9744 725.261 526.256
1478 0 52.2263 12.6565 661 63.9319 724.862 525.366
1479 0 54.3174 13.2186 718 63.5209 725.205 526.311
1480 0 56.2825 13.7698 775 63.2761 724.926 524.911
1481 0 60.1308 14.086 847 62.7426 724.682 523.47
1482 0 59.4096 13.045 775 64.1716 724.772 522.632
1483 0 66.3608 14.8582 986 61.2576 724.392 524.039
1484 0 65.4346 12.8525 841 65.3365 724.598 521.426
1485 0 68.391 15.3529 1050 62.3905 724.773 522.369
1486 0 71.6182 15.5268 1112 62.4101 723.996 521.756
1487 0 67.3403 13.0234 877 67.0354 724.929 515.493
1488 0 74.3693 14.7238 1095 64.2 724.708 518.795
1489 0 78.6098 14.3748 1130 64.3442 724.739 516.329
1490 0 79.403 14.609 1160 64.0026 724.372 517.053
1491 0 82.6014 14.1765 1171 64.6422 724.646 513.39
1492 0 84.1726 15.7058 1322 62.9039 723.829 514.47
1493 0 88.4503 13.533 1197 65.0301 724.424 512.848
1494 0 90.5669 13.7578 1246 65.1396 723.957 510.229
1495 0 91.4367 13.2441 1211 66.2684 724.779 508.207
1496 0 96.5272 14.4519 1395 64.1871 724.498 507.874
1497 0 102.41 15.2817 1565 62.5208 724.479 507.409
1498 0 103.444 13.534 1400 65.0279 724.617 503.531
1499 0 107.738 14.2847 1539 63.6654 724.45 504.047
1500 0 109.326 14.6076 1597 63.479 724.448 499.549
1501 0 114.514 15.8933 1820 61.5747 724.254 498.76
1502 0 117.402 14.7016 1726 62.9629 725.122 498.716
1503 1 62.5368 13.544 847 63.0248 724.517 524.766
1504 0 61.192 12.7631 781 63.7682 724.738 523.709
1505 0 65.383 14.6062 955 61.8136 724.262 522.108
1506 0 64.3425 13.2727 854 63.1276 724.735 524.088
1507 0 70.2195 13.6429 958 62.191 724.959 523.21
1508 0 66.3307 12.0005 796 66.1018 724.268 518.639
1509 0 73.677 14.6857 1082 62.0675 724.553 517.764
1510 0 75.3478 14.6653 1105 62.5321 724.777 515.57
1511 0 75.3057 14.7134 1108 62.4991 724.686 516.818
1512 0 80.2638 13.356 1072 63.8041 724.285 513.278
1513 0 82.3328 13.0203 1072 64.2192 724.711 511.519
1514 0 84.4387 12.6245 1066 64.9118 724.536 510.562
1515 0 89.4314 13.7983 1234 63.4044 723.976 509.96
1516 0 89.2398 14.2425 1271 63.7294 725.122 504.93
1517 0 92.3754 14.073 1300 63.8462 724.641 505.681
1518 0 93.6506 14.3726 1346 63.633 724.222 507.334
1519 0 98.3915 13.0194 1281 65.5027 724.332 504.023
1520 0 101.22 14.7106 1489 63.6085 724.526 501.051
1521 0 106.399 14.8215 1577 63.3431 724.345 501.567
1522 0 109.462 15.4575 1692 62.3652 724.869 502.083
1523 0 113.512 14.3422 1628 63.6026 724.568 498.64
1524 0 117.423 14.4009 1691 64.084 724.579 495.904
1525 0 121.641 13.7454 1672 64.8762 724.576 491.966
1526 1 59.3103 10.7907 640 67.1266 724.303 523.138
1527 0 60.5652 14.1335 856 63.9533 724.338 525.004
1528 0 62.4436 14.6692 916 63.7402 724.229 521.77
1529 0 66.7025 12.4883 833 66.3397 724.131 519.966
1530 0 69.339 13.6864 949 65.3772 724.469 520.042
1531 0 70.5378 13.7373 969 65.5212 724.699 517.571
1532 0 73.5975 14.6337 1077 64.6527 724.721 517.687
1533 0 75.7496 14.68 1112 64.6664 724.655 517.702
1534 0 78.3518 13.4777 1056 65.9744 724.279 515.148
1535 0 78.6764 13.689 1077 66.1504 724.021 514.249
1536 0 84.6243 14.1094 1194 65.2931 724.595 513.719
1537 0 86.4469 15.5818 1347 63.5338 724.517 513.17
1538 0 87.6013 13.9381 1221 65.4521 724.049 511.532
1539 0 90.1719 14.5056 1308 65.3868 724.295 507.969
1540 0 95.4127 14.7674 1409 64.2704 723.615 511.162
1541 0 97.3569 14.0514 1368 65.4561 723.611 506.477
1542 0 102.354 15.4172 1578 63.4011 723.587 506.316
1543 0 104.558 15.0634 1575 64.266 724.157 502.229
1544 0 107.377 14.4165 1548 65.7687 724.49 499.782
1545 0 109.392 13.7852 1508 65.9562 723.896 499.367
1546 1 60.4216 12.5286 757 66.2563 724.279 525.658
1547 0 61.2551 13.7458 842 65.4121 724.1 524.952
1548 0 63.3245 13.4229 850 65.7224 723.735 522.632
1549 0 65.3023 13.8586 905 64.9713 724.472 523.319
1550 0 65.5101 12.0134 787 67.9593 724.437 520.672
1551 0 67.3912 12.8652 867 67.0773 724.148 519.215
1552 0 71.3352 13.2053 942 66.4915 724.393 516.162
1553 0 72.4274 12.4124 899 67.812 723.983 517.226
1554 0 76.5446 14.9978 1148 63.8258 723.991 517.552
1555 0 79.3689 12.6498 1004 67.011 723.982 516.003
1556 0 80.477 14.0537 1131 65.3227 724.178 515.561
1557 0 85.4306 12.5716 1074 65.6806 724.115 517.138
1558 0 87.5931 15.5834 1365 63.3656 724.244 511.62
1559 0 90.6445 13.6467 1237 65.8755 723.855 509.351
1560 0 92.3835 14.2883 1320 65.4561 724.118 508.106
1561 0 94.4291 12.3902 1170 67.5111 724.498 507.853
1562 0 98.3365 13.9216 1369 65.9123 723.756 504.373
1563 0 101.529 13.7892 1400 66.2607 723.865 502.221
1564 0 103.397 13.2692 1372 66.766 723.687 504.35
1565 0 109.597 14.3891 1577 65.0463 724.419 500.316
1566 0 109.288 11.7487 1284 68.0997 724.23 500.843
1567 1 58.3209 13.1514 767 65.0404 723.905 523.619
1568 0 63.5915 11.1336 708 65.9703 723.756 526.155
1569 0 62.3688 12.9392 807 64.9294 724.432 524.604
1570 0 67.388 11.5302 777 66.6474 723.723 522.945
1571 0 66.4141 11.097 737 67.7205 723.866 520.887
1572 0 72.4691 12.3777 897 65.7982 724.312 520.346
1573 0 72.3015 12.1159 876 66.8881 724.139 520.103
1574 0 76.5652 14.3015 1095 64.2009 724.169 516.999
1575 0 79.3415 15.0363 1193 63.031 724.549 519.265
1576 0 81.4771 13.378 1090 65.2541 723.984 518.691
1577 0 80.3683 13.2515 1065 67.1803 724.112 513.955
1578 0 87.2109 14.9293 1302 64.2473 724.154 514.308
1579 0 89.3551 15.0859 1348 64.7107 724.243 510.806
1580 0 90.4263 13.3147 1204 67.1204 724.238 511.289
1581 0 96.342 13.9192 1341 66.3348 724.113 508.01
1582 0 97.4635 14.4054 1404 65.8041 724.162 510.758
1583 0 101.316 14.4894 1468 65.4176 724.059 508.411
1584 0 104.368 12.8392 1340 68.1716 724.388 503.946
1585 0 108.376 13.2317 1434 66.9637 724.971 507.036
1586 0 110.372 13.5904 1500 67.2493 724.221 500.496
1587 0 114.488 14.0452 1608 66.5342 723.913 499.31
1588 0 118.62 14.0111 1662 66.9633 723.52 494.592
1589 1 67.4056 15.3548 1035 49.8271 723.285 527.927
1590 0 61.6593 12.3258 760 68.9171 723.642 521.249
1591 0 67.4766 14.1086 952 64.9926 723.998 525.317
1592 0 68.3717 14.1579 968 65.968 724.011 522.46
1593 0 70.4711 12.8847 908 67.9493 723.716 519.87
1594 0 73.5772 12.3 905 68.7823 723.175 517.885
1595 0 73.3645 13.0854 960 68.374 722.445 516.407
1596 0 78.3722 15.9623 1251 64.6211 723.076 515.529
1597 0 81.7014 15.8504 1295 64.3243 723.288 516.51
1598 0 81.3344 14.631 1190 67.0269 723.016 516.905
1599 0 84.5304 14.7876 1250 67.9104 722.932 511.037
1600 0 86.4892 13.4814 1166 69.2238 723.668 512.049
1601 0 87.5319 13.595 1190 70.3076 724.015 508.445
1602 0 93.498 14.3105 1338 68.1674 723.391 510.699
1603 0 92.5551 13.3758 1238 70.2722 723.589 509.361
1604 0 96.5093 13.7293 1325 69.3291 724.085 509.313
1605 0 104.374 14.0935 1471 68.2379 724.001 506.542
1606 0 105.363 14.0846 1484 69.1907 723.641 505.544
1607 0 108.71 14.7273 1601 68.732 723.594 501.56
1608 0 111.611 13.6546 1524 70.3242 723.605 498.125
1609 0 115.544 13.3196 1539 70.3912 723.747 499.354
1610 0 119.428 15.2393 1820 67.9192 723.724 497.668
1611 0 121.501 13.7201 1667 70.3485 724.239 495.843
1612 0 127.632 15.0198 1917 68.6515 723.819 495.801
1613 1 65.4204 13.6808 895 69.3665 723.358 524.89
1614 0 66.3399 12.5264 831 70.0289 724.259 526.259
1615 0 69.4734 12.8107 890 70.3978 723.692 523.669
1616 0 71.4392 12.4301 888 71.7804 723.437 521.804
1617 0 75.7605 13.0147 986 71.0467 724.06 518.99
1618 0 75.4151 13.5782 1024 71.0537 724.307 516.564
1619 0 77.4112 14.2098 1100 70.5745 724.037 515.205
1620 0 80.5928 13.562 1093 71.2672 724.128 513.152
1621 0 80.4016 13.8181 1111 71.2727 724.465 513.225
1622 0 84.3915 13.5085 1140 70.9991 724.069 515.922
1623 0 87.4073 12.2644 1072 73.1054 724.196 512.576
1624 0 88.492 13.1311 1162 71.9406 724.374 511.394
1625 0 89.4709 11.8921 1064 74.5526 724.545 506.802
1626 0 96.5459 13.4547 1299 70.5612 724.142 508.835
1627 0 97.5565 13.1001 1278 72.1573 724.048 502.865
1628 0 104.53 14.4648 1512 69.043 724.182 507.164
1629 0 104.577 11.207 1172 73.7287 723.767 505.3
1630 1 54.3615 11.4235 621 71.5588 723.86 528.934
1631 0 58.4808 13.9191 814 68.1941 723.328 527.215
1632 0 58.4848 13.2171 773 69.9392 723.775 523.154
1633 0 60.6329 12.9797 787 70.5515 724.421 522.017
1634 0 63.4156 13.4194 851 69.2738 724.044 524.156
1635 0 63.3196 12.9502 820 70.7451 724.377 520.861
1636 0 65.2886 13.3561 872 70.1858 724.189 518.382
1637 0 69.3092 13.5624 940 69.933 724.524 517.685
1638 0 70.3388 12.3261 867 71.0196 724.809 520.106
1639 0 73.4016 13.106 962 70.104 724.386 518.254
1640 0 76.6687 14.1388 1084 69.2998 724.648 514.322
1641 0 79.3387 14.6713 1164 67.3703 724.557 514.202
1642 0 82.4239 13.7824 1136 69.6188 724.378 513.907
1643 0 85.3506 14.8212 1265 68.434 723.982 511.64
1644 0 88.5253 14.4591 1280 68.732 724.409 508.468
1645 0 90.656 12.6302 1145 71.7747 724.148 509.475
1646 0 94.3131 14.4413 1362 69.2658 723.688 507.977
1647 0 96.4022 14.564 1404 70.161 724.603 506.08
1648 0 101.465 14.0049 1421 70.4567 724.377 504.658
1649 0 102.767 14.8005 1521 70.1558 724.295 500.462
1650 0 105.565 13.5557 1431 71.5863 724.546 502.168
1651 0 110.412 15.3697 1697 69.0059 724.364 500.449
1652 0 111.663 14.0244 1566 70.8346 723.754 498.821
1653 0 118.957 16.157 1922 67.55 723.502 497.294
1654 0 122.399 15.768 1930 67.9627 724.294 494.203
1655 1 62.3952 12.1965 761 71.4731 724.267 524.957
1656 0 62.484 13.0913 818 71.0721 724.117 523.219
1657 0 65.3467 13.8798 907 70.7784 724.611 520.54
1658 0 68.4644 12.9848 889 71.0472 724.115 520.747
1659 0 69.8903 13.3781 935 71.0824 723.967 517.616
1660 0 72.2716 13.5738 981 70.3894 723.988 519.959
1661 0 73.3812 12.6463 928 72.1164 724.094 514.291
1662 0 77.5391 11.865 920 73.3554 724.024 515.323
1663 0 79.4732 15.2001 1208 69.5952 724.404 512.036
1664 0 86.4661 15.1042 1306 68.5406 724.113 515.523
1665 0 88.6154 15.4149 1366 68.2745 723.763 513.447
1666 0 93.5736 15.5065 1451 68.1558 724.017 514.19
1667 0 93.2269 16.2936 1519 68.3871 723.924 508.714
1668 0 95.1162 17.5785 1672 66.704 724.102 509.428
1669 0 101.458 14.3705 1458 70.3121 723.802 506.431
1670 0 103.779 14.8103 1537 70.2986 724.12 507.383
1671 0 108.552 18.6363 2023 65.2714 723.86 501.56
1672 0 111.525 15.835 1766 68.0521 724.429 504.571
1673 0 115.443 15.5921 1800 68.7439 724.376 498.278
1674 0 117.386 14.7377 1730 69.8549 724.751 497.249
1675 0 124.537 14.4937 1805 69.6238 724.607 498.128
1676 1 61.1831 14.383 880 70.1818 724.26 524.07
1677 0 66.3384 14.019 930 70.0602 724.357 523.031
1678 0 65.8241 12.3359 812 72.0837 723.74 522.198
1679 0 70.4669 14.5458 1025 68.7405 723.659 521.839
1680 0 71.2408 13.9667 995 69.8583 723.822 519.37
1681 0 75.404 14.7074 1109 68.2065 724.42 519.143
1682 0 77.5277 14.4206 1118 68.331 723.993 518.723
1683 0 78.3161 14.5564 1140 68.5298 724.748 515.032
1684 0 80.5917 14.3067 1153 68.928 724.209 517.251
1685 0 86.637 15.1436 1312 66.8224 724.55 515.403
1686 0 86.1576 14.636 1261 68.2593 724.278 514.316
1687 0 88.4297 14.0564 1243 69.5205 724.179 510.975
1688 0 92.3262 15.3586 1418 66.7835 723.932 511.685
1689 0 97.6866 14.5875 1425 67.0175 723.686 509.448
1690 0 95.5253 14.8547 1419 67.6025 724.53 508.173
1691 0 96.6077 14.1604 1368 69.0607 723.982 501.899
1692 0 101.55 14.9188 1515 67.0647 724.167 506.23
1693 0 105.713 14.9934 1585 67.3344 724.639 501.485
1694 1 52.2927 14.1702 741 67.946 724.264 527.401
1695 0 55.7764 13.7693 768 66.388 723.517 528.773
1696 0 55.4382 13.709 760 66.9408 724.099 526.926
1697 0 54.206 14.3342 777 66.1467 724.014 526.771
1698 0 55.3078 13.7232 759 67.3491 724.6 522.913
1699 0 55.4761 13.5013 749 67.4139 724.461 523.669
1700 0 58.4377 12.355 722 67.8449 724.33 523.514
1701 0 61.2518 15.1179 926 64.8974 724.454 523.906
1702 0 65.6136 14.9359 980 64.149 723.995 523.054
1703 0 65.2881 15.041 982 64.61 723.941 519.769
1704 0 66.4863 14.8903 990 64.7414 723.757 521.087
1705 0 69.4358 14.5458 1010 64.4624 723.816 519.976
1706 0 68.4359 13.4432 920 66.1859 724.184 520.865
1707 0 73.5538 14.452 1063 65.5155 723.928 515.987
1708 0 77.5844 14.2554 1106 64.7459 724.167 517.975
1709 0 79.7414 14.8104 1181 64.1042 723.964 516.223
1710 0 79.3616 13.8228 1097 65.7612 723.65 513.938
1711 0 82.2434 13.5452 1114 66.246 724.356 512.833
1712 0 84.6121 13.3905 1133 67.3301 723.722 507.244
1713 0 88.5051 13.8071 1222 66.7979 723.723 509.152
1714 0 91.2602 15.8777 1449 64.94 724.145 506.833
1715 0 94.2195 13.1077 1235 66.8777 724.445 511.157
1716 0 100.534 15.6266 1571 64.5595 724.767 507.028
1717 0 102.265 13.3868 1369 67.5997 723.81 505.697
1718 1 49.3627 14.4036 711 67.6132 723.73 526.09
1719 0 54.6406 14.7509 806 66.6936 724.159 526.127
1720 0 57.3622 15.5329 891 65.9125 724.058 524.981
1721 0 57.1296 16.1912 925 66.3989 724.276 524.263
1722 0 58.3628 15.5921 910 67.1121 724.351 523.966
1723 0 62.1956 13.9238 866 68.1155 723.867 525.973
1724 0 63.0813 14.188 895 69.0939 723.508 522.336
1725 0 63.5378 13.8658 881 70.0897 723.943 520.821
1726 0 65.1505 15.3798 1002 68.6198 724.119 519.993
1727 0 66.6177 14.0954 939 70.7732 723.833 519.176
1728 0 68.4942 15.4174 1056 69.1553 723.49 518.296
1729 0 74.2701 14.2184 1056 69.8267 724.019 516.872
1730 0 75.5142 13.2425 1000 71.313 723.452 514.31
1731 0 81.2691 15.1226 1229 68.0195 724.097 515.775
1732 0 79.1288 14.1415 1119 70.3959 723.991 510.497
1733 0 85.4201 14.177 1211 69.616 723.615 509.731
1734 0 86.2618 14.5024 1251 69.6259 723.9 506.957
1735 0 90.318 11.9578 1080 71.9741 724.032 507.656
1736 0 94.4095 13.4308 1268 70.2579 723.479 504.2
1737 0 99.4647 16.2771 1619 65.7937 723.873 505.408
1738 1 48.5104 12.6571 614 69.5358 723.471 527.274
1739 0 46.1897 13.293 614 69.1254 724.181 528.881
1740 0 50.4179 13.5071 681 68.9824 724.217 527.363
1741 0 53.3913 13.8787 741 69.058 724.148 526.551
1742 0 54.1239 13.3767 724 69.9751 724.185 525.075
1743 0 57.3518 14.3152 821 69.0536 724.188 524.314
1744 0 59.2221 15.3152 907 68.0507 724.483 522.069
1745 0 62.6279 13.8117 865 69.0069 723.821 525.836
1746 0 62.243 13.0778 814 71.0848 723.859 523.722
1747 0 63.3544 14.6951 931 70.2094 723.639 521.423
1748 0 66.4469 14.3874 956 70.8473 723.9 520.665
1749 0 69.3638 13.2778 921 71.747 723.959 519.6
1750 0 73.1939 14.0722 1030 70.4398 723.724 520.515
1751 0 73.5245 14.6074 1074 70.8305 724.136 518.537
1752 0 74.6509 13.6368 1018 72.3988 724.114 518.958
1753 0 80.5584 14.3871 1159 71.1959 723.978 514.846
1754 0 78.5814 13.4383 1056 73.4195 723.815 513.356
1755 0 86.4162 15.7725 1363 68.9552 723.67 514.263
1756 0 88.329 14.163 1251 71.3046 724.133 511.654
1757 0 93.5101 14.4369 1350 70.8007 724.144 509.566
1758 0 96.8277 16.4829 1596 67.9273 723.84 510.185
1759 0 100.363 15.5634 1562 68.8054 724.261 509.207
1760 0 100.631 13.2464 1333 72.3406 723.18 507.978
1761 0 104.255 13.889 1448 72.4945 723.113 503.824
1762 1 54.5564 13.2523 723 69.3817 723.764 531.19
1763 0 54.3331 13.3804 727 69.978 724.084 528.437
1764 0 58.1823 15.0905 878 69.6264 723.809 528.308
1765 0 56.384 12.5035 705 74.3035 724.128 526.333
1766 0 62.4088 13.5398 845 70.5858 724.083 529.245
1767 0 62.4704 13.7825 861 72.1254 723.912 527.136
1768 0 66.3993 15.3164 1017 69.881 723.519 524.658
1769 0 66.4735 14.7728 982 71.2373 724.104 525.476
1770 0 66.5463 12.8332 854 74.2553 724.509 524.416
1771 0 70.4619 13.6244 960 74.1479 724.145 519.857
1772 0 69.2056 13.2793 919 75.2971 723.709 523.07
1773 0 73.4457 14.092 1035 74.6754 724.023 518.931
1774 0 74.2558 13.5478 1006 75.5954 723.834 520.094
1775 0 78.3849 14.0461 1101 74.9909 723.961 518.42
1776 0 80.3272 14.2168 1142 74.9168 723.165 515.99
1777 0 82.3177 13.9338 1147 75.4377 723.297 513.999
1778 0 87.3292 14.7144 1285 73.2132 723.581 516.507
1779 0 90.2041 15.3097 1381 72.9059 723.555 514.519
1780 0 92.2824 13.9572 1288 74.7896 723.23 510.193
1781 0 95.4449 12.5727 1200 76.6033 723.86 507.31
1782 0 96.2366 12.5836 1211 76.1775 724.221 509.093
1783 0 104.324 14.7425 1538 72.1229 724.438 506.903
1784 1 48.2292 14.0993 680 70.3779 724.432 534.665
1785 0 51.401 13.0542 671 74.3875 724.033 529.088
1786 0 49.6392 13.4571 668 75.1033 724.01 528.277
1787 0 54.2447 14.8402 805 71.8099 724.293 529.784
1788 0 54.2993 14.6042 793 72.1702 723.864 527.549
1789 0 59.3334 14.1067 837 72.3787 723.803 525.649
1790 0 55.4827 12.8869 715 75.2098 723.989 524.941
1791 0 62.2067 14.6126 909 71.4962 724.52 526.009
1792 0 65.2516 14.3905 939 72.2268 724.443 522.263
1793 0 64.5344 13.6052 878 73.0729 724.56 525.092
1794 0 68.3127 12.5745 859 75.3108 724.884 521.927
1795 0 70.3973 13.2249 931 74.5875 723.964 520.183
1796 0 70.387 13.9656 983 74.0743 723.725 518.467
1797 0 70.6051 14.8573 1049 73.2259 724.549 517.141
1798 0 73.2752 14.698 1077 73.3556 724.285 515.949
1799 0 78.4312 14.5733 1143 72.6264 723.999 515.785
1800 0 78.6399 14.0132 1102 74.6534 723.833 513.843
1801 0 83.6005 14.8923 1245 72.9606 724.398 514.2
1802 0 84.4554 14.4573 1221 73.9836 724.071 512.094
1803 0 86.2984 13.1984 1139 76.0061 724.411 511.69
1804 0 88.5744 14.2931 1266 74.3949 724.006 509.523
1805 0 91.7109 14.8837 1365 73.3663 723.968 508.09
1806 0 97.3685 12.1908 1187 76.5308 723.948 507.74
1807 0 100.327 14.4428 1449 72.8916 724.018 503.058
1808 0 102.309 12.472 1276 75.786 724.33 502.858
1809 1 54.3769 14.4547 786 70.2379 724.471 529.762
1810 0 50.234 13.3575 671 73.69 724.198 528.489
1811 0 57.5877 13.1278 756 72.91 724.146 528.885
1812 0 57.2608 12.3295 706 76.0439 723.669 524.838
1813 0 58.4537 12.4372 727 75.7098 723.772 524.132
1814 0 59.2576 14.0742 834 72.8189 724.267 527.053
1815 0 62.2872 13.518 842 73.8907 723.293 524.697
1816 0 65.3703 13.4312 878 74.0581 723.348 522.798
1817 0 66.5199 15.1083 1005 72.1761 723.49 521.6
1818 0 66.3203 13.1031 869 75.4453 723.472 520.428
1819 0 66.2378 15.1273 1002 73.0419 724.305 521.103
1820 0 74.4756 13.1587 980 74.2633 723.494 521.704
1821 0 76.4085 16.2286 1240 70.3032 723.875 519.304
1822 0 79.2214 15.8922 1259 70.7855 724.117 516.75
1823 0 83.9492 14.211 1193 71.7686 723.515 518.049
1824 0 83.5667 14.5393 1215 72.73 723.738 515.837
1825 0 87.5881 14.7623 1293 71.966 723.717 515.878
1826 0 90.701 14.9723 1358 71.3601 723.839 511.87
1827 0 92.582 14.0524 1301 72.7302 723.956 510.415
1828 0 95.3595 15.1742 1447 71.0456 723.61 508.654
1829 0 96.4671 14.3054 1380 72.6399 723.467 505.583
1830 0 101.427 15.7552 1598 70.3974 723.037 505.472
1831 1 48.6599 12.3305 600 72.305 723.067 531.852
1832 0 47.2518 13.6291 644 72.0031 723.463 532.318
1833 0 50.3863 12.6622 638 72.9373 723.444 530.658
1834 0 52.6761 13.1938 695 71.3626 723.4 532.911
1835 0 55.3229 14.6232 809 70.1718 722.812 530.234
1836 0 54.3619 14.753 802 70.6172 722.913 530.96
1837 0 54.3689 13.9418 758 72.653 723.45 529.36
1838 0 58.7124 14.5796 856 72.0234 723.231 527.395
1839 0 59.8979 14.1741 849 72.3486 723.134 526.578
1840 0 59.3866 15.5254 922 71.0878 723.124 526.082
1841 0 61.3854 14.5311 892 72.8901 723.121 525.804
1842 0 63.5525 14.0514 893 72.626 722.804 525.679
1843 0 65.3872 14.1006 922 72.8482 723.416 525.002
1844 0 69.8938 17.3263 1211 68.0818 723.634 524.691
1845 0 71.4708 13.3481 954 73.9633 723.468 523.028
1846 0 72.642 14.3856 1045 72.6048 723.69 521.935
1847 0 72.5666 15.8337 1149 71.5527 723.626 518.014
1848 0 76.6899 13.861 1063 73.8721 722.862 519.079
1849 0 78.8213 14.8056 1167 71.4284 723.561 521.334
1850 0 78.4238 13.4908 1058 75.1484 722.606 516.575
1851 0 82.8441 13.5073 1119 74.6613 723.163 514.149
1852 0 84.3816 14.6833 1239 72.9459 723.434 515.441
1853 0 87.2319 13.6418 1190 75.1706 722.71 510.356
1854 0 91.688 15.1274 1387 71.6013 723.191 514.153
1855 0 95.429 14.5972 1393 72.4982 723.753 509.77
1856 0 99.3468 14.8268 1473 71.5825 723.604 508.786
1857 0 99.4144 13.7103 1363 74.4417 723.15 504.417
1858 0 104.521 15.1262 1581 71.6951 722.986 507.061
1859 1 50.4878 14.3401 724 71.1588 723.931 530.746
1860 0 52.279 12.9497 677 72.7873 723.377 530.318
1861 0 53.5106 13.4179 718 73.5265 723.678 528.858
1862 0 54.4979 14.5694 794 72.5353 723.229 526.936
1863 0 57.3717 14.4496 829 72.5911 723.36 527.247
1864 0 58.4482 14.6626 857 72.7888 723.609 527.342
1865 0 59.3033 12.6806 752 76.121 723.223 525.83
1866 0 61.3003 13.8009 846 74.0485 723.738 525.831
1867 0 62.6021 11.8367 741 77.8205 723.321 523.655
1868 0 66.3971 14.4283 958 73.4426 722.664 523.863
1869 0 64.68 14.1002 912 76.0088 723.003 520.809
1870 0 67.3018 14.0561 946 75.8541 722.968 521.72
1871 0 66.414 15.027 998 75.6523 723.26 520.099
1872 0 72.4974 14.0833 1021 75.1548 723.469 521.99
1873 0 76.6731 15.8987 1219 72.3651 723.537 520.171
1874 0 77.527 14.4079 1117 75.7252 723.398 515.175
1875 0 78.3563 15.672 1228 73.3347 722.848 515.909
1876 0 80.1109 15.179 1216 74.625 722.964 514.314
1877 0 81.3304 14.9636 1217 74.4158 722.989 515.726
1878 0 83.6247 14.2781 1194 76.0402 722.863 511.812
1879 0 88.3487 15.835 1399 73.1251 722.734 509.009
1880 0 90.523 15.2889 1384 74.297 723.276 506.597
1881 0 96.6424 14.3208 1384 74.8497 723.037 506.251
1882 0 98.2957 14.7921 1454 73.879 723.397 505.609
1883 0 101.364 11.8977 1206 78.3242 723.376 500.92
1884 1 46.0739 13.3915 617 75.3322 723.306 528.449
1885 0 50.1114 14.2483 714 73.9398 723.164 528.905
1886 0 54.3804 13.9388 758 74.339 723.364 526.678
1887 0 49.3521 13.6165 672 77.0432 724.003 527.134
1888 0 53.3356 12.6745 676 77.926 723.164 526.407
1889 0 56.1921 11.692 657 79.4338 723.28 526.326
1890 0 59.1952 13.9876 828 74.8056 722.406 526.374
1891 0 62.1667 12.8525 799 76.8048 722.427 525.995
1892 0 65.2427 15.7106 1025 72.7941 722.356 524.744
1893 0 67.4361 14.0281 946 75.3383 722.928 524.005
1894 0 70.2962 15.0506 1058 75.1853 722.566 521.905
1895 0 68.3203 12.5731 859 80.7893 722.509 517.421
1896 0 72.4849 14.7893 1072 75.8284 722.349 521.004
1897 0 73.3804 13.5322 993 78.7936 723.236 516.5
1898 0 75.7722 13.3426 1011 77.7656 723.174 518.735
1899 0 80.875 14.4668 1170 75.3812 724.101 517.084
1900 0 83.6854 14.447 1209 74.8966 723.849 518.263
1901 0 83.6759 13.4925 1129 77.0585 723.527 513.116
1902 0 87.3011 14.9368 1304 73.4417 723.521 515.898
1903 0 91.8892 13.7992 1268 75.071 723.614 511.728
1904 0 92.4186 15.0294 1389 73.9978 723.782 509.285
1905 0 95.5144 13.956 1333 74.7329 723.522 510.153
1906 0 97.4638 13.092 1276 76.0055 723.527 508.366
1907 1 49.2915 9.14965 451 80.4302 723.67 526.222
1908 0 53.7163 12.7522 685 73.981 724.093 527.126
1909 0 53.5311 12.2172 654 75.7003 723.797 525.81
1910 0 54.3712 14.1435 769 73.0494 724.285 527.615
1911 0 57.5928 12.38 713 75.9032 723.871 522.393
1912 0 60.3398 13.2085 797 73.5207 723.797 524.854
1913 0 59.4116 11.9505 710 76.7437 723.004 523.382
1914 0 62.2694 14.5818 908 72.3557 724.032 525.502
1915 0 65.731 14.6506 963 72.2731 724.279 523.699
1916 0 65.4739 14.9983 982 72.5723 723.972 522.878
1917 0 69.3756 14.2846 991 73.2936 724.033 521.293
1918 0 72.33 15.692 1135 70.7877 723.508 521.557
1919 0 73.5214 12.731 936 75.2553 723.682 520.088
1920 0 74.4717 13.8039 1028 74.4669 724.206 520.023
1921 0 76.6988 13.3248 1022 75.3249 724.065 516.034
1922 0 78.7714 15.0689 1187 73.2384 723.927 514.683
1923 0 82.5261 15.4618 1276 72.3511 724.092 515.306
1924 0 84.7163 15.4044 1305 72.4521 724.27 515.627
1925 0 85.5061 13.461 1151 75.3241 723.53 515.478
1926 0 83.4895 12.6483 1056 77.6818 722.979 510.777
1927 0 90.604 12.5491 1137 76.9252 723.622 509.522
1928 0 89.5847 13.931 1248 76.2252 723.762 507.398
1929 0 94.5217 12.431 1175 77.8519 723.182 502.23
1930 0 94.5411 14.5968 1380 74.5609 723.394 506.672
1931 0 102.482 13.8854 1423 74.8103 723.599 503.522
1932 0 107.598 14.3033 1539 73.1663 723.294 506.829
1933 0 111.941 14.8382 1661 72.9223 723.384 502.746
1934 0 115.466 14.4198 1665 73.1369 722.699 503.652
1935 0 119.719 14.6092 1749 72.7433 722.815 500.501
1936 0 122.811 14.7381 1810 72.3254 722.807 501.309
1937 1 63.2492 13.012 823 73.8761 722.399 522.842
1938 0 66.3569 13.6082 903 73.5061 722.271 524.093
1939 0 69.5142 13.9396 969 72.7915 721.999 522.774
1940 0 72.4795 12.4863 905 74.1613 722.073 524.031
1941 0 75.5516 14.1493 1069 72.0683 722.351 522.682
1942 0 76.7799 14.9909 1151 71.4162 722.11 521.237
1943 0 76.4647 12.0971 925 76.3503 721.922 515.617
1944 0 82.625 14.8623 1228 71.3013 721.528 520.379
1945 0 84.8606 15.1307 1284 70.6807 721.65 521.018
1946 0 86.9027 15.7878 1372 70.2223 721.35 518.192
1947 0 88.849 14.1026 1253 72.7111 721.293 513.587
1948 0 88.4771 14.7722 1307 72.2012 720.79 513.59
1949 0 94.5576 13.9386 1318 72.7557 720.753 512.362
1950 0 99.7181 15.0524 1501 70.9187 720.665 508.094
1951 0 99.3919 15.4439 1535 70.6684 720.788 510.594
1952 0 104.666 13.7581 1440 72.4951 720.524 508.183
1953 0 102.13 13.6395 1393 74.0144 720.859 504.702
1954 0 110.45 13.1643 1454 74.1004 720.823 502.741
1955 1 56.5813 11.6823 661 73.351 720.759 530.517
1956 0 58.4146 15.3044 894 69.6432 721.186 529.161
1957 0 61.5721 13.9024 856 71.1122 720.793 529.579
1958 0 60.9878 13.5273 825 72.1564 720.558 527.712
1959 0 59.2927 13.8466 821 73.6748 721.136 524.259
1960 0 65.7763 12.9682 853 73.5498 721.597 525.106
1961 0 63.3822 14.0103 888 73.2444 721.68 523.757
1962 0 69.4518 13.045 906 74.1291 721.936 523.02
1963 0 70.2147 13.6723 960 73.6385 721.869 523.241
1964 0 75.7284 15.3047 1159 70.9379 722.62 523.167
1965 0 75.4437 14.3948 1086 73.3527 722.37 521.589
1966 0 77.5914 13.1845 1023 75.5435 722.495 518.287
1967 0 79.7249 14.0608 1121 73.7556 722.274 519.748
1968 0 83.7132 13.7254 1149 74.4473 722.24 517.179
1969 0 86.9535 14.111 1227 74.2249 722.396 512.531
1970 0 84.6183 13.4132 1135 76.8335 722.26 510.754
1971 0 91.9232 14.0117 1288 74.5241 722.859 510.399
1972 0 95.9062 14.2118 1363 74.5004 722.554 509.217
1973 0 94.3262 13.6441 1287 75.1134 722.617 509.545
1974 0 96.359 14.7366 1420 74.2014 722.742 503.768
1975 0 103.622 14.6398 1517 73.1055 722.499 502.069
1976 0 107.549 15.2488 1640 72.2043 722.538 500.074
1977 0 111.656 13.7655 1537 73.4327 722.762 501.297
1978 0 114.274 15.2965 1748 71.7231 722.752 498.293
1979 0 115.461 16.0401 1852 71.1722 723.87 495.34
1980 1 63.5491 13.2181 840 73.3821 723.494 522.96
1981 0 63.2347 14.4383 913 73.1172 723.425 521.407
1982 0 64.2509 14.0854 905 74.0431 722.692 519.08
1983 0 72.82 12.4554 907 74.7034 723.122 518.434
1984 0 75.5809 15.0832 1140 71.2623 723.471 519.125
1985 0 73.5104 13.6579 1004 74.6225 722.719 516.28
1986 0 76.1672 14.6651 1117 72.7055 723.669 517.448
1987 0 79.4915 13.9386 1108 73.5108 723.729 515.033
1988 0 79.3215 13.3507 1059 74.9008 723.569 511.218
1989 0 84.3818 14.3514 1211 73.4649 723.785 512.244
1990 0 85.4484 13.9968 1196 74.6421 723.818 509.885
1991 0 90.69 12.9893 1178 75.4694 723.376 508.182
1992 0 91.5001 14.6339 1339 74.0739 723.625 504.618
1993 0 97.5623 13.7861 1345 74.0587 723.916 505.249
1994 0 101.687 13.7284 1396 73.7586 723.812 504.375
1995 0 100.546 14.4411 1452 74.0145 723.766 502.01
1996 0 107.441 13.4958 1450 74.8483 723.773 501.236
1997 0 109.293 13.4683 1472 75.1732 723.802 498.125
1998 1 52.2111 14.9585 781 71.5608 723.497 525.768
1999 0 55.4661 13.7742 764 72.5079 723.81 525.347
2000 0 52.4852 12.6321 663 75.9668 724.18 522.044
2001 0 56.2317 14.2269 800 72.9 723.68 523.49
2002 0 59.5147 13.022 775 74.3368 724.474 521.156
2003 0 60.1987 15.0502 906 71.5486 724.188 519.632
2004 0 60.8096 12.9091 785 74.9758 724.266 518.371
2005 0 66.0788 16.6922 1103 68.5984 724.151 520.189
2006 0 65.1179 14.6503 954 72.1111 724.227 516.91
2007 0 66.1407 14.0609 930 73.3064 724.323 514.798
2008 0 69.6242 13.458 937 73.6243 723.986 513.159
2009 0 74.4164 14.2442 1060 71.6113 724.078 515.187
2010 0 75.498 15.06 1137 70.9815 723.74 512.531
2011 0 77.3073 14.4876 1120 71.9705 723.941 513.844
2012 0 84.3976 13.9104 1174 71.8348 723.648 511.428
2013 0 86.1294 15.6625 1349 69.083 723.918 514.01
2014 0 89.7624 15.2737 1371 69.2575 723.678 511.783
2015 0 91.4091 13.3794 1223 72.6836 724.3 505.598
2016 0 94.4963 14.064 1329 71.1603 723.61 506.501
2017 0 91.298 13.6367 1245 73.3719 723.468 503.18
2018 0 94.6807 14.2901 1353 71.9904 723.174 501.429
2019 0 101.077 16.809 1699 68.3873 723.603 502.251
2020 0 108.324 14.6966 1592 70.429 723.58 500.879
2021 1 53.155 14.0344 746 72.0992 723.716 522.786
2022 0 57.4797 13.918 800 71.1962 723.562 523.472
2023 0 55.2681 13.8235 764 72.61 723.819 522.514
2024 0 58.4536 11.5647 676 75.1775 723.975 520.843
2025 0 62.4935 13.2014 825 73.1152 723.935 519.664
2026 0 65.4609 15.6429 1024 69.125 724.158 521.425
2027 0 68.5573 15.4469 1059 69.2691 723.436 522.27
2028 0 69.5643 14.4758 1007 71.1668 723.393 518.459
2029 0 69.3301 14.6401 1015 72.0325 723.459 517.528
2030 0 74.2902 14.1203 1049 71.9485 723.33 516.02
2031 0 72.5509 13.5215 981 74.261 723.073 516.424
2032 0 76.2936 15.034 1147 71.041 722.87 518.065
2033 0 79.6425 15.4691 1232 70.948 723.681 516.827
2034 0 83.4271 13.7965 1151 73.146 722.986 514.437
2035 0 86.4571 15.2677 1320 71.1758 722.136 512.726
2036 0 87.2368 15.2459 1330 71.3895 722.363 513.55
2037 0 92.9037 15.4461 1435 70.5784 723.022 514.489
2038 0 93.239 16.4523 1534 69.4596 723.395 513.21
2039 0 96.5588 14.4679 1397 72.7373 723.329 505.973
2040 0 99.3083 15.7389 1563 71.2898 723.654 506.392
2041 0 104.455 14.4081 1505 72.1821 723.31 505.805
2042 1 49.561 13.3775 663 72.1538 722.796 530.276
2043 0 48.1612 11.9391 575 75.56 722.857 527.986
2044 0 51.4181 15.0142 772 70.0648 722.354 531.703
2045 0 53.121 13.8552 736 73.1087 723.19 528.109
2046 0 54.1293 13.3015 720 73.7431 723.078 528.44
2047 0 56.454 15.3931 869 71.2785 723.085 528.388
2048 0 59.1057 14.0934 833 72.9232 722.898 529.192
2049 0 58.1675 15.6445 910 72.5418 722.772 526.552
2050 0 60.1659 15.8395 953 72.1962 723.012 527.275
2051 0 62.1403 15.0144 933 73.4062 722.161 526.792
2052 0 65.401 14.801 968 73.6766 721.908 524.381
2053 0 65.2756 14.4158 941 75.4984 722.143 522.307
2054 0 68.7013 16.9575 1165 71.6532 722.628 523.137
2055 0 72.1843 14.3244 1034 74.971 722.398 523.514
2056 0 70.5341 14.2768 1007 75.9881 721.912 522.17
2057 0 72.3077 15.1021 1092 74.8663 722.608 522.015
2058 0 74.5606 12.6743 945 78.9238 722.138 518.002
2059 0 78.5816 15.2835 1201 74.5787 722.135 519.893
2060 0 79.451 13.845 1100 79.9491 722.457 517.714
2061 0 80.3961 14.5032 1166 79.4717 722.348 514.178
2062 0 84.1262 14.9775 1260 77.8579 722.306 516.253
2063 0 86.201 13.8861 1197 79.9215 722.04 512.251
2064 0 88.1344 14.5687 1284 79.1378 722.658 514.351
2065 0 94.3372 16.3456 1542 75.4092 722.591 512.603
2066 0 96.2948 14.8606 1431 78.2362 722.145 509.006
2067 0 96.1893 14.1388 1360 80.1485 722.374 505.769
2068 0 102.493 15.2108 1559 77.9615 721.575 506.911
2069 0 107.382 15.6637 1682 76.8448 721.91 506.594
2070 1 51.1222 14.2991 731 77.4227 721.711 530.45
2071 0 52.1163 16.137 841 74.5172 722.042 531.57
2072 0 54.2863 15.4919 841 75.9156 721.818 530.969
2073 0 55.3043 13.2178 731 79.4638 721.275 530.163
2074 0 57.1401 15.8908 908 75.4207 722.281 531.132
2075 0 58.1754 14.25 829 78.9904 721.416 528.31
2076 0 60.2549 15.4676 932 77.0987 721.643 527.225
2077 0 58.3454 13.8828 810 80.7753 721.514 524.133
2078 0 62.1827 16.355 1017 76.8446 721.738 525.332
2079 0 63.0779 13.4278 847 81.954 721.584 524.018
2080 0 64.4174 14.7786 952 80.2605 722.145 523.232
2081 0 68.3076 14.0541 960 80.6698 721.675 523.386
2082 0 71.223 15.9218 1134 77.8651 722.012 522.809
2083 0 71.0347 13.9509 991 80.3865 722.046 522.941
2084 0 74.1647 14.5757 1081 80.3941 721.714 519.995
2085 0 74.1647 14.6026 1083 153.805 721.712 520.13
2086 0 78.1389 14.8966 1164 79.4253 721.9 519.217
2087 0 82.1917 15.4638 1271 78.1786 722.307 518.507
2088 0 82.1578 15.385 1264 78.4074 722.246 515.843
2089 0 84.2126 14.9384 1258 79.6479 721.851 513.948
2090 0 88.1973 14.7624 1302 79.8157 721.816 511.668
2091 0 91.1052 14.8619 1354 78.5118 722.084 514.462
2092 0 91.1034 13.8195 1259 81.3439 722.355 506.325
2093 0 96.1606 14.611 1405 79.4662 721.996 507.868
2094 0 98.3674 13.7037 1348 80.5193 722.237 507.249
2095 0 100.434 13.6706 1373 81.0204 722.703 505.35
2096 0 103.389 14.2665 1475 80.1376 722.21 503.226
2097 1 51.1116 12.5412 641 79.2309 722.354 530.797
2098 0 55.121 12.7175 701 81.0813 722.146 527.257
2099 0 54.078 13.8134 747 80.0536 722.266 528.744
2100 0 59.1792 13.3324 789 79.7212 721.956 527.705
2101 0 62.439 16.0477 1002 75.6138 722.38 527.562
2102 0 64.3369 14.7971 952 77.7248 722.898 524.931
2103 0 63.0947 13.0597 824 81.2767 722.776 523.426
2104 0 63.108 13.7225 866 81.343 722.55 520.819
2105 0 67.1247 14.4209 968 79.4638 722.527 520.532
2106 0 68.1359 14.4858 987 79.383 722.576 520.801
2107 0 70.3 13.4282 944 81.5064 721.784 519.602
2108 0 72.153 13.8872 1002 80.8204 722.185 517.741
2109 0 73.1081 13.8835 1015 80.3192 722.37 518.548
2110 0 78.4732 14.7311 1156 78.1834 722.253 518.673
2111 0 79.1124 12.0841 956 82.1464 722.506 516.349
2112 0 85.3503 16.1335 1377 75.1169 722.521 515.998
2113 0 85.1674 14.994 1277 77.2428 722.836 515.359
2114 0 87.4088 14.4493 1263 78.3571 722.89 511.933
2115 0 90.3318 14.5907 1318 77.9074 722.677 508.905
2116 0 93.3358 14.6246 1365 77.6952 722.539 509.561
2117 0 95.2475 14.877 1417 77.1334 722.313 509.857
2118 0 97.1918 13.9312 1354 78.6521 722.456 507.66
2119 0 102.379 14.7198 1507 77.2668 722.512 506.272
2120 0 104.226 14.5069 1512 77.9431 722.213 500.849
2121 0 107.171 13.7071 1469 78.9483 722.457 502.018
2122 0 111.593 13.594 1517 79.6645 722.131 498.407
2123 1 57.2786 12.1337 695 79.6043 722.41 523.619
2124 0 59.1388 12.3608 731 79.9932 721.569 522.856
2125 0 63.1325 13.6063 859 77.8428 722.66 523.013
2126 0 66.2899 14.7081 975 75.9149 722.609 522.9
2127 0 68.148 12.9131 880 78.9727 722.123 520.534
2128 0 70.0772 13.9132 975 77.0677 722.607 522.628
2129 0 69.215 14.39 996 77.4679 721.917 522.565
2130 0 73.1858 15.8501 1160 75.4629 721.779 520.523
2131 0 74.2869 13.5152 1004 79.2151 722.411 520.545
2132 0 76.1157 15.148 1153 76.6435 722.954 521.888
2133 0 80.1178 14.4912 1161 77.6641 722.485 518.358
2134 0 81.1992 14.0642 1142 78.3765 722.348 515.171
2135 0 86.1419 15.3003 1318 75.302 722.853 518.907
2136 0 86.2075 13.5835 1171 78.8933 722.342 516.127
2137 0 90.0548 13.936 1255 78.2335 722.139 511.908
2138 0 91.2985 15.7286 1436 76.1838 722.311 511.822
2139 0 96.2646 13.4213 1292 79.0155 722.957 509.462
2140 0 96.7666 14.3335 1387 77.8032 722.673 510.219
2141 0 100.286 14.5783 1462 77.7004 722.363 507.393
2142 0 103.079 16.4826 1699 74.8117 722.756 505.448
2143 0 109.215 14.2563 1557 77.1676 722.592 504.325
2144 1 57.4395 12.1171 696 77.4899 722.059 528.792
2145 0 61.1581 12.574 769 77.5553 721.91 525.784
2146 0 59.2556 12.5389 743 79.3311 722.137 521.886
2147 0 63.716 13.5916 866 76.5254 721.242 522.633
2148 0 66.5105 14.2233 946 75.2717 721.163 523.18
2149 0 68.3193 14.6518 1001 74.6863 721.124 522.338
2150 0 69.2967 14.0699 975 75.9251 721.068 521.175
2151 0 67.51 13.9979 945 76.6233 721.606 520.208
2152 0 72.2087 13.0871 945 77.8455 721.308 516.695
2153 0 72.3518 13.5449 980 78.1939 721.766 515.674
2154 0 77.433 13.9088 1077 76.4299 721.299 518.748
2155 0 75.2634 12.4629 938 79.3284 721.951 515.286
2156 0 79.0932 14.2743 1129 77.4216 721.996 513.438
2157 0 83.2422 13.9112 1158 77.1857 721.701 511.934
2158 0 86.2571 13.3438 1151 77.2554 722.117 511.294
2159 0 92.6649 14.7737 1369 74.2345 721.675 512.378
2160 0 93.301 13.2903 1240 77.1444 721.802 507.519
2161 0 89.2324 12.8205 1144 78.9991 722.126 505.886
2162 1 101.121 13.2514 1340 76.2202 721.835 505.744
2163 0 105.412 14.4955 1528 74.3174 721.798 504.26
2164 0 108.417 13.9922 1517 74.3863 721.773 501.35
2165 0 105.25 14.5463 1531 74.7296 722.005 499.858
2166 0 114.188 14.1434 1615 74.3827 722.113 496.313
2167 0 120.228 14.3976 1731 73.3934 722.486 498.637
2168 0 122.173 14.283 1745 73.8441 721.918 495.551
2169 1 68.3762 12.8407 878 74.9715 721.818 520.353
2170 0 73.2217 13.5479 992 72.7792 722.236 522.451
2171 0 64.0669 12.3465 791 76.536 722.842 519.406
2172 0 73.2263 11.4849 841 77.6932 722.631 513.817
2173 0 76.174 14.1256 1076 73.1877 722.378 519.988
2174 0 78.4923 10.9565 860 78.1337 722.715 514.829
2175 0 84.3645 14.5914 1231 72.2526 722.368 515.084
2176 0 87.1168 14.7847 1288 71.955 722.703 514.561
2177 0 89.6099 14.3511 1286 72.8305 722.075 514.543
2178 0 91.4784 13.6644 1250 75.0008 722.42 505.847
2179 0 93.1578 13.6435 1271 74.6105 722.57 508.126
2180 0 95.2626 13.4995 1286 75.3087 722.569 508.88
2181 0 99.5656 13.7799 1372 74.3972 722.601 506.836
2182 0 104.297 14.497 1512 73.037 722.605 506.486
2183 0 105.743 14.6298 1547 73.9354 722.619 502.412
2184 0 111.437 14.8963 1660 72.8199 722.467 500.334
2185 0 113.474 14.2763 1620 73.6074 722.664 501.909
2186 0 118.231 15.3598 1816 71.8051 722.405 502.22
2187 1 58.4859 12.3449 722 75.1053 722.839 523.878
2188 0 62.4992 13.1202 820 73.4085 722.36 523.609
2189 0 65.8305 14.0361 924 72.1591 722.094 524.872
2190 0 65.7203 13.7705 905 72.8575 722.033 524.354
2191 0 70.3609 14.9231 1050 70.621 722.54 523.952
2192 0 70.4568 16.0524 1131 70.5305 721.631 520.461
2193 0 72.5494 14.4591 1049 72.5148 722.198 521.683
2194 0 72.512 13.6529 990 73.8798 722.328 521.65
2195 0 78.5392 16.705 1312 69.8034 722.258 520.199
2196 0 77.3493 14.2729 1104 73.7029 721.862 519.641
2197 0 81.5394 15.5017 1264 72.0404 721.862 515.945
2198 0 81.4283 13.865 1129 75.0452 722.484 514.836
2199 0 85.3381 13.0188 1111 75.847 722.374 513.275
2200 0 89.4972 14.872 1331 72.9782 722.174 513.687
2201 0 91.269 14.3313 1308 73.789 722.169 514.259
2202 0 94.2986 16.0448 1513 71.9418 722.034 511.95
2203 0 99.5311 16.9897 1691 70.1141 722.622 511.885
2204 0 99.736 14.4782 1444 74.2181 722.449 506.715
2205 0 104.558 15.3695 1607 72.6851 722.261 504.765
2206 0 108.536 15.663 1700 71.6165 722.227 505.478
2207 0 109.472 14.5973 1598 73.6064 722.362 502.497
2208 0 112.224 14.1591 1589 74.4393 722.262 501.002
2209 1 62.665 14.5057 909 71.0649 722.695 528.637
2210 0 61.4494 13.3443 820 72.7634 722.346 527.226
2211 0 65.7053 13.5606 891 71.7632 722.515 527.988
2212 0 67.5946 14.0692 951 72.0053 722.697 525.427
2213 0 67.2924 14.5633 980 72.2674 722.158 525.267
2214 0 67.2927 12.8394 864 76.2222 722.726 519.097
2215 0 71.7399 12.6568 908 74.9515 722.535 524.033
2216 0 72.633 14.1258 1026 74.2398 721.894 521.89
2217 0 74.4967 14.3228 1067 74.4405 721.921 520.447
2218 0 77.3291 14.2767 1104 74.1495 722.023 520.498
2219 0 81.6278 14.4926 1183 73.5689 722.436 519.541
2220 0 83.6719 15.4293 1291 72.2843 722.356 518.772
2221 0 82.3359 13.3963 1103 76.8522 722.734 514.973
2222 0 85.5091 12.8407 1098 77.8197 722.697 514.189
2223 0 88.3585 13.864 1225 76.1412 722.624 514.127
2224 0 91.7295 14.2157 1304 75.8681 721.887 512.969
2225 0 94.5867 14.1458 1338 75.4836 722.788 514.311
2226 0 94.4285 12.4115 1172 79.4838 722.631 507.433
2227 0 101.701 14.523 1477 75.6791 722.837 509.102
2228 0 106.871 15.0088 1604 74.49 722.649 510.444
2229 0 108.21 15.9134 1722 73.5076 723.348 508.377
2230 0 111.494 13.92 1552 76.4955 723.492 505.701
2231 0 113.601 14.234 1617 76.5554 723.392 502.777
2232 0 115.381 13.7111 1582 78.0594 722.857 498.719
2233 1 62.5516 12.6456 791 76.7737 723.107 525.788
2234 0 66.2597 12.3755 820 78.0744 723.601 524.522
2235 0 68.545 11.89 815 78.9018 723.79 522.011
2236 0 69.5515 14.9098 1037 74.8544 723.669 523.69
2237 0 71.3146 14.2888 1019 76.0942 723.702 522.204
2238 0 74.4929 13.7194 1022 76.9863 723.811 521.098
2239 0 76.1768 14.3482 1093 76.8463 723.516 517.607
2240 0 78.8286 14.0178 1105 76.8452 723.485 518.5
2241 0 81.5564 14.6892 1198 76.1753 723.892 517.226
2242 0 82.3768 12.0422 992 80.5837 723.827 516.497
2243 0 88.4794 14.5344 1286 75.8406 723.7 516.506
2244 0 88.5718 14.1128 1250 76.8536 723.446 515.554
2245 0 92.3302 14.2099 1312 76.279 723.858 515.175
2246 0 96.688 15.6793 1516 74.4941 723.662 512.558
2247 0 96.5456 14.1177 1363 77.0499 722.903 511.635
2248 0 101.49 14.2082 1442 76.4202 723.418 510.329
2249 0 104.955 14.0632 1476 76.21 723.28 509.941
2250 0 106.78 13.4482 1436 78.0975 722.855 505.151
2251 0 111.767 14.5034 1621 75.7434 722.99 506.919
2252 0 114.685 14.3524 1646 76.952 723.127 502.71
2253 0 116.523 14.1946 1654 76.9891 722.676 497.874
2254 0 123.53 14.8871 1839 74.5536 723.165 502.309
2255 0 126.371 15.4703 1955 74.7893 723.261 498.033
2256 0 129.735 15.9093 2064 74.1977 723.084 495.34
2257 0 131.463 13.829 1818 77.577 723.301 492.802
2258 0 137.774 15.3149 2110 75.6972 723.426 490.419
2259 0 143.427 15.0112 2153 75.2805 723.089 491.678
2260 0 144.717 13.0393 1887 79.1023 723.428 484.297
2261 0 151.673 14.7818 2242 75.8162 723.302 488.543
2262 1 85.6032 14.135 1210 74.6256 723.759 518.593
2263 0 87.5635 14.1269 1237 74.7728 723.679 517.689
2264 0 89.6491 14.5679 1306 75.3476 723.142 513.577
2265 0 92.6752 14.8799 1379 74.6853 722.923 513.453
2266 0 95.5384 13.3454 1275 77.4424 723.962 512.896
2267 0 98.6401 13.311 1313 77.7075 723.381 510.331
2268 0 100.422 15.1262 1519 74.8354 723.552 511.755
2269 0 101.384 12.7535 1293 79.4285 723.264 505.741
2270 0 105.432 14.4359 1522 76.9842 723.315 504.043
2271 0 109.598 15.3105 1678 74.9046 723.59 507.91
2272 0 111.597 15.2244 1699 75.4844 723.105 505.192
2273 0 114.409 14.1773 1622 77.4501 723.151 502.967
2274 0 117.688 13.1024 1542 79.1135 723.503 499.443
2275 0 122.532 14.1922 1739 76.644 723.108 501.024
2276 0 124.708 14.8667 1854 75.788 723.517 499.376
2277 0 127.403 12.9588 1651 78.6608 723.174 497.366
2278 0 134.56 13.756 1851 76.7904 723.427 493.517
2279 0 140.686 14.1023 1984 76.1053 722.496 491.44
2280 0 141.752 12.6489 1793 78.3285 723.815 484.48
2281 0 149.654 14.6137 2187 74.1555 723.405 489.784
2282 1 76.3909 13.0906 1000 75.267 723.201 520.967
2283 0 80.3953 13.0729 1051 73.8601 723.314 520.229
2284 0 79.5678 12.2411 974 76.306 723.474 516.296
2285 0 86.7761 14.6699 1273 71.9505 723.1 515.657
2286 0 85.5074 14.4432 1235 72.7749 723.828 514.76
2287 0 91.4232 14.5259 1328 71.2583 723.302 515.062
2288 0 94.4112 13.1552 1242 73.4863 723.843 511.261
2289 0 93.6747 13.3547 1251 74.2062 724.17 508.968
2290 0 98.2765 14.215 1397 72.5741 723.805 507.152
2291 0 101.765 15.3393 1561 70.4792 723.548 507.852
2292 0 100.67 12.4566 1254 74.5885 723.879 502.268
2293 0 106.401 13.1484 1399 73.1851 723.783 502.13
2294 0 111.471 13.8781 1547 71.691 723.252 500.419
2295 0 115.522 14.6725 1695 69.9451 723.741 501.69
2296 0 119.516 13.9563 1668 70.6091 723.528 499.306
2297 0 124.354 13.1962 1641 71.8306 722.9 493.258
2298 1 64.4062 12.3591 796 71.8153 723.773 519.568
2299 0 66.6079 13.7671 917 69.3555 724.196 523.492
2300 0 69.5301 13.5625 943 69.0085 723.854 520.732
2301 0 70.5296 12.0658 851 71.027 724.323 518.895
2302 0 73.4616 15.9131 1169 66.4465 723.677 519.084
2303 0 74.7902 14.7078 1100 67.2473 723.454 520.465
2304 0 77.515 12.991 1007 69.8123 724.121 517.292
2305 0 80.6225 15.5788 1256 66.418 723.611 518.232
2306 0 84.2721 14.5718 1228 67.4837 723.499 518.121
2307 0 85.4585 14.0653 1202 68.8536 723.996 515.693
2308 0 85.5172 12.9915 1111 71.3348 724.174 511.956
2309 0 89.417 14.5722 1303 69.4374 723.22 511.545
2310 0 89.3854 13.1677 1177 71.5888 723.633 509.833
2311 0 96.6057 15.527 1500 68.1687 723.674 509.813
2312 0 98.51 13.8057 1360 70.4221 723.764 508.692
2313 0 98.446 12.7278 1253 72.9585 723.147 502.281
2314 0 104.275 15.8044 1648 68.6638 723.799 504.638
2315 0 109.463 14.2788 1563 70.5995 723.432 500.637
2316 0 109.485 15.2624 1671 69.8378 723.44 500.989
2317 0 114.63 14.429 1654 70.2727 723.048 501.546
2318 0 119.328 14.5313 1734 71.0934 723.329 496.256
2319 1 64.5035 15.3945 993 67.2387 723.408 523.792
2320 0 65.5467 13.4103 879 70.008 723.922 523.279
2321 0 65.3691 12.2076 798 73.6165 723.382 518.579
2322 0 68.3057 14.0545 960 70.2469 723.944 521.504
2323 0 70.4119 11.5321 812 74.5788 724.059 518.159
2324 0 72.4784 12.4175 900 72.94 724.508 517.841
2325 0 73.5975 11.821 870 74.6724 724.151 515.46
2326 0 79.4942 14.9822 1191 69.1495 724.102 516.515
2327 0 78.2716 12.7122 995 73.9126 723.391 511.612
2328 0 83.4142 14.3141 1194 71.0469 723.839 515.21
2329 0 85.58 13.8934 1189 71.9075 723.782 509.815
2330 0 86.345 13.6082 1175 72.4289 723.807 509.709
2331 0 91.5576 13.8164 1265 71.4403 723.903 510.968
2332 0 94.4544 15.0761 1424 70.165 723.794 507.587
2333 0 96.4733 14.149 1365 71.7736 723.535 506.134
2334 0 99.4247 14.3324 1425 70.8218 724.085 508.181
2335 0 101.424 12.995 1318 73.0926 724.145 501.598
2336 0 109.536 16.5334 1811 67.2573 724.3 503.372
2337 0 112.504 15.6528 1761 68.6457 724.078 505.198
2338 1 59.3372 12.252 727 70.6424 724.215 528.704
2339 0 58.464 12.0929 707 72.843 724.81 524.518
2340 0 60.4554 13.4149 811 71.0752 724.867 525.317
2341 0 63.4777 13.044 828 71.5411 724.229 524.13
2342 0 64.8517 15.7744 1023 67.9482 724.02 524.438
2343 0 66.4081 13.5074 897 70.7703 723.968 523.862
2344 0 67.4213 14.0015 944 71.108 724.32 519.986
2345 0 69.288 12.181 844 74.3412 724.52 518.668
2346 0 71.4988 13.1611 941 72.8788 723.851 517.921
2347 0 74.3244 13.4276 998 71.9599 724.036 518.843
2348 0 73.5359 12.7965 941 73.3358 724.021 519.664
2349 0 78.5704 15.0057 1179 69.7922 723.792 518.79
2350 0 79.6803 13.5291 1078 65.2291 723.665 515.012
2351 0 79.6826 13.8048 1100 64.7145 723.723 514.612
2352 0 78.7905 12.6665 998 67.0992 723.666 510.427
2353 0 87.387 16.9247 1479 59.9858 723.165 515.734
2354 0 87.4436 14.1234 1235 63.7336 723.559 512.203
2355 0 91.5886 15.9518 1461 61.4997 724.032 511.812
2356 0 94.3471 13.4609 1270 64.5551 723.847 506.874
2357 0 96.5369 13.6735 1320 64.825 723.522 504.531
2358 0 101.543 13.2062 1341 64.5108 723.577 505.55
2359 0 105.483 15.832 1670 60.9006 723.226 506.671
2360 0 106.392 15.9411 1696 61.3272 723.626 501.572
2361 0 111.356 14.5479 1620 62.4475 723.734 497.095
2362 0 114.33 15.1928 1737 61.9649 723.523 497.395
2363 0 117.495 15.2347 1790 61.2173 723.508 500.361
2364 0 121.532 14.7616 1794 62.1851 723.492 491.881
2365 0 124.53 15.0406 1873 61.5948 723.112 496.778
2366 1 63.4538 13.7738 874 61.9725 723.628 523.499
2367 0 65.6088 14.0073 919 62.4581 723.566 521.569
2368 0 66.3239 13.4642 893 64.2732 723.391 519.606
2369 0 68.3249 11.5185 787 65.9085 723.684 519.964
2370 0 73.4123 13.7579 1010 63.0188 723.447 519.479
2371 0 74.5427 13.8444 1032 63.5853 723.618 517.426
2372 0 75.2827 14.2131 1070 64.0626 723.458 515.775
2373 0 77.4204 14.3115 1108 64.3547 723.228 514.225
2374 0 80.4764 14.613 1176 63.1539 722.961 518.105
2375 0 81.5875 12.6367 1031 67.0242 723.499 512.302
2376 0 78.2681 12.6872 993 68.5428 722.742 510.715
2377 0 88.3249 15.0014 1325 64.0491 723.53 513.374
2378 0 88.3419 16.5267 1460 62.9938 723.69 510.594
2379 0 93.522 15.5792 1457 63.8133 723.764 509.268
2380 0 97.3036 15.3437 1493 63.4796 723.875 509.986
2381 0 93.6589 14.8304 1389 65.1152 723.738 506.891
2382 0 99.3026 15.5988 1549 63.6191 723.069 509.141
2383 0 98.2186 12.6351 1241 66.979 723.465 509.228
2384 0 99.5807 10.8153 1077 66.0956 723.711 515.211
2385 0 96.3144 9.88429 952 69.8981 723.694 505.542
2386 1 59.2778 13.6307 808 62.4765 723.12 528.395
2387 0 60.2423 11.4538 690 66.1754 724.352 524.784
2388 0 62.3507 11.9967 748 65.627 724.777 524.631
2389 0 64.3368 13.1806 848 63.8266 725.001 524.068
2390 0 66.2347 12.5161 829 65.7033 724.358 522.858
2391 0 66.5871 12.4198 827 64.873 725.46 522.146
2392 0 69.301 15.2379 1056 62.8144 724.56 519.803
2393 0 68.5986 13.6592 937 65.7321 725.587 517.328
2394 0 73.5613 14.3282 1054 64.0266 726.019 518.962
2395 0 72.6949 13.027 947 66.3918 724.622 515.713
2396 0 78.6149 15.4424 1214 62.9712 725.066 513.336
2397 0 81.651 16.4236 1341 61.8598 724.356 515.43
2398 0 85.5582 17.041 1458 60.596 724.558 515.67
2399 0 82.1987 12.336 1014 68.1183 725.865 509.686
2400 0 86.2725 14.4774 1249 65.217 725.235 507.705
2401 0 86.584 14.8642 1287 65.0964 725.516 505.267
2402 0 87.4506 13.2418 1158 66.9845 725.649 506.729
2403 0 96.6144 13.352 1290 65.855 725.716 504.416
2404 0 99.4767 15.0689 1499 63.9967 725.365 501.231
2405 0 102.216 14.6258 1495 64.2475 725.258 500.337
2406 0 108.429 14.7101 1595 62.8934 725.218 507.935
2407 0 111.53 15.2963 1706 62.7239 725.491 502.506
2408 0 111.374 13.971 1556 65.063 725.506 494.229
2409 0 117.641 14.5273 1709 63.7788 725.085 495.281
2410 0 121.377 15.7114 1907 62.6025 725.188 494.867
2411 0 127.305 14.2886 1819 64.1149 725.534 493.994
2412 0 130.403 15.153 1976 63.5071 725.724 492.344
2413 0 131.325 13.0288 1711 66.7598 725.362 486.683
2414 1 73.3424 11.0577 811 68.1233 725.609 516.281
2415 0 74.2073 10.9154 810 68.7716 725.69 515.874
2416 0 76.3838 12.5943 962 66.5281 726.165 516.842
2417 0 78.4036 12.5504 984 66.8425 725.909 512.873
2418 0 84.5684 15.6205 1321 61.8251 725.534 515.691
2419 0 83.6138 15.9065 1330 62.9383 725.365 512.186
2420 0 87.5757 13.8851 1216 64.5798 725.499 513.738
2421 0 89.5542 14.9518 1339 63.5176 725.508 510.095
2422 0 93.1951 14.2711 1330 64.1842 725.703 510.108
2423 0 90.6287 14.6532 1328 65.3863 725.637 502.535
2424 0 99.5561 14.7655 1470 63.6646 725.123 505.342
2425 0 100.442 12.1463 1220 67.0705 725.697 502.207
2426 0 99.3561 13.5774 1349 65.9622 725.791 498.437
2427 0 107.788 12.5339 1351 65.9704 726.018 502.916
2428 0 113.499 14.6873 1667 63.1134 725.925 499.942
2429 0 114.699 14.0454 1611 64.1155 725.69 495.901
2430 0 121.707 15.4633 1882 61.0935 725.676 496.985
2431 0 122.379 13.7769 1686 63.9692 725.495 495.319
2432 0 129.702 13.4539 1745 63.3123 725.666 496.505
2433 1 63.4555 12.2921 780 63.5705 725.68 523.542
2434 0 66.1584 12.6515 837 63.3047 725.608 520.111
2435 0 64.4413 12.6937 818 64.1553 725.627 520.166
2436 0 69.4693 14.582 1013 60.694 725.505 522.738
2437 0 71.436 14.0265 1002 61.1248 725.927 519.329
2438 0 75.409 13.4864 1017 61 725.632 520.906
2439 0 74.3536 12.1716 905 63.5602 725.72 519.314
2440 0 75.4566 11.5298 870 64.9506 726.055 515.314
2441 0 74.3538 14.8883 1107 61.6947 725.783 513.369
2442 1 84.2319 13.8427 1166 61.512 725.498 515.312
2443 0 87.521 14.2594 1248 60.6899 725.51 512.95
2444 0 86.5646 12.9268 1119 63.2306 725.5 510.153
2445 0 89.3789 13.6721 1222 62.4198 725.27 507.517
2446 0 92.6294 13.7645 1275 61.9137 725.544 509.169
2447 0 95.2371 14.1331 1346 61.9628 724.551 503.839
2448 0 98.6953 12.5335 1237 63.7405 724.222 503.175
2449 0 101.241 12.6431 1280 63.0617 724.828 504.951
2450 0 108.307 15.0683 1632 59.8162 725.239 503.987
2451 0 108.456 13.3694 1450 62.1497 725.111 498.844
2452 0 110.324 14.2127 1568 61.4598 725.146 496.077
2453 0 118.31 12.6786 1500 62.7013 724.677 494.731
2454 0 119.373 12.4735 1489 63.2223 725.392 492.19
2455 1 60.1365 11.3409 682 63.2009 725.525 520.796
2456 0 64.4172 10.7114 690 63.7913 724.984 520.694
2457 0 68.498 14.015 960 60.0802 723.779 520.126
2458 0 71.4146 13.5547 968 59.3946 725.084 521.947
2459 0 71.5518 14.1995 1016 59.7461 724.908 520.51
2460 0 75.5591 14.3861 1087 59.7636 724.689 518.894
2461 0 77.2379 13.3743 1033 61.0978 724.813 517.76
2462 0 80.2448 13.8701 1113 60.2084 724.722 517.085
2463 0 82.456 13.6679 1127 61.0142 724.774 515.201
2464 0 83.5808 13.46 1125 62.0142 724.939 515.125
2465 0 85.4841 12.7158 1087 62.6936 724.563 513.57
2466 0 89.304 12.7878 1142 62.5359 724.681 511.801
2467 0 90.3346 14.3024 1292 60.476 725.5 510.08
2468 0 94.391 14.779 1395 59.9226 724.67 512.029
2469 0 95.3869 14.2158 1356 61.0885 725.083 509.176
2470 0 95.2537 12.7974 1219 63.6784 724.56 500.164
2471 0 101.781 14.2561 1451 61.1165 724.802 507.303
2472 0 103.554 12.38 1282 62.9282 724.945 504.766
2473 0 103.388 13.0576 1350 63.3593 724.848 501.322
2474 0 110.514 14.4778 1600 61.5119 724.553 500.194
2475 0 113.278 15.2104 1723 60.0696 725.083 501.358
2476 0 114.349 12.9078 1476 63.2534 725.15 496.985
2477 0 122.284 14.2128 1738 61.3556 724.846 495.019
2478 1 66.4244 10.9448 727 63.7703 725.109 521.169
2479 0 68.673 11.9989 824 63.4308 725.786 519.916
2480 0 70.3629 10.7017 753 65.5299 725.414 517.708
2481 0 73.5036 13.9449 1025 60.2966 725.955 521.851
2482 0 74.3765 11.3477 844 64.8768 725.508 514.966
2483 0 78.5823 14.278 1122 60.9305 725.644 516.163
2484 0 78.515 13.4624 1057 62.2886 725.507 514.693
2485 0 82.5952 11.6956 966 65.0093 725.54 510.676
2486 0 85.4065 12.54 1071 63.7255 725.172 511.238
2487 0 89.8552 15.6474 1406 60.0669 724.658 512.036
2488 0 90.445 15.1473 1370 60.4212 725.632 513.485
2489 0 92.6085 13.0765 1211 63.2717 724.612 511.385
2490 0 94.6474 14.7178 1393 61.8062 725.126 509.467
2491 0 97.54 13.82 1348 62.7789 725.153 508.643
2492 0 102.645 16.0749 1650 59.7958 724.818 509.055
2493 0 103.638 13.9427 1445 63.0394 724.45 505.754
2494 0 107.651 14.259 1535 62.5498 725.45 503.765
2495 0 109.687 12.6725 1390 64.8504 725.182 498.665
2496 0 114.556 15.4335 1768 61.0543 725.568 501.038
2497 1 61.5171 11.5415 710 63.7014 725.065 523.352
2498 0 62.3585 14.2884 891 60.3468 725.511 525.543
2499 0 62.6958 10.9098 684 64.5073 725.77 522.26
2500 0 67.554 13.9444 942 60.6614 725.026 523.393
2501 0 66.7095 11.5876 773 64.2005 725.351 517.959
2502 0 68.7126 12.807 880 63.0864 725.182 519.644
2503 0 73.4264 14.6814 1078 60.9805 724.785 517.547
2504 0 73.8202 12.4221 917 63.108 725.181 518.397
2505 0 76.5372 13.8887 1063 61.3358 724.792 516.69
2506 0 79.8438 15.1671 1211 60.4575 725.093 517.485
2507 0 78.5157 12.6217 991 65.2291 725.079 509.205
2508 0 81.5572 12.1265 989 66.1951 724.36 508.279
2509 0 85.7632 12.4062 1064 65.2359 724.645 510.654
2510 0 87.6253 13.7061 1201 63.8251 724.894 509.031
2511 0 91.7211 15.3509 1408 61.2195 724.713 513.705
2512 0 92.5651 15.0813 1396 62.5587 724.701 504.86
2513 0 94.5936 14.5147 1373 63.6023 724.671 505.911
2514 0 97.5237 14.6426 1428 63.0644 725.066 508.382
2515 0 102.028 14.0844 1437 63.4085 724.008 503.955
2516 0 104.721 13.4261 1406 64.973 724.428 501.61
2517 0 106.623 13.6931 1460 64.1671 725.465 500.598
2518 0 110.103 13.7417 1513 64.1282 724.605 502.286
2519 0 114.876 15.7299 1807 62.2413 724.87 498.298
2520 1 60.1248 9.69649 583 68.0463 725.403 519.566
2521 0 63.7316 11.5641 737 66.2117 726.031 519.843
2522 0 64.745 11.5685 749 66.6128 726.449 518.661
2523 0 64.8957 11.0023 714 67.0742 725.653 518.954
2524 0 69.8942 12.4045 867 66.2134 725.432 516.72
2525 0 70.7731 12.858 910 65.2022 725.499 516.246
2526 0 72.7233 11.3444 825 67.4424 726.038 515.325
2527 0 77.5556 15.2278 1181 63.1109 725.307 515.271
2528 0 80.5777 14.6318 1179 63.4309 725.838 513.881
2529 0 79.9197 12.2998 983 67.3886 726.287 511.26
2530 0 80.5442 13.8185 1113 65.3801 726.274 513.644
2531 0 83.5668 13.6418 1140 65.4798 725.875 511.382
2532 0 85.5603 15.2992 1309 63.6379 726.119 511.053
2533 0 88.4122 12.8942 1140 67.5219 726.118 506.147
2534 0 90.6091 15.2965 1386 64.2958 726.069 507.054
2535 0 93.7531 15.0608 1412 64.3945 726.598 506.39
2536 0 96.7665 16.4623 1593 62.791 726.805 507.181
2537 0 97.5729 14.8607 1450 65.5131 726.043 502.248
2538 0 102.597 15.9946 1641 63.8891 726.024 501.984
2539 0 105.445 16.2549 1714 63.1278 725.806 502.197
2540 0 108.657 14.3479 1559 64.7325 726.053 502.138
2541 0 111.845 15.8344 1771 64.1728 726.142 496.04
2542 0 112.68 13.5162 1523 67.5397 725.84 492.181
2543 0 119.005 14.722 1752 65.6016 725.582 493.291
2544 0 121.706 13.4175 1633 66.4452 725.784 496.775
2545 1 66.0228 10.875 718 68.1407 726.109 519.22
2546 0 67.846 12.4105 842 67.3634 726.854 517.19
2547 0 69.8778 11.6775 816 68.3235 726.616 516.74
2548 0 72.796 13.2425 964 66.973 725.362 515.736
2549 0 74.6858 12.5727 939 66.5037 726.557 517.377
2550 0 76.8618 12.7111 977 66.2231 725.272 518.363
2551 0 75.4531 10.7351 810 71.2383 726.089 508.817
2552 0 80.5642 14.1378 1139 66.3705 725.407 510.759
2553 0 84.057 14.6567 1232 64.9018 725.357 512.683
2554 0 84.7625 13.9094 1179 66.6997 726.193 508.274
2555 0 87.876 12.7794 1123 67.5022 725.653 508.818
2556 0 92.6776 14.7177 1364 64.4978 725.887 506.172
2557 0 95.0718 14.9256 1419 65.0359 725.682 504.115
2558 0 96.451 14.2352 1373 65.724 725.777 504.396
2559 0 101.073 15.187 1535 64.2254 725.826 502.268
2560 0 103.692 14.2827 1481 65.713 725.567 501.884
2561 0 105.569 14.5213 1533 65.7378 725.033 497.663
2562 1 14.0181 8.8457 124 50.9919 727.048 542.048
2563 0 17.3161 8.14271 141 51.227 728.383 540.752
2564 0 17.4313 6.25312 109 51.6239 727.908 543.046
2565 0 17.1298 5.37077 92 51.5 727.544 543.88
2566 1 122.136 12.3797 1512 67.5509 724.517 491.87
2567 1 50.8572 11.2078 570 62.0088 725.486 527.281
2568 0 49.5023 9.3127 461 64.8959 726.282 526.475
2569 0 52.6655 10.1774 536 64.4366 725.778 525.737
2570 0 52.5114 12.7782 671 61.7407 725.775 526.529
2571 0 52.6294 10.4504 550 65.48 726.064 522.164
2572 0 54.5609 14.076 768 61.1237 725.562 524.624
2573 0 54.6328 10.9458 598 64.6589 724.968 523.079
2574 0 56.7418 10.116 574 65.9112 725.322 520.932
2575 0 57.6679 12.2945 709 63.9168 725.257 519.781
2576 0 58.7922 12.2975 723 63.5781 725.35 523.285
2577 0 60.465 15.5131 938 59.4168 724.972 524.336
2578 0 64.6057 14.3641 928 60.5948 724.676 524.351
2579 0 64.6748 12.3387 798 63.2381 724.479 518.252
2580 0 66.8762 13.5325 905 61.684 725.383 519.104
2581 0 68.5248 13.8344 948 62.1973 725.493 517.526
2582 0 69.9044 12.9319 904 62.9889 724.915 515.915
2583 0 73.7664 16.254 1199 59.3761 725.085 518.393
2584 0 75.6765 14.7602 1117 60.8594 725.109 513.55
2585 0 76.7845 12.9323 993 63.4582 725.083 511.032
2586 0 77.5032 11.3931 883 64.7078 725.233 510.935
2587 0 82.4355 13.1375 1083 62.5106 724.878 511.363
2588 0 84.6727 15.0462 1274 61.0494 725.305 510.491
2589 0 86.83 13.6358 1184 62.4983 724.568 508.649
2590 0 87.6709 12.6838 1112 64.625 724.828 503.348
2591 0 92.4123 15.5174 1434 60.7629 724.543 505.18
2592 0 91.4279 12.3266 1127 65.4108 724.428 499.547
2593 0 96.5055 13.0148 1256 64.3264 725.058 502.002
2594 0 99.6298 15.0457 1499 62.4029 724.664 500.268
2595 0 100.602 13.3198 1340 64.7791 723.587 496.996
2596 0 107.708 13.8895 1496 63.6858 724.806 500.256
2597 0 109.589 14.9741 1641 62.3601 726.244 497.996
2598 0 108.568 10.3806 1127 68.244 726.246 494.925
2599 1 58.4435 11.6181 679 64.5125 725.465 518.077
2600 0 60.4988 10.6614 645 66.3783 726.485 517.828
2601 0 59.4269 9.45699 562 68.0908 725.489 519.573
2602 0 64.5843 11.1482 720 65.8264 725.36 517.381
2603 0 66.7225 12.4995 834 63.3273 725.664 518.701
2604 0 68.7618 12.3179 847 63.8701 725.293 517.909
2605 0 68.6921 12.4468 855 64.2643 725.381 516.95
2606 0 70.5228 12.1946 860 64.4814 724.804 515.922
2607 0 72.7044 11.6774 849 65.1402 725.19 513.704
2608 0 71.623 10.1224 725 67.851 725.057 513.858
2609 0 77.0802 14.193 1094 62.691 725.172 513.781
2610 0 79.3665 14.7669 1172 61.494 724.948 514.164
2611 0 81.5465 15.1693 1237 61.5093 725.055 511.231
2612 0 81.5683 13.0933 1068 64.3006 725.091 510.977
2613 0 83.5993 13.0025 1087 65.5943 724.253 507.396
2614 0 85.7097 12.9274 1108 65.7807 724.399 505.169
2615 0 87.6712 12.9689 1137 66.2093 724.392 504.504
2616 0 90.5795 13.7448 1245 64.8161 724.214 506.472
2617 0 92.7345 12.6921 1177 66.5616 724.59 504.257
2618 0 95.5008 13.9685 1334 65.6694 725.043 503.304
2619 0 97.6469 14.3476 1401 64.4618 725.328 504.802
2620 0 100.791 14.416 1453 65.7598 725.124 495.839
2621 0 106.611 13.3851 1427 66.7456 725.169 496.778
2622 0 108.67 15.6436 1700 63.4835 725.145 498.538
2623 0 112.725 14.9567 1686 64.3327 725.716 492.086
2624 0 115.682 13.9434 1613 65.4086 725.965 496.906
2625 1 43.4921 7.49561 326 69.1748 726.209 523.89
2626 0 48.6883 9.8381 479 66.1211 725.656 523.701
2627 0 48.6255 10.5089 511 66.7182 725.049 523.699
2628 0 50.3956 11.4891 579 65.4974 724.226 523.793
2629 0 51.6779 12.3844 640 65.2375 724.291 523.495
2630 0 53.4555 12.8705 688 64.7442 723.548 523.427
2631 0 54.7376 12.0027 657 66.21 724.594 522.985
2632 0 56.6063 10.6702 604 67.1937 725.676 524.283
2633 0 58.6358 12.4838 732 65.5219 725.635 521.993
2634 0 56.7968 9.89492 562 70.0801 725.29 519.349
2635 0 58.3543 12.0128 701 67.8588 725.434 519.98
2636 0 58.5963 10.7515 630 69.8127 725.743 519.483
2637 0 62.8201 12.4482 782 67.087 725.09 522.087
2638 0 62.6949 11.9627 750 68.932 725.613 518.18
2639 0 67.2727 14.1662 953 65.3337 725.199 519.525
2640 0 68.3685 13.5004 923 66.3564 725.254 517.255
2641 0 69.6974 12.4825 870 68.5149 725.805 516.366
2642 0 72.7951 13.8883 1011 66.5826 725.823 517.228
2643 0 70.8352 12.4514 882 69.703 725.542 513.316
2644 0 75.621 13.1313 993 67.6214 725.46 513.48
2645 0 76.5688 13.8307 1059 67.2701 725.662 513.171
2646 0 80.8116 14.1193 1141 66.3436 725.919 514.229
2647 0 82.6428 14.2178 1175 66.674 725.86 511.216
2648 0 85.4698 13.6071 1163 67.804 725.672 512.44
2649 0 88.6916 14.5335 1289 65.5725 725.507 513.478
2650 0 90.6286 15.0835 1367 65.0988 725.931 512.944
2651 0 93.8723 14.6263 1373 65.748 725.715 510.484
2652 0 92.5915 11.7937 1092 70.7985 725.434 503.509
2653 0 96.9609 13.5828 1317 68.473 725.656 504.001
2654 0 100.58 14.1778 1426 67.0421 726.6 505.775
2655 0 102.583 13.4331 1378 67.606 725.821 506.149
2656 0 105.707 15.1645 1603 65.5614 725.868 506.432
2657 0 107.954 14.3301 1547 67.203 725.799 498.086
2658 1 61.6323 12.315 759 66.9473 726.443 525.677
2659 0 63.7654 13.3928 854 65.0328 726.117 525.842
2660 0 65.0965 13.0575 850 65.8671 726.014 524.341
2661 0 66.2564 12.3007 815 66.7497 725.829 523.714
2662 0 65.5189 12.1644 797 67.4216 725.856 520.822
2663 0 67.5318 12.6903 857 67.1167 725.89 520.622
2664 0 68.541 12.3867 849 68.0471 725.298 517.554
2665 0 72.3488 12.6885 918 66.4085 725.437 520.272
2666 0 72.5983 13.4576 977 66.3685 725.68 516.762
2667 0 74.6463 11.3334 846 68.6052 725.371 516.359
2668 0 77.3976 13.3725 1035 66.0667 724.955 516.914
2669 0 79.2737 13.2579 1051 65.3692 724.862 513.987
2670 0 83.4231 13.7971 1151 64.3805 725.049 515.998
2671 0 84.6532 15.3095 1296 63.3897 724.514 515.439
2672 0 84.0637 13.6325 1146 66.1527 724.497 508.899
2673 0 88.5719 13.5596 1201 66.1948 724.208 510.18
2674 0 93.5936 14.1035 1320 64.5644 725.02 509.945
2675 0 95.8794 13.882 1331 65.003 724.944 508.286
2676 0 98.4446 15.4503 1521 63.5339 724.517 503.957
2677 0 102.707 14.7117 1511 63.8981 724.482 505.381
2678 0 103.624 13.4428 1393 65.7854 724.591 503.292
2679 1 54.4246 11.2449 612 66.0392 724.508 525.626
2680 0 56.6968 9.68308 549 67.235 724.84 526.603
2681 0 60.8964 12.4309 757 63.7979 724.832 526.388
2682 0 60.497 11.0253 667 66.3928 724.991 523.402
2683 0 63.7475 12.4711 795 63.7346 725.345 524.252
2684 0 61.5067 11.8036 726 66.3223 724.788 520.686
2685 0 65.9917 13.1229 866 64.3603 725.2 523.292
2686 0 66.5256 13.1077 872 64.6525 724.797 523.188
2687 0 66.4117 9.87778 656 69.1707 724.631 517.184
2688 0 70.7376 13.8682 981 63.3282 725.192 523.14
2689 0 70.7682 12.7317 901 65.7014 724.844 517.93
2690 0 67.5078 12.043 813 67.2694 725.017 515.568
2691 0 75.5427 14.4686 1093 63.7356 724.898 516.392
2692 0 79.3948 13.4014 1064 64.6175 724.915 518.385
2693 0 80.5918 12.2469 987 66.3384 724.88 513.926
2694 0 84.6477 13.2904 1125 65.2151 725.508 512.78
2695 0 84.6234 11.628 984 67.2419 724.97 511.197
2696 0 89.5742 13.3967 1200 65.3858 725.558 512.587
2697 0 92.4401 14.0848 1302 64.4823 725.461 509.975
2698 0 92.6897 13.1083 1215 65.8444 725.722 511.667
2699 0 97.4246 14.678 1430 63.6769 725.723 510.484
2700 0 100.669 16.0724 1618 62.149 725.271 510.587
2701 0 102.381 15.2567 1562 64.1504 725.202 505.504
2702 0 106.847 15.2368 1628 64.274 725.235 505.897
2703 0 106.611 12.8129 1366 67.631 725.806 503.649
2704 1 58.5331 10.6265 622 68.3505 726.616 526.842
2705 0 59.52 11.6432 693 66.4199 725.762 528.215
2706 0 61.3009 13.2461 812 66.0714 726.17 526.328
2707 0 63.3655 11.8834 753 68.2483 725.969 523.187
2708 0 64.5532 13.7561 888 66.3784 726.441 525.188
2709 0 65.674 12.623 829 68.7262 725.872 521.747
2710 0 66.3038 11.9299 791 68.9077 726 524.234
2711 0 68.3373 12.7163 869 68.5086 726.239 522.171
2712 0 70.4866 13.4777 950 67.5305 726.393 520.559
2713 0 73.5643 13.3896 985 68.0061 725.963 521.749
2714 0 74.3848 12.758 949 69.1001 726.682 519.251
2715 0 75.3368 11.88 895 70.9844 726.202 518.331
2716 0 78.3841 12.6429 991 70.3845 725.921 517.261
2717 0 80.52 12.4938 1006 70.9513 726.084 515.894
2718 0 84.7768 14.9805 1270 66.8205 725.912 516.929
2719 0 86.8578 13.9308 1210 68.9587 725.341 512.874
2720 0 87.3252 12.8256 1120 70.9455 725.989 509.757
2721 0 91.5319 14.0934 1290 68.9643 725.786 509.432
2722 0 94.4951 13.6938 1294 70.1592 725.246 506.427
2723 0 97.6196 13.9419 1361 69.0029 725.838 509.206
2724 0 102.783 15.6349 1607 65.8463 726.031 510.5
2725 1 13.0363 3.22178 42 55.5238 728.452 550.452
2726 0 13.0589 6.0495 79 53.4937 728.582 549.165
2727 0 15.0393 7.31417 110 52.1 728.545 548.427
2728 0 13.0218 3.53254 46 54.6304 727.587 550.196
2729 0 15.0586 5.64461 85 53.5765 729.106 548.106
2730 0 18.0631 9.30071 168 50.3274 727.964 549.131
2731 0 15.2857 4.25233 65 53.6615 728.092 549.369
2732 0 14.0182 4.20881 59 55.2373 728.203 547.661
2733 1 65.5014 10.8089 708 71.7698 725.934 522.031
2734 0 67.5318 11.5945 783 70.6833 726.658 523.13
2735 0 69.8375 12.8441 897 68.9465 726.506 522.43
2736 0 67.5789 11.8528 801 71.2185 726.519 520.826
2737 0 71.2522 13.5855 968 69.3626 726.371 518.842
2738 0 73.6492 11.8806 875 71.7977 726.163 518.472
2739 0 75.4297 14.7687 1114 67.5413 726.534 519.382
2740 0 76.3518 13.1759 1006 70.8578 725.746 515.758
2741 0 80.7917 14.7045 1188 68.1136 726.896 519.122
2742 0 81.7916 14.7326 1205 68.6614 726.919 516.948
2743 0 84.6749 16.3449 1384 66.0751 726.538 517.206
2744 0 85.5602 14.1888 1214 69.4984 726.684 514.608
2745 0 87.6272 14.1965 1244 69.7082 726.909 514.19
2746 0 91.7168 13.9887 1283 69.4801 726.874 512.996
2747 0 92.6496 16.0821 1490 67.7268 727.262 510.834
2748 0 94.7289 13.6495 1293 71.0936 726.947 506.214
2749 0 99.6616 16.9574 1690 65.6077 726.978 508.904
2750 0 102.604 16.052 1647 67.0814 727.025 506.035
2751 1 16.2317 4.0045 65 53.5231 729.492 548.2
2752 0 13.0327 6.90571 90 51.2778 729.033 546.756
2753 1 110.003 13.8451 1523 70.7748 726.636 498.051
2754 0 113.53 15.3616 1744 68.4111 726.238 500.586
2755 0 118.692 16.3448 1940 66.7552 726.905 501.042
2756 1 63.5389 10.4346 663 74.7707 727.104 519.424
2757 0 65.4575 11.4425 749 73.6021 727.681 521.944
2758 0 68.4847 11.8567 812 72.8522 727.335 520.158
2759 0 69.4536 11.8496 823 72.7837 727.281 520.32
2760 0 71.6909 11.8844 852 73.1878 727.377 519.441
2761 0 74.5436 13.4418 1002 71.3433 727.856 519.196
2762 0 77.6051 14.883 1155 68.587 727.448 520.684
2763 0 77.6679 12.6307 981 72.5454 727.616 519.019
2764 0 78.7029 13.1507 1035 72.2773 727.256 517.8
2765 0 79.5709 14.4023 1146 71.288 726.81 516.821
2766 0 82.6303 14.8372 1226 70.8736 727.119 515.105
2767 0 85.4078 13.4999 1153 73.7537 726.79 510.212
2768 0 88.7596 15.1082 1341 70.6928 727.229 512.469
2769 0 93.0163 14.5243 1351 71.4745 727.578 513.073
2770 0 93.6293 13.9166 1303 72.8442 727.611 510.675
2771 0 96.3394 14.6254 1409 72.3989 727.366 508.373
2772 0 99.8057 15.1595 1513 70.8962 727.42 508.883
2773 0 100.514 15.0427 1512 70.6276 727.601 509.875
2774 0 103.77 13.7709 1429 73.0287 727.332 505.174
2775 0 104.769 13.945 1461 73.0075 727.244 504.138
2776 0 109.604 13.6491 1496 72.6063 726.994 505.08
2777 1 58.7234 13.3848 786 70.5992 727.316 526.107
2778 0 60.3772 11.2791 681 73.7283 727.526 526.104
2779 0 60.7689 11.8317 719 73.3338 726.373 524.255
2780 0 63.8482 13.0622 834 71.1355 726.174 524.288
2781 0 65.6228 14.9795 983 68.7538 726.49 525.231
2782 0 65.9759 12.5803 830 72.6687 726.947 522.999
2783 0 67.5895 12.931 874 71.77 727.149 523.205
2784 0 69.6716 12.8747 897 71.6667 727.273 523.019
2785 0 71.79 13.8877 997 69.984 726.881 522.55
2786 0 71.6504 13.6357 977 71.9928 726.984 519.226
2787 0 72.8823 12.6368 921 72.9805 727.315 521.716
2788 0 75.5023 12.993 981 73.209 727.038 516.391
2789 0 74.48 12.8625 958 74.3288 727.504 516.025
2790 0 80.3912 14.529 1168 70.6533 727.451 518.058
2791 0 82.6261 14.257 1178 71.0424 726.504 516.668
2792 0 84.8159 15.6928 1331 69.0789 727.025 515.264
2793 0 85.0699 14.3059 1217 71.7666 727.719 513.803
2794 0 86.6405 14.1504 1226 72.4201 727.555 512.079
2795 0 89.3768 14.3102 1279 72.2666 726.628 509.848
2796 0 91.4812 15.3256 1402 70.7197 725.809 509.934
2797 0 92.647 13.1898 1222 73.1342 727.006 510.959
2798 0 93.4947 14.4714 1353 72.0214 726.235 504.242
2799 0 99.8963 13.8644 1385 72.182 727.723 503.778
2800 0 100.52 12.9726 1304 73.3275 727.526 505.966
2801 0 102.836 13.2735 1365 74.4784 726.848 500.617
2802 0 108.625 16.2761 1768 68.5967 726.827 503.482
2803 0 111.584 14.2136 1586 71.8178 727.147 498.859
2804 0 115.779 14.329 1659 70.4201 726.78 502.939
2805 0 118.607 14.8558 1762 69.4012 726.822 501.07
2806 1 65.4054 12.2467 801 72.0275 727.081 521.95
2807 0 68.5558 11.8152 810 72.579 727.468 520.426
2808 0 66.5964 10.8414 722 75.2604 726.278 519.051
2809 0 69.8249 12.7032 887 71.6911 727.304 522.339
2810 0 70.4527 10.6029 747 76.1566 726.399 518.04
2811 0 74.7765 14.4698 1082 70.0767 726.554 519.872
2812 0 75.5413 12.9201 976 73.2141 726.978 516.096
2813 0 78.6527 14.011 1102 71.3802 727.123 517.359
2814 0 77.6094 12.4856 969 75.2415 726.987 515.532
2815 0 82.6653 12.0849 999 74.2593 727.186 515.689
2816 0 83.5678 13.5459 1132 73.2262 726.631 513.868
2817 0 81.5252 11.5792 944 76.215 726.217 512.219
2818 0 88.1387 13.6716 1205 72.5668 726.666 512.323
2819 0 86.5334 11.8451 1025 75.4 726.793 513.026
2820 0 93.597 14.5411 1361 70.3306 726.27 513.813
2821 0 94.7124 15.394 1458 69.5768 726.377 511.229
2822 0 97.7713 14.718 1439 70.8075 727.285 508.856
2823 0 100.552 14.5 1458 71.179 726.9 508.493
2824 0 102.554 13.5831 1393 72.6109 727.02 507.024
2825 0 107.563 14.6148 1572 71.0598 727.058 505.426
2826 0 107.814 14.2282 1534 72.2731 727.121 499.964
2827 0 112.526 14.5834 1641 70.6947 726.631 500.72
2828 0 114.884 13.8313 1589 72.2045 726.926 499.991
2829 0 117.54 12.9488 1522 72.929 726.729 497.915
2830 1 59.6233 10.1303 604 77.1275 726.083 519.003
2831 0 65.6206 13.7609 903 70.2447 726.39 522.713
2832 0 65.3875 12.4794 816 72.5588 726.897 521.918
2833 0 65.7496 11.1788 735 74.6326 726.908 519.69
2834 0 67.4808 12.9222 872 71.3372 726.659 523.114
2835 0 71.4224 13.4692 962 71.1258 727.362 519.922
2836 0 70.9419 11.6715 828 75.1039 727.157 515.72
2837 0 73.6277 12.278 904 73.5133 727.698 518.356
2838 0 74.8454 12.4256 930 73.5796 727.513 516.178
2839 0 75.5717 12.5047 945 74.5249 727.199 515.351
2840 0 80.5865 13.3397 1075 72.3423 727.796 515.656
2841 0 82.557 14.0872 1163 71.3869 727.566 513.779
2842 0 83.8422 13.1914 1106 73.4177 727.293 511.551
2843 0 86.6753 13.0948 1135 72.7295 726.506 511.522
2844 0 89.6053 13.2805 1190 71.3462 727.913 512.929
2845 0 94.8092 14.1547 1342 70.3569 727.733 509.848
2846 0 95.7919 14.5941 1398 69.8755 727.186 505.732
2847 0 97.6351 14.124 1379 70.8281 728.05 504.969
2848 0 101.648 13.8812 1411 70.6052 728.106 504.605
2849 0 106.002 13.8771 1471 70.206 728.048 501.598
2850 0 107.584 11.9721 1288 72.9185 727.793 499.466
2851 0 111.763 13.8776 1551 70.0445 727.99 499.314
2852 1 54.0604 8.62 466 77.8906 727.646 518.884
2853 0 57.5584 10.3721 597 75.3769 727.901 520.027
2854 0 62.7929 11.9281 749 71.6876 728.227 520.708
2855 0 61.4546 12.3343 758 71.4512 727.904 520.797
2856 0 61.8167 11.7282 725 74.12 728.519 520.698
2857 0 64.5645 12.3133 795 72.7761 728.45 521.228
2858 0 66.5708 13.0838 871 71.4236 728.16 520.684
2859 0 68.0182 14.0992 959 68.5078 728.882 520.339
2860 0 62.5951 11.6942 732 67.8525 727.344 517.186
2861 0 53.0929 12.2804 652 64.8911 727.37 514.722
2862 0 56.3736 11.4947 648 64.5617 727.395 516.065
2863 0 53.1267 12.2537 651 64.0753 727.455 516.369
2864 0 50.2649 10.9818 552 66.5779 727.11 512.554
2865 0 60.4626 12.0901 731 62.3776 727.122 516.596
2866 0 54.222 12.7808 693 63.7287 727.569 515.19
2867 0 57.3348 11.1276 638 65.2931 727.545 514.373
2868 0 51.0694 13.5306 691 69.835 727.562 462.928
