time division length width area intensity CMx CMy
0 0 47.1235 12.1383 572 58.8934 958.407 523.619
1 0 49.1718 12.9749 638 57.2508 957.715 522.284
2 0 49.1708 12.4667 613 57.8385 957.723 523.677
3 0 50.1506 12.3428 619 58.2843 957.551 522.774
4 0 51.1362 11.5965 593 59.4047 956.427 520.793
5 0 54.1449 11.4877 622 59.045 957.011 521.627
6 0 55.1309 13.1687 726 57.2631 956.594 519.579
7 0 55.1799 12.5408 692 58.0188 955.825 520.658
8 0 57.163 12.2107 698 58.1963 955.434 519.501
9 0 57.1443 12.4597 712 58.7374 956.426 518.126
10 0 60.1992 13.0899 788 56.8426 955.966 519.242
11 0 59.0776 11.341 670 59.2522 956.087 520.394
12 0 62.1426 12.4713 775 57.9071 956.063 518.734
13 0 62.1543 13.2895 826 57.793 956.483 517.297
14 0 63.0976 12.0607 761 58.9737 955.361 516.348
15 0 66.0635 12.3215 814 58.3305 956.681 519.087
16 0 68.0933 11.7339 799 59.7472 956.753 515.904
17 0 70.0721 12.5157 877 57.9031 956.129 518.462
18 0 72.1771 13.2175 954 58.2432 956.918 513.947
19 0 73.1208 12.0486 881 59.2134 956.756 516.127
20 0 75.1506 11.9227 896 60.2757 956.253 512.202
21 0 78.0642 12.4769 974 59.9138 956.943 509.779
22 0 82.1977 12.4821 1026 59.3616 956.672 511.307
23 0 81.0896 11.8634 962 61.2921 955.915 508.711
24 0 85.1275 11.2537 958 62.0908 956.503 508.437
25 1 46.1441 11.5941 535 59.2916 957.002 528.327
26 0 44.025 10.9483 482 60.5353 956.257 527.753
27 0 46.0234 11.7332 540 61.0611 956.706 525.524
28 0 50.0911 10.9001 546 61.2619 956.634 526.15
29 0 49.1472 10.4584 514 62.3268 957.932 526.879
30 0 51.0715 12.7273 650 60.3492 956.368 524.282
31 0 52.0354 13.4332 699 60.02 957.677 524.27
32 0 53.032 11.9739 635 61.9795 957.257 522.797
33 0 54.0502 10.0647 544 63.7151 956.965 524.586
34 0 54.0733 11.5399 624 62.7404 957.478 522.812
35 0 60.0833 10.9348 657 62.9254 957.79 521.534
36 0 58.0706 10.2117 593 63.575 957.901 523.202
37 0 62.0239 13.2368 821 61.1547 957.867 518.739
38 0 64.0795 11.6418 746 61.8298 957.765 521.668
39 0 65.0579 12.5427 816 61.3676 957.879 519.672
40 0 66.1245 11.5691 765 63.5386 958.374 517.648
41 0 67.154 11.5555 776 63.0155 957.919 517.401
42 0 68.0713 11.106 756 64.6627 957.272 513.931
43 0 71.0544 10.3723 737 65.1791 957.045 514.174
44 0 74.1067 12.0232 891 64.4444 957.823 511.622
45 0 77.1446 11.4979 887 63.7283 957.519 512.954
46 0 78.1593 12.0395 941 64.4495 957.836 511.662
47 0 79.1607 12.6073 998 64.8487 958.317 508.828
48 0 83.1593 11.6042 965 65.6497 958.291 508.558
49 0 86.0794 11.4313 984 66.4197 957.794 509.15
50 0 87.1346 11.5568 1007 66.3883 958.103 508.424
51 0 89.1062 11.548 1029 67.2915 957.743 505.729
52 0 92.1558 13.6942 1262 65.0998 958.015 504.992
53 0 91.0803 11.693 1065 68.6056 957.71 501.908
54 0 96.076 13.4581 1293 66.0557 958.064 502.964
55 0 99.2501 11.3954 1131 68.7913 958.126 503.383
56 0 101.162 11.3481 1148 69.4895 957.864 501.943
57 0 103.17 10.662 1100 70.6382 958.771 500.757
58 0 105.278 12.4527 1311 68.0961 958.031 501.407
59 0 108.173 11.2413 1216 70.7508 957.868 494.761
60 0 115.179 13.084 1507 68.8739 957.898 491.52
61 0 117.271 10.9064 1279 70.6544 957.906 494.838
62 0 122.094 12.1464 1483 70.7903 957.461 488.299
63 1 64.1012 10.7798 691 68.9045 957.573 515.252
64 0 69.2164 12.8149 887 65.9899 958.117 515.923
65 0 72.0739 11.7796 849 67.7503 958.424 512.28
66 0 71.1116 9.75931 694 70.9769 958.438 513.856
67 0 74.044 10.9259 809 69.4042 957.727 511.066
68 0 78.053 10.4929 819 70.0659 958.115 510.153
69 0 82.0922 12.352 1014 68.214 958.122 508.485
70 1 43.0833 9.63251 415 67.6434 958.106 527.776
71 0 45.0719 9.78437 441 67.8912 957.438 526.116
72 0 46.0213 10.908 502 66.3884 957.753 527.255
73 0 46.0418 11.1203 512 67.1289 957.527 524.994
74 0 47.0923 9.25842 436 69.2615 958.243 525.592
75 0 50.1118 11.9134 597 66.2077 957.75 522.248
76 0 53.0784 12.6605 672 64.2024 957.711 523.213
77 0 51.0685 10.4174 532 67.5789 958.133 522.259
78 0 55.131 10.3753 572 67.9843 958.339 519.631
79 0 57.1105 11.574 661 65.9168 958.174 519.587
80 0 57.1244 11.2211 641 66.2356 958.565 520.345
81 0 59.1069 10.6756 631 67.7052 958.444 516.67
82 0 61.0632 11.267 688 66.3503 959.219 518.632
83 0 64.106 12.0426 772 65.1023 958.483 516.403
84 0 64.0643 10.9421 701 66.8602 958.809 516.284
85 0 66.0738 12.1228 801 65.025 958.695 514.926
86 0 66.1269 9.42128 623 68.7608 958.387 514.644
87 0 70.1559 11.6027 814 64.8378 958.447 514.527
88 0 71.1155 10.1806 724 67.2169 959.014 511.981
89 0 74.1171 11.5898 859 65.6508 958.839 510.682
90 0 76.081 10.6203 808 66.5569 959.047 510.306
91 0 78.0928 12.3187 962 64.947 959.103 507.027
92 1 41.0352 7.62759 313 64.4377 959.821 529.192
93 0 37.0491 7.6925 285 66.807 960.007 525.695
94 0 42.0676 10.0552 423 62.4681 959.598 528.48
95 0 43.0357 12.0365 518 61.2973 959.189 524.154
96 0 47.0367 12.6072 593 60.0877 959.551 522.757
97 0 48.0149 10.7675 517 61.853 959.296 524.11
98 0 49.0823 10.6963 525 62.4705 958.93 523.646
99 0 50.0588 11.047 553 61.868 958.747 520.854
100 0 52.0318 12.1848 634 60.4669 959.131 520.423
101 0 52.0705 8.66134 451 64.1353 959.215 519.998
102 0 55.0175 10.6875 588 61.568 959.384 519.893
103 0 55.1002 10.1088 557 62.0036 959.44 519.461
104 0 58.0394 11.7334 681 60.5066 959.385 515.972
105 0 62.0532 9.653 599 62.177 959.03 515.815
106 0 63.0717 10.5911 668 61.2635 958.843 514.784
107 0 64.0581 9.88165 633 62.1011 957.831 515.594
108 0 66.0675 10.792 713 61.4067 958.359 511.515
109 0 70.1061 12.424 871 59.1079 957.432 510.683
110 0 70.1714 9.47679 665 62.6256 958.235 509.547
111 1 36.0844 8.75723 316 58.0854 958.171 529.864
112 0 36.0567 10.0675 363 58.3691 958.215 527.928
113 0 36.0411 9.43368 340 59.2618 958.709 526.906
114 0 38.0394 9.77932 372 58.328 959.013 527.188
115 0 38.0496 9.77673 372 59.2984 958.82 524.089
116 0 41.0627 10.0821 414 58.9275 958.913 523.676
117 0 40.0157 9.34633 374 60.2861 958.543 524.275
118 0 43.0307 8.38937 361 60.8255 959.407 523.704
119 0 44.0628 11.0297 486 59.1914 959.319 521.706
120 0 45.0361 9.81436 442 59.81 959.122 521.369
121 0 47.023 10.782 507 58.7416 959.142 520.68
122 0 49.0286 10.1369 497 59.2294 959.237 521.107
123 0 51.0183 9.05558 462 60.2532 958.87 518.922
124 0 50.0397 10.0121 501 60.0479 958.11 519.521
125 0 51.1312 9.11382 466 61.3069 958.208 518.333
126 0 54.0246 11.2356 607 59.1977 958.232 514.493
127 0 58.0988 9.65596 561 59.4938 958.692 517.342
128 0 60.0254 9.47933 569 59.6485 959.202 517.167
129 0 60.127 11.7252 705 58.305 958.684 514.647
130 0 64.0881 9.09685 583 59.5197 957.995 516.038
131 0 63.0746 9.49669 599 60.4274 958.003 512.669
132 0 67.1631 11.1222 747 58.6787 958.198 510.206
133 1 30.0294 7.35945 221 60.914 958.303 528.534
134 0 35.0786 11.6025 407 56.3096 958.012 527.074
135 0 35.1348 10.047 353 58.2861 958.929 527.666
136 0 35.0455 7.67574 269 60.7955 958.706 527.725
137 0 37.1044 9.51368 353 58.8244 958.788 526.037
138 0 38.0209 8.57423 326 60.1503 958.509 527.592
139 0 40.0919 9.80249 393 59.0789 958.664 526.076
140 0 39.2028 10.79 423 58.2648 958.508 525.418
141 0 38.034 7.28296 277 61.5921 959.473 527.303
142 0 40.0558 9.33698 374 59.7406 959.471 525.714
143 0 45.0443 10.2566 462 58.6515 959.156 524.636
144 0 43.106 9.929 428 59.9019 958.724 521.607
145 0 46.0898 11.1955 516 59.0543 958.948 520.649
146 0 47.1055 9.91392 467 60.0685 958.574 521.938
147 0 48.0696 10.0687 484 59.6322 957.853 522.897
148 0 49.1459 10.7842 530 60.8358 957.97 518.713
149 0 49.0921 9.2683 455 61.8527 957.877 520.673
150 0 52.0826 9.88813 515 61.3825 958.171 517.817
151 0 53.0918 12.4313 660 59.35 958.773 516.72
152 0 56.064 10.8626 609 60.4154 958.335 517.79
153 0 57.0995 10.0176 572 61.5367 958.355 516.252
154 0 57.1819 10.8776 622 61.2524 958.879 515.532
155 0 61.1684 9.97247 610 62.077 958.61 515.484
156 0 62.0647 11.2786 700 60.7886 959.11 515.529
157 0 63.0514 11.2924 712 60.7346 958.147 514.479
158 0 64.2186 9.42095 605 62.5488 958.192 513.658
159 0 69.0842 11.5946 801 60.4994 957.478 511.436
160 0 68.0978 9.17798 625 63.4416 957.918 510.645
161 0 69.0905 9.74084 673 63.7103 958.284 509.163
162 0 72.0986 10.0418 724 63.8384 958.612 505.91
163 0 76.0764 11.6593 887 61.867 958.152 506.123
164 0 77.1163 9.42732 727 64.1898 958.414 508.099
165 1 42.0676 9.57983 403 61.201 958.337 524.638
166 0 42.0211 10.4471 439 61.1595 958.517 522.084
167 0 42.0118 10.4494 439 61.5535 958.296 520.774
168 0 44.0341 10.1512 447 61.7808 958.617 522.219
169 0 44.0325 9.60654 423 62.7967 958.504 521.511
170 0 47.2 10.2966 486 62.3889 958.173 521.897
171 0 47.0887 10.7457 506 62.6482 958.464 519.375
172 0 49.0473 9.94958 488 63.5102 959.119 520.26
173 0 53.0584 12.7972 679 60 958.947 520.981
174 0 53.0542 9.31124 494 64.1012 958.561 520.101
175 0 53.0853 11.83 628 62.2787 958.689 518.185
176 0 54.0252 10.4581 565 63.5912 959.218 518.483
177 0 59.0785 11.0023 650 62.5246 958.477 517.672
178 0 59.1509 11.7327 694 62.2738 958.562 515.715
179 0 60.1161 10.9122 656 63.0793 959.215 517.047
180 0 62.0498 11.5069 714 62.7381 958.696 515.866
181 0 66.1066 10.5738 699 63.7725 958.346 513.222
182 0 68.0609 12.0187 818 62.5086 958.115 510.65
183 0 70.0568 11.1338 780 63.0359 957.653 513.545
184 0 70.1093 10.9115 765 63.9059 957.795 512.342
185 0 75.1284 11.4737 862 63.797 956.723 507.444
186 1 35.0418 10.8157 379 61.5858 957.95 529.739
187 0 39.0414 11.8848 464 59.9978 957.323 527.123
188 0 39.0518 10.9342 427 62.3536 957.468 525.761
189 0 41.0763 10.9065 448 61.2812 957.02 526.741
190 0 43.0465 10.8952 469 61.049 956.84 525.872
191 0 42.1108 10.7573 453 62.4194 956.881 525.358
192 0 43.0368 10.9441 471 62.535 956.431 524.577
193 0 45.0515 9.92199 447 63.4944 956.421 525.935
194 0 47.0795 11.6824 550 61.6636 956.111 523.74
195 0 47.0742 12.1935 574 61.4582 956.334 520.96
196 0 51.0683 11.3182 578 61.5294 956.256 522.55
197 0 52.1068 12.0138 626 60.6741 956.021 523.903
198 0 54.0746 11.5026 622 60.9839 956.36 524.018
199 0 55.1151 10.4509 576 62.1406 956.184 524.675
200 0 56.0292 11.8331 663 60.5294 956.151 522.635
201 0 56.0591 12.7009 712 60.1615 955.552 522.654
202 0 60.0705 13.1679 791 59.0683 955.783 520.339
203 0 58.0781 11.0541 642 61.9065 955.182 519.269
204 0 63.1191 11.5021 726 60.7479 954.653 521.001
205 0 65.0741 12.3244 802 60.3092 956.029 518.354
206 0 65.1157 11.564 753 60.664 955.398 519.971
207 0 69.1206 11.9791 828 60.0254 955.2 517.123
208 0 69.2668 11.564 801 61.2285 955.37 515.014
209 0 70.1654 11.2734 791 61.9874 955.456 514.329
210 0 74.2532 11.6359 864 61.103 955.15 514.237
211 0 76.0429 10.5861 805 62.154 954.811 512.668
212 0 76.1905 9.98812 761 63.1669 954.384 512.946
213 1 37.1661 8.04497 299 61.6187 954.137 532.726
214 0 41.072 10.5911 435 59.3057 954.398 531.885
215 0 42.0621 10.8411 456 59.8004 953.094 531.202
216 0 45.1017 10.1992 460 60.1261 953.407 531.283
217 0 47.1014 10.4243 491 59.9857 952.66 529.175
218 0 44.0997 11.1565 492 60.5915 953.833 530.002
219 0 48.0608 10.882 523 61.2046 953.195 527.113
220 0 48.1449 10.4269 502 62.0259 953.032 526.95
221 0 51.0508 11.0674 565 60.6354 953.186 527.152
222 0 51.075 10.044 513 62.0117 953.509 527.023
223 0 53.1098 11.5986 616 60.961 953.052 524.417
224 0 55.0947 10.6544 587 62.1721 952.741 521.964
225 0 56.0832 11.7682 660 61.147 952.727 521.208
226 0 55.0214 10.6322 585 62.8598 952.726 520.556
227 0 58.1024 10.2405 595 63.0571 952.689 518.911
228 0 59.057 9.51624 562 63.9235 952.233 518.397
229 0 62.0673 11.5359 716 62.095 953.282 516.275
230 0 65.0405 9.59402 624 63.9647 953.149 515.272
231 0 67.06 12.1086 812 60.8941 953.2 513.47
232 0 67.0424 10.0832 676 63.9068 953.428 514.636
233 0 70.0342 10.9232 765 63.0275 952.807 511.186
234 0 71.0828 10.0728 716 64.7207 953.122 509.07
235 1 37.1091 8.16511 303 64.5248 953.469 527.541
236 0 37.0632 10.4956 389 62.5913 953.018 528.368
237 0 38.1266 9.94056 379 63.7071 953.863 527.47
238 0 43.0626 11.193 482 61.2054 954.066 526.585
239 0 43.0249 10.645 458 62.1725 954.159 527.419
240 0 45.0528 11.8972 536 61.5448 954.44 525.231
241 0 46.0551 11.356 523 62.1893 954.098 524.526
242 0 49.1256 11.6843 574 60.7909 954.124 525.711
243 0 49.0903 11.9168 585 61.494 954.593 522.231
244 0 48.0437 10.6986 514 63.2082 954.054 523.669
245 0 50.0828 10.243 513 65.0292 953.212 522.733
246 0 52.0485 11.0474 575 62.767 954.301 523.308
247 0 54.1462 10.9334 592 63.375 953.666 521.674
248 0 55.1165 12.6096 695 61.6676 953.682 520.932
249 0 59.0997 12.0644 713 62.0743 954.764 519.868
250 0 59.1672 9.414 557 64.4165 954.454 523.312
251 0 62.1685 11.6297 723 62.4661 954.033 521.887
252 0 63.0756 12.81 808 61.7624 953.585 519.978
253 0 64.0968 11.8727 761 63.339 954.393 519.445
254 0 68.0984 13.3336 908 61.0308 954.439 519.508
255 0 70.1183 10.9101 765 64.3203 953.59 516.693
256 0 73.1457 11.0875 811 64.9346 954.275 515.704
257 0 72.0372 10.328 744 66.5659 952.974 513.726
258 0 76.138 10.7305 817 66.0037 953.681 514.824
259 0 80.1352 11.3308 908 64.7456 953.468 513.775
260 1 39.0116 9.68943 378 64.246 953.603 532.167
261 0 41.0639 9.47305 389 63.8663 953.776 532.424
262 0 44.081 10.8437 478 62.2782 953.573 531.594
263 0 46.0891 12.2806 566 61.0618 953.67 529.721
264 0 47.1 11.0403 520 62.0558 953.448 530.698
265 0 49.044 11.5203 565 61.8973 953.242 528.65
266 0 48.1023 9.52137 458 64.7183 953.463 528.524
267 0 50.0427 9.85159 493 63.6734 953.183 528.913
268 0 50.0729 8.94696 448 65.2254 953.386 527.605
269 0 54.0709 10.5602 571 63.1996 953.405 525.296
270 0 56.1554 9.90109 556 63.4263 953.178 526.921
271 0 57.025 11.9421 681 61.8957 953.651 523.63
272 0 60.0643 10.6719 641 62.2746 953.345 526.842
273 0 61.1014 11.3909 696 61.7902 953.297 524.572
274 0 63.0779 11.5096 726 61.7713 953.109 521.769
275 0 66.1022 11.1191 735 61.8844 952.352 522.442
276 0 69.1315 12.8017 885 60.1288 952.485 521.767
277 0 68.02 10.8497 738 63.981 952.576 518.593
278 0 72.0814 12.2778 885 61.7864 952.368 520.906
279 0 76.0747 11.7122 891 62.1336 952.269 521.187
280 0 76.1004 10.8935 829 64.1966 952.522 515.963
281 0 77.0768 11.0799 854 63.9637 951.714 518.129
282 0 80.0691 11.565 926 62.8251 951.195 518.594
283 0 83.061 9.49905 789 65.8479 950.863 517.207
284 0 86.1735 12.0687 1040 63.2769 950.705 511.105
285 1 46.0757 10.3959 479 61.7453 951.775 534.292
286 0 44.066 9.78079 431 63.3016 951.462 533.244
287 0 50.1265 12.0894 606 60.1353 951.262 532.409
288 0 49.0522 12.028 590 61.4627 951.597 529.285
289 0 51.0883 9.94358 508 64.2677 951.642 529.911
290 0 52.0808 10.6757 556 64.0198 951.437 529.299
291 0 53.1391 10.7266 570 65.0316 951.56 526.775
292 0 56.0432 12.2762 688 62.9622 951.061 527.516
293 0 58.0926 11.8948 691 62.9855 951.342 528.687
294 0 60.1241 11.759 707 63.7921 951.898 525.97
295 0 61.0855 9.4294 576 66.0625 951.378 527.755
296 0 64.055 13.6445 874 60.968 951.356 524.934
297 0 65.0922 11.0459 719 64.7441 951.257 523.391
298 0 67.1355 11.7375 788 64.6269 951.643 521.02
299 0 69.111 12.2701 848 64.2193 951.548 518.513
300 0 71.0376 11.698 831 65.4344 951.241 516.392
301 0 72.0988 10.8185 780 66.5038 951.658 515.528
302 0 75.0476 10.9397 821 66.1766 951.71 515.954
303 0 79.0596 11.9151 942 65.2643 951.67 513.459
304 0 80.1144 12.1576 974 64.6817 951.259 513
305 0 83.1669 12.6493 1052 64.5608 951.579 510.111
306 0 86.1828 11.4524 987 65.6515 951.811 510.366
307 0 88.0931 10.0462 885 67.9627 951.399 506.708
308 0 90.1907 11.9746 1080 66.2537 951.58 504.824
309 0 93.1368 12.8735 1199 65.5438 951.138 503.24
310 1 48.1202 10.0997 486 67.0638 951.675 527.944
311 0 50.1091 10.3175 517 66.795 952.331 526.698
312 0 49.0515 11.0292 541 66.2791 951.654 525.407
313 0 50.093 10.5204 527 64.6888 951.88 527.342
314 0 54.1079 11.2368 608 63.9441 951.141 523.98
315 0 53.054 10.6118 563 65.4565 951.057 524.86
316 0 57.1934 12.0294 688 63.9549 950.895 520.799
317 0 59.1242 11.4674 678 64.4661 951.674 523.696
318 0 57.0945 11.0343 630 66.1857 951.294 522.065
319 0 60.1361 11.7068 704 64.7528 951.331 520.705
320 0 62.0934 11.5954 720 65.3486 951.933 521.086
321 0 66.1152 13.2194 874 62.3673 952.443 520.771
322 0 67.0825 14.0573 943 62.2174 952.531 518.458
323 0 70.1365 12.4472 873 64.0412 951.743 514.596
324 0 69.1084 10.6065 733 65.9454 951.809 518.359
325 0 74.196 13.4239 996 62.259 951.871 515.199
326 0 74.2388 11.8671 881 64.5448 952.262 513.603
327 0 77.1145 12.7862 986 63.2211 951.305 511.446
328 0 80.1522 12.8006 1026 63.4016 952.198 509.66
329 0 81.1627 10.8178 878 65.7597 952.421 510.483
330 1 42.0184 10.2336 430 62.4372 952.86 530.977
331 0 43.0544 9.82479 423 63.5745 952.79 529.771
332 0 40.0923 10.1266 406 63.9507 952.803 529.985
333 0 42.0356 10.2294 430 63.7 952.095 526.867
334 0 45.0496 11.5428 520 61.1481 951.019 528.835
335 0 47.0742 12.0448 567 61.1711 951.473 526.349
336 0 46.0119 10.28 473 63.7082 951.746 525.455
337 0 49.1065 10.1209 497 62.996 951.62 525.085
338 0 51.1419 11.4583 586 61.2031 952.198 525.22
339 0 52.0473 9.81799 511 63.1429 952.139 523.495
340 0 57.0181 11.4525 653 60.0138 952.081 522.57
341 0 57.0641 12.705 725 59.0703 951.321 522.385
342 0 60.0913 12.4311 747 59.079 951.797 520.404
343 0 61.0724 12.5261 765 59.0261 951.665 519.213
344 0 64.0968 12.1847 781 58.6082 951.2 517.082
345 0 67.1394 13.1666 884 57.5792 951.606 516.319
346 0 66.044 10.7958 713 60.8682 951.198 516.606
347 0 70.0839 13.1557 922 58.1594 952.291 515.033
348 0 72.1505 12.0581 870 59.6506 952.061 512.189
349 0 74.0296 13.9539 1033 56.5682 952.453 514.783
350 0 77.1101 11.0751 854 59.7869 952.204 512.341
351 0 83.3275 15.2171 1268 45.2776 951.403 511.612
352 0 84.1201 13.1716 1108 57.2004 952.041 508.637
353 0 86.1698 11.9183 1027 58.7098 951.859 508.079
354 0 89.1292 13.1719 1174 57.7641 951.531 504.98
355 1 44.0476 9.87568 435 60.023 950.993 526.832
356 0 46.0388 11.9247 549 58.3825 951.557 524.78
357 0 47.175 11.4044 538 59.2825 950.909 527.186
358 0 50.0522 11.448 573 59.0785 951.873 524.799
359 0 48.1427 10.2196 492 61.3333 952.52 522.825
360 0 51.0824 10.9823 561 60.2228 951.091 524.07
361 0 53.0367 11.1809 593 60.4401 951.118 521.506
362 0 55.0566 11.6789 643 59.8802 951.482 518.191
363 0 55.0759 10.2404 564 61.883 951.601 518.947
364 0 58.1021 12.0994 703 59.7198 952.22 516.639
365 0 60.08 11.4847 690 60.3536 952.072 517.08
366 0 62.1123 13.2502 823 58.7691 951.849 517.192
367 0 63.04 11.1358 702 61.1638 951.583 517.764
368 0 65.2058 12.9436 844 59.3081 951.68 516.879
369 0 67.0723 12.4642 836 60.2464 951.792 513.596
370 0 71.1001 11.533 820 60.7134 951 513.17
371 0 72.0756 11.918 859 60.3667 951.588 512.7
372 0 77.0593 10.8358 835 61.4623 951.654 511.625
373 0 75.154 10.1126 760 62.7421 951.643 508.675
374 0 81.1311 10.5015 852 61.8662 951.689 508.85
375 0 85.0382 13.2764 1129 58.9318 952.128 505.756
376 0 86.0609 11.8521 1020 60.7902 952.012 505.15
377 1 46.0775 11.8279 545 58.9119 951.283 527.02
378 0 45.06 12.095 545 59.8789 951.301 527.048
379 0 46.1381 10.1435 468 62.7842 951.671 525.545
380 0 51.0252 14.6594 748 56.488 951.167 525.1
381 0 47.0765 10.7272 505 62.6 951.269 523.331
382 0 52.1233 10.8397 565 61.5398 951.173 523.713
383 0 52.0541 11.8723 618 61.3123 951.888 521.506
384 0 54.1035 11.0899 600 62.5283 951.988 520.98
385 0 56.1061 12.5833 706 60.8173 951.601 520.081
386 0 57.1408 11.0954 634 62.7429 951.407 519.226
387 0 60.1445 11.5056 692 61.7529 951.717 519.363
388 0 61.0924 10.3941 635 63.5433 952.195 517.041
389 0 64.116 12.415 796 61.0666 952.253 517.128
390 0 66.0331 12.3726 817 61.7552 952.383 516.602
391 0 69.2073 12.4842 864 61.4676 952.275 514.065
392 0 69.1616 13.4034 927 60.959 952.008 512.041
393 0 72.0327 12.5637 905 61.6254 951.946 514.419
394 0 74.046 11.2903 836 63.5634 952.038 512.541
395 0 75.085 11.0541 830 64.2819 951.613 510.139
396 0 80.082 11.4882 920 63.1152 952.204 512.764
397 0 82.0866 12.7305 1045 62.5254 952.284 508.428
398 1 41.0541 10.6445 437 63.2746 952.556 529.73
399 0 43.0097 10.2303 440 63.4523 952.641 525.575
400 0 43.0989 11.0212 475 63.5074 953.059 526.994
401 0 46.0177 11.4521 527 61.4004 952.491 528.55
402 0 49.072 12.3084 604 60.5017 952.8 525.846
403 0 49.0598 11.0681 543 61.3959 952.823 528.107
404 0 51.0658 12.0237 614 61.0586 952.717 525.958
405 0 52.1207 12.4327 648 60.5772 952.744 524.659
406 0 53.0807 11.3601 603 61.8408 952.395 524.658
407 0 56.0554 11.5778 649 61.5208 952.515 522.32
408 0 57.1138 12.764 729 60.7709 952.542 521.008
409 0 60.0572 14.1365 849 58.6372 953.045 519.947
410 0 60.1766 11.649 701 61.8716 952.589 520.708
411 0 60.1802 11.1166 669 62.1136 952.327 522.146
412 0 63.0478 11.9116 751 61.4221 952.668 520.517
413 0 66.0549 11.445 756 61.9392 952.451 518.206
414 0 68.0415 11.3754 774 62.2817 952.355 516.904
415 0 71.0698 11.4395 813 61.9557 952.052 514.518
416 0 72.0728 11.8908 857 61.4679 952.242 514.882
417 0 75.1841 12.6224 949 60.4837 952.84 516.44
418 0 78.1671 11.6545 911 61.6784 952.885 512.566
419 0 78.1518 10.2877 804 63.5311 952.427 511.233
420 0 83.1578 12.6025 1048 61.0372 952.377 510.544
421 0 85.2496 10.0294 855 63.9953 952.406 510.126
422 1 39.0474 8.27199 323 61.1827 952.492 534.433
423 0 41.09 9.95377 409 60.1907 952.897 531.232
424 0 43.0119 10.16 437 59.8307 952.499 530.65
425 0 45.0458 9.87883 445 60.5146 952.007 526.748
426 0 47.0367 9.90717 466 60.8197 952.33 525.888
427 0 48.1451 10.5307 507 60.357 952.187 523.809
428 0 49.1614 10.313 507 60.7002 952.582 522.98
429 0 52.2045 11.4933 600 58.905 952.792 524.175
430 0 52.0886 10.0598 524 60.5 952.008 523.781
431 0 54.1201 9.58978 519 60.2042 952.287 525.453
432 0 55.0863 8.85882 488 61.5615 952.592 521.902
433 0 58.1288 11.767 684 58.1009 952.803 522.225
434 0 59.097 10.5928 626 59.9521 952.548 520.746
435 0 63.2206 11.705 740 59.3689 952.677 516.907
436 0 64.0982 11.732 752 59.2912 953.207 517.128
437 0 66.1427 9.22249 610 62.4623 952.605 516.244
438 0 68.1249 11.3762 775 59.9871 952.742 517.35
439 0 70.0759 11.0737 776 60.5232 952.267 515.039
440 0 74.1432 11.0462 819 60.7241 952.385 513.269
441 0 76.1481 11.4776 874 60.5332 952.386 512.863
442 0 79.0893 11.0129 871 61.4374 952.628 512.617
443 1 41.0591 10.0343 412 59.4272 952.109 531.192
444 0 43.1565 10.1028 436 57.8142 952.663 533.521
445 0 44.1504 10.7587 475 58.4947 951.992 531.865
446 0 45.0873 12.2873 554 57.8177 952.282 529.861
447 0 47.0448 11.3721 535 59.3439 951.849 528.914
448 0 48.0951 10.6872 514 60.2938 952.319 529.198
449 0 51.1081 10.6245 543 59.9576 952.768 526.77
450 0 50.1684 11.5411 579 59.1762 951.185 524.838
451 0 51.1108 10.7414 549 60.0656 952.075 527.086
452 0 54.1532 10.9873 595 59.9042 952.195 524.455
453 0 53.1809 9.51469 506 61.4427 952.619 524.421
454 0 58.0785 10.4514 607 59.9522 952.881 520.259
455 0 59.1737 11.4747 679 58.6539 952.882 522.667
456 0 61.0751 11.0192 673 59.997 952.306 520.554
457 0 64.1359 10.696 686 59.5714 952.761 521.373
458 0 64.1467 10.0707 646 60.6827 952.121 517.582
459 0 67.1087 11.8763 797 59.0201 952.468 518.11
460 0 69.219 9.65053 668 61.2186 952.163 517.737
461 0 73.1585 10.3884 760 60.2118 952.8 515.555
462 0 75.1005 10.7989 811 60.2404 952.697 513.544
463 0 77.2333 10.5395 814 60.2641 952.507 514.133
464 1 38.0507 9.14569 348 60.6839 951.362 530.727
465 0 41.0689 9.54493 392 59.3163 951.926 530.321
466 0 41.0988 9.27034 381 59.874 951.906 529.063
467 0 43.0506 10.6851 460 57.3913 951.904 528.917
468 0 45.0203 10.3953 468 57.7991 952.085 528.904
469 0 46.099 10.7811 497 57.7948 951.318 528.459
470 0 48.1289 11.0121 530 57.5283 951.238 528.738
471 0 47.0644 9.22141 434 59.1544 951.442 529.917
472 0 51.0502 9.97058 509 59.7505 951.251 524.483
473 0 52.0494 12.5458 653 56.9541 951.464 523.968
474 0 52.0263 9.82196 511 60.5793 951.239 524.74
475 0 57.1651 12.2452 700 57.69 951.231 523.877
476 0 54.0483 9.97257 539 61.1688 950.647 523.234
477 0 59.0569 10.1089 597 60.876 950.538 522.595
478 0 59.0881 9.47738 560 62.4196 950.621 521.37
479 0 61.0403 11.0583 675 60.12 950.513 519.797
480 0 62.0828 10.0189 622 61.5386 950.006 520.715
481 0 65.088 11.277 734 60.4496 950.909 517.787
482 0 68.0456 11.5658 787 60.5972 951.327 516.718
483 1 33.0371 9.23204 305 60.1934 951.308 534.498
484 0 35.1307 10.1336 356 59.6601 951.208 534.604
485 0 37.0898 9.86795 366 60.3607 952.505 533.5
486 0 35.1109 9.85448 346 60.9538 952.087 532.682
487 0 41.1038 9.14756 376 60.3883 951.899 533.356
488 0 39.0464 9.86007 385 61.4883 951.849 532.174
489 0 38.2152 9.42032 360 62.3611 952.364 531.808
490 0 40.0887 11.2251 450 60.7089 952.587 529.789
491 0 41.0499 9.30574 382 61.9293 952.594 529.304
492 0 41.1337 10.2592 422 61.8507 952.28 529.107
493 0 44.0458 11.9648 527 58.8956 951.67 528.753
494 0 45.1068 9.2669 418 62.4258 951.323 525.923
495 0 46.0615 11.3978 525 60.3181 950.467 525.59
496 0 49.1826 11.0608 544 60.0037 951.335 527.228
497 0 50.1066 10.0985 506 61.0889 950.881 526.818
498 0 49.0228 9.85255 483 62.2277 951.201 525.122
499 0 50.1568 9.58993 481 62.2536 950.636 525.173
500 0 54.0158 10.0526 543 61.5488 951.289 524.291
501 0 54.0409 11.5468 624 60.3221 950.78 523.505
502 0 56.088 11.0362 619 60.9855 951.603 522.242
503 0 60.1025 11.2974 679 59.9809 951.308 521.088
504 0 59.05 11.0076 650 60.5692 951.58 519.385
505 0 60.0348 12.6094 757 59.0145 951.466 518.569
506 0 64.0593 12.1138 776 58.942 951.55 518.765
507 0 66.1222 12.2047 807 58.632 951.152 517.019
508 0 68.1277 11.5225 785 59.5032 951.078 516.678
509 0 70.1008 12.6675 888 58.0631 951.046 516.068
510 0 73.1865 10.9446 801 60.181 951.245 515.205
511 0 76.1571 12.3298 939 58.5346 951.793 514.684
512 0 75.12 10.3435 777 61.1905 951.631 513.55
513 0 79.1293 9.83201 778 61.6298 951.419 513.342
514 0 82.1786 11.0126 905 60.4641 952.168 511.035
515 1 43.1494 10.4289 450 59.9444 952.193 530.618
516 0 47.0825 10.4073 490 60.249 951.876 527.518
517 0 46.0717 10.3968 479 60.5073 950.729 527.576
518 0 45.0603 7.87833 355 64.4085 951.27 528.414
519 0 49.2271 11.0305 543 60.7901 950.95 525.912
520 0 51.0348 11.1689 570 60.5965 951.528 524.458
521 0 53.0834 12.5274 665 59.0992 951.486 523.956
522 0 55.1575 10.6966 590 61.1017 951.325 525.124
523 0 55.1588 10.6783 589 61.7538 951.888 522.053
524 0 57.0911 9.77386 558 62.4713 951.744 522.866
525 0 59.2381 10.635 630 62.2746 951.919 521.057
526 0 61.2917 12.3508 757 60.2114 951.419 520.964
527 0 61.1189 10.3569 633 63.1912 951.844 517.024
528 0 64.1501 11.3796 730 62.0562 951.875 516.796
529 0 68.0515 11.697 796 60.7626 951.078 516.351
530 0 70.2161 11.7637 826 60.4818 950.51 515.4
531 0 72.2276 12.3637 893 59.7111 949.87 515.598
532 0 74.1316 11.0749 821 61.3642 950.8 515.39
533 0 77.1396 11.7968 910 60.9374 950.336 513.353
534 0 77.1479 12.2751 947 61.1235 950.788 512.333
535 0 82.1506 11.6737 959 62.1387 951.073 508.38
536 0 84.1607 11.7394 988 62.4352 951.317 508.893
537 1 42.1587 12.026 507 60.0138 951.032 527.308
538 0 45.1983 11.1066 502 60.2271 950.39 528.906
539 0 47.12 11.0569 521 60.5528 951.01 527.783
540 0 49.104 12.4226 610 59.5574 951.233 526.23
541 0 50.1549 10.7068 537 61.6387 951.048 526.169
542 0 51.1197 10.4265 533 60.5741 951.398 527.799
543 0 52.1289 10.1671 530 62.3679 950.979 523.76
544 0 53.1158 10.3171 548 62.3741 951.303 522.407
545 0 55.101 9.74573 537 62.2458 950.821 523.855
546 0 58.1658 11.7595 684 60.3348 950.871 522.08
547 0 60.1102 11.8615 713 59.885 950.884 521.763
548 0 63.1187 11.8032 745 59.2107 951.264 520.177
549 0 65.084 12.5377 816 58.5147 951.14 517.831
550 0 65.1098 10.4439 680 60.3015 951.035 520.676
551 0 67.1084 11.5932 778 59.7108 951.073 518.602
552 0 68.0734 10.6062 722 61.2867 951.26 516.616
553 0 73.1528 11.3188 828 60.0314 951.577 516.554
554 0 74.1271 10.9811 814 61.3034 951.391 512.181
555 0 77.1412 10.8891 840 61.3595 951.314 511.701
556 0 79.3202 11.2077 889 61.1485 951.12 512.367
557 0 81.1062 11.0349 895 61.8771 951.128 510.344
558 1 41.0609 9.74163 400 59.6225 951.688 530.777
559 0 43.0203 10.7856 464 57.2543 951.657 532.069
560 0 44.0634 11.0296 486 58.1091 951.938 528.265
561 0 46.0793 9.33173 430 59.5837 951.684 529.681
562 0 47.0755 12.8092 603 56.6385 951.766 527.098
563 0 49.1091 10.9552 538 58.7565 951.455 525.225
564 0 52.1084 11.3225 590 57.6763 951.41 524.7
565 0 51.0553 11.1839 571 58.2242 951.259 523.73
566 0 54.0657 11.412 617 57.1118 951.216 524.447
567 0 53.0846 9.19288 488 59.9836 951.316 522.377
568 0 56.0869 10.5194 590 58.4763 950.953 522.637
569 0 58.0645 11.16 648 57.7855 951.012 522.127
570 0 58.1027 10.8601 631 58.2013 951.691 521.978
571 0 61.0984 10.835 662 58.6405 951.755 519.039
572 0 64.0278 10.9484 701 57.9815 951.598 520.328
573 0 65.0626 10.8357 705 58.6128 951.393 517.467
574 0 68.1527 11.1221 758 58.3325 952.022 516.224
575 0 69.1579 10.6568 737 59.2049 951.63 516.259
576 0 70.1321 11.3785 798 58.8634 951.738 514.429
577 0 73.0672 11.8384 865 57.9491 951.609 516.247
578 1 37.1533 10.3356 384 58.3177 951.716 531.839
579 0 36.116 10.2448 370 59.2865 952.557 532.608
580 0 38.2201 7.11667 272 61.6434 953.765 532.504
581 0 42.1503 11.1031 468 57.2094 952.985 529.737
582 0 41.1292 10.2117 420 59.3524 952.524 528.44
583 0 45.1096 10.5299 475 58.2505 953.503 529.76
584 0 45.1291 11.3895 514 57.8093 952.321 528.504
585 0 47.2231 9.61394 454 59.9361 951.969 526.925
586 0 48.0806 10.1288 487 59.1129 952.674 526.653
587 0 48.1104 10.7461 517 57.9304 952.106 527.01
588 0 49.1131 11.5448 567 57.0265 951.621 524.792
589 0 51.0826 11.0997 567 57.6314 952.025 523.023
590 0 53.148 12.4746 663 56.2413 951.386 521.713
591 0 53.099 9.92485 527 59.129 951.328 520.48
592 0 56.0718 10.7897 605 58.4364 951.747 520.023
593 0 56.0515 9.50911 533 59.8799 951.244 521.546
594 0 60.1506 11.3049 680 58.1662 951.678 516.513
595 0 63.1271 10.7561 679 59.0177 951.667 516.857
596 0 65.1184 12.0243 783 57.5134 951.894 515.055
597 0 66.1039 10.3776 686 59.2813 951.692 512.41
598 0 68.0881 11.0886 755 58.4596 951.955 512.128
599 0 69.1751 10.6975 740 59.0824 951.204 511.851
600 0 73.0971 9.22061 674 60.3131 951.34 512.936
601 0 78.0983 11.6904 913 58.1687 951.496 509.781
602 1 37.0574 9.36384 347 58.9308 952.501 530.288
603 0 40.0523 11.6348 466 56.1202 951.925 528.633
604 0 42.0405 10.7991 454 56.7863 951.78 529.491
605 0 42.0945 11.8068 497 57.6197 952.869 526.97
606 0 43.0906 10.6752 460 58.7152 952.428 525.402
607 0 47.1503 11.3679 536 57.5802 952.731 525.993
608 0 47.026 11.1428 524 58.1756 952.487 526.866
609 0 49.0525 11.5998 569 57.5272 951.912 523.286
610 0 49.1428 11.6802 574 57.7718 952.202 524.092
611 0 54.1566 9.45406 512 59.4277 952.646 523.311
612 0 54.1062 12.3276 667 57.4393 952.306 517.565
613 0 57.127 12.4635 712 57.0435 952.008 520.815
614 0 56.1133 12.4569 699 58.0272 952.173 518.74
615 0 60.0612 12.0211 722 57.8601 951.849 520.141
616 0 60.1279 10.0286 603 61.3947 951.992 517.743
617 0 62.1078 10.675 663 61.2881 952.321 514.688
618 0 63.0866 10.9849 693 60.5613 952.235 514.418
619 0 67.0762 12.1802 817 58.7772 952.077 515.858
620 0 69.0451 10.1962 704 61.0881 952.388 513.996
621 0 70.0769 8.87596 622 62.7717 952.103 510.257
622 0 72.1278 9.94069 717 61.5704 952.28 512.594
623 1 34.0306 8.37482 285 60.6386 952.811 531.951
624 0 38.0712 9.29836 354 59.0056 953.195 531.494
625 0 39.0266 10.4544 408 59.7696 952.909 527.238
626 0 38.043 9.4104 358 61.2151 952.106 528.735
627 0 44.0574 11.9617 527 57.907 952.027 525.543
628 0 43.0913 10.8375 467 60.0428 952.692 526.193
629 0 45.0883 14.7045 663 56.0995 952.825 524.6
630 0 47.1974 9.87342 466 61.2124 952.408 525.47
631 0 48.0637 11.6304 559 59.7317 952.381 522.873
632 0 51.13 11.6566 596 59.3507 951.938 522.124
633 0 50.0871 11.3403 568 60.3398 951.826 524.033
634 0 54.0479 11.3603 614 60.2573 952.208 522.503
635 0 55.1082 11.2687 621 60.9259 952.192 519.995
636 0 57.1106 12.6597 723 59.3361 952.56 521.3
637 0 60.1254 12.1579 731 59.6731 952.813 519.171
638 0 61.0904 11.704 715 60.4112 952.839 516.931
639 0 63.3071 12.2103 773 60.0259 952.001 515.528
640 0 65.0798 11.0787 721 61.2871 952.449 516.255
641 0 68.0592 12.0336 819 60.4615 951.808 515.07
642 0 70.1488 11.4614 804 61.2624 952.035 513.083
643 0 70.1341 10.6368 746 62.3365 951.571 510.209
644 0 74.1178 12.8174 950 59.9811 951.599 510.687
645 0 78.0984 12.1385 948 60.5074 952.178 510.422
646 0 80.2283 12.2401 982 60.5112 951.775 508.658
647 0 82.1747 14.7004 1208 58.2318 951.887 507.428
648 0 82.0649 11.9539 981 61.7227 952.005 503.846
649 1 42.0591 10.4853 441 62.0476 951.966 527.043
650 0 46.1522 12.6105 582 59.6959 952.538 525.588
651 0 46.0336 10.4489 481 62.0603 952.813 527.087
652 0 48.0702 12.9394 622 60.1817 952.293 526.098
653 0 49.0466 11.8051 579 61.1952 952.295 524.449
654 0 49.132 11.9678 588 61.5833 952.828 525.437
655 0 52.069 12.5795 655 60.5771 952.455 523.744
656 0 54.0929 13.2365 716 60.2179 952.439 521.885
657 0 56.0661 12.5566 704 61.4872 953.054 520.547
658 0 57.0618 13.4766 769 60.7555 952.377 518.506
659 0 59.2818 13.1069 777 60.6937 952.172 519.58
660 0 61.0993 13.1753 805 61.3304 952.595 518.998
661 0 63.1154 14.9092 941 59.1828 952.205 518.667
662 0 63.1902 11.9481 755 63.1642 952.379 517.611
663 0 65.0731 13.4771 877 61.4424 952.447 516.043
664 0 68.1474 12.5904 858 62.7063 951.787 513.635
665 0 69.0612 13.5677 937 61.8111 952.266 513.249
666 0 73.073 12.248 895 62.9922 951.991 512.356
667 0 76.1652 12.9718 988 61.9302 952.089 512.859
668 0 79.1412 14.8595 1176 59.1395 951.946 513.27
669 0 80.2323 14.4331 1158 60.8022 951.508 507.042
670 0 81.11 13.7961 1119 61.8329 951.47 507.488
671 0 85.1924 11.8673 1011 63.4461 952.478 507.578
672 0 89.0826 13.7625 1226 61.5106 952.595 505.561
673 0 93.1427 13.5062 1258 61.4817 952.067 506.02
674 0 93.131 13.3038 1239 62.2857 951.765 503.453
675 0 99.1339 14.0416 1392 61.4231 952.078 501.282
676 1 46.0375 11.4906 529 62.3384 952.378 526.688
677 0 49.1859 10.3078 507 63.6391 952.892 525.323
678 0 50.1072 13.2316 663 60.822 952.397 523.066
679 0 52.1083 11.8791 619 62.084 952.638 524.435
680 0 53.1212 11.7467 624 62.4503 952.119 522.322
681 0 55.0805 12.3637 681 61.6931 952.662 523.463
682 0 58.0452 14.2303 826 59.2688 952.718 522.754
683 0 59.2233 12.1236 718 61.2563 952.962 522.162
684 0 62.1268 11.6375 723 62.0567 952.469 520.676
685 0 62.0562 13.0204 808 61.2314 952.61 520.217
686 0 65.1447 11.651 759 62.7549 952.386 517.109
687 0 68.126 12.653 862 62.0336 951.514 516.352
688 0 67.1587 11.2569 756 63.9828 952.001 515.56
689 0 74.1917 11.4298 848 63.3962 952.767 514.65
690 0 76.0742 13.2108 1005 61.8149 952.631 513.659
691 0 77.1482 12.7547 984 62.1992 952.262 513.11
692 0 81.2793 14.1734 1152 60.7595 952.14 511.602
693 0 80.1097 14.1057 1130 61.9053 951.571 508.173
694 1 43.1543 9.66299 417 62.2638 952.794 530.338
695 0 43.0474 11.499 495 61.0384 951.824 530.071
696 0 43.0944 11.0455 476 62.2269 952.176 528.924
697 0 46.0491 10.0545 463 63.4816 952.467 528.672
698 0 50.0709 12.0629 604 61.6291 952.329 526.892
699 0 50.1757 11.3402 569 62.6169 952.814 525.638
700 0 50.1344 11.2897 566 62.7138 952.44 525.375
701 0 51.1517 12.1795 623 61.549 952.433 525.469
702 0 50.104 12.2545 614 62.2003 953.088 522.855
703 0 54.1608 12.6291 684 61.5482 952.121 522.317
704 0 57.1155 12.6411 722 60.6884 952.043 521.946
705 0 59.1316 12.0579 713 61.2637 952.278 521.844
706 0 60.1136 11.2953 679 62.9161 951.882 519.686
707 0 64.0991 12.0907 775 60.9355 952.2 521.902
708 0 65.0945 13.5188 880 60.8977 951.515 519.031
709 0 68.1189 12.6543 862 61.4884 951.981 517.797
710 0 69.0339 10.9801 758 64.0224 952.14 517.851
711 0 70.2261 12.83 901 62.5805 951.893 515.257
712 0 73.1119 11.8312 865 63.6116 951.518 515.414
713 0 75.1378 12.4571 936 63.0449 951.703 513.278
714 0 76.2312 10.2714 783 65.7637 951.443 513.464
715 0 79.047 11.4362 904 64.2113 952.195 513.085
716 1 42.2773 10.9988 465 62.2172 952.202 528.335
717 0 42.1326 10.3957 438 62.9384 952.532 531.064
718 0 43.0302 12.5028 538 60.8625 952.413 530.009
719 0 45.1136 12.2136 551 62.1579 952.501 527.501
720 0 46.063 9.98633 460 63.7826 951.946 527.922
721 0 50.1654 12.4588 625 60.6272 951.853 527.291
722 0 48.0715 9.65229 464 64.1509 952.373 527.328
723 0 53.0885 11.7916 626 61.7236 951.762 523.843
724 0 56.1844 11.6402 654 61.1713 951.765 524.749
725 0 55.0966 12.9228 712 60.5618 952.077 524.253
726 0 56.0989 10.2319 574 63.8728 952.16 523.429
727 0 58.1257 12.5246 728 61.4313 952.032 521.902
728 0 61.088 11.5735 707 62.6167 952.064 520.563
729 0 60.1218 10.329 621 64.2947 951.8 520.733
730 0 64.1141 10.5437 676 63.7825 952.124 520.469
731 0 65.2829 13.2194 863 60.0232 952.189 519.99
732 0 69.3298 12.7362 883 61.7055 952.041 517.435
733 0 68.1674 9.9021 675 65.4815 951.855 516.079
734 0 72.234 10.8675 785 64.0064 951.648 514.67
735 0 77.2517 11.469 886 62.5011 951.924 514.383
736 0 75.2152 9.85173 741 64.641 952.109 514.623
737 1 39.1476 11.5205 451 59.3925 952.534 532.284
738 0 41.1234 10.432 429 60.3333 952.38 531.056
739 0 41.1608 9.54791 393 62.3028 952.31 528.921
740 0 44.2087 12.2827 543 58.5948 952.289 529.902
741 0 46.2798 10.3717 480 61.0375 952.204 528.725
742 0 46.0671 12.1996 562 59.2402 951.788 528.644
743 0 48.2162 12.1951 588 59.1446 951.541 525.366
744 0 49.0889 10.2264 502 61.5717 951.203 524.116
745 0 50.024 11.6944 585 59.7812 950.619 522.544
746 0 49.1033 9.5513 469 62.5821 951.188 522.772
747 0 57.1119 11.8014 674 59.138 950.994 521.85
748 0 56.151 9.99092 561 61.205 950.932 522.305
749 0 57.1393 11.0432 631 60.5816 951.326 519.778
750 0 60.0548 10.1074 607 61.0214 951.155 518.768
751 0 61.087 9.77294 597 61.1223 950.896 516.358
752 0 64.1411 10.929 701 59.3652 950.815 519.482
753 0 67.1346 10.0097 672 59.7812 951.705 519.129
754 0 68.0943 11.0729 754 59.4867 951.647 516.279
755 0 69.0471 12.7015 877 58.1448 951.599 511.035
756 0 73.1514 11.7291 858 58.5245 951.935 512.382
757 0 76.2173 11.3622 866 59.3545 951.417 507.924
758 0 79.0481 10.6644 843 59.5718 951.125 511.983
759 0 77.0913 9.80656 756 61.2553 951.763 505.962
760 0 82.1959 11.0468 908 59.3733 951.395 506.373
761 1 38.0936 8.89914 339 60.236 951.77 524.826
762 0 43.0405 11.0129 474 57.1688 951.447 527.451
763 0 44.0331 9.44743 416 59.5889 951.255 525.248
764 0 47.0396 10.7994 508 57.3701 951.74 525.067
765 0 49.0856 11.4698 563 56.476 950.931 525.096
766 0 47.1636 10.9618 517 57.6364 952.145 521.099
767 0 51.2678 13.5563 695 54.905 950.902 521.201
768 0 52.0294 9.84059 512 58.2402 951.625 522.717
769 0 54.2066 11.6406 631 56.7908 951.732 519.933
770 0 54.0472 11.749 635 57.3669 951.272 518.658
771 0 56.196 11.6023 652 57.1733 951.356 518.206
772 0 59.0554 10.8881 643 57.8491 951.481 516.369
773 0 59.1794 10.3921 615 58.3301 951.197 518.746
774 0 62.15 13.5157 840 55.781 951.025 516.225
775 0 66.0931 12.4824 825 56.4133 950.87 516.201
776 0 67.1844 11.7885 792 57.375 951.428 515.095
777 0 68.1428 10.5954 722 59.2659 951.208 513.064
778 0 71.1975 12.669 902 57.2384 951.425 512.284
779 0 75.1645 11.8673 892 58.0258 951.028 511.283
780 0 74.0831 10.5692 783 60.4572 951.304 507.822
781 0 78.1312 12.2742 959 58.7226 951.152 507.114
782 0 79.2426 10.0199 794 60.8199 951.919 509.771
783 0 83.1611 12.578 1046 58.522 951.728 505.296
784 0 87.142 12.7723 1113 58.5651 951.562 505.576
785 0 88.1634 13.9287 1228 57.3493 952.094 506.566
786 0 93.1451 13.8923 1294 57.364 951.61 503.964
787 0 95.1875 12.4491 1185 59.6456 951.432 501.437
788 0 97.1162 11.9959 1165 60.3202 951.267 501.587
789 1 50.0478 11.8087 591 58.8173 950.951 522.775
790 0 53.0492 10.7259 569 59.6221 950.504 523.172
791 0 55.0494 10.9356 602 59.1944 950.922 523.362
792 0 54.0461 11.3792 615 59.5236 951.325 522.833
793 0 56.0988 11.4619 643 59.4868 951.493 522.39
794 0 58.0135 12.4454 722 58.1967 951.792 519.922
795 0 58.258 10.9513 638 60.4248 951.039 519.933
796 0 63.1183 11.3755 718 59.5404 951.113 519.822
797 0 65.0682 11.7262 763 59.5242 951.211 515.982
798 0 66.1508 11.9424 790 58.7228 951.359 518.722
799 0 70.1453 13.4578 944 57.3962 951.635 514.412
800 0 71.1414 12.5665 894 58.7707 951.257 514.298
801 0 71.169 12.1261 863 59.1947 951.665 515.674
802 0 72.134 11.0489 797 61.8657 951.646 510.267
803 0 77.1658 13.1276 1013 58.615 951.874 513.624
804 0 80.1529 12.314 987 59.6748 951.905 511.905
805 0 82.1362 13.3193 1094 59.0622 951.731 508.844
806 0 85.2509 10.909 930 61.7903 951.555 507.912
807 0 87.1379 12.9106 1125 59.7262 952.039 508.193
808 0 90.1213 11.1184 1002 61.7236 951.498 504.998
809 0 91.1898 10.5604 963 62.865 952.074 503.892
810 0 95.2108 12.0154 1144 61.2649 951.604 502.468
811 0 98.2139 11.6786 1147 61.5955 951.635 500.839
812 1 50.0526 11.408 571 60.0665 951.52 525.124
813 0 54.0618 12.3377 667 58.5112 952.507 524.973
814 0 54.1237 10.9379 592 61.1267 952.051 524.492
815 0 56.0823 12.9988 729 59.1756 951.933 522.599
816 0 58.0445 12.5249 727 60.4787 951.883 519.953
817 0 60.1413 13.2023 794 59.7758 952.429 518.945
818 0 64.1859 10.2982 661 61.1876 951.933 524.357
819 0 64.2102 11.5246 740 61.5432 951.8 519.523
820 0 67.1123 13.9915 939 58.9776 951.878 518.013
821 0 67.1096 11.7569 789 61.3257 951.508 518.692
822 0 71.038 12.5989 895 60.7966 951.905 516.008
823 0 73.0976 12.326 901 61.606 951.239 513.097
824 0 74.118 12.0753 895 61.438 951.089 515.745
825 0 75.071 12.5748 944 62.5445 951.952 508.712
826 0 79.093 12.0618 954 62.3187 951.501 510.9
827 0 83.2038 13.2566 1103 60.9039 951.733 509.298
828 0 87.0885 14.6403 1275 59.1161 951.748 509.69
829 0 89.1542 12.5064 1115 62.0126 951.354 507.092
830 1 47.0628 9.11548 429 63.2378 952.096 527.786
831 0 47.0337 9.99283 470 62.6404 950.896 527.455
832 0 50.0268 13.6927 685 59.0584 951.368 525.759
833 0 51.0835 11.2169 573 62.1885 951.475 523.661
834 0 54.0312 12.5113 676 60.6036 952.121 523.836
835 0 54.0651 12.0225 650 60.7092 951.863 525.422
836 0 54.0228 12.6798 685 61.073 951.746 521.336
837 0 57.2108 12.5326 717 60.4937 951.466 521.902
838 0 59.04 11.2974 667 61.8726 951.136 521.148
839 0 61.0709 11.413 697 61.7446 950.957 519.379
840 0 64.3106 12.4552 801 60.1011 951.317 520.474
841 0 63.1135 10.6475 672 63.5253 951.844 515.415
842 0 67.0994 13.7408 922 59.7603 951.76 514.32
843 0 68.0717 11.8698 808 62.3094 951.858 517.14
844 0 70.0472 11.1211 779 63.1669 951.883 511.728
845 0 73.1268 11.8151 864 61.9745 951.738 513.142
846 0 75.057 10.3122 774 63.7196 950.913 512.014
847 0 78.0236 11.8554 925 61.7751 951.414 512.194
848 0 82.1179 13.1396 1079 60.8675 951.601 510.151
849 0 84.0308 12.1503 1021 62.0744 951.097 507.882
850 1 43.0772 11.166 481 60.5863 950.985 528.472
851 0 44.049 12.8947 568 59.7852 951.822 526.836
852 0 44.0744 12.9781 572 59.8601 951.184 526.138
853 0 45.0444 12.521 564 60.8493 951.236 524.394
854 0 48.1154 12.948 623 59.7705 950.958 527.294
855 0 49.0821 10.187 500 62.542 951.4 527.716
856 0 50.0767 12.2013 611 61.239 951.09 521.764
857 0 51.0691 11.0047 562 62.7242 951.089 522.635
858 0 54.1773 12.293 666 60.8544 950.533 522.08
859 0 56.1659 12.1426 682 61.0279 950.705 521.503
860 0 57.0739 10.8456 619 63.0081 951.457 519.766
861 0 59.0708 9.98801 590 65.1661 951.003 519.444
862 0 60.0899 10.8338 651 64.5591 951.387 519.994
863 0 62.0763 12.2752 762 62.9672 950.617 516.634
864 0 64.1322 11.8817 762 63.4475 951.277 515.328
865 0 69.0692 11.2351 776 63.8698 951.258 513.479
866 0 70.0485 10.764 754 64.496 951.849 514.134
867 0 71.0692 11.7913 838 63.3878 951.254 514.483
868 0 76.1089 10.6295 809 64.8146 951.681 513.185
869 0 76.133 10.4948 799 64.7559 951.816 513.717
870 0 80.0818 11.1261 891 64.6004 951.343 506.635
871 0 86.0647 11.1312 958 63.9029 951.075 509.43
872 0 87.0847 12.4821 1087 62.9586 951.426 504.715
873 0 88.084 11.8183 1041 63.9347 950.434 505.465
874 0 91.138 11.6417 1061 64.0933 950.746 503.463
875 0 96.1363 11.931 1147 64.2459 951.133 503.202
876 1 47.0547 10.1796 479 63.8831 951.269 526.042
877 0 50.0301 11.7329 587 62.4361 951 523.402
878 0 52.2265 12.2735 641 62.3588 950.576 521.612
879 0 51.0507 12.3211 629 63.0588 950.725 519.431
880 0 54.0583 11.7281 634 63.5552 950.785 521.481
881 0 58.0602 11.4192 663 63.7903 951.175 519.531
882 0 58.051 11.3349 658 64.079 950.913 516.871
883 0 59.0295 10.1644 600 65.2867 950.937 517.71
884 0 62.0558 13.1817 818 61.8716 950.993 515.796
885 0 64.1069 11.7928 756 63.619 951.118 513.91
886 0 67.1282 10.1895 684 64.9825 951.295 513.95
887 0 69.0691 12.8133 885 62.0362 951.179 513.377
888 0 74.1263 12.3303 914 62.5777 951.387 512.224
889 0 75.1813 11.2661 847 63.5065 951.406 512.071
890 0 77.0452 11.318 872 64.367 951.641 509.471
891 0 79.0635 11.9777 947 63.396 951.12 510.023
892 0 83.0456 12.5955 1046 62.7859 951.462 505.734
893 0 88.0686 14.8521 1308 59.8823 952.076 506.483
894 1 43.0428 9.73451 419 63.222 951.148 527.969
895 0 45.0271 12.1038 545 61.7688 951.648 525.139
896 0 48.0544 11.2997 543 62.1529 951.764 525.099
897 0 51.033 12.4821 637 60.8226 951.658 524.444
898 0 51.1827 9.00695 461 64.6464 951.555 523.542
899 0 53.087 11.2834 599 62.4307 951.85 522.007
900 0 54.179 11.6097 629 61.8013 952.091 522.504
901 0 54.0669 10.2466 554 63.6029 951.682 520.94
902 0 59.1373 11.245 665 61.6421 951.374 520.28
903 0 60.0631 13.0363 783 60.4547 951.253 517.814
904 0 61.1334 12.0883 739 61.2652 951.181 519.352
905 0 63.0819 10.8589 685 61.7562 951.601 519.536
906 0 65.0638 11.0814 721 62.0319 951.381 515.667
907 0 69.216 11.139 771 60.869 951.505 515.956
908 0 72.1147 11.6897 843 60.4935 951.887 514.639
909 0 72.096 9.48735 684 63.5424 952.114 512.383
910 0 75.0346 11.2481 844 61.7145 952.974 512.977
911 0 79.2303 12.7476 1010 59.8386 952.857 509.493
912 1 43.0134 10.6711 459 58.4793 953.041 530.37
913 0 44.0747 8.44021 372 61.1935 953.266 528.075
914 0 43.0569 8.40748 362 61.942 952.967 527.967
915 0 45.1019 8.9575 404 61.1411 952.213 528.109
916 0 48.0988 13.1812 634 56.7681 952.181 525.872
917 0 49.0291 11.9113 584 58.2757 952.283 527.104
918 0 51.0394 11.2658 575 58.4365 952.123 526.13
919 0 51.0563 10.7528 549 60.0182 951.579 522.047
920 0 54.2004 10.7564 583 59.3894 951.696 524.012
921 0 55.0602 12.2956 677 58.2349 951.477 520.985
922 0 59.0438 11.212 662 59.1526 952.13 520.184
923 0 60.1007 11.0648 665 59.4977 951.328 518.405
924 0 60.0428 11.0754 665 59.9534 951.762 517.168
925 0 62.0865 10.9041 677 60.1152 951.979 517.214
926 0 65.0798 11.2631 733 59.7708 951.599 518.523
927 0 67.0749 11.0324 740 59.7784 952.116 517.908
928 0 69.0858 11.8114 816 59.8272 951.716 513.754
929 0 71.0645 11.2011 796 60.441 951.741 515.29
930 0 73.0783 13.7797 1007 58.2989 951.7 512.095
931 0 77.0998 12.4773 962 59.5748 951.866 512.191
932 1 39.0364 9.11968 356 61.2781 951.935 531.522
933 0 38.0279 9.99266 380 60.5974 952.203 530.203
934 0 42.0431 11.1314 468 59.5748 952.451 528.718
935 0 43.0672 9.6361 415 60.5325 952.308 530.388
936 0 42.0269 9.80325 412 61.75 952.731 528.43
937 0 44.0432 11.7158 516 59.8198 952.519 525.103
938 0 44.1103 10.4057 459 61.2309 952.458 527.342
939 0 45.0301 9.63799 434 62.576 952 525.124
940 0 48.0716 11.4413 550 59.9618 951.567 525.369
941 0 50.0231 10.4952 525 61.3924 951.903 522.32
942 0 50.0459 11.1897 560 61.1321 952.511 523.961
943 0 52.043 11.2983 588 61.3248 952.027 520.995
944 0 54.0783 10.5403 570 62.2754 952.614 519.463
945 0 58.0821 13.5498 787 58.2922 952.703 520.741
946 0 57.1241 11.9739 684 60.7953 952.346 519.507
947 0 60.1277 11.4091 686 61.5204 952.647 517.563
948 0 61.0724 10.4794 640 62.2578 952.498 518.073
949 0 62.0894 11.7894 732 61.4495 952.825 517.305
950 0 67.1035 10.8191 726 61.3017 952.238 518.544
951 0 68.0411 11.6106 790 61.4899 952.437 514.805
952 0 70.1153 12.1086 849 60.967 951.718 511.362
953 0 73.1075 11.2847 825 61.6873 952.312 511.544
954 0 77.1346 11.5512 891 61.4579 952.339 510.553
955 0 79.1111 15.0927 1194 57.7253 951.531 509.131
956 0 79.1029 11.2006 886 62.5305 952.277 509.446
957 0 84.2133 12.4565 1049 60.5396 951.606 506.386
958 1 43.0857 10.2586 442 61.5792 952.276 524.649
959 0 46.082 10.3728 478 61.3954 951.579 525.318
960 0 45.0227 10.0616 453 62.3775 951.943 525.221
961 0 50.0919 10.6404 533 60.8405 952.529 525.163
962 0 50.0232 13.034 652 58.9954 952.391 522.957
963 0 53.0547 11.686 620 60.0452 952.755 522.305
964 0 54.0775 13.5361 732 58.2623 951.807 521.962
965 0 53.0243 13.541 718 58.9694 952.145 523.079
966 0 57.0869 12.0343 687 60.1849 952.508 520.335
967 0 59.147 11.3108 669 60.7175 952.145 521.392
968 0 61.0496 13.0058 794 58.8249 952.389 520.717
969 0 63.0991 12.3615 780 60.3859 952.005 517.582
970 0 65.109 12.7939 833 59.9712 952.353 516.289
971 0 69.0948 13.0835 904 59.1139 952.226 516.57
972 0 70.1445 12.517 878 59.861 952.356 515.669
973 0 73.105 12.0512 881 60.504 952.44 513.494
974 0 74.0916 13.3483 989 59.3711 952.345 511.195
975 0 76.0721 12.5933 958 60.3382 952.129 512.97
976 0 78.0874 11.103 867 61.8927 952.018 508.913
977 0 82.0715 11.6606 957 61.163 951.99 510.53
978 0 84.112 11.4015 959 62.0594 951.979 507.343
979 1 43.0645 12.0052 517 59.9632 951.925 526.884
980 0 44.0248 10.3578 456 60.7281 952.467 528.559
981 0 44.0108 11.2245 494 61.4717 952.036 523.68
982 0 47.0808 11.0448 520 60.8846 952.483 523.462
983 0 49.0495 11.9471 586 59.686 952.418 524.389
984 0 50.2345 11.1676 561 60.9002 952.549 524.715
985 0 51.0536 11.7132 598 60.9699 952.736 523.941
986 0 54.0665 10.7275 580 61.4086 952.352 522.716
987 0 55.0791 12.8905 710 59.3817 952.717 521.956
988 0 58.0151 13.0828 759 58.7365 952.321 520.851
989 0 57.0959 10.9465 625 61.3216 951.44 519.25
990 0 60.0651 13.2856 798 59.1216 952.327 518.229
991 0 62.0699 11.8576 736 60.3886 951.89 519.082
992 0 66.2419 10.5371 698 61.3438 952.221 516.554
993 0 68.276 11.8636 810 59.6296 952.132 518.206
994 0 70.1387 13.0598 916 58.8275 952.606 513.513
995 0 72.0876 14.6905 1059 57.2823 951.938 511.325
996 0 75.0547 12.3776 929 59.5447 952.657 513.36
997 0 77.1341 12.2773 947 60.0792 952.287 510.346
998 0 81.143 11.7817 956 60.5795 951.895 509.678
999 1 42.1607 11.9305 503 58.8907 952.443 527.384
1000 0 42.1115 9.21364 388 61.1108 952.054 528.959
1001 0 43.0461 9.59437 413 62.46 952.14 523.947
1002 0 45.0541 10.5207 474 61.0295 952.049 525.797
1003 0 48.042 11.49 552 59.9728 951.685 525.699
1004 0 50.1058 11.815 592 59.8818 951.821 523.014
1005 0 52.1187 10.9749 572 60.4685 951.245 522.666
1006 0 53.0822 12.6408 671 59.1654 951.526 522.812
1007 0 55.0869 14.3228 789 57.4221 951.795 521.828
1008 0 56.0849 11.2151 629 60.9523 951.382 520.671
1009 0 57.0404 12.2895 701 59.5934 951.175 520.813
1010 0 60.0735 12.6845 762 59.4003 951.413 520.878
1011 0 61.1447 10.6796 653 61.7335 951.668 520.003
1012 0 66.1878 12.6156 835 58.9784 950.94 520.141
1013 0 67.1012 13.5914 912 58.9561 951.136 517.739
1014 0 67.0975 11.8335 794 61.9194 951.169 514.597
1015 0 69.0638 10.5989 732 62.8593 951.055 513.503
1016 0 72.1188 10.1083 729 63.2346 951.783 516.181
1017 0 75.0995 12.3436 927 61.3074 951.712 514.883
1018 0 79.0958 12.1372 960 61.7479 951.615 515.331
1019 0 81.1003 11.159 905 63.0928 951.356 511.691
1020 0 84.1121 12.9589 1090 61.5073 951.341 511.683
1021 1 43.0313 11.0617 476 62.2626 951.017 528.775
1022 0 46.1221 12.9439 597 60.1106 951.082 527.96
1023 0 47.0561 12.7082 598 60.9415 950.88 527.171
1024 0 48.0685 10.9219 525 62.7619 951.194 525.998
1025 0 49.0382 11.5624 567 62.4974 950.855 525.781
1026 0 50.3689 11.1378 561 62.8021 951.187 526.485
1027 0 54.1591 12.2232 662 61.3414 950.245 525.751
1028 0 54.0681 12.1328 656 62.2073 950.518 524.552
1029 0 55.0376 11.2832 621 63.4686 950.279 522.095
1030 0 57.0665 12.5643 717 62.2259 950.008 520.6
1031 0 60.096 12.6464 760 61.7645 950.008 521.557
1032 0 62.064 10.4086 646 64.2508 950.577 521.659
1033 0 64.1063 12.7601 818 62.0905 950.809 516.855
1034 0 65.1076 12.656 824 62.4272 950.351 515.931
1035 0 68.1074 12.1132 825 62.5673 950.653 516.131
1036 0 72.0498 12.4358 896 62.058 950.177 515.75
1037 0 73.085 11.8629 867 62.9146 950.368 514.497
1038 0 75.0942 12.1048 909 62.7646 949.509 513.802
1039 0 78.307 12.9107 1011 61.7577 949.883 513.426
1040 0 81.2447 12.8624 1045 62.2182 949.232 511.213
1041 0 84.084 11.988 1008 63.87 949.753 507.531
1042 0 86.1447 12.9898 1119 62.437 949.878 509.52
1043 1 43.0286 9.97012 429 62.8228 950.193 530.224
1044 0 43.0264 12.318 530 61.3736 949.832 528.262
1045 0 44.0916 10.4782 462 62 949.831 531.541
1046 0 47.017 11.7192 551 61.8058 949.74 525.996
1047 0 48.1233 10.8887 524 62.355 949.71 527.826
1048 0 50.0255 13.2932 665 59.8647 951.017 525.826
1049 0 54.0462 11.5087 622 60.6592 951.008 526.273
1050 0 53.0747 12.6802 673 60.63 950.516 524.181
1051 0 56.1316 10.992 617 61.5008 950.316 526.253
1052 0 55.0585 11.0973 611 62.874 950.155 522.455
1053 0 58.0947 11.9116 692 61.5896 950.306 523.442
1054 0 63.0816 13.0307 822 59.9294 949.926 521.247
1055 0 63.051 11.5462 728 61.9959 950.541 519.137
1056 0 64.0624 10.7395 688 62.8881 950.076 520.451
1057 0 67.1135 12.3671 830 60.4904 950.07 518.745
1058 0 69.1011 13.3428 922 59.6323 949.964 517.258
1059 0 73.0706 12.659 925 59.8735 950.277 514.726
1060 0 77.1488 11.575 893 59.7872 950.116 519.148
1061 0 79.1439 11.3464 898 61.0746 950.431 516.051
1062 0 80.138 12.5409 1005 59.8905 950.474 513.64
1063 1 41.0559 10.1325 416 60.125 950.844 533.796
1064 0 41.0151 10.7278 440 60.3068 950.789 531.273
1065 0 42.0468 10.417 438 60.6689 951.037 531.779
1066 0 44.1438 11.6438 514 58.9066 950.482 529.058
1067 0 47.0248 11.3344 533 58.531 950.52 530.023
1068 0 48.0163 13.2038 634 56.7319 950.937 526.962
1069 0 49.0337 11.4411 561 57.7415 950.513 529.531
1070 0 50.0764 12.2413 613 57.5808 951.661 528.284
1071 0 54.1339 12.192 660 56.7121 950.77 528.17
1072 0 54.0267 10.3097 557 59.0952 951.217 527.662
1073 0 55.1141 11.3583 626 57.9696 950.401 525.008
1074 0 57.0408 11.3603 648 57.4938 951.577 525.094
1075 0 60.1497 12.3691 744 56.0054 951.069 524.63
1076 0 61.0549 10.941 668 57.5734 951.033 521.792
1077 0 63.035 11.216 707 57.5714 951.416 520.956
1078 0 66.1298 13.5037 893 55.7312 951.617 518.916
1079 0 68.1192 12.1405 827 57.2721 951.473 516.377
1080 0 69.044 11.5434 797 57.9536 951.306 517.713
1081 0 73.0569 11.3747 831 57.9338 951.857 517.067
1082 0 75.1957 13.1258 987 56.772 951.281 514.092
1083 0 77.1514 10.8618 838 59.222 951.455 512.161
1084 0 79.2467 11.42 905 57.9702 950.859 513.797
1085 0 82.2005 11.7153 963 58.3364 951.713 510.615
1086 1 41.0373 10.7463 441 57.0567 951.082 531.819
1087 0 42.1377 9.35029 394 59 951.246 529.292
1088 0 44.1204 12.2619 541 56.6784 951 527.678
1089 0 45.0252 12.1932 549 56.6302 950.663 529.301
1090 0 47.1115 10.7192 505 57.9624 951.83 530.253
1091 0 49.0402 10.5016 515 57.9068 950.893 529.326
1092 0 52.2396 11.0835 579 56.9482 952.352 528.249
1093 0 52.0713 12.3677 644 56.4969 951.14 524.009
1094 0 54.0346 11.9183 644 56.5543 951.168 524.227
1095 0 56.0536 13.7012 768 54.4141 951.956 524.906
1096 0 53.0834 8.06278 428 60.8621 951.138 525.428
1097 0 58.2949 12.574 733 56.0764 950.486 520.065
1098 0 62.0723 12.0505 748 56.008 950.797 521.219
1099 0 61.2422 13.7487 842 54.8135 950.677 519.15
1100 0 63.183 13.5954 859 55.2829 950.959 519.675
1101 0 67.1597 11.6439 782 56.5281 951.422 518.864
1102 0 69.1977 13.96 966 54.5155 950.797 517.12
1103 0 71.0862 11.8026 839 56.5495 951.369 517.236
1104 0 73.1041 13.7338 1004 54.6295 951.083 516.436
1105 0 75.118 13.2991 999 55.4615 951.215 514.626
1106 0 79.1501 11.3961 902 56.7373 951.04 514.611
1107 0 81.1384 12.0412 977 56.4534 951.366 513.97
1108 0 84.054 12.1589 1022 56.3855 951.277 513.234
1109 1 44.0743 11.6168 512 56.957 951.801 528.568
1110 0 46.0415 11.229 517 56.8298 951.849 530.103
1111 0 49.4266 12.8473 635 55.0331 951.846 530.373
1112 0 47.0228 11.1861 526 58.6008 951.091 527.133
1113 0 49.1599 12.3678 608 57.4622 951.688 526.4
1114 0 51.1696 11.9993 614 57.3013 951.365 526.744
1115 0 52.0521 13.2175 688 56.6395 951.785 525.366
1116 0 54.0462 13.1184 709 56.7504 951.825 525.01
1117 0 60.0415 12.9244 776 56.1198 951.316 522.867
1118 0 59.1009 14.0269 829 56.029 951.419 522.809
1119 0 60.0843 13.3978 805 56.7888 950.954 522.287
1120 0 62.1667 14.1233 878 56.1025 950.757 520.232
1121 0 65.19 13.2996 867 56.94 951.55 519.143
1122 0 65.1404 12.2965 801 57.809 951.618 520.561
1123 0 71.1427 13.5643 965 56.9534 951.536 516.769
1124 0 70.1101 13.8354 970 57.1495 951.788 514.716
1125 0 73.0538 12.703 928 58.4332 951.916 514.393
1126 0 77.0606 13.405 1033 57.0165 952.035 516.348
1127 0 79.1064 12.1608 962 58.8877 951.805 513.771
1128 0 84.0418 13.2553 1114 57.395 951.749 511.654
1129 0 86.1059 13.1466 1132 58.1016 952.032 508.873
1130 0 89.0596 12.8566 1145 58.1039 951.974 507.144
1131 1 46.194 11.4517 529 58.7788 951.631 529.926
1132 0 42.0251 9.32776 392 61.5255 951.459 530.653
1133 0 47.1201 10.1655 479 60.357 951.653 529.812
1134 0 49.1035 13.6243 669 56.864 951.253 527.897
1135 0 50.0712 11.7832 590 58.8508 951.78 526.571
1136 0 50.0858 12.4387 623 58.2986 951.499 526.026
1137 0 55.1003 11.4518 631 58.6783 951.25 523.179
1138 0 56.1043 14.1522 794 56.4861 951.742 520.074
1139 0 58.0728 13.3281 774 57.2222 951.911 518.859
1140 0 61.0994 13.2243 808 57.3342 952.11 520.472
1141 0 62.0517 14.5202 901 55.9323 952.346 519.619
1142 0 64.0534 11.5373 739 58.9486 952.693 519.858
1143 0 66.1182 12.1903 806 58.2581 952.145 516.208
1144 0 71.064 15.9152 1131 54.3431 952.274 516.53
1145 0 72.0761 10.7664 776 59.8789 952.053 514.751
1146 0 75.0974 12.7701 959 58.0229 951.716 514.575
1147 0 78.1486 13.1672 1029 57.6122 951.36 513.014
1148 0 81.0894 12.2581 994 58.4447 952.101 513.425
1149 1 38.1001 11.2598 429 60.2937 952.284 531.52
1150 0 42.0607 10.6513 448 60.6138 952.362 531.156
1151 0 40.0144 12.8204 513 59.9786 952.462 528.263
1152 0 44.1556 13.4524 594 57.7475 951.85 530.182
1153 0 45.0226 11.4165 514 60.8911 952.076 527.047
1154 0 48.1334 12.7562 614 59.8306 952.927 526.651
1155 0 49.1368 12.9842 638 59.8793 952.697 525.257
1156 0 51.0688 12.7279 650 60.0077 952.278 524.505
1157 0 51.1351 12.8679 658 60.6429 952.015 523.17
1158 0 52.1106 13.5289 705 60.0894 952.251 523.933
1159 0 54.0495 12.5996 681 61.6579 952.094 521.865
1160 0 57.0633 11.6362 664 62.4352 951.449 521.67
1161 0 57.0225 11.7673 671 62.386 952.043 522.608
1162 0 63.1932 12.7862 808 60.8428 952.038 516.991
1163 0 62.0438 12.4589 773 62.3545 952.329 515.906
1164 0 66.3313 12.8597 853 61.1583 951.761 519.533
1165 0 68.0468 11.11 756 63.3743 952.101 516.192
1166 0 71.084 12.8721 915 61.1967 951.962 514.631
1167 1 32.0364 8.92733 286 64.4301 952.451 531.622
1168 0 36.0634 10.4261 376 62.1117 952.505 531.295
1169 0 37.0317 12.2058 452 60.396 952.259 530.42
1170 0 41.0569 11.959 491 59.5336 951.896 531.295
1171 0 42.1195 12.6307 532 59.3421 951.692 530.523
1172 0 41.0815 12.3657 508 60.0413 952.207 529.285
1173 0 43.1431 11.2185 484 61.4897 951.366 528.076
1174 0 44.0863 9.93505 438 63.1553 951.521 527.637
1175 0 45.2208 11.8751 537 60.8156 951.631 526.59
1176 0 48.0523 11.758 565 60.7735 951.956 527.143
1177 0 50.1013 11.1374 558 61.2294 952.061 527.971
1178 0 53.0883 10.7557 571 61.5429 952.315 526.215
1179 0 52.1859 12.3022 642 60.8022 951.991 523.498
1180 0 53.0235 11.3534 602 62.608 951.392 521.945
1181 0 57.0857 13.471 769 59.3368 951.941 522.589
1182 0 56.1001 13.4224 753 60.3201 951.293 520.795
1183 0 60.1459 12.9685 780 60.3756 952.351 521.794
1184 0 61.0751 12.9513 791 61.1922 952.11 520.144
1185 0 63.1397 11.5141 727 62.1472 951.583 519.235
1186 0 66.0463 11.4314 755 62.4781 951.874 518.734
1187 0 69.1467 10.5573 730 63.6 951.959 516.588
1188 0 72.0999 11.3176 816 62.0319 951.724 517.077
1189 0 75.1182 11.6084 872 62.4048 951.454 514.505
1190 0 75.077 14.1055 1059 60.1586 951.936 512.639
1191 0 79.0621 11.6617 922 62.8362 951.621 513.255
1192 0 83.1963 12.7169 1058 61.3601 952.071 512.187
1193 1 44.1001 11.1338 491 62.4664 952.138 527.847
1194 0 45.0545 10.9645 494 62.7004 951.802 527.077
1195 0 46.1153 11.2761 520 63.1519 951.883 525.717
1196 0 49.0441 12.6009 618 61.4498 951.877 525.422
1197 0 51.0657 12.0433 615 62.1642 951.338 523.525
1198 0 55.0921 13.4683 742 59.7507 951.795 524.092
1199 0 57.0724 12.6331 721 60.3412 951.773 523.896
1200 0 57.032 13.0102 742 60.8086 951.437 521.752
1201 0 59.0833 11.8815 702 61.4202 951.246 522.036
1202 0 61.0899 12.4734 762 60.8937 951.698 519.444
1203 0 62.1758 13.0919 814 60.5553 951.364 518.946
1204 0 65.0525 13.174 857 60.0758 951.422 519.207
1205 0 67.0818 12.9842 871 60.2135 951.253 518.68
1206 0 66.1426 12.8359 849 60.6278 950.733 516.165
1207 0 73.2225 14.1896 1039 58.7786 951.233 513.795
1208 0 73.209 11.5559 846 61.7447 951.345 514.043
1209 0 77.1578 13.44 1037 59.3626 951.432 513.952
1210 0 80.22 12.3909 994 60.5453 951.393 510.664
1211 0 82.1644 13.3878 1100 59.6036 951.556 509.117
1212 0 84.1473 11.6344 979 61.6415 951.831 510.005
1213 0 89.3414 13.2861 1187 59.4414 951.703 510.727
1214 0 92.1025 13.6478 1257 59.5513 951.176 506.575
1215 0 92.1591 12.5001 1152 60.401 951.281 508.178
1216 1 47.1116 13.0117 613 58.9152 951.931 526.326
1217 0 49.0486 11.6007 569 60.3568 951.29 525.538
1218 0 51.0602 10.3212 527 61.6528 951.647 525.398
1219 0 55.1228 11.0118 607 60.4794 951.736 525.501
1220 0 55.0317 15.1004 831 57.213 951.677 522.454
1221 0 56.0444 14.1495 793 58.4855 950.897 519.497
1222 0 58.0689 10.7631 625 61.0896 951.181 521.317
1223 0 62.1212 12.4917 776 59.2539 951.303 518.148
1224 0 62.1574 12.8866 801 59.2946 951.899 518.39
1225 0 63.0581 13.1625 830 59.4663 951.661 515.545
1226 0 66.1678 14.5086 960 57.801 951.794 515.209
1227 0 68.1067 12.8475 875 59.0983 951.769 517.755
1228 0 69.193 11.9087 824 60.3058 952.093 516.618
1229 0 74.0857 13.9028 1030 58.0272 951.5 516.205
1230 0 76.2502 13.3508 1018 59.0413 951.403 511.658
1231 0 77.0756 11.8325 912 60.8991 951.8 510.407
1232 0 81.2027 14.4823 1176 57.7211 951.907 513.673
1233 0 82.129 12.0786 992 60.9244 951.554 507.639
1234 0 86.2743 12.6225 1089 60.3875 951.385 506.856
1235 0 87.1699 11.6898 1019 61.6428 951.897 505.116
1236 1 44.0664 10.3707 457 60.9497 952.501 527.195
1237 0 45.1714 11.401 515 60.4641 952.555 526.384
1238 0 49.2447 11.7982 581 58.9759 952.833 528.53
1239 0 48.0778 13.9149 669 57.5306 952.034 527.8
1240 0 49.1034 11.1805 549 60.9727 952.361 525.608
1241 0 54.058 11.2657 609 60.2677 952.233 523.821
1242 0 54.0747 11.3177 612 60.652 952.224 522.761
1243 0 55.1918 12.2844 678 59.7035 952.54 521.353
1244 0 56.0799 12.714 713 59.6942 952.825 520.292
1245 0 59.1102 12.6036 745 59.0295 952.04 520.866
1246 0 64.1821 13.1813 846 57.779 951.647 521.077
1247 0 67.2662 12.9931 874 58.3146 952.521 517.973
1248 0 68.2152 14.337 978 57.0389 952.117 519.569
1249 0 70.2963 13.372 940 58.4596 952.232 518.23
1250 0 71.082 11.9299 848 61.0967 952.841 513.252
1251 0 75.5095 13.4155 1013 59.0355 951.995 512.778
1252 0 78.1858 12.2784 960 60.4917 952.655 512.375
1253 0 80.1274 10.7828 864 61.7188 952.416 512.985
1254 0 80.1253 11.9313 956 61.4111 952.374 510.951
1255 0 85.272 12.0555 1028 61.7889 952.392 509.589
1256 0 88.4091 13.6864 1210 60.3355 952.345 509.034
1257 0 93.134 13.3249 1241 60.5302 952.766 507.745
1258 1 48.16 11.3995 549 61.3352 952.913 528.009
1259 0 46.0703 10.1367 467 63.197 952.319 528.334
1260 0 47.1482 11.0078 519 61.6012 952.634 530.753
1261 0 49.065 11.0466 542 62.5701 952.101 525.764
1262 0 52.0862 11.8265 616 61.1948 952.089 525.937
1263 0 53.2458 12.9775 691 60.2721 952.589 525.643
1264 0 54.2025 11.3279 614 62.2622 951.819 524.777
1265 0 56.1824 12.851 722 60.5402 952.356 523.373
1266 0 60.2907 13.4183 809 59.3993 952.083 522.867
1267 0 62.1942 11.2229 698 61.8223 952.096 522.229
1268 0 63.3644 11.8994 754 61.6737 952.15 518.727
1269 0 65.1906 10.4156 679 63.0795 952.085 520.583
1270 0 67.1954 13.1557 884 60.3428 951.518 518.275
1271 0 70.1252 13.2335 928 59.9483 951.815 518.445
1272 0 70.19 11.9818 841 61.8109 951.78 517.08
1273 0 75.267 11.3064 851 62.0905 952.076 514.528
1274 0 77.1979 11.4122 881 61.9818 952.401 514.97
1275 1 39.1035 10.4339 408 60.9167 952.885 535.412
1276 0 38.2735 10.5295 403 62.5955 952.236 530.633
1277 0 39.2736 12.5275 492 60.2114 953.136 534.333
1278 0 40.1581 11.7037 470 61.066 952.498 534.755
1279 0 45.0735 12.3798 558 60.0412 952.477 530.737
1280 0 42.1374 11.4625 483 62.3706 952.172 529.025
1281 0 45.0648 13.8911 626 59.8578 952.887 527.749
1282 0 48.261 10.6919 516 62.5271 951.174 525.504
1283 0 51.1975 13.8483 709 58.5726 952.36 526.705
1284 0 49.1353 12.6996 624 60.6522 952.332 526.923
1285 0 54.2063 11.5116 624 60.7436 951.17 526.38
1286 0 57.3247 12.3158 706 59.9816 951.439 522.424
1287 0 55.2639 11.4903 635 61.1748 952.102 524.083
1288 0 56.3145 10.9918 619 62.5153 952.276 524.124
1289 0 59.2996 12.361 733 61.2387 951.888 522.698
1290 0 63.325 13.0438 826 59.7712 951.236 520.558
1291 0 65.2125 13.4637 878 59.7631 951.76 519.294
1292 0 64.1874 11.778 756 62.2063 951.611 519.687
1293 0 66.151 12.6831 839 61.1263 951.33 520.672
1294 0 70.3463 11.8414 833 61.994 952.062 517.595
1295 0 74.3042 14.6021 1085 58.7401 951.146 515.088
1296 0 73.1971 13.3612 978 61.2209 951.805 515.465
1297 0 74.2111 11.373 844 63.4526 951.203 514.759
1298 0 80.2346 11.2046 899 62.9043 951.958 514.28
1299 0 81.0975 12.7378 1033 61.939 951.124 510.668
1300 1 43.2729 11.3697 492 61.9614 952.161 531.053
1301 0 44.1306 12.0098 530 62.0509 951.419 530.217
1302 0 45.3007 12.8254 581 60.938 951.819 529.157
1303 0 45.0205 10.4841 472 63.8496 952.167 531.235
1304 0 47.0702 13.1293 618 61.1764 951.888 527.777
1305 0 48.0535 11.0294 530 62.6509 951.796 528.149
1306 0 50.0285 12.3729 619 61.9386 951.871 526.011
1307 0 51.1537 13.9384 713 60.4614 952.065 526.157
1308 0 55.4482 13.5622 752 59.9375 951.944 523.622
1309 0 56.1591 13.6398 766 59.7963 952.437 524.176
1310 0 57.122 13.585 776 60.0477 952.503 523.38
1311 0 58.2771 12.1317 707 61.5898 952.321 523.478
1312 0 62.2616 13.3148 829 60.5283 952.344 520.966
1313 0 64.1542 13.4987 866 60.4111 951.857 520.114
1314 0 65.1241 12.8217 835 61.206 951.326 519.146
1315 0 71.1396 13.115 933 60.2262 952.293 520.429
1316 0 71.1791 14.9201 1062 59.0772 952.032 519.188
1317 0 75.1637 14.4086 1083 59.4063 951.539 515.695
1318 0 78.2103 13.7833 1078 59.9462 952.141 516.747
1319 0 76.0671 11.6345 885 63.5006 952.027 513.208
1320 0 81.0912 13.6143 1104 60.6875 951.376 515.864
1321 0 83.122 13.1012 1089 62.0193 952.149 511.865
1322 0 84.1598 12.6664 1066 62.9962 951.73 509.602
1323 0 91.1277 13.4756 1228 61.8502 951.699 513.008
1324 1 48.1443 10.24 493 65.0548 951.452 530.846
1325 0 47.0311 12.4173 584 63.9127 951.854 529.397
1326 0 50.0713 14.0599 704 61.858 951.024 527.493
1327 0 52.0781 12.1548 633 63.8167 951.968 527.014
1328 0 54.0715 13.2047 714 62.3193 951.696 527.137
1329 0 53.1566 13.6954 728 62.6593 951.231 526.047
1330 0 56.1339 11.9001 668 64.244 951.256 525.003
1331 0 60.1323 12.3062 740 62.9622 951.272 526.87
1332 0 62.111 13.5403 841 62.0547 951.447 522.263
1333 0 64.3962 12.4852 804 63.0336 951.873 522.714
1334 0 65.1404 13.54 882 62.6009 952.259 520.808
1335 0 67.1584 12.8651 864 63.0012 951.626 522.292
1336 0 72.1016 13.4948 973 61.7862 951.471 521.89
1337 0 74.1853 13.2506 983 62.5992 950.681 518.124
1338 0 74.0627 13.2455 981 62.1346 951.138 519.44
1339 0 77.1712 13.023 1005 63.009 951.269 516.799
1340 0 79.1659 13.8317 1095 61.6895 951.279 517.206
1341 0 86.224 12.9546 1117 62.6303 951.349 514.807
1342 0 88.0339 13.7788 1213 62.1657 951.431 513.264
1343 0 89.1322 14.0578 1253 62.2929 951.287 513.416
1344 1 46.046 13.8123 636 61.4277 951.096 531.605
1345 0 44.2257 13.0015 575 63.0626 951.736 533.224
1346 0 47.1038 13.7144 646 63.0774 951.542 532.311
1347 0 49.1275 14.3301 704 61.8991 951.214 530.107
1348 0 49.1214 12.4793 613 64.5514 951.512 529.542
1349 0 52.2078 13.4463 702 63.2906 951.872 527.369
1350 0 53.2687 13.2911 708 63.3814 951.85 527.206
1351 0 57.0818 12.123 692 63.7717 951.077 527.594
1352 0 58.1779 16.1058 937 59.841 951.323 525.363
1353 0 59.2028 13.0399 772 62.8912 951.066 524.762
1354 0 62.0675 12.8731 799 62.8511 951.27 524.997
1355 0 64.102 13.8217 886 61.8442 951.188 524.115
1356 0 67.2333 14.8884 1001 61.5704 951.703 521.245
1357 0 68.2475 13.5243 923 63.0184 951.482 522.187
1358 0 71.0671 14.8592 1056 61.2614 952.379 520.697
1359 0 72.1634 13.1646 950 63.7453 952.045 517.736
1360 0 74.2191 13.6892 1016 62.9045 951.839 518.036
1361 0 77.0754 13.5322 1043 63.2359 951.978 517.017
1362 0 79.0505 15.9645 1262 60.8114 951.319 516.583
1363 0 83.2629 15.4691 1288 61.6755 951.939 512.756
1364 0 85.1425 13.6242 1160 63.6612 951.451 513.616
1365 0 89.0802 13.37 1191 63.9555 952.172 511.901
1366 0 91.0938 12.5695 1145 64.9668 951.383 506.07
1367 1 43.364 13.0293 565 64.2425 951.814 531.386
1368 0 43.1293 12.6364 545 64.7982 951.994 532.248
1369 0 44.0386 14.2148 626 63.7492 951.986 530.423
1370 0 44.204 15.5868 689 63.3324 952.46 530.586
1371 0 45.139 14.267 644 64.3758 952.161 531.008
1372 0 49.0556 14.6976 721 63.6297 951.922 529.587
1373 0 50.1669 13.2159 663 64.8808 951.522 527.786
1374 0 52.0375 15.1814 790 63.1696 951.884 529.019
1375 0 54.1331 14.0579 761 63.4652 951.419 528.482
1376 0 55.1524 13.8163 762 64.1457 950.925 526.63
1377 0 57.1993 13.3918 766 64.4739 952.15 526.121
1378 0 61.0851 14.6026 892 62.7332 952.314 523.151
1379 0 63.1222 14.7808 933 62.4148 952.183 526.012
1380 0 62.0944 12.0623 749 66.5367 951.921 521.61
1381 0 67.1748 13.383 899 63.9177 952.078 524.202
1382 0 67.1387 13.3604 897 65.1026 951.679 518.67
1383 0 70.0772 15.6256 1095 62.8046 951.905 519.204
1384 0 73.0824 13.9432 1019 63.9872 951.568 518.044
1385 0 76.1765 15.2672 1163 62.9905 951.722 518.496
1386 0 78.1949 15.0266 1175 63.3974 951.831 514.342
1387 0 80.3266 13.5572 1089 65.101 951.884 514.805
1388 0 83.0924 14.4177 1198 63.9482 951.856 513.747
1389 0 85.1343 14.8001 1260 63.7921 951.786 511.343
1390 0 90.1021 14.6057 1316 63.4552 951.659 514.264
1391 0 94.0778 16.1462 1519 61.7558 951.423 509.933
1392 0 95.1816 15.6438 1489 63.0833 951.169 509.118
1393 0 100.175 15.4331 1546 62.8506 952.131 507.414
1394 0 98.1461 12.8074 1257 66.8703 951.163 504.724
1395 0 104.18 13.3519 1391 65.8174 951.892 502.895
1396 0 109.111 16.5428 1805 62.0947 951.377 502.796
1397 0 112.2 15.2941 1716 63.3193 951.79 503.002
1398 1 57.1237 13.0069 743 63.996 951.956 527.809
1399 0 58.1654 14.0805 819 63.1441 951.177 528.028
1400 0 58.1821 12.839 747 65.6841 951.435 526.817
1401 0 61.1158 14.1698 866 63.9573 951.786 526.709
1402 0 65.0556 14.7259 958 62.9478 951.422 525.33
1403 0 65.2105 14.8442 968 63.2603 951.049 525.829
1404 0 68.2357 14.3327 978 63.8701 951.45 522.461
1405 0 70.1546 16.0218 1124 62.274 951.471 521.312
1406 0 73.2364 14.6375 1072 63.3535 951.354 521.484
1407 0 73.3563 14.8044 1086 64.1298 951.169 519.794
1408 0 78.1131 14.4022 1125 64.4142 951.575 517.168
1409 0 77.3205 14.4334 1116 64.5206 951.198 518.882
1410 0 81.2364 16.4089 1333 62.3811 951.763 516.249
1411 0 86.1879 14.9789 1291 63.3021 951.453 515.482
1412 0 87.176 13.5588 1182 65.1726 951.007 515.338
1413 0 90.1406 15.5091 1398 63.779 951.034 510.286
1414 0 94.1905 14.4919 1365 64.3495 950.497 511.601
1415 0 95.1806 15.6124 1486 63.467 951.45 506.843
1416 0 101.313 15.2201 1542 63.666 952.211 505.463
1417 0 103.144 13.8254 1426 65.2826 952.075 507.426
1418 0 107.081 13.5786 1454 65.4642 951.056 504.263
1419 0 110.186 13.3047 1466 65.8786 950.864 502.149
1420 0 114.21 15.6291 1785 62.7193 951.548 499.094
1421 1 60.1801 13.4928 812 63.9212 951.377 528.02
1422 0 63.2042 11.9296 754 66.0424 951.174 525.716
1423 0 65.1479 12.8937 840 65.15 952.11 525.488
1424 0 68.2231 13.1041 894 65.2215 951.793 522.943
1425 0 69.1159 14.7433 1019 63.9578 951.869 522.45
1426 0 75.1372 14.1208 1061 63.8087 951.215 520.816
1427 0 76.273 14.199 1083 64.5235 951.86 520.301
1428 0 76.4067 11.9361 912 67.3103 951.348 516.005
1429 0 81.1574 12.9009 1047 65.829 951.364 518.534
1430 0 85.3035 14.3957 1228 64.4161 951.634 515.202
1431 0 87.1943 14.0147 1222 64.2349 951.51 516.481
1432 0 93.2395 14.2107 1325 64.557 951.722 513.082
1433 0 93.4207 14.7719 1380 64.5442 951.267 513.592
1434 0 97.5104 14.2344 1388 65.2003 951.607 508.13
1435 0 100.043 13.7941 1380 65.4464 951.233 508.914
1436 0 104.166 13.6993 1427 65.9993 951.533 504.395
1437 0 106.063 15.2551 1618 63.3424 951.074 510.284
1438 1 56.0689 13.2872 745 64.8215 951.291 531.185
1439 0 59.0905 14.0801 832 63.1959 951.218 530.714
1440 0 58.1344 12.0411 700 66.26 950.63 529.833
1441 0 62.1241 13.1994 820 65.5085 950.945 528.97
1442 0 64.1638 12.8577 825 66.1697 951.179 528.808
1443 0 67.3699 14.3536 967 65.0434 950.746 525.397
1444 0 69.4778 14.7097 1022 64.4344 950.835 524.581
1445 0 71.4882 16.0866 1150 63.3843 950.945 522.026
1446 0 74.299 14.5897 1084 64.9585 950.724 520.288
1447 0 78.1123 15.9002 1242 63.4018 950.845 518.588
1448 0 79.3026 14.4762 1148 65.1106 951.155 519.895
1449 0 82.2548 16.1085 1325 63.6672 951.095 516.268
1450 0 83.1049 12.9114 1073 68.3672 951.404 516.058
1451 0 87.4577 14.0983 1233 66.8727 951.702 513.016
1452 0 89.1522 13.6396 1216 67.8857 951.239 513.11
1453 0 91.2929 13.3855 1222 68.3993 951.146 509.848
1454 0 96.2453 14.5981 1405 66.748 951.389 508.428
1455 0 97.3892 11.7056 1140 70.0096 951.566 508.291
1456 0 104.294 15.9837 1667 64.2166 951.713 506.682
1457 0 106.691 13.8906 1482 67.2605 951.66 503.194
1458 1 54.1572 12.7961 693 67.2857 951.173 529.004
1459 0 56.3848 12.6275 712 67.9691 951.382 529.448
1460 0 56.3149 14.7741 832 65.8582 952.224 527.392
1461 0 57.152 13.0179 744 68.1022 951.698 524.388
1462 0 59.1113 13.1447 777 67.9151 951.997 526.354
1463 0 62.1772 14.3461 892 65.9417 951.966 525.91
1464 0 66.2786 13.745 911 66.067 951.333 525.805
1465 0 69.5097 14.8181 1030 65.5583 951.372 523.217
1466 0 70.1192 14.7463 1034 65.1122 951.191 522.791
1467 0 72.3588 13.5574 981 67.0418 951.657 519.64
1468 0 74.2048 14.0961 1046 66.457 951.232 517.895
1469 0 77.3272 13.9149 1076 65.5994 951.007 519.632
1470 0 79.1775 15.3832 1218 64.9245 951.369 514.262
1471 0 84.257 13.8742 1169 65.6296 951.737 515.853
1472 0 85.2809 12.1598 1037 67.7512 951.698 517.28
1473 0 89.1488 13.2139 1178 66.9754 951.125 512.943
1474 0 92.4555 13.4335 1242 66.4533 951.545 513.543
1475 0 98.1705 15.2184 1494 64.3092 952.013 511.851
1476 0 98.4137 15.0487 1481 65.16 951.635 507.161
1477 1 45.2757 12.9208 585 64.9966 951.701 535.862
1478 0 46.4345 13.266 616 65.125 951.412 531.817
1479 0 49.1578 12.2666 603 65.8557 951.653 532.716
1480 0 48.1921 13.4877 650 65.9938 951.383 531.078
1481 0 53.1995 13.6468 726 64.7025 951.281 531.521
1482 0 54.1172 17.1849 930 60.6215 951.585 530.72
1483 0 58.3673 13.929 813 63.679 951.032 529.83
1484 0 58.2223 14.5992 850 63.4894 951.165 530.486
1485 0 59.2276 13.7267 813 64.5781 951.263 529.499
1486 0 61.0877 14.3728 878 63.8098 950.478 528.513
1487 0 61.3307 14.7561 905 64.1326 951.573 527.927
1488 0 63.3864 13.3625 847 66.2338 951.124 525.341
1489 0 66.2155 12.7161 842 66.9632 951.171 522.407
1490 0 70.404 12.0874 851 66.725 950.7 522.561
1491 0 74.2009 13.989 1038 64.4451 951.069 522.649
1492 0 74.3391 13.7209 1020 65.1873 950.168 520.56
1493 0 76.3621 16.0158 1223 62.9223 951.013 519.52
1494 0 79.4176 14.2789 1134 64.6182 950.579 520.344
1495 0 78.2583 12.7526 998 67.8627 951.264 516.528
1496 0 83.3054 14.0567 1171 65.5918 950.873 517.603
1497 0 84.208 13.0035 1095 67.8575 950.871 513.517
1498 0 89.2652 15.5716 1390 64.2957 951.206 514.942
1499 0 91.3322 14.19 1296 66.4174 950.948 510.38
1500 0 94.2118 13.3635 1259 67.5528 950.889 509.3
1501 0 98.2181 13.9587 1371 66.8147 950.77 510.941
1502 1 46.2972 10.9078 505 70.2634 951.341 531.669
1503 0 49.1505 10.9256 537 69.5196 950.758 530.693
1504 0 55.271 13.2257 731 65.643 951.231 531.339
1505 0 55.2177 15.4298 852 64.4601 950.894 529.04
1506 0 58.5708 12.6172 739 67.6698 951.122 527.863
1507 0 60.3424 15.2629 921 63.8795 951.443 528.245
1508 0 61.3645 14.3242 879 65.6519 950.883 526.471
1509 0 64.3539 14.7466 949 65.3772 951.057 525.351
1510 0 64.402 14.8598 957 65.5298 951.123 525.421
1511 0 67.5812 15.1669 1025 64.4371 951.173 525.317
1512 0 70.2533 13.4228 943 66.7752 950.84 523.436
1513 0 71.3619 14.7137 1050 65.3486 951.266 522.516
1514 0 75.3851 12.0316 907 68.1544 950.851 521.689
1515 0 78.4534 16.4939 1294 63.4459 950.654 518.651
1516 0 78.4699 13.4574 1056 67.2216 951.643 519.18
1517 0 81.41 15.8212 1288 64.8975 951.166 517.006
1518 0 83.3046 15.9655 1330 64.582 950.75 516.974
1519 0 86.3928 17.0848 1476 63.9478 950.965 513.488
1520 0 89.5471 13.7693 1233 67.6521 950.923 510.023
1521 0 93.2868 13.8498 1292 67.8475 950.832 508.604
1522 0 96.2791 14.3333 1380 66.8029 951.412 509.613
1523 1 48.3257 11.5053 556 66.7896 950.964 534.511
1524 0 50.2771 13.2466 666 66.6051 950.998 531.53
1525 0 54.1713 14.1219 765 63.8444 950.999 532.748
1526 0 52.5004 12.2666 644 66.5559 950.783 531.604
1527 0 56.4302 13.5566 765 65.3765 950.685 529.867
1528 0 57.2994 15.3579 880 63.0614 950.594 529.5
1529 0 59.1957 13.3118 788 64.8934 950.566 530.32
1530 0 60.2183 14.298 861 64.8792 950.902 526.571
1531 0 63.5934 13.5234 860 65.1186 951.098 525.845
1532 0 64.2866 14.5287 934 64.3887 951.086 526.362
1533 0 66.5256 13.0025 865 66.1884 951.165 524.79
1534 0 68.4424 13.7488 941 65.5537 950.74 522.965
1535 0 71.4339 15.2309 1088 63.6838 950.488 521.989
1536 0 73.32 12.916 947 66.7751 951.017 521.719
1537 0 76.2211 14.7466 1124 64.9075 950.896 520.547
1538 0 77.3294 12.4403 962 67.5031 950.517 519.963
1539 0 80.5404 14.3779 1158 66.0259 950.726 516.886
1540 0 85.4225 14.4575 1235 65.1895 949.993 518.121
1541 0 85.4956 14.3984 1231 66.1137 950.063 514.321
1542 0 90.543 14.9542 1354 65.3035 950.024 515.383
1543 0 91.4329 13.2666 1213 68.1401 950.625 511.401
1544 0 95.622 14.9443 1429 66.1763 950.901 511.72
1545 0 95.2323 12.4223 1183 68.7557 950.303 509.036
1546 0 99.2954 14.2001 1410 67.1156 950.744 509.125
1547 0 104.652 14.3333 1500 67.1693 950.572 502.992
1548 1 49.3595 11.3859 562 67.2028 950.094 531.879
1549 0 53.1957 13.1214 698 64.9871 950.96 532.199
1550 0 53.2138 12.6659 674 65.8961 950.942 532.542
1551 0 55.3257 16.4119 908 62.359 950.789 531.688
1552 0 54.2103 14.2777 774 66.2791 950.908 530.178
1553 0 58.1714 14.4745 842 66.1401 950.499 527.861
1554 0 59.1912 15.4415 914 64.9792 950.516 528.635
1555 0 63.2793 13.4799 853 66.6084 950.488 529.506
1556 0 64.2342 13.5598 871 67.1906 950.488 527.638
1557 0 66.4612 15.5881 1036 64.806 950.714 527.018
1558 0 66.5573 12.801 852 67.5833 950.555 528.525
1559 0 69.2676 13.9459 966 67.764 950.326 523.94
1560 0 69.4483 15.0184 1043 67.3672 950.549 523.508
1561 0 74.3024 14.616 1086 67.023 950.952 522.288
1562 0 77.3791 15.5598 1204 66.1512 950.351 519.502
1563 0 78.3615 16.9343 1327 64.9992 950.494 518.468
1564 0 81.452 13.3207 1085 68.9668 950.137 518.868
1565 0 79.3433 11.759 933 72.0579 950.778 515.733
1566 0 85.5835 13.9162 1191 68.6205 950.754 515.992
1567 0 88.4088 13.5055 1194 69.2437 950.389 512.444
1568 0 90.3745 13.1896 1192 70.2341 950.289 510.053
1569 0 93.3473 14.13 1319 69.0432 951.09 510.055
1570 0 96.5135 13.7701 1329 68.8894 950.375 509.794
1571 0 100.701 13.9125 1401 68.3383 950.424 511.612
1572 0 101.642 13.7542 1398 69.5787 950.807 508.298
1573 0 108.317 15.1316 1639 67.7553 950.809 505.092
1574 0 110.32 13.6421 1505 69.4817 950.599 502.929
1575 0 114.37 13.6662 1563 69.833 951.015 499.443
1576 0 119.323 14.5991 1742 68.4782 950.506 501.231
1577 0 121.478 14.6858 1784 69.4389 950.645 495.635
1578 1 52.417 12.992 681 67.9809 950.605 531.905
1579 0 54.2976 12.1184 658 70.0015 950.733 529.556
1580 0 52.2722 10.541 551 72.4537 950.407 529.753
1581 0 56.2555 14.1497 796 68.6319 950.755 527.701
1582 0 59.5784 10.7757 642 72.6745 950.433 527.114
1583 0 58.4045 11.4717 670 72.9239 950.324 524.237
1584 0 61.5274 13.2786 817 70.9461 950.87 523.753
1585 0 63.5796 13.1489 836 71.0682 951.471 525.407
1586 0 64.6889 12.4132 803 71.8829 950.636 522.064
1587 0 68.2872 12.0374 822 71.6277 950.376 519.034
1588 0 70.4722 12.9838 915 70.1082 949.989 521.798
1589 0 73.2154 14.2456 1043 54.9971 949.846 518.267
1590 0 74.6246 12.7974 955 70.3005 950.275 520.379
1591 0 75.4478 13.6121 1027 70.4226 950.386 515.181
1592 0 79.2856 13.773 1092 69.5952 950.377 514.845
1593 0 82.4177 12.1819 1004 71.3187 950.309 512.049
1594 0 83.2692 13.5344 1127 70.2156 949.653 510.161
1595 0 90.4462 16.1864 1464 66.1086 949.088 511.231
1596 0 93.5222 14.6489 1370 68.0672 949.52 510.301
1597 0 94.4729 12.9349 1222 70.3265 949.691 507.253
1598 0 101.371 14.3038 1450 68.2097 949.545 508.172
1599 0 102.564 12.9286 1326 70.2338 949.461 506.34
1600 1 42.3214 11.1528 472 69.4047 950.057 535.318
1601 0 43.4902 11.037 480 71.2604 950.269 533.725
1602 0 48.3014 14.5337 702 65.2778 949.905 535.667
1603 0 48.3923 13.5145 654 67.292 950.081 535.697
1604 0 47.3443 11.8494 561 70.4902 950.433 531.984
1605 0 53.2787 14.1332 753 66.4143 950.636 534.74
1606 0 52.3959 13.3217 698 68.6447 950.112 533.563
1607 0 52.3555 12.7207 666 70.509 950.021 531.833
1608 0 55.5689 13.4248 746 69.3472 950.082 531.954
1609 0 54.4523 13.3695 728 70.9299 950.224 530.034
1610 0 57.351 14.0538 806 69.7643 950.182 529.785
1611 0 57.3475 13.7059 786 71.0496 950.617 528.441
1612 0 59.436 12.7869 760 72.2461 950.114 526.343
1613 0 61.4274 14.2445 875 70.352 949.81 525.816
1614 0 64.4629 14.1477 912 69.4002 950.818 527.288
1615 0 65.3841 13.0001 850 71.3376 950.188 524.193
1616 0 66.2913 13.6519 905 71.0442 949.95 522.851
1617 0 71.4608 14.6654 1048 69.2872 950.571 521.519
1618 0 72.6731 14.751 1072 69.0709 950.933 522.099
1619 0 75.3549 13.3369 1005 70.8219 950.507 520.61
1620 0 79.5569 14.0528 1118 69.9562 950.626 518.277
1621 0 81.5507 13.9055 1134 70.1085 950.881 517.571
1622 0 82.396 12.7433 1050 72.4552 950.493 514.968
1623 0 87.4695 13.7305 1201 70.8518 950.658 516.31
1624 0 87.4944 14.0809 1232 71.2914 950.837 513.144
1625 0 92.4276 14.2706 1319 71.3859 951.105 511.172
1626 0 94.4074 12.3084 1162 73.6661 950.743 511.623
1627 0 98.6387 12.196 1203 73.8329 950.513 511.595
1628 1 44.4507 12.2158 543 73.4862 950.578 532.538
1629 0 48.4509 15.913 771 67.6744 950.291 533.935
1630 0 46.4983 12.9467 602 72.0199 950.425 535.224
1631 0 48.5076 13.2969 645 72.3922 949.814 532.674
1632 0 52.757 13.8181 729 70.8669 950.342 532.272
1633 0 49.2699 14.0045 690 72.8159 950.988 531.516
1634 0 52.4262 14.0388 736 72.5041 950.459 530.511
1635 0 55.4367 14.7014 815 71.0454 950.891 530.481
1636 0 55.3604 14.3785 796 72.5176 950.81 530.001
1637 0 58.2578 14.7448 859 72.4307 951.15 528.204
1638 0 60.3507 14.714 888 72.4234 951.245 528.461
1639 0 59.4194 13.7666 818 75.0416 950.861 527.02
1640 0 62.5381 13.8156 864 74.7546 951.047 524.888
1641 0 62.363 13.0686 815 75.1178 950.855 525.124
1642 0 67.4303 15.7051 1059 71.3853 950.905 524.984
1643 0 69.3924 13.575 942 74.6667 950.274 523.525
1644 0 70.4677 13.3962 944 75.2659 950.835 521.318
1645 0 73.6277 13.9757 1029 74.5073 950.61 519.213
1646 0 76.2791 13.9357 1063 74.3565 950.189 517.164
1647 0 80.4514 15.065 1212 72.604 951.186 519.014
1648 0 81.3498 14.3455 1167 73.6444 950.823 516.698
1649 0 85.3524 13.9656 1192 74.0378 950.805 515.543
1650 0 88.4561 14.4365 1277 73.5466 951.02 512.634
1651 0 90.5682 14.0336 1271 74.0102 950.817 512.67
1652 0 93.4285 14.5673 1361 73.0426 950.201 512.057
1653 0 94.5599 13.0499 1234 76.4619 949.899 510.858
1654 1 43.1685 12.5323 541 75.8854 950.636 532.445
1655 0 48.3316 14.3384 693 72.0014 950.899 533.051
1656 0 49.2946 15.5189 765 70.519 950.813 533.329
1657 0 49.3978 13.7456 679 73.9809 951.049 531.452
1658 0 52.2243 13.0782 683 74.2504 950.463 531.129
1659 0 54.4159 13.5438 737 73.1235 950.427 531.913
1660 0 53.2774 14.6404 780 72.2487 950.483 532.047
1661 0 55.1541 13.7796 760 74.5066 950.738 528.391
1662 0 54.5574 12.2623 669 76.7489 950.514 529.438
1663 0 59.2132 14.0509 832 73.5745 950.907 528.988
1664 0 60.5662 13.2252 801 75.8277 950.513 528.27
1665 0 62.5704 14.3518 898 74.6125 950.273 525.065
1666 0 66.2459 15.05 997 72.8435 950.422 526.11
1667 0 67.7237 15.2679 1034 72.5667 950.38 525.966
1668 0 67.4744 15.1465 1022 74.3571 950.373 522.226
1669 0 71.6225 14.5206 1040 74.1846 950.217 522.214
1670 0 74.5162 15.3121 1141 73.5206 950.693 520.818
1671 0 76.496 14.7197 1126 74.2087 950.18 519.487
1672 0 80.4708 15.1111 1216 72.5699 950.822 520.332
1673 0 81.3753 13.8125 1124 74.887 950.93 519.078
1674 0 85.4824 14.6112 1249 73.3187 951.279 517.669
1675 0 87.5454 14.1527 1239 74.4891 951.107 515.334
1676 0 90.6379 15.6447 1418 72.1037 950.782 513.798
1677 0 92.4732 14.0257 1297 74.825 950.85 512.383
1678 1 45.2206 12.4943 565 73.8513 950.218 534.051
1679 0 43.4539 11.4374 497 76.002 950.05 533.229
1680 0 47.393 12.8711 610 73.8131 950.351 531.944
1681 0 50.6238 13.9263 705 70.8454 950.942 534.285
1682 0 49.3822 11.7856 582 76.0137 950.364 531.153
1683 0 53.5102 16.2025 867 69.2791 951.359 531.144
1684 0 54.3524 14.682 798 72.0338 950.677 530.957
1685 0 56.4422 14.9179 842 71.3005 950.874 531.044
1686 0 57.4322 15.601 896 70.7098 950.655 530.626
1687 0 59.4648 13.7224 816 74.1042 950.808 527.875
1688 0 58.4261 13.9835 817 74.317 950.422 527.703
1689 0 62.5073 15.0862 943 72.5313 950.124 526.802
1690 0 62.4904 14.0021 875 73.9749 951.033 526.511
1691 0 64.3611 14.139 910 73.9143 950.632 525.124
1692 0 61.5861 13.4284 827 76.2696 950.519 523.398
1693 0 67.9278 15.5018 1053 73.0636 951.13 521.402
1694 0 68.2565 13.7276 937 75.0459 950.606 523.264
1695 0 71.248 14.8917 1061 73.7889 950.06 521.879
1696 0 73.5498 14.6296 1076 73.8197 950.536 519.721
1697 0 76.3959 15.3935 1176 72.4201 950.466 519.508
1698 0 79.6417 14.5527 1159 73.9776 951.046 518.06
1699 0 79.6923 13.527 1078 75.4174 950.924 517.316
1700 0 82.2934 15.6392 1287 72.6853 950.747 515.717
1701 0 84.642 14.2246 1204 74.6462 950.967 515.473
1702 0 87.46 14.1779 1240 74.1831 950.418 516.123
1703 0 92.4501 15.3596 1420 72.5704 950.512 513.402
1704 0 93.8105 15.7978 1482 72.6275 950.181 509.821
1705 0 94.4235 15.3352 1448 73.6733 950.421 507.642
1706 0 99.3947 15.3731 1528 73.5268 950.56 505.824
1707 0 100.404 13.9935 1405 75.9886 950.248 506.569
1708 0 105.477 15.3304 1617 73.7044 950.466 503.989
1709 0 110.779 15.4633 1713 73.3678 950.348 499.42
1710 0 114.582 16.1107 1846 72.3451 950.092 499.487
1711 0 113.717 13.8238 1572 76.0973 950.75 496.552
1712 0 118.531 12.7561 1512 77.4696 950.071 498.249
1713 0 126.681 14.8799 1885 73.9798 950.229 497.757
1714 0 129.534 16.4744 2134 72.6532 950.617 496.122
1715 0 129.466 13.6407 1766 77.4049 950.788 492.24
1716 0 134.864 14.6889 1981 76.3004 951.229 490.207
1717 0 139.436 14.738 2055 76.0589 950.268 490.191
1718 0 146.409 14.5209 2126 75.9779 950.291 486.217
1719 1 74.3796 13.095 974 76.5524 950.544 520.039
1720 0 75.4811 14.4804 1093 74.613 950.52 520.536
1721 0 74.7247 13.0479 975 77.5364 950.706 516.883
1722 0 80.4522 13.5981 1094 75.6024 950.92 518.002
1723 0 82.4262 15.6625 1291 73.622 950.509 514.473
1724 0 82.6536 14.4337 1193 74.7418 950.046 515.407
1725 0 88.228 14.4399 1274 74.325 950.452 513.911
1726 0 89.3598 15.0963 1349 73.8688 950.477 512.316
1727 0 91.344 12.8306 1172 75.977 950.36 514.294
1728 0 94.6419 13.0175 1232 76.3255 949.946 511.013
1729 0 97.5448 13.7783 1344 75.1451 950.621 510.9
1730 0 103.591 15.899 1647 71.6315 950.075 508.413
1731 1 46.7066 14.0451 656 71.5259 950.703 534.421
1732 0 49.4417 13.0659 646 70.9443 950.596 535.224
1733 0 51.303 15.4572 793 69.8335 950.076 531.535
1734 0 50.2795 12.8482 646 72.7105 950.498 531.681
1735 0 53.459 13.2812 710 72.031 950.615 530.415
1736 0 56.1626 14.5114 815 70.0736 950.157 530.355
1737 0 55.0973 14.5016 799 70.2015 950.567 529.421
1738 0 59.2839 15.8897 942 67.655 950.257 529.352
1739 0 60.1187 14.7042 884 69.9299 950.641 527.415
1740 0 58.3889 14.4719 845 71.0012 950.808 527.233
1741 0 64.1888 13.803 886 71.5181 950.683 525.901
1742 0 66.3681 14.2689 947 70.6156 950.806 523.812
1743 0 68.3101 16.5861 1133 67.707 950.731 523.593
1744 0 71.3837 14.9614 1068 69.0852 950.894 523.063
1745 0 72.5278 14.1739 1028 70.7967 950.377 520.892
1746 0 73.2216 14.6132 1070 70.171 950.432 521.12
1747 0 74.2772 13.9747 1038 71.711 950.225 518.643
1748 0 78.2537 15.1175 1183 69.9358 950.331 517.652
1749 0 79.2373 14.892 1180 70.5678 950.528 515.319
1750 0 83.3089 14.7763 1231 70.2169 950.309 517.07
1751 0 83.1894 13.9681 1162 71.4776 950.692 516.087
1752 0 86.1834 14.4691 1247 71.2911 950.639 513.52
1753 0 90.4734 13.1199 1187 73.1314 950.521 509.348
1754 0 92.6066 13.3252 1234 72.9733 950.353 509.332
1755 0 97.428 13.6716 1332 72.2342 950.218 505.749
1756 0 99.2049 16.5718 1644 68.6655 950.797 507.144
1757 0 102.427 13.5414 1387 72.7772 950.572 503.528
1758 0 106.463 13.0937 1394 73.1471 950.408 502.931
1759 1 50.3751 12.6054 635 71.4945 950.753 528.339
1760 0 52.2236 14.3422 749 69.3151 949.916 530.08
1761 0 56.1206 14.3976 808 68.927 949.895 529.152
1762 0 57.4047 15.382 883 67.7157 950.456 528.051
1763 0 57.1078 13.1681 752 70.867 950.721 526.31
1764 0 60.3137 14.1261 852 69.8486 950.459 526.225
1765 0 60.1277 14.436 868 69.9309 950.821 523.764
1766 0 60.2747 14.9482 901 69.8957 950.796 522.663
1767 0 64.2613 15.7638 1013 68.3653 950.592 522.558
1768 0 65.0938 13.3192 867 70.8535 950.149 520.812
1769 0 71.5812 13.6908 980 69.6398 950.792 521.081
1770 0 71.176 13.4877 960 69.3854 951.165 522.2
1771 0 73.344 15.1614 1112 68.1493 950.757 518.514
1772 0 76.7355 15.8075 1213 67.2828 950.547 517.337
1773 0 78.2137 14.5499 1138 68.71 950.73 517.611
1774 0 81.2885 14.8976 1211 67.8076 950.523 516.815
1775 0 85.918 14.7233 1265 67.3123 950.596 514.983
1776 0 86.447 15.7553 1362 66.4493 949.786 514.518
1777 0 87.3316 16.695 1458 65.4671 949.885 512.678
1778 0 90.4165 14.0682 1272 68.5613 950.275 511.891
1779 0 94.8448 14.3603 1362 67.9677 950.171 510.946
1780 0 96.3991 13.3611 1288 69.2585 949.918 508.005
1781 0 100.335 14.5911 1464 67.4932 950.486 507.289
1782 0 102.428 14.5468 1490 67.9 950.944 504.234
1783 0 106.221 13.7543 1461 68.527 951.023 503.942
1784 0 111.243 14.6256 1627 66.9902 950.849 504.036
1785 0 114.409 15.0163 1718 67.401 950.664 501.101
1786 0 118.619 13.5476 1607 68.9894 950.648 500.095
1787 0 120.292 13.6834 1646 69.6173 950.834 497.931
1788 1 58.1453 13.4491 782 67.3581 950.592 526.238
1789 0 60.5322 12.4892 756 68.6521 950.524 524.974
1790 0 63.3221 14.3078 906 66.1015 950.744 525.887
1791 0 65.6377 13.6507 896 66.9118 951.148 526.502
1792 0 66.599 14.7149 980 66.8776 951.208 524.104
1793 0 66.204 13.7756 912 68.2281 951.246 524.534
1794 0 65.0858 13.075 851 69.5946 951.481 524.136
1795 0 70.4473 13.7975 972 68.4774 950.613 522.095
1796 0 73.3396 14.1261 1036 67.4488 950.319 521.432
1797 0 73.2802 14.233 1043 67.5896 951.235 521.249
1798 0 76.1506 13.6178 1037 68.8139 950.975 517.766
1799 0 77.1846 15.3139 1182 67.1252 950.717 515.933
1800 0 80.2961 13.6495 1096 68.3111 950.511 517.615
1801 0 82.1324 16.4125 1348 65.77 951.064 513.674
1802 0 85.34 13.8856 1185 68.4684 950.707 513.992
1803 0 88.3721 12.7076 1123 69.4533 950.94 511.649
1804 0 89.2503 15.1932 1356 66.9004 950.611 511.279
1805 0 90.4445 14.2739 1291 67.574 950.507 508.445
1806 0 95.1502 17.919 1705 63.4598 950.606 507.512
1807 0 99.2007 14.4858 1437 66.7112 950.582 504.438
1808 0 106.434 14.0556 1496 66.3777 950.882 505.529
1809 0 103.302 15.324 1583 65.9709 951.039 501.855
1810 0 109.345 14.7515 1613 66.2796 950.763 500.87
1811 0 115.479 14.5913 1685 65.8398 950.564 498.63
1812 0 118.479 13.2681 1572 68.173 950.349 494.907
1813 0 120.29 14.6563 1763 66.5519 950.302 495.014
1814 0 125.201 14.8002 1853 66.2903 950.714 488.957
1815 0 131.379 13.3431 1753 67.895 949.8 488.646
1816 0 140.454 15.514 2179 64.9509 949.783 485.982
1817 0 143.598 13.9696 2006 67.1919 950.046 487.039
1818 0 145.621 13.645 1987 67.8269 949.97 483.681
1819 0 153.458 14.9487 2294 65.7254 950.868 482.331
1820 0 155.357 14.7531 2292 66.8621 950.034 478.38
1821 0 160.476 13.1359 2108 68.6485 950.302 477.514
1822 0 167.617 14.026 2351 67.664 950.473 473.985
1823 0 170.237 16.1422 2748 65.3377 949.979 470.913
1824 0 174.443 13.5861 2370 68.4278 950.172 473.965
1825 1 131.175 12.3804 1624 70.0437 950.054 489.714
1826 0 131.222 12.4445 1633 70.6001 950.203 487.252
1827 0 139.097 14.5726 2027 68.0794 950.437 483.85
1828 0 145.26 12.5843 1828 69.6231 949.974 487.038
1829 0 148.483 14.5673 2163 68.0795 949.806 481.273
1830 0 154.235 13.3757 2063 69.7164 949.399 477.381
1831 0 163.592 13.3075 2177 68.9761 949.625 476.147
1832 0 167.316 14.2126 2378 68.4235 949.927 474.433
1833 0 172.304 15.7338 2711 66.6625 949.966 468.29
1834 1 183.752 12.9142 2373 69.8601 949.738 468.916
1835 0 189.924 14.2478 2706 68.3259 949.204 467.383
1836 0 196.404 14.6789 2883 68.1065 949.336 460.121
1837 0 200.291 13.0261 2609 70.6849 949.928 456.559
1838 0 208.812 13.3326 2784 71.1954 949.639 450.448
1839 0 218.531 14.1445 3091 68.6781 949.496 459.259
1840 0 225.894 14.2633 3222 68.789 949.638 455.289
1841 1 47.1906 12.6085 595 64.0622 949.689 533.049
1842 0 53.2318 14.7092 783 62.3946 949.352 531.525
1843 0 48.0908 11.9773 576 68.2778 949.96 526.802
1844 0 54.7183 12.738 697 66.3142 950.283 526.927
1845 0 53.2305 10.4639 557 69.1149 949.955 527.522
1846 0 58.2997 12.4014 723 65.9225 950.138 528.521
1847 0 57.2358 13.7152 785 65.5248 950.009 524.059
1848 0 56.5891 13.6245 771 65.9728 949.233 524.329
1849 0 64.557 12.7949 826 65.7324 949.961 522.53
1850 0 63.4215 11.9045 755 67.0901 949.028 523.812
1851 0 65.1468 14.4136 939 65.0437 949.645 521.707
1852 0 66.0664 14.8638 982 64.5723 949.898 520.72
1853 0 72.5217 13.6511 990 64.8242 949.265 521.072
1854 0 74.5648 14.2158 1060 64.3245 949.736 519.308
1855 0 75.286 14.1461 1065 64.6338 950.262 517.045
1856 0 78.9022 13.1429 1037 65.0492 950.099 518.947
1857 0 81.3136 15.102 1228 64.193 949.783 513.3
1858 0 84.7389 10.8333 918 67.9412 949.441 515.325
1859 0 87.5594 12.2431 1072 66.6147 950.425 513.098
1860 0 87.2843 14.0919 1230 65.539 950.066 511.043
1861 0 91.2228 14.3056 1305 65.682 950.175 509.192
1862 0 97.4168 16.0034 1559 63.4227 949.722 508.548
1863 0 100.496 14.2394 1431 65.327 949.822 507.771
1864 0 99.3536 13.7791 1369 66.6392 950.133 507.386
1865 0 102.139 12.8551 1313 68.377 949.542 503.256
1866 0 105.274 13.4886 1420 68.4289 950.102 497.594
1867 0 108.202 14.0201 1517 67.3217 949.825 500.836
1868 1 60.5231 10.4423 632 68.0934 949.1 524.986
1869 0 60.5042 10.5447 638 68.5172 949.331 524.37
1870 0 62.1138 14.0709 874 64.8021 949.406 525.712
1871 0 65.2937 14.8406 969 64.194 949.885 524.148
1872 0 63.3102 14.5316 920 65.0228 950.039 524.396
1873 0 67.5778 13.5695 917 66.7448 949.996 520.374
1874 0 69.5109 14.1273 982 65.7627 949.909 522.664
1875 0 73.6344 13.73 1011 65.7171 949.357 521.972
1876 0 75.2526 13.8866 1045 66.4727 949.534 520.641
1877 0 76.4842 13.1792 1008 68.6171 949.532 513.891
1878 0 76.3121 14.4014 1099 67.9072 949.53 517.299
1879 0 80.4962 13.1559 1059 69.542 949.033 512.333
1880 0 84.4851 13.6119 1150 69.0635 949.79 512.56
1881 0 85.4882 13.6978 1171 68.9078 949.55 514.312
1882 0 89.7921 14.2774 1282 68.0788 949.899 513.296
1883 0 92.5196 12.5487 1161 70.6693 949.887 512.39
1884 0 96.4059 14.0137 1351 68.4486 949.805 511.928
1885 0 98.2866 14.1627 1392 69.7105 949.519 507.439
1886 0 102.509 13.2379 1357 69.9256 949.709 509.298
1887 0 104.385 13.8142 1442 70.5479 950.44 501.511
1888 0 107.298 13.7001 1470 70.3918 949.676 503.607
1889 1 53.86 12.2354 659 67.305 949.889 532.191
1890 0 50.2271 13.6779 687 66.7351 948.833 529.357
1891 0 54.312 14.6008 793 66.5687 948.816 527.967
1892 0 55.4421 11.3091 627 70.4705 948.545 526.094
1893 0 55.6286 14.5788 811 67.1948 949.454 523.453
1894 0 55.3487 13.0265 721 70.6602 948.757 522.849
1895 0 60.413 11.4214 690 71.7986 948.943 523.239
1896 0 61.147 16.076 983 66.59 948.83 521.009
1897 0 63.3789 13.5061 856 69.375 949.609 522.085
1898 0 65.3302 14.0823 920 68.7152 949.528 520.439
1899 0 66.3339 13.417 890 69.9034 950.425 520.101
1900 0 69.487 13.5277 940 69.834 950.255 517.426
1901 0 69.3368 14.8839 1032 69.1599 950.028 515.022
1902 0 71.4103 13.4714 962 70.3056 949.915 515.895
1903 0 78.3021 13.5629 1062 69.7175 949.994 514.055
1904 0 78.8094 12.6888 1000 71.222 950.107 512.84
1905 0 81.2316 13.8493 1125 69.944 949.996 509.668
1906 0 83.6295 14.0501 1175 69.8953 949.911 506.401
1907 0 86.2982 13.2448 1143 70.5276 950.254 506.655
1908 0 88.0768 14.3057 1260 69.773 950.462 501.724
1909 0 90.2892 15.2288 1375 68.6444 950.375 500.827
1910 0 94.5862 13.4481 1272 70.2594 950.736 503.314
1911 0 98.5326 13.3864 1319 70.7672 950.359 497.298
1912 1 107.775 13.1013 1412 69.8725 950.23 500.496
1913 0 110.637 15.1035 1671 67.8809 949.671 500.355
1914 0 111.356 14.6647 1633 68.9032 950.498 496.17
1915 0 114.398 14.0649 1609 70.1995 950.675 493.782
1916 0 118.457 13.8784 1644 69.9453 950.381 487.726
1917 0 122.381 13.0903 1602 71.2584 950.448 490.732
1918 1 207.652 11.2978 2346 73.7029 949.883 463.637
1919 0 202.468 9.7892 1982 73.1897 950.136 477.619
1920 1 142.642 14.0491 2004 69.1352 950.657 486.784
1921 0 147.033 14.5954 2146 68.8751 950.534 484.569
1922 0 153.537 15.2406 2340 66.8534 950.531 489.269
1923 0 155.986 14.2513 2223 69.8444 950.624 477.216
1924 1 78.729 11.7619 926 70.6339 950.848 517.636
1925 0 79.5241 11.594 922 71.5043 950.176 516.964
1926 0 83.7016 12.9508 1084 70.0028 949.711 515.991
1927 0 88.4512 13.8721 1227 68.1443 950.24 516.152
1928 0 90.6041 14.5578 1319 68.1713 950.287 511.944
1929 0 93.8866 14.2512 1338 68.4223 949.848 512.383
1930 0 95.6646 13.2651 1269 70.1277 949.97 509.537
1931 0 99.115 14.7203 1459 68.1576 950.206 510.253
1932 0 101.714 13.4004 1363 69.6082 949.801 509.258
1933 0 105.479 14.3914 1518 68.7213 949.962 506.285
1934 0 109.866 15.6645 1721 66.9646 949.189 504.753
1935 0 113.637 14.8191 1684 68.0754 949.305 504.043
1936 0 118.915 16.003 1903 65.917 949.418 504.455
1937 0 120.939 13.759 1664 69.259 948.913 499.501
1938 0 125.747 14.1236 1776 68.978 948.792 497.453
1939 1 49.6883 12.9206 642 63.5561 948.674 536.472
1940 0 51.8593 13.2088 685 64.6234 948.841 535.689
1941 0 53.3332 12.9375 690 65.9029 949.193 532.755
1942 0 53.6829 10.264 551 68.2958 948.782 533.866
1943 0 54.5349 12.4691 680 66.7338 948.74 532.234
1944 0 56.7321 13.6254 773 65.7607 948.278 532.023
1945 0 56.7001 13.2628 752 67.2021 948.32 530.879
1946 0 60.9396 15.0805 919 64.4973 948.097 532.004
1947 0 62.1498 13.4514 836 66.3505 947.943 530.921
1948 0 61.8253 13.6029 841 67.082 947.533 530.194
1949 0 66.2074 14.5452 963 65.7612 947.349 529.016
1950 0 64.7769 14.5268 941 66.9777 947.231 527.464
1951 0 68.1682 13.6134 928 68.3341 947.427 525.297
1952 0 70.436 15.0349 1059 66.1256 947.032 525.634
1953 0 71.8794 14.2739 1026 67.9873 947.478 523.055
1954 0 74.8073 13.381 1001 68.8312 947.428 523.532
1955 0 75.4418 14.0506 1060 68.2708 947.131 523.31
1956 0 78.7519 15.4282 1215 66.6757 947.751 521.733
1957 0 81.6763 16.2226 1325 65.7094 947.282 518.986
1958 0 85.509 14.9224 1276 66.7132 947.003 518.717
1959 0 87.6497 15.7787 1383 66.4064 947.838 516.96
1960 0 89.9434 13.7197 1234 68.1426 948.16 519.217
1961 0 92.7338 16.4018 1521 65.5128 948.472 514.159
1962 0 94.6007 14.1965 1343 68.2844 948.639 514.448
1963 0 96.8623 12.8739 1247 70.4282 948.41 510.577
1964 1 54.1573 11.8359 641 69.1108 949.129 533.368
1965 0 56.5026 13.3622 755 68.8225 948.858 531.501
1966 0 57.6126 14.3892 829 67.4065 949.124 531.343
1967 0 59.8288 13.9899 837 68.1219 949.001 528.714
1968 0 63.8443 15.7571 1006 66.006 948.892 527.485
1969 0 62.9442 14.8544 935 67.493 949.042 524.784
1970 0 66.0514 13.9588 922 68.4469 948.988 524.489
1971 0 68.6312 15.5906 1070 66.7037 949.474 523.15
1972 0 68.9674 12.9337 892 70.4776 949.16 521.448
1973 0 72.1622 15.7977 1140 66.25 949.248 522.802
1974 0 72.7128 12.6525 920 70.6402 949.28 520.309
1975 0 74.7912 15.5767 1165 66.479 949.191 520.391
1976 0 74.637 14.6844 1096 68.5328 949.153 517.79
1977 0 80.2425 14.1446 1135 68.3075 949.286 513.782
1978 0 83.0155 14.5876 1211 67.7349 949.421 514.566
1979 0 86.2042 15.7997 1362 66.4978 950.468 514.599
1980 0 87.314 14.4536 1262 68.2805 950.149 512.696
1981 0 90.0688 14.167 1276 68.0658 950.179 512.853
1982 0 92.4333 13.3826 1237 69.5416 949.301 508.722
1983 0 94.7966 13.1967 1251 70.3022 949.633 506.91
1984 0 100.041 15.1438 1515 67.233 950.111 509.874
1985 0 101.91 14.0418 1431 69.1978 949.321 505.483
1986 0 105.568 15.0329 1587 67.8979 950.216 504.681
1987 0 109.927 14.6461 1610 68.513 950.285 501.532
1988 0 112.928 15.6738 1770 67.3429 950.195 497.243
1989 0 117.247 14.5078 1701 68.8366 950.267 495.06
1990 0 119.996 15.7005 1884 67.3907 950.438 500.269
1991 0 122.104 13.8325 1689 69.8502 949.972 495.981
1992 0 128.97 15.3214 1976 68.5607 950.159 491.476
1993 1 62.9068 13.973 879 67.504 950.51 523.924
1994 0 62.9914 10.7951 680 72.0632 950.344 521.185
1995 0 67.8029 13.2885 901 69.3529 950.344 521.284
1996 0 69.7988 12.3928 865 71.0243 950.224 519.488
1997 0 70.5167 14.7199 1038 68.4576 950.302 520.7
1998 0 69.3055 14.1547 981 70.9511 950.114 518.294
1999 0 69.2587 15.1172 1047 69.9389 950.333 518.834
2000 0 69.1589 13.4184 928 73.528 950.528 512.935
2001 0 76.3139 14.1914 1083 71.0323 950.246 517.56
2002 0 80.9483 15.2319 1233 69.1103 951.071 517.637
2003 0 80.4952 14.3984 1159 71.591 950.517 511.355
2004 0 83.642 14.3469 1200 71.3267 950.874 514.058
2005 0 87.471 14.8392 1298 70.3398 950.638 515.069
2006 0 88.1225 14.5366 1281 70.6784 950.85 514.393
2007 0 89.8624 14.6891 1320 71.2023 950.931 511.955
2008 0 92.948 16.407 1525 68.9803 950.517 511.403
2009 0 92.5266 12.1803 1127 74.0222 950.553 512.304
2010 0 91.4625 14.4212 1319 73.188 950.386 507.008
2011 0 101.084 14.7303 1489 70.9375 950.551 510.507
2012 0 102.667 16.2565 1669 69.0611 950.09 507.685
2013 0 103.668 14.6526 1519 72.2646 950.428 500.477
2014 0 108.929 15.6984 1710 69.8012 950.193 503.44
2015 0 111.961 13.6476 1528 72.7009 950.86 500.707
2016 0 117.169 15.5929 1827 70.3421 950.22 497.533
2017 0 120.355 13.8839 1671 72.5392 950.064 497.819
2018 0 124.383 14.5278 1807 72.2546 949.636 491.728
2019 0 129.087 15.23 1966 71.1785 950.102 494.921
2020 0 135.152 17.2176 2327 68.636 950.229 495.017
2021 0 136.301 14.4753 1973 73.3193 950.267 491.087
2022 0 142.458 15.78 2248 71.5507 950.048 490.321
2023 0 145.153 15.9281 2312 72.689 950.387 485.073
2024 0 149.914 16.5428 2480 71.6927 950.341 487.248
2025 0 154.798 14.4058 2230 74.7274 950.429 486.729
2026 0 157.178 13.3797 2103 77.0252 950.451 481.975
2027 0 162.484 17.2263 2799 72.5824 949.874 479.289
2028 0 167.174 15.3552 2567 75.739 949.781 472.916
2029 1 71.9447 14.0247 1009 73.2527 949.919 519.913
2030 0 75.8093 15.4862 1174 70.4983 949.8 520.323
2031 0 74.9846 14.1229 1059 73.3654 949.591 520.653
2032 0 77.9415 13.1509 1025 75.079 949.497 520.216
2033 0 80.0498 13.7415 1100 74.3764 950.31 520.279
2034 0 78.5138 14.023 1101 75.9019 949.418 514.54
2035 0 81.0212 14.1074 1143 76.1199 948.604 515.465
2036 0 83.9922 15.0252 1262 74.8685 948.904 514.287
2037 0 84.0149 13.6404 1146 77.4695 949.548 517.166
2038 0 86.7932 13.7453 1193 77.6966 949.816 515.297
2039 0 91.7415 14.7044 1349 75.0482 949.821 516.359
2040 0 89.963 11.8049 1062 81.3249 949.977 512.552
2041 0 92.4897 13.6231 1260 79.1698 949.643 511.052
2042 0 94.2954 13.8289 1304 78.0698 949.277 514.936
2043 0 98.8574 14.789 1462 77.8776 949.384 512.861
2044 0 98.957 13.2078 1307 80.3795 948.824 510.302
2045 0 100.645 14.0692 1416 78.3658 949.508 513.448
2046 0 106.861 15.1972 1624 78.3054 949.493 508.835
2047 1 205.728 15.8219 3255 80.6983 949.441 463.352
2048 1 113.826 14.7155 1675 78.9934 949.378 506.928
2049 0 116.565 13.9579 1627 80.2366 949.128 504.14
2050 0 116.849 13.9154 1626 81.1888 949.467 503.494
2051 0 113.999 13.4299 1531 79.3436 948.549 502.796
2052 0 115.726 12.2531 1418 81.213 948.223 498.36
2053 0 115.007 12.1036 1392 82.4619 948.353 494.42
2054 0 116.115 12.2637 1424 82.6692 948.889 496.697
2055 0 116.787 12.253 1431 82.5849 948.688 497.765
2056 0 119.949 13.8225 1658 79.8028 948.162 497.867
2057 0 120.623 14.0189 1691 79.6345 948.927 498.835
2058 0 121.717 13.8929 1691 80.463 948.459 494.775
2059 0 124.954 13.6051 1700 80.5294 948.545 497.081
2060 0 127.652 14.6492 1870 81.9781 948.798 496.426
2061 0 130.753 15.0131 1963 81.7906 948.744 494.927
2062 0 133.875 13.2138 1769 84.3488 948.665 494.363
2063 0 132.79 11.9663 1589 87.7137 948.371 491.091
2064 0 137.215 14.3352 1967 83.7219 949.024 491.915
2065 1 44.861 12.0149 539 69.744 949.113 534.321
2066 0 45.4926 11.6063 528 70.6989 948.646 532.119
2067 0 46.6814 14.0527 656 66.8552 949.066 534.948
2068 0 43.6021 10.6188 463 72.5832 947.998 530.423
2069 0 45.0654 11.6941 527 70.5465 948.406 532.947
