time division length width area intensity CMx CMy
0 0 57.1528 12.1604 695 61.4863 429.59 517.584
1 0 59.1241 12.3638 731 60.7182 429.15 516.973
2 0 61.1066 13.2392 809 59.2225 428.845 517.038
3 0 61.097 12.341 754 60.6764 428.905 515.991
4 0 64.0508 13.9733 895 58.0045 427.844 513.79
5 0 66.0364 15.4612 1021 55.9021 428.283 514.946
6 0 68.0729 14.0878 959 57.2388 427.942 514.767
7 0 69.0686 14.5218 1003 56.9003 426.985 514.585
8 0 69.0767 11.7406 811 60.6856 426.761 514.438
9 0 71.044 13.5831 965 58.7078 427.722 511.275
10 0 73.0549 12.5933 920 59.2674 427.014 513.05
11 0 74.0701 13.6897 1014 58.357 427.278 512.911
12 0 77.0644 12.6777 977 59.3337 427.331 512.249
13 0 77.0623 11.1598 860 61.5884 427.757 511.798
14 0 84.0721 13.8928 1168 57.8288 426.664 508.664
15 0 85.1207 15.061 1282 56.9314 427.879 504.87
16 0 86.0668 13.9194 1198 58.6611 428.101 508.26
17 0 87.1106 12.5932 1097 60.382 427.473 507.131
18 1 45.0267 11.4599 516 60.2926 428.215 527.99
19 0 46.0518 12.4425 573 59.9721 428.07 525.393
20 0 46.0481 11.9006 548 61.385 427.505 526.08
21 0 48.0218 14.306 687 58.9491 428.421 525.348
22 0 48.1636 12.5613 605 60.7223 427.972 525.164
23 0 50.0617 13.4834 675 60.1748 427.221 523.399
24 0 52.0956 13.8399 721 59.6616 427.845 523.352
25 0 53.0836 13.4882 716 60.2388 428.163 522.27
26 0 54.0192 14.4763 782 60.1458 427.404 519.169
27 0 58.0366 13.0952 760 61.2066 427.858 520.48
28 0 58.066 12.5891 731 62.513 427.731 518.763
29 0 60.0301 12.1606 730 62.9055 428.925 518.695
30 0 60.1623 12.8486 773 62.3532 427.594 516.938
31 0 65.0484 13.3439 868 61.0737 428.768 516.721
32 0 67.0715 13.2098 886 60.8318 428.418 516.91
33 0 68.1142 12.2882 837 62.0956 428.205 515.591
34 0 70.1508 14.0127 983 60.1719 428.775 513.879
35 0 73.1904 12.5973 922 62.0824 429.139 511.011
36 0 75.081 12.0137 902 62.4889 429.257 510.664
37 0 76.1356 13.3446 1016 61.8012 429.209 507.316
38 0 79.0752 13.4302 1062 61.2976 429.095 507.83
39 0 83.0745 14.4328 1199 59.6155 429.211 506.817
40 0 83.1034 12.3461 1026 62.5809 429.831 506.674
41 0 86.1319 11.7378 1011 62.8081 429.409 506.355
42 0 89.139 14.2025 1266 61.1398 428.806 500.286
43 0 92.0717 13.4786 1241 60.9315 428.477 502.622
44 1 48.0548 12.0487 579 60.4318 429.345 523.756
45 0 47.0601 11.0497 520 62.3654 428.946 521.45
46 0 50.0208 11.2153 561 62.5561 429.442 520.456
47 0 50.0424 12.0698 604 60.9818 429.935 523.571
48 0 51.0696 10.985 561 62.7273 429.729 521.433
49 0 53.0304 12.0685 640 61.7875 429.453 521.08
50 0 55.0503 11.4441 630 62.4476 429.633 519.656
51 0 57.0349 10.3095 588 63.6327 429.226 519.362
52 0 58.0329 11.2005 650 62.5815 429.578 519.295
53 0 61.0353 12.3207 752 62.5532 429.242 516.614
54 0 62.1392 13.8238 859 60.7637 429.821 517.584
55 0 64.0623 13.2215 847 62.9327 429.862 512.845
56 0 67.0522 12.8855 864 63.9352 429.396 511.64
57 0 69.0817 12.7675 882 63.322 430.41 514.522
58 0 73.0738 13.11 958 63.6983 429.684 511.04
59 0 74.0374 14.3036 1059 62.5024 429.516 510.998
60 0 76.071 13.2771 1010 65.0505 429.721 509.369
61 0 79.0789 14.2137 1124 63.8016 429.697 507.435
62 0 81.0416 11.2535 912 68.6425 429.069 505.096
63 1 42.0246 10.0179 421 66.3895 429.435 524.591
64 0 41.0493 10.5239 432 66.956 429.738 524.375
65 0 43.0389 10.7112 461 66.3861 430.02 524.046
66 0 44.0222 11.4033 502 66.0976 430.139 524.201
67 0 47.0327 11.8003 555 65.2018 429.351 522.022
68 0 48.1044 11.8285 569 66.2144 429.619 521.97
69 0 49.0451 12.2133 599 65.8447 429.681 521.022
70 0 50.0294 13.0124 651 65.5776 429.467 519.914
71 0 50.1044 13.1924 661 65.4569 428.9 519.655
72 0 51.1301 11.7152 599 67.5576 429.035 519.015
73 0 55.0565 13.8222 761 63.8055 428.987 519.398
74 0 57.0752 12.7376 727 65.5681 429.453 518.275
75 0 56.0485 12.2929 689 67.0319 429.257 516.701
76 0 60.0573 13.5038 811 65.0062 429.15 515.507
77 0 59.1295 11.72 693 68.0245 429.335 514.049
78 0 64.0608 12.8472 823 65.7278 429.65 514.038
79 0 64.0553 11.412 731 68.6074 429.573 512.714
80 0 68.063 13.37 910 65.6132 429.971 512.712
81 0 69.1713 12.7365 881 66.4495 429.951 512.833
82 0 71.1803 11.8572 844 68.1197 430.695 510.04
83 0 76.0292 12.653 962 66.343 429.992 509.67
84 0 75.1124 12.5545 943 68.1315 430.17 507.682
85 0 79.2314 12.2552 971 68.3635 430.264 506.561
86 0 80.0322 11.4079 913 69.4732 429.98 506.703
87 0 83.078 11.6517 968 68.9143 430.035 505.097
88 0 84.2333 11.8362 997 70.0321 430.478 500.464
89 1 43.0125 10.1831 438 68.653 430.578 521.767
90 0 45.0292 10.8596 489 67.3722 430.616 523.37
91 0 46.1019 10.9106 503 67.9662 430.666 521.594
92 0 48.0689 12.3365 593 66.5953 431.03 520.125
93 0 51.0811 11.2174 573 67.349 431.325 520.414
94 0 52.0255 12.1863 634 66.071 430.804 520.374
95 0 52.0685 10.9087 568 68.9683 430.419 518.766
96 0 55.044 12.0631 664 66.1702 430.687 520.17
97 0 56.1782 13.92 782 64.5435 430.558 518.045
98 0 54.0499 9.99076 540 71.3852 430.246 517.02
99 0 58.0362 11.3894 661 69.174 429.84 513.788
100 0 58.1081 11.8572 689 69.0116 430.329 514.849
101 0 63.0921 11.507 726 69.2314 430.482 514.262
102 0 66.0459 13.2938 878 66.5364 430.527 513.735
103 0 65.0545 11.6056 755 69.6424 430.511 512.033
104 0 67.0808 11.6576 782 69.679 430.843 510.783
105 0 71.0339 12.3884 880 69.0841 430.47 508.768
106 0 71.049 12.3014 874 69.9394 430.445 507.281
107 0 74.0373 12.4262 920 69.7837 429.395 509.202
108 0 74.0967 11.3905 844 71.8626 429.876 506.404
109 1 35.0394 8.59034 301 71.6977 428.558 525.548
110 0 38.0717 9.42959 359 70.688 429.532 524.579
111 0 41.0531 11.4973 472 67.0042 429.254 524.424
112 0 42.0591 11.888 500 66.78 429.286 523.036
113 0 43.0207 11.6223 500 66.954 429.618 524.222
114 0 43.0452 11.1743 481 68.1102 429.817 523.784
115 0 45.0138 10.8189 487 69.0267 429.735 523.209
116 0 45.0533 10.0326 452 70.9049 429.918 520.996
117 0 46.0603 11.9626 551 68.1797 429.497 520.67
118 0 49.0263 12.0752 592 66.4916 430.297 521.905
119 0 48.0779 11.2734 542 69.1771 430.292 519.042
120 0 50.0567 10.8477 543 69.2523 430.197 516.998
121 0 50.1626 11.2634 565 68.5221 430.267 517.519
122 0 52.049 10.3748 540 69.3 430.411 516.837
123 0 55.045 11.5178 634 67.0931 430.107 517.268
124 0 57.0468 11.6045 662 66.4653 429.576 516.721
125 0 56.0808 11.8757 666 67.3784 429.781 513.036
126 0 61.0948 12.0141 734 66.4659 429.782 512.527
127 0 62.0909 10.4041 646 67.7539 430.067 512.978
128 0 62.0957 10.6288 660 69.103 430.521 509.185
129 0 63.0581 9.43574 595 70.0824 430.061 510.338
130 0 66.0649 9.89935 654 69.3043 429.57 507.78
131 0 69.0971 10.3333 714 69.0952 429.622 505.492
132 1 34.0047 7.44014 253 69.2292 429.783 523.628
133 0 37.0119 9.1322 338 67.6538 429.763 522.604
134 0 36.0495 9.79208 353 68.3683 429.714 522.756
135 0 37.0211 11.0477 409 66.6699 430.572 523.247
136 0 36.0541 10.401 375 67.9547 430.312 520.032
137 0 42.0917 10.5484 444 66.4392 430.419 522.606
138 0 42.0233 10.2086 429 67.0256 429.855 522.816
139 0 42.0341 10.5153 442 67.0023 430.346 522.613
140 0 44.0674 11.0059 485 66.4495 429.979 521.33
141 0 44.0222 10.8355 477 66.8176 430.941 522.356
142 0 47.0812 12.8501 605 63.519 430.645 520.926
143 0 49.0297 12.7678 626 64.1006 430.526 519.473
144 0 49.0672 13.186 647 64.1329 430.113 519.196
145 0 50.0271 11.134 557 65.9264 430.318 519.682
146 0 50.0241 9.25554 463 68.9179 429.758 517.218
147 0 53.0517 11.5359 612 65.6471 429.121 518.029
148 0 56.0724 11.8953 667 65.1949 429.462 517.553
149 0 55.1379 10.5553 582 67.0481 429.32 516.859
150 0 56.052 11.1682 626 67.3163 429.914 515.564
151 0 59.0733 10.1061 597 68.2513 430.313 515.732
152 0 62.0752 11.5666 718 66.4471 429.974 515.447
153 0 65.0932 12.6127 821 65.6614 430.078 514.135
154 0 64.0709 11.4092 731 68.5253 430.505 511.81
155 0 67.0893 13.1019 879 66.3458 430.258 511.405
156 0 69.0898 12.2594 847 67.8323 430.627 510.854
157 0 70.1223 10.9095 765 69.3765 429.787 511.52
158 0 73.2373 11.7836 863 68.2306 429.687 511.299
159 0 76.1121 11.2334 855 69.8211 429.046 510.042
160 0 75.1311 11.8593 891 70.4242 429.419 507.19
161 0 78.0552 12.6449 987 69.2432 429.75 507.995
162 0 80.0569 11.3294 907 71.5711 430.08 506.828
163 0 81.0315 9.95908 807 73.2627 429.774 506.948
164 0 86.0995 12.2765 1057 70.5118 429.867 504.351
165 1 43.1259 12.7533 550 66.9545 429.713 522.464
166 0 43.0459 10.8721 468 68.9124 430.156 525.282
167 0 45.0187 11.995 540 67.8259 429.85 522.648
168 0 43.0223 11.2965 486 69.4794 430.333 522.613
169 0 47.01 10.9551 515 69.1068 430.132 520.109
170 0 49.0856 12.0198 590 67.5322 429.917 520.958
171 0 50.0464 10.8899 545 69.6422 430.323 519.925
172 0 51.0372 10.2474 523 69.4111 430.828 520.937
173 0 52.0755 11.3105 589 69.2241 430.489 518.129
174 0 56.0818 12.3391 692 66.5506 430.277 517.327
175 0 57.1129 12.9043 737 66.4722 430.385 516.104
176 0 58.0928 11.1374 647 68.4158 430.943 515.947
177 0 59.0246 11.402 673 69.1649 430.215 514.89
178 0 62.0672 11.7453 729 68.6722 430.207 513.18
179 0 63.052 11.213 707 69.3281 430.9 511.931
180 0 67.0383 13.0672 876 66.5913 430.402 510.747
181 0 68.1582 12.2362 834 68.1319 429.952 511.271
182 0 70.0609 11.5185 807 69.6506 429.845 507.234
183 0 73.0474 11.9648 874 69.2151 429.214 506.492
184 1 37.0115 11.4829 425 65.2988 429.431 526.715
185 0 39.0643 10.0859 394 67.033 428.655 526.832
186 0 39.0343 10.9903 429 66.9021 429.308 526.902
187 0 39.0425 11.5259 450 67.2933 428.802 524.822
188 0 41.1762 11.1472 459 67.4706 428.706 524.58
189 0 40.0235 9.99413 400 69.3325 428.168 524.418
190 0 42.0236 10.161 427 68.5948 427.895 524.817
191 0 45.0355 11.3244 510 67.1392 427.951 524.741
192 0 44.0203 11.8582 522 67.6322 427.569 523.609
193 0 48.045 13.2168 635 63.7008 427.334 525.381
194 0 48.0324 12.554 603 66.937 427.02 523.667
195 0 50.0967 12.5158 627 66.3461 427.346 523.086
196 0 50.0794 12.6998 636 66.8868 427.171 521.851
197 0 53.0598 11.1572 592 67.9696 427.123 522.902
198 0 53.1066 10.7896 573 69.6335 427.557 520.77
199 0 56.1872 12.1914 685 67.1255 427.213 521.73
200 0 56.0745 11.9484 670 67.4269 427.261 520.604
201 0 59.0924 11.5582 683 67.5842 426.673 521.572
202 0 60.0637 12.2037 733 67.8063 426.945 519.578
203 0 63.0663 12.796 807 66.5725 426.499 518.357
204 0 64.0346 11.5562 740 68.6703 426.039 519.497
205 0 68.1234 11.2883 769 68.8856 427.317 516.52
206 0 69.0389 11.5442 797 68.6951 426.583 516.93
207 0 69.122 11.7473 812 68.9224 426.458 513.595
208 0 74.1186 11.9403 885 67.9593 426.69 513.801
209 0 75.0631 12.1764 914 68.3435 426.859 512.521
210 0 76.0638 11.0959 844 69.3922 426.645 514.479
211 0 81.0842 11.9382 968 68.0279 426.201 511.546
212 0 84.1314 11.4107 960 68.3875 425.869 508.819
213 1 42.0601 8.48785 357 68.986 425.345 531.311
214 0 46.0481 10.6628 491 67.1792 425.794 528.346
215 0 48.0976 10.749 517 65.8665 424.29 529.495
216 0 51.0736 10.8079 552 66.0163 424.772 527.411
217 0 50.0765 11.9217 597 65.191 424.069 525.494
218 0 54.042 11.1025 600 65.4183 425.003 526.887
219 0 49.0987 9.81697 482 68.0332 424.71 524.909
220 0 54.0604 12.3935 670 65.0403 424.375 522.543
221 0 60.1507 13.7488 827 61.1911 424.485 524.037
222 0 59.1592 10.7845 638 66.2492 424.823 521.915
223 0 59.0691 11.7828 696 65.6882 424.705 520.886
224 0 62.0409 11.6858 725 65.3559 424.381 519.771
225 0 63.2468 11.2259 710 66.3507 424.201 517.827
226 0 66.0765 13.0455 862 63.9548 424.377 516.655
227 0 69.3393 12.4172 861 63.9175 424.222 516.585
228 0 70.0622 11.5041 806 66.1749 423.766 513.038
229 0 71.1233 11.4168 812 66.6909 424.728 512.554
230 0 75.0659 12.1094 909 65.505 424.682 510.211
231 0 75.1138 10.5839 795 67.4528 424.683 513.047
232 0 78.1664 13.5224 1057 64.5516 424.964 507.698
233 0 81.1094 12.2181 991 65.8718 424.215 507.527
234 1 46.0966 11.2807 520 66.1 424.575 525.302
235 0 46.0473 11.5316 531 65.9379 424.695 524.254
236 0 49.055 11.0081 540 66.2981 424.261 525.35
237 0 51.076 13.3527 682 63.2199 424.969 524.391
238 0 52.0933 12.1321 632 64.4921 425.297 524.541
239 0 54.0887 12.5719 680 65.4456 425.504 520.926
240 0 55.0179 12.2324 673 66.3462 425.911 520.242
241 0 57.0618 11.987 684 66.5526 425.284 520.196
242 0 59.1034 11.7929 697 66.977 425.42 519.255
243 0 60.07 13.0348 783 65.1775 425.736 519.215
244 0 61.1595 11.2002 685 68.7241 425.25 515.958
245 0 63.0927 12.6798 800 67.9287 424.428 516.385
246 0 65.1514 13.0005 847 66.4333 425.432 514.47
247 0 66.1637 11.8645 785 68.8433 424.958 513.183
248 0 70.1606 12.7279 893 67.262 424.927 513.617
249 0 72.0593 11.9763 863 67.701 426.109 514.966
250 0 75.1386 13.7879 1036 64.9942 425.768 512.923
251 0 77.1112 11.866 915 67.7738 425.663 512.042
252 0 79.0923 12.7825 1011 67.0752 425.235 510.181
253 0 80.158 12.3506 990 68.0182 426.241 506.771
254 0 82.0915 13.2291 1086 66.7468 426.161 507.685
255 0 87.4113 13.1676 1151 66.8202 425.3 505.659
256 0 87.1226 12.7866 1114 67.4569 426.024 503.346
257 0 93.1734 14.0383 1308 65.0076 424.696 506.065
258 1 43.0228 10.5758 455 67.5714 425.171 530.27
259 0 46.022 12.016 553 65.0127 425.013 529.756
260 0 50.0913 12.9164 647 63.8439 425.088 527.861
261 0 48.1258 11.2829 543 66.1473 425.33 528.936
262 0 48.1346 10.3044 496 68.3851 424.996 527.595
263 0 51.0695 11.4158 583 66.5712 425.333 526.72
264 0 54.0526 12.6728 685 64.654 424.993 524.204
265 0 54.0622 11.1168 601 66.579 424.95 525.972
266 0 53.0245 10.1462 538 68.145 425 524.84
267 0 58.0101 10.3775 602 66.5133 424.61 525.341
268 0 59.0703 12.2904 726 65.5799 424.605 521.512
269 0 61.0541 12.0057 733 65.5471 424.808 519.94
270 0 61.0703 11.6751 713 66.3422 424.574 519.912
271 0 64.1545 10.5838 679 66.9794 425.009 521.884
272 0 67.2013 12.351 830 65.1952 424.458 517.414
273 0 69.1057 13.8339 956 63.1559 424.612 517.12
274 0 73.1545 13.2733 971 62.9217 424.537 517.08
275 0 71.1158 12.1351 863 64.4635 423.589 516.935
276 0 74.1091 12.5491 930 64.8226 423.882 511.742
277 1 37.1035 9.37918 348 64.2557 424.02 534.853
278 0 40.158 11.2057 450 62.2356 424.06 532.487
279 0 39.1203 10.5316 412 63.8155 423.891 533.279
280 0 40.1335 8.84547 355 65.9099 424.225 532.777
281 0 41.05 10.4994 431 64.232 423.55 531.543
282 0 44.0829 12.1816 537 61.8976 422.937 530.92
283 0 46.1389 12.6358 583 61.3276 422.743 530.432
284 0 46.0881 11.3044 521 63.238 422.522 528.253
285 0 50.3797 11.5721 583 61.8988 423.456 529.542
286 0 50.09 11.4594 574 62.3136 423.159 528.237
287 0 51.1265 10.8945 557 63.456 423.009 526.831
288 0 54.1728 12.2755 665 61.394 423.398 525.594
289 0 55.1617 12.3818 683 60.9488 423.613 524.865
290 0 55.1502 10.3173 569 63.9754 423.496 523.754
291 0 55.0382 9.39348 517 65.0832 423.687 520.723
292 0 59.2409 10.2294 606 63.1452 423.287 523.12
293 0 59.2161 10.0142 593 63.6358 423.459 522.752
294 0 63.4379 9.9152 629 63.5199 423.968 522.281
295 0 66.0863 11.9843 792 61.5518 423.51 518.385
296 0 69.1688 11.5659 800 61.0688 423.524 519.115
297 0 71.1531 11.1169 791 62.0265 423.244 514.819
298 0 71.109 9.09871 647 64.779 423.348 515.827
299 0 76.0803 10.4101 792 62.6338 423.259 513.663
300 1 41.105 9.07433 373 62.0375 422.601 529.973
301 0 41.1295 9.67676 398 61.1935 422.648 529.226
302 0 45.0785 11.003 496 59.9718 422.758 529.796
303 0 46.1104 11.6026 535 59.4355 422.654 528.802
304 0 45.0337 10.6587 480 61.2896 422.506 525.756
305 0 48.0526 11.3834 547 60.8537 422.914 526.931
306 0 50.0935 13.2752 665 58.8316 423.135 524.402
307 0 53.0764 11.0972 589 60.7402 422.613 524.932
308 0 51.1809 13.2862 680 59.9779 422.987 522.722
309 0 52.097 10.7684 561 62.9394 422.661 522.057
310 0 55.1276 12.6253 696 60.1193 422.588 522.555
311 0 56.1037 11.6748 655 61.3588 423.241 522.348
312 0 58.0533 11.8856 690 61.0188 422.597 519.987
313 0 61.0207 12.1762 743 59.9812 422.93 521.49
314 0 60.0398 11.6922 702 61.7194 422.242 517.944
315 0 63.1201 11.6445 735 61.5224 422.238 515.695
316 0 65.1396 12.8647 838 59.7625 422.325 517.055
317 0 67.0443 12.3202 826 60.7276 422.686 515.16
318 0 68.1151 11.3191 771 61.6278 422.358 513.31
319 0 71.0998 11.9972 853 60.6518 422.172 513.211
320 0 75.1068 13.2878 998 58.6463 422.883 513.183
321 0 74.1395 12.1663 902 60.6242 423.44 512.537
322 0 77.0575 11.9262 919 60.6202 423.665 512.2
323 0 80.065 12.5023 1001 60.2298 422.811 509.096
324 0 83.1043 13.7177 1140 58.6825 422.788 508.111
325 0 85.106 12.6078 1073 60.2675 423.015 506.035
326 0 86.1331 12.4342 1071 60.8385 423.521 504.098
327 0 90.1532 13.2885 1198 60.1202 422.549 502.09
328 0 94.1093 12.0179 1131 61.0902 423.352 503.782
329 1 48.0657 10.6937 514 61.1401 423.512 524.969
330 0 52.0454 12.0856 629 59.9952 423.831 522.068
331 0 53.0184 10.2983 546 61.9689 423.755 524.013
332 0 53.0918 11.0563 587 62.5451 424.015 518.908
333 0 56.1682 13.1035 736 59.2799 423.221 520.274
334 0 58.0844 11.6382 676 61.8388 422.43 518.865
335 0 60.125 11.0769 666 61.7027 422.97 520.146
336 0 64.0967 11.5139 738 61.5745 423.167 518.041
337 0 63.1294 12.5773 794 60.9736 423.278 517.282
338 0 65.0599 12.2656 798 61.2268 423.655 516.748
339 0 67.0714 11.7188 786 62.1667 423.588 514.277
340 0 68.0643 12.5029 851 61.0188 423.486 515.484
341 0 68.0984 9.63312 656 64.2149 422.802 515.709
342 0 71.1209 11.5718 823 62.7303 423.385 511.683
343 0 74.0294 10.6174 786 63.2875 423.415 511.473
344 0 76.1584 11.2003 853 62.2919 422.981 511.036
345 0 79.0789 12.4053 981 61.739 423.435 506.863
346 0 83.0606 12.0274 999 61.036 423.028 509.027
347 0 83.1422 13.3386 1109 60.4545 423.945 507.006
348 1 45.0852 12.4653 562 59.5249 423.794 526.801
349 0 45.0734 11.1374 502 60.504 424.235 524.908
350 0 47.03 12.8641 605 58.7256 423.881 524.805
351 0 49.14 14.3468 705 46.3461 423.089 525.586
352 0 49.056 10.3759 509 61.1277 424.037 523.929
353 0 53.0831 12.7159 675 58.7881 423.806 520.761
354 0 52.1266 11.6447 607 59.8781 423.445 522.608
355 0 55.0529 12.043 663 59.3273 422.848 519.861
356 0 56.0522 11.6855 655 60.0458 423.485 520.663
357 0 58.0496 11.3351 658 60.5426 423.1 519.114
358 0 59.0317 10.469 618 61.6068 423.908 519.277
359 0 62.0511 11.974 743 59.4509 424.491 518.935
360 0 63.1339 10.8975 688 60.7485 422.961 517.94
361 0 67.1207 11.4868 771 60.2179 423.084 515.137
362 0 69.2319 12.7398 882 59.2676 423.551 513.776
363 0 70.1243 10.7666 755 61.9046 423.511 512.587
364 0 69.0486 10.8474 749 62.8077 424.339 510.136
365 0 74.0994 11.687 866 61.6039 424.12 508.644
366 0 76.0794 9.45065 719 64.7246 424.017 504.883
367 0 79.1248 12.8657 1018 60.9263 423.637 505.186
368 1 41.0662 8.15757 335 63.9731 423.725 526.713
369 0 39.1206 10.5571 413 62.6465 424.053 522.92
370 0 39.0674 8.77969 343 65.1953 423.262 521.277
371 0 46.0296 11.775 542 60.286 423.836 524.991
372 0 48.0549 11.3204 544 60.8346 423.623 522.919
373 0 50.0936 10.7798 540 61.55 423.576 523.776
374 0 52.0892 13.7649 717 57.802 423.788 523.077
375 0 54.0769 12.7041 687 59.1135 423.98 521.485
376 0 54.096 11.1838 605 61.1091 423.86 521.504
377 0 54.1811 10.0589 545 63.2294 423.13 518.081
378 0 55.0898 10.8187 596 62.5101 423.096 519.336
379 0 58.0952 10.173 591 62.8596 423.389 518.342
380 0 60.161 9.85688 593 62.6476 423.057 518.143
381 0 62.1843 9.95429 619 63.1082 423.002 516.62
382 0 66.1993 12.2358 810 60.1741 422.81 513.772
383 0 66.1487 10.8241 716 61.9511 423.49 512.303
384 0 67.156 10.2448 688 62.3677 423.695 514.183
385 0 71.1958 9.95845 709 62.6417 423.33 512.147
386 0 71.2315 7.76342 553 65.1193 423.246 511.841
387 0 74.1479 10.9376 811 61.8385 423.366 507.11
388 1 39.1002 11.3043 442 59.8416 423.851 526.855
389 0 42.0897 10.4064 438 60.0616 423.674 526.977
390 0 42.105 9.57131 403 61.3648 424.025 523.978
391 0 43.0957 10.0706 434 61.1751 423.767 525.065
392 0 48.1189 10.8481 522 59.6226 423.534 524.648
393 0 47.0555 11.4758 540 59.3148 423.528 524.272
394 0 49.1268 11.0937 545 60.3376 423.837 523.246
395 0 51.1199 10.7786 551 60.274 423.298 523.238
396 0 51.0645 13.3165 680 57.6618 424.024 523.531
397 0 56.0527 12.3099 690 58.3058 423.903 522.842
398 0 54.1219 11.6404 630 60.1302 424.243 521.932
399 0 56.1255 10.7438 603 61.272 424.294 519.997
400 0 58.0467 10.8706 631 60.7227 424.65 520.918
401 0 60.0945 10.783 648 60.5355 424.134 520.159
402 0 64.3081 11.7093 753 59.1235 424.579 518.462
403 0 63.1291 11.9279 753 59.5989 424.618 517.797
404 0 66.2232 11.8237 783 59.5428 424.469 515.768
405 0 68.1205 12.4485 848 58.6557 424.312 516.353
406 0 72.1035 13.2587 956 57.3222 424.042 515.757
407 0 72.0575 11.5325 831 59.7088 424.113 514.539
408 0 75.1156 12.9001 969 58.6275 424.24 512.202
409 0 76.0623 10.3468 787 60.892 424.764 514.238
410 0 79.0855 10.9502 866 61.0901 424.269 510.627
411 1 41.0258 11.6268 477 58.5346 423.786 527.719
412 0 43.0766 9.56436 412 59.6432 424.374 529.774
413 0 43.0578 10.4279 449 60.7261 424.143 525.425
414 0 44.0693 10.007 441 61.6848 424.256 524.884
415 0 46.0303 11.1014 511 59.6986 423.72 525.429
416 0 49.1315 9.13873 449 61.1604 423.991 527.414
417 0 51.0201 11.6425 594 59.1717 424.285 525.327
418 0 51.0768 9.84791 503 61.9583 424.374 522.74
419 0 53.103 11.4118 606 60.4059 423.922 521.563
420 0 56.1218 12.9361 726 58.4408 423.884 521.428
421 0 57.1584 11.6693 667 60.0015 423.976 519.924
422 0 59.1681 11.3575 672 60.5179 423.461 520.028
423 0 62.2232 12.3105 766 58.9034 423.893 520.097
424 0 64.2018 12.1959 783 58.9974 423.589 516.621
425 0 63.2406 11.0214 697 60.6298 423.227 516.999
426 0 66.1772 11.8923 787 60.0152 423.357 514.352
427 0 70.4887 11.6047 818 59.3619 423.29 516.839
428 0 69.5049 10.3734 721 61.7864 423.734 511.695
429 0 74.1402 10.8173 802 59.9239 423.894 515.218
430 0 76.0792 12.8287 976 58.502 423.135 511.664
431 0 80.3063 12.7885 1027 58.6339 423.292 510.371
432 0 80.171 12.174 976 59.4611 423.696 511.19
433 0 85.2101 12.3577 1053 58.9782 423.848 503.959
434 0 88.2446 13.3379 1177 58.5055 423.616 505.051
435 0 88.1594 11.3204 998 61.0862 423.696 501.593
436 0 91.2255 10.6768 974 61.8152 424.152 504.624
437 1 48.052 10.4886 504 60.1964 423.583 524.373
438 0 48.0894 13.2877 639 58.0407 423.69 524.98
439 0 50.208 12.4681 626 58.4601 423.375 523.157
440 0 51.0684 10.2803 525 60.9676 423.608 523.781
441 0 54.1271 12.3413 668 58.1871 423.627 524.251
442 0 55.1174 11.4664 632 59.5364 423.81 521.916
443 0 58.1722 11.7754 685 59.0818 423.098 520.733
444 0 56.1379 12.9324 726 58.2218 423.752 521.371
445 0 59.0311 12.3325 728 58.7734 423.574 518.71
446 0 62.0605 13.084 812 57.9126 423.882 517.342
447 0 61.0776 10.7732 658 60.459 423.606 517.731
448 0 64.0884 13.1069 840 57.6155 423.973 519.506
449 0 61.0691 9.89043 604 62.351 424.435 513.424
450 0 69.0735 11.9004 822 59.4063 422.865 513.163
451 0 71.1115 13.078 930 58.2118 423.818 512.549
452 0 72.084 11.2091 808 60.7351 423.908 511.363
453 0 77.0949 12.7375 982 58.6405 424.09 510.439
454 0 79.0745 12.4566 985 59.4883 424.496 508.211
455 0 82.14 14.0857 1157 57.656 424.101 510.063
456 0 84.146 12.8705 1083 59.1754 423.604 508.482
457 0 85.0314 11.4075 970 60.5907 424.126 509.823
458 0 91.1701 13.0087 1186 58.683 423.364 505.669
459 0 92.1529 12.0343 1109 60.7412 423.64 503.438
460 1 47.0618 10.2418 482 60.3797 423.492 525.079
461 0 49.1622 10.5569 519 60.1464 424.002 524.42
462 0 51.0262 13.8948 709 56.8815 424.114 523.891
463 0 53.0715 10.7591 571 59.8634 424.1 521.224
464 0 51.0404 11.9121 608 59.5707 422.952 520.523
465 0 55.3018 11.1027 614 58.9332 423.495 524.274
466 0 55.0975 10.8535 598 60.2074 423.702 521.099
467 0 60.0528 12.2226 734 58.4946 423.753 518.813
468 0 58.0789 11.7427 682 59.6422 423.638 520.148
469 0 62.0603 11.4888 713 59.6381 423.635 518.85
470 0 67.0781 13.4172 900 57.3267 423.691 517.889
471 0 66.0887 12.1503 803 59.5729 423.677 517.291
472 0 69.0822 12.8253 886 58.7381 423.414 515.87
473 0 73.035 12.7884 934 58.5675 423.716 514.388
474 0 75.0614 12.0301 903 59.99 423.78 513.772
475 0 77.0215 11.8408 912 60.2566 423.548 515.924
476 0 82.0583 12.7349 1045 59.1282 423.118 512.217
477 0 81.0733 11.6931 948 61.3787 423.065 510.921
478 1 43.0742 10.8882 469 60.8422 423.213 530.682
479 0 42.0203 10.7805 453 62.8764 422.962 527.148
480 0 47.0714 12.173 573 59.9791 422.169 529.237
481 0 47.0618 11.793 555 62 422.987 525.773
482 0 48.1495 10.9658 528 63.1761 423.305 524.848
483 0 49.0381 10.7468 527 63.0569 423.142 525.317
484 0 53.0195 11.7881 625 62.2176 422.965 523.97
485 0 54.0321 11.8078 638 61.6959 424.215 524.719
486 0 56.0371 12.1705 682 61.2317 423.532 523.46
487 0 58.0316 11.3731 660 61.75 423.55 524.515
488 0 59.0693 13.0863 773 60.7723 423.565 520.589
489 0 59.0601 11.7677 695 62.4388 424.094 520.194
490 0 61.0315 10.0112 611 64.3306 423.905 521.394
491 0 65.042 12.2229 795 61.917 424.055 518.157
492 0 66.0532 11.8087 780 62.5385 423.778 520.044
493 0 70.1238 11.494 806 62.3511 423.686 518.841
494 0 72.0792 11.2793 813 62.797 423.499 517.112
495 0 75.0855 12.6256 948 61.5728 422.758 513.674
496 0 75.0371 11.6876 877 63.5359 423.547 514.238
497 0 79.1349 12.6872 1004 62.2221 423.063 509.194
498 0 81.0701 11.6072 941 63.5069 423.442 512.339
499 1 40.0287 10.3676 415 63.3229 423.193 532.099
500 0 42.0316 10.0876 424 63.9222 423.62 531.84
501 0 44.0814 11.7283 517 62.2611 423.147 530.273
502 0 45.0568 11.2303 506 63.2292 423.895 529.603
503 0 46.0519 10.4013 479 64.5386 423.576 528.718
504 0 47.0394 10.842 510 64.4176 423.845 526.81
505 0 50.0431 11.4301 572 63.9493 423.677 524.661
506 0 51.0628 10.301 526 65.4335 423.741 524.911
507 0 54.0545 12.5614 679 62.3932 423.174 524.088
508 0 55.1801 11.9065 657 64.2192 423.181 522.397
509 0 56.1004 12.2459 687 63.5095 423.22 522.646
510 0 59.0409 12.8386 758 62.9591 423.323 522.261
511 0 59.0699 10.8854 643 65.4557 423.886 522.942
512 0 63.0432 13.4511 848 61.7559 423.584 521.757
513 0 66.1123 12.9174 854 62.8044 423.306 521.486
514 0 66.044 12.5068 826 63.5557 423.902 521.484
515 0 67.1108 11.9206 800 64.8812 424.081 519.059
516 0 69.1588 14.0112 969 62.485 423.769 518.642
517 0 74.054 12.4774 924 63.526 422.781 517.742
518 0 77.0643 12.8853 993 63.5619 423.485 515.977
519 0 77.0572 12.3545 952 64.2679 423.256 515.337
520 0 81.1563 13.5664 1101 62.3824 423.223 513.293
521 1 41.0206 9.1905 377 67.4377 423.655 532.008
522 0 44.0764 11.2759 497 65.2314 423.499 530.994
523 0 45.0924 11.7758 531 64.7702 423.723 530.593
524 0 47.0794 12.4895 588 63.8333 423.777 529.514
525 0 50.0425 11.6501 583 64.6569 423.705 528.792
526 0 51.0687 12.2188 624 64.1875 423.149 527.492
527 0 52.0324 13.53 704 62.3878 423.518 526.866
528 0 53.1499 12.2296 650 63.9723 423.48 527.311
529 0 53.0541 11.6862 620 65.2516 423.481 526.803
530 0 57.1376 14.2113 812 61.6847 422.794 525.183
531 0 57.0682 13.9657 797 61.9322 422.09 523.764
532 0 60.1243 12.9066 776 63.2835 422.954 524.09
533 0 61.027 13.2073 806 62.7618 422.4 523.725
534 0 66.0497 13.7321 907 60.8137 422.886 524.762
535 0 63.0546 10.705 675 66.4415 423.01 522.631
536 0 67.0448 14.0056 939 62.0202 423.335 518.095
537 0 68.0766 13.4701 917 63.1996 422.914 517.045
538 0 68.0646 13.0464 888 63.7995 422.342 519.197
539 0 70.101 12.3679 867 65.1765 423.089 515.411
540 0 73.1783 13.7882 1009 62.7939 423.123 517.996
541 0 76.1156 13.2824 1011 63.9159 422.963 514.801
542 0 76.2074 11.7705 897 66.2542 423.491 514.091
543 0 83.1142 13.3551 1110 63.9126 422.818 513.157
544 0 82.0956 12.9727 1065 65.1277 423.027 512.187
545 1 43.0413 11.4309 492 65.065 422.846 531.823
546 0 44.0871 11.6134 512 66.2852 422.693 530.604
547 0 48.0424 11.698 562 65.6584 422.769 531.11
548 0 49.0615 11.4346 561 67.2656 423.03 527.747
549 0 50.07 12.3227 617 66.0924 422.613 527.267
550 0 49.1203 12.846 631 66.4612 422.494 527.209
551 0 53.1141 13.4051 712 65.0239 422.559 526.879
552 0 54.0634 13.5767 734 64.9823 423.034 526.689
553 0 57.0498 15.0395 858 62.2308 423.371 526.499
554 0 57.0568 13.4427 767 66.1134 423.231 523.289
555 0 59.0764 12.9832 767 66.1591 423.078 522.001
556 0 60.0821 13.132 789 65.763 422.749 523.005
557 0 64.077 13.8583 888 64.6959 422.77 521.348
558 0 64.0419 13.2413 848 66.0012 422.981 519.573
559 0 68.111 14.9902 1021 62.8511 422.859 518.845
560 0 68.0862 13.0423 888 66.2444 423.268 517.232
561 0 71.0873 14.5033 1031 63.7304 423.062 519.477
562 0 73.0426 13.9234 1017 64.9036 423.139 516.279
563 0 74.1001 14.0081 1038 65.2351 423.001 515.593
564 0 76.1048 14.4275 1098 64.2587 422.82 516.127
565 0 77.0599 12.0945 932 67.706 422.63 511.63
566 0 81.1405 12.731 1033 66.5615 422.44 510.023
567 0 84.0824 13.3678 1124 65.4617 422.373 510.604
568 1 44.0381 10.6044 467 67.4133 421.857 530.94
569 0 44.0684 12.0948 533 65.5553 422.28 530.3
570 0 47.0327 11.2475 529 66.7146 422.764 528.703
571 0 48.0975 12.3707 595 65.5076 422.877 529.062
572 0 51.021 12.0343 614 65.6694 422.73 528.265
573 0 49.0267 12.5238 614 66.3779 422.684 526.891
574 0 52.0556 13.1782 686 64.8819 423.462 525.806
575 0 54.0284 13.9371 753 64.7517 422.956 524.664
576 0 56.1385 13.5201 759 65.2042 422.904 524.196
577 0 57.0469 13.7606 785 64.9096 422.913 522.54
578 0 57.0947 12.6632 723 67.0387 422.941 521.425
579 0 61.0627 14.3787 878 63.8793 423.953 521.968
580 0 60.0704 12.8682 773 66.9431 424.827 518.913
581 0 64.1413 13.3143 854 65.2623 424.311 520.495
582 0 68.0929 14.3187 975 63.2646 423.978 520.316
583 0 69.068 12.9003 891 65.5612 424.713 516.452
584 0 70.1241 13.4476 943 64.7815 423.758 517.286
585 0 72.1707 14.05 1014 64.8412 423.356 514.279
586 0 75.0591 13.2962 998 65.8617 424.018 513.998
587 0 75.0435 12.7926 960 66.85 423.407 512.425
588 0 78.0854 13.2419 1034 66.0377 423.029 510.186
589 0 81.0824 13.2335 1073 65.9301 423.347 509.922
590 0 83.0913 11.8785 987 68.229 422.98 507.815
591 1 43.0476 11.406 491 67.2485 422.908 529.766
592 0 45.0815 12.3776 558 67.0161 423.163 525.959
593 0 47.1012 14.0336 661 64.0015 422.694 528.301
594 0 49.1082 13.6434 670 64.1284 423.419 526.66
595 0 48.1192 11.5546 556 67.4856 423.011 526.198
596 0 52.0954 13.149 685 64.5197 423.184 526.628
597 0 52.0314 12.9345 673 66.5929 423.275 521.74
598 0 55.0833 12.472 687 65.6681 423.531 523.064
599 0 57.0812 13.9275 795 63.7987 422.935 522.302
600 0 57.0406 11.8687 677 66.9941 422.996 522.344
601 0 57.0284 13.2916 758 66.376 423.352 516.93
602 0 61.0461 12.3349 753 66.9031 423.349 518.341
603 0 62.0443 12.8295 796 66.1533 423.043 517.568
604 0 65.0696 12.1408 790 65.9127 423.014 517.829
605 0 66.0397 12.765 843 66.6868 424.253 516.211
606 0 70.1608 12.7849 897 65.9342 423.624 512.936
607 0 73.0854 12.5333 916 66.4738 423.989 512.836
608 0 76.0948 13.7066 1043 64.8984 423.743 512.155
609 0 77.0889 13.0628 1007 66.2721 423.144 507.424
610 0 82.1053 12.4231 1020 66.3549 423.36 508.448
611 0 84.066 12.9184 1086 65.7947 423.693 507.985
612 0 87.1062 13.96 1216 65.2015 423.67 503.615
613 0 88.1167 12.438 1096 66.8969 423.119 505.943
614 0 92.1358 12.5033 1152 67.283 423.502 501.642
615 0 97.192 14.1473 1375 64.4095 423.112 503.255
616 0 99.2301 14.0885 1398 64.8612 423.318 502.29
617 0 102.139 13.6579 1395 65.6573 423.833 498.503
618 0 105.109 12.5488 1319 67.0296 423.617 496.494
619 0 108.16 13.3599 1445 66.1363 423.428 495.714
620 0 111.177 14.8322 1649 64.2911 423.627 493.928
621 0 116.064 12.9584 1504 66.5146 423.426 492.071
622 0 118.131 13.1719 1556 66.7153 423.384 490.008
623 1 64.0962 11.3111 725 68.8814 423.731 514.502
624 0 69.0643 13.7553 950 64.7716 424.043 514.243
625 0 69.211 13.2638 918 66.39 423.931 511.277
626 0 76.0752 12.8557 978 65.3016 423.145 511.791
627 0 76.1267 13.9898 1065 64.1399 422.996 509.267
628 0 79.0659 12.8121 1013 65.1747 423.723 510.97
629 0 83.0836 12.5175 1040 65.3029 423.7 508.011
630 0 84.1426 12.7997 1077 65.1448 423.812 507.396
631 0 87.1154 12.4433 1084 65.4271 423.721 506.012
632 0 90.0606 13.2577 1194 64.4732 423.374 502.845
633 0 94.0356 12.793 1203 65.6351 423.269 502.072
634 0 98.0909 14.0992 1383 63.9342 423.772 499.566
635 0 99.205 11.8341 1174 67.0809 423.738 498.078
636 1 49.086 12.1623 597 66.2898 424.057 519.675
637 0 51.1247 11.0318 564 66.3652 424.098 521.264
638 0 53.0453 12.4988 663 64.6456 424.054 519.608
639 0 51.1085 10.4484 534 68.309 423.328 517.934
640 0 56.0387 12.7234 713 64.209 423.809 517.543
641 0 58.0784 11.9666 695 65.6144 423.099 515.871
642 0 61.1353 12.7095 777 64.0631 423.385 516.408
643 0 62.0674 11.5681 718 65.2047 422.974 516.022
644 0 64.0551 11.7555 753 65.5976 423.003 514.177
645 0 66.0926 13.9804 924 62.7305 423.68 511.087
646 0 66.04 11.2053 740 65.9865 423.216 512.377
647 0 69.1155 13.6728 945 63.0169 423.354 508.871
648 0 70.0983 11.7835 826 65.2603 423.507 509.022
649 0 75.114 12.0084 902 64.3947 423.038 506.528
650 0 76.1079 12.2721 934 64.0707 423.599 507.894
651 0 78.0448 11.1987 874 64.9622 423.999 504.068
652 0 81.0427 12.9808 1052 63.3317 423.426 503.77
653 0 84.1374 12.2538 1031 63.4665 423.446 503.444
654 0 86.0913 11.8827 1023 63.7331 424.007 502.87
655 0 91.0623 13.639 1242 61.8945 423.717 499.614
656 0 95.1522 11.9493 1137 63.3694 423.696 500.911
657 0 96.1015 11.4775 1103 64.7407 424.449 498.831
658 0 101.128 12.855 1300 63.3738 423.94 495.518
659 0 103.211 14.107 1456 61.954 423.734 491.573
660 1 49.018 10.3023 505 61.6713 424.446 523.406
661 0 50.2113 10.4359 524 62.5305 424.019 521.2
662 0 50.0608 9.24875 463 64.3952 424.229 519.782
663 0 52.094 11.6904 609 61.5993 424.21 521.102
664 0 54.0728 12.1503 657 61.9985 423.807 516.683
665 0 57.0645 11.8112 674 62.0979 424.092 516.648
666 0 60.0842 10.3022 619 62.3942 423.637 518.129
667 0 60.0455 11.1415 669 62.139 423.783 516.96
668 0 64.0617 12.1758 780 60.4744 423.506 515.446
669 0 63.0995 9.98423 630 63.8778 423.343 512.697
670 0 66.0608 11.4137 754 62.2838 423.359 512.175
671 0 68.1129 8.4125 573 64.9634 424.358 513.965
672 0 73.1166 10.1208 740 62.6554 424.358 512.266
673 0 73.0656 11.4691 838 62.173 423.859 507.792
674 0 75.1767 10.6416 800 63.0138 423.655 507.778
675 0 75.0451 9.83408 738 65.1111 423.921 503.894
676 1 39.1491 8.19943 321 63.838 423.819 526.084
677 0 39.0552 10.7284 419 61.6158 423.964 526.296
678 0 41.0713 11.7113 481 60.9418 423.593 524.062
679 0 43.0402 10.5018 452 62.1128 424.069 523.739
680 0 44.0438 12.1243 534 60.6536 423.745 523.348
681 0 47.0367 11.2678 530 61.7415 424.215 523.306
682 0 46.1 11.2798 520 63.6115 424.283 522.175
683 0 48.0611 9.84164 473 64.5074 424.469 522.222
684 0 50.0832 12.2596 614 61.956 424.015 519.713
685 0 52.0548 11.1229 579 63.3731 424.204 518.551
686 0 54.1706 10.0054 542 64.2731 424.037 518.4
687 0 56.1416 10.6338 597 63.9749 423.065 519.116
688 0 59.0565 11.9377 705 62.2482 423.485 517.546
689 0 59.1118 10.2856 608 65.1513 424.347 516.812
690 0 59.0807 9.41085 556 65.9119 424.135 515.176
691 0 59.1344 10.3662 613 64.7993 423.781 513.437
692 0 62.1341 10.4451 649 64.4376 423.755 514.137
693 0 67.1281 10.979 737 63.5848 423.209 513.571
694 0 67.1888 9.83795 661 64.8699 423.894 512.458
695 0 68.1684 10.4301 711 64.5345 423.229 512.105
696 0 72.0834 12.652 912 62.1535 423.28 509.803
697 0 74.0934 9.78495 725 66.0138 423.859 507.057
698 0 77.0991 11.2323 866 64.179 423.644 508.573
699 1 38.1195 7.89622 301 63.9767 423.944 528.887
700 0 42.0351 8.30258 349 62.7479 423.613 528.891
701 0 44.063 10.485 462 61.4545 423.751 525.359
702 0 45.0573 11.6518 525 59.48 424.069 526.884
703 0 46.0205 11.1472 513 61.3197 423.485 522.996
704 0 50.1401 12.0064 602 59.0365 423.523 523.827
705 0 52.1347 12.5444 654 59.6223 423.563 523.552
706 0 52.0555 9.56672 498 63.7992 423.596 521.781
707 0 52.0357 11.9533 622 61.8521 423.198 519.963
708 0 54.0336 11.5669 625 62.6832 422.379 520.686
709 0 55.0338 9.7213 535 63.9271 422.862 519.305
710 0 58.0569 9.80073 569 63.8506 423.063 519.079
711 0 58.0704 11.0728 643 63.3313 422.701 516.874
712 0 59.0676 10.2256 604 64.1821 422.381 516.96
713 0 61.0626 10.2682 627 63.2488 422.601 516.195
714 0 63.0393 10.549 665 62.6797 422.352 514.176
715 0 66.0391 12.0989 799 60.3705 423.223 514.737
716 0 67.0337 9.57727 642 62.19 423.087 516.609
717 0 68.119 11.4505 780 60.9026 423.327 509.978
718 0 71.1449 9.68446 689 61.7068 423.869 513.427
719 0 72.1091 9.91554 715 61.6951 424.276 511.236
720 0 77.1717 11.6753 901 58.9723 423.411 510.228
721 0 79.2599 10.9135 865 59.2647 423.392 509.523
722 0 80.1746 11.2006 898 59.4788 423.875 504.964
723 0 82.1769 12.1689 1000 57.587 423.199 505.185
724 0 88.1573 12.6365 1114 56.9237 423.206 501.484
725 0 89.2344 10.5228 939 59.5591 423.517 500.769
726 1 46.1066 10.3456 477 58.7589 423.864 519.983
727 0 46.098 7.44066 343 60.9534 423.534 523.566
728 0 52.0419 11.0104 573 57.4799 423.499 519.908
729 0 51.1252 11.6772 597 57.4472 423.409 520.173
730 0 55.085 11.927 657 56.3014 423.887 521.729
731 0 54.0766 13.7768 745 54.8309 423.933 518.89
732 0 56.176 9.89746 556 59.7806 423.691 519.527
733 0 57.0789 10.4242 595 58.0992 423.657 520.427
734 0 60.1729 13.2452 797 55.1995 423.523 516.269
735 0 62.128 11.09 689 57.2017 423.8 516.585
736 0 63.1423 12.4798 788 56.231 423.921 515.114
737 0 63.1162 10.7421 678 58.0546 424.239 513.35
738 0 66.2968 13.4546 892 54.6771 424.004 514.687
739 0 69.0686 12.6541 874 55.7391 424.038 511.324
740 0 72.1266 12.5612 906 55.4249 423.87 510.972
741 0 72.1252 12.0346 868 56.4401 423.857 508.103
742 0 75.1383 13.535 1017 54.8309 423.388 505.979
743 0 76.1528 11.9497 910 56.6121 423.296 506.881
744 0 81.07 12.076 979 56.0807 422.897 506.164
745 0 83.0925 13.0938 1088 55.2702 422.403 502.978
746 1 43.1008 10.6495 459 56.8562 422.717 526.009
747 0 44.0473 10.7158 472 58.4661 422.593 524.002
748 0 45.035 11.5688 521 57.3781 422.549 524.171
749 0 48.052 13.5686 652 54.7025 423.248 522.041
750 0 49.1481 12.7167 625 55.6432 422.898 522.309
751 0 51.0797 12.6861 648 55.3349 422.716 520.193
752 0 54.1185 12.2694 664 56.119 422.541 520.881
753 0 53.0351 10.5779 561 58.3725 423.503 520.947
754 0 55.123 12.6082 695 56.6144 423.515 517.586
755 0 56.0142 11.265 631 58.038 423.38 517.198
756 0 58.0475 12.5415 728 56.7212 423.684 518.397
757 0 59.037 13.5678 801 56.3558 423.015 514.994
758 0 60.078 12.3839 744 57.5699 422.753 515.458
759 0 65.0752 11.8478 771 57.3839 423.261 516.361
760 0 67.0355 13.6942 918 55.3813 422.978 514.356
761 0 69.0788 12.7391 880 56.9795 423.197 511.195
762 0 71.1431 11.9618 851 57.5593 422.898 511.128
763 0 73.1758 12.9551 948 56.9578 422.8 510.88
764 0 78.1719 13.4319 1050 56.0457 423.262 510.944
765 0 78.0508 13.6578 1066 56.3368 422.558 510.632
766 0 82.1155 12.5677 1032 57.1531 423.636 509.617
767 0 82.2017 11.3623 934 59.2355 422.383 506.456
768 0 87.3068 11.8433 1034 58.8075 423.04 505.027
769 0 88.1318 12.8671 1134 57.8589 423.399 504.771
770 1 47.0456 12.371 582 58.146 423.022 524.723
771 0 48.0571 12.0482 579 58.2677 423.152 526.318
772 0 50.0649 13.083 655 57.6977 423.29 524.386
773 0 50.041 12.7695 639 58.7371 423.183 522.865
774 0 54.0871 12.4429 673 59.0832 422.814 521.012
775 0 56.0326 10.9757 615 59.6683 422.639 523.75
776 0 54.0514 12.4696 674 60.0415 423.248 519.694
777 0 57.0449 12.2535 699 59.7811 423.016 521.144
778 0 60.1325 13.4536 809 58.7157 423.172 515.865
779 0 61.0345 13.1401 802 59.6758 422.784 517.099
780 0 64.0585 11.8642 760 60.3053 423.028 517.989
781 0 67.1323 12.5722 844 59.596 422.703 517.231
782 0 69.1935 12.8625 890 59.564 423.379 514.676
783 0 69.0714 12.697 877 60.0285 423.314 512.77
784 0 72.0546 13.5175 974 59.039 423.163 512.765
785 0 74.3342 12.8474 955 59.5058 423.754 512.264
786 0 80.1953 12.5319 1005 59.6308 423.257 508.48
787 0 80.1854 13.5311 1085 58.918 423.083 509.486
788 0 83.2391 13.1429 1094 59.8483 422.896 506.027
789 0 87.1092 11.9735 1043 61.3682 422.514 506.451
790 1 43.0481 10.8716 468 59.7179 422.335 529.1
791 0 42.0194 12.0659 507 60.5503 422.582 527.69
792 0 44.2979 12.5288 555 59.4937 422.96 527.366
793 0 46.0228 12.1244 558 60.2437 423.018 527.007
794 0 44.0382 12.7844 563 60.5453 423.625 526.036
795 0 49.1458 12.5748 618 59.61 422.932 525.231
796 0 48.0414 12.0937 581 61.2151 422.983 523.847
797 0 51.0561 11.1838 571 62.4536 423.088 522.375
798 0 54.0472 12.156 657 60.8189 423.005 522.528
799 0 54.0407 12.6756 685 60.4613 423.18 520.768
800 0 56.0427 12.4905 700 59.61 422.989 523.481
801 0 59.1085 11.9949 709 60.4133 423.11 521.996
802 0 58.058 11.7296 681 61.7269 423.41 519.382
803 0 63.1514 13.1588 831 58.9976 423.387 520.335
804 0 66.1434 11.8984 787 59.6506 423.437 519.028
805 0 67.0974 13.3537 896 58.6272 423.224 516.223
806 0 68.1121 12.1271 826 60.2494 422.971 515.178
807 0 67.0993 11.9375 801 60.7104 423.256 515.392
808 0 72.0842 14.3582 1035 57.9082 422.87 513.321
809 0 74.0933 11.9714 887 60.3202 423.495 513.918
810 0 76.1728 12.5504 956 59.5774 423.073 512.916
811 0 79.1004 13.9696 1105 58.7176 423.039 508.207
812 0 83.0748 11.8929 988 59.7338 422.89 512.132
813 0 84.0941 12.4979 1051 59.8059 423.825 509.637
814 0 86.0714 13.3145 1146 59.7592 423.332 504.975
815 1 41.2095 9.5609 394 61.9391 423.188 527.589
816 0 45.0666 12.182 549 59.0109 423.434 526.559
817 0 43.0614 9.9393 428 62.0911 423.801 526.71
818 0 45.0978 12.0183 542 58.8266 423.273 529.33
819 0 52.1608 12.8449 670 57.0119 423.304 527.979
820 0 48.0478 11.3012 543 60.105 423.335 526.849
821 0 51.1558 11.9634 612 58.9493 422.949 525.941
822 0 52.1255 10.4364 544 60.6746 423.347 524.452
823 0 53.2666 11.9024 634 59.8123 422.544 522.869
824 0 57.0948 11.9626 683 58.8009 422.584 523.527
825 0 58.176 11.6199 676 59.7914 423.268 521.201
826 0 61.1349 11.63 711 58.9986 422.904 520.855
827 0 61.1133 10.5051 642 60.986 423.143 520.355
828 0 64.0592 11.3489 727 59.7387 423.099 519.048
829 0 68.1987 13.7833 940 57.2436 422.859 515.424
830 1 145.321 11.1271 1617 61.8633 423.522 483.47
831 1 70.1363 10.9073 765 61.1007 422.476 513.488
832 0 73.1481 11.6339 851 60.5358 422.982 511.539
833 1 37.0125 10.2938 381 59.958 422.669 530.541
834 0 41.0576 11.6909 480 57.9208 423.6 530.956
835 0 40.0699 8.08587 324 61.4475 423.269 531.599
836 0 42.115 12.0147 506 57.9229 423.245 529.615
837 0 44.0685 11.8679 523 58.1912 422.983 528.461
838 0 48.0429 12.364 594 57.138 422.734 528.325
839 0 49.0595 11.8428 581 58.1997 422.652 526.251
840 0 51.0681 11.377 581 59.1997 422.926 525.565
841 0 51.1599 12.5489 642 58.0545 423.227 525.202
842 0 54.0858 11.4818 621 59.1353 423.217 525.655
843 0 56.0804 11.3587 637 59.4474 423.54 523.44
844 0 56.1017 13.1012 735 57.8109 423.337 521.974
845 0 58.0984 11.7043 680 58.9206 423.25 520.791
846 0 58.1255 12.9891 755 57.8728 422.331 520.011
847 0 62.2046 12.6196 785 57.4994 422.87 520.946
848 0 63.1977 11.9466 755 58.2464 422.873 520.201
849 0 64.2929 11.4787 738 58.8157 422.443 518.064
850 0 69.3094 12.9708 899 56.5072 422.526 516.877
851 0 71.2518 13.5576 966 55.8861 423.422 515.611
852 0 71.0834 10.9308 777 59.2278 422.843 513.151
853 0 74.386 10.9295 813 58.8069 422.877 513.475
854 0 76.1377 11.0852 844 58.7607 422.621 512.09
855 0 78.1241 11.0977 867 58.2341 422.865 512.186
856 0 81.2084 11.1072 902 58.6696 422.613 509.653
857 0 85.311 12.6127 1076 57.2128 422.704 508.698
858 1 45.1392 10.811 488 58.7357 422.301 527.234
859 0 47.1851 10.978 518 58.8166 422.51 524.998
860 0 49.0578 10.9463 537 59.3538 423.317 523.775
861 0 52.0647 13.6177 709 56.9337 422.836 522.797
862 0 52.1826 12.4179 648 58.6219 423.309 521.446
863 0 55.1934 12.3203 680 58.1221 422.353 523.234
864 0 56.178 12.0332 676 58.2086 422.96 523.555
865 0 57.1643 10.2861 588 60.3061 422.963 520.85
866 0 61.2437 11.5604 708 58.8997 423.613 514.897
867 0 61.4832 11.6617 717 59.1813 423.082 519.682
868 0 62.1121 11.5114 715 60.1035 423.408 517.905
869 0 67.3399 12.4889 841 57.9322 423.567 518.245
870 0 69.1278 12.325 852 58.3662 423.268 518.46
871 0 71.1583 13.3365 949 57.6881 422.791 512.469
872 0 75.1948 13.9903 1052 56.4135 423.212 511.978
873 0 77.2106 13.6251 1052 56.4962 422.179 511.889
874 0 77.2734 11.2717 871 59.3433 422.583 508.745
875 0 81.1779 12.7991 1039 57.2474 422.947 511.07
876 0 84.2609 10.5268 887 59.6708 423.019 507.681
877 0 85.2965 10.7859 920 59.3272 422.724 506.725
878 0 88.1781 10.4448 921 59.1444 422.298 504.403
879 0 94.2507 11.9469 1126 57.6599 422.607 502.124
880 0 97.2938 11.234 1093 58.5279 422.866 500.234
881 1 47.0717 10.3247 486 60.9979 423.284 521.813
882 0 52.1981 12.7974 668 57.2515 423.193 522.4
883 0 54.0877 11.4444 619 58.7819 423.12 523.142
884 0 52.0834 10.6752 556 60.2842 423.074 521.61
885 0 57.1067 12.0126 686 58.395 423.414 520.695
886 0 59.1854 13.0438 772 57.1839 423.438 519.105
887 0 59.0577 11.8189 698 58.5358 423.358 521.364
888 0 61.1196 12.3037 752 58.9162 423.481 517.251
889 0 63.0306 11.8673 748 59.262 423.444 516.85
890 0 64.1056 12.2766 787 59.0089 423.559 516.785
891 0 69.0695 13.5805 938 57.1034 423.216 515.437
892 0 69.2486 13.1988 914 57.5284 423.469 516.568
893 0 71.1943 12.9786 924 58.724 423.977 512.904
894 0 75.0852 13.1983 991 58.2149 423.285 513.715
895 0 76.0684 12.6465 962 59.3846 423.262 512.913
896 0 77.121 11.4625 884 61.4853 423.011 507.786
897 0 82.0828 11.4519 940 61.2245 423.066 507.933
898 1 40.0885 11.0006 441 62.2472 423.295 526.592
899 0 44.0975 14.0824 621 58.5459 423.61 529.129
900 0 44.1684 13.29 587 60.552 423.644 526.998
901 0 45.0666 11.7604 530 62.6717 423.432 527.396
902 0 46.0711 11.7861 543 63.2099 423.153 527.118
903 0 47.1497 15.4614 729 59.2099 423.027 526.554
904 0 50.1015 13.4128 672 61.5461 422.936 525.222
905 0 51.0827 13.2726 678 61.8481 423.355 524.258
906 0 54.117 13.6186 737 61.3853 423.073 524.324
907 0 53.1798 12.8244 682 62.8226 423.317 523.01
908 0 56.03 14.0282 786 60.9313 423.597 523.056
909 0 55.0192 11.0143 606 65.8812 423.828 523.696
910 0 60.1933 13.7889 830 61.5072 424.711 522.681
911 0 62.1069 13.1869 819 62.7827 424.481 518.131
912 0 64.2597 14.0523 903 61.6013 424.639 518.33
913 0 67.1877 13.8269 929 61.0237 424.858 519.211
914 0 68.1075 16.0922 1096 59.0219 424.616 516.93
915 0 71.0921 13.6302 969 61.5779 423.714 516.128
916 0 71.0738 12.0016 853 64.0481 423.896 513.695
917 0 73.1452 13.8355 1012 61.7984 423.807 515.22
918 0 77.1285 12.9394 998 62.0351 423.675 514.58
919 0 78.1332 11.7364 917 64.2465 423.213 510.484
920 0 81.0382 14.1908 1150 61.3713 423.417 508.567
921 0 83.1499 14.0349 1167 61.3676 423.106 507.759
922 0 88.1539 14.0096 1235 60.7142 423.721 507.268
923 0 89.1239 11.7365 1046 63.7792 422.935 505.732
924 0 92.0815 12.9125 1189 62.4365 423.5 502.554
925 1 46.0268 12.4927 575 61.9896 423.551 524.473
926 0 47.0249 12.1 569 62.0281 423.211 526.91
927 0 48.0184 12.516 601 62.7537 423.815 522.947
928 0 52.1262 13.8318 721 60.8183 423.429 522.538
929 0 54.0346 11.9553 646 62.613 423.294 522.997
930 0 56.0432 11.9194 668 62.3563 423.269 521.762
931 0 57.0573 12.3385 704 61.8764 423.551 520.624
932 0 59.0975 13.6554 807 59.6159 423.395 522.149
933 0 61.1634 14.4041 881 58.9773 423.545 517.267
934 0 64.1676 11.3141 726 62.5523 424.043 517.453
935 0 63.0607 14.0658 887 58.867 423.746 518.841
936 0 64.058 12.598 807 60.9306 424.077 515.364
937 0 70.1767 13.1668 924 59.5314 424.162 514.391
938 0 71.084 12.5345 891 60.2783 424.036 512.21
939 0 72.0352 11.5915 835 61.7138 423.484 510.897
940 0 77.1105 14.9785 1155 57.8346 422.991 506.647
941 0 78.0826 12.7941 999 60.5786 423.431 508.327
942 0 81.0894 12.1224 983 61.3082 423.942 506.064
943 0 85.1798 13.63 1161 59.3075 423.544 503.549
944 0 87.0972 12.951 1128 60.5878 424.161 504.234
945 0 88.1533 12.2968 1084 61.5803 424.183 500.767
946 0 91.1559 13.3946 1221 60.3366 423.922 500.667
947 0 95.0707 13.632 1296 60.2515 424.303 497.556
948 0 97.1846 11.8023 1147 62.0105 424.009 498.713
949 1 50.1024 11.4565 574 61.1585 424.652 518.645
950 0 51.1072 12.014 614 60.9169 424.047 520.529
951 0 53.0723 13.133 697 59.5739 424.152 520.31
952 0 56.1843 12.8328 721 59.6006 423.606 518.333
953 0 55.1955 10.4175 575 62.967 423.972 516.197
954 0 59.1103 13.1618 778 59.8509 423.95 514.73
955 0 62.0587 14.2124 882 58.8209 423.075 513.761
956 0 62.039 11.2671 699 62.6609 423.914 515.258
957 0 67.1283 12.6921 852 60.1385 423.277 514.346
958 0 69.1672 12.8095 886 60.7122 423.823 510.916
959 0 72.095 14.7999 1067 58.5604 423.172 508.649
960 0 73.2021 12.2674 898 61.5791 423.46 510.629
961 0 79.2569 12.7938 1014 60.6479 423.957 507.382
962 0 81.1444 13.3836 1086 60.8048 423.745 506.688
963 0 80.1025 12.9334 1036 62.1409 424.211 502.619
964 0 85.1975 13.5802 1157 61.1884 423.263 503.506
965 1 40.0241 10.6436 426 63.0962 423.709 526.695
966 0 44.0387 11.1493 491 61.8086 424.253 525.768
967 0 47.1306 12.4123 585 60.6376 423.81 525.721
968 0 47.0727 13.0224 613 60.9184 423.997 523.083
969 0 50.0732 12.6615 634 60.7397 423.814 524.407
970 0 52.0842 13.075 681 60.7181 424.188 522.724
971 0 54.0448 15.0616 814 58.0565 424.009 523.136
972 0 53.1563 12.0776 642 61.6776 423.98 522.276
973 0 56.0467 13.346 748 60.2888 424.086 520.594
974 0 57.1156 12.2033 697 61.7475 423.94 519.879
975 0 58.0375 12.199 708 62.1681 423.696 518.213
976 0 61.052 12.776 780 61.1885 423.715 517.609
977 0 63.0567 14.3997 908 59.2863 423.665 515.17
978 0 62.0242 12.0598 748 62.4586 423.644 517.068
979 0 65.1864 13.3463 870 60.8529 423.414 514.856
980 0 65.0636 11.1429 725 63.3366 423.91 513.908
981 0 70.1233 12.4638 874 61.7963 423.354 513.016
982 0 72.1313 13.4754 972 60.2346 423.987 513.035
983 0 74.0523 11.0462 818 62.8704 423.866 512.165
984 0 78.1272 12.902 1008 60.3948 424.113 511.036
985 0 79.15 13.9987 1108 59.565 424.227 511.509
986 0 81.1195 11.8344 960 61.7583 423.983 510.628
987 0 85.1124 13.3471 1136 60.4137 424.283 508.224
988 0 87.0354 12.5007 1088 61.2546 423.904 505.962
989 0 90.0881 13.0761 1178 61.045 423.112 503.946
990 1 48.047 11.5928 557 61.3303 423.964 523.524
991 0 50.0788 11.5817 580 60.4517 423.455 525.864
992 0 51.0444 11.1472 569 61.6485 423.872 524.71
993 0 55.068 12.421 684 59.826 423.75 523.652
994 0 55.1057 12.0133 662 61.284 423.912 521.872
995 0 56.1215 10.4238 585 62.6393 423.513 520.94
996 0 60.1166 12.6255 759 59.6166 424.152 520.207
997 0 60.0685 12.7688 767 60.1421 423.874 518.334
998 0 64.0477 12.0535 772 60.6917 423.473 518.168
999 0 64.0399 12.6015 807 60.6084 423.69 516.457
1000 0 67.0734 11.8527 795 59.9157 423.575 519.491
1001 0 64.0934 10.2039 654 63.5505 423.544 512.604
1002 0 70.0819 11.7291 822 61.5049 423.481 513.949
1003 0 72.0344 13.1465 947 59.6177 423.182 515.841
1004 0 74.1219 12.1691 902 60.8825 423.226 513.86
1005 0 77.0668 11.795 909 61.3245 422.539 512.03
1006 0 80.074 12.5884 1008 60.5883 422.975 511.001
1007 0 83.1154 12.7052 1056 60.3845 423.265 510.735
1008 0 84.0878 13.8902 1168 59.8938 422.878 508.159
1009 0 87.1431 12.1639 1060 61.4962 422.668 508.142
1010 0 90.0869 12.9431 1166 61.0403 422.922 504.956
1011 0 92.1426 12.4589 1148 61.9477 423.261 504.853
1012 1 49.1031 10.59 520 61.9942 422.637 526.913
1013 0 52.1226 13.7944 719 58.3922 422.773 527.284
1014 0 50.0831 12.639 633 60.8531 422.852 525.385
1015 0 53.1354 12.1576 646 60.5697 422.673 525.867
1016 0 57.0392 12.2197 697 59.6098 423.366 526.123
1017 0 58.0224 12.8743 747 60.1071 423.431 523.423
1018 0 59.0741 12.5605 742 60.3962 423.353 521.779
1019 0 62.0854 11.2748 700 61.3343 423.011 522.481
1020 0 63.0421 12.3727 780 60.8987 422.933 520.309
1021 0 66.2331 13.2411 877 59.7469 422.734 520.47
1022 0 69.1063 14.181 980 58.4969 422.842 517.041
1023 0 69.032 11.9944 828 61.3019 422.693 518.053
1024 0 72.0342 13.0493 940 60.3085 422.935 512.104
1025 0 73.0545 12.5933 920 61.0815 422.709 514.291
1026 0 77.0443 13.1613 1014 60.2791 422.905 511.332
1027 0 77.0463 11.4866 885 62.078 422.045 514.616
1028 0 80.1292 14.0523 1126 59.9627 422.321 512.156
1029 0 84.1163 12.0785 1016 62.2283 422.185 510.779
1030 1 42.0276 9.92206 417 64.5516 421.954 528.683
1031 0 46.0532 11.465 528 62.7936 421.847 530.485
1032 0 45.0801 11.4907 518 63.5888 422.237 529.444
1033 0 48.1514 12.0453 580 63.6741 422.603 526.31
1034 0 53.0316 11.6534 618 62.2864 422.183 528.922
1035 0 54.1021 11.4044 617 63.3468 422.366 524.885
1036 0 53.077 13.5652 720 62.0569 421.974 523.864
1037 0 55.2427 13.5222 747 61.8153 422.289 524.561
1038 0 57.3081 12.267 703 63.3656 421.4 521.872
1039 0 60.2066 12.8391 773 62.5175 421.787 521.497
1040 0 61.0472 13.4322 820 62.1927 421.028 523.151
1041 0 64.1636 11.8603 761 63.5887 421.564 519.827
1042 0 64.102 11.2945 724 64.3094 421.627 519.678
1043 0 69.0727 13.4206 927 61.5707 421.943 518.292
1044 0 70.0556 12.9326 906 62.351 421.529 516.821
1045 0 74.1164 11.4415 848 63.8561 421.66 515.998
1046 0 77.072 12.1964 940 62.6915 421.352 515.445
1047 0 79.1615 12.9735 1027 62.0555 421.226 515.869
1048 0 83.1717 12.2518 1019 62.6516 422.441 513.504
1049 1 42.0664 11.0302 464 61.75 422.522 535.431
1050 0 41.0277 12.9668 532 62.4605 422.271 531.498
1051 0 42.0688 12.8123 539 63.0853 421.835 532.768
1052 0 47.0678 12.004 565 63.285 421.8 530.789
1053 0 47.1264 15.1932 716 60.5573 421.913 529.401
1054 0 50.0521 12.8866 645 63.1116 421.602 528.94
1055 0 52.0563 12.8323 668 62.7545 421.994 530.112
1056 0 55.0699 14.0367 773 61.5408 421.617 526.837
1057 0 55.0428 12.9717 714 62.479 421.637 527.986
1058 0 57.0393 15.8487 904 59.2378 421.444 527.116
1059 0 60.0752 13.4831 810 61.4938 421.984 526.984
1060 0 61.1455 13.7704 842 61.7601 421.771 524.099
1061 0 65.0482 13.882 903 61.4895 422.054 525.011
1062 0 59.0893 11.3218 669 66.3393 422.102 521.567
1063 0 62.051 11.7484 729 65.6653 422.296 520.964
1064 0 63.0654 11.9559 754 65.6286 421.947 519.592
1065 0 73.1174 13.1979 965 63.4073 422.317 520.395
1066 0 76.0589 13.5684 1032 62.8779 421.612 520.279
1067 0 77.2128 15.0234 1160 61.8155 421.691 517.845
1068 0 80.1748 13.4082 1075 63.9498 422.166 517.327
1069 0 82.081 14.6806 1205 62.722 421.815 515.006
1070 0 84.2549 12.1892 1027 66.6115 422.759 515.969
1071 1 44.1371 11.8041 521 66.6219 422.019 534.035
1072 0 46.0855 12.5853 580 66.5121 422.448 533.99
1073 0 49.1551 12.9386 636 66.2909 421.638 530.494
1074 0 50.0593 13.524 677 65.5066 422.874 533.267
1075 0 53.1338 14.0965 749 64.6636 422.445 532.13
1076 0 52.0652 14.0401 731 65.435 422.432 531.958
1077 0 55.1339 13.2768 732 66.8197 422.672 529.984
1078 0 56.2606 12.9576 729 67.1001 422.712 530.42
1079 0 55.1403 12.4591 687 68.8399 422.98 528.191
1080 0 60.1626 13.2973 800 67.0812 422.731 526.066
1081 0 60.1236 13.3392 802 67.2768 423.153 527.112
1082 0 65.1213 13.4058 873 66.5888 422.813 524.332
1083 0 66.1594 13.014 861 67.0987 423.182 525.778
1084 0 67.1253 14.823 995 64.4302 422.392 525.467
1085 0 69.2433 14.1819 982 66.1059 423.134 521.747
1086 0 71.1724 14.2049 1011 65.816 422.404 518.591
1087 0 76.1341 15.1312 1152 63.1753 422.692 521.78
1088 0 78.2603 15.2568 1194 63.8325 422.4 517.848
1089 0 79.1984 13.3083 1054 66.3966 422.217 516.302
1090 0 81.1008 13.7606 1116 66.2124 423.24 514.881
1091 0 85.2271 14.2208 1212 65.6518 422.408 513.347
1092 0 87.0908 12.9176 1125 67.0222 423.827 513.24
1093 0 89.1314 12.7452 1136 67.1065 422.922 511.609
1094 1 44.1449 14.2259 628 63.6322 422.884 533.774
1095 0 46.127 13.853 639 64.5962 423.818 533.025
1096 0 47.2109 12.6878 599 64.9983 423.088 535.559
1097 0 47.1033 13.0776 616 66.5763 422.297 530.099
1098 0 50.0712 13.2012 661 65.5325 422.732 531.587
1099 0 49.147 13.3477 656 65.7759 422.584 528.566
1100 0 52.1839 13.6057 710 64.6662 422.855 531.554
1101 0 55.197 15.3269 846 62.5957 423.175 529.136
1102 0 53.0629 13.2484 703 66.2603 422.548 528.004
1103 0 57.0739 14.525 829 63.8782 423.075 527.69
1104 0 60.1553 13.8974 836 64.3182 422.783 527.105
1105 0 61.2383 14.4681 886 64.254 422.778 525.827
1106 0 62.1834 13.5567 843 65.0178 422.82 525.798
1107 0 65.1621 14.6251 953 63.8248 422.881 522.792
1108 0 69.298 15.9312 1104 61.9212 422.878 523.522
1109 0 68.0847 11.941 813 67.0492 423.204 523.2
1110 0 71.2078 14.3945 1025 64.4927 423.287 519.359
1111 0 71.2053 13.8192 984 65.5346 423.316 520.01
1112 0 75.2364 14.2351 1071 64.5696 422.767 520.312
1113 0 78.2546 14.9256 1168 64.2346 423.164 514.898
1114 0 78.0965 13.3809 1045 66.3598 422.902 512.615
1115 0 82.1166 12.6649 1040 67.1856 423.26 509.704
1116 0 87.2746 13.406 1170 65.8197 423.545 513.655
1117 0 90.1794 14.7595 1331 64.4087 423.011 508.631
1118 1 45.4522 13.4427 611 64.8854 423.173 534.082
1119 0 46.2781 13.3108 616 66.086 422.81 530.805
1120 0 49.15 12.5737 618 66.5534 422.417 530.272
1121 0 47.062 13.0254 613 67.9674 423.238 528.607
1122 0 47.17 12.2959 580 68.8052 423.247 528.303
1123 0 53.2386 13.1296 699 66.6938 423.09 527.582
1124 0 54.4426 13.7025 746 65.4209 423.492 528.308
1125 0 56.0877 13.8177 775 65.409 423.557 526.865
1126 0 57.3376 13.6734 784 66.1505 423.598 525.398
1127 0 60.2535 14.5386 876 64.8368 423.57 525.307
1128 0 59.112 14.4302 853 66.0961 423.467 522.836
1129 0 64.2643 13.8491 890 66.0225 423.698 523.51
1130 0 65.2764 14.7526 963 65.6802 423.497 520.915
1131 0 68.4819 13.6678 936 66.2447 423.166 523.598
1132 0 69.1116 12.9501 895 67.9598 423.013 521.247
1133 0 71.4043 13.9767 998 66.491 423.237 522.771
1134 0 76.2765 14.277 1089 65.6703 422.827 518.545
1135 0 75.3147 14.6983 1107 66.1165 423.463 517.946
1136 0 80.3942 13.2845 1068 67.8801 423.125 516.466
1137 0 83.2481 15.4598 1287 65.6822 422.837 514.402
1138 0 84.2438 16.7846 1414 64.6436 423.461 513.043
1139 0 87.2802 15.5133 1354 65.7511 423.707 513.806
1140 0 89.3685 14.5689 1302 67.5584 423.843 514.235
1141 0 94.4999 14.7831 1397 66.3622 424.023 513.362
1142 0 95.508 14.8679 1420 67.4711 424.168 510.558
1143 1 49.4317 13.3315 659 68.7375 423.824 530.168
1144 0 49.2403 15.2923 753 66.8818 423.679 530.138
1145 0 51.3106 13.2526 680 69.475 423.488 529.668
1146 0 51.2606 12.8949 661 70.7383 423.371 528.871
1147 0 56.2768 15.4771 871 66.4948 422.829 527.033
1148 0 57.2309 13.5416 775 68.271 423.505 529.185
1149 0 58.28 14.499 845 68.897 423.615 527.108
1150 0 61.2498 14.3184 877 68.9179 423.835 524.933
1151 0 62.2768 15.2384 949 68.4932 423.84 524.603
1152 0 65.1577 14.9944 977 67.5179 423.183 525.323
1153 0 65.2767 15.1969 992 68.0958 423.432 525.239
1154 0 69.3063 14.8183 1027 68.2278 424.427 523.203
1155 0 71.1548 14.4895 1031 68.8729 424.096 522.052
1156 0 71.3452 13.3296 951 70.9148 423.685 519.093
1157 0 73.4586 14.1304 1038 70.4836 423.321 518.153
1158 0 78.3488 13.9887 1096 70.4845 423.771 517.719
1159 0 80.3705 13.8732 1115 70.7498 423.683 516.345
1160 0 82.3521 14.4866 1193 70.4585 423.073 516.074
1161 0 83.4522 13.8642 1157 71.2351 423.478 515.405
1162 0 86.3064 13.7997 1191 71.6641 423.594 512.467
1163 0 89.3901 14.2409 1273 70.6929 423.879 512.49
1164 0 94.5789 15.0139 1420 69.8415 423.285 512.094
1165 0 94.4028 14.0356 1325 71.6702 423.649 508.46
1166 1 46.2702 13.3131 616 71.1672 423.521 532.231
1167 0 49.3725 12.6184 623 72.1958 423.783 531.53
1168 0 53.2645 13.5738 723 69.9156 423.827 531.896
1169 0 52.2627 14.408 753 70.5312 423.548 529.971
1170 0 54.3375 13.9683 759 71.498 423.29 527.478
1171 0 54.2299 13.5903 737 72.445 423.153 528.658
1172 0 55.269 13.6243 753 72.7995 423.49 527.478
1173 0 59.5131 14.4338 859 70.6438 422.895 528.226
1174 0 60.3736 14.079 850 71.6506 423.032 525.616
1175 0 62.2002 14.0514 874 71.5824 422.969 525.015
1176 0 64.3704 15.3797 990 70.3798 423.441 523.079
1177 0 66.3567 15.2208 1010 70.3901 423.468 523.493
1178 0 67.2426 13.9049 935 73.2214 423.603 522.055
1179 0 69.2681 14.8986 1032 71.7616 423.486 520.194
1180 0 72.4563 13.6358 988 72.8239 422.778 519.654
1181 0 74.2332 15.3166 1137 69.9807 423.338 522.069
1182 0 77.3703 13.8425 1071 72.8142 422.757 519.379
1183 0 80.2588 15.2756 1226 70.9217 423.625 517.216
1184 0 80.2639 13.4556 1080 74.1537 423.463 514.459
1185 0 85.1517 15.8306 1348 70.6751 422.953 513.021
1186 0 89.3984 15.3247 1370 70.5839 423.301 513.017
1187 1 44.3078 14.7604 654 70.3991 423.503 533.038
1188 0 46.259 14.0945 652 71.0123 423.225 533.071
1189 0 47.2099 12.8575 607 73.5964 422.613 532.262
1190 0 46.1344 12.572 580 74.6569 423.033 531.359
1191 0 48.1876 12.7626 615 74.6179 422.946 530.447
1192 0 49.1162 13.071 642 72.7259 423.467 532.776
1193 0 51.2563 13.1106 672 73.6786 423.321 529.711
1194 0 54.2021 14.5382 788 71.5825 423.013 528.867
1195 0 55.4506 15.2749 847 71.307 423.08 527.757
1196 0 56.155 14.4422 811 73.328 423.159 526.169
1197 0 57.2897 15.7445 902 71.4723 422.538 525.174
1198 0 61.2103 14.1153 864 72.3947 423.078 526.132
1199 0 60.1908 13.7064 825 73.7127 423.264 525.915
1200 0 63.243 15.6381 989 71.2649 422.847 524.148
1201 0 63.356 14.3948 912 73.4068 422.522 523.906
1202 0 67.3423 14.8644 1001 72.8232 423.038 522.26
1203 0 68.4776 14.0776 964 74.0902 422.84 521.215
1204 0 67.4282 14.5933 984 74.377 422.84 519.596
1205 0 72.3245 13.3841 968 75.3905 422.721 521.17
1206 0 75.3105 15.5357 1170 72.4205 422.207 518.608
1207 0 76.3936 14.5693 1113 74.3172 422.638 516.652
1208 0 80.2639 15.7107 1261 72.4251 422.833 515.201
1209 0 82.1966 15.3534 1262 73.1577 422.804 515.741
1210 0 83.3954 14.773 1232 74.9343 422.689 511.173
1211 0 87.3172 13.9491 1218 75.4499 422.947 511.898
1212 0 90.3263 14.6137 1320 74.9439 423.302 510.33
1213 0 91.393 13.9289 1273 76.7628 423.134 510.162
1214 1 36.1973 13.5369 490 72.6347 422.578 538.873
1215 0 36.2822 13.2848 482 72.6349 422.612 539.216
1216 0 37.3113 13.2131 493 73.7728 423.215 538.166
1217 0 39.1976 13.7253 538 72.5483 422.723 538.485
1218 0 39.1627 12.8183 502 75.4781 422.962 536.546
1219 0 41.2152 14.7518 608 71.9227 423.122 537.951
1220 0 40.3135 13.2214 533 76.2589 423.06 534.7
1221 0 43.217 15.4569 668 72.994 422.313 533.06
1222 0 42.218 15.0647 636 74.2358 422.709 533.406
1223 0 43.4479 14.9374 649 74.1602 422.8 532.661
1224 0 45.2537 14.6065 661 74.4039 423.461 533.356
1225 0 45.221 14.1748 641 76.1919 423.156 531.839
1226 0 47.3657 15.8554 751 73.7443 423.33 529.831
1227 0 50.3458 14.599 735 74.5333 423.261 530.688
1228 0 50.2485 16.697 839 72.0787 423.621 529.282
1229 0 50.1598 15.4905 777 74.6705 422.936 528.331
1230 0 51.1743 14.988 767 75.0678 422.834 529.699
1231 0 55.1886 15.2387 841 73.2235 423.239 528.936
1232 0 56.2165 14.7821 831 73.9832 423.295 527.807
1233 0 58.146 14.9795 871 73.0092 423.037 526.858
1234 0 58.2714 15.2047 886 73.3713 422.972 526.778
1235 0 62.2486 15.406 959 72.8436 423.38 524.077
1236 0 63.3066 17.5179 1109 70.1091 423.987 521.869
1237 0 66.3185 14.3399 951 73.7813 423.983 523.164
1238 0 67.1939 16.3705 1100 70.6418 423.99 522.048
1239 0 68.39 16.055 1098 70.9044 423.388 523.032
1240 0 69.2734 14.1757 982 74.3024 423.635 519.628
1241 0 72.4023 13.7565 996 74.6446 423.568 518.444
1242 0 76.3536 14.865 1135 72.6934 423.686 518.307
1243 0 79.3115 16.7567 1329 69.5734 424.126 517.372
1244 0 81.2414 14.2169 1155 73.0944 424.263 516.517
1245 0 82.284 14.8632 1223 72.6018 423.509 514.159
1246 0 85.2505 13.9823 1192 73.5336 423.14 513.996
1247 0 88.4765 14.4671 1280 72.6898 424.045 511.923
1248 0 89.6777 15.4553 1386 72.0137 423.56 510.506
1249 1 46.0856 13.4315 619 74.0081 423.79 531.704
1250 0 46.1764 15.0293 694 72.6066 424.395 530.581
1251 0 48.1934 14.5041 699 72.495 423.624 530.122
1252 0 51.1575 13.5073 691 73.0029 424.124 530.428
1253 0 50.2297 12.841 645 75.4992 423.95 528.327
1254 0 52.1578 14.6095 762 72.8609 423.77 529.152
1255 0 55.1069 15.5879 859 70.7497 424.049 529.502
1256 0 57.2648 14.9656 857 72.4131 423.819 526.119
1257 0 58.116 14.8496 863 72.6234 424.221 524.323
1258 0 59.2663 16.6199 985 69.3878 424.205 525.864
1259 0 61.1592 14.9119 912 72.3037 423.69 524.021
1260 0 62.1687 15.0076 933 72.6281 424.063 523.476
1261 0 63.2612 14.9065 943 72.9544 423.444 521.931
1262 0 65.2185 14.8578 969 72.9412 423.488 521.654
1263 0 68.3138 16.512 1128 70.305 423.996 521.702
1264 0 69.2233 13.7093 949 74.1022 423.384 519.765
1265 0 72.229 15.4785 1118 71.5796 423.886 518.811
1266 0 75.2564 14.816 1115 72.2789 423.525 517.371
1267 0 75.2089 14.3201 1077 73.3454 423.544 517.426
1268 0 79.2515 14.1953 1125 73.2836 423.775 515.709
1269 0 79.2873 13.8105 1095 73.9059 423.514 516.762
1270 0 82.3544 13.9276 1147 73.5859 423.041 515.19
1271 0 86.4045 14.1081 1219 72.5759 423.355 513.141
1272 0 89.2653 15.7284 1404 70.75 423.343 510.234
1273 0 93.4509 15.1309 1414 70.8755 423.46 510.832
1274 0 93.2642 15.3971 1436 70.6741 423.882 510.568
1275 0 96.3179 15.9783 1539 70.6121 424.12 505.554
1276 0 102.471 15.214 1559 71.2572 423.448 503.491
1277 0 102.353 12.5545 1285 74.4319 424.261 506.3
1278 0 107.462 14.675 1577 71.5111 423.838 504.356
1279 0 109.257 13.601 1486 73.7732 423.709 498.022
1280 1 49.2009 13.5567 667 73.024 423.543 528.372
1281 0 52.2804 14.6709 767 71.1291 424.344 528.811
1282 0 54.2254 13.868 752 71.4561 422.552 527.733
1283 0 56.2308 13.2312 744 71.9704 423.798 527.022
1284 0 56.2726 13.6479 768 71.4115 423.552 527.932
1285 0 60.1511 14.2475 857 70.7013 422.657 525.422
1286 0 60.225 13.8979 837 71.7814 422.847 524.879
1287 0 61.2208 11.728 718 73.8189 423.454 525.074
1288 0 63.1662 12.5858 795 73.0704 423.644 525.467
1289 0 64.4932 12.0168 775 75.5277 423.307 519.557
1290 0 66.3367 12.6476 839 74.5888 422.608 518.489
1291 0 69.2223 12.207 845 74.355 423.159 520.799
1292 0 73.1587 15.4595 1131 69.9823 423.196 521.125
1293 0 75.2005 14.9334 1123 70.9742 422.777 519.142
1294 0 77.1662 13.5422 1045 72.5569 423.604 519.133
1295 0 78.4325 13.5531 1063 72.9643 422.548 514.971
1296 0 84.2857 15.661 1320 69.4735 423.467 516.223
1297 0 83.4556 12.9171 1078 73.7495 422.714 512.997
1298 0 86.2269 13.0702 1127 73.5386 423.172 511.981
1299 0 90.2887 13.4125 1211 73.0413 422.634 511.57
1300 1 47.3326 13.2889 629 71.903 423.485 533.019
1301 0 47.296 11.9672 566 75.1219 422.599 530.7
1302 0 51.1724 14.8713 761 70.4455 423.217 532.022
1303 0 50.3023 13.3393 671 73.7452 423.481 531.07
1304 0 53.2238 14.4672 770 71.9026 423.409 530.888
1305 0 55.3482 15.6464 866 69.6697 423.366 531.972
1306 0 56.194 15.3753 864 71.6481 423.273 528.345
1307 0 57.285 14.4715 829 73.0326 423.592 529.302
1308 0 60.2567 15.1352 912 71.3279 423.484 529.602
1309 0 61.3024 14.6487 898 73.4031 424.106 525.58
1310 0 65.1764 14.806 965 72.2155 424.217 526.739
1311 0 66.1654 15.3555 1016 71.6555 424.047 525.798
1312 0 66.413 15.6596 1040 72.5837 423.977 522.7
1313 0 69.1126 14.4547 999 74.019 423.613 523.832
1314 0 70.3266 14.518 1021 74.6288 423.011 519.775
1315 0 73.2109 13.6865 1002 74.2495 423.934 523.333
1316 0 77.2501 14.2654 1102 73.373 423.647 522.407
1317 0 79.1103 14.4103 1140 73.4325 423.036 520.808
1318 0 81.4283 15.0071 1222 72.7324 423.647 518.958
1319 0 84.297 14.5675 1228 73.6865 423.59 516.363
1320 0 88.1994 15.2495 1345 71.6468 423.051 517.804
1321 0 89.389 13.7825 1232 74.5308 423.724 515.571
1322 0 92.1891 15.3055 1411 71.7548 423.312 515.276
1323 1 46.2856 15.0155 695 71.2935 423.245 534.381
1324 0 47.212 15.1233 714 71.9916 422.898 533.695
1325 0 47.2836 13.7468 650 72.8677 423.246 534.811
1326 0 50.3088 14.1923 714 73.0084 422.399 532.576
1327 0 50.1373 12.8846 646 75.0015 423.133 531.299
1328 0 52.251 14.9471 781 71.2138 423.027 531.907
1329 0 53.2434 13.7857 734 73.3733 422.831 531.92
1330 0 56.1984 15.4097 866 71.3545 422.742 530.547
1331 0 56.2663 13.5961 765 74.3046 422.813 529.783
1332 0 56.3069 13.8526 780 74.0731 422.982 529.742
1333 0 58.3306 14.9321 871 72.7887 423.339 528.947
1334 0 60.2182 13.285 800 75.0375 423.769 528.719
1335 0 61.2175 14.5383 890 74.4831 423.188 526.438
1336 0 66.2353 13.3313 883 74.9332 422.961 524.27
1337 0 65.2385 14.3167 934 73.0418 422.253 526.766
1338 0 66.4614 13.8577 921 73.8306 422.773 526.23
1339 0 69.4548 13.7356 954 74.1918 422.724 524.459
1340 0 69.2804 13.6402 945 74.5481 422.678 523.335
1341 0 72.3904 14.4909 1049 73.0191 422.92 522.024
1342 0 75.2116 14.0404 1056 73.589 422.914 521.543
1343 0 80.2241 14.7337 1182 71.4839 422.863 520.453
1344 0 81.2023 14.4824 1176 71.6488 422.821 518.048
1345 0 85.3163 15.0968 1288 70.7554 423.304 516.896
1346 0 87.3624 14.3769 1256 72.0056 423.158 515.396
1347 0 90.2224 15.7832 1424 69.2142 422.758 513.959
1348 1 45.1709 12.021 543 73.4217 422.954 532.919
1349 0 46.1693 13.3855 618 71.8738 423.272 532.193
1350 0 50.2317 12.6414 635 71.6236 423.213 533.068
1351 0 52.3084 13.2292 692 71.5535 422.546 530.763
1352 0 53.2146 14.3945 766 69.6475 422.842 530.559
1353 0 55.352 13.7664 762 69.8241 422.78 531.029
1354 0 54.2597 13.6013 738 71.5949 422.86 529.016
1355 0 59.1528 13.6257 806 70.9442 422.666 528.038
1356 0 58.3194 14.2834 833 70.7383 423.216 529.715
1357 0 60.2718 13.7875 831 71.8833 422.899 528.179
1358 0 63.1999 14.2722 902 71.1164 423.784 526.849
1359 0 62.2568 14.2314 886 72.2449 423.368 525.412
1360 0 66.4064 14.7877 982 70.3462 423.437 526.234
1361 0 68.3793 14.4196 986 72.1886 423.484 523.094
1362 0 69.5735 14.3158 996 72.7741 422.854 520.449
1363 0 71.3186 15.8023 1127 70.8731 423.442 520.358
1364 0 73.6393 13.797 1016 73.8504 423.051 520.665
1365 0 77.5482 15.2034 1179 71.5089 423.847 518.815
1366 0 79.4683 13.54 1076 73.974 422.88 516.682
1367 0 80.39 14.1435 1137 74.0053 423.422 516.411
1368 0 82.2894 13.4525 1107 74.5691 423.606 517.583
1369 0 86.3522 14.9272 1289 72.6206 423.511 515.279
1370 0 90.3847 14.9472 1351 72.7624 423.845 513.899
1371 0 94.1504 15.2097 1432 72.0461 423.775 511.395
1372 0 93.4166 14.3872 1344 73.8616 423.397 511.557
1373 0 98.3549 14.7527 1451 73.0221 423.131 508.521
1374 0 102.391 14.8255 1518 72.7134 423.447 507.101
1375 0 106.222 15.0346 1597 71.5611 423.092 507.672
1376 0 109.329 13.9579 1526 73.1219 422.64 503.502
1377 1 48.1583 13.3103 641 72.337 423.863 531.566
1378 0 50.3335 12.6755 638 73.0455 423.732 533.107
1379 0 52.2451 15.9632 834 68.8501 423.85 533.934
1380 0 52.4089 15.3409 804 71.7177 423.613 530.48
1381 0 55.2831 14.1996 785 71.949 423.704 531.201
1382 0 57.2202 15.921 911 69.8474 423.333 530.458
1383 0 56.7577 14.2888 811 73.0789 423.524 529.726
1384 0 60.2742 15.1972 916 71.3832 423.194 529.916
1385 0 59.2387 14.5682 863 73.5191 423.386 528.129
1386 0 60.3078 13.6135 821 75.1973 423.391 526.734
1387 0 64.3476 15.6028 1004 72.3367 423.571 526.094
1388 0 65.4217 15.3313 1003 71.4985 423.494 528.707
1389 0 67.4437 16.7992 1133 70.9029 423.456 525.282
1390 0 67.3278 15.2389 1026 73.309 423.378 527.694
1391 0 69.703 16.4268 1145 70.9459 422.897 527.422
1392 0 71.3349 14.6632 1046 74.608 422.771 524.854
1393 0 72.7791 14.7845 1076 74.974 423.77 521.845
1394 0 76.3547 14.4065 1100 75.2736 422.736 521.644
1395 0 77.5148 14.8746 1153 74.1292 423.598 522.846
1396 0 77.5142 14.3716 1114 75.825 423.069 519.864
1397 0 81.3013 15.7439 1280 73.4078 423.358 519.891
1398 0 83.3466 15.0336 1253 74.5227 423.579 517.709
1399 0 85.5083 15.7646 1348 73.4866 422.696 513.781
1400 0 90.4924 16.145 1461 72.0808 423.195 516.577
1401 0 93.5338 14.8609 1390 73.5755 423.512 517.308
1402 0 92.3639 14.5944 1348 75.1142 423.148 513.82
1403 0 93.3263 12.976 1211 78.1544 422.553 508.687
1404 0 98.4777 13.8407 1363 75.5965 423.128 510.553
1405 0 103.268 14.1961 1466 74.897 423.08 508.737
1406 0 106.316 14.6921 1562 74.5762 422.927 504.854
1407 1 54.2355 13.6626 741 75.1592 422.683 529.181
1408 0 54.2744 12.3815 672 78.1949 423.287 529.595
1409 0 57.5824 12.8511 740 77.7392 422.739 527.574
1410 0 66.3298 12.5434 832 76.2031 423.338 528.504
1411 0 65.2673 11.5525 754 78.1353 423.053 529.26
1412 0 65.3977 13.2879 869 77.1519 422.739 527.116
1413 0 63.4738 13.5647 861 79.1905 422.59 524.986
1414 0 65.2345 14.2869 932 77.5472 422.107 524.158
1415 0 67.2647 13.8557 932 78.8852 422.862 522.814
1416 0 72.3038 14.8125 1071 76.1569 423.852 525.22
1417 0 73.3252 15.629 1146 76.0009 423.786 522.325
1418 0 77.2728 15.2447 1178 75.899 422.9 523.324
1419 0 79.4336 14.8803 1182 76.3951 422.566 523.437
1420 0 79.2364 15.927 1262 76.2242 423.19 520.048
1421 0 80.229 14.9198 1197 78.3283 423.004 520.457
1422 0 85.2717 14.9053 1271 77.8009 422.965 518.135
1423 0 88.2296 15.981 1410 75.639 423.621 518.4
1424 0 90.3123 15.9004 1436 75.6504 423.531 519.006
1425 0 93.3613 16.6772 1557 75.5151 423.517 516.526
1426 0 92.1658 14.9513 1378 79.6916 422.896 513.935
1427 0 97.3163 15.1259 1472 79.1963 423.438 513.263
1428 0 101.382 16.7486 1698 76.692 423.04 512.372
1429 0 103.29 17.0491 1761 76.5531 423.011 510.677
1430 1 48.2829 12.4475 601 82.3494 422.912 534.517
1431 0 52.2823 15.1677 793 77.3266 423.02 535.029
1432 0 51.4425 12.9659 667 82.5442 423.195 534.72
1433 0 52.2829 13.733 718 83.6978 422.787 531.714
1434 0 56.472 13.759 777 83.0296 423.193 530.378
1435 0 57.3911 13.7303 788 82.6345 422.799 530.839
1436 0 58.3181 15.4155 899 80.3304 423.227 530.902
1437 0 61.3606 14.6837 901 81.4395 422.481 529.435
1438 1 141.306 16.6589 2354 76.1177 422.906 497.399
1439 0 141.401 14.4977 2050 80.2824 422.85 492.82
1440 0 149.707 15.2498 2283 78.6877 422.315 489.375
1441 0 155.486 16.1044 2504 77.7117 422.578 485.929
1442 1 68.6414 14.6559 1006 82.7714 422.649 525.511
1443 0 72.3625 15.2565 1104 80.9013 422.425 524.655
1444 0 71.4676 15.3076 1094 81.7166 422.483 521.777
1445 0 73.2984 14.9935 1099 81.8308 422.494 523.311
1446 0 77.2941 15.4475 1194 80.3735 422.36 522.267
1447 0 77.3889 15.6482 1211 82.0528 422.261 516.382
1448 0 80.4629 15.0753 1213 81.042 422.796 520.357
1449 0 85.4657 15.7607 1347 79.8552 422.612 518.29
1450 0 86.5845 14.0787 1219 83.5144 422.984 516.034
1451 0 90.4261 15.1173 1367 80.7783 423.406 517.477
1452 0 89.5747 13.7985 1236 84.9045 422.796 514.266
1453 1 46.3425 13.8749 643 80.4308 422.877 535.208
1454 0 47.2886 13.4916 638 82.2179 422.976 533.163
1455 0 49.2685 14.8168 730 78.5507 423.344 534.774
1456 0 49.4815 14.9551 740 78.9162 423.241 535.484
1457 0 48.2476 14.6121 705 81.1035 423.306 532.73
1458 0 50.3597 14.9524 753 79.7822 422.854 533.068
1459 0 53.2396 15.233 811 79.0703 423.186 532.298
1460 0 53.3171 13.9167 742 81.4677 423.714 532.081
1461 0 53.3866 13.524 722 83.2175 423.393 530.169
1462 0 58.2657 15.0174 875 79.1486 423.665 531.765
1463 0 60.1727 14.2922 860 81.1535 423.598 530.317
1464 0 62.3923 15.1141 943 79.2821 423.019 529.26
1465 0 61.3128 15.0866 925 81.3568 423.061 527.365
1466 0 65.4148 15.4552 1011 78.7824 422.916 527.777
1467 0 66.4378 15.3527 1020 79.9971 423.312 525.787
1468 0 67.4716 14.1393 954 81.4423 422.723 525.532
1469 0 68.271 13.6808 934 82.9604 422.496 522.496
1470 0 71.2634 12.8678 917 81.6412 422.914 525.792
1471 0 75.2856 15.1556 1141 79.1569 423.389 522.656
1472 0 75.3435 15.2502 1149 80.1201 423.261 520.085
1473 0 77.345 14.1315 1093 81.0714 422.681 520.269
1474 0 79.5092 13.8978 1105 80.876 423.055 519.908
1475 0 82.6606 14.5172 1200 79.9967 423.641 519.263
1476 0 85.436 15.0873 1289 78.8068 423.109 519.703
1477 0 88.3072 15.2083 1343 78.8101 423.289 517.48
1478 0 90.4346 14.9169 1349 79.8792 423.056 512.379
1479 0 91.3008 12.9681 1184 81.728 423.368 515.948
1480 0 95.4239 14.6295 1396 79.8725 423.006 513.458
1481 0 97.3893 14.0775 1371 81.4588 422.905 510.205
1482 0 101.286 13.6642 1384 80.888 423.008 511.453
1483 0 106.311 14.5893 1551 79.158 422.58 508.647
1484 0 107.371 13.8864 1491 81.0007 422.748 506.752
1485 0 113.6 14.6655 1666 78.1393 422.917 507.854
1486 0 118.521 15.086 1788 77.1359 422.121 506.697
1487 0 119.273 14.4794 1727 78.6184 423.262 504.472
1488 0 124.451 13.8288 1721 79.9105 422.77 499.815
1489 0 127.348 14.5192 1849 78.8394 422.873 499.122
1490 0 132.325 15.0312 1989 77.8627 422.498 495.336
1491 0 137.424 14.0878 1936 78.3481 422.836 497.118
1492 0 140.425 13.4662 1891 79.2697 421.989 494.454
1493 0 144.602 15.2556 2206 77.0934 422.608 488.501
1494 0 149.574 15.3771 2300 76.7035 422.191 490.59
1495 0 151.372 14.9103 2257 78.0891 423.005 486.198
1496 0 156.597 15.0897 2363 77.7215 422.632 483.775
1497 0 160.396 14.271 2289 78.8497 422.595 482.955
1498 0 171.5 12.484 2141 79.6133 422.863 484.907
1499 0 171.42 14.6015 2503 77.6776 422.642 479.556
1500 0 175.413 14.3775 2522 77.4346 422.59 479.614
1501 0 179.536 13.585 2439 78.362 422.485 477.49
1502 0 186.754 13.2099 2467 78.9587 423.274 473.922
1503 0 191.399 13.8715 2655 77.9382 422.664 470.765
1504 0 197.441 13.9688 2758 77.1153 422.997 469.402
1505 1 153.535 13.9512 2142 76.7185 422.527 487.944
1506 0 161.6 14.047 2270 76.0533 422.97 486.063
1507 1 111.463 14.0405 1565 75.4601 423.153 505.886
1508 0 113.386 12.8675 1459 76.0877 422.559 509.901
1509 0 118.45 13.035 1544 77.3549 422.64 502.515
1510 1 59.3278 13.4507 798 76.8346 422.759 526.461
1511 0 59.3935 13.2169 785 75.2726 422.91 530.247
1512 0 63.4043 12.854 815 77.4368 422.474 526.076
1513 0 65.2598 13.7144 895 75.4045 422.909 526.931
1514 0 68.5551 14.3388 983 75.1607 422.849 524.975
1515 0 67.358 13.1833 888 77.5214 422.046 524.73
1516 0 72.2449 13.9664 1009 76.0595 423.235 523.271
1517 0 73.2493 13.6247 998 76.6523 422.892 522.359
1518 0 76.3096 13.9301 1063 76.4864 422.37 520.163
1519 0 78.3112 14.1359 1107 75.8329 422.566 522.053
1520 0 77.4413 13.21 1023 79.2307 422.492 514.278
1521 0 82.4417 12.7605 1052 79.6198 422.349 514.553
1522 0 86.1631 13.3236 1148 77.0871 422.977 518.297
1523 0 89.3436 13.644 1219 76.064 422.671 517.295
1524 0 90.3841 14.3941 1301 75.7748 422.79 514.938
1525 0 94.4781 14.5219 1372 75.3593 422.658 513.647
1526 0 97.325 14.5081 1412 75.2535 422.491 508.567
1527 1 46.2955 12.8738 596 77.4849 422.336 531.648
1528 0 49.4255 12.4834 617 75.8412 422.19 533.634
1529 0 51.2531 13.0919 671 75.5216 422.061 530.896
1530 0 53.3578 13.4563 718 75.1546 422.492 530.255
1531 0 55.4135 14.9603 829 72.6031 422.76 530.31
1532 0 56.2818 14.7472 830 73.5843 422.618 528.214
1533 0 58.2782 16.3869 955 71.0147 422.916 528.78
1534 0 60.2907 14.9277 900 72.4333 422.439 528.508
1535 0 61.2696 14.4607 886 73.0542 422.117 527.713
1536 0 63.4327 14.0937 894 74.2226 422.602 526.206
1537 0 64.1963 12.8356 824 75.6626 422.504 527.801
1538 0 66.4325 14.6615 974 73.4815 422.123 525.448
1539 0 69.2531 14.4975 1004 73.9253 422.306 522.993
1540 0 72.3588 16.0589 1162 71.3787 421.761 522.627
1541 0 75.4431 14.0901 1063 73.4459 421.69 521.512
1542 0 76.3674 15.8052 1207 71.9254 421.605 518.703
1543 0 78.3182 14.9646 1172 73.4915 422.235 517.293
1544 0 80.1536 14.0605 1127 74.4037 422.464 518.382
1545 0 83.3011 12.965 1080 74.9926 421.918 516.16
1546 0 87.394 14.9324 1305 72.5364 422.417 512.891
1547 0 89.4358 14.189 1269 73.1497 422.243 513.571
1548 0 93.2632 16.3945 1529 69.3375 421.976 512.212
1549 0 94.4517 13.5519 1280 73.9906 422.523 508.413
1550 0 98.3324 15.8239 1556 70.1793 422.605 510.192
1551 0 101.555 15.0755 1531 71.1254 422.389 507.93
1552 0 103.367 14.076 1455 72.8811 422.619 504.897
1553 0 106.395 13.807 1469 73.2117 422.178 504.715
1554 0 112.27 14.8659 1669 70.9467 422.173 500.527
1555 0 115.304 15.6976 1810 70.1519 422.243 501.43
1556 1 59.3871 13.572 806 71.8201 422.181 527.532
1557 0 59.1632 13.0825 774 72.978 422.118 526.605
1558 0 61.1899 12.9433 792 72.5972 422.162 527.294
1559 0 63.2116 13.3836 846 73.0213 421.855 525.43
1560 0 65.247 14.7287 961 72.076 422.164 523.363
1561 0 70.3663 15.5899 1097 70.1003 422.705 523.458
1562 0 71.3989 15.1963 1085 71.0664 421.866 521.507
1563 0 74.392 14.9075 1109 71.0839 422.039 523.312
1564 0 75.5498 15.1953 1148 72.0836 421.819 520.301
1565 0 77.389 15.3898 1191 71.8799 422.453 519.152
1566 0 78.3278 14.3116 1121 74.4335 422.417 516.838
1567 0 82.3079 15.3813 1266 72.3057 422.171 517.681
1568 0 86.3798 14.5868 1260 73.5556 422.083 516.292
1569 0 88.4733 14.9311 1321 73.0409 422.765 515.351
1570 0 90.5274 15.5864 1411 71.9532 422.181 514.001
1571 0 93.3709 15.0154 1402 73.1947 422.206 513.889
1572 0 96.2688 15.8618 1527 72.3281 422.454 510.326
1573 0 98.3577 16.5315 1626 71.3616 422.44 509.16
1574 0 99.6424 15.094 1504 73.002 422.273 507.761
1575 0 104.661 14.5136 1519 74.4714 422.677 503.839
1576 0 107.425 14.4659 1554 74.4112 422.172 504.829
1577 0 111.39 15.6029 1738 73.0259 422.382 499.803
1578 0 117.467 15.979 1877 71.6787 422.274 502.332
1579 0 119.656 15.252 1825 73.5501 422.421 499.25
1580 0 125.463 16.9771 2130 70.4939 422.476 497.126
1581 1 60.5025 13.2887 804 74.0211 422.333 528.631
1582 0 61.4195 14.4417 887 72.6347 422.364 529.688
1583 0 62.3324 14.6633 914 73.7057 422.22 526.061
1584 0 64.6119 14.0996 911 73.8496 422.73 526.592
1585 0 65.5035 14.6099 957 74.0021 423.144 526.472
1586 0 69.4751 14.5951 1014 73.4112 422.578 524.84
1587 0 68.3448 15.4218 1054 73.2049 422.198 523.752
1588 0 70.5483 15.6347 1103 73.544 421.827 522.528
1589 0 70.3423 15.055 1059 59.1747 421.34 524.182
1590 0 73.2892 14.7634 1082 74.5287 422.073 523.73
1591 0 75.1956 14.4689 1088 75.6921 422.136 520.744
1592 0 78.2513 15.8592 1241 73.3626 422.234 519.08
1593 0 81.3887 14.9284 1215 74.2881 422.105 518.547
1594 0 83.3288 15.0968 1258 74.6669 421.536 515.866
1595 0 86.5054 15.0395 1301 73.6956 420.72 516.566
1596 0 89.4536 16.0977 1440 72.6604 421.303 511.674
1597 0 94.46 15.0752 1424 73.1559 421.498 512.007
1598 0 96.2177 13.1161 1262 75.8899 421.118 510.95
1599 0 98.5946 14.3618 1416 74.4859 421.058 507.559
1600 0 104.707 13.6762 1432 74.4804 421.811 507.224
1601 1 50.4203 12.1975 615 75.4585 421.969 533.457
1602 0 51.4049 14.3955 740 72.9311 421.562 532.426
1603 0 53.3378 14.6425 781 73.3278 421.812 530.266
1604 0 55.3802 15.1318 838 72.0477 422.221 529.672
1605 0 57.4164 14.4558 830 72.5422 422.23 529.814
1606 0 58.3021 14.8708 867 72.5767 421.882 529.559
1607 0 60.4627 14.9017 901 73.1232 421.807 527.695
1608 0 63.3293 14.7641 935 73.1604 421.879 525.63
1609 0 63.5894 13.1626 837 75.4839 421.928 525.364
1610 0 67.28 14.0309 944 73.5138 421.917 525.212
1611 0 68.3922 12.9547 886 75.6501 422.356 522.235
1612 0 70.4089 14.4584 1018 74.0963 421.894 519.75
1613 0 75.3901 14.4847 1092 73.2821 421.543 521.267
1614 0 75.3251 14.3644 1082 73.3697 422.59 520.356
1615 0 76.4104 14.3174 1094 72.6463 421.992 521.985
1616 0 79.5409 14.3951 1145 73.8742 421.702 516.566
1617 0 80.5669 13.0451 1051 74.9458 422.277 516.659
1618 0 84.575 15.9858 1352 70.8003 422.506 513.55
1619 0 87.2364 15.4408 1347 71.2442 422.209 514.756
1620 0 90.4175 14.5547 1316 72.4795 422.319 511.619
1621 0 90.3176 12.9986 1174 74.5656 422.417 509.345
1622 0 94.4229 13.8526 1308 73.4358 422.217 509.073
1623 0 98.4042 14.1762 1395 72.3362 422.435 512.104
1624 0 103.47 14.9995 1552 71.0586 422.587 509.248
1625 0 104.43 14.1914 1482 73.143 422.773 507.705
1626 0 108.288 15.191 1645 71.7708 422.457 502.838
1627 0 111.539 13.8965 1550 73.4297 422.292 502.715
1628 0 114.642 14.9945 1719 72.3415 422.392 501.151
1629 0 117.324 14.3022 1678 74.1073 421.969 494.843
1630 0 122.352 13.7145 1678 74.2294 422.154 497.864
1631 0 125.634 15.4656 1943 72.2172 421.591 494.507
1632 1 64.7357 12.3116 797 75.6662 421.877 521.763
1633 0 66.3202 13.1031 869 74.8792 422.613 521.862
1634 0 69.2483 13.531 937 73.8143 422.155 523.163
1635 0 72.4495 13.996 1014 72.789 422.542 522.755
1636 0 73.2495 12.7782 936 75.7618 422.217 518.108
1637 0 75.2325 14.1162 1062 74.1911 422.677 516.492
1638 0 79.3834 13.9954 1111 73.2268 422.908 520.17
1639 0 80.3713 13.8482 1113 74.5166 422.544 516.563
1640 0 83.3009 15.402 1283 72.583 422.725 513.959
1641 0 86.3251 13.6577 1179 73.5556 422.539 515.716
1642 0 91.5406 15.545 1423 70.5938 422.54 516.133
1643 0 93.3967 15.7393 1470 71.0054 422.063 512.269
1644 0 97.4707 15.6252 1523 70.4754 422.652 511.859
1645 0 95.427 13.3191 1271 74.9843 422.249 507.249
1646 0 100.392 12.9592 1301 74.804 421.832 507.869
1647 1 51.369 12.4978 642 75.8988 422.715 529.201
1648 0 53.286 12.3297 657 74.9833 422.451 529.496
1649 0 54.3394 12.3851 673 76.4799 422.407 527.019
1650 0 56.3381 13.6675 770 73.8195 422.64 528.192
1651 0 58.388 13.907 812 73.0665 422.475 528.43
1652 0 60.3826 13.6794 826 74.2252 421.72 525.201
1653 0 62.3272 16.0604 1001 71.2018 421.599 525.817
1654 0 66.2334 15.5813 1032 70.8934 422.404 523.531
1655 0 68.5217 16.2868 1116 69.5905 422.605 523.349
1656 0 67.3582 14.46 974 72.8994 422.261 521.987
1657 0 69.3966 15.3466 1065 72.0901 422.848 521.269
1658 0 72.4177 14.8582 1076 72.1041 422.289 519.092
1659 0 74.3499 14.2166 1057 72.6963 422.099 519.38
1660 0 79.4447 16.6279 1321 68.8107 422.233 519.023
1661 0 81.4536 16.0828 1310 69.2908 422.334 516.38
1662 0 82.3345 15.267 1257 70.9618 422.228 515.032
1663 0 84.7085 14.7329 1248 71.6755 422.579 513.642
1664 0 88.5391 14.2423 1261 72.4171 422.282 510.44
1665 0 90.5393 14.745 1335 71.5865 421.863 512.748
1666 0 93.3003 14.3408 1338 72.719 422.034 509.019
1667 0 99.5251 15.8151 1574 69.5515 422.019 509.745
1668 0 101.363 15.4297 1564 70.6886 422.049 507.644
1669 0 102.757 15.1425 1556 71.2121 421.943 503.362
1670 0 106.386 15.2651 1624 71.3775 422.268 502.933
1671 0 112.28 17.5454 1970 67.3467 421.911 503.229
1672 0 114.78 15.3249 1759 70.1785 422.38 500.946
1673 0 118.592 15.6165 1852 69.872 422.563 501.747
1674 1 59.4281 13.815 821 69.877 422.866 529.409
1675 0 60.4716 12.8159 775 73.5123 422.686 526.461
1676 0 61.3992 13.6321 837 73.5257 422.335 524.889
1677 0 66.3428 14.6964 975 71.1272 422.565 525.79
1678 0 65.3928 13.87 907 72.5513 421.852 524.768
1679 0 68.6632 13.9958 961 72.2799 421.624 524.586
1680 0 69.5109 15.048 1046 71.6606 421.937 523.23
1681 0 72.3323 14.6546 1060 72.7047 422.571 520.155
1682 0 73.6414 12.3979 913 75.8423 422.17 521.233
1683 0 74.2673 14.2458 1058 74.1418 423.001 519.438
1684 0 79.7525 15.9117 1269 71.5485 422.266 519.676
1685 0 80.4616 13.6836 1101 74.3379 422.483 519.671
1686 0 85.3336 14.6953 1254 72.8979 422.267 516.614
1687 0 87.4011 15.4918 1354 72.0199 422.366 515.324
1688 0 90.5167 14.9917 1357 72.5063 422.071 513.352
1689 0 91.4387 14.7093 1345 73.1874 421.743 512.691
1690 0 94.4312 14.9421 1411 72.9979 422.561 510.103
1691 0 97.4321 13.4966 1315 74.8236 422.11 508.914
1692 0 100.526 14.6031 1468 72.656 422.208 508.251
1693 0 104.624 14.4995 1517 72.7278 422.793 507.036
1694 0 106.425 14.1132 1502 73.5206 422.145 505.153
1695 0 111.463 15.5567 1734 71.8426 421.585 501.991
1696 1 56.3769 13.1259 740 72.1365 422.055 529.12
1697 0 56.4759 12.9082 729 74.118 422 525.092
1698 0 61.4578 13.8632 852 72.4131 422.629 526.148
1699 0 61.4756 14.4935 891 72.0595 422.602 523.855
1700 0 62.4646 13.2075 825 73.2958 422.354 525.788
1701 0 68.5159 14.6681 1005 70.6199 422.54 525.197
1702 0 67.4364 14.2949 964 72.6224 421.994 522.904
1703 0 69.299 13.8386 959 73.5245 422.064 519.6
1704 0 73.2532 14.6751 1075 71.3256 421.685 523.443
1705 0 71.3584 14.8826 1062 72.968 421.992 519.413
1706 0 73.3233 14.5656 1068 73.5122 422.165 519.31
1707 0 77.447 14.3582 1112 73.2698 421.941 518.663
1708 0 80.4051 14.6632 1179 72.6234 422.103 518.512
1709 0 81.5323 14.6077 1191 73.1192 421.918 515.245
1710 0 83.2556 14.6416 1219 72.3987 421.646 516.46
1711 0 87.392 14.5093 1268 72.3352 422.396 513.987
1712 0 90.4857 15.1074 1367 72.1068 421.765 512.152
1713 0 90.3172 15.0802 1362 72.616 421.814 509.643
1714 0 92.126 14.6755 1352 73.8646 422.156 506.719
1715 0 97.1755 14.6024 1419 73.1825 422.472 507.373
1716 0 98.2935 15.3011 1504 72.7128 422.888 509.093
1717 0 102.247 14.6313 1496 74.1277 421.943 506.487
1718 0 106.114 14.5693 1546 73.8409 421.995 505.965
1719 0 108.159 15.1166 1635 73.8789 422.304 503.66
1720 1 52.5388 12.9428 680 74.4912 422.115 528.697
1721 0 52.2147 12.8891 673 75.9376 422.333 528.449
1722 0 52.0569 13.3124 693 75.9149 422.459 528.242
1723 0 54.2681 13.5254 734 76.1621 422.113 526.213
1724 0 58.142 15.6857 912 72.5822 421.738 527.302
1725 0 57.1376 13.3712 764 76.6623 422.076 528.047
1726 0 61.0985 15.3195 936 73.9722 422.107 525.66
1727 0 62.1118 14.4578 898 75.9076 421.973 524.223
1728 0 63.4848 14.3814 913 76.0044 421.716 525.683
1729 0 65.2342 14.2257 928 76.972 422.261 524.928
1730 0 67.2563 14.4373 971 76.276 421.715 524.414
1731 0 69.2779 14.9543 1036 76.1158 422.204 521.644
1732 0 71.3825 14.1491 1010 76.8634 422.318 522.152
1733 0 74.2855 14.3904 1069 76.8269 421.755 520.234
1734 0 76.2088 13.2793 1012 78.2283 422.114 520.616
1735 0 78.3335 13.4298 1052 78.2937 422.216 518.248
1736 0 80.2001 15.212 1220 75.6844 421.763 516.751
1737 0 82.1927 15.05 1237 75.0137 422.099 517.767
1738 0 85.4152 14.9154 1274 75.6193 421.838 515.516
1739 0 84.5748 12.8525 1087 79.6127 422.246 515.236
1740 0 90.216 14.9973 1353 75.5994 422.429 514.229
1741 0 92.2058 15.2268 1404 76.2094 422.353 510.837
1742 0 95.2439 14.9511 1424 76.0843 422.31 510.633
1743 0 100.261 15.0307 1507 75.5289 422.315 510.987
1744 0 101.172 13.5809 1374 77.7001 422.694 508.17
1745 0 105.213 14.4089 1516 77.0455 421.914 506.79
1746 0 109.288 14.7226 1609 76.1255 422.127 504.005
1747 0 112.233 14.363 1612 76.8604 421.863 503.534
1748 0 115.209 15.4155 1776 75.1999 422.034 503.154
1749 0 118.116 15.5186 1833 74.7654 422.244 502.231
1750 0 120.091 14.0144 1683 77.5009 421.995 499.945
1751 0 124.393 15.1857 1889 76.4738 422.269 492.794
1752 0 131.274 14.824 1946 76.704 422.289 493.779
1753 0 134.324 15.2021 2042 76.0029 422.24 492.931
1754 0 137.27 14.446 1983 77.65 422.062 487.327
1755 0 145.137 15.4406 2241 74.9322 421.924 490.566
1756 0 146.141 14.5955 2133 77.2091 422.318 483.684
1757 0 152.194 15.3948 2343 75.2433 422.272 486.006
1758 0 155.216 13.9741 2169 77.9198 421.964 482.111
1759 0 161.437 13.7267 2216 77.5672 422.314 480.942
1760 1 103.354 13.9907 1446 76.4627 421.385 508.087
1761 0 106.295 15.0054 1595 75.2859 421.444 505.801
1762 0 111.199 13.2646 1475 77.6454 421.984 502.721
1763 0 114.141 14.4821 1653 75.0792 422.323 502.105
1764 0 117.259 14.3102 1678 75.6561 422.122 503.005
1765 0 122.427 15.6583 1917 73.5326 422.415 497.98
1766 0 126.145 13.4211 1693 77.1099 422.306 497.242
1767 0 127.16 13.3297 1695 77.7257 422.247 494.768
1768 0 132.221 14.1202 1867 76.3883 421.76 489.635
1769 0 137.231 14.3481 1969 75.4236 422.338 494.402
1770 0 139.51 13.5761 1894 77.5248 422.723 486.347
1771 0 146.212 14.1165 2064 76.0649 422.346 487.491
1772 1 89.3218 13.6697 1221 76.8133 421.977 516.364
1773 0 92.448 13.2074 1221 78.3849 422.285 515.025
1774 0 94.3052 12.7777 1205 79.9328 422.139 508.176
1775 0 100.221 13.6499 1368 77.6615 422.118 509.254
1776 0 101.292 14.1177 1430 77.8986 421.428 505.338
1777 0 103.147 13.3499 1377 79.0421 421.546 505.583
1778 0 107.324 15.1783 1629 76.5525 421.92 504.63
1779 0 110.318 14.4763 1597 76.9436 421.751 506.742
1780 0 114.145 14.3939 1643 77.7754 421.568 499.26
1781 0 116.246 14.1768 1648 78.3647 422.186 500.014
1782 0 121.191 13.9119 1686 78.5587 422.56 498.416
1783 0 127.394 14.6632 1868 76.5562 422.668 497.018
1784 0 128.338 14.4696 1857 77.3242 422.515 493.962
1785 0 132.484 13.0809 1733 80.0185 422.323 493.093
1786 0 136.221 14.0948 1920 78.6302 422.256 490.172
1787 0 143.327 14.596 2092 77.175 422.502 488.444
1788 1 94.1478 12.8097 1206 80.2496 422.082 506.968
1789 0 95.1349 13.4546 1280 79.2016 421.921 507.991
1790 0 100.145 13.6403 1366 78.53 422.267 504.78
1791 0 103.205 14.0496 1450 77.78 422.7 505.932
1792 0 108.265 14.4183 1561 76.7098 422.618 505.295
1793 0 112.122 14.7429 1653 75.6497 422.84 503.877
1794 0 115.265 14.8007 1706 76.16 423.097 500.118
1795 0 117.213 14.7083 1724 75.8776 422.199 501.519
1796 0 122.361 14.351 1756 76.1629 421.846 497.333
1797 0 127.247 15.1045 1922 74.9709 422.793 492.834
1798 0 131.204 15.0757 1978 75.1036 422.625 491.576
1799 0 138.492 15.12 2094 74.5076 422.281 490.423
1800 0 139.281 13.9071 1937 77.5705 421.998 482.826
1801 0 145.4 15.0963 2195 76.0538 422.57 483.916
1802 1 81.3158 12.4822 1015 78.0108 422.11 515.806
1803 0 84.4192 13.3737 1129 76.1745 422.646 518.058
1804 0 87.633 13.2484 1161 77.472 422.257 512.848
1805 0 89.1554 15.2318 1358 74.8623 422.098 511.933
1806 0 91.1488 12.7923 1166 78.6569 422.111 511.723
1807 0 95.2171 15.659 1491 73.9074 422.269 511.091
1808 0 98.3143 13.9044 1367 76.2736 422.555 509.763
1809 0 100.397 14.7713 1483 74.9912 422.771 507.057
1810 0 103.213 13.632 1407 76.678 422.524 507.225
1811 0 106.16 13.2536 1407 77.2559 422.381 503.797
1812 0 113.35 13.6479 1547 75.6309 422.027 502.904
1813 0 115.383 13.9102 1605 75.5794 422.024 499.449
1814 0 118.456 13.735 1627 75.1272 422.525 499.991
1815 0 120.379 13.6818 1647 75.7923 421.542 495.546
1816 0 127.357 12.9636 1651 75.5409 421.514 497.797
1817 0 132.2 16.4523 2175 70.8474 421.712 492.486
1818 0 134.318 14.3317 1925 73.6623 421.683 491.871
1819 0 140.303 14.7252 2066 72.5963 422.538 490.575
1820 1 73.2395 11.7833 863 76.5481 421.738 518.251
1821 0 76.1367 13.2656 1010 73.4733 422.053 519.33
1822 0 79.1899 15.1156 1197 70.9231 422.221 517.809
1823 0 81.4258 13.6689 1113 73.8724 421.758 514.311
1824 0 84.4197 14.2147 1200 72.74 421.926 515.633
1825 0 87.2654 14.1522 1235 72.6802 421.829 514.989
1826 0 90.5648 13.6808 1239 72.7078 422.023 514.379
1827 0 95.4904 15.0486 1437 70.6931 422.133 511.987
1828 0 93.4044 12.569 1174 75.7129 421.761 506.699
1829 0 100.279 14.6092 1465 71.5843 421.542 507.621
1830 0 103.481 14.737 1525 71.5003 421.174 507.329
1831 0 105.259 13.424 1413 72.983 421.219 503.357
1832 0 107.773 14.1687 1527 72.5914 421.539 501.955
1833 0 115.798 15.553 1801 69.3953 421.617 499.458
1834 0 118.467 14.9746 1774 70.5502 421.436 498.278
1835 0 122.855 15.4491 1898 69.4747 420.859 496.475
1836 0 126.536 15.134 1915 69.6292 420.947 495.043
1837 0 129.605 14.143 1833 71.2657 421.531 492.026
1838 1 72.3931 14.6699 1062 69.1959 421.383 522.702
1839 0 72.3462 11.445 828 73.7729 421.25 519.071
1840 0 75.6675 12.317 932 71.8455 421.276 520.618
1841 0 76.3722 12.6224 964 72.1452 421.278 518.355
1842 0 79.2925 13.2169 1048 70.5878 420.969 518.364
1843 0 82.2823 12.7974 1053 72.0826 421.729 513.264
1844 0 86.4987 15.1679 1312 68.1791 421.874 513.274
1845 0 89.5475 14.5398 1302 68.9078 421.592 513.399
1846 0 93.5744 12.9095 1208 70.5637 421.794 510.584
1847 0 94.6551 13.1741 1247 70.587 421.698 509.465
1848 0 98.637 14.7409 1454 68.4814 421.054 508.827
1849 0 101.494 13.6757 1388 69.6347 421.777 507.358
1850 0 106.636 15.6513 1669 66.9706 420.738 506.742
1851 0 108.288 15.431 1671 68.2454 421.263 500.833
1852 0 110.75 15.395 1705 68.2592 421.696 499.51
1853 0 115.613 14.9205 1725 68.4719 420.899 502.627
1854 0 120.83 15.468 1869 66.9813 421.379 500.648
1855 0 122.303 14.1942 1736 69.3053 421.965 496.368
1856 0 125.55 14.0582 1765 69.1275 421.799 492.828
1857 0 128.732 13.1047 1687 70.2004 421.425 496.789
1858 0 135.61 15.2201 2064 67.4772 421.009 491.147
1859 0 136.924 14.5263 1989 68.5877 422.118 488.514
1860 0 139.445 15.1099 2107 68.4357 421.65 481.698
1861 0 145.475 15.116 2199 68.4134 421.85 481.794
1862 0 151.48 14.4507 2189 69.0174 421.291 481.957
1863 0 157.855 15.812 2496 66.9976 421.483 482.007
1864 0 161.827 15.4239 2496 67.6639 421.781 479.878
1865 0 164.728 14.5513 2397 69.5932 421.234 471.55
1866 0 168.625 13.7999 2327 70.7331 421.879 469.654
1867 0 175.533 14.5784 2559 69.6686 421.524 467.807
1868 0 181.76 15.1354 2751 68.631 420.747 464.413
1869 0 188.635 15.2093 2869 68.2914 421.157 461.392
1870 0 194.998 15.6002 3042 67.8537 421.12 462.192
1871 0 195.687 14.4618 2830 69.758 421.382 456.437
1872 0 202.728 13.4318 2723 70.5369 421.604 455.133
1873 0 208.752 16.1627 3374 67.2739 421.698 447.114
1874 0 218.666 15.8003 3455 67.1873 421.594 449.576
1875 0 220.722 14.4798 3196 69.0757 420.987 438.506
1876 0 227.552 14.5769 3317 68.9931 421.231 435.778
1877 1 241.9 14.7871 3577 67.8026 421.165 439.455
1878 0 249.71 14.677 3665 68.4065 421.152 437.057
1879 1 194.497 13.9591 2715 70.2376 420.986 455.025
1880 0 200.437 12.8919 2584 71.4954 421.533 458.187
1881 0 206.752 13.3832 2767 70.764 421.27 453.575
1882 0 208.448 13.6293 2841 70.4678 421.662 451.47
1883 1 223.884 15.5349 3478 67.8505 421.669 447.509
1884 0 227.724 14.1267 3217 69.852 421.593 441.056
1885 0 236.646 13.5772 3213 70.5073 421.214 445.938
1886 0 246.812 14.1768 3499 69.6876 421.434 442.498
1887 0 249.403 15.6213 3896 69.3355 422.191 429.347
1888 0 250.569 9.63408 2414 74.3082 421.419 453.582
1889 0 254.973 11.511 2935 72.8065 421.426 446.688
1890 1 223.73 13.9901 3130 69.5319 420.485 452.121
1891 0 229.993 12.9265 2973 71.5708 420.544 449.642
1892 1 95.8144 13.5679 1300 70.63 420.315 509.431
1893 0 97.5318 13.8519 1351 70.8697 421.11 507.654
1894 0 102.754 14.5687 1497 70.3975 420.679 508.059
1895 0 104.752 14.7778 1548 70.8353 420.687 505.355
1896 0 106.951 13.8007 1476 71.9234 420.511 505.368
1897 0 110.766 13.7136 1519 72.3502 421.293 501.452
1898 0 113.493 14.8379 1684 71.0891 421.391 500.366
1899 0 116.935 14.4952 1695 70.9935 422.256 500.101
1900 0 122.659 13.9574 1712 70.4609 421.921 502.166
1901 0 127.883 14.0988 1803 71.4099 421.685 494.109
1902 0 130.688 14.8445 1940 70.1402 421.66 495.046
1903 0 134.721 14.7638 1989 70.2931 421.726 492.746
1904 0 138.165 13.1437 1816 72.8414 421.905 489.186
1905 0 145.04 14.3133 2076 70.9619 421.66 488.067
1906 0 151.337 16.0106 2423 68.6665 421.626 485.394
1907 0 153.83 14.776 2273 70.8658 421.922 481.08
1908 0 156.75 12.5997 1975 74.3276 422.181 474.187
1909 0 163.026 13.8812 2263 72.2726 422.055 478.142
1910 0 169.951 17.0284 2894 67.8417 422.455 475.408
1911 0 175.086 16.3291 2859 69.1392 422.073 470.363
1912 0 181.771 14.8429 2698 70.7272 421.845 471.996
1913 1 105.671 11.744 1241 74.9089 421.293 504.716
1914 0 109.74 12.7756 1402 72.6826 422.187 506.496
1915 0 113.434 14.4578 1640 71.6963 422.448 500.101
1916 0 116.586 15.3878 1794 70.2508 422.11 498.472
1917 0 121.005 13.9499 1688 72.4094 422.1 496.333
1918 0 124.838 16.3812 2045 68.6934 421.606 496.529
1919 0 130.134 15.4764 2014 69.2463 421.926 497.443
1920 0 131.886 13.3903 1766 72.7395 422.315 493.361
1921 0 137.015 13.6701 1873 72.323 422.138 489.755
1922 0 143.926 14.2365 2049 70.9087 422.075 487.174
1923 0 148.237 14.9558 2217 69.5038 422.301 489.531
1924 0 148.57 14.3636 2134 71.866 422.457 480.289
1925 1 74.63 12.9707 968 72.6229 421.863 517.023
1926 0 77.0121 14.5302 1119 70.3923 421.287 518.03
1927 0 76.6113 13.7186 1051 71.8801 421.814 518.877
1928 0 80.8163 15.7023 1269 69.7431 422.078 516.678
1929 0 82.5838 16.4802 1361 68.5746 421.4 516.241
1930 0 83.4988 14.6828 1226 71.5024 421.794 515.697
1931 0 84.5513 16.3333 1381 70.1086 421.928 514.234
1932 0 90.0801 15.7416 1418 70.1417 421.586 514.428
1933 0 89.9 14.505 1304 72.6557 421.749 513.462
1934 0 94.1664 16.0461 1511 69.9868 420.946 514.819
1935 0 97.7347 16.2685 1590 69.8553 421.115 511.07
1936 0 99.671 14.9994 1495 71.7478 421.146 507.106
1937 0 103.95 14.7763 1536 71.4095 420.666 507.13
1938 0 106.9 15.1076 1615 70.8427 420.463 505.509
1939 0 108.789 13.0711 1422 74.1378 420.262 500.788
1940 0 115.397 14.8011 1708 70.8677 420.213 502.138
1941 0 117.838 15.9881 1884 69.2075 420.6 497.653
1942 0 122.05 13.8796 1694 70.8949 420.277 502.153
1943 0 126.023 13.5769 1711 71.588 420.209 494.456
1944 0 130.172 15.2798 1989 69.1267 419.659 495.758
1945 0 136.003 15.7202 2138 67.986 419.778 495.724
1946 1 74.1184 13.8562 1027 68.0243 419.454 523.998
1947 0 76.8836 12.5384 964 69.4616 419.481 522.498
1948 0 76.7634 12.4539 956 70.5596 419.238 519.541
1949 0 78.335 12.37 969 71.6842 419.015 515.066
1950 0 83.5112 14.7166 1229 68.0293 418.787 515.374
1951 0 84.6677 12.7794 1082 70.5647 419.081 514.774
1952 0 86.5854 14.2287 1232 67.7265 418.704 517.655
1953 0 91.0354 13.9506 1270 69.1906 419.132 511.984
1954 0 92.1117 13.5053 1244 69.135 419.006 514.73
1955 0 94.7434 16.0644 1522 66.8298 418.739 510.934
1956 0 99.8331 14.5142 1449 67.9227 419.3 512.226
1957 0 100.87 15.4158 1555 67.4225 418.77 508.623
1958 0 101.844 13.1967 1344 69.7254 418.766 507.306
1959 0 107.312 13.9034 1492 68.6783 419.424 506.9
1960 0 109.784 15.2664 1676 67.1241 419.714 504.955
1961 0 114.091 14.0852 1607 68.2738 419.91 503.414
1962 0 114.837 13.001 1493 70.6276 420.143 498.541
1963 0 119.568 13.7244 1641 68.8154 420.098 500.395
1964 0 123.767 14.4789 1792 67.7455 420.643 501.049
1965 0 128.361 16.0952 2066 66.0571 420.411 496.829
1966 0 131.226 14.9513 1962 67.712 420.577 494.442
1967 1 70.5846 13.289 938 66.6162 420.482 523.881
1968 0 71.0795 12.3664 879 69.091 420.479 519.15
1969 0 70.7701 15.3172 1084 65.5978 420.673 520.757
1970 0 75.6945 12.8543 973 68.1213 420.612 519.556
1971 0 73.8746 11.885 878 71.0695 421.18 515.591
1972 0 77.7395 11.7315 912 71.1053 420.927 513.029
1973 0 83.1259 14.2074 1181 67.5775 420.874 513.635
1974 0 78.4554 13.9187 1092 69.0485 421.17 512.787
1975 0 86.5025 14.9591 1294 67.0054 420.756 512.559
1976 0 91.3579 15.182 1387 66.5602 420.774 511.17
1977 0 90.6794 13.7628 1248 68.9808 420.877 505.265
1978 0 92.0978 11.2598 1037 72.7753 421.085 502.928
1979 0 98.1229 13.8704 1361 68.7421 422.051 507.187
1980 0 100.597 14.6326 1472 67.6372 421.676 506.084
1981 0 102.647 12.9863 1333 69.5116 421.616 502.907
1982 0 101.502 11.9604 1214 71.2348 421.081 499.731
1983 0 105.404 15.0943 1591 67.814 421.332 497.737
1984 1 51.4697 12.4539 641 68.4836 422.083 524.846
1985 0 56.7574 13.3022 755 67.1338 421.087 525.211
1986 0 55.4411 12.121 672 69.8839 422.196 521.792
1987 0 58.848 9.90688 583 73.1835 422.334 518.703
1988 0 58.8669 15.4586 910 66.1824 422.044 519.566
1989 0 66.5128 12.9749 863 68.1587 422.049 521.343
1990 0 66.5697 12.8287 854 69.0035 422.224 521.473
1991 0 69.7188 13.827 964 67.7853 421.799 521.418
1992 0 66.3998 11.2199 745 74.0215 422.18 514.595
1993 0 72.1875 13.5342 977 69.7462 422.209 516.231
1994 0 75.9701 14.8216 1126 67.6936 422.119 516.405
1995 0 76.0261 14.061 1069 69.5529 422.105 514.282
1996 0 78.0087 13.9215 1086 69.5709 422.169 516.688
1997 0 80.738 14.3055 1155 68.9939 422.069 517.895
1998 0 81.207 13.755 1117 71.2883 421.856 512.688
1999 0 83.5864 13.818 1155 71.4528 422.098 512.081
2000 0 86.8572 15.2664 1326 69.2149 422.457 512.99
2001 0 84.5439 13.5078 1142 73.4343 421.99 507.976
2002 0 88.7729 14.3625 1275 71.6431 422.78 509.397
2003 0 94.3949 16.1873 1528 68.9221 422.409 508.384
2004 0 88.6884 14.9061 1322 72.9902 422.615 503.809
2005 0 97.3858 14.5812 1420 72.3261 422.408 502.886
2006 0 98.6259 14.2762 1408 72.5902 422.521 502.839
2007 0 102.466 16.786 1720 69.4564 422.637 504.27
2008 0 107.818 15.4057 1661 71.6051 422.161 499.389
2009 0 108.686 14.5097 1577 73.4268 422.264 497.417
2010 0 108.578 13.8886 1508 74.2221 422.115 498.496
2011 0 112.79 15.5333 1752 72.665 422.17 496.649
2012 0 117.952 14.1922 1674 74.8495 421.774 493.206
2013 0 125.984 14.6448 1845 73.1626 422.027 494.231
2014 0 121.44 13.2164 1605 76.8654 421.908 487.074
2015 1 71.7537 14.271 1024 70.5566 422.341 518.961
2016 0 68.9057 13.4096 924 74.5952 421.889 516.215
2017 0 70.6371 15.4168 1089 72.1377 421.718 516.679
2018 0 71.1684 14.6413 1042 74.1795 421.251 514.142
2019 0 78.3535 12.1245 950 76.7105 421.669 514.515
2020 0 77.3188 13.2568 1025 75.72 421.734 516.038
2021 0 77.8467 13.822 1076 76.1106 421.907 513.653
2022 0 78.1981 14.4121 1127 74.5209 421.752 516.793
2023 0 84.6406 14.3194 1212 75.5932 422.035 512.172
2024 0 85.0788 15.28 1300 73.8608 422.086 515.2
2025 0 87.2217 14.8472 1295 75.6741 422.018 512.197
2026 0 90.3698 14.4296 1304 76.2561 422.076 511.997
2027 0 91.3636 13.5393 1237 78.2587 421.393 512.118
2028 0 94.4784 15.739 1487 75.9005 421.385 508.029
2029 0 93.9325 15.8624 1490 76.1336 421.446 508.536
2030 0 96.526 15.4984 1496 76.9064 421.334 506.042
2031 0 100.137 15.0094 1503 77.9627 421.121 506.736
2032 0 105.215 16.2809 1713 75.7677 420.994 507.069
2033 0 106.048 14.4463 1532 79.2644 421.725 503.305
2034 0 109.076 15.0904 1646 77.3354 420.923 504.214
2035 0 111.602 14.7399 1645 78.3264 420.136 502.638
2036 0 114.627 15.0838 1729 77.9618 420.461 499.11
2037 0 118.988 14.0098 1667 79.6203 421.035 498.477
2038 0 116.626 13.9763 1630 81.1429 421.434 491.42
2039 0 126.858 14.9617 1898 77.2192 421.434 496.203
2040 0 129.471 13.8178 1789 80.4103 421.665 491.74
2041 0 135.824 15.925 2163 76.6024 421.237 489.524
2042 0 140.013 15.8985 2226 76.3441 420.873 490.391
2043 0 143.008 14.2369 2036 77.9946 420.961 491.766
2044 0 148.207 14.3583 2128 78.2336 420.352 486.647
2045 0 153.159 15.5786 2386 76.2498 421.052 485.363
2046 0 158.934 14.6287 2325 77.4396 421.063 482.476
2047 0 158.067 14.0447 2220 77.8734 420.973 483.916
2048 0 166.013 13.8603 2301 78.2473 420.868 482.819
2049 0 170.981 14.4343 2468 77.7459 420.72 478.343
2050 0 178.32 16.218 2892 74.6798 420.978 478.106
2051 0 182.396 15.7953 2881 76.1319 420.117 471.859
2052 0 185.825 14.1585 2631 77.8062 419.904 474.093
2053 0 192.54 15.3111 2948 76.7215 420.152 467.844
2054 0 196.898 13.9616 2749 78.5751 420.55 467.098
2055 0 204.208 14.5979 2981 77.7766 420.429 466.711
2056 0 207.735 16.4536 3418 75.9579 419.915 460.25
2057 0 214.582 14.6611 3146 78.3503 420.583 458.613
2058 0 219.563 13.3765 2937 79.809 420.104 458.09
2059 0 226.31 15.4346 3493 77.5265 420.259 452.322
2060 0 232.404 14.9825 3482 80.8173 420.518 448.568
2061 0 240.657 15.4909 3728 80.2395 420.38 443.398
2062 0 246.521 13.6784 3372 81.7399 420.342 451.074
2063 0 253.019 14.7143 3723 81.3806 420.128 441.234
2064 0 264.504 15.9166 4210 79.4088 420.749 435.478
2065 0 271.006 13.8189 3745 82.3431 420.622 433.123
2066 0 281.53 15.1778 4273 80.4652 420.204 424.703
2067 0 291.461 14.8528 4329 80.1883 420.491 427.262
2068 0 296.968 15.537 4614 80.523 419.741 415.47
2069 0 299.429 12.27 3674 82.4665 420.017 438.01
2070 1 198.275 14.6716 2909 81.3338 419.708 463.049
2071 0 205.674 15.8989 3270 79.5021 420.181 459.12
2072 0 210 14.4953 3044 81.7323 419.947 459.423
2073 0 218.896 13.9107 3045 81.7264 419.413 461.682
2074 0 226.077 14.7781 3341 81.3137 420.23 453.926
2075 0 235.203 15.5227 3651 79.5913 419.575 452.784
2076 0 239.279 15.835 3789 79.2679 419.804 449.414
2077 1 196.345 14.3879 2825 82.1798 419.588 465.895
2078 1 154.086 15.8418 2441 80.1508 419.744 484.815
2079 0 160.588 14.3223 2300 82.1904 419.672 485.134
2080 0 165.276 16.4634 2721 80.0823 420.19 479.798
2081 0 169.814 16.1648 2745 80.8157 419.821 477.413
2082 0 174.231 15.6 2718 82.1737 420.018 475.664
2083 0 178.634 16.0216 2862 81.6971 420.076 474.991
2084 0 183.928 16.1476 2970 81.5492 419.853 474.094
2085 0 190.533 16.7163 3185 81.5372 419.571 468.082
2086 0 193.558 16.4705 3188 82.2359 420.031 469.045
2087 0 198.647 17.0101 3379 82.1687 420.449 463.91
2088 0 202.332 16.4977 3338 83.5794 420.371 462.168
2089 0 207.378 15.5851 3232 85.9251 420.021 457.833
2090 0 214.94 17.3165 3722 83.3361 419.908 455.807
2091 0 219.167 16.3026 3573 85.2692 420.207 450.404
2092 0 224.471 16.4921 3702 85.3841 420.304 447.882
2093 0 230.283 15.9977 3684 85.9262 420.069 449.553
2094 0 237.119 16.0299 3801 86.387 420.375 444.292
2095 0 239.418 15.8134 3786 87.416 420.793 438.892
2096 0 248.295 16.9798 4216 85.6599 420.384 437.243
2097 0 255.073 17.9439 4577 84.1822 420.563 433.697
2098 0 260.207 17.2324 4484 86.0446 420.192 431.413
2099 0 267.453 17.0983 4573 86.2784 420.365 426.241
2100 0 274.657 17.6948 4860 85.4235 420.086 423.211
2101 0 282.082 18.367 5181 84.3026 420.523 425.006
2102 0 291.975 17.659 5156 85.6974 421.036 416.102
2103 1 108.318 12.731 1379 84.7897 420.869 503.491
2104 0 114.292 14.2354 1627 82.8672 420.583 500.165
2105 0 113.388 13.2201 1499 85.3716 420.675 496.919
2106 0 114.48 14.2733 1634 84.4125 420.605 495.836
2107 1 169.578 14.141 2398 85.9158 419.822 476.592
2108 0 174.715 13.004 2272 88.0858 420.281 474.052
2109 0 178.538 14.1147 2520 86.7135 420.377 470.854
2110 1 192.734 13.158 2536 86.0706 420.369 473.957
2111 0 191.955 14.1596 2718 86.4459 420.586 466.57
2112 0 199.245 13.6867 2727 87.2857 420.648 462.333
2113 0 203.58 14.0829 2867 86.82 420.854 462.1
2114 1 152.099 12.8206 1950 86.3995 420.838 479.695
2115 0 156.804 13.0546 2047 86.0703 420.81 479.943
2116 0 163.16 15.2611 2490 83.3129 420.526 478.936
2117 0 165.195 12.567 2076 87.8145 420.342 476.578
2118 0 170.077 13.5821 2310 86.4797 420.526 472.765
2119 0 177.204 14.204 2517 85.4644 420.514 473.362
2120 0 183.029 14.7026 2691 83.628 420.275 475
2121 0 185.764 14.1524 2629 85.8342 420.458 469.82
2122 0 191.331 13.8556 2651 85.8672 420.226 469.368
2123 0 198.359 15.0485 2985 84.1983 420.451 464.043
2124 0 197.047 13.6516 2690 86.1628 419.609 469.307
2125 1 209.061 14.326 2995 86.6224 420.708 458.604
2126 0 213.095 13.8858 2959 87.7134 420.8 455.674
2127 0 219.75 13.9886 3074 86.8959 420.252 456.986
2128 0 226.506 14.0129 3174 87.9619 420.629 452.189
2129 0 231.691 14.6013 3383 86.9217 420.054 452.015
2130 0 237.435 14.6861 3487 87.9177 419.846 447.917
2131 0 246.413 15.4497 3807 86.8576 420.441 446.455
2132 1 158.533 14.9874 2376 87.763 421.017 485.494
2133 0 162.606 15.3254 2492 88.2063 420.663 481.679
2134 0 166.289 15.2205 2531 89.1256 420.383 476.911
2135 0 168.982 16.3331 2760 87.9127 420.916 477.468
2136 0 173.973 14.8298 2580 91.0031 420.481 474.418
2137 0 178.808 14.8986 2664 90.0586 420.275 475.481
2138 0 183.092 15.2601 2794 91.354 420.415 470.261
2139 0 189.13 15.0426 2845 92.0872 420.936 468.075
2140 0 193.398 15.4397 2986 91.9722 420.735 462.003
2141 0 198.751 14.5559 2893 93.8085 420.501 461.885
2142 0 204.115 15.1189 3086 93.0045 420.752 460.494
2143 0 208.919 15.0776 3150 92.9756 420.66 458.718
2144 0 212.007 13.5844 2880 96.224 420.19 453.335
2145 0 221.799 16.3842 3634 91.0305 420.05 454.446
2146 0 228.438 15.7504 3598 92.4947 420.057 447.686
2147 0 234.972 15.3252 3601 93.4829 419.405 445.66
2148 0 239.953 15.3155 3675 93.4337 419.318 443.712
2149 0 249.272 13.8644 3456 96.3056 419.271 430.714
2150 1 261.356 15.7792 4124 92.3948 419.18 430.045
2151 0 270.183 15.286 4130 93.0533 419.662 423.314
2152 0 278.809 15.0677 4201 92.7415 419.456 425.991
2153 0 287.326 14.614 4199 94.2567 419.803 418.954
2154 1 221.064 12.9374 2860 93.8164 419.446 455.669
2155 0 231.094 13.8645 3204 92.2753 419.968 447.484
2156 1 77.6734 13.3508 1037 90.5583 419.963 515.435
2157 0 80.4582 13.883 1117 90.1692 419.658 512.596
2158 0 80.4066 15.1107 1215 87.7951 420.244 514.483
2159 0 83.9954 13.3222 1119 90.8436 419.681 512.701
2160 0 86.6014 14.33 1241 89.2716 419.795 512.085
2161 1 145.044 14.5611 2112 87.6913 420.244 485.495
2162 0 150.255 15.314 2301 85.6406 419.811 487.319
2163 0 152.952 14.8216 2267 87.3789 419.813 480.853
2164 1 95.9538 13.371 1283 91.834 419.633 503.062
2165 0 98.4802 15.2924 1506 88.6441 420.099 504.292
2166 0 102.621 14.5487 1493 89.0971 420.096 505.855
2167 0 105.341 14.4293 1520 89.3414 420.435 506.205
2168 0 108.335 14.9444 1619 88.719 419.936 503.586
2169 0 111.256 14.5789 1622 89.6554 419.847 502.136
2170 0 115.803 15.9754 1850 86.8789 420.198 501.685
2171 0 114.727 14.0159 1608 91.5423 420.796 494.502
2172 0 118.25 14.7484 1744 88.7884 420.631 500.819
2173 0 127.147 15.2265 1936 88.1317 420.42 496.698
2174 1 67.3261 14.5857 982 85.9063 420.568 523.713
2175 0 68.464 13.7006 938 87.6919 420.456 522.02
2176 0 69.3577 13.9134 965 88.458 420.733 518.979
2177 0 71.7213 15.0722 1081 87.0814 420.137 519.57
2178 0 73.9795 15.3691 1137 86.0246 420.472 519.282
2179 0 75.3754 15.9734 1204 85.5407 420.65 518.637
2180 0 78.7022 15.5142 1221 85.8239 420.642 519.265
2181 0 78.8999 14.2713 1126 87.4867 420.674 518.695
2182 0 78.355 12.8262 1005 91.6945 420.702 514.819
2183 0 82.0603 12.2715 1007 92.5988 420.728 514.468
2184 0 84.4698 14.9284 1261 86.9223 420.454 516.163
2185 0 86.9664 14.2469 1239 89.8676 420.844 511.203
2186 0 87.6398 13.8293 1212 89.8762 420.446 513.239
2187 0 92.0826 14.2372 1311 88.5973 420.873 513.993
2188 0 95.9329 16.1988 1554 85.6461 420.334 510.701
2189 0 96.9747 15.7051 1523 86.5167 420.105 508.809
2190 0 101.265 15.5533 1575 86.2349 420.007 508.85
2191 0 104.033 16.3602 1702 84.6504 420.486 509.47
2192 0 103.444 14.8389 1535 88.6827 419.699 504.779
2193 0 107.482 15.1468 1628 86.8145 420.265 508.623
2194 0 110.157 14.2524 1570 88.8694 420.369 504.952
2195 0 113.621 15.6925 1783 87.0095 420.325 503.18
2196 0 116.863 15.3342 1792 87.404 419.975 502.122
2197 0 120.408 15.2315 1834 87.2263 419.978 500.576
2198 0 122.656 14.3083 1755 89.1783 420.315 498.666
2199 0 126.751 15.7868 2001 86.3808 420.273 497.237
2200 0 123.737 12.2922 1521 92.4181 420.222 496.874
2201 0 135.157 15.1601 2049 87.6174 420.277 493.898
2202 0 138.376 14.5329 2011 89.4157 420.122 493.277
2203 1 215.55 16.4834 3553 86.8717 420.571 453.003
2204 0 222.704 17.6962 3941 84.8637 420.513 444.998
2205 0 228.896 17.8859 4094 84.8947 420.41 446.98
2206 0 235.978 18.8662 4452 82.7996 420.383 445.399
2207 0 243.752 17.9404 4373 84.6117 420.519 435.678
2208 0 252.587 17.4079 4397 85.4935 420.412 430.921
2209 0 257.998 16.8025 4335 86.6422 420.859 434.219
2210 0 265.848 17.6116 4682 85.4289 420.504 426.268
2211 0 272.759 17.279 4713 85.7356 420.589 427.696
2212 1 232.201 15.0085 3485 88.831 420.749 451.277
2213 1 192.787 15.5716 3002 86.5546 420.195 470.584
2214 0 197.255 15.1429 2987 86.7292 420.695 468.974
2215 0 205.875 15.0771 3104 87.0483 420.563 463.678
2216 0 208.562 14.8828 3104 87.7587 419.912 462.64
2217 0 218.376 14.0079 3059 88.6989 419.988 459.698
2218 0 224.767 14.5128 3262 87.6284 420.171 457.907
2219 0 231.76 14.4589 3351 88.12 420.54 452.669
2220 0 236.789 12.5175 2964 91.1117 420.318 451.441
2221 1 179.002 14.782 2646 88.4667 420.813 478.838
2222 0 184.287 15.1394 2790 88.1824 420.761 476.068
2223 1 18.1294 8.65995 157 66.3758 419.981 547.93
2224 0 18.1142 12.4212 225 64.8222 419.547 548.044
2225 0 18.0374 12.6404 228 65.8816 420.224 547.066
2226 0 17.1976 11.2806 194 65.8144 419.387 548.093
2227 0 17.2336 10.2706 177 66.9605 419.938 548.819
2228 0 20.0709 13.7014 275 65.8727 420.48 548.135
2229 0 19.0338 8.72134 166 66.3795 420.651 551.211
2230 0 19.0583 9.49717 181 69.1657 420.663 547.16
2231 0 20.1739 12.6401 255 66.1608 421.482 548.357
2232 0 19.0408 13.9175 265 66.1547 420.453 546.936
2233 0 21.1433 13.8578 293 66.9488 420.625 547.198
2234 0 21.0979 10.5698 223 67.5426 421.197 548.865
2235 0 20.1623 11.4074 230 68.4217 421.322 547.565
2236 0 21.1821 13.0299 276 65.8297 421.232 548.246
2237 0 20.3183 12.7964 260 66.2577 421.312 548.685
2238 1 55.056 12.0968 666 92.8408 421.827 369.536
2239 0 55.0238 13.0489 718 91.5585 421.712 367.457
2240 0 56.0302 13.4392 753 92.6069 421.457 366.7
2241 0 58.0911 14.0813 818 89.5746 421.966 370.968
