time division length width area intensity CMx CMy
0 0 45.0334 12.0577 543 70.3646 127.689 521.149
1 0 45.0593 12.3393 556 69.9083 126.926 520.326
2 0 48.0399 11.8027 567 70.1852 126.873 519.254
3 0 47.0379 11.884 559 71.0054 126.546 520.451
4 0 48.0341 12.3662 594 69.7929 125.697 520.268
5 0 50.0757 13.0003 651 68.8848 126.065 519.339
6 0 50.0141 12.3965 620 69.771 125.637 520.966
7 0 50.0359 12.1913 610 70.9803 124.866 521.177
8 0 54.028 13.4745 728 67.5412 124.595 520.451
9 0 54.0331 14.195 767 67.3012 125.529 519.389
10 0 56.0262 13.9042 779 67.2683 124.886 518.66
11 0 58.0377 13.8186 802 66.6858 125.151 519.082
12 0 60.0346 14.0919 846 66.4291 125.053 517.699
13 0 62.0698 14.0648 873 66.2245 125.489 516.59
14 0 62.0997 14.4284 896 65.077 124.337 519.427
15 0 64.0409 14.4439 925 65.8195 125.542 516.668
16 0 65.0301 12.9017 839 68.6544 125.765 516.322
17 0 67.0825 13.5356 908 67.2324 125.139 514.972
18 0 72.0444 16.5037 1189 61.7998 126.142 514.986
19 0 74.0392 13.9521 1033 66.0116 125.649 512.803
20 0 74.1652 13.807 1024 66.5137 125.244 511.812
21 0 78.1002 14.5454 1136 64.7843 126.064 512.951
22 0 78.085 13.9591 1090 66.7844 125.68 508.258
23 0 80.0374 14.1934 1136 66.5335 125.002 509.08
24 0 83.0686 15.108 1255 65.9004 125.619 507.81
25 0 85.1083 13.6414 1161 68.1378 125.891 506.168
26 1 42.0768 11.0987 467 71.9657 125.058 525.794
27 0 46.0164 12.7781 588 69.7143 125.622 524.267
28 0 46.0498 12.2911 566 71.0442 125.435 524.765
29 0 48.0517 12.4449 598 71.5485 126.821 523.676
30 0 48.0236 11.3694 546 73.0714 125.332 523.09
31 0 51.0743 12.2567 626 71.4824 126.553 523.677
32 0 53.2309 13.5072 719 69.1808 126.175 522.31
33 0 53.1279 12.9687 689 71.8911 126.058 520.505
34 0 53.1431 12.965 689 72.0421 126.633 519.434
35 0 55.0618 12.9309 712 72.302 126.871 517.909
36 0 58.0437 14.2996 830 69.5988 127.082 517.098
37 0 61.0318 13.1899 805 70.9466 126.94 516.888
38 0 62.0624 12.0524 748 72.5107 126.956 517.864
39 0 63.0647 13.0977 826 71.6041 127.084 516.508
40 0 68.0693 14.3677 978 68.7495 127.539 516.434
41 0 70.0976 13.6952 960 70.2146 127.133 513.714
42 0 71.0349 12.9373 919 71.9684 126.48 513.025
43 0 73.1343 13.1812 964 72.0757 126.307 510.379
44 0 74.0751 13.8103 1023 71.737 127.012 510.337
45 0 77.134 13.0293 1005 72.6219 126.722 509.643
46 0 79.0908 13.6299 1078 72.0501 127.12 509.467
47 1 40.0174 10.4704 419 74.0716 127.47 528.874
48 0 41.0334 11.7709 483 72.7288 127.348 528.884
49 0 41.0158 12.1173 497 74.5352 127.139 526.406
50 0 45.0396 13.1884 594 71.5875 127.343 525.564
51 0 44.0522 12.9392 570 72.7333 126.926 524.146
52 0 45.0482 13.5855 612 71.0735 127.279 526.039
53 0 47.0378 12.8407 604 72.5762 126.95 524.692
54 0 47.0755 11.4922 541 74.4196 127.373 524.445
55 0 50.11 13.4704 675 72.197 127.551 522.12
56 0 50.1161 12.491 626 74.8466 127.185 520.896
57 0 53.0572 12.7221 675 73.0207 128.012 521.723
58 0 53.0353 11.0492 586 75.8823 127.428 521.652
59 0 55.0721 11.9117 656 75.8171 127.259 518.581
60 0 59.0761 13.1017 774 72.9535 127.354 519.332
61 0 58.0536 12.2818 713 75.4165 127.352 517.362
62 0 60.0789 11.8844 714 76.0126 126.779 517.821
63 0 63.1042 12.0436 760 75.1013 126.864 514.889
64 0 66.0394 12.7348 841 74.308 127.472 513.47
65 0 66.0455 12.4157 820 74.8841 127.655 514.515
66 0 68.1104 12.9349 881 74.9535 127.715 513.56
67 0 71.0889 12.8009 910 75.1055 127.023 510.695
68 0 71.0293 11.3193 804 78.306 127.315 509.689
69 1 37.0151 12.1032 448 72.2031 127.33 529.891
70 0 36.0488 10.1529 366 76.2486 127.123 529.631
71 0 39.0364 13.5258 528 71.9905 126.623 527.795
72 0 39.0355 11.6561 455 75.7187 126.905 526.492
73 0 40.0535 12.4334 498 74.755 126.747 525.843
74 0 42.0143 12.2339 514 74.5117 127.473 526.354
75 0 44.0225 11.903 524 74.9275 127.044 524.771
76 0 43.0727 11.9565 515 75.3359 126.915 524.208
77 0 46.0273 11.9929 552 74.2065 127.138 524.355
78 0 45.0333 12.1466 547 75.117 127.45 523.66
79 0 47.0368 11.1827 526 75.8555 127.46 522.681
80 0 49.0705 11.2491 552 75.7446 127.775 522.723
81 0 51.023 12.3278 629 74.5294 127.711 521.017
82 0 50.033 11.7323 587 75.799 128.47 521.782
83 0 55.1164 12.1742 671 73.9449 127.656 521.156
84 0 55.0362 12.3192 678 74.9882 128.009 519.285
85 0 58.0698 13.8454 804 71.8968 127.979 519.279
86 0 60.033 13.0428 783 73.7292 127.701 516.955
87 0 62.0821 12.1452 754 74.4111 127.822 516.2
88 0 63.0775 12.1438 766 74.8003 128.245 514.889
89 0 65.0908 13.243 862 72.7216 128.138 514.371
90 0 66.0529 11.5513 763 76.0013 128.406 513.886
91 0 69.1288 10.965 758 76.8338 128.377 512.773
92 0 72.0927 12.9833 936 73.0032 128.833 512.129
93 0 74.0877 12.4042 919 73.8955 129.054 511.591
94 0 77.071 13.2605 1022 73.1057 128.529 509.097
95 1 37.0205 11.3721 421 73.7387 128.181 526.133
96 0 40.0451 10.8877 436 73.4541 128.388 526.833
97 0 40.0334 11.1407 446 74.2175 128.251 526.096
98 0 41.0506 10.6454 437 75.5538 127.989 525.453
99 0 43.0219 11.6452 501 72.6108 127.673 525.18
100 0 45.0599 11.5624 521 73.3992 127.912 524.505
101 0 44.0105 10.5202 463 75.6458 128.255 523.408
102 0 46.0618 11.9839 552 73.8786 128.332 523.161
103 0 48.0832 12.1872 586 73.4437 128.372 521.056
104 0 49.0147 11.1191 545 74.9083 128.655 521.139
105 0 50.0352 11.292 565 74.492 128.395 519.729
106 0 51.0553 11.8695 606 72.8861 128.299 518.974
107 0 53.0217 11.9574 634 72.2429 127.536 520.145
108 0 55.1491 13.4 739 70.2124 127.912 516.635
109 0 57.0251 12.2928 701 71.1141 126.95 515.194
110 0 56.0358 11.7068 656 72.6966 127.694 514.998
111 0 59.0462 11.9398 705 71.0014 127.489 514.424
112 0 61.0984 11.5879 708 71.7006 127.38 511.469
113 0 64.132 10.1197 649 72.9399 127.73 514.026
114 0 64.2278 11.3969 732 71.7158 127.906 511.724
115 0 67.1177 11.4426 768 71.0365 127.885 511.99
116 0 71.0339 11.1778 794 71.233 127.82 510.985
117 0 72.1197 11.9662 863 69.7346 127.358 510.302
118 0 75.1418 11.3519 853 70.9648 128.306 506.824
119 0 77.0677 11.2369 866 71.6316 128.26 505.125
120 0 78.1092 10.2677 802 72.2244 128.07 504.572
121 0 81.1788 11.4808 932 69.9624 128.126 503.852
122 0 84.0746 11.2162 943 71.0127 128.35 500.513
123 0 87.0922 13.0436 1136 68.3636 127.939 499.143
124 0 88.136 11.3007 996 70.6737 127.405 501.324
125 1 44.0333 10.0379 442 70.0724 127.676 519.652
126 0 47.0243 10.1862 479 69.1942 127.693 518.528
127 0 51.0362 10.9334 558 67.2814 127.91 518.53
128 0 49.0476 9.90873 486 70.677 128.377 516.71
129 0 51.0343 10.9338 558 68.8978 128.043 515.03
130 0 54.0428 12.4161 671 66.0298 127.608 514.578
131 0 54.0182 10.2928 556 68.8759 127.644 515.595
132 0 58.0233 12.4605 723 65.1577 127.661 513.571
133 0 59.0703 11.3593 671 66.8241 127.797 513.641
134 0 57.0772 11.5107 657 68.3379 127.68 511.805
135 0 62.0787 12.468 774 64.9212 128.482 510.966
136 0 62.053 11.4741 712 66.4705 127.994 509.966
137 0 65.0362 12.1163 788 65.1409 128.161 510.201
138 0 67.0552 10.4839 703 65.8279 127.78 512.048
139 0 71.0307 12.6987 902 62.7472 128.157 508.971
140 0 71.1104 11.1376 792 65.3131 127.904 508.668
141 0 73.0193 11.9694 874 64.3776 128.589 504.701
142 0 75.0448 11.9395 896 64.0725 128.545 504.239
143 0 76.0957 11.3541 864 65.1007 128.297 502.873
144 0 80.0488 12.6173 1010 63.3099 128.036 500.768
145 0 82.097 10.585 869 65.3003 128.188 503.281
146 1 44.0099 9.95231 438 64.6347 127.696 521.769
147 0 46.1058 11.0615 510 63.3549 127.208 519.708
148 0 48.0152 10.6425 511 63.8356 127.354 520.008
149 0 47.0371 11.1827 526 63.8802 127.099 519.384
150 0 49.0442 9.92981 487 65.2074 127.713 517.661
151 0 52.0408 10.8569 565 63.3398 128.053 517.688
152 0 54.0476 11.1568 603 62.7048 127.751 518.512
153 0 54.2028 11.7706 638 62.884 127.691 515.359
154 0 57.0386 12.1497 693 62.7605 128.24 513.938
155 0 57.1082 10.769 615 64.4374 128.12 514.237
156 0 60.0523 11.2735 677 62.8996 128.451 515.396
157 0 60.0415 12.025 722 62.2936 127.481 514.32
158 0 63.0636 12.5588 792 62.1566 127.559 511.221
159 0 65.1391 14.1543 922 60.0445 126.943 509.136
160 0 65.0668 13.417 873 61.1604 127.26 511.227
161 0 68.0981 12.2617 835 62.1856 127.575 509.65
162 0 71.1272 13.033 927 61.3603 128 507.111
163 0 74.0606 13.1379 973 60.6074 127.575 507.451
164 0 75.1097 13.5002 1014 60.8481 127.79 504.692
165 0 78.0749 12.1166 946 62.6617 127.426 503.923
166 0 80.0503 12.767 1022 62.0323 127.765 503.084
167 0 82.036 13.555 1112 61.1987 127.24 500.968
168 0 82.0676 12.1607 998 63.3497 127.995 498.878
169 0 87.0897 13.5263 1178 61.4932 127.694 499.799
170 0 87.0225 11.7441 1022 64.6536 127.461 499.011
171 1 45.0409 12.3665 557 62.0323 127.964 519.58
172 0 47.0391 10.9483 515 63.2058 128.6 521.854
173 0 46.011 10.4323 480 66.0646 128.254 518.967
174 0 48.0715 10.8796 523 65.3901 127.996 518.662
175 0 50.0782 13.1994 661 62.77 128.218 516.186
176 0 51.1083 11.7789 602 64.4817 128.704 517.279
177 0 53.0445 11.9522 634 64.2319 127.896 517.7
178 0 56.0602 12.8077 718 63.2953 127.891 514.972
179 0 59.0621 13.6466 806 61.1849 128.628 515.118
180 0 59.0419 11.585 684 64.7734 127.99 514.681
181 0 60.106 13.5261 813 62.0603 127.642 514.824
182 0 63.0923 12.4579 786 63.4796 127.617 512.602
183 0 64.0825 11.5632 741 65.4534 127.018 511.862
184 0 64.0928 11.6706 748 66.0214 127.205 509.906
185 0 68.0912 13.1441 895 63.6603 126.305 509.451
186 0 70.1183 13.6056 954 63.5964 127.17 508.447
187 0 73.0494 13.6757 999 63.1411 126.49 505.486
188 0 75.0486 14.364 1078 62.5492 126.469 508.748
189 0 76.1238 12.8344 977 65.2108 125.937 506.282
190 0 77.0683 12.8587 991 65.338 125.577 504.62
191 0 81.06 12.904 1046 65.1778 125.732 506.205
192 0 82.08 12.4391 1021 66.8198 125.349 504.306
193 0 86.1825 14.0748 1213 64.6084 125.199 503.522
194 0 87.0538 12.6703 1103 67.1324 124.862 502.699
195 0 91.0493 13.1577 1198 66.6945 125.251 501.422
196 0 93.0915 14.1474 1317 65.5467 125.06 501.632
197 1 46.045 11.163 514 67.6479 124.889 525.72
198 0 46.0382 11.5773 533 68.7317 125.308 523.46
199 0 49.0305 10.1977 500 69.038 125.058 526.03
200 0 51.0518 12.5559 641 65.9376 125.193 524.69
201 0 52.0606 11.3714 592 68.4257 124.52 523.328
202 0 53.0394 12.3493 655 67.7023 124.795 522.458
203 0 54.1066 12.3645 669 66.5725 124.309 524.345
204 0 54.0215 11.2733 609 69.353 123.805 522.591
205 0 57.0335 13.0976 747 66.9063 125.328 521.068
206 0 59.067 14.0349 829 64.8227 124.551 522.396
207 0 61.0639 12.5442 766 66.846 124.388 521.765
208 0 62.0371 11.6221 721 68.1165 124.617 521.644
209 0 64.0662 12.3934 794 67.4055 124.796 521.22
210 0 65.0613 12.0809 786 68.631 124.464 518.52
211 0 67.101 11.9223 800 68.2725 124.17 517.631
212 0 70.0319 13.3225 933 66.4459 123.771 515.96
213 0 72.0329 15.4513 1113 63.8778 122.967 515.491
214 0 74.0491 12.0596 893 68.8152 123.616 515.843
215 0 76.0634 12.4107 944 69.3104 122.107 514.048
216 0 77.0662 12.1194 934 69.3448 122.474 514.898
217 0 79.1357 11.2844 893 71.8343 121.766 510.899
218 1 40.0623 10.8331 434 71.8825 122.899 529.212
219 0 42.0113 10.7828 453 71.83 122.444 528.989
220 0 45.0606 11.7619 530 69.2925 122.275 529.638
221 0 45.0186 11.6174 523 69.8528 122.325 529.83
222 0 46.09 10.1974 470 73.4298 122.606 527.538
223 0 47.0365 12.2246 575 70.9165 122.278 526.943
224 0 47.0541 10.2223 481 74.0644 122.04 525.748
225 0 49.0457 10.1538 498 73.9558 121.882 524.388
226 0 51.0307 11.5029 587 72.2777 121.945 521.896
227 0 53.0446 10.6703 566 72.6201 122.005 523.064
228 0 54.0474 11.5084 622 72.8842 121.51 520.032
229 0 58.0878 12.4639 724 69.8715 122.529 520.569
230 0 57.0493 11.5339 658 72.5821 122.336 519.195
231 0 59.1056 12.723 752 71.1543 122.578 516.25
232 0 61.0843 11.7051 715 73.1105 122.712 515.4
233 0 61.0534 10.3843 634 75.03 122.099 515.674
234 0 65.0387 11.3932 741 74.3009 122.351 513.109
235 0 67.0804 11.3893 764 73.9503 122.476 512.018
236 0 69.0767 11.2194 775 73.9071 121.978 513.4
237 0 72.0729 11.2525 811 75.0629 122.761 508.39
238 0 75.0855 12.6522 950 72.6316 123.113 506.785
239 0 80.0742 12.7007 1017 71.9499 123.255 509.123
240 1 40.0614 10.4839 420 72.7929 123.671 527.19
241 0 43.0094 12.2996 529 69.6144 123.197 526.647
242 0 44.015 10.1556 447 73.2148 123.45 525.617
243 0 47.0617 12.6642 596 68.9111 123.638 524.064
244 0 46.0396 11.7942 543 71.1786 123.107 523.155
245 0 49.1197 13.009 639 69.9765 122.291 522.183
246 0 50.041 11.3107 566 70.6767 123.242 522.048
247 0 49.0402 11.0318 541 72.6987 122.847 520.993
248 0 53.0519 12.1391 644 69.4286 122.795 522.466
249 0 52.0176 11.7845 613 71.1794 123.848 521.075
250 0 55.028 11.7213 645 70.5225 123.402 521.333
251 0 58.1113 11.478 667 71.2129 123.13 519.775
252 0 60.038 12.9252 776 68.518 122.803 519.86
253 0 62.0418 11.6373 722 70.4488 123.662 517.499
254 0 61.0445 12.0568 736 70.0082 123.713 518.859
255 0 65.0838 11.9538 778 69.6838 122.779 516.625
256 0 66.1449 11.4597 758 70.7164 123.569 514.719
257 0 70.13 12.7763 896 67.7199 122.227 515.509
258 0 73.0539 12.8125 936 67.4722 122.956 514.782
259 0 75.0661 11.8029 886 68.8205 122.561 512.511
260 0 76.1435 11.1106 846 69.74 122.741 512.728
261 0 80.0877 12.4863 1000 67.406 122.927 511.538
262 1 40.0264 10.7679 431 67.8237 122.51 529.835
263 0 41.0277 11.3338 465 66.9054 122.791 530.013
264 0 44.0307 12.2869 541 64.6987 122.527 529.268
265 0 44.05 10.4427 460 67.5609 122.552 529.72
266 0 44.0139 10.9738 483 67.9441 122.431 527.093
267 0 46.0709 12.4156 572 65.6049 122.516 526.444
268 0 47.0551 12.6235 594 65.5455 122.652 524.965
269 0 50.0564 13.245 663 63.641 122.688 526.434
270 0 50.0425 12.0697 604 66.5281 122.421 523.268
271 0 51.1175 11.0138 563 67.5915 122.925 525.275
272 0 51.0316 10.954 559 68.068 122.338 526.42
273 0 56.0474 11.4546 642 66.352 122.422 523.953
274 0 54.064 10.2471 554 67.7148 122.379 523.91
275 0 57.1018 11.786 673 65.3046 121.559 522.728
276 0 56.0696 10.9328 613 67.2936 121.698 521.111
277 0 58.0294 11.6665 677 66.1905 121.747 520.976
278 0 59.0576 11.4972 679 65.7084 121.649 522.997
279 0 63.1651 11.9686 756 64.9444 121.648 520.3
280 0 65.0958 11.3064 736 64.9851 121.967 520.545
281 0 67.063 11.6309 780 65.0577 121.135 517.224
282 0 70.0428 12.1354 850 64.2518 120.561 518.938
283 0 71.0967 12.4338 884 63.8495 120.469 518.002
284 0 74.0882 13.2815 984 62.56 120.197 514.248
285 0 75.1072 12.1293 911 64.0944 121.122 513.279
286 0 79.0624 12.37 978 63.0429 120.853 514.636
287 0 85.0324 10.6665 907 64.9868 120.58 513.333
288 1 41.0207 10.0925 414 63.7899 120.937 530.918
289 0 43.0117 11.2992 486 63.3786 121.051 530.681
290 0 46.0426 12.1627 560 61.6393 120.88 530.568
291 0 46.0236 11.2985 520 64.4654 121.123 528.262
292 0 48.0235 12.015 577 63.3622 120.828 528.21
293 0 47.0362 11.3955 536 65.2015 120.935 527.623
294 0 52.093 12.5737 655 62.8824 121.606 526.737
295 0 51.0971 13.0144 665 63.6857 121.035 525.17
296 0 53.0523 11.5923 615 65.1041 121.241 524.896
297 0 54.057 11.9318 645 65.0217 120.865 523.639
298 0 57.0808 12.3684 706 64.5382 120.98 523.273
299 0 60.0288 11.3779 683 65.3045 120.966 521.966
300 0 60.094 11.7815 708 65.178 120.585 519.011
301 0 61.0432 12.5157 764 64.733 120.78 515.889
302 0 64.0321 12.728 815 63.7178 120.991 517.783
303 0 65.0368 11.1783 727 65.3563 120.926 518.704
304 0 67.098 11.8036 792 65.0126 120.495 515.79
305 0 69.0975 13.3001 919 62.9358 120.83 514.724
306 0 71.0823 11.972 851 64.8931 120.996 511.341
307 0 73.1114 10.9832 803 65.7721 120.516 513.147
308 0 77.0929 12.8287 989 63.7017 120.742 510.284
309 0 79.141 10.6013 839 66.4565 120.426 511.18
310 0 82.0801 13.231 1086 63.0479 120.349 509.93
311 1 43.0739 11.3294 488 63.4795 120.982 528.373
312 0 42.0872 10.3595 436 65.6376 120.3 527.222
313 0 46.0415 10.3385 476 64.834 120.767 527.977
314 0 44.1058 11.6991 516 65.5174 119.979 524.874
315 0 47.0395 10.4168 490 66.5408 119.971 523.906
316 0 48.0164 12.35 593 63.9562 120.221 525.135
317 0 48.1058 11.5371 555 66.1495 120.505 521.604
318 0 52.0137 11.1125 578 66.0882 120.164 521.396
319 0 51.0265 11.2491 574 66.446 120.118 520.481
320 0 53.1141 10.8822 578 66.4706 120.858 520.289
321 0 56.0306 12.7252 713 63.8892 121.224 519.348
322 0 60.048 12.6066 757 63.0106 121.387 519.753
323 0 61.0481 11.6957 714 64.2549 120.518 519.296
324 0 60.044 11.8913 714 64.3754 120.553 518.227
325 0 63.0958 13.3765 844 62.5735 120.724 516.598
326 0 64.0514 11.4595 734 64.8433 121.189 516.895
327 0 65.0603 12.2348 796 64.2814 120.196 513.785
328 0 68.0819 13.0137 886 63.0463 121.134 512.035
329 0 70.1488 11.8605 832 64.619 121.351 511.696
330 0 75.0811 11.5875 870 63.8046 121.425 512.586
331 0 73.1775 12.4765 913 63.6747 121.521 511.249
332 0 79.1497 12.2553 970 62.8247 121.551 510.625
333 0 80.1085 12.4706 999 63.025 120.925 507.698
334 0 83.1025 12.3823 1029 63.3411 119.954 507.556
335 1 43.0204 9.27468 399 64.6942 120.451 526.752
336 0 42.0243 11.3268 476 64.1324 120.523 524.7
337 0 44.0542 10.0331 442 64.7262 120.518 525.638
338 0 47.0171 10.8897 512 63.7773 120.939 524.969
339 0 50.0441 11.2101 561 61.9964 120.973 524.561
340 0 50.0207 10.8755 544 63.3915 121.075 522.961
341 0 50.0505 11.7282 587 63.2351 120.525 521.739
342 0 52.0872 13.823 720 60.0722 121.212 521.312
343 0 54.0392 10.8995 589 63.6027 121.154 520.404
344 0 58.0613 12.6418 734 60.4564 120.715 520.183
345 0 59.0517 11.9218 704 61.5511 121.153 519.557
346 0 57.0612 9.81402 560 64.5911 120.614 518.716
347 0 59.0795 11.6284 687 62.6812 121.729 515.314
348 0 62.0641 11.9232 740 62.0095 121.442 513.403
349 0 64.0624 12.1132 776 61.1624 121.927 514.294
350 0 68.1049 11.82 805 60.3801 121.6 514.135
351 0 69.0907 11.7816 814 48.414 120.91 511.756
352 0 70.0688 12.1738 853 59.2227 121.634 513.607
353 0 73.0708 11.1125 812 61.2857 121.466 507.831
354 0 75.1082 11.1572 838 61.1742 121.014 506.014
355 1 38.1223 10.4663 399 58.7343 120.421 528.865
356 0 38.0614 9.69486 369 59.2873 121.252 528.542
357 0 40.0209 10.3196 413 60.7748 120.598 526.153
358 0 38.0485 11.3802 433 59.5358 121.644 527.852
359 0 41.1493 11.3975 469 59.3092 122.156 525.486
360 0 43.0975 10.8591 468 60.5812 120.803 525.897
361 0 43.059 11.612 500 59.994 120.836 525.896
362 0 47.1176 10.5481 497 61.4406 121.32 524.487
363 0 47.114 12.4591 587 59.8484 121.325 521.514
364 0 48.1336 12.0082 578 60.237 122.073 523.735
365 0 50.0756 12.4412 623 60.3531 121.886 522.167
366 0 50.0616 10.8666 544 63.8603 121.735 521.132
367 0 50.0602 11.5661 579 63.6908 121.337 520.465
368 0 55.0442 12.4809 687 62.4163 121.592 520.099
369 0 55.0362 12.2283 673 63.6018 121.716 519.152
370 0 57.0405 12.7103 725 62.5876 120.883 520.381
371 0 57.055 11.5327 658 64.2158 121.619 520.237
372 0 60.1053 11.6462 700 64.1957 121.44 518.583
373 0 62.1079 12.6715 787 62.7446 121.404 515.626
374 0 63.0416 13.0707 824 62.5231 121.58 516.161
375 0 64.1055 12.729 816 63.027 121.922 516.92
376 0 67.1678 13.2355 889 62.7222 121.909 512.442
377 0 68.0296 14.0674 957 62.4493 121.252 512.16
378 0 69.0854 11.493 794 65.8804 121.175 511.074
379 0 72.053 12.1022 872 65.2018 121.567 512.33
380 0 73.3214 11.6064 851 65.6851 120.959 510.568
381 0 76.0824 11.5533 879 65.9829 121.023 511.317
382 1 40.0353 12.1143 485 65.0845 121.035 527.447
383 0 40.0609 11.7821 472 65.7182 121.767 528.657
384 0 39.0703 10.7499 420 69.019 121.91 526.629
385 0 43.1057 13.8265 596 64.3507 121.463 525.727
386 0 44.0183 12.5402 552 66.4366 121.322 525.725
387 0 46.0369 12.8375 591 66.2589 121.604 525.763
388 0 47.067 12.5353 590 67.2966 122.012 525.249
389 0 49.0476 12.4981 613 67.3361 121.954 525.018
390 0 49.1221 12.6827 623 68.1059 121.984 524.621
391 0 49.1025 13.1358 645 68.6124 121.941 521.682
392 0 49.0786 11.7974 579 71.4266 121.509 522.263
393 0 51.0679 11.9057 608 71.3651 121.405 521.65
394 0 54.036 13.0284 704 69.571 121.661 521.797
395 0 54.1234 13.1551 712 70.1067 121.149 520.969
396 0 56.0786 12.8213 719 71.0097 121.816 519.833
397 0 57.0715 12.2303 698 72.4126 121.778 519.037
398 0 60.0431 13.2072 793 70.4451 122.107 519.542
399 0 62.1108 13.4598 836 69.8385 122.272 519.852
400 0 62.0409 13.3783 830 71.2578 122.602 518.178
401 0 64.0921 13.3558 856 71.2231 122.062 517.737
402 0 67.0678 13.956 936 69.891 122.333 517.927
403 0 68.0963 13.7159 934 70.8854 122.377 516.227
404 0 69.0414 11.6886 807 74.3779 122.161 515.971
405 0 72.1064 13.0502 941 72.5409 122.289 511.553
406 0 76.0744 14.5121 1104 69.7246 121.749 513.375
407 0 77.0962 12.5298 966 73 121.963 512.714
408 0 81.1159 14.8553 1205 69.1793 121.99 512.022
409 1 40.0762 11.5031 461 73.692 122.588 529.31
410 0 41.0284 11.5774 475 74.1516 122.12 529.301
411 0 43.0876 10.9544 472 75.6864 121.761 526.178
412 0 44.0243 11.7889 519 74.4566 122.114 525.694
413 0 46.1141 11.7101 540 73.2574 121.78 526.961
414 0 45.0555 12.984 585 73.2222 121.79 525.147
415 0 47.0461 13.051 614 72.8779 121.306 524.073
416 0 49.0152 11.629 570 74.5491 121.521 524.73
417 0 50.0843 11.5206 577 75.0728 122.073 523.432
418 0 52.0591 12.0824 629 73.8776 122.087 523.518
419 0 55.0902 12.4523 686 72.8615 121.66 522.19
420 0 56.0193 11.9959 672 73.2619 121.692 523.037
421 0 57.0653 12.1615 694 73.2709 121.664 522.04
422 0 58.0403 13.215 767 72.2308 121.395 521.023
423 0 62.0464 13.1353 815 72.0282 121.903 519.114
424 0 62.0654 13.6791 849 71.258 121.517 518.038
425 0 65.0705 12.3097 801 72.6816 121.157 516.765
426 0 65.1778 12.1667 793 73.8436 121.348 515.542
427 0 69.0481 13.0489 901 72.6138 121.314 513.174
428 0 69.0494 12.8893 890 72.8022 121.689 514.418
429 0 74.0764 13.5401 1003 70.3609 121.901 514.935
430 0 75.0687 13.7741 1034 71.47 121.098 511.033
431 0 80.0627 13.8891 1112 70.7212 121.223 511.451
432 0 81.0485 13.276 1076 72.1803 121.671 510.299
433 1 39.056 11.3939 445 73.3551 121.708 528.569
434 0 40.0239 12.8174 513 71.4211 121.608 529.111
435 0 44.2178 11.8956 526 71.6445 121.679 527.952
436 0 44.0785 12.9542 571 71.7513 122.103 526.137
437 0 45.0181 12.5061 563 72.3055 121.629 526.698
438 0 47.0388 11.8838 559 73.2987 121.487 525.653
439 0 47.0472 12.0942 569 71.8084 121.367 526.026
440 0 49.0442 11.8261 580 72.931 121.528 524.724
441 0 51.0589 13.9447 712 69.1629 121.588 524.199
442 0 52.1027 11.8804 619 71.5525 121.725 526.275
443 0 53.0415 11.7832 625 71.584 120.944 525.248
444 0 54.0475 11.4344 618 73.3706 121.684 522.487
445 0 56.0418 11.991 672 71.9271 121.366 521.577
446 0 57.0353 12.3783 706 71.238 121.669 522.212
447 0 58.0379 12.1645 706 71.7351 121.337 520.608
448 0 62.0701 12.2764 762 69.7835 121.715 521.249
449 0 63.1019 12.2342 772 70.9275 122.104 519.361
450 0 63.0404 11.3261 714 72.6583 120.556 517.549
451 0 68.1304 11.6982 797 70.2497 121.341 518.157
452 0 67.1045 11.5194 773 72.1604 121.426 515.088
453 0 72.1785 13.0233 940 69.4362 121.653 515.006
454 0 71.162 11.8322 842 72.7363 122.027 514.246
455 0 75.1335 11.3398 852 72.1725 121.752 514.407
456 1 35.0222 10.6789 374 72.5481 121.075 530.142
457 0 39.089 10.361 405 71.7654 121.78 531.447
458 0 39.0219 9.99439 390 72.8615 120.951 529.221
459 0 41.066 11.1528 458 71.3908 121.397 529.367
460 0 42.073 10.4343 439 73.7312 121.178 526.738
461 0 43.0607 12.3546 532 70.6541 121.844 525.82
462 0 46.0491 11.3574 523 71.0421 121.975 526.373
463 0 47.0311 10.4186 490 71.6041 121.884 527.241
464 0 48.0377 11.8657 570 70.0965 120.716 525.667
465 0 50.1105 13.1509 659 67.9499 121.39 524.766
466 0 50.043 12.7091 636 69.1761 121.259 523.821
467 0 52.0897 11.3074 589 69.837 121.523 525.302
468 0 53.0299 11.1446 591 71.1574 121.31 522.565
469 0 56.0922 11.695 656 69.5808 121.358 522.198
470 0 56.0702 10.5047 589 72.0696 121.431 521.739
471 0 57.0778 10.985 627 70.9617 121.485 520.584
472 0 61.0333 11.5511 705 69.5021 121.123 520.862
473 0 60.1154 11.5278 693 70.2713 121.413 519.597
474 0 64.0877 10.314 661 71.3343 121.493 518.74
475 0 64.0868 10.2049 654 71.7508 121.347 517.844
476 0 68.0513 10.8301 737 70.6852 120.784 514.598
477 0 68.1032 10.5281 717 71.4881 120.796 513.049
478 0 71.1621 10.6517 758 71.2586 120.889 512.953
479 0 73.0425 11.8424 865 69.4347 120.705 511.951
480 0 76.0747 10.0953 768 71.1354 120.129 509.246
481 1 99.0724 4.04755 401 85.0973 120.718 464.666
482 0 97.0601 6.19204 601 82.5275 120.927 469.221
483 1 42.0519 8.34683 351 75.6068 120.721 486.618
484 0 45.0415 2.44219 110 79.9 120.291 508.8
485 1 8.00086 8.24912 66 79.8788 121.848 485.106
486 0 11.0029 3.72628 41 76.2439 120.634 512.756
487 1 52.0325 9.99376 520 73.6808 121.537 477.04
488 0 51.1199 9.19407 470 75.3596 121.515 476.681
489 0 41.1113 7.54051 310 72.3677 121.703 520.626
490 0 43.0915 7.28681 314 73.0127 121.879 519.484
491 0 42.0532 6.56312 276 73.971 121.83 518.576
492 0 46.0588 6.94764 320 73.4312 121.762 521.881
493 0 47.0861 5.26695 248 74.8266 121.395 514.383
494 0 47.1843 6.12492 289 73.9792 121.453 514.104
495 0 49.0319 3.87503 190 76.3895 120.474 511.921
496 0 54.0672 7.71263 417 72.2518 121.384 516.763
497 0 57.063 7.34277 419 72.179 120.721 515.733
498 0 57.0293 9.15319 522 70.2433 121.197 512.067
499 0 59.0748 8.27764 489 71.4274 120.654 512.732
500 0 58.083 8.28125 481 72.0437 121.291 512.699
501 0 61.0767 6.79474 415 72.694 120.723 507.335
502 0 67.0669 9.14013 613 70.2545 121.533 512.971
503 0 70.0466 9.06539 635 70.2614 121.266 509.619
504 1 34.1012 9.03195 308 69.8279 121.627 526.172
505 0 36.0291 9.60334 346 69.2514 121.613 525.419
506 0 38.0295 10.413 396 68.7449 121.333 525.134
507 0 39.0306 8.65988 338 71.7041 120.997 524.663
508 0 39.0268 7.58454 296 72.9628 120.997 523.747
509 0 41.0483 8.16112 335 72.6836 120.836 523.743
510 0 44.0778 9.25635 408 70.9265 120.922 523.912
511 0 46.1378 7.69434 355 72.2085 121.423 525.149
512 0 47.0688 9.81542 462 69.8506 121.074 523.459
513 0 47.0369 9.50318 447 70.9485 121.02 521.877
514 0 54.0364 10.7335 580 68.0362 121.574 523.46
515 0 55.1482 11.8952 656 66.436 121.657 523.674
516 0 56.0696 10.5761 593 68.914 121.55 522.01
517 0 54.0399 8.69728 470 71.3362 120.532 515.3
518 0 60.0948 10.6166 638 69.0643 121.174 520.08
519 0 61.0634 10.7593 657 68.6697 120.998 517.823
520 0 64.108 9.82716 630 69.6698 120.967 516.252
521 0 65.1148 11.7178 763 67.6501 121.02 514.556
522 0 68.1231 11.215 764 68.1165 120.84 514.229
523 0 69.0755 9.714 671 69.772 121.37 511.404
524 0 76.1569 11.8046 899 66.2458 121.386 511.56
525 0 78.0612 11.6831 912 66.0943 121.252 509.633
526 0 79.227 11.4734 909 66.8163 120.801 506.79
527 0 83.1527 11.978 996 65.6857 120.98 507.66
528 1 40.1616 9.41198 378 69.2222 121.272 527.347
529 0 42.154 9.9872 421 67.715 121.01 527.694
530 0 42.0184 9.49584 399 69.8521 120.692 525.165
531 0 44.0226 11.0171 485 67.0392 119.802 526.53
532 0 48.1415 11.7155 564 65.7553 120.654 524.702
533 0 48.0346 11.9914 576 66.1372 120.038 522.273
534 0 48.0435 10.0118 481 68.3514 120.464 524.162
535 0 51.058 11.6534 595 66.6454 120.627 522.321
536 0 51.0441 10.8338 553 68.1772 121.029 520.212
537 0 53.046 11.7257 622 66.7042 120.532 518.786
538 0 54.0331 9.88283 534 68.6929 120.172 518.446
539 0 58.1234 11.7681 684 65.886 120.743 517.985
540 0 59.0403 10.0101 591 68.0931 120.968 515.667
541 0 61.1007 10.6054 648 67.2207 120.762 516.349
542 0 64.0852 13.0451 836 63.4761 121.294 516.451
543 0 63.1928 12.4381 786 65.1972 120.77 509.884
544 0 68.0861 11.9555 814 64.7076 120.99 512.565
545 0 65.0228 9.53511 620 68.0419 120.585 510.148
546 0 68.0974 9.89759 674 67.7166 120.503 506.506
547 0 73.1046 9.42485 689 68.3193 120.714 507.238
548 0 75.0897 9.85487 740 67.6905 120.808 508.319
549 0 78.1684 9.74819 762 67.7822 120.442 505.344
550 1 34.1018 7.85883 268 70.0373 120.28 522.556
551 0 37.0075 9.5116 352 68.7386 120.452 524.429
552 0 31.0421 7.24823 225 71.5689 120.893 521.68
553 0 40.0495 10.6868 428 67.0771 121.252 522.388
554 0 47.033 7.59041 357 70.9216 121.076 475.952
555 0 43.0144 8.67151 373 68.8177 121.126 519.729
556 0 38.0645 6.30509 240 72.0625 120.7 518.267
557 0 44.0286 10.2888 453 67.117 120.662 517.205
558 0 47.0562 10.9869 517 65.6267 120.714 519.485
559 0 50.1409 11.6073 582 65.0911 120.564 520.393
560 0 51.0943 11.5081 588 64.9677 121.117 518.313
561 0 56.0297 11.8687 665 64.1549 120.874 519.188
562 0 62.0732 12.8558 798 61.9123 120.851 519.371
563 0 61.0721 12.5098 764 63.4935 120.671 518.411
564 0 66.0998 12.0121 794 63.068 120.552 517.985
565 0 68.1738 12.3948 845 62.7456 120.33 515.091
566 0 70.0911 13.14 921 62.1053 120.219 513.578
567 0 71.1047 12.8543 914 62.802 120.109 512.556
568 0 75.0878 11.8395 889 64.3026 119.541 511.739
569 0 78.1158 12.6991 992 63.0786 119.885 511.255
570 0 83.0466 12.4268 1032 63.0213 120.477 510.475
571 0 84.0664 12.1452 1021 64.4006 120.723 509.287
572 0 85.2376 13.1397 1120 63.7357 120.58 507.402
573 1 45.0433 9.56858 431 67.8863 120.522 528.232
574 0 48.0364 11.9493 574 65.7561 121.193 524.23
575 0 48.0888 11.8115 568 66.5933 120.694 525.085
576 0 51.0416 12.3429 630 65.9032 120.802 524.011
577 0 52.0561 12.0639 628 66.2882 120.639 522.438
578 0 56.0948 12.5502 704 64.5284 120.553 523.224
579 0 56.0444 10.8842 610 67.4869 121.644 521.261
580 0 57.0552 11.6203 663 66.8643 122.609 520.403
581 0 59.1076 13.0779 773 64.6598 122.129 518.9
582 0 60.1947 11.1305 670 67.0701 121.73 520.569
583 0 64.0413 12.8823 825 64.5915 122.467 518.098
584 0 65.1465 11.5125 750 66.2253 121.373 516.452
585 0 68.0924 12.9383 881 64.8207 121.068 515.314
586 0 69.0407 13.8179 954 64.696 121.702 511.801
587 0 73.0867 12.5878 920 65.4261 121.111 513.177
588 0 76.1086 13.6121 1036 63.3427 120.819 513.082
589 0 77.0512 12.8097 987 65.076 121.216 510.854
590 0 81.0858 12.9492 1050 64.8333 120.783 508.554
591 0 80.1048 11.485 920 67.9804 120.735 507.914
592 0 85.1214 13.7333 1169 64.4962 121.139 506.104
593 0 89.0641 13.4398 1197 64.8279 120.541 505.564
594 1 45.0764 11.5582 521 67.7812 121.155 523.123
595 0 47.0764 11.8318 557 66.7504 120.858 524.066
596 0 52.0471 12.8153 667 65.1019 121.271 523.036
597 0 52.0962 13.5327 705 65.8156 121.099 520.732
598 0 54.0501 12.7474 689 66.6154 121.286 521.649
599 0 56.054 11.9171 668 68.1991 120.811 520.021
600 0 59.1239 13.6662 808 65.2834 120.933 520.463
601 0 58.021 12.9436 751 67.5126 121.225 518.522
602 0 61.1589 13.1461 804 67.4639 121.233 516.316
603 0 62.1063 12.4786 775 68.6065 120.801 515.592
604 0 64.0518 12.1933 781 67.8976 120.819 516.622
605 0 67.0985 12.4593 836 68.2907 122.097 515.026
606 0 70.122 12.8348 900 67.7322 121.504 512.749
607 0 71.1387 12.4264 884 68.1199 121.874 512.074
608 0 74.0855 13.9838 1036 65.667 121.708 513.43
609 0 76.1147 13.9264 1060 65.9802 121.032 509.212
610 0 80.1558 13.6484 1094 65.9104 121.378 510.835
611 0 80.1337 13.5399 1085 66.4092 121.729 508.381
612 0 83.0928 13.5872 1129 66.8264 121.568 505.584
613 0 86.0803 13.3596 1150 65.9757 121.235 508.15
614 0 88.0898 12.8278 1130 67.8106 121.593 504.5
615 0 91.1497 12.2217 1114 68.7083 121.346 502.201
616 0 94.1356 12.1633 1145 68.4262 121.423 501.506
617 1 49.1734 11.6323 572 67.1608 122.028 522.759
618 0 50.1025 12.5942 631 65.8748 121.705 523.376
619 0 53.0468 12.5172 664 65.6295 121.574 522.45
620 0 55.0957 11.6525 642 66.8738 121.889 522.294
621 0 54.0373 11.6031 627 68.4147 121.555 519.769
622 0 54.0476 11.4159 617 68.3647 121.535 517.561
623 0 59.1281 12.363 731 65.3666 121.859 518.228
624 0 61.1132 12.9759 793 64.7415 122.24 517.078
625 0 63.0759 12.2392 772 64.8808 122.005 519.142
626 0 63.0858 11.3021 713 66.2062 121.266 516.665
627 0 67.1197 12.6044 846 64.3073 121.096 513.761
628 0 68.174 12.4388 848 64.783 121.749 511.382
629 0 70.1122 11.7954 827 65.3035 121.768 511.599
630 0 75.1069 13.5274 1016 63.0463 121.852 509.933
631 0 77.0934 11.9725 923 64.091 121.822 510.505
632 0 78.1037 12.3554 965 64.287 121.506 508.872
633 0 79.1315 10.729 849 67.1131 121.317 507.655
634 0 82.0901 11.8528 973 65.3484 121.729 507.294
635 0 86.085 11.9301 1027 65.5326 121.73 505.398
636 1 48.0746 11.7526 565 63.7168 122.161 524.49
637 0 48.0263 10.6192 510 66.0137 122.218 523.118
638 0 49.0726 11.9619 587 64.6917 122.267 522.545
639 0 49.1302 10.8487 533 66.7861 121.308 519.377
640 0 53.0487 12.1398 644 64.5016 121.891 519.793
641 0 54.0636 13.4656 728 63.6896 121.207 518.804
642 0 54.0209 12.0509 651 66.0645 121.407 517.906
643 0 56.0599 11.3807 638 66.3652 120.922 516.409
644 0 57.0841 12.0699 689 65.4383 120.955 516.537
645 0 60.0558 11.4893 690 65.6116 121.52 516.697
646 0 63.1168 12.4373 785 64.2395 121.052 514.343
647 0 65.0765 12.5698 818 64.2139 121.347 513.577
648 0 66.0616 13.003 859 64.0442 121.554 513.093
649 0 70.0768 11.8584 831 64.87 120.983 511.97
650 0 71.1396 11.4563 815 65.816 121.507 511.167
651 0 72.0563 11.3245 816 65.7304 121.854 511.656
652 0 78.0713 13.4621 1051 62.7726 121.365 508.644
653 0 77.1423 10.8501 837 66.8375 121.492 507.13
654 0 81.0913 12.6771 1028 64.3025 121.886 507.41
655 0 84.0882 11.5355 970 64.8732 121.605 507.919
656 0 87.1342 12.1078 1055 65.4882 121.57 503.496
657 0 90.1219 12.8937 1162 64.6489 122.344 501.886
658 1 46.071 10.9179 503 66.9423 121.678 521.266
659 0 49.032 13.1139 643 64.2006 121.586 521.358
660 0 51.0831 12.1371 620 66 121.866 521.342
661 0 51.0777 11.6881 597 66.4539 121.477 521.868
662 0 54.0938 11.2952 611 66.9705 121.758 519.766
663 0 55.0671 11.4043 628 66.7739 121.833 520.441
664 0 57.1051 11.6277 664 67.5286 121.422 517.265
665 0 58.1309 11.6977 680 67.6132 121.925 518.101
666 0 61.1389 11.7765 720 67.2333 121.475 517.597
667 0 63.1268 11.9442 754 67.1366 121.599 517.032
668 0 64.0924 12.1543 779 67.0359 121.48 514.529
669 0 66.0632 13.6687 903 65.4939 121.102 512.702
670 0 70.1347 13.417 941 65.0935 121.092 514.21
671 0 70.113 12.9077 905 66.526 122.054 511.597
672 0 72.0624 12.1978 879 67.4346 122.213 511.692
673 0 75.055 12.7506 957 66.9937 121.549 507.576
674 0 77.0594 12.0167 926 67.6933 121.346 509.314
675 0 80.1768 12.2978 986 67.6968 121.627 506.873
676 0 82.1134 12.5558 1031 67.2483 121.681 507.274
677 0 85.1739 12.0812 1029 68.3081 122.052 505.87
678 0 89.1008 12.3905 1104 68.1902 121.638 500.683
679 0 90.0727 12.3012 1108 68.7509 121.791 499.806
680 0 95.1198 13.6354 1297 65.6291 121.334 501.87
681 1 49.2985 9.71632 479 70.3758 121.85 522.912
682 0 49.0549 11.8031 579 68.6114 121.765 521.181
683 0 50.1266 11.5707 580 68.6741 122.116 520.11
684 0 53.0277 11.032 585 69.9607 121.788 518.752
685 0 54.1184 11.8259 640 68.7234 121.767 518.503
686 0 57.0629 11.2157 640 68.8719 121.592 518.844
687 0 58.097 12.7029 738 67.2371 120.925 516.844
688 0 61.0608 12.4139 758 67.2625 121.369 517.307
689 0 61.0219 11.7007 714 68.7255 122.218 515.989
690 0 63.1418 11.688 738 67.832 122.079 516.503
691 0 66.0613 11.8224 781 67.4161 121.832 513.836
692 0 68.0675 11.4298 778 67.9293 121.707 511.22
693 0 72.0842 11.8889 857 66.8483 121.084 509.607
694 0 75.057 12.5238 940 64.534 121.662 508.873
695 0 76.0618 11.1751 850 66.3918 121.124 508.46
696 0 78.0866 11.6922 913 65.5422 121.231 508.524
697 0 81.0715 11.496 932 65.8476 121.651 506.403
698 0 82.1369 12.5887 1034 64.5522 121.591 505.985
699 0 84.1863 12.0328 1013 64.9339 121.984 503.402
700 1 44.1877 9.91226 438 63.8607 121.979 524.694
701 0 42.1407 8.30552 350 67.1914 121.969 522.463
702 0 48.1652 11.6059 559 62.1878 122.571 521.866
703 0 49.1196 11.3804 559 62.1324 121.723 523.231
704 0 47.0907 10.3418 487 64.5832 121.869 519.772
705 0 51.1025 11.4084 583 62.8834 121.839 519.329
706 0 52.0532 10.9119 568 63.9243 121.535 518.454
707 0 53.1145 9.95962 529 64.8885 121.561 517.304
708 0 53.1298 10.7096 569 63.3427 121.016 519.701
709 0 56.0766 10.9671 615 62.3837 121.554 517.257
710 0 58.0475 13.6096 790 59.0684 121.504 517.29
711 0 63.0702 12.2086 770 59.3935 121.29 517.118
712 0 63.1325 11.6105 733 61.0205 120.907 516.03
713 0 64.0889 11.0472 708 61.678 120.939 514.521
714 0 68.0812 12.676 863 59.1356 120.892 514.951
715 0 72.142 12.9883 937 57.9936 121.593 514.101
716 0 70.1876 12.7373 894 59.4463 121.381 509.378
717 0 73.0765 11.8232 864 60.0637 121.582 511.861
718 0 77.2562 12.8533 993 58.2034 121.693 512.074
719 0 79.1909 12.0595 955 59.1152 121.949 509.587
720 0 81.2286 13.1111 1065 57.9023 121.177 506.326
721 1 42.1418 11.8884 501 57.4391 121.371 525.411
722 0 42.0513 8.06158 339 61.5516 121.853 526.136
723 0 44.1224 9.315 411 59.9343 121.375 524.893
724 0 44.0565 11.0086 485 58.0825 121.359 522.971
725 0 47.1772 13.0784 617 55.1815 121.47 522.956
726 0 49.2584 11.1047 547 56.4442 121.53 524.205
727 0 50.2307 11.2481 565 56.4478 121.393 523.766
728 0 52.0487 11.6429 606 56.637 121.602 520.693
729 0 52.0448 10.6831 556 57.6924 121.36 520.388
730 0 53.0755 9.38286 498 59.5884 121.627 520.944
731 0 57.1648 10.4085 595 57.4504 121.676 517.615
732 0 56.1436 9.81412 551 58.7586 121.593 520.127
733 0 60.0785 12.6335 759 56.7905 121.199 517.406
734 0 62.1153 12.4446 773 56.3997 120.955 516.339
735 0 64.0632 10.9111 699 57.6395 121.163 516.954
736 0 65.0991 9.35497 609 59.1346 121.473 516.241
737 0 66.0973 10.0761 666 58.0796 121.814 515.509
738 0 68.0898 9.83994 670 58.0164 121.545 512.199
739 0 70.0699 11.1032 778 55.9679 121.632 514.485
740 0 74.157 10.8688 806 56.371 121.449 512.144
741 0 77.1017 11.9453 921 55.0532 121.429 509.111
742 1 39.0475 9.50125 371 56.062 120.962 528.326
743 0 41.0876 11.512 473 54.4419 120.89 526.292
744 0 41.0711 11.0053 452 55.4513 120.673 526.075
745 0 43.1004 10.1159 436 56.1216 120 525.021
746 0 43.1658 9.47509 409 57.6601 120.575 525.112
747 0 47.0839 11.7238 552 55.8243 120.094 525.638
748 0 48.0425 9.0753 436 59.2844 120.021 520.44
749 0 48.0569 11.5904 557 56.8707 120.443 521.668
750 0 50.0439 11.0103 551 57.1143 120.41 521.623
751 0 52.0472 12.5463 653 54.9678 120.142 522.891
752 0 54.0414 11.1951 605 57.3157 119.937 518.202
753 0 54.0383 11.2143 606 57.7475 120.906 518.878
754 0 55.069 11.1133 612 58.0686 120.907 520.114
755 0 57.1162 11.3628 649 57.4838 120.886 519.21
756 0 58.1121 10.7207 623 58.7095 121.116 517.016
757 0 61.033 10.5681 645 59.4868 120.522 516.571
758 0 61.07 10.4307 637 59.9623 120.336 516.757
759 0 63.0516 12.0853 762 58.563 120.976 515.608
760 0 66.1113 12.1916 806 58.2605 120.634 515.345
761 0 67.0706 12.3452 828 58.6896 120.915 514.501
762 0 70.1023 11.1694 783 59.6079 120.705 515.377
763 0 71.0467 12.3862 880 58.9114 120.469 514.409
764 0 76.083 11.7635 895 59.3698 121.303 513.037
765 0 76.1739 11.4737 874 60.04 120.5 512.899
766 1 39.0122 11.3042 441 61.7075 121.395 529.263
767 0 40.06 12.2566 491 60.5764 120.383 529.974
768 0 41.0616 9.03521 371 65.2345 120.865 527.96
769 0 44.1229 13.4624 594 60.1347 121.131 526.507
770 0 43.0459 11.871 511 62.8943 120.706 526.949
771 0 46.0883 13.2138 609 60.7356 120.821 528.649
772 0 48.1044 11.579 557 62.7522 121.115 527.417
773 0 50.0192 13.075 654 61.9664 120.835 525.156
774 0 52.0547 12.4484 648 63.1389 120.63 524.466
775 0 53.0396 13.3862 710 62.3254 120.41 524.53
776 0 53.0348 12.4635 661 63.3026 120.941 524.927
777 0 56.0983 12.4425 698 63.3754 120.877 523.385
778 0 58.1757 12.4794 726 64.5358 121.143 518.884
779 0 60.114 13.8404 832 62.4351 120.547 520.118
780 0 61.0605 13.8715 847 63.2609 120.848 518.501
781 0 63.1149 13.2615 837 64.0932 120.602 517.331
782 0 65.0976 12.9959 846 64.0047 121.246 517.686
783 0 67.1091 12.5467 842 64.8931 121.086 517.49
784 0 68.0346 12.7141 865 65.0613 120.982 515.916
785 0 72.034 12.7023 915 64.5148 121.605 515.833
786 0 75.1221 13.9906 1051 62.6147 121.103 513.299
787 0 75.0802 13.7586 1033 64.0184 120.888 511.324
788 0 77.2157 14.2588 1101 63.2098 120.814 510.773
789 1 41.2304 12.7818 527 65.9791 120.457 529.148
790 0 45.1418 12.7376 575 65.9878 120.043 527.699
791 0 44.0614 11.9833 528 67.4621 120.42 528.964
792 0 48.0403 13.8426 665 64.2677 120.823 529.586
793 0 50.0581 13.1847 660 65.8379 120.827 527.436
794 0 52.1623 12.9404 675 65.4459 121.397 526.566
795 0 51.0688 11.1222 568 68.7025 120.766 526.373
796 0 52.1245 13.6788 713 66.1388 120.77 525.459
797 0 55.053 13.4234 739 66.4317 120.934 524.388
798 0 55.2425 12.961 716 67.1145 120.897 524.404
799 0 59.1012 14.4667 855 64.9181 121.164 523.002
800 0 61.0997 12.586 769 67.2341 120.791 523.022
801 0 64.2048 14.0332 901 65.182 120.933 521.434
802 0 65.1357 15.1223 985 64.7817 121.085 519.231
803 0 63.3584 12.6739 803 68.0859 121.23 520.555
804 0 66.2251 11.7327 777 69.0373 121.194 518.959
805 0 70.099 13.5523 950 66.5821 121.118 516.505
806 0 74.053 13.4903 999 66.2072 120.84 516.491
807 0 76.1093 13.1915 1004 66.741 121.168 514.973
808 0 76.0692 13.5929 1034 67.1847 120.779 513.769
809 0 79.163 12.569 995 68.2693 121.22 513.892
810 0 80.0822 12.0626 966 69.3178 120.981 509.374
811 0 84.2311 13.1187 1105 67.9077 120.878 510.12
812 1 43.0544 14.2378 613 65.956 120.674 529.677
813 0 42.0465 12.9856 546 68.5751 121.597 529.181
814 0 45.0251 12.4375 560 69.3929 121.146 529.043
815 0 44.1797 13.5356 598 69.4716 121.084 527.676
816 0 47.2219 13.0871 618 69.5906 121.225 528.88
817 0 48.0999 14.3867 692 68.6113 121.672 528.117
818 0 52.0576 15.0603 784 67.287 121.232 527.703
819 0 52.0731 14.2108 740 68.5959 121.259 527.336
820 0 54.1328 14.5014 785 68.7847 121.199 525.899
821 0 54.1135 12.8988 698 71.5788 120.953 526.057
822 0 57.1968 14.0043 801 69.6754 121.227 524.315
823 0 57.2355 14.3617 822 69.7603 120.551 524.786
824 0 61.176 14.8915 911 69.1844 120.56 522.477
825 0 63.1871 13.7528 869 70.4638 121.192 522.558
826 0 66.2308 13.4681 892 70.0191 120.92 524.508
827 0 66.2277 13.1969 874 72.4691 120.993 520.208
828 0 69.4011 12.9969 902 72.1863 120.97 519.183
829 0 70.1126 12.5798 882 72.8061 120.678 520.474
830 0 73.1931 13.6762 1001 72.4286 121.407 517.198
831 0 75.2246 12.7884 962 74.0707 120.255 516.767
832 1 38.0896 13.337 508 73.2736 120.844 532.797
833 0 41.1525 13.3892 551 70.951 120.853 534.437
834 0 41.1969 14.4428 595 71.5748 121.634 532.587
835 0 40.1444 13.4016 538 72.9424 121.262 533.433
836 0 44.2238 13.8613 613 72.3899 121.212 531.506
837 0 47.1586 14.1013 665 71.1789 120.968 531.785
838 0 48.1065 13.4285 646 73.2229 120.731 530.483
839 0 48.2719 13.6518 659 74.0334 120.436 528.778
840 0 49.297 12.2726 605 76.6959 120.931 527.635
841 0 50.1718 13.8325 694 73.5101 121.232 529.416
842 0 51.0888 13.2906 679 75.9072 121.236 527.555
843 0 53.1737 13.9919 744 75.3629 121.46 525.31
844 0 56.1371 13.378 751 74.8336 121.298 526.747
845 0 57.1696 12.1918 697 75.7747 121.31 527.047
846 0 57.2879 12.7427 730 76.2822 120.501 524.511
847 0 61.0571 14.3472 876 73.5491 120.955 523.829
848 0 61.0949 13.6509 834 75.4652 121.088 523.159
849 0 64.1262 13.146 843 74.5907 120.605 524.211
850 0 64.1531 13.421 861 75.5714 120.462 521.611
851 0 68.1191 13.0507 889 74.5377 121.373 522.622
852 0 72.1191 14.3513 1035 73.4802 120.77 519.652
853 0 72.2067 14.0984 1018 74.445 120.692 518.759
854 0 74.1916 13.8291 1026 75.1296 120.511 518.332
855 0 74.1325 13.5298 1003 76.5563 120.755 515.286
856 0 76.1913 13.4661 1026 76.153 120.7 515.765
857 1 42.2378 12.7137 537 76.6667 120.682 532.561
858 0 42.0613 13.195 555 77.7207 120.16 531.582
859 0 42.0915 12.8292 540 78.8463 120.363 530.835
860 0 44.0234 12.9704 571 78.993 121.089 530.413
861 0 47.1605 15.4367 728 77.0467 120.582 528.503
862 0 47.1268 14.1745 668 78.9072 120.942 530.199
863 0 48.0652 14.2099 683 78.7218 120.141 530.023
864 0 51.0676 14.1185 721 78.509 120.712 528.728
865 0 50.06 13.344 668 80.4401 120.671 527.103
866 0 52.1409 13.4443 701 79.5421 121.341 527.364
867 0 55.1775 14.8068 817 76.8262 120.812 527.056
868 0 54.1544 13.8862 752 80.0745 121.234 524.735
869 0 57.0977 15.1145 863 76.8123 121.324 525.13
870 0 58.1736 13.391 779 79.9243 120.92 524.72
871 0 60.2117 13.7349 827 78.4825 120.567 524.984
872 0 62.1385 13.3251 828 79.0072 120.942 521.879
873 0 64.1259 13.723 880 77.8568 119.875 521.737
874 0 66.224 13.6053 901 77.8935 120.345 519.205
875 0 68.2108 16.1118 1099 73.9854 120.653 520.329
876 0 70.2336 13.0422 916 78.0775 120.764 520.56
877 0 73.2394 14.6096 1070 75.1888 120.577 516.635
878 0 74.1875 13.5468 1005 77.0448 120.037 516.235
879 0 77.1199 14.3024 1103 75.369 120.289 516.768
880 0 79.1928 13.1578 1042 77.8273 120.55 513.287
881 1 39.149 12.5674 492 77.6728 120.909 534.077
882 0 39.1292 13.6216 533 78.8743 120.795 532.529
883 0 41.1612 12.5118 515 78.3631 120.763 534.171
884 0 43.2291 13.6482 590 78.3356 120.753 529.364
885 0 43.1362 13.8399 597 78.8325 120.935 529.119
886 0 45.0998 13.2373 597 79.0519 120.926 529.357
887 0 46.0613 12.9827 598 79.9933 120.809 528.318
888 0 49.1641 14.3194 704 75.2429 120.925 530.878
889 0 49.1227 13.965 686 77.1516 121.004 528.341
890 0 50.1238 14.6038 732 76.8033 121.26 526.007
891 0 53.2754 13.8525 738 77.0271 120.733 526.9
892 0 54.114 13.1574 712 77.4649 120.948 525.926
893 0 55.2153 13.3659 738 77.2954 121.617 525.519
894 0 58.2139 14.8418 864 74.3426 120.962 525.472
895 0 61.2153 13.8854 850 75.7306 120.872 523.742
896 0 63.1983 14.4149 911 74.6663 120.875 522.943
897 0 64.0653 14.5789 934 75.4368 120.81 519.391
898 0 65.1737 13.441 876 77.5993 120.873 519.618
899 0 69.224 14.6048 1011 74.366 121.113 522.225
900 0 71.1544 14.8269 1055 75.2322 121.303 516.572
901 0 74.0789 13.7286 1017 76.3845 120.944 518
902 0 76.1565 15.1793 1156 74.269 120.813 517.626
903 0 77.5081 14.6307 1134 76.2884 120.595 513.946
904 0 80.2859 14.2117 1141 76.5013 120.484 514.04
905 1 35.1802 12.5355 441 79.517 120.832 534.601
906 0 37.1362 12.2522 455 79.9077 120.807 533.543
907 0 40.1685 12.8708 517 77.9865 120.888 533.135
908 0 39.1179 14.2134 556 77.75 121.275 531.408
909 0 40.1403 14.2749 573 78.5742 121.611 532.314
910 0 43.0791 13.394 577 79.1438 122.381 531.719
911 0 45.0909 12.752 575 78.767 122.123 531.79
912 0 43.2318 13.3235 576 79.1493 122.2 530.786
913 0 44.1604 14.1529 625 78.9248 122.523 528.422
914 0 48.1573 13.9958 674 77.1884 122.276 530.187
915 0 49.2873 13.817 681 78.1968 121.463 527.855
916 0 51.3245 13.4049 688 78.0988 121.733 527.57
917 0 53.1075 13.5951 722 77.8006 121.526 526.789
918 0 53.1485 12.6814 674 78.8338 121.527 527.42
919 0 57.2711 14.4052 825 75.5418 120.996 526.245
920 0 55.2488 11.9822 662 80.716 120.98 525.08
921 0 60.2113 14.3329 863 75.8644 120.794 523.834
922 0 59.1034 12.7235 752 79.1489 121.367 523.209
923 0 64.1583 13.2329 849 77.6372 120.677 521.336
924 0 66.1302 15.4392 1021 74.2458 121.195 520.156
925 0 67.1736 13.1451 883 78.1495 121.445 518.24
926 0 70.2297 14.5665 1023 75.9707 121.11 518.942
927 0 72.2206 13.1818 952 78.3971 121.502 517.765
928 0 75.2091 14.001 1053 76.905 121.111 517.741
929 0 77.216 14.1422 1092 77.2628 121.132 516.94
930 1 39.0796 14.3297 560 76.9536 121.196 533.275
931 0 40.1345 14.1773 569 77.5694 121.369 532.796
932 0 38.1091 12.9628 494 81.3603 121.119 532.113
933 0 42.2615 14.1263 597 77.4489 121.543 531.998
934 0 42.5365 13.7529 585 78.8188 121.75 531.834
935 0 45.104 14.4555 652 77.1794 121.693 530.931
936 0 43.2719 13.3343 577 80.2374 122.099 530.383
937 0 45.1522 13.7535 621 80.0644 121.948 528.866
938 0 46.1292 14.0041 646 79.8669 121.859 529.87
939 0 48.1432 13.9376 671 79.8465 121.334 528.545
940 0 48.1692 13.6187 656 80.5198 120.87 528.931
941 0 50.1269 15.3411 769 78.6658 121.261 526.754
942 0 52.1416 13.099 683 81.306 121.716 527.163
943 0 54.149 14.1831 768 79.4922 121.332 525.352
944 0 58.1059 16.5732 963 75.1703 122.034 525.243
945 0 59.1098 15.1582 896 76.8828 122 525.372
946 0 57.2649 13.4463 770 80.939 121.587 524.54
947 0 63.1283 14.9537 944 77.5678 122.198 522.928
948 0 62.2038 14.6293 910 78.7275 121.995 520.148
949 0 66.1854 15.6983 1039 76.2887 122.352 520.9
950 0 66.1976 13.8223 915 80.3792 121.754 517.362
951 0 71.1628 14.1225 1005 78.4527 121.792 518.91
952 0 73.2279 14.5163 1063 77.8928 121.217 515.778
953 0 75.0933 13.6231 1023 78.5308 121.656 517.949
954 0 79.2714 15.3902 1220 75.7541 121.777 513.83
955 0 80.2342 14.0588 1128 77.9424 120.738 514.539
956 0 81.2437 11.8409 962 82.1715 121.712 513.774
957 0 84.2521 13.1985 1112 79.5252 120.986 511.922
958 0 88.3594 13.7507 1215 78.4412 121.586 511.937
959 0 94.4633 15.5404 1468 75.3304 120.891 508.417
960 1 42.063 12.5764 529 80.3384 121.374 530.446
961 0 43.2555 14.3103 619 78.643 121.727 530.785
962 0 46.0881 13.8431 638 79.185 121.547 530.155
963 0 47.4313 15.6437 742 76.1482 122.128 529.652
964 0 45.2026 13.9594 631 81.9889 121.097 527.051
965 0 50.0772 15.9154 797 77.3538 121.427 527.263
966 0 52.3155 15.8653 830 76.8434 121.74 527.382
967 0 52.3657 14.7807 774 79.6796 121.402 526.716
968 0 52.0322 15.3559 799 79.3567 121.547 525.647
969 0 55.058 12.8773 709 83.2158 121.43 526.814
970 0 57.1102 15.0411 859 80.0081 121.707 525.054
971 0 59.3001 15.3288 909 80.0517 121.615 523.206
972 0 61.2613 15.034 921 80.6504 121.695 523.539
973 0 63.069 14.6823 926 81.9665 121.878 522.305
974 0 63.2605 13.3258 843 85.1518 121.597 521.53
975 0 67.257 14.8386 998 81.7876 121.379 521.606
976 0 66.2244 14.6623 971 83.7446 121.446 517.996
977 0 69.141 14.7669 1021 83.9863 121.39 516.485
978 0 72.0763 14.6511 1056 83.5938 121.206 517.583
979 0 73.2281 14.7894 1083 84.3777 121.09 515.669
980 0 77.075 15.2579 1176 82.7253 121.514 514.426
981 0 80.1181 14.254 1142 83.9256 121.173 514.623
982 0 82.1358 14.8169 1217 83.2917 121.717 512.189
983 0 85.1699 14.9349 1272 82.2335 121.59 513.833
984 0 88.1835 14.776 1303 82.8649 121.728 512.045
985 1 50.1114 15.5853 781 84.1229 121.944 527.472
986 0 48.1678 13.7644 663 88.5852 121.655 526.056
987 0 52.2678 13.7943 721 86.4452 122.06 527.712
988 0 53.0705 13.7741 731 87.4966 121.754 526.126
989 0 54.2867 13.9445 757 87.2985 120.955 526.235
990 0 55.3311 13.862 767 88.7405 121.851 524.828
991 0 57.167 14.3264 819 86.3651 121.368 526.074
992 0 61.2643 15.5719 954 83.935 121.601 523.543
993 0 61.4402 13.7044 842 88.2494 121.506 523.091
994 0 64.1291 15.2661 979 85.1256 121.914 521.613
995 0 67.2278 15.559 1046 84.3432 121.304 520.631
996 0 66.4224 15.6423 1039 85.3215 122.044 521.551
997 0 67.2976 15.424 1038 87.396 121.681 518.471
998 0 69.1722 16.1047 1114 86.7998 121.232 518.024
999 0 72.3395 14.9849 1084 88.7841 121.678 517.475
1000 0 72.0693 15.721 1133 88.0318 121.24 516.874
1001 0 73.1716 14.7872 1082 90.3004 121.33 517.262
1002 0 76.1653 14.8624 1132 90.3375 121.305 518.258
1003 0 75.2273 15.2072 1144 90.8051 121.055 517.435
1004 0 79.1283 16.0499 1270 89.5417 121.199 517.216
1005 0 79.1922 14.9762 1186 93.3078 120.466 515.342
1006 0 80.1081 16.5277 1324 91.1843 120.847 514.236
1007 0 81.104 16.633 1349 91.5219 121.163 513.905
1008 0 82.2307 15.6511 1287 94.418 120.723 513.297
1009 0 81.2973 14.3424 1166 98.8182 120.586 512.859
1010 0 84.2521 15.0382 1267 97.2328 120.808 513.571
1011 0 84.1421 15.0935 1270 98.3535 121.055 513.261
1012 0 87.1683 15.407 1343 97.2934 120.383 512.491
1013 0 88.1517 15.3032 1349 97.8221 120.586 513.685
1014 0 89.1536 14.8171 1321 100.063 120.657 512.998
1015 0 90.275 14.3451 1295 100.205 120.542 512.486
1016 0 91.2479 14.5757 1330 99.2707 121.198 515.044
1017 0 92.2781 14.9873 1383 100.19 121.228 511.86
1018 1 54.1982 12.934 701 108.832 121.19 530.866
1019 0 54.183 14.0634 762 106.86 120.824 529.047
1020 0 54.1046 14.8971 806 106.677 120.792 528.258
1021 0 55.2473 14.2993 790 108.527 120.514 527.806
1022 0 54.2255 14.495 786 108.628 120.774 526.106
1023 0 54.4158 13.8747 755 110.14 120.415 527.672
1024 0 55.1859 14.5146 801 109.245 120.677 525.337
1025 0 57.1816 15.3896 880 104.997 120.368 527.345
1026 0 56.1431 14.8549 834 107.291 120.755 529.101
1027 0 56.1722 15.8619 891 105.219 119.914 528.52
1028 0 55.2339 14.3209 791 110.769 120.2 527.785
1029 0 57.0862 14.0314 801 111.392 119.978 526.984
1030 0 57.0452 15.2861 872 108.837 119.705 527.19
1031 0 58.1844 14.1275 822 111.178 119.676 527.811
1032 0 60.1279 14.6355 880 107.926 120.202 527.262
1033 0 56.1232 14.6998 825 110.713 120.427 527.292
1034 0 59.0696 15.2532 901 107.505 120.064 526.991
1035 0 59.1375 15.9628 944 105.443 120.381 527.405
1036 0 59.1273 14.3588 849 110.431 119.86 525.875
1037 0 60.2805 15.179 915 107.095 120.102 527.501
1038 0 61.0231 15.191 927 106.57 119.335 527.51
1039 0 60.1191 15.9018 956 105.169 119.568 527.885
1040 0 58.2491 14.232 829 111.271 118.888 527.61
1041 0 59.1942 14.2919 846 110.876 119.469 527.194
1042 0 59.137 14.9991 887 108.462 119.569 528.346
1043 0 61.223 14.9944 918 107.904 119.718 527.342
1044 0 61.0807 15.4877 946 106.321 119.345 526.486
1045 0 62.0858 15.6235 970 105.812 119.372 526.373
1046 0 60.1658 14.4268 868 109.121 119.145 527.063
1047 0 61.0203 14.6345 893 108.929 119.103 526.39
1048 0 62.0744 14.5632 904 108.18 120.372 526.107
1049 0 61.1027 15.2203 930 106.954 120.14 525.884
1050 0 61.0856 14.537 888 108.589 119.8 525.556
1051 0 62.0589 14.3896 893 108.683 119.555 527.163
1052 0 62.0659 15.6608 972 105.437 119.498 526.305
1053 0 62.0433 14.9573 928 107.677 119.512 525.335
1054 0 62.0859 14.7216 914 108.289 119.123 527.384
1055 0 63.0447 15.7031 990 105.931 119.706 526.392
1056 0 61.0626 14.5916 891 109.057 119.315 526.215
1057 0 62.168 15.4259 959 106.752 119.344 525.625
1058 0 63.1269 14.7322 930 107.409 119.291 525.817
1059 0 63.1011 15.5306 980 104.986 119.631 525.792
1060 0 61.0781 15.4065 941 107.363 119.43 525.8
1061 0 64.0642 16.421 1052 102.72 119.742 527.9
1062 0 63.1429 15.4887 978 105.518 119.815 528.672
1063 0 63.1637 14.6445 925 107.641 119.95 527.838
1064 0 66.0911 15.0852 997 104.329 119.618 527.963
1065 0 64.0876 14.4646 927 108.125 120.045 527.519
1066 0 63.0444 14.1964 895 108.769 119.413 527.683
1067 0 62.0528 14.6488 909 107.699 119.366 526.366
1068 0 63.0488 15.1629 956 105.689 119.945 526.149
1069 0 64.1513 14.7932 949 107.07 119.583 527.759
1070 0 64.0986 15.1954 974 107.28 120.595 527.109
1071 0 64.071 15.2799 979 106.662 119.75 527.014
1072 0 65.1951 15.7681 1028 104.035 120.132 527.737
