time division length width area intensity CMx CMy
0 0 42.1962 10.854 458 61.3341 201.43 513.838
1 0 44.1522 12.1398 536 59.6884 200.784 512.073
2 0 45.199 12.9649 586 58.7696 201.218 512.002
3 0 45.1207 11.3252 511 61.3092 200.748 512.395
4 0 46.1026 12.4722 575 59.5583 199.995 512.647
5 0 46.1815 10.9784 507 62.0473 199.154 512.385
6 0 48.0476 11.6967 562 60.9715 199.48 511.486
7 0 49.0804 12.8157 629 59.9952 199.739 511.874
8 0 53.0671 11.4949 610 60.841 199.574 512.402
9 0 53.0661 13.3607 709 58.787 199.14 512.006
10 0 52.0803 11.7895 614 61.0081 199.073 512.137
11 0 53.0281 10.7867 572 62.7133 198.117 511.813
12 0 56.0822 10.7521 603 62.529 198.784 511.232
13 0 56.0915 12.337 692 60.9566 199.22 510.448
14 0 58.0995 11.3598 660 61.6576 198.715 512.061
15 0 60.0256 12.6613 760 60.0079 199.099 511.512
16 0 60.1004 12.2961 739 61.2517 199.819 510.179
17 0 60.085 11.1842 672 62.3661 198.634 509.994
18 0 63.0938 12.3943 782 60.4668 198.83 508.751
19 0 66.1432 11.6112 768 61.4388 198.889 506.699
20 0 66.1251 11.2817 746 62.0442 198.82 507.554
21 0 67.1497 10.4245 700 63.1286 198.716 506.281
22 0 70.1174 11.8943 834 61.5336 198.452 505.56
23 0 73.132 14.1525 1035 59.5343 198.335 502.87
24 0 75.1045 11.5173 865 62.5908 198.453 503.363
25 0 77.1736 12.271 947 62.0665 198.213 500.732
26 0 78.0404 11.0584 863 64.2549 198.73 499.729
27 0 82.182 11.4624 942 64.0382 198.133 498.714
28 1 42.0595 10.7467 452 63.4049 198.874 518.861
29 0 43.1007 10.5799 456 65.3224 199.95 517.958
30 0 44.0277 12.1969 537 64.1248 199.497 516.099
31 0 45.0618 11.3844 513 65.2963 199.634 516.273
32 0 49.0389 12.8673 631 63.3883 199.65 514.12
33 0 47.0324 13.0123 612 63.799 199.425 515.064
34 0 50.1047 11.5558 579 65.6874 198.499 513.739
35 0 50.0186 12.5953 630 65.2095 199.148 512.34
36 0 53.0585 13.8149 733 63.0259 199.963 511.742
37 0 53.1185 12.218 649 65.9615 199.598 511.384
38 0 56.0742 12.6975 712 65.2205 199.913 510.213
39 0 57.0298 11.8184 674 65.6884 200.113 511.657
40 0 58.0893 11.4823 667 66.2789 200.897 511.283
41 0 60.0289 11.9109 715 66.3804 200.229 509.99
42 0 62.1003 12.1416 754 66.5146 199.57 507.529
43 0 64.0468 11.6946 749 66.4927 200.105 507.527
44 0 65.0885 11.2616 733 68.6207 199.812 504.096
45 0 68.0654 11.724 798 66.4236 200.193 507.479
46 0 70.2106 11.3658 798 67.7995 200.063 505.719
47 0 73.0721 11.9334 872 67.2133 199.916 505.127
48 1 38.0107 11.2074 426 66.5376 199.939 519.953
49 0 38.0267 9.57222 364 69.5385 200.525 520.599
50 0 39.0408 11.6289 454 68.3348 200.172 518.322
51 0 41.0143 11.5569 474 67.6983 200.411 518.684
52 0 44.0236 12.0844 532 66.5714 200.476 516.049
53 0 44.0456 11.647 513 67.8226 200.511 516.889
54 0 45.0284 11.9036 536 68.3937 200.703 514.556
55 0 47.0267 12.3759 582 68.165 200.175 514.921
56 0 49.0343 11.1554 547 69.2249 200.252 515.804
57 0 50.0283 12.9727 649 68.0755 200.989 514.196
58 0 52.0563 12.9283 673 68.3269 201.893 513.177
59 0 55.0418 13.299 732 67.7336 200.728 512.224
60 0 54.1351 10.9171 591 71.731 201.051 511.97
61 0 56.0365 12.8488 720 69.8653 201.381 510.175
62 0 58.0434 12.5251 727 70.1513 200.322 510.425
63 0 58.0547 11.8509 688 71.4767 200.267 509.192
64 0 63.0735 11.3201 714 71.8557 200.882 508.7
65 0 64.1309 12.0223 771 71.8599 201.423 505.563
66 0 66.072 12.1383 802 71.5187 201.049 506.923
67 0 68.0947 12.2477 834 72.2314 201.421 503.296
68 0 68.1067 11.8637 808 73.5148 200.515 503.077
69 0 70.1109 12.4374 872 73.5344 200.27 502.702
70 0 73.0602 12.8661 940 72.7181 200.301 501.705
71 1 37.0839 10.8672 403 72.2556 200.062 519.968
72 0 39.0184 10.7385 419 72.2625 200.47 520.086
73 0 40.0665 12.4044 497 70.5191 200.195 518.928
74 0 38.0439 11.0136 419 73.7064 200.43 519.41
75 0 41.0637 10.7638 442 72.8507 201.147 519.572
76 0 42.0346 11.2289 472 73.4852 201.153 517.18
77 0 43.0299 12.4332 535 71.3813 200.561 516.434
78 0 44.0162 12.041 530 71.8566 201.262 516.819
79 0 45.0811 12.0671 544 71.3952 201.167 516.395
80 0 44.0811 11.4789 506 73.5336 200.771 515.053
81 0 47.0905 10.6179 500 73.738 200.618 515.094
82 0 48.0241 11.1819 537 72.771 200.996 514.376
83 0 50.0497 11.9481 598 71.7793 200.91 513.632
84 0 50.1231 11.4119 572 73.2133 200.6 513.044
85 0 53.0724 12.0213 638 71.2257 201.146 513.981
86 0 55.1402 12.3322 680 70.5191 201.582 511.66
87 0 55.0524 13.5507 746 68.4075 201.378 512.176
88 0 55.0593 12.096 666 70.8859 201.383 510.027
89 0 58.0539 10.3697 602 72.0017 201.331 510.934
90 0 59.0858 10.984 649 72.0046 201.59 509.06
91 0 61.0673 9.97261 609 72.4598 201.386 509.374
92 0 63.0302 11.6452 734 70.9387 201.237 506.193
93 0 66.0465 12.688 838 69.136 200.541 506.088
94 0 67.0556 11.8111 792 70.9343 200.217 505.176
95 0 69.0628 12.3076 850 70.0612 200.308 503.978
96 0 69.1337 11.9479 826 71.5496 200.322 503.197
97 0 73.0694 12.8508 939 70.6006 200.632 500.372
98 0 78.0773 12.4236 970 70.2773 200.638 500.444
99 0 79.0932 13.364 1057 69.2744 200.377 497.289
100 0 81.0543 11.8192 958 71.9092 200.534 498.375
101 1 40.0498 11.9851 480 69.125 200.944 517.108
102 0 42.0353 11.2762 474 69.8966 200.914 516.766
103 0 45.0249 12.7485 574 67.6498 200.737 515.183
104 0 44.0426 11.1029 489 70.1125 201.057 514.258
105 0 48.0606 12.1097 582 67.9845 201.622 513.448
106 0 48.0671 12.1913 586 67.7065 200.367 514.476
107 0 49.0201 10.4855 514 71.8113 200.922 510.642
108 0 53.1049 11.4114 606 62.4686 200.784 512.38
109 0 54.062 11.7458 635 68.1339 200.849 510.12
110 0 54.0184 11.9404 645 68.2589 201.132 509.566
111 0 56.0674 12.7525 715 67.6098 200.638 507.081
112 0 58.0561 10.9721 637 69.4396 201.113 508.234
113 0 59.1311 11.6013 686 69.1924 200.832 506.602
114 0 61.0386 12.3856 756 68.1138 200.747 506.016
115 0 64.0801 12.2347 784 68.2474 201.386 503.93
116 0 64.0748 11.3617 728 69.3324 201.324 505.558
117 0 68.0538 13.2101 899 66.4483 200.968 503.398
118 1 32.0128 10.8707 348 67.7787 201.244 518.494
119 0 34.0172 10.9062 371 67.6415 201.121 518.528
120 0 36.1168 10.1061 365 67.8794 200.836 517.816
121 0 36.0337 10.8509 391 66.2225 200.951 519.228
122 0 39.031 10.9913 429 65.9674 201.119 517.436
123 0 38.1235 11.83 451 66.1197 201.004 515.348
124 0 39.012 10.7916 421 66.9501 200.914 516.613
125 0 42.0149 11.9957 504 64.7917 199.837 514.744
126 0 41.0471 11.1823 459 66.6166 199.573 515.181
127 0 44.0434 11.3979 502 65.9701 199.992 514.028
128 0 44.0344 10.401 458 67.5655 201.448 513.533
129 0 46.0475 10.9018 502 66.6793 201.398 512.976
130 0 47.0298 11.4821 540 66.1722 200.622 511.657
131 0 50.013 13.4565 673 63.0996 200.319 508.253
132 0 52.0765 12.4048 646 64.2601 200.653 509.601
133 0 50.0248 9.8551 493 68.7972 201.01 509.996
134 0 54.0504 13.0434 705 64.1291 201.111 509.24
135 0 56.1037 11.3362 636 65.6682 201.09 508.67
136 0 56.0603 11.559 648 66.2654 201.063 507.037
137 0 59.0446 12.3635 730 65.137 200.942 505.977
138 0 62.0396 11.9601 742 64.9811 200.654 505.469
139 0 60.0473 11.0413 663 67.8054 200.671 504.354
140 0 63.2543 11.7304 742 66.7318 201.29 504.046
141 0 67.081 12.0601 809 65.9592 201.122 502.276
142 0 69.0575 12.4244 858 65.7448 201.36 501.393
143 0 69.0245 12.1986 842 66.5914 200.667 499.873
144 0 73.1475 12.3039 900 65.5322 201.347 499.029
145 0 74.0932 12.1874 903 66.2547 201.006 494.483
146 1 38.0394 10.2262 389 66.7635 201.008 514.208
147 0 38.0127 11.8381 450 65.0222 200.731 514.2
148 0 38.0179 10.0216 381 68.0682 200.798 515.373
149 0 42.0878 11.4523 482 65.6369 200.502 514.224
150 0 43.0651 11.6103 500 66.136 201.146 512.822
151 0 46.0292 11.7534 541 64.1996 200.466 512.989
152 0 45.0483 11.3434 511 66.3738 200.56 511.818
153 0 48.2381 12.3968 598 64.4114 200.423 511.366
154 0 48.0462 11.0102 529 67.0378 201.055 512.093
155 0 51.033 12.5409 640 64.7125 200.961 511.025
156 0 53.0307 12.4456 660 64.5652 201.361 510.138
157 0 54.0371 12.0473 651 65.2965 200.18 508.074
158 0 55.0756 12.6735 698 64.8052 200.915 506.444
159 0 56.0593 12.2727 688 64.8067 200.558 508.292
160 0 57.0868 10.668 609 67.7126 200.501 506.379
161 0 60.0564 10.4735 629 67.8808 200.404 506.04
162 0 61.0346 11.5508 705 66.227 200.47 503.231
163 0 64.075 11.8923 762 65.2165 200.728 503.768
164 0 66.0901 13.179 871 63.2216 200.072 503.907
165 0 68.0487 11.9032 810 64.8457 201.11 504.162
166 0 69.1338 12.2661 848 65.283 201.202 501.064
167 0 72.1314 11.6593 841 66.6861 200.553 497.356
168 1 41.0311 11.1379 457 64.5952 201.094 514.768
169 0 40.1202 11.7397 471 64.051 200.439 515.442
170 0 41.0455 12.0354 494 65.2348 200.931 513.042
171 0 43.0561 11.4966 495 65.8384 200.594 512.707
172 0 44.0271 10.2891 453 66.7506 201.137 514.344
173 0 47.0357 12.0334 566 64.1378 200.67 514.385
174 0 49.0491 12.1511 596 65.0302 201.191 512.18
175 0 48.0195 11.5578 555 67.0288 200.553 510.838
176 0 51.1876 12.503 640 65.4828 200.666 511.456
177 0 52.0877 13.0165 678 65.09 200.409 511.588
178 0 53.0745 13.1702 699 65.4836 200.867 509.402
179 0 55.0503 12.2433 674 67.2997 201.62 507.522
180 0 57.0406 12.9031 736 66.284 201.693 508.283
181 0 58.1169 12.3888 720 66.7931 201.615 508.71
182 0 57.1129 11.9588 683 68.4012 201.363 507.088
183 0 59.1038 11.4206 675 69.7526 200.769 506.241
184 0 64.1375 13.0813 839 66.3147 200.348 505.311
185 0 64.1737 11.7805 756 68.713 199.881 506.041
186 0 68.0734 14.4844 986 64.3002 199.319 505.168
187 0 69.0976 12.6054 871 67.4466 199.25 504.03
188 0 71.1512 12.4805 888 67.9336 198.839 501.787
189 0 73.1018 13.1734 963 67.3842 199.199 499.666
190 0 73.067 13.2755 970 67.233 198.887 502.194
191 1 41.081 11.9277 490 67.2714 198.506 516.353
192 0 43.0527 11.9156 513 67.3704 198.967 516.596
193 0 44.0348 10.5371 464 69.1099 198.823 517.418
194 0 43.1617 11.7465 507 68.572 198.649 516.481
195 0 47.0225 13.6105 640 65.3391 197.722 515.775
196 0 48.0811 11.9382 574 67.6603 198.537 516.801
197 0 48.0807 12.895 620 66.8645 199.211 514.945
198 0 51.0546 12.6139 644 66.5575 198.812 516.047
199 0 51.1293 11.8328 605 68.3769 197.878 515.349
200 0 53.0449 12.7628 677 67.7341 197.926 513.874
201 0 55.0881 12.126 668 68.747 198.467 512.801
202 0 58.1217 13.1448 764 67.0733 197.75 512.876
203 0 57.0479 11.2712 643 70.1151 197.4 513.058
204 0 60.0537 13.8709 833 66.3746 197.363 512.603
205 0 62.0429 12.2335 759 69.2003 197.273 512.565
206 0 64.0641 11.9099 763 69.0406 197.042 513.493
207 0 66.1715 13.9788 925 65.8832 197.859 511.482
208 0 67.079 11.8368 794 69.9068 197.5 508.778
209 0 70.0541 13.2041 925 67.5557 197.279 509.936
210 0 72.0469 12.7139 916 68.7445 196.656 508.737
211 0 69.0959 11.5202 796 71.9296 197.077 505.758
212 0 73.1204 12.1307 887 70.5592 196.981 506.546
213 0 78.1526 13.5504 1059 68.1926 196.128 503.824
214 1 40.0214 11.319 453 68.5077 196.263 523.951
215 0 43.0617 10.4037 448 70.6987 196.116 521.661
216 0 43.0504 10.4529 450 71.9689 196.242 520.116
217 0 44.0749 11.2309 495 71.2162 195.863 519.719
218 0 46.1081 11.8417 546 70.3993 195.419 519.247
219 0 47.0668 12.0892 569 69.8418 196.158 518.83
220 0 48.0573 12.4643 599 69.8481 195.417 517.142
221 0 51.0815 11.4523 585 70.7761 195.034 516.359
222 0 50.0647 12.1243 607 71.2356 196.036 516.837
223 0 52.0523 12.9101 672 69.8125 195.774 516.021
224 0 56.0297 13.4036 751 68.6405 195.676 513.94
225 0 55.0629 12.3132 678 70.6637 194.931 514.802
226 0 56.0186 12.7101 712 71.0843 195.392 510.563
227 0 59.0451 12.3465 729 70.6516 194.824 511.322
228 0 60.0438 11.9746 719 71.6481 195.925 510.134
229 0 61.0331 12.3376 753 70.6547 195.928 509.579
230 0 64.1015 12.449 798 70.5965 195.683 508.332
231 0 66.0575 13.6548 902 68.9091 195.602 506.726
232 0 69.105 11.5476 798 71.2857 196.152 506.124
233 0 69.0652 11.9742 827 71.0786 195.927 504.203
234 0 73.0471 13.9773 1021 67.9696 195.382 503.208
235 0 75.071 13.334 1001 68.948 195.58 502.584
236 0 77.0427 12.2919 947 71.6357 195.912 500.081
237 0 79.1162 13.6887 1083 69.036 195.59 498.852
238 1 43.0185 11.3207 487 67.8665 196.287 517.815
239 0 43.0329 10.6895 460 70.4261 196.243 517.237
240 0 45.0196 10.3733 467 70.5674 196.604 516.229
241 0 47.0259 11.6319 547 68.3309 196.541 516.541
242 0 49.0671 11.7187 575 68.1756 196.57 515.557
243 0 49.0478 12.0698 592 67.8953 196.071 514.027
244 0 50.0338 10.8527 543 70.2854 195.674 512.726
245 0 52.0228 12.1678 633 67.8167 196.446 512.927
246 0 56.0709 11.8065 662 67.923 196.65 511.585
247 0 56.0866 12.2489 687 67.6929 196.051 511.712
248 0 57.113 11.9938 685 68.292 196.536 509.87
249 0 57.0904 11.4555 654 69.7783 196.971 509.24
250 0 61.1328 12.2357 748 67.9104 196.651 509.056
251 0 61.0638 12.2495 748 68.4946 196.231 508.468
252 0 65.048 11.6376 757 68.5548 196.226 508.705
253 0 67.0923 13.1312 881 66.891 196.24 506.871
254 0 69.111 12.8055 885 66.6893 196.863 507.575
255 0 71.0589 12.173 865 68.548 196.305 505.904
256 0 73.0806 11.891 869 68.0736 196.314 507.171
257 0 76.0448 13.1107 997 66.6249 196.515 503.576
258 0 78.1123 12.2644 958 68.0042 196.435 502.85
259 0 82.1276 11.6526 957 68.2048 196.213 502.549
260 0 83.1345 13.1955 1097 66.4366 195.854 501.048
261 1 45.0189 10.0402 452 65.5774 196.066 521.949
262 0 45.0881 10.2022 460 66.4065 196.126 519.887
263 0 45.0997 10.0001 451 68.2727 196.761 518.834
264 0 47.1826 11.7416 554 65.3357 195.962 519.334
265 0 49.1039 11.0786 544 66.114 195.658 520.186
266 0 49.0403 10.4404 512 68.7305 195.283 517.645
267 0 51.119 10.8961 557 68.219 195.203 517.411
268 0 52.0358 10.0123 521 70.0883 195.073 517.37
269 0 53.2336 11.0269 587 68.8722 195.039 516.431
270 0 55.1885 11.651 643 67.79 195.21 515.283
271 0 55.2122 11.7547 649 68.0385 195.009 513.316
272 0 58.271 12.8194 747 65.7122 195.21 514.365
273 0 59.3179 12.5932 747 65.5716 195.098 515.09
274 0 60.1801 10.9505 659 68.4325 195.269 513.173
275 0 63.1757 11.8875 751 66.0266 194.744 512.628
276 0 65.1903 12.2257 797 65.7152 194.965 510.868
277 0 66.2416 11.9864 794 65.9194 194.948 510.962
278 0 69.2851 11.5321 799 65.567 195.178 511.498
279 0 71.3021 12.1736 868 65.2673 195.202 507.97
280 0 73.3987 12.6705 930 64.0151 195.852 508.991
281 0 73.1 10.2326 748 67.9318 194.921 506.508
282 0 78.0915 11.8579 926 65.514 194.751 504.794
283 0 81.1525 10.5357 855 66.9322 195.248 503.633
284 0 82.2285 10.9208 898 66.686 194.869 502.438
285 0 86.175 11.5927 999 65.1572 194.105 502.457
286 1 45.1255 10.7257 484 62.3988 194.742 522.682
287 0 47.1078 9.31906 439 65.0797 194.572 520.456
288 0 48.185 9.83709 474 64.1055 194.97 519.072
289 0 50.1846 11.3381 569 61.9596 194.654 518.369
290 0 51.0798 10.141 518 64.0135 194.969 518.556
291 0 50.0478 9.49093 475 65.3705 194.933 519.743
292 0 54.0185 10.8111 584 62.9024 194.714 520.015
293 0 52.1086 9.90239 516 65.936 194.808 518.57
294 0 55.0619 10.7152 590 65.0356 194.917 514.744
295 0 57.1313 8.90931 509 67.6542 194.813 516.031
296 0 58.1167 10.7714 626 65.1566 194.296 515.335
297 0 60.1259 10.661 641 66.4103 193.658 515.551
298 0 59.2534 11.0373 654 67.292 194.06 510.937
299 0 63.2128 10.8048 683 66.6911 194.015 512.628
300 0 64.1655 11.3145 726 66.2397 194.61 512.537
301 0 68.25 11.7802 804 64.8906 194.041 510.317
302 0 66.1787 10.4112 689 67.8215 193.714 509.81
303 0 69.2111 11.2554 779 66.8139 193.483 508.214
304 0 69.1324 10.7041 740 68.1784 192.984 505.999
305 0 72.2121 10.3999 751 67.9108 192.868 509.217
306 0 78.2763 12.0215 941 65.2859 193.04 506.056
307 0 79.1779 11.8467 938 65.7409 192.926 504.947
308 0 81.1775 13.2919 1079 64.6089 194.036 500.289
309 1 40.1181 10.2697 412 66.7379 194.366 520.626
310 0 41.0926 9.68544 398 67.4523 193.626 520.716
311 0 44.0877 9.52648 420 66.6405 194.205 520.698
312 0 42.04 9.46717 398 67.8291 193.761 519.063
313 0 46.1123 10.3226 476 64.874 192.849 519.595
314 0 45.1195 10.6606 481 66.2744 193.784 517.94
315 0 48.0732 10.8376 521 66.1478 193.651 516.545
316 0 48.0553 10.4671 503 67.3042 193.69 516.254
317 0 51.1856 11.5658 592 65.4341 194.069 514.986
318 0 51.1045 10.097 516 67.2946 193.965 516.959
319 0 54.0786 12.4263 672 64.3839 194.28 513.315
320 0 56.0903 11.4637 643 65.1975 194.026 514.888
321 0 58.0905 12.4461 723 63.7981 193.339 513.173
322 0 59.1368 12.4119 734 64.6989 193.501 511.045
323 0 61.2126 12.5301 767 63.807 193.422 512.061
324 0 60.1101 10.1813 612 67.5915 194.114 510.709
325 0 63.0431 10.8973 687 66.2125 193.77 510.905
326 0 66.0595 12.3828 818 64.2347 194.634 509.542
327 0 65.0944 11.6139 756 66.877 194.319 508.725
328 0 65.1252 11.547 752 67.1609 194.668 507.447
329 0 69.0486 11.7598 812 66.9569 193.951 506.233
330 0 72.1147 11.8145 852 66.7476 193.418 504.955
331 0 75.1693 11.534 867 66.3875 193.558 506.161
332 0 78.0866 13.8308 1080 63.8472 194.158 502.679
333 0 78.0924 12.0242 939 66.8605 194.489 502
334 0 80.0685 12.0272 963 67.595 194.646 498.827
335 0 82.1641 11.3553 933 68.4019 193.629 499.331
336 0 85.094 11.3992 970 67.9289 193.92 497.712
337 0 87.1415 11.8658 1034 67.8075 193.686 498.687
338 1 48.0294 12.763 613 64.1093 194.622 518.323
339 0 48.0288 10.8268 520 67.8519 194.644 515.183
340 0 50.032 10.8331 542 68.0959 194.777 513.756
341 0 49.0131 10.9971 539 68 193.777 516.143
342 0 51.0408 11.0892 566 68.4594 194.269 513.684
343 0 51.0656 11.0054 562 68.621 194.237 514.226
344 0 54.0693 11.5962 627 66.193 193.892 514.922
345 0 55.0333 10.9752 604 67.106 194.526 514.618
346 0 56.0635 12.2718 688 66.7631 194.218 509.852
347 0 57.1108 11.8717 678 67.3805 193.801 509.748
348 0 59.0352 12.6535 747 65.7992 193.633 509.556
349 0 62.1192 12.0092 746 65.5697 193.764 508.71
350 0 63.1205 12.9752 819 64.4506 193.562 506.103
351 0 63.0389 10.8663 685 67.2146 193.905 507.09
352 0 67.0281 13.2183 886 63.456 193.46 505.218
353 0 70.0638 12.089 847 63.7863 193.835 507.456
354 0 71.1051 12.4042 882 64.271 194.101 503.84
355 0 73.0537 13.7296 1003 62.5085 194.949 501.695
356 0 67.0909 8.52574 572 70.3496 194.561 499.184
357 0 72.0779 10.6413 767 68.0352 194.477 496.432
358 0 72.0638 10.227 737 68.3148 194.08 495.259
359 0 70.0643 7.27903 510 71.5373 193.614 491.174
360 0 76.0863 10.5801 805 67.9913 194.265 489.991
361 0 76.0569 9.71642 739 69.479 193.732 486.246
362 0 76.1083 8.94777 681 70.931 193.681 485.93
363 1 33.0321 6.87209 227 73.7533 193.885 510.357
364 0 41.0605 9.23028 379 70.4037 194.082 514.288
365 0 50.0183 11.8756 594 64.734 194.547 516.059
366 0 50.0554 10.6282 532 68.1278 194.799 514.361
367 0 50.0326 11.6124 581 67.5886 193.47 514.475
368 0 54.0703 11.707 633 67.8278 194.052 513.664
369 0 52.0476 10.721 558 70.7616 194.371 513.027
370 0 54.0274 11.6608 630 69.5444 194.344 511.952
371 0 57.0999 12.1016 691 68.437 194.191 513.208
372 0 58.0385 11.6474 676 69.0015 193.802 513.296
373 0 60.0527 13.3383 801 67.2609 194.21 511.198
374 0 61.0923 11.4253 698 69.755 194.659 511.39
375 0 65.0623 12.2652 798 68.287 194.697 510.297
376 0 66.0419 11.8712 784 69.7768 194.795 508.54
377 0 66.1215 10.8437 717 71.41 194.522 508.202
378 0 69.0953 12.765 882 68.7868 194.529 508.181
379 0 72.0537 12.3797 892 69.8004 193.851 505.271
380 0 74.1762 13.6971 1016 68.4026 193.685 502.693
381 0 77.091 13.5554 1045 68.5483 193.503 503.472
382 0 80.044 13.9298 1115 68.0197 193.446 501.025
383 0 80.0691 13.4259 1075 69.8474 193.971 499.227
384 0 86.0605 12.1078 1042 70.525 193.96 501.446
385 0 87.124 12.8552 1120 70.7455 194.656 498.01
386 0 90.0863 13.8978 1252 69.0288 194.003 496.778
387 0 90.1109 12.1184 1092 72.0421 193.72 496.61
388 0 96.1078 13.1623 1265 71.0569 193.83 494.091
389 1 48.0509 11.8624 570 70.3263 193.953 517.351
390 0 49.0485 11.4988 564 71.4539 194.605 516.129
391 0 52.0211 12.3411 642 69.9128 195.301 516.363
392 0 54.0705 11.7809 637 71.0063 195.05 515.531
393 0 55.1028 12.4494 686 70.5131 194.87 514.88
394 0 57.0528 12.8478 733 70.4093 194.377 513.349
395 0 56.0402 12.2234 685 71.454 194.19 515.288
396 0 60.0279 12.5442 753 70.5551 194.479 513.993
397 0 60.0916 11.2328 675 73.2963 194.102 513.236
398 0 64.067 13.4234 860 70.2174 194.681 510.286
399 0 64.0926 11.7486 753 72.583 194.628 511.85
400 0 66.0473 12.491 825 71.8618 194.435 510.347
401 0 69.0698 11.7852 814 72.6327 194.757 509.753
402 0 70.0938 12.9541 908 71.3612 194.819 507.939
403 0 72.1228 12.6451 912 72.4846 195.565 505.249
404 0 75.0328 13.3808 1004 71.2341 195.912 503.818
405 0 77.0604 13.2234 1019 71.9019 195.918 503.101
406 0 78.11 12.1751 951 74.3512 195.383 501.249
407 0 81.0781 10.8414 879 75.0819 195.934 504.078
408 0 83.0923 12.1913 1013 74.2991 195.299 500.102
409 1 44.0498 10.4881 462 73.8723 195.128 520.351
410 0 47.0866 11.808 556 72.009 194.385 519.514
411 0 45.0742 12.1577 548 72.9708 194.21 520.265
412 0 49.0635 12.8405 630 71.4302 194.294 517.087
413 0 50.0693 11.524 577 73.2998 194.804 518.373
414 0 50.0906 11.7188 587 74.4753 194.743 516.557
415 0 52.1583 13.0948 683 72.7614 194.546 515.552
416 0 54.0732 11.9283 645 72.5395 194.274 519.518
417 0 55.0775 12.3462 680 73.7471 194.824 514.669
418 0 56.0694 12.003 673 74.3076 194.817 515.529
419 0 58.1252 11.7333 682 74.044 193.694 513.865
420 0 60.0751 10.6866 642 75.7056 193.414 513.64
421 0 61.0534 11.6128 709 74.9901 193.271 512.251
422 0 64.0717 12.4392 797 73.5483 194.141 511.396
423 0 65.0753 12.0168 782 74.6547 194.393 509.885
424 0 68.084 10.9424 745 74.9826 194.03 511.04
425 0 70.0783 12.4718 874 72.9806 193.867 508.792
426 0 72.0874 12.4294 896 74.3672 193.99 505.52
427 0 72.0874 12.4294 896 147.657 193.975 505.526
428 1 37.0146 8.83435 327 75.4404 194.804 524.764
429 0 39.0559 10.7538 420 73.5833 194.236 522.105
430 0 39.0785 10.8244 423 74.6998 194.674 522.546
431 0 41.073 11.1752 459 73.9782 194.041 523.512
432 0 42.0596 11.2222 472 73.447 194.64 522.496
433 0 45.0692 13.1354 592 71.5422 194.042 518.806
434 0 44.0985 11.3383 500 75.31 194.992 519.368
435 0 44.0766 11.48 506 76.5237 195.308 515.899
436 0 48.0226 12.1401 583 74.3002 194.806 516.722
437 0 50.026 11.8339 592 73.1993 194.889 519.662
438 0 51.0549 11.282 576 75.3854 194.405 516.401
439 0 52.0444 11.7208 610 74.1639 193.961 517.67
440 0 53.0934 11.7152 622 73.9068 193.551 517.937
441 0 56.0487 13.4704 755 70.9695 194.195 516.217
442 0 55.0823 11.147 614 74.7199 194.261 516.396
443 0 58.1037 10.8599 631 73.6751 194.91 516.211
444 0 60.1185 12.4754 750 72.1307 194.383 513.348
445 0 61.09 11.704 715 72.8154 194.676 514.02
446 0 64.0807 13.1865 845 70.9882 194.764 512.931
447 0 64.0567 10.6312 681 74.4758 194.059 512.946
448 0 68.1072 13.0236 887 70.7779 194.192 510.494
449 0 71.0522 13.7504 977 69.478 194.079 508.988
450 0 73.0459 12.0746 882 71.5374 194.452 509
451 0 75.1549 12.0152 903 71.8782 194.023 507.21
452 0 78.0793 11.7829 920 72.5054 194.407 505.17
453 0 81.162 11.6434 945 72.1693 194.563 504.943
454 0 83.073 11.4839 954 71.9927 194.504 504.571
455 1 43.0748 10.2612 442 71.1425 195.516 523.423
456 0 45.1241 10.5708 477 70.6184 194.996 522.468
457 0 44.0619 10.4853 462 71.2013 194.615 522.708
458 0 46.0178 10.9088 502 71.3267 194.773 520.994
459 0 49.068 13.6545 670 67.2269 195.063 519.298
460 0 49.013 11.4051 559 70.6011 194.315 519.907
461 0 51.061 13.4545 687 68.0524 193.9 517.057
462 0 51.0544 11.3604 580 71.2879 193.7 516.512
463 0 54.0731 12.7235 688 69.0465 193.186 514.299
464 0 56.0666 12.7527 715 68.221 193.555 515.862
465 0 56.0276 12.3332 691 69.5456 194.26 515.365
466 0 59.0939 13.4532 795 67.6201 193.99 513.855
467 0 60.0642 12.4866 750 68.7893 193.441 513.641
468 0 60.2688 11.764 709 70.0155 194.752 513.45
469 0 63.0586 13.0196 821 68.1949 194.086 510.871
470 0 65.049 13.3745 870 68.0517 193.722 510.455
471 0 66.0927 12.9212 854 68.5796 193.849 510.509
472 0 67.1808 12.4291 835 69.8503 193.832 507.646
473 0 70.1066 12.3383 865 69.4856 193.717 508.141
474 0 72.1194 12.5209 903 69.6246 194.483 506.895
475 0 74.1487 13.446 997 68.5396 194.607 504.42
476 0 77.0974 12.1794 939 69.5059 193.745 505.76
477 0 81.1241 12.6966 1030 68.1767 193.471 506.37
478 0 81.114 12.39 1005 69.2647 193.945 505.958
479 0 84.1583 13.5459 1140 67.9316 194.061 501.012
480 1 43.0499 11.7538 506 70.2134 194.067 520.642
481 0 46.0345 10.5356 485 70.5402 193.901 521.454
482 0 47.0602 12.3459 581 69.5577 193.787 519.79
483 0 48.1119 10.9952 529 72.0151 193.972 520.142
484 0 49.0245 12.2388 600 70.4633 194.212 519.992
485 0 50.1466 11.8453 594 71.7879 193.53 518.029
486 0 55.1115 13.8628 764 67.2605 194.285 517.588
487 0 56.1112 12.7069 713 69.5778 193.909 516.508
488 0 56.0698 13.6616 766 69.2976 194.272 516.021
489 0 57.0616 12.2324 698 71.192 194.264 515.271
490 0 58.0587 11.3333 658 73.421 194.085 514.848
491 0 61.0521 12.8251 783 70.6577 194.467 514.507
492 0 64.0447 12.7411 816 70.2623 193.722 515.387
493 0 65.0618 14.5246 945 68.9354 193.863 510.376
494 0 67.0913 12.3861 831 71.8255 194.372 511.131
495 0 69.1016 13.0677 903 71.7863 194.333 508.98
496 0 73.1077 14.4444 1056 69.5331 193.721 506.391
497 0 74.1487 13.2437 982 71.9155 193.984 507.069
498 0 77.0906 13.6074 1049 70.9581 193.595 507.785
499 0 80.0856 13.8227 1107 70.4625 194.075 506.173
500 0 83.0954 13.4544 1118 72.0948 194.28 502.995
501 1 41.0686 11.4199 469 74.0917 194.599 523.064
502 0 43.0479 11.6614 502 74.7928 194.255 521.853
503 0 44.0333 12.2634 540 74.137 194.365 521.437
504 0 46.1267 11.0782 511 75.2407 194.258 522.301
505 0 45.0141 12.0629 543 76.0645 194.247 520.215
506 0 46.0663 10.8756 501 78.0379 194.086 518.856
507 0 49.039 11.5622 567 75.5362 193.854 519.178
508 0 50.0441 13.0485 653 74.2557 194.034 516.126
509 0 55.0411 11.9184 656 74.4588 194.029 516.884
510 0 54.0533 12.4322 672 75.0536 193.583 514.772
511 0 57.0744 12.107 691 75.1172 193.533 514.352
512 0 60.1612 12.8987 776 73.2049 193.896 513.878
513 0 61.0944 12.9799 793 73.5195 193.574 512.691
514 0 64.0605 14.1273 905 71.3657 193.851 511.75
515 0 66.1304 13.0802 865 73.1191 193.729 511.947
516 0 67.1468 12.361 830 74.0976 192.901 512.028
517 0 69.0713 13.2038 912 73.3936 192.944 509.332
518 0 71.0802 12.2678 872 74.8968 193.539 509.743
519 0 75.0916 12.7844 960 73.4083 193.418 507.849
520 0 79.0582 13.6608 1080 71.5806 193.006 506.868
521 0 79.062 12.4586 985 74.6558 193.368 505.361
522 0 81.0686 12.8163 1039 74.2907 193.462 504.208
523 0 86.0438 12.7609 1098 73.7414 193.184 500.945
524 1 46.0098 12.4104 571 71.2312 193.081 521.912
525 0 47.0288 10.6105 499 73.6774 192.898 522.134
526 0 48.075 13.2085 635 71.4504 193.213 519.217
527 0 48.0419 10.8655 522 74.6609 193.782 519.996
528 0 51.1114 12.0521 616 72.8636 193.118 519.005
529 0 52.0419 13.4507 700 70.9157 193.27 517.633
530 0 54.0241 12.8831 696 71.2055 192.822 518.8
531 0 55.0505 13.533 745 71.2 192.98 515.244
532 0 59.0587 13.0887 773 71.163 192.517 514.594
533 0 60.0425 14.4398 867 68.1361 192.874 516.272
534 0 62.0701 14.0486 872 69.7248 192.542 511.836
535 0 63.0346 13.7861 869 70.9137 192.703 511.306
536 0 66.0346 12.7812 844 71.3957 192.622 511.436
537 0 67.1272 14.0926 946 69.4281 193.467 509.34
538 0 70.0429 12.8207 898 70.5935 193.281 510.037
539 0 72.0649 11.9753 863 72.4229 193.706 507.782
540 0 74.0728 13.8647 1027 70.113 193.747 506.174
541 0 76.2286 13.066 996 71.0301 192.481 505.692
542 0 76.0897 12.4853 950 71.6621 193.602 507.372
543 0 79.0909 13.7563 1088 70.0129 193.007 505.091
544 0 82.0746 12.9882 1066 71.5347 193.479 502.796
545 0 84.0546 13.5745 1141 70.7476 192.83 499.971
546 0 87.1629 13.3658 1165 70.8283 192.85 499.532
547 0 90.1166 13.194 1189 70.6434 192.916 499.83
548 0 92.1031 14.8312 1366 68.4956 193.245 497.045
549 0 96.0832 13.4155 1289 70.2211 192.897 496.947
550 0 97.1641 14.1925 1379 69.5946 193.269 494.132
551 0 100.092 14.107 1412 69.2642 192.481 495.709
552 0 104.117 12.4764 1299 71.5135 192.627 492.234
553 1 52.0438 10.8562 565 72.1788 193.676 516.825
554 0 56.029 10.566 592 71.6182 192.878 516.208
555 0 57.0904 11.0877 633 71.3539 192.896 514.167
556 0 62.0465 12.9741 805 67.5217 192.878 513.92
557 0 60.0812 11.7175 704 69.8366 192.626 514.116
558 0 65.0522 11.4216 743 69.5787 192.686 512.038
559 0 65.0281 11.4258 743 69.1332 191.992 511.72
560 0 68.0902 11.4701 781 68.9757 192.936 509.667
561 0 70.0401 12.6927 889 67.6704 193.3 508.679
562 0 69.0762 11.5525 798 70.4023 193.321 506.337
563 0 75.0272 14.0482 1054 65.6158 193.339 507.424
564 0 76.1163 12.2576 933 68.1608 192.713 506.041
565 0 77.0424 12.0972 932 69.4152 192.321 502.087
566 0 83.1671 13.2384 1101 66.6058 192.609 502.398
567 0 85.0705 13.3654 1137 66.7872 192.651 499.72
568 0 86.1476 12.0143 1035 69.6251 192.736 497.546
569 0 89.2033 12.9704 1157 67.4123 192.309 498.917
570 0 93.1144 14.1654 1319 66.1077 192.038 495.901
571 0 95.1026 11.598 1103 69.1976 192.033 499.156
572 0 100.22 12.1932 1222 68.5818 192.349 496.414
573 1 50.0641 10.4067 521 69.096 192.445 517.937
574 0 52.0888 12.0563 628 67.3376 192.688 516.108
575 0 54.1865 10.8699 589 68.9932 192.964 515.61
576 0 55.0624 12.1862 671 68.0268 192.154 513.219
577 0 56.0705 11.7352 658 68.2979 192.774 513.429
578 0 56.0456 11.0803 621 70.0531 193.407 512.147
579 0 60.102 12.8448 772 67.1736 193.605 511.602
580 0 61.0365 12.1075 739 67.9784 193.959 511.461
581 0 64.1218 11.8836 762 67.9042 193.913 510.997
582 0 64.0654 11.3946 730 68.4699 193.756 508.418
583 0 68.1141 13.081 891 65.6644 194.407 507.528
584 0 70.0601 12.2895 861 66.3055 193.512 506.309
585 0 70.0738 11.4308 801 67.8439 193.976 507.422
586 0 72.0871 11.9578 862 67.9281 193.91 502.9
587 0 76.2173 12.0576 919 67.6921 193.376 502.54
588 0 77.0719 11.5217 888 68.0225 193.569 501.789
589 0 82.1741 11.573 951 67.7771 193.256 500.301
590 0 84.0665 11.5861 974 67.7659 192.427 496.622
591 0 87.1222 11.3978 993 68.1621 192.777 497.414
592 1 44.0697 11.4818 506 66.0415 192.603 518.658
593 0 45.0941 10.6666 481 67.9979 192.595 516.617
594 0 48.1482 12.0669 581 65.9105 192.948 515.534
595 0 50.0469 11.1296 557 67.4129 192.715 515.023
596 0 51.0291 10.8566 554 68.0235 193.585 515.48
597 0 52.103 11.2661 587 68.1175 192.731 514.724
598 0 53.1182 10.3543 550 70.4255 193.547 513.787
599 0 55.1287 10.539 581 70.7539 193.284 511.788
600 0 56.1475 11.3985 640 68.6781 192.956 511.492
601 0 59.0387 11.9583 706 68.4688 194.133 509.351
602 0 60.1392 10.5755 636 69.8774 193.892 509.914
603 0 61.105 10.4083 636 70.1824 194.173 509.159
604 0 63.0793 11.8581 748 67.984 193.872 504.862
605 0 67.1418 11.9896 805 67.9863 194.27 504.404
606 0 69.094 11.6797 807 67.2094 194.286 507.689
607 0 72.0857 12.721 917 65.7928 194.041 505.332
608 0 74.1216 11.9803 888 67.2883 193.489 501.84
609 0 74.1237 11.5078 853 67.8886 193.664 500.012
610 0 77.1118 11.9437 921 67.0152 193.744 501.041
611 0 81.168 12.3941 1006 66.4453 193.805 499.478
612 0 85.1563 12.389 1055 66.4427 194.044 497.762
613 0 86.2472 12.2323 1055 66.7365 194.084 495.814
614 0 91.2203 11.5544 1054 67.5674 194.367 495.207
615 1 48.1652 11.0246 531 67.0075 194.62 516.331
616 0 51.0453 9.97153 509 67.776 194.326 515.092
617 0 52.1232 10.4752 546 66.9048 194.963 514.414
618 0 54.0848 11.2231 607 65.9539 194.201 513.652
619 0 53.0987 11.0361 586 66.9164 194.283 512.05
620 0 56.1089 11.4599 643 66.4588 194.246 511.269
621 0 58.0632 11.4875 667 65.7601 194.171 511.169
622 0 59.043 10.6702 630 65.4476 194.765 511.9
623 0 61.0515 12.1209 740 63.8824 194.146 508.811
624 0 64.0327 12.4155 795 63.073 193.891 507.792
625 0 64.1438 12.6591 812 62.4052 193.908 510.647
626 0 67.1174 13.1859 885 61.8757 193.088 505.974
627 0 68.1561 13.1463 896 62.3326 193.581 503.792
628 0 70.1628 12.2144 857 62.8016 193.921 504.786
629 0 74.1692 13.0512 968 61.1167 194.013 504.327
630 0 76.2164 11.2312 856 63.0549 194.043 503.14
631 0 77.179 12.9698 1001 61.3367 193.865 502.666
632 0 77.0786 11.3001 871 63.7428 193.2 501.211
633 0 82.1004 11.9366 980 62.7429 193.774 500.168
634 0 84.0805 13.2016 1110 61.3694 193.104 500.83
635 0 85.1951 13.475 1148 61.3484 193.533 495.72
636 0 89.1501 12.6977 1132 62.2774 194.164 493.827
637 1 48.0687 10.589 509 64.167 194.845 515.234
638 0 49.0828 11.9186 585 63.1778 194.525 514.653
639 0 47.0287 8.48417 399 67.7293 194.173 515.99
640 0 52.0361 12.376 644 63.396 193.666 512.93
641 0 53.1363 12.722 676 64.3536 194.015 512.151
642 0 57.0843 12.0523 688 64.6061 193.547 512.938
643 0 58.032 13.3375 774 63.2623 193.664 512.076
644 0 58.0719 13.6211 791 63.8673 193.1 510.116
645 0 61.0909 12.2113 746 65.0214 192.76 510.665
646 0 61.2394 12.1327 743 66.319 193.487 508.668
647 0 63.1247 13.3704 844 64.4917 194.173 508.985
648 0 65.087 13.5357 881 64.756 192.959 507.598
649 0 65.0887 13.9502 908 65.0055 193.183 504.911
650 0 69.0829 13.4766 931 65.2417 193.853 506.258
651 0 71.0979 14.9512 1063 63.4412 193.784 504.223
652 0 73.0982 13.5571 991 65.9435 193.851 503.603
653 0 74.1297 12.3702 917 66.7066 193.129 506.05
654 0 79.0937 13.4398 1063 66.0433 193.749 503.432
655 0 80.0612 13.9393 1116 66.0771 193.879 500.642
656 0 82.1331 14.8783 1222 65.1056 193.848 501.942
657 0 83.1342 14.3503 1193 67.2448 194.092 497.165
658 0 87.0663 14.3109 1246 67.366 193.689 498.022
659 1 44.0206 12.903 568 69.4419 193.252 517.632
660 0 44.0945 12.133 535 71.4766 194.185 518.034
661 0 47.0219 12.5473 590 69.583 193.99 518.795
662 0 48.0809 12.0006 577 71.5754 193.802 516.898
663 0 50.105 13.1524 659 70.214 193.149 516.155
664 0 48.0576 12.9844 624 72.3558 193.351 514.115
665 0 52.0521 12.0072 625 73.0752 193.85 514.899
666 0 54.037 14.194 767 70.2516 193.897 514.67
667 0 55.0519 14.1321 778 70.2841 193.51 514.143
668 0 57.0869 13.8911 793 70.4477 193.354 512.207
669 0 57.1463 12.3718 707 73.6379 193.211 510.805
670 0 60.0778 13.083 786 71.8766 193.617 511.092
671 0 60.0393 13.5578 814 71.9251 193.214 509.742
672 0 64.0999 13.0266 835 71.5162 193.271 508.942
673 0 65.0539 13.4196 873 71.5246 193.387 507.763
674 0 66.0187 13.0266 860 71.9105 193.972 506.901
675 0 71.0756 12.9018 917 72.1123 193.683 505.475
676 0 71.0568 12.3 874 73.0126 193.569 504.818
677 0 74.0527 12.8962 955 72.0722 193.296 504.003
678 0 77.19 13.1753 1017 71.3461 193.335 502.768
679 0 79.0989 12.6677 1002 72.6417 193.358 497.208
680 1 40.0461 10.6877 428 71.6449 192.369 520.853
681 0 40.0262 10.618 425 74.3882 192.871 518.581
682 0 44.0283 10.9475 482 72.4336 193.243 519.091
683 0 42.0628 10.8172 455 73.6264 194.004 518.374
684 0 44.0495 11.9638 527 72.4212 193.85 516.598
685 0 47.0392 12.3939 583 71.2247 192.988 516.28
686 0 47.1334 11.966 564 72.5975 193.287 516.128
687 0 48.108 11.6405 560 73.1643 193.236 516.641
688 0 51.0651 13.003 664 70.997 193.114 515.402
689 0 51.0506 12.1644 621 72.4042 193.581 516.23
690 0 52.0403 12.9131 672 72.2039 193.161 513.932
691 0 53.033 12.0868 641 73.5429 193.29 513.264
692 0 57.35 13.0602 749 71.2951 194.024 513.34
693 0 56.0667 13.5553 760 71.8066 193.245 511.041
694 0 60.0346 12.726 764 72.0537 193.236 510.459
695 0 61.0947 12.4724 762 72.3163 193.978 510.203
696 0 63.1727 12.632 798 72.2431 193.602 508.127
697 0 66.1211 13.0972 866 71.4884 193.842 507.396
698 0 67.0473 12.7969 858 72.2366 193.819 506.589
699 0 71.0742 13.6758 972 69.0988 193.394 509.257
700 0 72.025 12.6345 910 72.1747 193.948 504.891
701 0 73.0874 12.5329 916 72.2085 193.868 504.464
702 0 77.0914 12.9068 995 71.798 193.767 503.149
703 0 78.135 12.2352 956 73.0366 193.71 501.793
704 1 41.1097 11.4328 470 71.6468 193.674 519.36
705 0 45.0265 11.7042 527 71.2087 194.176 517.829
706 0 45.0667 11.5384 520 72.0558 194.529 517.533
707 0 45.0268 11.482 517 72.4778 194.53 517.683
708 0 47.078 9.98342 470 74.6404 194.536 515.853
709 0 51.0279 13.2281 675 68.0918 194.261 516.119
710 0 51.0335 13.0502 666 69.1096 194.014 514.976
711 0 51.0864 11.7644 601 53.0599 193.423 517.334
712 0 55.0241 11.6131 639 71.1158 193.554 514.665
713 0 57.1631 11.6684 667 70.3733 194.046 513.532
714 0 59.025 12.7404 752 69.242 193.781 512.142
715 0 59.0518 13.9708 825 67.6958 194.145 511.33
716 0 62.0686 12.4056 770 69.9078 193.884 509.365
717 0 62.0347 11.9449 741 71.0742 194.516 508.966
718 0 65.0737 11.3103 736 70.7514 194.185 509.811
719 0 69.0351 13.0513 901 68.3263 193.595 507.698
720 0 70.1028 12.0822 847 69.6305 193.554 507.622
721 0 72.0715 11.1556 804 71.2624 194.058 504.841
722 0 76.0587 13.3055 1012 67.665 192.658 505.216
723 0 76.0946 11.4463 871 71.101 193.147 502.111
724 0 81.0911 12.7881 1037 67.7396 193.786 502.69
725 0 82.1388 13.2337 1087 68.3523 193.842 498.987
726 0 84.086 11.5358 970 70.8299 194.094 500.211
727 0 86.0531 12.7479 1097 68.8797 193.299 500.758
728 0 90.1106 13.1061 1181 68.6952 192.972 498.124
729 0 92.0721 12.0123 1106 70.8309 192.719 495.61
730 1 47.0738 11.1952 527 71.0228 193.296 515.535
731 0 50.0263 11.9937 600 69.12 192.485 516.058
732 0 50.0219 11.5549 578 71.2526 193.061 513.728
733 0 54.0491 11.6931 632 69.3354 193.264 515.142
734 0 57.0827 12.4031 708 67.9718 193.134 514.325
735 0 55.1021 11.6511 642 70.2944 193.525 512.687
736 0 57.0461 12.0254 686 69.8484 193.844 511.526
737 0 59.0172 13.1318 775 67.4142 193.413 511.328
738 0 62.0409 12.8786 799 67.1064 193.031 510.208
739 0 64.0331 11.8376 758 68.9156 192.95 509.27
740 0 66.084 13.1197 867 66.4879 193.098 509.573
741 0 68.155 11.3124 771 69.1128 193.364 507.935
742 0 70.1345 11.9485 838 68.4463 193.074 506.171
743 0 72.0919 12.6783 914 67.1072 192.993 505.244
744 0 74.1195 12.7362 944 66.7341 193.012 505.215
745 0 77.0915 12.6343 974 67.2618 193.158 502.527
746 0 76.15 11.6743 889 69.0068 192.907 502.552
747 0 81.1608 12.1857 989 68.0748 192.553 501.642
748 1 41.0324 11.3325 465 66.2452 192.867 519.062
749 0 43.0901 10.6057 457 66.8687 192.816 518.168
750 0 44.1002 10.907 481 66.6632 193.43 516.505
751 0 46.016 9.97479 459 67.2898 193.096 517.259
752 0 45.0266 10.7714 485 67.8247 192.821 514.34
753 0 49.0605 11.1291 546 65.9524 193.35 517.037
754 0 49.0418 11.113 545 66.7284 192.754 515.009
755 0 51.031 11.3656 580 65.9845 192.909 514.378
756 0 52.0403 11.7025 609 64.9606 193.099 514.148
757 0 54.2215 11.2501 610 65.3934 193.011 512.385
758 0 56.0397 12.5268 702 63.3148 193.739 512.994
759 0 56.061 12.5578 704 63.2344 193.267 511.886
760 0 59.0243 11.5037 679 64.2651 193.205 511.829
761 0 59.0674 12.054 712 64.2051 193.353 510.044
762 0 61.0469 12.3184 752 63.6769 193.294 509.831
763 0 63.0826 13.1257 828 62.8261 192.447 507.198
764 0 66.0537 12.5201 827 63.555 192.959 507.363
765 0 67.0871 12.2974 825 63.7176 192.669 506.848
766 0 67.0744 11.3754 763 65.0983 193.946 505.936
767 0 72.2212 12.254 885 63.5311 193.085 505.948
768 0 72.0628 12.0034 865 64.6116 192.683 502.838
769 0 76.1703 12.1438 925 63.4054 192.452 505.28
770 0 77.1 10.5058 810 66.2827 192.06 502.33
771 0 80.0658 12.1275 971 64.6045 193.195 500.761
772 0 82.1043 12.2162 1003 64.2174 192.627 500.783
773 1 43.0617 10.0321 432 64.0486 193.03 519.537
774 0 47.0901 12.4655 587 61.1005 192.642 518.116
775 0 47.016 11.3578 534 62.9288 193.479 519.564
776 0 48.0906 10.3555 498 64.1024 193.339 518.462
777 0 50.1382 12.5254 628 61.7532 192.85 517.339
778 0 52.1321 12.8903 672 61.8021 192.618 515.616
779 0 54.0533 11.9512 646 62.6192 192.536 513.147
780 0 53.0948 10.8485 576 65.2205 192.085 513.675
781 0 56.0402 14.097 790 59.776 193.219 514.204
782 0 56.1521 11.2908 634 63.8281 193.074 513.186
783 0 56.0878 10.3588 581 65.1016 193.31 511.038
784 0 61.0891 12.3099 752 61.6051 193.411 511.392
785 0 62.0877 11.371 706 62.7436 192.778 509.458
786 0 65.1724 12.6741 826 60.6429 192.62 509.37
787 0 66.1103 13.2203 874 60.2872 192.256 508.257
788 0 68.1063 12.7888 871 61.1929 192.467 504.86
789 0 70.0892 14.1391 991 60.002 192.198 504.77
790 0 71.0681 11.6086 825 63.1721 192.371 503.067
791 0 75.1075 13.474 1012 60.754 192.498 501.557
792 0 75.2342 12.1886 917 62.3468 192.194 503.814
793 0 79.1235 13.8391 1095 60.6667 192.988 501.297
794 0 79.1281 12.7009 1005 62.197 193.298 498.059
795 0 81.0484 12.0915 980 63.5214 193.05 496.589
796 1 43.0159 10.0428 432 62.8773 192.167 521.63
797 0 43.0654 10.4028 448 63.442 192.721 520.569
798 0 46.0372 10.9477 504 63.5933 192.462 517.986
799 0 46.1379 12.0942 558 62.9928 193.376 515.371
800 0 47.037 9.52441 448 64.7857 192.835 518.326
801 0 51.0144 11.8006 602 62.892 192.922 515.301
802 0 51.0232 13.3469 681 61.486 192.828 514.131
803 0 54.0494 12.6736 685 61.9971 193.21 513.327
804 0 54.0625 9.87746 534 64.6854 192.903 515.747
805 0 57.0863 11.8768 678 62.3319 192.711 513.715
806 0 59.0745 12.3065 727 60.3948 192.626 515.69
807 0 57.0765 12.2818 701 62.2839 192.728 511.486
808 0 62.2076 10.5614 657 63.758 192.813 510.096
809 0 62.1306 11.2988 702 63.235 193.962 508.919
810 0 63.1696 11.7462 742 62.8828 193.427 508.163
811 0 66.0316 10.1466 670 64.4045 193.73 505.566
812 0 69.1068 10.0424 694 63.9654 193.393 507.939
813 0 72.0863 11.4307 824 62.7354 192.715 504.909
814 0 75.1114 13.1005 984 60.3608 193.268 505.646
815 0 76.269 12.5739 959 61.9531 192.96 502.666
816 0 78.1662 12.064 943 63.0212 193.133 501.003
817 0 82.1235 13.0048 1068 61.7612 192.626 502.061
818 1 39.0481 8.78404 343 66.7959 193.111 518.49
819 0 42.0355 10.848 456 65.1908 192.493 517.616
820 0 46.0523 12.1818 561 62.2567 192.934 519.02
821 0 45.0865 10.9345 493 64.9412 192.844 517.712
822 0 48.1013 11.9955 577 63.5043 193.035 516.934
823 0 51.0505 13.1243 670 62.3791 192.987 515.552
824 0 48.0718 9.75624 469 68.2345 193.102 513.262
825 0 54.1491 12.1701 659 64.1366 193.663 515.995
826 0 56.0486 10.6693 598 66.2926 193.326 515.207
827 0 56.2144 12.2566 689 64.09 193.55 515.833
828 0 58.157 12.6038 733 64.7476 192.749 513.295
829 0 60.1134 12.5263 753 65.5498 192.236 509.146
830 0 61.0681 11.2989 690 66.7188 192.699 511.43
831 0 64.2497 12.6537 813 65.2362 193.658 509.421
832 0 66.2104 11.5088 762 66.9711 192.604 508.353
833 0 68.1043 11.6145 791 67.0177 193.028 507.541
834 0 69.1341 11.3403 784 67.19 193.041 507.992
835 0 73.0935 11.6289 850 66.8812 192.698 505.179
836 0 73.0886 13.1895 964 65.1514 192.767 504.629
837 0 75.0697 10.2438 769 68.9506 192.719 504.014
838 1 39.0128 8.58693 335 67.8866 192.245 522.478
839 0 42.0337 10.4202 438 66.3516 192.651 521.662
840 0 44.0309 10.7652 474 65.5802 192.899 520.439
841 0 46.035 11.9909 552 63.433 192.975 521.217
842 0 48.0841 12.6029 606 63.5726 193.175 519.551
843 0 48.0792 11.3563 546 65.2454 192.485 518.168
844 0 50.0628 12.2646 614 63.2492 192.01 518.174
845 0 51.0579 11.6338 594 63.7273 193.032 517.407
846 0 50.0582 11.6864 585 64.4786 193.255 517.215
847 0 52.0785 12.0587 628 64.2834 192.586 515.099
848 0 56.0799 11.7333 658 63.8252 192.813 515.498
849 0 58.0748 12.0362 699 63.8197 192.853 513.75
850 0 58.0474 12.4209 721 62.9293 192.932 514.864
851 0 61.0987 12.1443 742 63.8935 192.062 510.708
852 0 62.1217 11.2199 697 64.9856 192.568 512.349
853 0 64.0938 12.5285 803 63.8182 192.558 509.012
854 0 66.0647 12.6089 833 63.132 192.304 511.551
855 0 69.095 12.6058 871 63.0253 192.382 507.636
856 0 69.0709 11.9298 824 64.3908 192.1 507.33
857 0 71.0449 11.4716 815 65.2049 193.049 506.32
858 0 72.0596 9.65867 696 67.3692 192.711 504.869
859 0 76.0881 13.4055 1020 62.2618 192.68 503.921
860 0 80.1478 13.3254 1068 62.3361 192.654 500.224
861 1 44.0561 12.0301 530 62.3679 192.53 521.289
862 0 46.0595 11.724 540 61.9759 191.661 521.611
863 0 46.036 10.7307 494 63.8968 192.215 519.921
864 0 45.0444 9.14653 412 66.517 192.568 517.811
865 0 49.0462 11.2547 552 63.2373 192.891 517.335
866 0 52.0981 12.1501 633 61.4534 193.109 516.101
867 0 53.0252 10.0518 533 63.1614 192.548 517.63
868 0 51.0662 10.3591 529 63.9017 192.272 514.771
869 0 56.0213 11.1743 626 61.655 193.479 515.155
870 0 57.1417 11.4802 656 61.0351 192.404 513.566
871 0 59.1045 11.5558 683 60.9063 192.603 512.93
872 0 61.1702 12.4407 761 58.9356 192.298 512.632
873 0 63.0966 10.5077 663 60.7632 192.691 511.662
874 0 64.13 11.8665 761 59.477 192.361 507.867
875 0 66.0978 10.1214 669 60.997 191.792 509.602
876 0 68.0768 10.7526 732 60.6612 191.404 505.857
877 0 68.0818 9.79704 667 61.8126 191.823 502.796
878 0 72.0412 11.5767 834 59.4077 191.119 504.071
879 0 73.0648 10.3607 757 60.8679 191.147 501.402
880 0 77.0803 12.3378 951 58.7003 191.509 500.923
881 0 80.1812 12.3595 991 58.8345 191.405 498.208
882 0 82.0998 12.4726 1024 58.9375 191.774 497.272
883 0 84.102 10.8915 916 60.0764 191.662 501.045
884 0 90.0846 10.8232 975 59.3097 191.107 501.05
885 0 90.2983 11.5506 1043 59.652 191.863 495.252
886 0 93.2274 13.0326 1215 58.3967 193.147 495.207
887 0 96.4733 10.9253 1054 60.5104 192.22 494.511
888 1 52.1944 11.2847 589 58.4482 192.732 515.372
889 0 55.1222 11.284 622 59.1463 193.011 512.693
890 0 57.1214 11.5543 660 58.8 191.447 511.539
891 0 59.1124 10.0656 595 60.526 192.313 512.776
892 0 58.0965 12.2555 712 58.6489 192.416 511.409
893 0 62.0938 10.8868 676 58.7396 192.827 512.141
894 0 65.1268 11.8231 770 57.4442 192.065 512.43
895 0 65.0563 11.1135 723 59.4993 192.539 507.219
896 0 67.1479 12.5544 843 57.4401 192.79 507.527
897 0 71.0864 11.5212 819 58.8474 192.784 504.902
898 0 76.0588 11.7935 897 57.9264 192.868 504.583
899 0 75.1607 11.9743 900 58.1578 192.541 504.432
900 0 77.0673 12.2361 943 58.2248 192.942 502.952
901 0 78.0644 9.58183 748 61 192.604 502.008
902 0 83.1471 10.2349 851 60.0811 193.598 501.172
903 0 85.0502 9.82949 836 60.7596 192.908 499.689
904 0 91.2976 11.1942 1022 59.1918 192.927 497.321
905 1 48.0948 7.56838 364 61.7335 192.852 515.918
906 0 48.0643 9.02957 434 60.9631 193.415 517.705
907 0 48.0859 10.2317 492 60.0406 193.207 515.313
908 0 49.0143 10.7316 526 59.751 193.143 515.956
909 0 53.1232 11.5204 612 58.8644 193.758 515.43
910 0 56.0362 10.1898 571 59.028 193.615 516.541
911 0 56.0821 9.55742 536 61.5989 194.67 512.308
912 0 57.1067 11.3647 649 59.8475 195.043 513.824
913 0 58.0484 11.8177 686 59.0306 194.602 513.178
914 0 62.2744 10.6304 662 60.0665 193.908 511.43
915 0 61.0494 10.9092 666 60.0871 193.947 511.824
916 0 63.0765 9.55982 603 61.2156 193.985 511.441
917 0 69.099 11.2158 775 58.711 193.921 512.025
918 0 69.0775 11.1324 769 59.6736 193.306 507.286
919 0 70.1018 10.984 770 59.187 192.784 510.417
920 0 73.215 10.1482 743 60.2126 192.872 508.468
921 0 75.1207 12.6197 948 56.8354 193.046 509.715
922 0 75.0434 9.43454 708 61.4633 192.98 505.4
923 0 79.1133 11.2244 888 58.9437 192.328 502.161
924 0 83.0534 10.8846 904 58.3838 192.596 504.793
925 0 86.1885 10.8831 938 59.1652 192.542 497.029
926 0 88.1684 11.1945 987 58.0699 192.418 500.664
927 1 45.0464 11.7212 528 55.9072 192.888 517.284
928 0 46.0738 9.26773 427 58.5012 193.148 517.164
929 0 49.0253 8.93416 438 59.0206 193.237 516.098
930 0 51.1296 12.967 663 55.6063 193.077 514.551
931 0 51.1652 11.3749 582 57.378 193.301 517.486
932 0 53.0901 11.5087 611 57.7414 192.771 512.08
933 0 54.0474 11.8045 638 56.9937 192.558 513.55
934 0 56.0655 10.9872 616 58.336 192.497 512.768
935 0 58.0954 10.8786 632 58.4478 192.919 510.924
936 0 60.0753 10.4203 626 58.968 193.243 510.494
937 0 60.0971 10.4331 627 58.6842 192.317 509.833
938 0 62.0419 9.84818 611 59.3355 192.021 511.049
939 0 67.0939 11.864 796 56.9585 192.454 507.742
940 0 66.0453 10.0689 665 59.2617 192.749 504.761
941 0 68.1084 10.8063 736 58.3981 191.958 506.333
942 0 68.092 8.65007 589 60.7844 192.2 506.852
943 0 72.0316 13.5496 976 55.8688 193.013 501.734
944 0 74.1911 11.5108 854 57.5328 193.338 503.504
945 0 74.0779 10.6375 788 58.1624 192.971 504.552
946 0 82.1983 13.066 1074 55.4022 193.141 501.762
947 0 79.1163 14.0047 1108 55.028 193.121 500.47
948 0 82.1394 12.3936 1018 56.5727 192.981 501.538
949 0 87.1012 11.3776 991 57.9939 192.578 497.024
950 1 46.1572 10.1609 469 58.1663 192.836 517.281
951 0 49.0387 11.0933 544 57.5257 193.596 516.329
952 0 47.1582 11.1752 527 57.1309 192.827 518.116
953 0 49.0588 12.9437 635 55.4535 193.14 517.833
954 0 51.0389 12.9901 663 56.0875 193.142 514.7
955 0 52.1279 10.4742 546 58.837 193.295 514.383
956 0 53.0384 12.2553 650 57.3969 192.542 514.338
957 0 55.0583 12.4595 686 57.1006 193.073 510.727
958 0 58.1479 13.2421 770 56.339 192.404 510.355
959 0 61.1543 12.8691 787 56.2071 193.135 512.292
960 0 60.17 11.5839 697 58.4247 193.862 507.803
961 0 64.3937 12.1906 785 57.2815 194.53 508.697
962 0 64.124 10.6045 680 59.3118 194.162 507.912
963 0 68.0584 12.9888 884 56.3857 193.603 505.932
964 0 71.1341 12.7365 906 56.3698 193.648 506.215
965 0 72.2674 11.6512 842 57.4382 193.373 504.367
966 0 72.0516 12.4494 897 57.0268 193.281 501.354
967 0 76.3994 13.7436 1050 55.3895 193.508 501.594
968 0 78.161 14.0991 1102 55.2187 193.497 501.886
969 0 78.2185 10.7392 840 58.8357 193.437 501.249
970 0 83.1663 11.8678 987 57.6241 193.863 495.948
971 0 85.0583 12.6149 1073 57.0382 193.363 494.523
972 1 131.103 9.89299 1297 60.3007 193.029 481.177
973 1 91.1126 12.2925 1120 57.1071 193.009 496.621
974 0 94.2881 12.8012 1207 56.6015 193.132 495.813
975 1 46.03 11.7315 540 56.9037 193.42 517.728
976 0 47.0325 10.9499 515 58.2155 192.891 514.227
977 0 49.0893 11.3263 556 58.2968 193.378 514.367
978 0 49.0557 10.3148 506 58.9071 193.626 516.619
979 0 53.0558 11.7989 626 58.0639 193.72 513.343
980 0 53.135 12.1013 643 57.2504 193.941 515.272
981 0 55.1761 12.0342 664 57.863 193.111 510.986
982 0 57.0147 13.2773 757 56.605 192.822 510.876
983 0 59.1098 10.6412 629 59.4308 193.076 510.202
984 0 59.0651 10.7339 634 59.5552 193.292 510.593
985 0 60.0816 10.6022 637 60.1319 193.568 508.413
986 0 62.0766 11.2764 700 59.7157 193.223 506.006
987 0 66.0501 11.2945 746 59.3794 192.993 506.602
988 0 68.1168 11.3335 772 59.864 192.943 503.892
989 0 70.0921 11.9842 840 58.9714 193.14 505.331
990 0 75.1676 11.5209 866 59.6189 193.184 504.7
991 0 76.1388 12.9894 989 58.5359 193.819 499.329
992 0 79.1204 11.0212 872 60.7867 193.763 501.06
993 0 83.2163 13.2786 1105 57.924 193.427 501.023
994 0 86.191 11.6253 1002 60.2016 193.515 498.972
995 0 88.1008 14.5288 1280 47.3664 192.255 499.221
996 0 93.1751 12.2994 1146 59.2722 192.291 495.567
997 0 95.1261 11.3849 1083 60.891 192.589 495.215
998 0 99.1076 13.9041 1378 58.6945 192.889 493.327
999 1 49.0541 10.9879 539 61.8312 192.787 514.36
1000 0 53.0964 12.0159 638 59.453 192.98 515.961
1001 0 54.0847 11.1862 605 60.8926 193.421 514.684
1002 0 55.0375 12.337 679 60.4948 192.591 513.613
1003 0 58.0929 12.6349 734 60.0708 192.696 511.097
1004 0 60.0435 11.9414 717 60.8759 192.771 511.483
1005 0 60.1147 11.8108 710 61.1704 192.852 511.937
1006 0 64.0477 11.5539 740 61.6635 192.931 511.464
1007 0 65.0797 12.2004 794 61.7242 192.839 507.8
1008 0 67.0444 12.4395 834 61.5132 192.506 505.544
1009 0 71.0416 14.1466 1005 59.0826 192.711 506.561
1010 0 74.0376 13.0474 966 60.8758 192.759 503.997
1011 0 76.0699 12.1599 925 62.1114 192.667 503.488
1012 0 79.0745 13.8604 1096 60.313 192.813 501.502
1013 0 79.1089 12.3501 977 62.696 192.588 499.293
1014 0 83.1571 13.721 1141 61.1481 192.487 498.973
1015 0 86.0339 12.5997 1084 61.8349 192.209 501.499
1016 0 87.1128 12.1337 1057 63.0501 192.245 499.084
1017 0 91.104 13.7096 1249 61.771 192.408 495.649
1018 1 45.1609 9.92008 448 64.3125 191.647 518.404
1019 0 45.0629 10.7849 486 63.6132 192.409 519.309
1020 0 48.0902 11.5824 557 63.7397 191.63 516.282
1021 0 46.0633 10.8546 500 65.656 191.12 515.822
1022 0 50.0313 9.81385 491 65.8187 191.393 516.91
1023 0 52.0306 11.1473 580 64.2931 192.514 513.526
1024 0 55.0207 13.1587 724 60.9365 192.083 514.628
1025 0 56.1665 11.9822 673 62.7296 191.673 513.04
1026 0 58.0642 11.6767 678 62.6814 192.028 512.755
1027 0 58.0673 10.6428 618 64.9612 191.668 509.594
1028 0 63.0593 11.9729 755 62.7391 191.629 510.438
1029 0 63.0752 11.7003 738 63.1057 192.211 511.401
1030 0 68.1407 14.1472 964 59.6525 191.865 509.991
1031 0 67.1393 11.6176 780 64.4487 191.9 508.537
1032 0 72.0595 13.1974 951 61.673 192.474 506.959
1033 0 75.0576 13.07 981 61.8889 191.779 504.913
1034 0 76.1944 11.7725 897 63.4348 191.969 502.651
1035 0 78.1273 13.9004 1086 61.2238 191.047 502.589
1036 0 80.0897 12.3986 993 63.1873 191.199 502.723
1037 0 85.0694 13.9651 1188 60.5833 191.556 501.614
1038 0 87.0828 13.8374 1205 61.1958 191.421 501.495
1039 0 85.0824 11.1774 951 65.1903 191.351 497.648
1040 0 90.1796 11.5991 1046 64.3681 191.261 497.443
1041 0 94.1035 13.1345 1236 62.6885 191.195 493.871
1042 0 97.0938 11.7927 1145 63.3694 191.219 496.317
1043 0 100.128 12.5839 1260 62.519 191.098 493.556
1044 0 102.187 11.4692 1172 63.8874 191.23 489.788
1045 0 107.168 13.9874 1499 60.4049 190.974 493.199
1046 0 111.178 11.9089 1324 63.0657 191.079 488.495
1047 0 113.193 12.3153 1394 62.4943 191.34 485.521
1048 0 118.197 12.6315 1493 61.6624 191.645 485.683
1049 1 57.0406 10.5539 602 61.6329 191.05 514.023
1050 0 58.0375 10.2865 597 62.8861 190.789 509.928
1051 0 61.1337 10.9269 668 61.4731 190.729 512.49
1052 0 64.1095 12.3383 791 60.4627 191.195 509.367
1053 0 67.0624 12.9133 866 59.8406 190.861 510.127
1054 0 67.0676 12.0774 810 60.8605 190.885 510.104
1055 0 71.0661 13.0442 927 59.6095 191.193 509.848
1056 0 73.0378 11.761 859 61.6857 190.789 507.05
1057 0 75.123 11.9937 901 61.4107 189.929 508.325
1058 0 77.1131 11.736 905 62.2751 190.154 505.04
1059 0 81.057 12.8305 1040 61.3087 190.521 503.256
1060 0 82.0781 13.9623 1146 60.7565 189.927 504.905
1061 0 83.058 12.5093 1039 63.8027 191.096 499.531
1062 0 89.1272 14.0137 1249 61.8199 191.789 503.093
1063 0 91.1206 12.7194 1159 63.5979 191.845 501.833
1064 0 95.1615 13.4508 1280 62.6633 190.805 501.515
1065 0 97.097 13.0076 1263 63.9945 192.373 499.252
1066 0 99.0971 11.6149 1151 66.2928 191.611 497.222
1067 0 101.068 11.8732 1200 66.1258 191.666 495.088
1068 0 104.215 11.0925 1156 67.6142 191.464 494.446
1069 0 109.131 13.1494 1435 65.1199 191.279 491.192
1070 0 113.207 13.4709 1525 64.9488 190.908 490.049
1071 0 116.098 12.0846 1403 67.0349 192.16 487.431
1072 0 121.124 13.2509 1605 64.9682 192.226 489.435
1073 0 124.199 13.8649 1722 64.6568 191.993 486.289
1074 0 128.237 13.8026 1770 64.8785 192.336 484.242
1075 1 69.0864 10.9428 756 66.1005 192.536 516.46
1076 0 71.1289 13.4404 956 63.977 192.037 511.869
1077 0 74.1279 11.8849 881 65.3802 192.297 512.632
1078 0 75.133 13.2166 993 64.4381 192.636 508.673
1079 0 77.1177 11.6445 898 66.6448 192.716 510.303
1080 0 80.1785 12.8214 1028 65.034 193.099 508.316
1081 0 82.1097 14.3101 1175 63.1081 192.598 503.723
1082 0 85.1621 11.5192 981 66.682 191.968 503.877
1083 0 91.1989 12.6098 1150 65.0304 191.917 502.313
1084 0 92.1031 13.3329 1228 64.3673 192.27 501.558
1085 0 96.1835 13.2559 1275 64.0235 191.793 500.318
1086 0 100.195 13.2142 1324 63.5823 191.839 497.542
1087 0 99.1068 12.2696 1216 65.4786 191.859 497.422
1088 0 104.099 12.8243 1335 64.6569 192.318 496.76
1089 0 107.13 14.1044 1511 63.1476 192.531 493.794
1090 1 59.0817 11.7972 697 65.3357 193.129 517.839
1091 0 62.0883 10.63 660 67.1712 192.539 517.233
1092 0 65.0683 12.679 825 65.08 192.693 514.108
1093 0 68.1752 13.4946 920 63.1391 192.72 512.899
1094 0 69.1576 13.7367 950 63.6116 192.714 510.887
1095 0 70.2045 12.777 897 65.6143 192.183 508.94
1096 0 70.0782 12.3719 867 66.4706 192.407 507.078
1097 0 74.0731 13.0682 968 65.1116 192.088 507.068
1098 0 78.1954 13.3 1040 64.1308 192.052 506.913
1099 0 78.0919 13.228 1033 64.2682 193.168 505.747
1100 0 81.1401 11.5602 938 67.1237 193.02 501.43
1101 0 84.1454 11.6346 979 66.7232 192.953 501.333
1102 0 85.094 14.3136 1218 63.9261 192.972 500.213
1103 0 91.2176 11.5329 1052 66.5656 192.294 497.452
1104 0 95.1444 14.683 1397 62.5226 192.638 499.123
1105 0 96.155 13.291 1278 64.8623 192.002 495.805
1106 0 102.234 13.6354 1394 64.0646 192.729 493.188
1107 0 103.186 11.8524 1223 66.4685 192.787 494.544
1108 0 105.11 11.0741 1164 68.0249 193.171 491.088
1109 0 111.176 12.5927 1400 66.1136 192.809 487.669
1110 0 112.304 11.9318 1340 66.1284 192.187 492.246
1111 1 59.0233 11.7411 693 66.4906 192.511 514.547
1112 0 60.0255 13.0944 786 65.6959 192.515 512.289
1113 0 69.1296 12.8454 888 54.4741 191.413 509.528
1114 0 65.0589 12.2504 797 67.4391 192.455 507.804
1115 0 66.0611 12.5338 828 66.7355 192.518 508.88
1116 0 72.1823 12.7039 917 65.4656 192.538 507.616
1117 0 72.0662 13.9733 1007 64.3178 192.647 505.287
1118 0 76.0382 13.1513 1000 65.188 192.587 505.373
1119 0 77.1444 12.4572 961 65.8866 192.307 505.03
1120 0 81.0801 14.5288 1178 63.1689 192.832 503.187
1121 0 84.068 13.4653 1132 64.4832 192.893 502.367
1122 0 88.1666 12.9641 1143 64.9125 192.794 501.759
1123 0 90.0883 13.2537 1194 64.9129 192.522 499.953
1124 0 92.0991 13.9306 1283 64.205 192.641 495.198
1125 0 94.0518 11.5043 1082 66.9667 192.433 496.975
1126 0 96.1035 13.4542 1293 65.0773 192.35 494.084
1127 0 103.094 14.4043 1485 63.2121 193.316 493.102
1128 1 56.038 11.635 652 64.7745 193.051 516.771
1129 0 53.101 11.2427 597 66.8811 192.675 514.018
1130 0 59.0349 13.077 772 63.5518 192.648 514.687
1131 0 59.0725 11.342 670 66.4194 192.825 513.276
1132 0 62.1482 13.146 817 64.2326 192.98 512.721
1133 0 62.1492 14.4008 895 62.8056 193.324 510.781
1134 0 65.4232 13.9859 915 62.5158 192.833 511.447
1135 0 68.093 13.9368 949 62.549 192.313 508.83
1136 0 70.0772 12.0724 846 64.0922 192.24 509.708
1137 0 72.1717 13.4679 972 63.1091 192.487 507.003
1138 0 76.1043 14.6772 1117 61.8398 192.862 505.549
1139 0 77.1044 14.2534 1099 62.5705 192.497 503.14
1140 0 79.194 13.1576 1042 64.3023 192.693 503.001
1141 0 82.1407 14.256 1171 62.9274 192.736 501.582
1142 0 84.263 14.2293 1199 63.3086 193.907 500.189
1143 0 88.0551 14.5931 1285 62.6778 192.419 499.59
1144 0 89.0954 14.6921 1309 63.0367 192.7 498.762
1145 0 93.0884 12.6009 1173 65.9267 193.271 499.709
1146 0 95.2647 13.1003 1248 65.7059 192.932 495.301
1147 0 99.1104 15.3667 1523 62.7984 192.677 495.255
1148 1 52.2741 13.1997 690 64.6594 193.148 518.494
1149 0 52.1076 14.0287 731 65.8577 193.276 517.425
1150 0 52.0243 11.6292 605 69.3669 192.864 517.198
1151 0 55.1405 12.6767 699 67.382 192.846 516.964
1152 0 56.1244 15.0202 843 64.3333 192.858 516.395
1153 0 58.115 13.6626 794 66.335 192.456 514.887
1154 0 61.1828 14.236 871 65.0884 193.257 515.865
1155 0 60.1949 14.1706 853 66.3458 193.095 512.601
1156 0 63.1514 13.0322 823 67.5723 192.683 511.639
1157 0 65.1042 14.039 914 65.7801 192.811 513.571
1158 0 66.0558 13.8974 918 66.6612 192.914 511.261
1159 0 72.2407 15.2269 1100 63.5473 192.932 513.535
1160 0 73.0388 14.595 1066 66.1285 192.882 507.445
1161 0 75.1674 14.5542 1094 66.2102 192.15 508.192
1162 0 76.2008 14.2518 1086 67.081 192.161 505.716
1163 0 79.1721 13.5275 1071 68.1307 191.794 505.554
1164 0 81.0623 14.495 1175 67.4145 192.388 504.816
1165 0 85.0886 15.1959 1293 65.976 192.813 505.853
1166 0 87.2165 14.55 1269 67.1214 192.258 503.299
1167 0 89.2125 14.0115 1250 69.0312 191.962 499.234
1168 0 92.0947 14.1485 1303 68.5526 192.098 498.413
1169 1 44.0392 10.9675 483 71.7205 193.352 521.952
1170 0 47.0604 11.8784 559 70.4079 193.14 519.823
1171 0 48.0259 12.5349 602 70.2375 192.759 519.136
1172 0 50.07 12.6024 631 69.7306 193.022 520.005
1173 0 50.1222 13.5469 679 67.9794 193.01 521.854
1174 0 53.0595 13.7204 728 68.1058 192.243 518.26
1175 0 53.0315 12.2569 650 70.0923 193.106 517.249
1176 0 56.1461 14.4623 812 66.7143 191.956 516.211
1177 0 56.1536 12.911 725 68.8441 193.177 516.417
1178 0 58.028 13.9932 812 68.2512 193.624 513.829
1179 0 61.1175 13.2695 811 68.64 193.157 513.445
1180 0 62.0976 13.3339 828 68.2778 193.245 514.864
1181 0 62.0774 13.1932 819 69.6007 193.233 509.396
1182 0 67.2369 12.2701 825 70.2776 192.956 509.931
1183 0 70.2109 13.2316 929 68.4101 192.912 510.386
1184 0 71.1448 14.1121 1004 67.7171 193.128 510.519
1185 0 73.0588 14.6184 1068 67.7257 192.524 507.223
1186 0 75.0728 13.5335 1016 69.4754 192.97 504.935
1187 0 77.119 12.7076 980 70.3378 192.986 504.496
1188 0 81.1112 14.3753 1166 67.6312 192.654 506.6
1189 0 82.1434 13.4764 1107 69.804 193.339 505.397
1190 0 85.1161 12.8413 1093 70.3632 192.521 504.15
1191 0 89.0836 13.4031 1194 70.4112 192.222 499.736
1192 0 91.2043 13.4862 1230 70.6195 193.481 498.104
1193 0 94.133 14.8407 1397 68.8268 193.263 497.24
1194 0 95.1534 14.2612 1357 70.0324 192.476 496.433
1195 1 49.1036 12.0561 592 71.3243 192.814 520.465
1196 0 52.0607 13.8492 721 69.0957 192.322 518.347
1197 0 52.0494 14.6592 763 68.8322 192.733 518.349
1198 0 55.1339 11.6444 642 71.3193 191.941 519.182
1199 0 57.219 13.7017 784 69.3495 192.288 516.037
1200 0 59.0575 12.073 713 71.1655 192.428 515.829
1201 0 59.0811 13.016 769 70.6359 192.336 513.752
1202 0 62.072 14.3543 891 68.0617 192.2 515.32
1203 0 66.0598 14.169 936 68.4583 192.092 510.096
1204 0 66.032 13.7055 905 70.0718 192.641 509.607
1205 0 69.0881 12.39 856 70.9065 192.692 510.717
1206 0 75.0894 15.0487 1130 66.7088 192.992 508.201
1207 0 77.1398 12.5227 966 69.8737 192.532 509.004
1208 0 78.1323 13.1188 1025 69.8976 192.294 504.802
1209 0 83.2046 14.6987 1223 66.9387 192.542 505.17
1210 0 85.0758 13.0707 1112 68.902 192.036 504.204
1211 0 85.0559 14.5316 1236 68.4409 191.999 501.112
1212 1 47.0335 12.9057 607 70.2965 192.211 518.931
1213 0 51.0571 14.2194 726 67.8912 192.873 519.376
1214 0 51.0777 12.9215 660 69.2061 192.571 519.926
1215 0 54.0304 13.807 746 67.7306 191.787 518.087
1216 0 55.0287 12.339 679 68.9146 193.275 519.044
1217 0 58.0995 13.8383 804 67.0398 192.779 517.048
1218 0 60.076 13.9656 839 66.6365 192.542 516.131
1219 0 60.0393 13.4912 810 67.5457 192.251 515.804
1220 0 63.077 13.7451 867 67.1569 192.565 514.212
1221 0 64.0375 14.4915 928 66.9623 192.978 511.292
1222 0 67.1484 14.7286 989 65.8837 192.481 511.418
1223 0 71.1053 13.4449 956 67.2364 192.48 509.009
1224 0 70.1237 13.3906 939 67.5921 192.991 509.683
1225 0 74.2246 13.8094 1025 67.1415 192.932 507.654
1226 0 77.0671 14.1305 1089 66.6263 192.77 506.354
1227 0 79.1094 14.2587 1128 67.1161 193.171 503.152
1228 0 82.0957 13.6548 1121 66.8519 193.001 505.729
1229 0 84.063 14.1323 1188 67.5429 193.134 502.134
1230 0 85.0471 14.3215 1218 67.7775 192.975 502.741
1231 0 89.1885 13.0174 1161 68.95 192.533 500.127
1232 1 48.0659 13.5439 651 68.0445 193.647 519.869
1233 0 50.0668 12.7829 640 69.3719 193.177 517.436
1234 0 51.0945 12.0757 617 69.577 193.316 518.851
1235 0 54.092 13.7543 744 67.7608 192.956 517.097
1236 0 54.0247 12.6609 684 69.1725 192.659 517.575
1237 0 55.1243 12.6804 699 69.6566 192.841 516.402
1238 0 58.0831 13.7906 801 67.7528 193.424 513.534
1239 0 61.0547 14.0366 857 66.0653 193.03 515.811
1240 0 62.1567 12.6133 784 68.3074 193.256 513.893
1241 0 64.1171 12.5084 802 68.8491 193.769 511.546
1242 0 65.0675 13.5398 881 66.8229 192.734 513.642
1243 0 69.0999 13.7048 947 66.5934 193.235 508.228
1244 0 71.0992 14.7681 1050 65.2705 193.19 506.81
1245 0 75.1486 12.6549 951 67.1693 193.87 507.63
1246 0 76.0947 12.4056 944 67.054 193.68 506.783
1247 0 80.1083 13.332 1068 66.0637 193.951 503.229
1248 0 81.1306 11.8944 965 68.2425 193.618 503.041
1249 0 86.1094 13.6803 1178 64.2148 193.851 505.846
1250 1 47.0547 12.7724 601 66.1997 193.301 519.221
1251 0 46.0991 12.2996 567 67.4515 193.621 518.302
1252 0 49.1119 13.1333 645 66.307 193.414 517.95
1253 0 50.1583 13.4574 675 65.5215 193.136 516.961
1254 0 51.0535 12.4379 635 67.6819 193.074 514.573
1255 0 54.1351 13.7803 746 65.8418 193.481 513.365
1256 0 54.1435 12.079 654 68.2798 193.162 513.304
1257 0 56.0869 13.4434 754 66.2944 193.496 511.767
1258 0 59.1244 14.9008 881 63.8456 193.252 512.631
1259 0 59.0432 13.2615 783 66.2861 193.519 511.917
1260 0 61.0677 14.2629 871 65.38 193.822 508.812
1261 0 65.1681 14.0406 915 64.6372 193.626 509.749
1262 0 64.1266 13.6605 876 65.5068 193.688 510.324
1263 0 67.0917 12.8779 864 66.1238 194.148 508.973
1264 0 70.0296 12.4519 872 65.9644 194.106 509.177
1265 0 74.0513 13.5987 1007 64.8491 193.448 503.128
1266 0 73.089 13.723 1003 64.681 193.264 505.187
1267 0 77.1582 12.8826 994 65.2767 192.475 502.879
1268 0 80.2567 12.5722 1009 64.8028 192.904 503.873
1269 0 85.1537 14.0687 1198 63.1669 193.174 503.445
1270 0 86.209 14.1981 1224 63.5711 192.828 500.117
1271 0 89.1337 13.0927 1167 64.5656 193.547 498.32
1272 0 92.1755 13.1488 1212 64.3515 192.961 496.272
1273 0 93.0933 13.5241 1259 63.8451 192.894 497.523
1274 1 49.0234 12.6062 618 64.0162 193.222 519.358
1275 0 50.0311 13.5116 676 64.0814 192.321 517.644
1276 0 51.1788 11.157 571 67.606 192.555 515.14
1277 0 52.0546 11.3727 592 67.3328 193.299 516.971
1278 0 56.1012 14.0995 791 63.8407 193.284 515.822
1279 0 56.2487 12.6581 712 66.0618 192.782 513.826
1280 0 60.085 12.6155 758 65.7111 192.765 513.356
1281 0 61.131 14.3462 877 63.7628 194.138 513.788
1282 0 64.175 14.9903 962 63.0852 193.52 512.047
1283 0 63.055 11.4979 725 67.4497 193.239 508.458
1284 0 65.1195 15.1568 987 63.3019 193.007 508.059
1285 0 69.048 13.7875 952 64.3498 193.654 509.193
1286 0 71.0921 12.8425 913 65.6156 192.964 506.949
1287 0 74.1115 13.0884 970 65.2804 192.321 505.34
1288 0 76.1384 13.1208 999 65.5816 192.966 504.691
1289 0 78.1259 14.5662 1138 64.558 192.822 503.513
1290 0 80.1608 13.8097 1107 65.7335 193.436 504.238
1291 0 83.3028 13.8171 1151 65.5534 193.04 504.316
1292 0 86.0408 14.4815 1246 65.1148 192.895 501.261
1293 0 90.2276 13.5546 1223 66.7032 192.893 499.44
1294 0 93.0919 13.8036 1285 66.0381 193.296 500.202
1295 0 97.1992 14.7223 1431 65.7114 192.651 497.094
1296 0 100.058 14.7914 1480 65.6926 192.372 495.143
1297 0 104.202 14.5679 1518 65.3426 193.242 498.105
1298 0 105.159 13.703 1441 67.5926 192.867 494.323
1299 1 54.1156 12.307 666 69.4655 192.889 516.032
1300 0 58.0829 13.2741 771 67.4877 192.655 517.162
1301 0 58.2184 13.9303 811 67.4007 193.904 515.592
1302 0 64.1497 14.4973 930 65.4527 193.961 517.419
1303 0 64.1237 13.2244 848 68.388 193.232 515.748
1304 0 66.1492 13.9835 925 68.253 193.072 512.822
1305 0 70.1764 14.3495 1007 66.8302 192.854 513.598
1306 0 71.2727 13.8342 986 68.3357 193.291 511.437
1307 0 72.2614 12.8976 932 70.2253 193.256 510.013
1308 0 75.0924 13.8363 1039 68.5419 192.848 510.666
1309 0 77.2541 16.0509 1240 66.7056 193.25 507.005
1310 0 81.2527 14.7195 1196 67.7023 193.262 508.015
1311 0 84.2722 15.2007 1281 67.445 193.315 506.596
1312 0 85.3129 13.8783 1184 69.7525 193.418 507.531
1313 0 89.4602 15.0682 1348 68.6172 192.941 505.226
1314 0 91.4624 15.2959 1399 68.3488 192.362 501.863
1315 0 94.1531 14.5189 1367 69.4557 192.432 502.655
1316 0 94.3387 14.5645 1374 70.0837 192.825 502.091
1317 0 99.3627 13.335 1325 71.8551 193.454 500.763
1318 0 102.492 14.245 1460 70.8253 192.451 497.839
1319 0 104.079 14.1527 1473 71.3306 192.031 495.43
1320 0 109.375 13.3394 1459 71.6772 192.13 494.728
1321 0 113.291 14.123 1600 70.5356 191.911 492.783
1322 1 56.5933 11.1321 630 72.2952 192.273 520.143
1323 0 59.4887 14.5406 865 69.0994 192.221 518.514
1324 0 62.3718 12.3934 773 72.0362 193.111 517.379
1325 0 61.2246 13.5403 829 70.6188 193.054 516.135
1326 0 65.1127 12.7011 827 71.4946 192.713 515.711
1327 0 66.1986 14.1393 936 69.5246 192.139 514.001
1328 0 68.0751 12.7066 865 71.1896 192.088 513.6
1329 0 70.1969 14.9009 1046 68.6883 193.039 511.272
1330 0 73.1237 14.4686 1058 68.6021 192.525 511.521
1331 0 75.1024 13.3285 1001 70.6913 192.634 508.91
1332 0 79.2552 13.7657 1091 69.9752 192.299 506.555
1333 0 81.1558 13.7636 1117 70.1576 192.831 507.057
1334 0 83.152 13.8421 1151 70.497 192.858 502.624
1335 0 85.106 13.9591 1188 70.7584 193.047 503.387
1336 0 90.1929 13.7816 1243 69.716 192.957 499.647
1337 0 93.1293 13.1645 1226 70.5392 192.13 499.692
1338 0 94.1504 14.0095 1319 69.9083 192.157 497.506
1339 0 98.1038 13.0066 1276 70.6685 192.201 498.332
1340 0 103.11 13.3643 1378 70.2046 192.41 494.583
1341 1 55.0594 11.533 635 71.9669 192.506 518.191
1342 0 56.1486 14.3548 806 69.8784 192.924 516.742
1343 0 59.1563 12.3909 733 71.4311 192.21 515.857
1344 0 62.1321 13.1172 815 69.7522 192.463 516.698
1345 0 64.1321 11.7414 753 72.0677 192.308 515.138
1346 0 68.1284 14.913 1016 68.0768 192.234 512.245
1347 0 69.0971 13.3146 920 70.2989 192.227 509.032
1348 0 70.0336 13.8933 973 68.8561 192.06 512.682
1349 0 75.0921 13.9162 1045 68.4718 192.987 509.144
1350 0 79.1054 14.1963 1123 67.5957 192.444 508.817
1351 0 80.1709 14.6063 1171 67.427 192.666 508.385
1352 0 84.2542 13.8391 1166 68.2959 192.422 503.546
1353 0 85.2478 13.3728 1140 68.95 193.212 502.06
1354 0 88.2173 15.1331 1335 66.4944 192.819 502.365
1355 0 91.2056 15.032 1371 66.6273 192.601 500.484
1356 0 95.0845 13.6826 1301 68.4712 192.641 499.19
1357 0 98.2073 12.8096 1258 69.5541 192.789 496.258
1358 0 101.104 13.6592 1381 68.441 192.133 496.576
1359 1 47.0721 12.7889 602 70.7276 192.429 519.57
1360 0 52.0798 12.6153 657 69.3607 192.741 520.012
1361 0 51.0323 13.1485 671 69.459 193 519.973
1362 0 53.0537 12.9491 687 69.0393 192.483 519.157
1363 0 57.1331 13.3898 765 68.6967 192.988 515.779
1364 0 58.0867 12.4469 723 70.1895 192.682 515.006
1365 0 60.2793 14.4826 873 66.1524 193.026 516.597
1366 0 61.0675 12.7891 781 69.0218 193.169 514.498
1367 0 66.082 14.7998 978 65.3671 193.626 514.756
1368 0 66.0836 14.2244 940 66.9287 193.622 511.829
1369 0 68.1403 15.0718 1027 65.5686 193.716 513.166
1370 0 72.047 14.7404 1062 66.194 192.89 510.691
1371 0 72.2167 14.1795 1024 67.3223 192.61 509.88
1372 0 77.2272 15.5256 1199 64.9299 192.462 508.958
1373 0 80.1262 13.7034 1098 67.1867 193.115 508.207
1374 0 83.1214 15.2428 1267 65.3544 193.465 507.968
1375 0 83.1287 13.7377 1142 67.8424 192.797 504.402
1376 0 86.0965 13.8682 1194 67.4464 192.946 503.647
1377 0 88.0747 14.1357 1245 67.0916 192.732 503.092
1378 0 92.2583 13.7874 1272 67.5314 192.083 501.516
1379 0 97.2519 14.447 1405 66.3409 192.58 500.275
1380 1 50.0837 12.3194 617 69.423 192.373 520.207
1381 0 52.1725 12.7653 666 69.5165 192.437 518.366
1382 0 51.1467 13.256 678 69.8201 192.687 518.858
1383 0 55.0774 13.5809 748 68.1417 192.436 519.324
1384 0 58.0573 12.8149 744 68.9892 192.112 516.723
1385 0 58.1247 13.4538 782 68.3798 192.535 516.096
1386 0 59.112 15.0562 890 66.5663 193.085 515.435
1387 0 60.0761 13.2166 794 69.2934 193.139 514.671
1388 0 60.1998 15.4319 929 66.6405 192.813 512.26
1389 0 65.0688 14.5692 948 67.1719 192.864 510.272
1390 0 65.0876 14.3345 933 67.6024 192.208 512.833
1391 0 70.0896 14.5243 1018 66.0776 192.411 512.024
1392 0 71.4103 14.7738 1055 66.8246 191.991 511.364
1393 0 75.1096 15.1911 1141 66.0649 192.146 511.395
1394 0 79.1402 15.8453 1254 65.571 191.793 507.34
1395 0 79.1159 15.7996 1250 65.8856 191.964 508.213
1396 0 83.2144 14.4927 1206 67.8607 192.163 501.538
1397 0 84.2302 16.1818 1363 66.493 192.951 504.867
1398 0 89.3475 16.3631 1462 65.9638 192.879 502.369
1399 0 91.2449 16.6256 1517 65.704 192.645 502.873
1400 0 92.3004 14.9512 1380 68.6297 192.18 499.988
1401 0 96.2099 14.0318 1350 69.9237 192.496 498.061
1402 0 98.0797 16.2623 1595 67.2947 192.755 496.392
1403 1 51.0657 14.217 726 68.3444 192.011 520.944
1404 0 50.0665 12.2038 611 71.8462 192.214 520.329
1405 0 54.2006 13.7268 744 69.6452 192.321 519.763
1406 0 55.2534 14.8045 818 68.1247 192.158 520.137
1407 0 57.178 14.0439 803 69.533 192.204 519.067
1408 0 59.078 13.6091 804 70.0473 191.959 519.33
1409 0 58.0764 13.3273 774 71.6227 192.162 516.566
1410 0 62.0566 13.2137 820 70.9122 193.085 517.135
1411 0 64.2147 14.0311 901 69.5616 193.292 516.048
1412 0 67.1607 12.7902 859 70.7742 192.612 515.348
1413 0 70.1698 15.8045 1109 67.6528 192.528 513.068
1414 0 68.1882 12.7441 869 72.3118 191.88 510.265
1415 0 74.0926 14.2929 1059 68.9906 192.247 511.926
1416 0 76.5062 14.1949 1086 69.582 192.295 509.748
1417 0 80.1115 15.5284 1244 67.1793 192.929 510.808
1418 0 80.1806 13.3449 1070 70.7804 192.718 507.897
1419 0 84.1885 15.1446 1275 67.8847 193.165 507.794
1420 0 86.1712 15.1791 1308 68.13 192.508 505.934
1421 0 89.2087 14.9985 1338 68.358 192.322 504.744
1422 0 91.2346 16.2548 1483 67.0108 192.514 503.42
1423 1 49.1501 12.8586 632 68.9573 193.122 523.74
1424 0 51.141 14.6653 750 67.7547 192.507 522.776
1425 0 51.1586 13.683 700 69.6629 192.086 522.514
1426 0 53.1251 14.1553 752 69.2886 192.957 521.56
1427 0 57.3758 16.6969 958 65.1848 192.965 521.754
1428 0 55.1393 13.874 765 70.1817 192.425 520.552
1429 0 58.1294 14.0548 817 69.0857 192.579 520.453
1430 0 58.1517 14.9093 867 69.3264 192.96 517.814
1431 0 62.2572 14.2795 889 69.8886 192.454 516.115
1432 0 62.1743 15.344 954 69.1415 192.46 515.584
1433 0 65.2332 14.3485 936 69.6026 192.631 515.549
1434 0 66.3726 13.9515 926 70.743 192.781 514.741
1435 0 71.1635 15.5838 1109 68.3147 192.725 512.087
1436 0 71.1861 14.3427 1021 70.1998 192.426 512.38
1437 0 75.2659 14.2561 1073 70.4082 192.665 509.963
1438 0 77.1859 13.3185 1028 71.0613 192.389 511.654
1439 0 79.2776 13.1058 1039 71.974 192.121 508.015
1440 0 83.4563 14.4746 1208 69.9503 192.553 508.291
1441 0 85.5466 13.8521 1185 71.6599 192.182 506.071
1442 0 87.1867 13.5571 1182 72.544 192.759 503.282
1443 0 91.1901 15.1552 1382 70.377 192.381 502.332
1444 0 91.1814 15.0908 1376 71.149 192.398 500.265
1445 0 96.2362 14.0176 1349 71.9199 192.465 500.858
1446 0 102.519 15.9873 1639 69.0555 192.275 498.189
1447 1 47.2768 12.6489 598 73.689 192.43 521.388
1448 0 49.145 13.6738 672 73.6042 192.156 520.476
1449 0 53.2504 13.8027 735 72.9592 193.12 520.201
1450 0 52.2757 14.0983 737 73.7422 192.642 519.213
1451 0 54.3102 13.7543 747 74.4792 193.299 517.759
1452 0 57.2128 13.441 769 73.9974 193.116 518.815
1453 0 58.1883 14.2125 827 73.1705 193.184 517.986
1454 0 61.2032 14.1006 863 72.584 193.145 517.372
1455 0 62.1551 15.3487 954 71.9455 192.988 516.952
1456 0 64.0902 15.3378 983 72.4883 193.418 514.707
1457 0 68.2077 13.8254 943 73.4613 193.65 513.522
1458 0 70.1131 15.1897 1065 72.3249 193.014 512.54
1459 0 70.1939 14.346 1007 74.1519 193.356 511.951
1460 0 72.1463 15.2329 1099 73.6169 193.401 510.369
1461 0 73.1629 14.5702 1066 75.2195 193.45 508.376
1462 0 78.3269 15.7162 1231 73.6458 192.942 507.834
1463 0 80.1403 15.1859 1217 74.9885 192.767 506.118
1464 0 84.1163 15.0506 1266 74.8262 192.603 506.213
1465 0 85.5246 14.6741 1255 76.4845 193.446 505.152
1466 0 91.3012 15.761 1439 72.8033 192.908 506.352
1467 0 93.2537 16.1173 1503 73.2162 193.009 501.723
1468 0 94.3067 14.5059 1368 75.9094 192.667 500.982
1469 0 98.2411 15.3296 1506 75.1361 192.552 498.803
1470 0 101.43 15.2026 1542 75.1952 192.484 497.644
1471 0 104.334 15.0958 1575 74.7911 193.269 498.778
1472 0 109.242 15.571 1701 74.9153 193.415 495.735
1473 1 57.401 13.6234 782 76.0614 193.89 520.17
1474 0 59.2533 14.2102 842 75.0226 193.011 520.824
1475 0 59.4027 13.5179 803 77.8144 192.988 518.2
1476 0 62.15 14.465 899 75.812 192.506 519.523
1477 0 65.227 14.0586 917 75.3784 192.588 517.125
1478 0 66.3197 15.0332 997 74.2768 192.943 515.832
1479 0 70.1231 14.4175 1011 75.9308 192.797 513.579
1480 0 72.2896 14.7877 1069 74.7474 192.526 513.889
1481 0 73.2201 14.1082 1033 76.4927 193.159 512.068
1482 0 74.2721 14.4738 1075 76.3023 192.711 511.008
1483 0 81.1655 15.4499 1254 73.4785 192.467 509.725
1484 0 80.2543 14.0179 1125 77.0631 192.781 508.785
1485 0 83.1982 13.3056 1107 78.0894 193.054 509.17
1486 0 86.1719 15.2834 1317 75.0668 192.431 507.278
1487 0 89.3729 14.9262 1334 75.5757 192.038 506.02
1488 0 90.4567 14.3273 1296 77.4491 192.623 504.056
1489 0 93.3488 14.7725 1379 76.6497 192.904 502.708
1490 0 97.2466 15.4041 1498 74.7243 193.069 502.328
1491 0 102.423 16.4611 1686 73.3197 192.721 497.854
1492 1 51.1818 13.1883 675 76.5111 192.865 522.853
1493 0 51.2064 13.5335 693 76.1934 192.179 521.836
1494 0 52.2446 13.5325 707 75.4639 192.378 523.298
1495 0 54.3128 13.6984 744 76.5255 191.719 520.954
1496 0 55.2307 15.3538 848 74.816 191.787 519.083
1497 0 55.1975 12.881 711 77.9452 192.932 521.128
1498 0 56.1558 15.2789 858 75.6643 192.246 517.214
1499 0 60.1434 15.2469 917 74.8811 192.54 518.892
1500 0 62.2847 14.3695 895 75.9665 192.589 517.616
1501 0 64.447 16.6028 1070 72.8449 192.64 516.822
1502 0 64.2636 14.425 927 77.0615 193.259 514.821
1503 0 67.2012 14.6872 987 76.0253 192.783 515.082
1504 0 70.4906 15.7751 1112 74.1951 192.441 512.228
1505 0 73.2297 14.8847 1090 75.6477 192.709 512.305
1506 0 73.3025 14.8017 1085 76.1926 192.989 511.851
1507 0 77.2191 15.0481 1162 75.9096 192.723 510.707
1508 0 80.296 15.4927 1244 74.787 192.261 509.182
1509 0 83.2208 16.4502 1369 73.6925 191.805 507.13
1510 0 83.2415 14.3919 1198 77.3389 192.649 507.053
1511 0 86.2783 15.5427 1341 75.3274 192.101 505.663
1512 0 89.2474 14.8912 1329 76.2423 192.187 503.764
1513 0 93.1949 14.754 1375 76.4822 192.682 501.063
1514 1 47.1624 15.5208 732 73.123 192.97 524.678
1515 0 47.273 13.5595 641 77.3947 192.668 523.571
1516 0 48.1919 14.8573 716 76.9958 192.514 520.29
1517 0 48.2958 14.3284 692 77.8642 192.845 521.208
1518 0 53.2416 15.1573 807 75.5031 191.592 521.331
1519 0 52.1042 14.4902 755 76.6132 191.812 522.123
1520 0 55.2982 14.3404 793 77 191.566 519.172
1521 0 55.368 13.4193 743 79.8506 192.178 517.022
1522 0 58.1875 13.8518 806 78.16 192.158 518.819
1523 0 61.2583 14.2511 873 77.1306 192.194 516.826
1524 0 65.2733 14.3397 936 76.6111 192.36 516.749
1525 0 63.2895 13.9044 880 78.5398 192.384 515.477
1526 0 65.2495 14.1151 921 77.8274 192.436 514.928
1527 0 68.2778 12.9178 882 79.3651 192.658 513.73
1528 0 69.3873 14.0516 975 77.7969 192.102 513.766
1529 0 71.1998 15.0703 1073 77.5648 191.759 510.519
1530 0 73.091 14.4614 1057 78.983 191.538 509.623
1531 0 77.2917 14.7234 1138 77.6336 191.648 509.866
1532 0 76.1963 15.1713 1156 78.4939 191.417 506.098
1533 0 79.2365 14.6271 1159 78.1337 192.203 508.422
1534 0 82.396 14.5274 1197 78.3367 191.957 507.888
1535 0 83.2563 13.8008 1149 80.5091 192.37 504.512
1536 0 86.1527 16.1574 1392 77.0323 192.418 504.039
1537 0 90.2268 13.9426 1258 79.1232 191.909 504.831
1538 0 93.0873 16.1784 1506 76.4256 192.306 501.7
1539 0 96.278 14.1569 1363 79.2289 192.125 502.261
1540 0 98.3014 15.4932 1523 77.2088 192.011 500.92
1541 0 101.355 14.6515 1485 78.1374 191.758 499.822
1542 0 105.291 15.082 1588 77.4207 191.698 498.216
1543 1 57.2173 13.3351 763 78.346 191.954 520.899
1544 0 57.2956 15.1844 870 77.0034 191.179 520.698
1545 0 59.3796 16.3019 968 74.9298 191.486 518.352
1546 0 61.2713 14.9336 915 77.2962 192.686 517.872
1547 0 62.3785 15.5021 967 76.8201 191.643 516.75
1548 0 65.383 14.438 944 77.733 191.943 515.857
1549 0 66.3366 15.3912 1021 76.4672 192.518 515.113
1550 0 68.2384 15.2407 1040 76.7663 192.22 514.645
1551 0 70.1503 14.6685 1029 77.5131 192.508 512.449
1552 0 74.2895 13.7435 1021 77.9314 192.315 513.213
1553 0 75.2287 13.1997 993 78.6264 192.777 512.999
1554 0 78.2711 13.7982 1080 77.3018 192.692 511.806
1555 0 79.1478 13.4937 1068 78.7725 192.457 511.213
1556 0 82.1725 14.5913 1199 77.5588 192.2 508.336
1557 0 86.3231 14.0634 1214 77.5231 192.081 506.356
1558 0 87.3059 14.6267 1277 76.5458 192.027 508.238
1559 0 91.2958 15.0828 1377 76.7734 192.72 503.548
1560 0 95.2038 14.6948 1399 76.8406 192.12 503.009
1561 0 96.6085 14.7917 1429 76.5969 191.943 499.908
1562 0 101.126 16.0394 1622 74.3767 192.222 499.747
1563 0 103.162 16.0525 1656 73.9004 192.956 499.599
1564 1 54.2125 12.5248 679 78.1208 192.536 521.988
1565 0 54.0977 12.7732 691 79.1693 192.42 519.718
1566 0 56.1382 14.589 819 77.1038 192.709 518.932
1567 0 57.1501 14.2432 814 77.2617 192.343 518.736
1568 0 60.2553 13.4428 810 78.7593 192.688 515.644
1569 0 60.2923 13.9321 840 77.8702 192.682 516.368
1570 0 63.3976 13.8964 881 76.9364 192.805 516.723
1571 0 65.3452 13.6965 895 77.6469 192.124 515.423
1572 0 67.0829 15.9206 1068 74.8614 192.746 513.226
1573 0 68.235 14.5087 990 77.1293 192.909 512.154
1574 0 72.369 14.8406 1074 75.9721 193.302 511.26
1575 0 73.1143 14.3748 1051 76.49 192.129 512.107
1576 0 76.2628 14.8696 1134 76.1764 192.444 509.332
1577 0 77.2387 13.5295 1045 79.2316 192.614 507.221
1578 0 81.2948 14.2937 1162 77.9406 192.896 506.525
1579 0 85.2847 14.7154 1255 76.8 192.701 506.845
1580 0 86.2603 14.2823 1232 78.2979 191.736 503.508
1581 0 89.2456 13.9391 1244 79.205 191.62 502.45
1582 0 93.3224 14.5517 1358 77.7688 192.314 501.721
1583 0 97.3944 14.3848 1401 77.7031 192.079 500.769
1584 0 95.2229 14.5763 1388 78.2514 191.836 498.339
1585 0 100.334 14.103 1415 78.0346 191.755 498.642
1586 0 103.143 14.4556 1491 77.7733 191.675 494.51
1587 0 106.228 15.2125 1616 76.1844 192.224 496.421
1588 1 56.1255 13.0244 731 78.6881 191.776 519.9
1589 0 58.1126 15.5732 905 76.074 191.213 516.994
1590 0 59.1858 14.615 865 77.4358 192.465 518.822
1591 0 61.1244 15.2476 932 76.4732 192.663 517.682
1592 0 65.1103 13.577 884 77.6448 192.162 518.381
1593 0 67.5044 14.5472 982 77.6191 192.086 514.485
1594 0 67.1908 14.4514 971 78.6426 191.797 513.357
1595 0 70.0707 16.0409 1124 76.3292 192.185 511.427
1596 0 72.1647 15.3953 1111 77.2025 191.38 511.794
1597 0 75.2563 15.3608 1156 77.1479 191.832 510.414
1598 0 78.1794 14.9144 1166 78.1758 192.124 509.399
1599 0 79.2109 15.566 1233 77.6496 191.629 508.098
1600 0 81.0466 16.1512 1309 77.3293 191.189 505.565
1601 0 84.2821 14.2498 1201 80.2057 191.507 506.121
1602 0 88.3339 13.8905 1227 80.22 191.437 505.531
1603 0 90.4039 15.2759 1381 78.2375 191.405 503.592
1604 0 92.3004 14.8428 1370 78.5423 191.747 504.498
1605 0 97.3289 14.415 1403 79.7384 192.239 501.771
1606 1 45.2544 14.4958 656 80.2287 192.227 524.547
1607 0 48.5636 13.6728 664 80.4548 191.959 524.077
1608 0 50.3556 15.1522 763 78.8794 191.48 523.301
1609 0 51.2877 15.1108 775 79.7226 191.703 522.001
1610 0 52.088 15.1475 789 79.5285 192.19 521.553
1611 0 53.2374 15.6281 832 79.5733 193.022 520.916
1612 0 55.3674 14.3948 797 80.8181 192.359 521.946
1613 0 57.1269 15.9119 909 79.5094 192.301 519.724
1614 0 55.2215 15.6461 864 81.0694 192.015 519.24
1615 0 59.0669 14.8645 878 80.6731 193.196 518.882
1616 0 62.0521 15.342 952 80.5052 192.267 517.383
1617 0 64.1097 14.7872 948 81.1825 192.218 516.545
1618 0 63.2989 14.5184 919 82.1012 192.393 515.567
1619 0 66.4014 14.2467 946 82.1353 192.146 514.412
1620 0 69.1519 15.6323 1081 79.5541 192.48 514.516
1621 0 72.3955 15.4015 1115 79.6718 191.891 512.158
1622 0 73.2054 14.5891 1068 81.3277 192.429 511.698
1623 0 74.5537 15.3178 1142 80.5455 192.499 509.497
1624 0 79.2966 14.3133 1135 81.2264 192.374 508.869
1625 0 82.2947 15.3108 1260 80.319 192.164 505.59
1626 0 85.3985 15.4569 1320 79.4818 191.997 504.725
1627 0 85.132 16.5038 1405 78.7722 191.944 502.117
1628 1 38.0582 12.0867 460 82.4609 192.3 527.848
1629 0 39.1778 14.5235 569 80.1758 191.96 525.158
1630 0 40.0626 15.2761 612 78.8039 191.742 525.624
1631 0 42.0611 15.4299 649 78.225 192.314 525.373
1632 0 42.1805 16.6902 704 77.5355 192.094 523.857
1633 0 43.1909 13.5445 585 82.3043 190.923 524.103
1634 0 45.1024 14.7221 664 80.2741 191.492 523.158
1635 0 47.1655 15.5198 732 79.0492 191.738 521.863
1636 0 49.3373 14.3097 706 80.228 191.834 521.622
1637 0 50.2181 14.2777 717 80.4895 191.819 521.425
1638 0 48.1021 13.6377 656 81.6387 192.489 522.765
1639 0 53.2132 14.1882 755 80.5457 192.383 520.66
1640 0 54.1736 15.1181 819 79.8767 192.361 518.741
1641 0 55.2805 15.8826 878 78.6697 193.091 518.298
1642 0 55.4927 13.0468 724 82.6326 192.29 518.463
1643 0 58.3412 14.9637 873 80.3081 191.143 515.782
1644 0 60.4123 15.7087 949 78.3161 191.752 515.561
1645 0 62.1879 15.6944 976 78.6824 192.037 512.715
1646 0 65.4888 15.7126 1029 77.3664 192.179 513.355
1647 0 67.5619 14.5052 980 79.4531 192.445 513.22
1648 0 67.454 14.4543 975 79.8513 191.733 513.214
1649 0 72.5331 14.9587 1085 77.8083 192.425 513.349
1650 0 74.9177 15.8307 1186 76.7943 192.212 510.008
1651 0 75.5724 15.2172 1150 78.4722 192.441 508.63
1652 0 77.7115 15.3259 1191 78.429 192.197 507.864
1653 0 80.566 14.6464 1180 79.233 192.27 506.147
1654 0 82.8867 14.731 1221 78.1704 192.485 506.147
1655 0 85.7021 15.2505 1307 77.8034 192.192 503.456
1656 0 87.5796 14.7523 1292 78.5433 191.874 501.464
1657 0 91.6666 13.5709 1244 80.4453 191.375 501.858
1658 0 93.446 14.5325 1358 78.8277 191.855 501.117
1659 1 33.5996 10.7442 361 79.0859 192.042 528.704
1660 0 36.5526 13.2412 484 76.5351 192.862 527.091
1661 0 37.4747 14.1162 529 75.0435 191.82 527.091
1662 0 38.3246 13.4639 516 75.2112 192.103 528.51
1663 1 110.583 14.5049 1604 78.6303 192.233 494.974
1664 0 113.71 15.6275 1777 77.5492 192.017 491.824
1665 0 117.58 14.2031 1670 79.3264 191.689 492.892
1666 0 118.726 13.2153 1569 81.7999 192.41 489.945
1667 0 122.637 14.441 1771 79.9768 192.89 488.169
1668 0 128.661 15.4048 1982 78.3951 192.762 486.069
1669 0 129.58 13.6595 1770 81.3266 192.605 484.42
1670 0 134.75 14.2041 1914 81.4373 192.819 481.63
1671 1 49.4284 13.8989 687 77.3042 193.096 523.715
1672 0 48.227 15.1782 732 75.694 192.426 523.094
1673 0 50.7344 14.3492 728 77.3915 193.03 521.51
1674 0 54.4067 12.5904 685 79.2263 192.591 521.518
1675 0 53.3232 14.5903 778 78.5771 192.852 518.928
1676 0 53.3821 13.2254 706 80.9575 192.507 518.02
1677 0 56.4545 13.9759 789 79.5703 192.653 517.664
1678 0 59.3507 12.8895 765 79.4026 192.835 516.889
1679 0 60.6105 13.133 796 78.657 193.119 517.345
1680 0 61.6323 14.116 870 78.4448 192.79 514.399
1681 0 62.6497 14.4933 908 76.7698 192.526 515.161
1682 0 67.5955 13.7879 932 77.4077 192.617 513.918
1683 0 70.4986 13.518 953 77.1553 192.572 513.269
1684 0 70.5388 13.9356 983 77.3377 192.773 511.745
1685 0 72.4172 12.2761 889 80.1665 192.449 508.679
1686 0 78.6044 13.7524 1081 76.7789 192.201 509.565
1687 0 80.6011 14.9378 1204 76.4369 192.231 506.869
1688 0 83.6616 14.463 1210 75.5215 192.407 508.664
1689 0 83.763 13.2159 1107 78.3586 192.467 505.28
1690 1 44.6465 13.2149 590 77.817 192.563 523.33
1691 0 46.8554 14.1499 663 76.629 191.916 521.916
1692 0 50.6277 13.9054 704 75.6619 192.232 520.376
1693 0 47.1475 12.8321 605 78.6959 191.917 521.149
1694 0 50.5595 14.3198 724 76.2459 192.177 520.515
1695 0 52.5563 13.4713 708 77.4689 192.826 519.463
1696 0 54.417 15.4731 842 74.0629 192.291 518.799
1697 0 53.3381 13.9675 745 77.3356 192.902 518.562
1698 0 57.5236 15.3154 881 74.4086 192.008 517.831
1699 0 58.2934 14.0325 818 75.7531 192.403 517.271
1700 0 59.3388 14.1223 838 76.3365 192.532 514.408
1701 0 62.2462 15.1174 941 74.2678 192.163 515.058
1702 0 64.54 14.6576 946 75.2072 192.828 511.931
1703 0 65.0994 14.8081 964 75.0467 192.343 512.627
1704 0 67.5354 13.4152 906 76.362 191.993 510.834
1705 0 70.4916 14.0868 993 75.2518 192.244 511.214
1706 0 72.6008 14.683 1066 74.3771 191.901 510.767
1707 0 77.3389 14.2231 1100 74.5782 192.222 506.583
1708 0 79.5012 15.2073 1209 72.579 192.262 507.004
1709 0 81.3567 15.0203 1222 72.9918 192.237 504.497
1710 0 82.6966 13.4347 1111 75.3771 192.146 502.256
1711 0 88.4727 14.2304 1259 73.2542 192.948 503.67
1712 0 88.1786 13.45 1186 75.6425 192.298 499.291
1713 0 93.4777 14.9126 1394 73.4103 192.216 497.04
1714 1 43.2471 14.0819 609 75.1215 191.834 521.593
1715 0 48.7738 14.8235 723 73.1508 191.757 519.834
1716 0 47.2074 13.5148 638 75.768 192.367 521.585
1717 0 50.5297 14.7042 743 74.2302 192.611 520.199
1718 0 51.2926 13.0623 670 77.2179 192.915 518.427
1719 0 54.3341 15.0918 820 73.5683 193.174 518.612
1720 0 53.1698 15.253 811 73.7805 192.398 518.412
1721 0 57.5089 15.2324 876 73.4521 192.255 516.858
1722 0 59.1463 15.1658 897 73.2575 191.828 517.086
1723 0 62.2411 14.251 887 73.6212 191.902 516.741
1724 0 64.514 14.71 949 73.6733 192.084 513.964
1725 0 62.145 13.2915 826 77.5642 192.754 514.103
1726 0 66.417 16.02 1064 72.3759 192.856 512.973
1727 0 70.3652 14.5527 1024 74.2139 192.573 511.945
1728 0 73.5499 14.5207 1068 74.0524 192.21 513.433
1729 0 74.1658 13.0923 971 76.8126 191.49 509.597
1730 0 77.155 14.0237 1082 75.4769 191.815 507.082
1731 0 79.5147 15.2802 1215 73.6222 192.134 506.423
1732 0 82.5449 14.1983 1172 74.9932 191.858 505.427
1733 0 86.5118 12.7266 1101 76.8056 191.726 504.894
1734 0 87.1338 15.8262 1379 73.1255 192.587 502.321
1735 0 90.7159 14.4738 1313 74.5347 192.553 501.847
1736 0 93.4459 14.7251 1376 74.3772 192.07 501.272
1737 0 97.8397 15.9853 1564 71.759 191.714 500.063
1738 0 102.156 16.1615 1651 71.573 191.68 496.675
1739 0 107.455 16.6768 1792 70.264 192.564 495.153
1740 0 109.864 14.527 1596 73.2137 192.143 494.957
1741 0 115.409 16.1772 1867 70.5035 191.935 493.098
1742 1 61.243 14.6956 900 72.6544 192.8 517.878
1743 0 64.1477 14.5757 935 73.1733 191.754 515.864
1744 0 64.2078 14.9982 963 72.4964 192.835 515.179
1745 0 68.1979 15.2057 1037 72.0501 192.299 513.179
1746 0 70.3843 15.0602 1060 71.2019 191.908 513.975
1747 0 73.1013 15.5674 1138 70.1388 192.036 512.856
1748 0 75.3174 14.419 1086 71.8416 192.625 510.951
1749 0 79.4209 15.0086 1192 69.9329 192.368 509.605
1750 0 81.644 14.2815 1166 71.3276 192.225 507.481
1751 0 83.4958 15.3062 1278 69.248 192.329 509.405
1752 0 86.2292 14.7398 1271 70.7514 192.241 506.735
1753 0 89.1314 15.2359 1358 70.1966 192.367 503.568
1754 0 90.2337 14.7395 1330 70.8383 192.435 502.309
1755 0 96.484 15.2253 1469 68.8788 192.364 502.926
1756 1 49.319 15.5316 766 68.7376 192.863 524.504
1757 0 52.2154 16.0106 836 67.8804 192.443 522.64
1758 0 50.2203 14.5559 731 70.606 192.445 521.185
1759 0 51.6075 14.2421 735 71.3197 192.766 518.942
1760 0 56.6008 15.2118 861 68.2265 192.568 519.116
1761 0 57.8602 15.5029 897 67.7157 192.299 519.459
1762 0 57.309 16.1929 928 68.3502 192.046 515.328
1763 0 60.4571 15.5151 938 68.1546 192.426 515.203
1764 0 61.3944 15.3434 942 69.0053 192.567 514.547
1765 0 64.5592 16.0318 1035 67.4773 192.482 512.958
1766 0 63.1745 13.4231 848 70.6533 192.119 515.183
1767 0 67.1373 16.3396 1097 67.0055 192.12 512.946
1768 0 72.345 15.5643 1126 66.8517 192.175 510.587
1769 0 73.3339 14.5635 1068 69.0281 192.108 508.337
1770 0 73.441 13.8478 1017 69.9508 191.847 507.639
1771 0 79.434 14.5655 1157 67.6612 191.697 509.662
1772 0 79.5152 15.7957 1256 67.6505 191.903 505.282
1773 0 81.5215 14.4747 1180 68.5864 192.653 506.793
1774 0 84.1119 15.6102 1313 67.4661 192.778 502.168
1775 0 87.2138 14.9403 1303 68.178 191.882 501.807
1776 0 91.3004 14.4797 1322 68.1641 192.922 501.047
1777 0 95.2516 14.7084 1401 67.7145 192.452 498.437
1778 0 96.2884 13.6465 1314 68.6674 192.265 499.422
1779 0 99.4148 13.9416 1386 68.4639 192.966 492.993
1780 0 102.135 14.3438 1465 68.0751 192.752 492.96
1781 0 107.374 14.389 1545 67.4227 193.118 490.627
1782 0 108.121 16.5463 1789 64.8474 192.529 488.153
1783 0 114.156 15.0496 1718 65.8347 192.522 490.285
1784 1 52.2432 12.3844 647 69.711 192.294 517.012
1785 0 53.4205 14.4701 773 68.0712 192.276 515.594
1786 0 56.4972 14.3547 811 69.5487 192.476 516.009
1787 0 58.3252 12.5503 732 71.0915 192.391 516.22
1788 0 60.2312 15.3409 924 68.3333 192.64 510.772
1789 0 61.0945 15.1077 923 69.1018 192.907 511.681
1790 0 62.2735 13.3765 833 71.4262 192.87 511.151
1791 0 64.3134 13.1543 846 72.3641 192.625 512.606
1792 0 68.2291 16.6498 1136 67.4736 192.436 511.641
1793 0 70.0965 16.5914 1163 67.8659 192.557 508.986
1794 0 76.2137 16.4144 1251 67.0048 191.97 510.74
1795 0 79.6371 17.6049 1402 65.306 192.723 508.986
1796 0 82.5859 15.8259 1307 67.5754 191.937 507.295
1797 0 83.2734 15.4071 1283 68.339 192.532 507.109
1798 0 87.7298 15.8555 1391 67.8598 192.004 505.679
1799 0 89.3764 16.6823 1491 67.224 192.345 502.838
1800 0 90.246 15.214 1373 70.075 192.635 499.461
1801 0 95.329 13.4272 1280 72.0984 191.982 501.622
1802 0 99.8278 14.9758 1495 70.012 191.734 498.896
1803 0 102.808 16.5745 1704 68.2371 192.515 495.671
1804 0 109.378 17.6635 1932 65.9658 192.345 495.786
1805 1 52.3682 13.978 732 72.0328 191.829 520.653
1806 0 52.2995 12.9064 675 74.3659 192.419 520.477
1807 0 56.3491 16.664 939 69.7157 191.751 518.555
1808 0 56.1882 14.8608 835 72.2623 191.501 518.538
1809 0 58.2487 14.5239 846 72.6206 191.753 517.514
1810 0 61.5442 14.5911 898 72.6871 191.413 516.961
1811 0 59.2648 14.5618 863 73.8216 192.636 516.4
1812 0 63.2252 16.9869 1074 70.3762 192.598 516.645
1813 0 62.5901 15.2101 952 73.7563 192.611 515.913
1814 0 63.062 16.2697 1026 73.4883 192.531 511.895
1815 0 66.1424 15.3608 1016 74.3681 192.384 510.712
1816 0 70.1625 16.59 1164 72.195 192.332 509.9
1817 0 70.2221 17.288 1214 71.6697 192.321 509.542
1818 0 75.6045 17.6312 1333 70.4981 192.266 508.05
1819 0 78.0876 14.5093 1133 74.5243 191.679 506.845
1820 0 79.5046 15.1563 1205 74.0838 192.179 504.9
1821 0 80.1888 16.3115 1308 72.9916 191.674 503.721
1822 0 83.2909 16.1122 1342 73.3204 191.954 502.066
1823 0 90.2672 16.706 1508 71.3117 191.2 501.578
1824 0 90.2071 14.4002 1299 75.5081 191.921 501.453
1825 0 93.3163 16.0529 1498 73.2156 191.708 499.832
1826 0 97.2693 16.1716 1573 72.712 191.608 499.38
1827 0 102.457 16.9632 1738 71.351 191.453 496.019
1828 0 104.206 14.6921 1531 75.0549 192.138 496.195
1829 1 51.1924 13.5958 696 75.8879 191.289 520.124
1830 0 52.1679 15.5843 813 73.9766 191.458 520.925
1831 0 54.1054 15.2111 823 75.2163 191.874 517.399
1832 0 58.2493 15.7255 916 73.9956 192.033 519.057
1833 0 57.1583 14.766 844 77.2927 191.396 516.56
1834 0 58.2591 15.7057 915 76.847 191.474 514.518
1835 0 61.1608 14.6826 898 78.0479 191.37 513.959
1836 0 63.0962 14.0579 887 77.9166 191.317 515.658
1837 0 63.1101 17.3506 1095 75.3251 191.484 513.458
1838 0 67.2214 15.4713 1040 78.2692 191.696 512.811
1839 0 69.0894 15.0385 1039 78.9124 190.574 512.178
1840 0 71.1229 15.2272 1083 79.0314 190.951 511.035
1841 0 75.3158 17.3536 1307 74.8225 192.162 509.846
1842 0 73.1027 16.087 1176 77.0136 191.455 509.836
1843 0 77.1555 15.8381 1222 77.3142 191.574 508.749
1844 0 81.206 14.7034 1194 78.2915 191.199 507.201
1845 0 82.4048 14.7443 1215 79.3111 191.52 505.04
1846 0 84.2423 15.9302 1342 77.0306 190.999 504.815
1847 0 88.0866 16.7676 1477 75.7637 191.043 502.336
1848 0 91.5749 15.6156 1430 77.4014 191.838 500.769
1849 0 94.3769 15.65 1477 77.2167 191.446 498.355
1850 0 97.182 15.1571 1473 77.9871 190.794 499.154
1851 0 97.2423 13.5023 1313 81.9368 191.476 495.402
1852 1 48.4031 12.3133 596 83.1443 191.574 520.99
1853 0 43.4619 12.9309 562 86.6619 192.214 524.187
1854 0 43.3204 12.8577 557 88.9838 191.501 522.548
1855 0 47.4328 14.9474 709 84.8519 190.858 521.319
1856 0 46.1502 13.4777 622 88.6785 191.58 520.91
1857 0 45.0609 13.6926 617 91.0551 191.611 522.102
1858 1 99.2493 14.6802 1457 91.9204 191.135 497.086
1859 0 99.1208 14.1141 1399 93.8435 190.842 498.385
1860 0 100.15 14.4982 1452 94.4456 191.219 494.787
1861 0 100.093 15.2058 1522 93.9067 190.989 496.642
1862 1 52.0769 14.6898 765 85.5634 191.085 516.033
1863 0 54.1123 15.7265 851 82.7309 191.583 517
1864 0 53.1675 14.8587 790 84.9658 191.581 514.228
1865 0 57.1509 15.7828 902 80.8282 191.169 514.7
1866 0 54.265 14.9083 809 83.0457 191.837 516.853
1867 0 54.3742 16.3313 888 81.4854 191.483 516.033
1868 0 57.2942 14.6612 840 83.0607 191.383 515.685
1869 0 55.1847 14.0256 774 82.9742 191.402 518.38
1870 0 58.111 14.5411 845 82.5385 191.347 516.13
1871 0 60.0968 16.0408 964 79.3807 191.832 516.046
1872 0 60.2193 15.9085 958 79.0219 192.018 515.389
1873 0 57.1509 13.9105 795 83.4478 192.384 513.628
1874 0 59.1018 13.8405 818 82.3619 191.389 515.996
1875 0 59.3737 16.3372 970 78.832 191.122 514.014
1876 0 58.0909 16.2332 943 78.5175 191.319 515.614
1877 0 60.308 15.2882 922 79.6757 190.952 513.839
1878 0 57.1509 14.7504 843 81.3867 191.142 516.683
1879 0 58.1009 16.5918 964 78.6577 191.314 515.567
1880 0 58.189 13.8342 805 82.5714 191.973 514.537
1881 0 58.107 15.8156 919 79.7334 191.495 514.234
1882 0 58.3422 14.8777 868 80.9908 191.47 513.433
1883 0 59.2106 16.112 954 78.7327 191.782 513.848
1884 0 59.0785 15.6402 924 79.2738 191.061 514.168
1885 0 60.1174 15.9688 960 79.0125 191.156 514.428
1886 0 60.3449 14.0194 846 81.7955 191.444 514.598
1887 0 60.1783 13.9751 841 81.1843 192.806 516.157
1888 0 60.0903 16.0092 962 78.4189 192.265 514.693
1889 0 60.2764 14.1183 851 81.5253 191.925 516.061
1890 0 58.1983 13.6086 792 82.9419 192.604 514.226
1891 0 57.1124 15.7759 901 79.8235 191.681 516.462
1892 0 57.4246 14.7149 845 81.5894 190.284 516.428
1893 0 58.1049 16.5046 959 79.0928 191.09 514.652
1894 0 59.1655 15.3468 908 81.0352 191.464 516.446
1895 0 58.2686 15.5315 905 81.5083 191.419 515.901
1896 0 59.2006 14.5945 864 82.9502 191.215 513.703
1897 0 60.5246 15.5309 940 80.8808 191.728 514.062
1898 0 59.1164 15.6809 927 81.1079 191.611 514.586
1899 0 59.0732 15.083 891 81.3816 192.342 516.905
1900 0 57.1904 13.6561 781 84.0128 192.566 515.565
1901 0 59.1679 16.1067 953 79.6065 192.646 516.288
1902 0 61.3486 16.1862 993 79.4884 192.871 515.101
1903 0 57.2847 15.711 900 80.7711 192.719 516.542
1904 0 58.4114 15.7332 919 81.0185 191.859 515.486
1905 0 58.3581 15.2507 890 81.6528 192.1 516.409
1906 0 59.3199 14.6494 869 82.0012 192.527 515.366
1907 0 58.0908 17.421 1012 78.6008 192.711 513.973
1908 0 59.2916 14.2685 846 82.2683 192.689 512.439
1909 0 59.1366 15.219 900 81.4156 192.126 513.951
1910 0 57.2354 14.6413 838 82.6038 192.572 515.229
1911 0 58.1872 14.608 850 82.1506 192.118 515.194
1912 0 57.1847 13.2728 759 84.6983 191.585 514.773
1913 0 59.4755 14.7456 877 82 191.758 515.306
1914 0 57.1852 15.0039 858 82.3042 192.258 515.529
1915 0 57.1804 14.7778 845 82.8071 191.628 514.637
1916 0 59.477 14.5771 867 82.173 192.077 515.246
1917 0 59.2153 14.9455 885 80.6938 192.477 515.949
1918 0 58.197 14.8977 867 81.9965 191.931 515.988
1919 0 58.3908 14.009 818 82.3227 191.601 516.813
1920 0 58.1197 17.1887 999 77.4234 192.017 518.258
1921 0 56.2876 15.4386 869 81.3245 191.443 516.698
1922 0 55.2975 16.4022 907 79.9735 191.714 517.621
1923 0 55.0545 14.7127 810 82.816 192.272 515.82
1924 0 59.4136 13.5996 808 83.0767 192.421 514.389
1925 0 59.3027 13.6082 807 82.8476 192.67 515.449
1926 0 59.1563 13.7094 811 82.73 191.536 516.517
1927 0 59.1997 15.0845 893 79.4793 191.573 516.48
1928 0 60.2084 16.0609 967 77.6329 191.624 517.328
1929 0 64.2782 16.273 1046 75.9101 191.759 515.407
1930 0 64.3116 14.6163 940 77.5713 191.376 518.057
1931 0 62.1216 17.2404 1071 75.0495 191.76 515.01
1932 0 64.2381 16.6256 1068 75.0786 191.922 515.169
1933 0 64.3221 14.7228 947 77.7181 192.168 516.321
1934 0 64.2406 15.6599 1006 76.2058 191.13 515.245
1935 0 64.1623 15.1803 974 76.3265 191.283 516.901
1936 0 64.2911 16.4875 1060 73.6811 191.321 517.4
1937 0 62.333 15.2568 951 76.7066 190.646 515.141
1938 0 64.307 14.2442 916 77.3362 190.153 518.373
1939 0 63.2162 14.5058 917 77.1287 190.844 519.616
1940 1 244.528 14.1334 3456 80.4557 189.382 432.407
1941 1 145.404 12.5306 1822 80.4687 190.367 477.924
1942 0 147.292 10.4486 1539 83.475 190.6 477.815
1943 0 153.602 13.0142 1999 78.7574 190.299 478.429
1944 0 159.621 14.027 2239 77.632 190.519 472.048
1945 0 163.403 12.0377 1967 79.7844 189.763 474.638
1946 0 162.281 13.378 2171 78.2976 189.412 471.619
1947 0 170.828 13.2648 2266 77.7021 190.049 470.114
1948 0 171.618 14.34 2461 76.6908 189.196 462.266
1949 0 176.54 13.1131 2315 77.8942 188.962 463.41
1950 0 182.594 14.7212 2688 74.2121 189.099 467.486
1951 1 63.174 17.8396 1127 71.0417 188.215 516.771
1952 0 63.5888 17.6446 1122 70.2718 187.87 513.004
1953 0 64.3238 17.785 1144 70.4336 188.267 515.882
1954 0 65.86 19.4503 1281 67.4879 188.6 513.945
1955 0 64.126 17.9646 1152 70.0964 187.835 511.66
1956 0 59.4002 15.0336 893 76.7234 188.085 512.37
1957 0 61.1321 16.1127 985 75.2396 188.353 516.436
1958 0 67.8012 16.4746 1117 72.282 188.814 515.03
1959 0 67.9577 18.7322 1273 69.3284 188.898 510.783
1960 0 68.147 16.8459 1148 71.7936 189.572 513.135
1961 0 69.1118 16.4371 1136 72.0951 189.146 509.43
1962 0 65.5864 17.3969 1141 71.6433 189.578 510.304
1963 0 62.4632 15.6732 979 75.4413 189.623 509.08
1964 0 66.464 16.1892 1076 73.8959 189.566 510.21
1965 0 63.6259 14.6167 930 77.0667 189.676 511.081
1966 0 59.6862 15.5312 927 77.1834 189.968 504.323
1967 0 58.7193 13.0792 768 80.1198 190.044 506.004
1968 0 58.5189 14.3031 837 78.4182 190.638 504.237
1969 0 58.4173 13.7459 803 79.2266 190.531 502.974
1970 0 61.4862 13.7104 843 80.0961 191.011 506.928
1971 0 61.309 15.2832 937 77.7375 191.031 506.195
1972 0 67.7706 15.1541 1027 75.0584 190.867 503.447
1973 0 65.4381 16.5806 1085 70.435 190.711 506.201
1974 0 62.6928 14.9937 940 76.7096 190.418 503.663
1975 0 63.5476 16.0667 1021 74.9794 191.104 504.853
1976 0 64.6662 16.6084 1074 74.5214 190.955 502.831
1977 0 62.4579 17.3397 1083 73.5189 191.312 503.714
1978 0 62.6482 14.6532 918 77.5098 190.886 503.671
1979 0 67.7653 16.6014 1125 70.6258 191.973 502.556
1980 0 65.6487 17.0148 1117 70.6741 191.551 506.261
1981 0 64.6329 15.9052 1028 72.9338 191.944 504.829
1982 0 64.7133 15.0355 973 73.2477 191.777 504.643
1983 0 66.7214 14.7629 985 74.4081 190.806 503.296
1984 0 66.6365 17.618 1174 71.914 191.624 502.861
1985 0 66.7682 17.3436 1158 72.4361 191.205 503.398
1986 0 65.6555 16.5104 1084 73.6365 191.705 504.849
1987 0 68.1013 15.4916 1055 73.5109 192.36 504.782
1988 0 62.7072 14.8627 932 74.4871 191.613 504.426
1989 0 62.5898 16.68 1044 74.6188 191.762 501.327
1990 0 63.8028 17.272 1102 73.559 192.236 503.677
1991 0 64.8775 15.2749 991 76.1413 191.783 502.774
1992 0 64.7904 14.6781 951 77.4932 191.795 502.295
1993 0 64.6443 16.6295 1075 73.9767 192.288 503.245
1994 0 64.979 15.328 996 75.7118 192.896 502.84
1995 0 63.0081 16.3154 1028 73.6148 193.496 502.775
1996 0 65.0356 19.128 1244 67.6672 193.087 499.936
1997 0 62.7682 16.4893 1035 71.4763 192.001 503.026
1998 0 60.4817 15.9883 967 74.3485 192.061 502.12
1999 0 61.163 20.2573 1239 67.678 192.93 499.256
2000 0 61.8428 17.3343 1072 71.1054 192.784 501.962
2001 0 60.9102 16.6967 1017 73.1721 192.818 500.691
2002 0 58.995 18.0693 1066 72.0929 192.641 502.146
2003 0 58.826 17.4753 1028 72.2811 192.074 499.51
2004 0 58.9946 16.3913 967 74.1334 191.373 501.274
2005 0 58.5989 17.031 998 74.9709 192.52 501.516
2006 0 59.9415 16.8164 1008 75.5962 192.218 498.621
2007 0 62.195 16.6895 1038 75.1696 192.021 498.029
2008 0 61.9219 17.4736 1082 73.8762 192.665 501.36
2009 0 63.8862 17.0303 1088 73.5827 192.571 499.696
2010 0 61.7973 16.4247 1015 75.1507 192.387 499.814
2011 0 61.6798 15.4346 952 76.5315 191.444 500.066
2012 0 63.7153 16.511 1052 70.4202 191.769 500.007
2013 0 62.7983 18.3604 1153 67.8925 191.526 499.837
2014 0 61.5946 16.7222 1030 70.7418 191.639 497.303
2015 0 59.7158 15.825 945 72.9132 191.41 499.266
2016 0 60.8311 16.3732 996 72.9428 191.549 498.198
2017 0 61.6414 16.1742 997 75.3651 191.05 499.693
2018 0 59.9899 16.6528 999 74.9459 190.624 497.445
2019 0 61.9135 18.8973 1170 70.7188 191.009 498.151
2020 0 62.1435 18.1515 1128 71.4867 190.954 499.332
2021 0 59.3785 14.5507 864 78.537 191.499 500.737
2022 0 60.9691 16.5002 1006 74.5477 191.51 499.842
2023 0 58.6977 16.0313 941 76.2104 191.242 500.102
2024 0 59.5822 19.5864 1167 68.8055 191.703 498.349
2025 0 59.4534 15.1547 901 77.2109 191.708 498.119
2026 0 57.5689 17.8569 1028 73.7335 191.38 500.319
2027 0 56.8991 18.401 1047 73.0353 191.098 499.987
2028 0 60.0934 20.0022 1202 68.9492 190.57 500.04
2029 0 57.5069 18.2587 1050 72.4667 190.76 500.372
2030 0 56.6856 15.242 864 77.2616 191.961 500.453
2031 0 59.7587 17.8551 1067 71.0918 192.086 501.892
2032 0 59.32 16.0485 952 75.2342 190.592 500.899
2033 0 57.6034 17.6031 1014 73.7012 191.322 498.688
2034 0 59.8557 17.9766 1076 71.9684 191.581 499.9
2035 0 59.9117 17.3923 1042 72.5154 191.769 501.267
2036 0 57.6948 18.8059 1085 70.1327 190.71 499.848
2037 0 58.7944 16.9914 999 72.9159 190.156 500.556
2038 0 57.5401 17.0316 980 72.949 191.402 500.299
2039 0 57.8437 17.409 1007 73.2602 191.549 499.812
2040 0 57.5795 17.7146 1020 72.8431 191.262 501.487
2041 0 57.9087 16.6296 963 74.2638 191.846 500.598
2042 0 57.9463 19.9495 1156 69.7206 191.444 498.572
2043 0 56.8713 18.4979 1052 71.8707 191.596 498.929
2044 0 59.6713 17.8645 1066 70.924 191.556 503.114
2045 0 57.8619 17.5763 1017 71.4149 191.27 500.69
2046 0 56.9108 18.0458 1027 72.4567 190.545 501.466
2047 0 58.847 14.8861 876 76.0183 190.805 501.959
2048 0 59.9063 15.8581 950 73.0453 191.129 503.163
2049 0 59.0523 16.4092 969 69.9278 190.917 504.831
2050 0 60.0661 16.8481 1012 70.751 190.751 503.904
2051 0 57.8268 17.5005 1012 71.0504 190.749 501.73
2052 0 57.8377 16.6327 962 71.6486 191.101 502.622
2053 0 56.8527 16.1118 916 71.7347 190.54 501.885
2054 0 57.6372 16.8468 971 70.5963 190.349 500.415
2055 0 56.8902 16.6109 945 71.3122 191.098 501.051
2056 0 55.0145 15.8685 873 73.0183 190.869 502.824
2057 0 56.2591 15.6064 878 73.344 190.183 500.958
2058 0 55.1339 15.7435 868 73.0553 190.56 503.82
2059 0 57.9073 18.1152 1049 68.9943 190.434 503.878
2060 0 58.3692 17.2694 1008 72.1816 190.367 503.397
2061 0 55.8151 16.1605 902 74.9324 190.156 501.996
2062 0 55.6431 17.1809 956 72.6538 190.022 504.067
2063 0 55.9054 14.7392 824 76.0874 190.368 505.382
2064 0 56.0482 16.8426 944 73.2892 190.143 503.121
2065 0 54.2925 14.9008 809 77.4821 190.295 502.834
2066 0 57.1814 16.1941 926 73.6782 190.232 501.946
2067 0 56.2993 15.8617 893 74.0997 190.284 501.733
2068 0 56.1379 17.2967 971 72.2389 190.739 500.307
2069 0 54.6259 16.4391 898 73.6002 190.448 503.118
2070 0 55.7882 15.2541 851 74.9201 190.323 501.971
2071 0 55.0003 15.5635 856 74.4509 190.074 502.85
2072 0 54.5213 16.2138 884 73.6312 189.915 505.063
2073 0 54.5296 17.0366 929 73.0248 190.439 501.703
2074 0 55.2444 16.2731 899 73.4283 189.861 502.715
2075 0 57.1239 16.9981 971 71.0824 190.103 503.59
2076 0 55.8855 14.9592 836 74.8852 190.114 502.64
2077 0 53.0749 14.7716 784 76.2908 190.328 502.758
2078 0 55.3001 16.4014 907 72.9449 189.537 503.265
2079 0 53.3563 16.4929 880 74.0932 190.452 502.023
2080 0 54.4567 15.8658 864 74.5799 190.193 502.551
2081 0 54.6464 17.2198 941 72.4708 190.062 504.367
2082 0 50.3991 15.1788 765 77.7464 190.631 501.078
2083 0 47.8095 14.2231 680 80.4838 190.691 500.475
2084 0 46.541 16.3726 762 77.9842 190.642 498.878
2085 0 46.3516 15.7923 732 78.6544 190.746 498.079
2086 0 47.542 16.4276 781 77.2971 190.594 497.234
2087 0 52.8434 16.4637 870 74.6322 189.967 500.559
2088 0 51.0208 14.0335 716 76.0838 190.351 501.865
2089 1 70.2373 12.3723 869 72.1519 189.634 450.96
2090 0 65.2616 12.1817 795 73.156 190.429 451.693
