time division length width area intensity CMx CMy
0 0 19.2653 11.4195 220 43.1364 1131.82 505.955
1 0 19.203 9.84221 189 44.9259 1130.62 505.058
2 0 18.374 8.43586 155 47.1806 1130.8 507.974
3 0 19.3255 8.43447 163 45.9693 1130.79 508.742
4 0 18.5209 9.07084 168 46.4167 1130.43 508.226
5 0 17.2338 9.34208 161 46.5155 1130.5 509.727
6 0 19.1551 12.3727 237 42.1941 1131.26 507.591
7 0 16.2662 9.0986 148 46.4662 1130.4 508.669
8 0 14.2495 9.26348 132 48.2803 1129.92 509.273
9 0 16.4433 7.66268 126 48.4286 1130.35 508.429
10 0 18.2125 9.22443 168 46.1429 1130.13 508.22
11 0 19.1193 9.93758 190 45.0579 1130.07 508.542
12 0 17.1382 12.9535 222 42.9144 1130.68 506.91
13 0 17.1771 8.73254 150 47.1733 1129.75 509.513
14 0 17.215 9.29422 160 46.75 1129.99 510.45
15 0 17.065 11.0167 188 44.3883 1128.9 508.511
16 0 16.2491 8.49275 138 47.3188 1128.87 508.899
17 0 16.6314 11.3641 189 45.7831 1129.29 510.021
18 0 16.3301 8.94052 146 48.1164 1128.75 508.514
19 0 17.4018 10.1139 176 47.0739 1129.16 508.824
20 0 17.3318 8.65462 150 48.5333 1128.87 508.44
21 0 10.0407 7.27044 73 53.411 1129.44 509.164
22 0 19.0426 10.0826 192 44.8125 1130.02 506.609
23 0 12.1295 11.0474 134 49.3806 1129.18 510.448
24 0 18.0936 8.95344 162 47.7716 1129.66 510.216
25 0 15.2686 8.18674 125 50.264 1130.27 510.176
26 0 18.09 11.3875 206 44.2427 1130.29 507.864
27 0 16.1688 9.4008 152 48.4342 1129.19 509.257
28 0 15.1253 8.3304 126 49.4286 1128.94 509.564
29 0 18.1078 10.7688 195 45.6564 1129.11 508.359
30 0 16.254 8.24412 134 48.9627 1129.48 509.582
31 0 19.2129 8.1716 157 46.1083 1129.89 507.675
32 0 16.2947 10.8011 176 46.2216 1130.06 510.119
33 0 18.1342 11.8009 214 44.6869 1130.08 508.533
34 0 17.1698 9.31868 160 46.8938 1129.68 508.519
35 0 14.1444 7.77694 110 50.2364 1129.44 508.273
36 0 13.0596 9.18867 120 50.375 1130.38 510.025
37 0 16.2557 8.67389 141 48.3972 1129.66 509.447
38 0 17.1378 5.83504 100 51 1129.39 508.9
39 0 18.1308 10.1485 184 45.2772 1128.17 507.641
40 0 18.4048 9.39973 173 46.4277 1129.13 508.636
41 0 16.2288 8.56501 139 48.1439 1129.11 508.403
42 0 18.1135 10.3238 187 44.8556 1129.57 507.396
43 0 17.1521 10.8442 186 45.172 1129.79 508.392
44 0 18.1245 11.5314 209 44.0383 1129.28 508.44
45 0 19.3087 9.89191 191 45.2408 1129.27 509.398
46 0 19.4369 10.3926 202 44.6881 1129.04 509.054
47 0 18.2334 8.55573 156 46.8269 1129.8 510.859
48 0 18.056 7.69829 139 47.7842 1129.35 510.698
49 0 18.3119 11.2495 206 43.7379 1128.74 508.83
50 0 18.1759 11.6088 211 44.2275 1129.49 510.284
51 0 16.3941 9.94258 163 46.3742 1129.33 508.405
52 0 18.1383 10.4199 189 44.9312 1128.14 508.524
53 0 16.1026 9.31527 150 46.8133 1128.37 510.173
54 0 17.3424 12.455 216 43.6389 1127.67 509.866
55 0 18.1573 11.7308 213 43.0469 1128.04 508.854
56 0 19.2152 9.62777 185 43.3081 1129.36 507.151
57 0 18.1552 10.3001 187 44.984 1129.24 509.54
58 0 19.1483 10.2359 196 43.4541 1128.68 507.673
59 0 17.3816 10.4133 181 44.7459 1128.53 509.414
60 0 21.4163 14.8485 318 38.7767 1129.28 506.717
61 0 17.1119 11.454 196 43.6786 1127.85 509.015
62 0 17.2563 8.75041 151 45.6358 1128.26 509.483
63 0 16.1759 8.40757 136 45.9485 1128.36 509.243
64 0 18.0569 11.6853 211 42.564 1128.58 508.1
65 0 14.051 10.0348 141 47.1631 1128.02 510.099
66 0 17.2081 9.29793 160 45.2938 1126.96 510.125
67 0 17.2906 11.3356 196 43.2092 1127.46 509.194
68 0 17.1223 9.46137 162 44.463 1127.92 509.556
69 0 19.3685 10.6358 206 43.4515 1127.86 511.112
70 0 17.2211 8.7683 151 45.5166 1128.42 510.397
71 0 17.3974 7.29992 127 46.0394 1127.73 508.992
72 0 18.0851 9.1788 166 43.8193 1127.85 509.235
73 0 13.056 8.34864 109 47.7798 1128.19 511.67
74 0 18.6034 8.97686 167 44.7186 1127.45 509.964
75 0 18.493 9.73339 180 43.8278 1127.17 509.344
76 0 13.1846 9.02567 119 47.126 1127.36 511.025
77 0 16.3007 11.2879 184 43.5598 1126.58 510.554
78 0 16.2313 7.02345 114 46.3421 1127.37 509.649
79 0 17.2249 8.4761 146 44.6712 1126.91 509.151
80 0 18.1572 9.52789 173 44.0751 1126.86 510.514
81 0 16.2457 11.0183 179 44.1564 1126.5 509.369
82 0 17.3602 10.311 179 44.2179 1127.65 511.067
83 0 17.0838 9.18997 157 45.0446 1127.89 511.866
84 0 16.1776 9.58116 155 44.5097 1126.72 510.161
85 0 16.1567 6.49886 105 47.0095 1126.85 510.514
86 0 18.1454 10.7465 195 42.7333 1126.71 511.072
87 0 16.1395 9.04616 146 44.2534 1127.55 510.151
88 0 16.0888 6.33982 102 47.4314 1127.64 510.843
89 0 18.1345 9.37438 170 43.3824 1127.72 509.494
90 0 15.1611 7.65117 116 46.319 1127.93 510.138
91 0 20.5659 8.41197 173 42.9595 1127.84 508.809
92 0 18.1228 8.6631 157 43.3567 1127.42 509.191
93 0 17.2459 7.13211 123 46.0081 1126.83 509.862
94 0 17.2932 8.09565 140 44.5071 1127.41 509.7
95 0 15.2119 7.16544 109 45.8624 1127.68 509.982
96 0 15.1151 6.15279 93 47.3763 1127.09 510.032
97 0 16.1348 8.55294 138 44.4855 1127.13 509.717
98 0 17.1914 8.60894 148 43.0203 1127.39 508.622
99 0 18.0137 4.21901 76 47.8421 1127.33 509.882
100 0 19.1934 9.69083 186 42.2581 1127.8 508.715
101 0 14.0707 7.74658 109 46.367 1128.09 510.257
102 0 17.0723 8.96186 153 43.915 1127.92 510.869
103 0 11.0672 9.48745 105 46.5429 1128.12 510.571
104 0 15.07 10.4844 158 43.9494 1128.59 510.563
105 0 15.0788 7.89189 119 45.1849 1128.36 509.311
106 0 17.0945 7.89726 135 42.9259 1128.44 508.511
107 0 15.101 6.82075 103 45.9029 1127.77 510.485
108 0 15.2889 7.84885 120 45.2833 1127.82 509.208
109 0 16.1558 10.3988 168 42.6548 1128.14 509.065
110 0 19.083 9.27526 177 42.1921 1128.08 508.571
111 0 17.1609 7.63364 131 45.2214 1127.97 510.924
112 0 18.0475 6.31666 114 45.9561 1127.58 510.579
113 0 18.3967 10.4367 192 40.4375 1128.09 507.609
114 0 16.1546 10.3376 167 43.012 1127.53 511
115 0 16.1781 10.2608 166 42.7289 1127.33 510.404
116 0 12.0441 8.71796 105 46.1238 1127.67 509.771
117 0 16.2402 6.95804 113 44.9204 1128.06 509.513
118 0 17.256 8.80853 152 43.1645 1128.03 509.204
119 0 15.1373 8.32381 126 43.8016 1128.54 509.5
120 0 19.2041 7.49839 144 40.5208 1130.34 506.625
121 0 16.2324 7.51583 122 44.8443 1128.46 510.066
122 0 12.065 8.61997 104 46.1058 1128.13 511.202
123 0 16.0589 7.34794 118 41.2119 1128.21 506.661
124 0 16.246 7.32488 119 45.2773 1129.09 510.017
125 0 16.206 8.20684 133 43.7895 1129.14 509.872
126 0 15.0982 8.67653 131 43.6947 1128.43 509.809
127 0 15.3016 9.93359 152 43.0592 1128.83 509.434
128 0 15.0432 3.65614 55 48.1636 1128.16 509.745
129 0 15.0885 6.09735 92 45.8696 1127.96 508.859
130 0 21.102 10.0938 213 39.3944 1129.25 506.474
131 0 15.2045 5.52468 84 46.7024 1127.96 509.262
132 0 16.0755 7.15373 115 45.3478 1128.22 510.104
133 0 17.0654 4.80505 82 46.5732 1128.22 509.268
134 0 19.2277 8.21732 158 42.5823 1127.78 507.367
135 0 18.0932 10.059 182 40.5989 1128.49 507.044
136 0 16.1198 6.26558 101 45.6139 1128.06 509.347
137 0 17.0361 5.459 93 45.0645 1128.34 508.871
138 0 15.0599 6.17535 93 46 1128.81 510.065
139 0 19.1618 7.56714 145 43.1793 1128.65 509.124
140 0 16.0435 2.55556 41 48.5366 1128.39 509.634
141 0 22.1317 4.56359 101 42.2376 1127.59 504.248
142 0 21.0313 4.13669 87 45.9195 1128.55 510.103
143 0 10.0114 7.39156 74 47.0135 1128.84 510.365
144 0 18.4008 7.39098 136 40.625 1129.52 506.449
145 0 15.297 6.92945 106 42.9245 1128.41 507.236
146 0 23.4778 4.42972 104 44.7019 1128.6 507.769
147 0 20.0316 2.69574 54 48.6296 1129.65 510.222
148 0 22.0009 0.863602 19 51.4737 1129.42 509.842
149 0 20.4421 6.40833 131 41.8931 1128.92 506.595
150 0 17.0624 4.16118 71 45.1127 1128.66 507.69
151 0 12.0745 7.785 94 45.1383 1128.6 509.053
152 0 20.5536 9.24412 190 38.9263 1129.49 505.221
153 0 19.7188 7.30269 144 39.5833 1130.12 505.674
154 0 17.0628 5.39183 92 42.8043 1128.45 506.989
155 0 23.3655 5.47816 128 42.7656 1128.42 507.523
156 0 22.194 4.82112 107 43.9439 1128.42 507.299
157 0 19.0149 1.05181 20 48.95 1128.45 508.05
158 0 12.0338 6.48176 78 46.5 1130.03 510.538
159 0 17.0751 5.50508 94 43.4894 1129.61 508.745
160 0 19.0199 2.73398 52 47.1538 1129.98 509.25
161 0 15.2919 7.12797 109 43.5963 1129.48 507.596
162 0 17.1166 7.18601 123 38.2114 1131.17 503.951
163 0 13.0381 3.29804 43 47.2558 1130.02 508.837
164 0 15.2574 5.17783 79 45.1139 1129.65 508.658
165 0 18.1282 9.43283 171 40.3626 1130.26 507.006
166 0 15.1952 7.50236 114 43.4298 1129.5 508.623
167 0 16.0988 7.45395 120 43.6417 1130.2 510.25
168 0 19.1503 5.32628 102 43.5686 1130.29 508.706
169 0 19.4984 7.43652 145 39.9448 1131.25 506.172
170 0 14.0546 5.69208 80 44.7625 1128.6 508.962
171 0 17.0693 7.38168 126 43.0079 1128.22 507.952
172 0 15.0114 8.06052 121 43.6529 1129.26 509.446
173 0 16.1826 7.10638 115 43.6261 1128.96 509.417
174 0 17.331 6.1162 106 44.5 1129.97 509.745
175 0 18.5009 6.75644 125 40.024 1129.69 505.568
176 0 15.2169 6.90024 105 44.1143 1129.51 509.99
177 0 15.3927 7.73091 119 43.3277 1129.29 509.008
178 0 14.1545 6.85294 97 44.9381 1129.93 509.856
179 0 14.0431 5.48311 77 45.7922 1130.06 509.195
180 0 9.0042 6.10826 55 47.8364 1130 510.691
181 0 14.011 3.85411 54 46.0741 1130.04 508.833
182 0 15.1544 7.39059 112 43.6161 1129.99 509.321
183 0 13.007 4.30536 56 46.3214 1129.84 509.536
184 0 14.0784 5.39834 76 44.3684 1129.39 507.895
185 0 11.0004 3.18169 35 47.9143 1129.77 509.171
186 0 9.03172 8.85767 80 45.45 1130.14 508.938
187 0 17.0668 6.03512 103 43.3786 1130.04 507.903
188 1 50.714 6.80285 345 36.3362 1124.93 488.278
189 0 51.3543 5.37443 276 39.2319 1127.74 495.659
190 0 45.1914 1.70386 77 40.961 1127.05 488.468
191 0 48.3854 5.37352 260 36.4808 1125.55 487.242
192 0 43.4712 4.46273 194 41.268 1127.4 498.985
193 0 48.1195 1.87034 90 42.6556 1126.36 493.267
194 0 47.6227 4.11569 196 41.2449 1127.33 498.403
195 0 52.2478 2.08621 109 37.9725 1126.5 482.073
196 0 54.2749 5.38002 292 33.8836 1123.86 481.527
197 0 48.8561 8.41246 411 34.0925 1125.58 486.019
198 0 50.9135 2.57299 131 38.1374 1125.21 486.756
199 0 49.6891 1.89176 94 36.5851 1124.94 481.766
200 0 49.4301 14.6672 725 32.3007 1126.87 486.945
201 0 49.4256 2.40766 119 41.2185 1126.83 492.882
202 0 50.2286 3.90216 196 35.6735 1124.05 484.469
203 0 51.1129 3.59988 184 38.3478 1126.03 489.016
204 0 50.6991 2.82056 143 39.965 1126.17 491.196
205 0 48.3258 2.87631 139 39.0288 1125.49 488.568
206 0 48.4659 8.17069 396 33.7702 1125.52 485.432
207 0 47.3054 7.2719 344 35.093 1125.65 486.91
208 0 42.1367 1.99351 84 39.7619 1127.06 488.738
209 1 7.03396 8.10355 57 27.3509 1139.46 479.772
210 0 10.5279 2.6596 28 28.2143 1137.61 478.464
211 1 45.8966 3.22464 148 38.8919 1126.59 492.581
212 0 46.719 7.89829 369 33.5799 1124.99 486.257
213 0 45.3271 3.19897 145 38.4 1127.24 490.883
214 0 44.9156 4.83128 217 36.1014 1127.11 488.29
215 0 40.6985 3.95592 161 40.7453 1128 497.752
216 1 10.0517 9.55059 96 29.1875 1140.12 477.479
217 0 6 12.1667 73 29.3562 1138.36 476.027
218 1 16.1758 3.8947 63 41.8889 1128.86 506.619
219 0 13.1301 6.70214 88 41.7159 1128.02 507.239
220 0 30.135 7.63232 230 35.1087 1126.16 490.904
221 1 44.4922 6.67533 297 35.0236 1124.94 489.542
222 1 12.0582 4.39533 53 44.7358 1128.57 508.755
223 0 16.1959 10.4965 170 39.0412 1130.01 506.6
224 0 12.0239 5.73857 69 43.0435 1128.94 506.319
225 0 13.1555 6.53721 86 42.0814 1128.64 506.419
226 0 13.0162 3.22675 42 44.4286 1128.07 509
227 0 14.1395 5.87009 83 42.6145 1128.6 508.253
228 0 11.0477 2.08188 23 44.5217 1127.78 507.739
229 0 5 3.2 16 48.625 1129.38 510.938
230 0 14.2974 5.24572 75 41.2533 1127.31 506.8
231 0 1 3 3 38.3333 1123.33 499.667
232 0 21.2363 4.3793 93 40.871 1127.76 507.032
233 0 30.4143 4.57022 139 34.8633 1124.42 488.007
234 0 13.0846 4.96767 65 43.4769 1129 508.662
235 0 27.2341 3.67187 100 37.84 1126.64 491.54
236 0 26.1815 10.5036 275 32.68 1124.59 486.807
237 1 6 2.83333 17 28 1139.29 485.941
238 1 20.1947 3.76337 76 39.7237 1125.93 493.987
239 0 19.3563 8.47269 164 34.3415 1128.87 487.744
240 1 7.02988 2.845 20 28.65 1139.4 486.3
241 0 10.6866 4.58516 49 28.3265 1118.63 477.653
242 1 23.211 9.47827 220 34.8591 1126.52 491.841
243 0 12.0023 4.99903 60 40.0167 1125.63 493.35
244 0 12.0181 2.91227 35 44.4571 1128.26 508.057
245 1 12.5773 8.34838 105 28.0667 1119.1 479.448
246 1 28.7581 4.41615 127 37.4094 1125.44 492.205
247 1 57.1185 11.5374 659 65.9833 1132.36 452.615
248 0 60.1171 12.8582 773 63.6326 1132.33 449.603
249 0 68.2343 14.2743 974 56.8347 1132.5 456.402
250 0 66.0947 20.6068 1362 51.2695 1132.3 456.927
251 0 67.0435 15.8554 1063 56.904 1132.95 454.78
252 0 72.1536 10.7133 773 65.2083 1132.55 450.84
253 0 73.2252 14.6534 1073 57.535 1133.13 455.069
254 0 77.6693 15.8492 1231 55.6848 1133.71 454.374
255 1 157.214 9.14677 1438 72.3428 1131.28 425.629
256 1 76.0942 13.5358 1030 60.3825 1132.91 452.716
257 0 79.2412 14.3991 1141 57.9343 1133.11 454.83
258 0 78.9202 16.1049 1271 57.6239 1132.67 451.145
259 0 78.0809 11.1551 871 67.8037 1132.03 445.176
260 0 73.074 14.3279 1047 65.6676 1132.25 441.649
261 0 87.0744 11.1744 973 67.1357 1132.23 443.943
262 1 53.0225 8.58126 455 61.7077 1133.75 462.558
263 0 54.1935 8.69107 471 64.8769 1133.49 459.429
264 0 55.0946 14.339 790 53.4177 1133.51 463.819
265 0 58.0799 15.6681 910 52.1363 1133.66 463.559
266 0 57.6675 11.9998 692 57.6286 1133.21 462.227
267 0 61.4522 11.928 733 58.3506 1133.07 460.518
268 1 68.2234 8.03244 548 65.2938 1131.2 459.389
269 1 55.9762 11.4334 640 61.5484 1133.3 459.294
270 0 56.7592 10.4829 595 61.0941 1133.65 460.497
271 1 76.156 7.31393 557 67.7163 1131.83 454.106
272 1 65.1802 13.0408 850 56.7212 1133.51 459.939
273 0 62.6322 16.7166 1047 54.3266 1133.23 458.082
274 0 67.064 13.9419 935 56.6118 1133.19 457.57
275 0 68.2959 11.5527 789 62.0127 1132.35 453.588
276 0 70.4148 13.5057 951 59.612 1132.72 453.176
277 0 72.1597 14.26 1029 58.0739 1133.07 453.731
278 0 72.5506 10.8063 784 64.4082 1132.77 452.077
279 0 69.107 11.8222 817 65.6524 1131.81 448.055
280 0 76.2262 14.2602 1087 58.3349 1132.34 453.408
281 0 60.0242 11.2954 678 71.5502 1132.05 442.645
282 1 80.3988 15.5724 1252 57.385 1132.8 451.442
283 0 82.1775 15.7099 1291 56.6375 1132.36 452.405
284 0 84.3924 10.3327 872 67.3085 1131.73 444.187
285 0 82.1848 12.7883 1051 64.2702 1131.97 443.427
286 0 89.5051 15.1053 1352 58.591 1132.21 446.572
287 1 38.028 5.68002 216 80.7778 1131.5 417.796
288 0 57.74 11.1188 642 55.8146 1133.39 465.76
289 0 53.804 7.63883 411 66.9027 1132.28 457.265
290 0 58.6804 10.5146 617 60.3177 1132.04 458.182
291 0 59.2582 12.9771 769 54.5865 1132.99 462.883
292 0 56.6018 14.3988 815 53.8037 1132.59 462.609
293 0 60.746 11.5069 699 60.7582 1132.06 454.827
294 0 62.4386 12.8286 801 54.799 1132.62 462.514
295 0 66.0595 12.1557 803 57.1532 1132.36 458.386
296 0 65.2092 10.0446 655 63.0794 1132.14 453.231
297 0 65.5217 10.073 660 63.5924 1132.53 450.608
298 0 65.2036 10.0148 653 63.5835 1133.32 450.668
299 0 69.9008 12.0886 845 58.5917 1133.37 453.875
300 0 69.5439 10.6983 744 61.6317 1132.96 450.763
301 0 71.6974 14.7425 1057 54.3671 1133.11 455.01
302 0 71.2281 10.5436 751 63.2996 1132.26 446.38
303 0 73.6754 11.5914 854 59.4169 1133.18 451.391
304 0 76.7395 13.3178 1022 57.0157 1133.35 451.078
305 0 78.2642 13.9016 1088 56.5855 1132.63 449.826
306 0 65.0611 10.0214 652 74.6442 1130.92 375.16
307 0 81.7902 12.8744 1053 58.2707 1132.5 448.08
308 0 83.967 13.8269 1161 56.2274 1133.12 448.94
309 0 84.6126 13.6032 1151 56.7533 1133.34 448.63
310 0 91.1345 14.2207 1296 56.5656 1133.17 446.029
311 0 95.2182 12.1405 1156 59.2777 1132.53 444.503
312 1 53.7236 10.5913 569 53.9192 1133.49 461.156
313 0 54.8959 12.4964 686 51.4592 1133.62 461.592
314 0 58.4445 7.39163 432 61.9792 1133.21 455.023
315 0 58.4532 10.7265 627 56.9713 1133.79 455.215
316 0 60.4611 12.3716 748 51.6872 1134.04 458.988
317 0 60.402 11.6221 702 53.9487 1133.92 455.806
318 0 63.636 10.1672 647 57.2241 1133.75 450.563
319 0 61.145 11.072 677 55.6898 1134.01 451.984
320 0 64.4474 10.1168 652 59.1227 1133 445.087
321 0 69.8998 9.62807 673 58.6776 1132.32 447.355
322 0 72.1056 14.2153 1025 47.1024 1133.42 459.131
323 0 71.6818 12.0951 867 53.7013 1132.98 450.066
324 0 74.4514 11.2019 834 55.8405 1132.38 446
325 0 72.5699 14.3448 1041 49.513 1133.25 452.663
326 0 77.4027 19.3663 1499 44.7105 1132.1 453.969
327 1 95.4536 8.42294 804 57.7102 1131.91 448.422
328 1 78.928 14.4942 1144 51.8059 1133.23 446.818
329 0 79.7977 18.3589 1465 47.2696 1133 449.023
330 0 85.2896 14.1987 1211 51.0372 1132.99 446.806
331 0 82.0413 13.1153 1076 55.4238 1132.37 439.101
332 0 82.5484 11.5205 951 57.1356 1132.54 439.005
333 0 89.0589 11.3633 1012 56.749 1132.87 438.827
334 0 90.7326 12.0905 1097 55.6281 1132.94 439.703
335 0 91.505 11.2016 1025 57.3161 1132.71 437.721
336 1 33.0346 9.29327 307 69.5505 1132.71 410.531
337 0 31.0058 8.063 250 71.584 1133.26 407.644
338 1 60.1589 8.47755 510 58.6922 1132.75 447.171
339 0 61.4405 8.96802 551 57.2904 1133.04 448.034
340 0 67.0719 12.1511 815 51.4663 1133.68 450.121
341 0 66.8275 11.2379 751 51.032 1133.99 452.571
342 0 73.3837 9.19823 675 55.0356 1134.01 447.523
343 0 71.2725 12.5434 894 52.2685 1132.71 444.786
344 0 72.3865 10.1262 733 54.9454 1133.05 445.266
345 0 72.2725 14.8466 1073 47.5051 1132.96 452.699
346 0 72.3282 12.3465 893 53.6181 1132.72 441.932
347 0 77.5929 12.3594 959 49.9499 1132.74 448.601
348 0 77.987 13.015 1015 51.3044 1131.76 445.847
349 1 97.4 7.3614 717 58.9777 1131.33 438.368
350 1 77.1946 10.8686 839 56.59 1131.76 438.008
351 0 86.302 12.7344 1099 50.4959 1132.22 444.844
352 0 73.0757 12.3434 902 56.1984 1131.49 433.919
353 0 87.7175 12.2211 1072 52.3787 1132.07 441.069
354 0 87.1772 12.0215 1048 52.4704 1132.54 439.767
355 0 91.3217 11.5416 1054 54.3416 1132.49 432.808
356 0 92.1485 13.9774 1288 49.2057 1132.51 442.446
357 0 94.5581 13.6213 1288 52.2073 1131.9 432.411
358 0 98.3932 16.5967 1633 46.4734 1131.79 442.296
359 1 36.052 9.37534 338 64.0237 1132.23 403.435
360 1 97.6979 10.5018 1026 53.2018 1133.15 437.83
361 0 97.5792 13.9989 1366 48.9605 1131.93 440.73
362 0 82.3198 6.30468 519 55.8536 1130.99 445.177
363 1 63.4785 11.9411 758 49.0422 1132.08 451.165
364 0 63.209 10.0619 636 54.4513 1131.69 442.108
365 0 73.4049 11.1573 819 49.9145 1132.12 448.098
366 0 70.4252 11.8566 835 49.9389 1131.31 447.085
367 0 77.2296 10.2292 790 51.7203 1130.94 444.006
368 0 76.9993 18.5716 1430 42.8615 1131.6 450.74
369 0 77.3695 15.51 1200 45.72 1131.75 449.604
370 0 82.3872 14.8809 1226 45.6591 1132.3 447.887
371 0 77.7715 10.4537 813 52.8241 1131.75 439.486
372 0 78.5007 13.6432 1071 49.7628 1131.63 438.131
373 0 89.5172 9.39485 841 54.5612 1132.15 433.026
374 0 88.7621 10.2071 906 52.5265 1132.45 437.966
375 0 90.896 12.1347 1103 50.6346 1131.99 436.525
376 0 98.0104 13.7741 1350 47.3985 1131.63 438.687
377 0 91.2608 11.626 1061 53.573 1131.49 426.087
378 0 94.2264 17.3518 1635 45.0618 1131.24 439.78
379 0 89.4622 13.2235 1183 52.4286 1131.39 427.493
380 0 86.004 5.45324 469 54.3582 1131.38 449.791
381 1 4 2.75 11 58.9091 1132.45 414.636
382 0 2 3 6 57.3333 1132.5 413.833
383 1 70.0079 8.21336 575 55.0348 1132.53 441.231
384 0 69.8525 10.0784 704 53.3054 1132.28 441.805
385 0 69.4734 14.6387 1017 46.0747 1131.17 449.82
386 0 74.0685 12.5289 928 50.6196 1131.87 440.838
387 0 74.2206 14.7129 1092 46.8855 1131.01 447.425
388 0 81.932 13.3892 1097 48.5798 1131.25 443.584
389 0 78.2666 11.3586 889 53.6468 1131.37 437.452
390 0 80.5694 10.5499 850 54.4835 1131.13 437.031
391 0 79.072 12.9882 1027 52.668 1131.45 434.874
392 0 81.3236 13.8213 1124 49.7491 1131.7 443.133
393 0 83.1326 17.5262 1457 46.6788 1131.72 442.685
394 0 84.179 11.2142 944 54.7627 1131.02 436.316
395 1 158.309 12.0145 1902 55.2923 1130.37 411.322
396 1 130.16 11.701 1523 58.1976 1130.2 404.729
397 1 94.8089 19.4496 1844 44.9669 1131.15 444.413
398 0 99.8102 16.1206 1609 47.9795 1132.07 441.229
399 0 100.606 13.5479 1363 52.1783 1131.48 434.687
400 0 101.957 13.7214 1399 52.1758 1131.78 433.499
401 0 104.372 20.7145 2162 45.0944 1131.22 439.272
402 0 101.303 17.2749 1750 49.6269 1131.66 432.27
403 0 108.416 17.3221 1878 49.1512 1131.19 431.302
404 1 127.075 10.0728 1280 55.9352 1130.24 430.377
405 1 108.531 10.8817 1181 57.1312 1131.41 427.168
406 1 38.0557 6.91092 263 68.0608 1131.28 391.779
407 1 151.618 9.72183 1474 55.9145 1131.96 424.208
408 0 151.707 10.1446 1539 53.4802 1132.03 429.378
409 1 77.0337 4.36173 336 67.9583 1131.55 383.949
410 0 76.412 15.2463 1165 49.9545 1132.17 440.853
411 0 75.0285 14.901 1118 50.5143 1131.87 440.493
412 0 81.3784 12.9641 1055 51.3915 1131.39 441.763
413 0 80.8284 13.4359 1086 52.1842 1131.53 437.581
414 1 101.21 8.94184 905 55.7956 1130.43 437.901
415 1 86.1395 13.4201 1156 52.4671 1131.13 434.207
416 0 85.0151 15.9266 1354 49.8892 1131.87 437.847
417 0 83.2187 12.1367 1010 54.898 1131.84 435.529
418 1 35.0072 7.51275 263 63.5475 1131.66 439.304
419 0 84.0816 1.89102 159 65.566 1131.28 441.484
420 0 88.1562 2.38214 210 62.7 1131.3 448.814
421 1 76.9472 4.70452 362 59.8398 1131.27 445.033
422 1 116.757 9.7553 1139 57.8323 1132.07 426.848
423 0 115.14 7.56471 871 70.2101 1131.28 368.037
424 1 167.37 9.7688 1635 62.7132 1132.24 402.734
425 1 188.872 7.85189 1483 65.2616 1131.72 397.225
426 0 195.554 14.1035 2758 58.9213 1131.87 389.79
427 0 209.376 14.3283 3000 58.2893 1131.86 388.21
428 1 224.473 11.4268 2565 61.8788 1131.44 386.269
429 0 223.455 7.48695 1673 66.3927 1131.48 394.694
430 0 220.003 7.06808 1555 66.7794 1131.66 397.073
431 0 217.004 8.31784 1805 67.1706 1131.4 387.371
432 0 214.342 12.2934 2635 66.4398 1131.33 363.62
433 0 206.283 10.6068 2188 63.8889 1131.41 393.149
434 1 169.169 9.16242 1550 69.3729 1131.63 389.803
435 1 78.2128 11.5071 900 57.4922 1131.82 439.391
436 1 61.1156 11.8955 727 62.2737 1131.29 437.242
437 0 66.0819 13.6195 900 59.7922 1130.72 434.052
438 0 64.0415 12.2265 783 62.189 1131.07 435.378
439 0 67.1616 11.4202 767 63.837 1130.85 432.261
440 1 96.649 10.9468 1058 55.2354 1131.68 443.898
441 1 76.1434 13.4746 1026 59.8002 1130.82 433.076
442 1 57.4903 12.5413 721 50.0874 1132.31 456.307
443 0 41.0491 11.3035 464 60.056 1131.4 449.539
444 0 42.0558 11.033 464 61.9914 1131.31 446.17
445 0 40.0501 11.0861 444 63.3491 1131.22 444.493
446 0 45.05 11.6093 523 61.3461 1131.42 444.499
447 0 46.0216 11.7771 542 61.8727 1131.63 442.895
448 0 47.0149 10.3797 488 64.3852 1131.6 441.492
449 0 48.0248 11.2858 542 63.5258 1131.98 441.613
450 0 52.0181 11.6498 606 62.5314 1132.07 440.457
451 0 51.0096 12.4682 636 62.1808 1131.83 439.893
452 0 52.0608 11.8323 616 63.3864 1131.82 438.437
453 1 80.6303 14.0022 1129 50.8007 1132.11 448.571
454 1 56.2577 12.6027 709 61.4683 1131.54 435.931
455 0 59.0809 11.8312 699 62.6094 1131.52 433.97
456 0 61.0898 11.3767 695 62.777 1131.09 435.863
457 0 65.182 14.0683 917 59.1232 1131.29 433.72
458 0 64.1476 11.5983 744 62.6452 1130.9 433.839
459 0 66.2138 11.6743 773 62.7956 1130.64 430.279
460 0 69.1493 10.6726 738 64.1206 1130.41 430.436
461 0 69.1132 10.982 759 63.7668 1131.3 430.912
462 0 73.1909 12.201 893 62.4524 1131.21 425.579
463 0 77.15 12.6118 973 61.4049 1131.46 426.743
464 0 76.0638 9.36057 712 66.5056 1131.72 423.694
465 0 82.103 11.4003 936 63.4081 1131.85 423.567
466 1 84.1275 11.5896 975 62.798 1132.61 425.472
467 1 82.2509 10.5044 864 65.4086 1131.37 421.743
468 1 102.81 8.68593 893 61.9306 1132.05 432.091
469 1 78.1357 5.96398 466 68.573 1131.66 429.438
470 0 83.1015 7.42465 617 66.2869 1132.1 430.297
471 0 81.1438 6.05099 491 65.3809 1132 435.238
472 1 103.922 9.16072 952 56.374 1132.27 439.087
473 0 105.115 11.2067 1178 64.5501 1132.1 412.222
474 0 104.154 11.915 1241 64.3578 1131.3 406.725
475 1 133.819 11.2764 1509 57.5202 1132.16 425.411
476 0 114.098 12.0335 1373 63.9177 1131.8 407.268
477 1 80.9246 14.013 1134 49.2875 1132.46 446.615
478 1 57.0793 10.6518 608 62.0806 1131.89 432.081
479 0 61.0698 11.9863 732 60.1516 1131.89 433.682
480 0 64.1584 11.6742 749 60.506 1131.6 433.481
481 0 64.2552 12.606 810 59.6556 1131.58 434.093
482 0 68.2416 11.7524 802 61.3204 1131.19 430.328
483 1 34.2352 8.87976 304 62.8947 1131.68 446.569
484 0 38.2379 10.9839 420 60.4429 1131.81 444.921
485 0 39.1048 10.1778 398 60.7236 1131.88 444.349
486 0 40.0974 11.0232 442 60.6833 1132.02 444.665
487 0 41.2742 12.0172 496 60.1411 1131.73 442.014
488 0 41.1025 10.6076 436 62.8394 1131.64 443.316
489 0 45.0445 9.61272 433 62.873 1132.15 443.644
490 0 48.0423 11.8437 569 60.4025 1132.28 443.545
491 0 48.0848 11.1054 534 61.8614 1132.65 441.669
492 0 49.0633 11.2712 553 63.264 1132.85 438.168
493 0 51.0337 10.738 548 63.5894 1132.73 439.719
494 0 54.1712 11.7221 635 62.8409 1132.57 438.485
495 0 56.1281 12.5784 706 61.8173 1132.43 438.346
496 0 56.0741 13.8032 774 61.1059 1132.37 436.61
497 0 57.1344 11.6217 664 64.5045 1131.95 435.414
498 0 60.0995 14.1266 849 60.9058 1131.99 436.428
499 0 61.0866 13.5873 830 62.2494 1132.13 434.634
500 0 61.0551 12.9719 792 63.6225 1131.94 435.167
501 0 62.0555 11.6186 721 66.0374 1131.88 433.13
502 0 65.1484 12.955 844 63.8282 1132.69 434.251
503 0 68.0853 12.5137 852 64.6021 1132.47 432.297
504 0 70.0857 12.7701 895 64.6849 1132.16 428.654
505 0 72.2448 13.3712 966 64.148 1132.07 430.149
506 0 74.1579 12.824 951 65.5773 1131.58 427.503
507 0 75.2874 12.2066 919 67.0337 1131.79 427.468
508 0 79.1573 14.4649 1145 63.5808 1131.72 426.153
509 1 44.0238 12.4024 546 64.6612 1132.25 443.271
510 0 45.0385 10.2357 461 67.462 1131.94 443.644
511 0 45.0875 11.7771 531 67.1525 1132.58 441.614
512 0 47.0388 11.8413 557 66.9174 1132.26 441.485
513 0 48.0509 11.9457 574 67.6394 1132.07 438.209
514 0 50.0288 11.3934 570 68.4649 1132.34 439.311
515 0 52.1354 12.1415 633 67.1027 1132.3 440.246
516 0 53.0682 12.9645 688 67.5916 1132.43 437.688
517 0 54.0506 13.6724 739 67.8796 1132.38 436.801
518 0 56.0253 13.6724 766 68.5731 1132.18 434.317
519 0 57.1076 13.0455 745 70.0121 1132.04 434.054
520 0 61.11 13.1239 802 69.0237 1131.62 434.8
521 0 58.0345 11.8206 686 72.8324 1131.48 433.122
522 0 62.0477 12.1197 752 71.879 1131.16 432.543
523 0 65.0911 13.9651 909 68.8152 1131.38 432.282
524 0 67.0769 13.4473 902 70.5144 1131.47 429.567
525 0 68.0389 13.2277 900 71.1678 1131.27 429.247
526 0 73.0529 13.7024 1001 69.2567 1131.3 429.525
527 0 75.11 14.2591 1071 68.591 1131.95 428.781
528 1 40.0659 11.4312 458 69.9323 1131.84 446.5
529 0 41.0207 10.3606 425 71.9647 1132.48 446.574
530 0 45.0803 12.2005 550 68.9436 1132.68 445.375
531 0 44.0346 12.5583 553 70.2369 1132 442.119
532 0 46.0749 11.7635 542 71.1771 1132.15 442.358
533 0 48.0558 13.3178 640 69.2406 1132.47 441.497
534 0 49.1253 13.3943 658 69.0836 1132.59 441.19
535 0 51.0875 12.1165 619 70.5622 1133.04 442.325
536 0 52.1327 12.7943 667 69.8126 1132.86 440.093
537 0 52.2003 13.7739 719 68.3408 1133.02 440.312
538 0 55.1612 11.9468 659 70.4704 1132.74 439.786
539 0 56.0721 12.0559 676 70.7086 1132.03 438.083
540 0 57.061 12.3727 706 70.568 1131.66 437.038
541 0 59.1055 12.723 752 69.8777 1131.82 434.501
542 0 60.1424 12.0547 725 70.9959 1131.34 435.439
543 0 64.1136 12.5246 803 69.6999 1131.44 432.283
544 0 66.2475 14.7628 978 66.683 1131.3 432.991
545 0 67.0588 13.6448 915 68.7432 1131.36 430.384
546 0 71.0934 14.8396 1055 66.2777 1131.38 431.957
547 0 71.1763 11.8298 842 71.5297 1131.56 430.863
548 1 37.0717 11.1406 413 68.5787 1132.01 448.203
549 0 38.0203 11.336 431 69.1276 1132.3 446.137
550 0 39.1077 10.9953 430 70.2954 1132.99 445.677
551 0 41.0661 11.9807 492 68.6931 1132.17 444.663
552 0 40.1141 11.4673 460 70.1761 1132.47 445.148
553 0 43.1062 10.9033 470 69.9383 1132.51 446.136
554 0 46.3106 11.4229 529 68.896 1132.53 444.743
555 0 46.069 11.7867 543 68.6667 1132.4 444.064
556 0 48.135 12.3195 593 68.484 1131.93 443.86
557 0 48.0624 11.0898 533 70.7505 1131.9 442.036
558 0 48.1649 11.4191 550 70.8127 1131.79 440.453
559 0 53.1334 11.8193 628 68.9729 1132.18 441.952
560 0 54.0575 12.7827 691 67.6194 1132.83 442.116
561 0 54.1875 11.7555 637 69.876 1132.15 440.538
562 0 58.2283 12.7086 740 67.5297 1132.23 440.95
563 0 58.1696 12.9105 751 68.2011 1132.32 438.766
564 0 60.1667 11.4515 689 70.1234 1131.94 438.604
565 0 64.077 10.94 701 69.6348 1132.15 440.461
566 0 64.1258 12.6158 809 68.5649 1131.99 437.807
567 0 67.2007 12.0237 808 69.2005 1131.68 437.272
568 0 70.1511 11.6891 820 69.6146 1131.79 436.241
569 0 70.0996 11.1556 782 71 1131.7 435.297
570 0 73.1015 12.4348 909 69.8746 1131.38 431.868
571 1 44.0709 9.28049 409 70.4523 1131.76 449.88
572 0 45.09 11.8208 533 68.3471 1132.14 449.191
573 0 44.0825 11.0248 486 70.3827 1131.63 447.22
574 0 48.1031 11.8495 570 67.8053 1132.28 448.182
575 0 48.4486 12.6732 614 67.1759 1132.76 448.252
576 0 48.1179 12.7603 614 67.8795 1132.29 447.192
577 0 49.1345 11.2141 551 70.6171 1132.07 445.984
578 0 50.197 11.5146 578 71.455 1132.11 444.611
579 0 54.1714 11.3344 614 70.3844 1132.13 444.49
580 0 53.1619 10.8536 577 71.8804 1131.88 443.522
581 0 56.1635 11.5912 651 71.0645 1131.39 441.516
582 0 60.1934 11.4132 687 70.4542 1131.47 441.863
583 0 61.085 11.705 715 70.1301 1130.76 441.334
584 0 63.2406 13.2193 836 68.9115 1130.92 437.807
585 0 64.2158 12.9719 833 69.3818 1130.62 436.954
586 0 66.1888 12.9327 856 69.9965 1130.41 435.431
587 0 71.2938 13.5776 968 68.2149 1130.99 436.006
588 1 36.1487 11.0931 401 68.7681 1131.57 452.638
589 0 34.087 8.53699 291 73.6976 1131.4 451.88
590 0 38.1194 10.3622 395 70.476 1131.75 452.519
591 0 41.0872 10.5872 435 70.9747 1131.5 450.517
592 0 44.1359 13.0279 575 67.4522 1131.92 449.405
593 0 45.2643 11.0462 500 69.754 1131.65 449.432
594 0 46.1546 11.1365 514 70.0953 1132.13 448.107
595 0 47.2885 14.549 688 65.9593 1132.11 445.839
596 0 50.2483 12.4979 628 68.2134 1131.83 446.387
597 0 48.0637 11.9425 574 70.3571 1131.68 444.983
598 0 51.1776 11.5089 589 70.7351 1131.36 443.141
599 0 53.0838 12.8853 684 68.5351 1131.5 443.36
600 0 55.1405 10.9357 603 71.2189 1131.92 442.867
601 0 59.1213 12.7027 751 68.466 1132.09 441.855
602 0 58.236 11.4191 665 70.4556 1131.7 441.275
603 0 59.146 12.9172 764 68.644 1131.3 438.02
604 0 62.1221 11.3003 702 70.4117 1131.19 439.295
605 0 66.209 11.4486 758 68.6491 1131.2 438.85
606 0 67.1248 13.0503 876 68.0148 1131.8 435.013
607 0 67.1248 13.0354 875 129.614 1132.79 434.853
608 0 72.1272 13.7257 990 66.4879 1131.55 432.402
609 0 74.1235 12.1554 901 68.3907 1131.55 432.115
610 0 76.1045 12.5354 954 68.3396 1131.1 431.01
611 1 37.0112 9.37555 347 67.928 1132.25 451.294
612 0 39.0405 11.296 441 65.4762 1131.27 449.642
613 0 39.0223 10.3274 403 67.3697 1131.11 449.878
614 0 38.0205 10.468 398 67.9196 1131.32 449.814
615 0 40.0901 9.17931 368 68.7636 1131.09 448.913
616 0 42.032 10.3255 434 67.9862 1131.18 446.205
617 0 46.2201 10.8827 503 65.7475 1130.5 447.272
618 0 46.084 11.5875 534 65.5449 1130.14 444.528
619 0 45.1857 8.3876 379 70.0317 1130.33 445.871
620 0 47.1615 11.1744 527 66.1841 1130.42 443.63
621 0 52.2012 11.5898 605 65.0893 1130.86 442.851
622 0 50.0678 10.6855 535 67.2411 1130.76 442.086
623 0 55.0935 11.9252 657 64.7519 1130.72 441.412
624 0 57.1107 11.539 659 65.6404 1131.11 439.331
625 0 57.0949 10.7715 615 66.3821 1130.5 439.964
626 0 59.2125 12.7338 754 63.943 1130.84 437.269
627 0 60.1519 11.2548 677 65.4889 1130.46 436.929
628 0 61.1604 10.3498 633 66.8657 1130.86 437.654
629 0 64.183 11.2958 725 65.2317 1130.38 435.364
630 0 67.1102 11.0415 741 65.2186 1130.62 432.879
631 0 69.0962 11.6938 808 64.4233 1130.61 433.36
632 0 71.1802 11.506 819 64.7985 1130.97 430.403
633 1 35.0256 9.50734 333 64.7267 1131.79 450.514
634 0 37.0379 8.7478 324 65.716 1132.33 448.583
635 0 40.0146 10.996 440 62.7659 1132.01 448.495
636 0 40.0165 10.6456 426 63.1268 1132.12 447.392
637 0 41.0362 10.2836 422 63.5924 1132.26 447.526
638 0 42.0241 9.87528 415 63.0747 1131.63 446.766
639 0 44.1338 10.6947 472 62.2097 1131.39 445.78
640 0 45.0795 9.87146 445 63.5011 1131.56 445.951
641 0 47.0782 10.3233 486 63.2058 1131.35 443.868
642 0 48.1 10.0624 484 63.1591 1131.27 444.258
643 0 52.1023 11.4198 595 61.4471 1131.11 441.66
644 0 53.102 10.7152 569 62.2285 1130.91 443.292
645 0 53.1066 9.92344 527 63.9336 1130.6 439.173
646 0 56.1859 10.4653 588 62.9966 1130.44 439.925
647 0 57.178 10.4936 600 63.2783 1130.64 439.098
648 0 61.259 12.1615 745 61.3409 1130.95 438.29
649 0 63.1304 12.688 801 60.6979 1130.95 436.426
650 0 64.2745 11.342 729 62.6859 1130.39 436.11
651 0 67.1906 11.6683 784 60.7615 1130.7 438.772
652 0 67.0832 10.9565 735 62.9211 1130.04 433.65
653 0 71.1066 10.7304 763 62.3172 1129.81 434.873
654 1 39.1808 8.95847 351 62.4815 1130.36 449.937
655 0 36.1608 9.26418 335 63.7075 1131.09 448.367
656 0 40.066 9.90866 397 62.2998 1131.14 449.214
657 0 40.0771 8.93279 358 63.6145 1131.35 449.14
658 0 44.0702 11.1186 490 60.4388 1131.27 444.147
659 0 44.0291 10.97 483 60.8654 1132 445.412
660 0 43.0596 9.68426 417 63.5947 1131.35 443.158
661 0 44.0221 11.2216 494 62.1964 1131.57 441.751
662 0 48.0205 11.6617 560 61.1982 1131.72 440.984
663 0 51.0381 14.0679 718 58.2535 1131.43 440.043
664 0 51.1296 11.4415 585 62.6752 1131.32 439.048
665 0 53.0622 11.4017 605 62.4165 1131.55 438.98
666 0 54.075 12.0758 653 62.6294 1131.45 437.884
667 0 58.0982 13.0641 759 60.8037 1131.23 438.993
668 0 58.1033 12.3229 716 63.3156 1130.69 436.94
669 0 60.0475 11.5575 694 63.7233 1130.18 437.524
670 0 59.0761 11.9338 705 65.0355 1129.94 433.474
671 0 63.0628 15.1278 954 60.6772 1130.34 431.722
672 0 66.0907 13.1637 870 63.0621 1129.9 433.148
673 0 67.0908 12.4607 836 64.3684 1129.81 430.423
674 0 67.0813 13.342 895 64.4793 1130.01 430.845
675 0 76.2283 15.0994 1151 46.9131 1129.89 433.246
676 1 35.0565 8.95698 314 69.344 1131.73 445.312
677 0 40.0345 10.2911 412 67.182 1131.06 443.951
678 0 40.1101 9.89775 397 68.267 1131.18 444.398
679 0 41.0119 10.9237 448 66.7902 1131.56 445.136
680 0 44.0205 12.0626 531 65.983 1131.18 443.136
681 0 44.0501 11.4869 506 67.5455 1131.2 441.626
682 0 47.016 12.7403 599 65.2404 1130.97 440.461
683 0 46.032 12.2306 563 67.4174 1130.88 439.703
684 0 49.0368 13.5612 665 65.2887 1130.7 439.986
685 0 52.0661 12.2921 640 67.3531 1130.84 439.017
686 0 53.0344 13.5572 719 65.2337 1130.78 438.218
687 0 53.0473 14.1383 750 65.2733 1131.27 437.528
688 0 54.0273 13.234 715 67.2797 1131.26 435.076
689 0 55.0474 13.3703 736 66.3166 1130.95 436.899
690 0 57.161 12.4036 709 68.2539 1131.22 434.869
691 0 58.098 13.8559 805 66.4273 1131.04 434.738
692 0 61.0652 13.5429 827 66.4522 1130.74 432.682
693 0 63.0798 14.87 938 64.645 1131.27 432.06
694 0 64.1232 13.8483 888 66.2996 1131.16 430.59
695 0 64.0582 13.2224 847 67.6033 1130.17 431.665
696 0 65.1198 13.4368 875 67.6937 1130.24 428.552
697 0 70.0349 14.5213 1017 65.47 1130.54 428.728
698 0 74.0527 13.7875 1021 65.7542 1130.64 429.677
699 0 75.0287 12.7818 959 67.6882 1130.64 428.362
700 1 38.0749 11.0834 422 68.5284 1130.93 445.846
701 0 38.0188 13.0199 495 66.3111 1130.78 445.941
702 0 39.0554 10.9844 429 69.69 1131.04 446.168
703 0 38.0221 10.8621 413 71.6078 1130.9 446.363
704 0 41.0259 12.7724 524 68.7748 1130.64 444.706
705 0 43.1011 12.3663 533 69.1069 1130.42 444.728
706 0 44.0432 10.8757 479 71.4781 1132.13 445.098
707 0 43.0323 13.2459 570 69.6035 1132.03 443.484
708 0 46.039 13.1845 607 69.4036 1132.22 441.591
709 0 48.012 12.851 617 69.1248 1132.21 442.352
710 0 49.0224 12.6269 619 69.4653 1132.06 442.226
711 0 52.0587 13.5616 706 66.4419 1131.75 440.629
712 0 52.0506 13.7751 717 66.1227 1131.66 441.046
713 0 52.0295 13.2809 691 68.0362 1132.01 438.391
714 0 53.0491 14.0813 747 67.6613 1131.77 437.659
715 0 56.027 13.6006 762 67.6549 1131.86 436.564
716 0 57.0503 13.0061 742 68.4151 1132.03 438.522
717 0 58.1248 13.1785 766 68.8029 1131.45 436.56
718 0 61.012 15.1446 924 66.4968 1131.49 435.776
719 0 62.0779 12.1944 757 70.4267 1130.96 436.695
720 0 65.0192 13.7036 891 68.0572 1131.31 437.547
721 0 67.0974 13.2494 889 68.964 1130.89 437.129
722 0 72.1402 15.1233 1091 66.3061 1131.57 435.14
723 0 70.0432 14.6196 1024 69.3408 1131.85 430.851
724 0 72.2157 13.5012 975 71.038 1130.97 433.45
725 0 75.035 14.5532 1092 70.2143 1129.93 429.956
726 1 40.0291 11.3168 453 72.5099 1131.18 449.04
727 0 42.1865 12.9188 545 70.2055 1131.04 449.532
728 0 45.0421 12.6548 570 71.2 1131.35 447.307
729 0 43.0692 12.6308 544 73.1085 1130.79 446.368
730 0 45.1147 13.0113 587 72.799 1131.31 446.303
731 0 47.0381 12.1178 570 73.1596 1131.61 446.835
732 0 49.0706 12.105 594 72.9646 1131.67 445.148
733 0 51.0396 12.2062 623 73.1621 1131.98 445.135
734 0 52.0577 12.6398 658 73.2751 1131.93 442.789
735 0 52.0701 13.1169 683 73.53 1131.91 441.76
736 0 56.069 12.2171 685 73.4073 1131.8 442.15
737 0 59.0792 12.4578 736 73.2201 1131.6 440.205
738 0 60.0611 12.8369 771 72.0584 1131.88 441.481
739 0 63.0631 14.1604 893 69.9978 1131.86 440.793
740 0 64.0878 13.4815 864 72.4479 1131.56 437.852
741 0 66.0804 13.2112 873 73.228 1131.26 436.624
742 0 69.079 12.5653 868 73.5714 1131.59 435.817
743 0 70.0754 11.9871 840 75.4929 1131.83 434.011
744 1 32.0102 10.1842 326 76.0583 1132.47 452.052
745 0 37.0058 10.9983 407 74.3563 1132.7 452.005
746 0 37.1061 11.4806 426 73.8169 1132.52 452.758
747 0 39.0539 11.8554 463 73.5896 1132.23 450.179
748 0 41.0365 10.0155 411 75.3601 1131.92 450.718
749 0 42.1158 10.2574 432 75.6782 1131.33 449.428
750 0 42.0218 11.2085 471 75.2505 1131.93 448.276
751 0 42.0445 12.2489 515 74.1379 1131.98 447.4
752 0 44.1105 11.2898 498 75.4337 1132.41 448.092
753 0 46.0844 12.2167 563 74.4281 1132.02 445.167
754 0 45.1082 11.9269 538 75.0204 1132.08 446.017
755 0 49.0812 12.3061 604 74.1457 1131.6 444.475
756 0 50.1358 12.167 610 74.0639 1131.57 445.303
757 0 51.0942 12.976 663 73.7542 1131.94 443.842
758 0 54.0543 12.7279 688 73.282 1131.2 443.532
759 0 54.038 12.9723 701 74.0713 1131.12 442.575
760 0 55.075 12.0926 666 75.3093 1131.44 442.964
761 0 55.0569 11.2066 617 77.671 1132.39 441.066
762 0 60.0757 12.7006 763 74.2451 1131.79 441.979
763 0 63.214 12.956 819 72.8303 1131.53 439.675
764 0 65.0588 13.434 874 72.0561 1131.23 437.936
765 0 64.0351 11.5874 742 75.4137 1131.07 439.903
766 0 67.0304 12.7405 854 73.815 1131.69 439.016
767 0 69.0645 12.1481 839 74.5662 1131.79 437.681
768 0 72.0989 11.72 845 75.9527 1131.06 436.772
769 1 40.0574 10.4101 417 73.6211 1131.68 453.158
770 0 43.0508 10.8012 465 73.3333 1131.79 451.662
771 0 42.0658 10.9828 462 74.1385 1131.72 451.316
772 0 42.0248 9.18506 386 77.5104 1131.6 450.699
773 0 44.0503 11.3507 500 74.708 1131.31 449.768
774 0 46.0338 11.6653 537 74.4469 1131.35 448.013
775 0 48.0296 12.6172 606 71.9323 1131.48 449.573
776 0 51.0219 10.7013 546 75.163 1131.4 448.392
777 0 49.1934 12.1358 597 73.943 1131.49 446.695
778 0 52.1034 11.5732 603 73.6036 1131.5 447.745
779 0 54.0182 11.2184 606 74.5495 1131.6 445.66
780 0 56.0699 11.8959 667 73.4318 1131.32 445.408
781 0 57.0583 12.3733 706 72.6218 1131.53 445.164
782 0 59.0774 11.7134 692 73.8078 1131.56 443.264
783 0 60.0657 11.1877 672 74.3333 1131.14 444.128
784 0 62.187 11.578 720 74.4278 1130.85 440.054
785 1 33.0412 9.56381 316 75.0158 1131.08 454.332
786 0 34.0629 8.89531 303 74.7063 1131.22 454.62
787 0 38.0877 10.7646 410 72.8439 1131.6 453.176
788 0 38.0504 9.75023 371 74.9596 1130.45 452.585
789 0 38.022 10.5991 403 73.33 1131.08 453.529
790 0 39.0885 10.1564 397 74.5416 1130.87 451.186
791 0 43.1114 11.5051 496 71.9677 1130.86 449.671
792 0 43.13 11.3146 488 72.6537 1130.16 448.336
793 0 41.0459 10.6953 439 74.1959 1131 447.973
794 0 46.0287 10.8193 498 73.3012 1130.58 447.195
795 0 46.0675 11.5266 531 72.7928 1131.01 446.422
796 0 49.0793 12.0214 590 71.9525 1130.32 445.612
797 0 48.0611 11.0484 531 74.3522 1130.29 444.539
798 0 51.0315 11.7966 602 72.3223 1129.91 443.042
799 0 55.0333 11.7565 647 71.4204 1130.45 444.847
800 0 55.1243 11.3562 626 72.8243 1131.17 443.559
801 0 58.068 11.6932 679 71.4109 1131.15 443.108
802 0 60.0329 12.3266 740 70.373 1131.67 441.497
803 0 62.0544 12.9725 805 69.3342 1130.89 439.388
804 1 33.0934 9.42786 312 69.0224 1131.43 454.696
805 0 33.0269 9.96157 329 68.4043 1131.19 454.164
806 0 34.1375 9.93042 339 67.118 1131.07 454.1
807 0 36.0252 9.96524 359 67.1309 1131.11 454.593
808 0 36.1152 10.5219 380 66.8447 1131.14 452.939
809 0 38.1077 11.52 439 66.1139 1131.3 451.371
810 0 39.0601 12.34 482 65.2427 1131.14 451.18
811 0 41.1772 11.1955 461 67.4772 1131.59 451.117
812 0 41.0886 10.3922 427 68.9766 1132.15 449.461
813 0 42.123 10.8729 458 68.7314 1132.08 448.38
814 0 45.0403 11.523 519 66.9653 1131.54 448.489
815 0 45.0842 11.0016 496 68.1492 1130.86 445.486
816 0 44.0787 10.5493 465 69.9462 1130.86 445.133
817 0 44.0498 10.0568 443 71.0564 1130.63 445.214
818 0 48.1247 11.3663 547 68.7075 1130.99 444.199
819 0 49.0984 11.0391 542 68.869 1130.58 444.482
820 0 52.0145 12.1312 631 67.2789 1131.2 442.861
821 0 53.1345 12.9671 689 66.5138 1131.06 439.549
822 0 54.0343 11.6963 632 68.6487 1131.63 441.59
823 0 56.141 12.7714 717 67.0126 1131.19 439.22
824 0 59.2204 11.9047 705 67.4823 1131.63 440.15
825 0 59.0814 11.3403 670 69.6239 1131.48 437.207
826 0 62.128 11.428 710 68.8845 1131.23 434.908
827 0 65.1931 14.1119 920 64.8935 1131.09 433.003
828 0 69.1564 12.8549 889 65.5388 1131.21 434.818
829 0 71.2319 12.4944 890 66.3742 1130.93 432.773
830 0 69.1033 11.2585 778 68.973 1130.82 431.832
831 0 77.1251 12.4732 962 65.9678 1131.05 432.251
832 1 37.0855 9.57248 355 67.3746 1131.54 448.065
833 0 39.0384 11.5783 452 64.6858 1132.13 448.976
834 0 40.082 11.1272 446 65.3072 1131.32 447.175
835 0 41.0241 10.1891 418 67.3325 1131.61 446.112
836 0 43.0306 10.6436 458 65.8537 1131.56 446.26
837 0 45.0714 10.916 492 65.626 1131.62 443.356
838 0 45.0555 10.7645 485 66.635 1131.73 442.816
839 0 49.1285 12.0704 593 63.801 1131.43 442.04
840 0 49.0662 11.352 557 65.7702 1131.41 439.18
841 0 53.1887 12.183 648 63.5201 1130.87 439.255
842 0 52.1175 11.0328 575 66.5235 1131.54 438.551
843 0 55.0605 10.8426 597 66.7956 1132.46 436.327
844 0 55.0348 12.8646 708 64.1525 1132.23 436.857
845 0 59.158 12.0863 715 65.1734 1132.14 436.579
846 0 63.1369 11.4513 723 65.3513 1132.15 435.967
847 0 64.1753 12.7463 818 64.2127 1131.16 434.649
848 0 62.1175 10.0294 623 69.3435 1130.94 434.202
849 0 67.1808 11.8189 794 66.5655 1131.17 432.916
850 0 70.1309 12.9615 909 64.9857 1130.57 432.561
851 0 72.1567 11.5998 837 67.2951 1130.8 431.787
852 1 36.1145 8.99915 325 70.2923 1130.75 448.428
853 0 40.0943 10.3506 415 67.7952 1131.05 447.663
854 0 40.1677 10.3815 417 68.2158 1130.85 446.722
855 0 42.1077 11.9931 505 66.9525 1130.84 443.921
856 0 44.1731 11.0022 486 67.1296 1130.27 445.65
857 0 45.092 11.7538 530 67.6679 1130.92 443.196
858 0 46.094 10.9342 504 69.5099 1131.2 443.155
859 0 48.0828 12.2081 587 66.9489 1131.42 441.274
860 0 49.0751 10.2496 503 70.0755 1131.62 442.714
861 0 51.1593 13.0963 670 65.6985 1131.3 439.519
862 0 52.053 11.3154 589 68.8234 1131.59 439.615
863 0 53.1376 11.856 630 67.9841 1131.18 438.422
864 0 56.042 11.7947 661 68.2194 1131.99 438.31
865 0 56.107 11.9415 670 68.7522 1133.26 437.182
866 0 59.1068 12.4351 735 67.3687 1132.89 436.713
867 0 61.0455 13.2688 810 66.2395 1132.84 435.249
868 0 64.0305 13.2593 849 65.9234 1131.72 432.932
869 0 66.0333 13.2812 877 66.2873 1132.04 433.214
870 0 69.0526 12.4832 862 67.1833 1131.8 431.142
871 0 69.1197 12.1239 838 68.1026 1131.53 431.135
872 0 72.1648 13.4137 968 66.1963 1131.23 429.634
873 0 75.1992 12.7262 957 66.7816 1131.19 429.236
874 0 78.2288 13.2943 1040 66.1558 1130.57 427.368
875 0 81.1281 11.8948 965 68.4352 1130.82 426.177
876 0 84.1903 12.8162 1079 66.1418 1130.71 427.095
877 0 85.3062 12.2265 1043 68.1611 1130.97 423.058
878 1 44.04 10.4905 462 67.0952 1131.32 443.366
879 0 48.0954 10.6455 512 67.3242 1131.58 443.607
880 0 50.0297 12.2127 611 65.3781 1132.3 441.021
881 0 52.0426 12.5474 653 65.4196 1131.78 440.191
882 0 51.076 12.1388 620 66.9839 1131.99 438.418
883 0 55.1221 12.4632 687 65.5604 1131.44 438.799
884 0 55.0534 11.0801 610 67.9967 1131.68 438.413
885 0 60.066 12.403 745 65.8698 1131.39 436.16
886 0 59.0758 11.9677 707 67.0184 1131.39 436.878
887 0 63.0713 12.8268 809 64.6082 1132.41 436.077
888 0 66.0614 12.8971 852 63.9554 1132.05 434.603
889 0 65.0825 13.552 882 64.424 1131.73 432.35
890 0 68.1223 13.2115 900 63.8611 1131.8 431.942
891 0 71.1154 12.4446 885 64.9604 1131.75 431.577
892 0 71.103 10.7168 762 66.9987 1131.14 430.547
893 0 75.0961 12.1444 912 65.6096 1131.22 426.773
894 1 38.1159 10.7304 409 66.6284 1131.45 444.142
895 0 39.1092 10.2022 399 66.2356 1131.02 443.85
896 0 40.0116 9.09735 364 66.4093 1131.13 446.091
897 0 44.0111 11.2699 496 63.3548 1131.4 444.435
898 0 46.0737 11.7421 541 64.0592 1131.76 442.481
899 0 49.0313 13.9095 682 61.8724 1131.58 440.113
900 0 46.0208 11.8642 546 65.8114 1131.17 438.797
901 0 50.0726 11.3635 569 66.0474 1131.65 439.812
902 0 54.2047 11.8624 643 64.2597 1132 439.742
903 0 59.1366 13.0714 773 61.6805 1131.55 439.252
904 0 58.1149 13.5249 786 62.1489 1131.53 437.65
905 0 60.1106 13.5251 813 62.6322 1131.21 433.958
906 0 61.1256 12.368 756 64.5728 1131.42 433.919
907 0 65.1197 12.93 842 62.8076 1130.8 434.776
908 0 67.0896 12.5355 841 63.2116 1130.78 434.218
909 0 70.1017 13.2094 926 62.2354 1130.65 430.618
910 0 73.1866 13.5681 993 62.0977 1130.47 428.914
911 0 74.1212 11.1034 823 65.6719 1130.81 430.482
912 0 76.1107 12.5475 955 64.11 1130.87 424.935
913 0 81.1001 12.4661 1011 62.8467 1131.33 428.089
914 0 84.1695 12.1778 1025 64.0449 1131.28 422.999
915 0 89.2436 14.6453 1307 46.8332 1130.31 430.178
916 1 46.0716 12.8713 593 62.6307 1130.75 440.958
917 0 47.054 12.56 591 61.9137 1131 442.381
918 0 49.1607 10.3538 509 65.609 1131.84 440.631
919 0 50.1465 11.7456 589 64.7521 1131.57 439.754
920 0 51.0807 12.4313 635 63.9575 1132.66 437.606
921 0 53.1815 12.9368 688 63.4346 1132.51 436.855
922 0 54.1078 11.6065 628 64.7548 1131.67 438.183
923 0 57.3218 12.7002 728 63.6429 1131.42 436.522
924 0 59.0663 11.9357 705 64.6752 1131.33 436.112
925 0 59.2595 13.0106 771 64.9053 1131.66 431.853
926 0 63.186 12.5344 792 64.2121 1131.74 434.461
927 0 66.2018 13.6099 901 62.5094 1131.4 435.458
928 0 68.1191 13.359 910 63.5978 1131.33 431.841
929 0 71.1627 12.7314 906 63.7086 1130.99 433.331
930 1 36.0585 9.37366 338 65.4467 1131.94 449.624
931 0 37.0979 10.2701 381 63.7559 1131.88 449.013
932 0 39.1371 10.3227 404 65.1955 1131.41 446.02
933 0 41.1309 10.965 451 63.2528 1131.14 447.37
934 0 41.1716 11.0756 456 64.7346 1131.23 445.057
935 0 42.0518 12.1755 512 63.9824 1131.32 442.814
936 0 46.0643 11.2017 516 63.9283 1132.09 444.242
937 0 45.0854 11.5337 520 64.6058 1131.96 443.333
938 0 47.0623 11.6229 547 64.2029 1131.43 442.611
939 0 48.106 11.828 569 64.6239 1131.69 441.893
940 0 51.0668 12.1997 623 64.008 1131.9 439.941
941 0 50.0275 11.0539 553 65.9331 1131.53 440.425
942 0 52.2055 11.0716 578 66.3304 1131.41 437.22
943 0 56.1399 12.5757 706 63.4887 1130.74 437.404
944 0 57.0995 11.5413 659 64.8316 1130.88 437.382
945 0 59.0478 11.8717 701 64.5692 1130.34 434.894
946 0 60.048 11.7573 706 65.3711 1130.09 432.871
947 0 63.1143 12.2476 773 64.1501 1129.91 433.95
948 0 64.1052 12.4015 795 64.527 1129.92 433.403
949 0 66.1684 11.1382 737 65.882 1129.99 432.697
950 0 71.1263 12.8785 916 63.095 1129.78 430.17
951 0 72.0743 11.6824 842 64.2494 1129.9 431.816
952 0 74.1234 10.9142 809 66.204 1130 427.755
953 0 76.0473 12.1372 923 64.2232 1130.48 429.298
954 1 39.0666 11.2116 438 62.2534 1130.77 446.701
955 0 43.0395 11.8496 510 61.4255 1130.53 444.624
956 0 41.0759 10.7362 441 63.3628 1130.53 444.63
957 0 42.018 11.8045 496 62.0806 1130.56 440.615
