time division length width area intensity CMx CMy
0 0 16.0406 11.845 190 78.0895 1055.19 484.426
1 0 17.1042 10.5822 181 79.1878 1054.76 481.348
2 0 14.0093 9.20815 129 86.5194 1054.22 483.736
3 0 14.0065 8.35327 117 88.2222 1053.68 486.205
4 0 16.0151 10.5526 169 80.645 1054.01 484.391
5 0 16.0081 11.744 188 77.0532 1054.55 484.266
6 0 17.0104 12.1102 206 75.335 1055.08 484.927
7 0 16.026 11.7933 189 76.7619 1054.62 484.079
8 0 17.1522 10.3194 177 79.2373 1054.12 484.802
9 0 15.0009 8.26616 124 88.1371 1053.79 485.927
10 0 15.0072 10.5283 158 81.8608 1054.16 485.43
11 0 17.0173 12.0466 205 76.4 1054.2 485.649
12 0 16.0031 12.1227 194 77.2577 1054.24 485.423
13 0 17.0131 10.7564 183 78.3333 1054.14 486.016
14 0 15.021 8.52138 128 87.1328 1053.16 487.641
15 0 16.05 12.0249 193 76.886 1053.34 486.632
16 0 15.0236 8.78618 132 87.0455 1052.28 488.553
17 0 17.0078 12.0533 205 78.2927 1053.39 486.859
18 0 16.0784 11.0086 177 83.3107 1052.71 487.904
19 0 17.0082 11.2299 191 82.3194 1052.9 488.157
20 0 17.0247 14.3908 245 76.5102 1053.12 488.306
21 0 16.0063 13.8071 221 78.9367 1053.42 488.222
22 0 16.0868 13.1163 211 79.7156 1052.93 487.616
23 0 14.0026 11.4979 161 86.9193 1052.32 489.335
24 0 16.0054 11.6836 187 82.4332 1053.07 488.278
25 0 17.0552 10.3781 177 84.3503 1053.63 488.994
26 0 18.0129 11.1587 201 80.8607 1053.56 489.184
27 0 17.0164 14.1628 241 78.5436 1053.24 488.137
28 0 18.023 12.6505 228 79.636 1052.65 488.25
29 0 18.0312 12.0347 217 80.7327 1052.81 489.014
30 0 18.026 13.2032 238 78.3739 1053.62 489.433
31 0 18.0224 13.8161 249 77.2289 1053.87 489.554
32 0 17.0208 12.2791 209 81.2967 1053.72 490.531
33 0 16.005 10.8716 174 87.477 1053.03 490.649
34 0 17.0667 12.0117 205 82.4683 1053.49 489.522
35 0 17.0385 13.8509 236 78.7373 1053.28 487.403
36 0 19.0348 12.3984 236 78.1992 1053.66 488.758
37 0 16.0155 10.365 166 87.012 1052.6 489.331
38 0 18.0054 10.719 193 83.3731 1052.39 488.378
39 0 19.0184 12.9349 246 77.4715 1051.84 488.138
40 0 21.0236 13.1757 277 74.6462 1052.77 488.206
41 0 19.0677 12.7441 243 78.0082 1052.63 488.881
42 0 19.0223 11.6705 222 79.8964 1052.62 489.293
43 0 19.0262 12.9821 247 77.1336 1053.22 488.344
44 0 18.1164 12.0885 219 80.4658 1052.43 489.594
45 0 17.0378 15.0254 256 76.3203 1052.83 489.336
46 0 17.0022 11.8808 202 82.4653 1052.15 489.668
47 0 17.0369 11.3283 193 83.0311 1052.36 489.591
48 0 18.0427 11.6391 210 80.5381 1052.19 485.69
49 0 19.0309 10.0889 192 82.6771 1051.51 485.396
50 0 17.0139 10.4032 177 85.6667 1051.42 486.78
51 0 18.0381 11.9192 215 79.6047 1052.17 485.288
52 0 19.0131 13.0962 249 75.8675 1051.31 486.53
53 0 18.0049 12.8854 232 77.5345 1051.05 485.293
54 0 20.0104 11.2941 226 78.0398 1050.46 485.487
55 0 20.0093 11.6946 234 76.7692 1051.07 484.786
56 0 20.0064 10.8465 217 78.682 1051.71 484.88
57 0 19.0616 10.4398 199 80.2211 1051.39 484.673
58 0 19.0318 11.5071 219 78.9315 1051.25 485.406
59 0 19.0156 12.6212 240 74.8333 1050.94 484.7
60 0 19.0192 9.83215 187 82.1979 1050.31 486.385
61 0 20.0629 12.3612 248 74.7863 1050.58 485.601
62 0 19.0107 13.0453 248 74.6895 1050.77 486.246
63 0 21.0102 10.4711 220 77.3682 1050.59 486.168
64 0 21.0154 11.1347 234 76.4573 1050.88 484.838
65 0 20.0551 10.8701 218 78.1239 1050.66 484.739
66 0 20.0096 9.99518 200 79.62 1048.94 484.92
67 0 19.1012 12.3029 235 75.8 1049.97 485.506
68 0 20.0466 10.1763 204 78.4461 1050.56 485.275
69 0 20.0347 12.1789 244 75.2336 1050.6 484.709
70 0 19.0018 11.7358 223 77.1839 1050.41 486.26
71 0 20.0055 11.3469 227 76.4097 1049.94 486.458
72 0 21.0408 10.8361 228 77.0658 1050.27 485.952
73 0 19.0156 10.4651 199 79.9196 1049.82 486.422
74 0 16.002 10.6862 171 84.2281 1049.16 486.181
75 0 20.0196 11.6886 234 75.9786 1049.81 485.615
76 0 20.1088 10.0453 202 79.1634 1049.17 484.886
77 0 21.1173 9.18678 194 80.2629 1048.8 484.845
78 0 21.02 13.5585 285 69.7754 1050.16 484.312
79 0 19.0018 9.99904 190 80.9526 1048.73 485.689
80 0 21.0174 14.4166 303 70.0726 1049.21 485.782
81 0 20.0076 12.1954 244 73.75 1048.75 484.016
82 0 20.1145 13.6718 275 71.8182 1050.4 485.709
83 0 20.0442 13.5201 271 70.9594 1049.94 485.79
84 0 21.0337 10.5545 222 76.0856 1048.95 484.982
85 0 22.0301 11.0303 243 74.2963 1049.4 485.337
86 0 20.0299 13.38 268 71.6866 1049.57 485.552
87 0 20.0527 13.3149 267 71.1236 1049.92 485.509
88 0 21.0831 11.2886 238 73.6765 1049.7 485.155
89 0 21.038 11.5505 243 73.5967 1050 485.86
90 0 20.1286 9.68773 195 78.6974 1049.74 485.626
91 0 21.0262 12.8411 270 70.2889 1049.97 485.904
92 0 22.0069 12.8596 283 69.6961 1049.71 485.435
93 0 21.0117 10.2324 215 76.5907 1049.23 485.921
94 0 23.0392 12.2834 283 69.5689 1050.1 485.216
95 0 21.0115 12.4218 261 70.046 1050.26 485.1
96 0 21.0892 12.8502 271 68.4059 1050.26 483.373
97 0 20.0213 10.9383 219 74.5434 1049.68 484.164
98 0 20.0129 10.5932 212 75.5425 1049.75 484.684
99 0 20.069 12.756 256 70.1367 1049.95 483.496
100 0 19.0319 10.1934 194 77.6804 1049.93 484.278
101 0 20.0206 11.0387 221 73.276 1050.44 483.262
102 0 20.0607 12.1631 244 71.5451 1050.21 483.201
103 0 19.0733 12.6879 242 71.6736 1050.69 484.062
104 0 21.0552 9.92627 209 75.11 1051 483.081
105 0 20.0428 12.7727 256 69.4023 1051.04 482.047
106 0 23.0264 12.1599 280 67.3464 1051.64 482.604
107 0 22.1859 10.998 244 70.2008 1051.18 483.684
108 0 21.2445 12.5679 267 67.2022 1051.79 481.816
109 0 21.3192 12.8054 273 66.4689 1051.66 481.802
110 0 22.3571 12.4793 279 65.3262 1051.81 480.81
111 0 22.3624 10.9559 245 69.6286 1051.4 483.506
112 0 23.0859 14.0779 325 62.3846 1051.21 482.071
113 0 21.1241 12.3555 261 68.3487 1050.48 483.322
114 0 21.1971 11.511 244 69.459 1051.16 482.561
115 0 24.3083 11.7244 285 65.014 1051.07 482.14
116 0 25.6101 14.1741 363 59.2672 1051.11 482.333
117 0 21.2426 9.46211 201 73.9303 1051.35 482.602
118 0 23.5708 11.7094 276 65.8333 1051.38 482.768
119 0 23.1161 8.99805 208 72.8558 1051.45 483.346
120 0 23.132 11.5857 268 67.0634 1051.9 482.832
121 0 22.1242 12.2038 270 65.6704 1051.87 482.289
122 0 22.2247 11.4737 255 67.4745 1051.58 483.761
123 0 23.3915 11.8419 277 65.5921 1051.59 483.704
124 0 22.1549 11.6001 257 66.9416 1052.51 482.105
125 0 23.3312 12.944 302 63.6755 1052.79 482.778
126 0 24.6325 10.0274 247 67.3927 1052.4 482.393
127 0 23.5696 11.4554 270 65.0815 1053.05 480.97
128 0 23.5845 9.96415 235 68.5574 1051.57 482.277
129 0 22.2112 9.76984 217 71.1336 1051.41 481.834
130 0 22.2626 13.1611 293 63.5631 1051.56 480.771
131 0 24.4674 11.6482 285 64.2561 1051.34 482.214
132 0 22.5892 10.4032 235 68.7191 1051.2 482.221
133 0 23.3316 9.0864 212 71.5519 1051.51 481.797
134 0 21.1464 10.9238 231 69.5238 1051.1 482.087
135 0 23.4058 9.48482 222 70.045 1051.31 481.748
136 0 23.1653 9.84231 228 69.3114 1051.91 481.044
137 0 23.1756 11.7797 273 64.2308 1051.81 481.615
138 0 24.2194 12.7171 308 61.3799 1052.53 480.87
139 0 25.3225 11.8472 300 62.2867 1052.29 481.603
140 0 23.3145 11.1948 261 65.7969 1052.35 481.651
141 0 21.1798 10.3872 220 70.0273 1051.24 482.523
142 0 27.4833 11.9709 329 59.9909 1052.53 480.149
143 0 22.3784 10.4118 233 67.0515 1052.52 480.266
144 0 22.2611 11.2304 250 66 1052.31 481.528
145 0 20.18 11.7443 237 68.0253 1051.82 482.945
146 0 22.5903 10.2256 231 68.6234 1052.32 482.013
147 0 24.4288 11.38 278 63.3022 1052.82 481.378
148 0 22.2244 12.0588 268 64.291 1052.68 481.545
149 0 22.2332 13.7632 306 61.4935 1052.43 482.67
150 0 23.0915 13.7713 318 60.6824 1052.69 480.931
151 0 23.4095 9.52603 223 68.8655 1052.04 480.978
152 0 23.4721 10.9066 256 65.6211 1051.74 481.109
153 0 23.2113 10.2967 239 66.9247 1052.39 481.418
154 0 23.4436 11.645 273 63.707 1052.25 481.454
155 0 22.3354 13.8793 310 61.3355 1052.56 480.71
156 0 25.41 12.5934 320 60.7156 1052.36 481.431
157 0 23.5043 11.3596 267 64.0449 1052.65 479.828
158 0 21.3692 12.5882 269 63.7993 1052.83 482.294
159 0 24.5183 10.278 252 65.4405 1053.34 481.306
160 0 23.1893 10.2202 237 67.2489 1052.77 482.549
161 0 24.5301 10.2731 252 65.8254 1052.85 481.159
162 0 24.4493 10.1026 247 66.4211 1053.74 480.045
163 0 24.2166 12.8011 310 61.5968 1053.64 479.732
164 0 23.3791 9.11068 213 70.723 1052.79 481.202
165 0 21.1751 10.0118 212 69.3585 1052.83 481.349
166 0 22.2645 9.92611 221 69.3077 1052.66 481.457
167 0 24.2889 11.3632 276 63.9529 1053.11 480.721
168 0 23.2878 13.1399 306 60.8039 1053.35 480.824
169 0 20.2418 10.2758 208 70.6779 1052.48 482.226
170 0 23.3944 10.9428 256 65.1719 1052.2 480.734
171 0 23.3977 10.3001 241 66.6307 1051.51 480.95
172 0 24.41 10.8972 266 64.5338 1052.77 480.504
173 0 23.1601 10.7944 250 65.684 1052.53 480.204
174 0 21.2675 10.2974 219 68.3014 1052.82 481.406
175 0 25.276 12.7394 322 60.0714 1052.2 481.96
176 0 23.3848 13.2137 309 61.2848 1052.83 481.498
177 0 19.0553 11.7028 223 69.2287 1052.51 482.758
178 0 24.3808 13.0021 317 60.1073 1053.82 479.896
179 0 25.0329 12.144 304 60.9211 1053.47 480.02
180 0 25.2679 14.7222 372 56.2608 1053.24 480.401
181 0 25.4278 12.8599 327 58.789 1053.64 479.52
182 0 23.2963 12.3625 288 62.0521 1053.65 480.677
183 0 24.6992 11.7413 290 61.5862 1053.53 479.531
184 0 23.2342 10.1574 236 67.0127 1053.22 481.381
185 0 23.2534 11.6542 271 63.1292 1052.86 480.251
186 0 23.1951 11.0368 256 64.7188 1052.94 481.531
187 0 24.4703 10.4208 255 65.0549 1053.18 480.616
188 0 22.1595 11.5075 255 65.3804 1052.51 480.933
189 0 27.3811 13.1843 361 56.8837 1053.66 478.645
190 0 24.3838 10.2937 251 64.8127 1053.29 480.243
191 0 22.3084 11.2962 252 64.1151 1052.72 479.476
192 0 24.2933 12.1021 294 60.8503 1052.44 481.51
193 0 22.1594 9.83782 218 68.3761 1052.17 480.936
194 0 25.194 12.5824 317 59.183 1053.08 479.054
195 0 25.4099 12.1606 309 59.7896 1053.22 479.256
196 0 22.1564 10.9224 242 65.5 1053.24 481.025
197 0 24.326 13.1958 321 59.4984 1054.05 480.981
198 0 23.3259 12.4325 290 61.0759 1053.87 481.097
199 0 23.2524 15.6113 363 56.3939 1054.48 479.609
200 0 21.1623 12.475 264 63.3636 1053.13 480.939
201 0 22.0157 12.8091 282 62.383 1052.58 480.901
202 0 22.1813 11.6314 258 64.6783 1052.19 480.426
203 0 23.405 10.7242 251 63.5259 1052.71 480.773
204 0 23.1761 11.9088 276 61.5906 1053.11 479.931
205 0 22.1126 11.2153 248 64.4597 1052.65 480.968
206 0 23.2203 13.8241 321 58.5732 1053.83 479.259
207 0 23.1805 13.3733 310 58.4032 1053.24 480.616
208 0 17.0611 4.27875 73 50.6301 1052.03 480.466
209 1 75.1994 14.3086 1076 50.2277 1055.55 437.251
210 0 74.3094 11.2906 839 53.3433 1055.81 437.83
211 0 81.3604 13.7536 1119 50.8007 1055.58 436.776
212 0 81.3899 12.3725 1007 52.432 1056.05 436.43
213 0 80.2125 12.5791 1009 52.7037 1056.45 438.096
214 0 80.1171 11.633 932 61.4292 1055.46 355.403
215 1 90.4417 11.1232 1006 54.0765 1055.46 436.616
216 1 50.1674 11.94 599 52.4925 1055.63 456.297
217 0 49.1411 10.5614 519 54.3468 1055.49 452.335
218 0 49.0878 10.2877 505 57.1149 1054.91 398.582
219 0 52.0857 10.7323 559 55.5259 1055.23 448.71
220 0 54.1957 11.5138 624 55.0737 1055.17 448.417
221 0 57.1404 14.4906 828 51.8345 1055.46 449.229
222 0 59.3012 12.8665 763 53.806 1055.38 445.11
223 0 53.1366 8.09235 430 61.1953 1055.27 386.186
224 0 50.0984 12.0164 602 58.2874 1055.59 441.547
225 1 71.4294 9.70189 693 55.2597 1055.59 448.443
226 0 74.2216 11.5196 855 54.6409 1055.39 446.627
227 1 62.074 8.8765 551 60.6824 1055.45 439.76
228 0 60.2599 13.5082 814 56.9779 1055.56 435.152
229 1 72.1432 17.1465 1237 51.0776 1055.54 437.681
230 0 62.1719 12.6906 789 58.2662 1055.42 435.19
231 1 72.0848 12.083 871 57.1837 1055.1 436.622
232 0 72.1045 14.5899 1052 55.749 1056.06 435.388
233 0 73.2027 9.91767 726 61.2576 1055.34 363.262
234 0 80.1425 13.5883 1089 56.0294 1055.99 434.964
235 0 69.1128 10.2731 710 62.231 1056.28 427.98
236 1 82.1292 14.0267 1152 56.204 1055.63 434.627
237 0 73.0735 14.3144 1046 58.5057 1055.62 432.026
238 1 212.629 10.135 2155 63.078 1054.96 387.226
239 0 211.231 8.41259 1777 67.0619 1054.79 370.116
240 1 142.238 13.9344 1982 57.1892 1055.65 412.637
241 0 148.222 14.3501 2127 56.8919 1055.65 409.806
242 0 143.262 12.1456 1740 61.354 1055.19 402.447
243 0 146.475 13.3129 1950 60.8328 1054.86 396.588
244 1 157.177 10.8158 1700 61.7759 1055.14 407.401
245 0 156.32 9.11591 1425 63.4765 1055.11 408.331
246 0 146.208 7.89969 1155 66.0779 1054.81 407.002
247 1 62.1288 12.8443 798 58.6579 1055.41 442.102
248 0 66.059 13.7907 911 57.1131 1055.42 440.215
249 0 68.1184 12.2581 835 57.7389 1054.91 442.117
250 0 67.0614 14.196 952 56.9674 1055.13 441.225
251 0 59.0946 10.5424 623 64.5072 1054.56 376.191
252 1 127.247 12.9905 1653 61.1041 1055 410.189
253 0 131.312 12.832 1685 60.7703 1055.27 413.599
254 1 111.358 17.2775 1924 46.2354 1056.4 457.681
255 1 72.1195 11.8969 858 61.7797 1055.21 436.197
256 0 81.2623 13.7456 1117 58.1791 1055.62 438.375
257 0 86.1148 14.3413 1235 56.9547 1055.39 440.892
258 0 86.0876 12.4757 1074 59.8073 1055.39 437.965
259 0 82.0697 13.6591 1121 60.7627 1055.2 430.358
260 1 41.071 10.2262 420 63.4524 1055.55 452.3
261 0 41.0354 10.43 428 63.0794 1055.56 455.096
262 0 45.0471 13.2306 596 59.9765 1055.79 453.025
263 0 45.024 12.1491 547 61.6874 1056.06 452.344
264 0 47.0327 10.7372 505 63.4297 1055.38 449.568
265 0 47.0902 11.6797 550 63.1182 1055.74 448.182
266 0 55.1922 14.2774 788 57.7462 1055.58 453.685
267 0 57.0808 12.3334 704 59.9886 1055.31 452.634
268 0 50.1296 11.2508 564 63.8369 1055.19 447.833
269 0 53.0543 14.0234 744 60.9261 1055.68 447.915
270 0 57.0553 12.7946 730 61.5973 1055.48 448.445
271 0 55.0671 10.006 551 65.1742 1055.41 448.432
272 0 58.0342 11.924 692 63.7601 1055.72 445.224
273 0 61.1025 12.7818 781 62.9052 1055.57 444.389
274 0 61.1455 11.2355 687 64.4105 1055.19 445.25
275 0 68.0347 13.0375 887 62.1127 1054.9 443.372
276 0 69.1233 12.3547 854 63.0316 1055.28 444.705
277 0 70.0447 13.4057 939 62.393 1055.54 445.502
278 0 73.0323 9.5848 700 65.8586 1055.31 446.047
279 0 76.075 13.066 994 61.8803 1054.84 448.425
280 0 79.1075 11.4401 905 64.3414 1054.79 443.98
281 0 77.0387 9.74834 751 67.1025 1055.12 444.21
282 1 41.1074 12.1146 498 62.6928 1055.33 463.03
283 0 44.0947 11.0444 487 63.9548 1054.89 464.179
284 0 44.0778 10.4588 461 65.128 1054.75 462.015
285 0 48.0749 12.5637 604 62.3742 1054.89 464.566
286 0 48.0723 11.2955 543 63.8692 1054.91 462.133
287 0 50.0955 11.1787 560 64.5268 1054.76 460.612
288 0 48.1232 11.2004 539 64.6883 1054.95 461.495
289 0 54.156 12.8518 696 61.2227 1055.11 462.464
290 0 53.031 12.785 678 62.6785 1054.54 457.785
291 0 54.1273 12.6184 683 62.7467 1054.9 460.242
292 0 54.1396 11.4519 620 64.5855 1055.09 456.453
293 0 61.2135 11.9418 731 62.3776 1054.98 459.012
294 0 62.0924 11.8372 735 62.6762 1054.43 457.66
295 0 64.1036 11.4034 731 63.4131 1054.73 457.899
296 0 63.0568 10.5778 667 64.3793 1055.03 456.534
297 0 68.1412 11.6669 795 62.7673 1055.61 454.481
298 0 70.0933 11.5846 812 62.6133 1056.27 454.655
299 0 69.1002 9.08825 628 65.2787 1055.95 455.229
300 0 72.0767 13.0139 938 61.6962 1055.73 451.988
301 0 76.0355 11.9023 905 61.895 1055.67 454.926
302 0 77.0696 11.6129 895 63.1017 1055.27 449.807
303 0 79.0974 12.5541 993 62.1349 1056.03 445.806
304 0 83.055 11.6188 965 62.8041 1055.7 448.244
305 1 42.0487 10.8921 458 61.9476 1055.57 464.225
306 0 47.1243 10.6315 501 62.489 1055.29 465.641
307 0 46.0681 8.87816 409 63.5037 1055.3 469.919
308 0 49.1012 11.3032 555 62.045 1055.77 461.962
309 0 53.1685 11.3789 605 61.0496 1056.17 465.673
310 0 53.045 11.8201 627 61.1515 1055.89 464.793
311 0 53.1278 10.4465 555 62.9027 1055.51 462.193
312 0 55.014 12.8694 708 60.8319 1055.65 459.233
313 0 58.0813 11.415 663 61.9894 1055.43 459.38
314 0 59.0637 10.294 608 62.9062 1055.79 463.327
315 0 62.1776 14.2495 886 59.5079 1056.25 459.695
316 0 65.0988 12.0432 784 61.6084 1056.23 454.718
317 0 64.1085 11.3246 726 62.8196 1056.24 453.218
318 0 68.1724 12.6444 862 61.8295 1056.25 451.47
319 0 72.1167 10.6494 768 63.7839 1056.26 448.621
320 0 74.1119 11.4287 847 63.3719 1055.95 447.74
321 0 76.1017 11.051 841 64.0214 1055.51 447.966
322 0 79.1138 11.7679 931 63.2256 1055.91 450.864
323 1 43.022 11.8312 509 62.1945 1055.58 468.018
324 0 43.139 12.0772 521 62.3052 1055.46 470.167
325 0 44.1051 12.6063 556 62.2914 1055.77 466.773
326 0 46.2495 12.238 566 63.1095 1055.64 463.2
327 0 46.1059 12.8617 593 62.9747 1056.47 465.545
328 0 46.0742 11.1776 515 65.5262 1056.53 464.775
329 0 48.0219 11.2032 538 65.4331 1056.3 465.658
330 0 53.179 13.8589 737 61.7408 1055.77 463.501
331 0 53.1066 12.0701 641 64.9189 1055.68 461.441
332 0 54.2116 12.3221 668 64.7874 1056.19 459.591
333 0 54.0471 10.9349 591 67.0812 1056.25 461.623
334 0 58.1607 11.5714 673 66.2541 1055.95 457.88
335 0 59.1086 13.3991 792 64.2008 1056.02 461.684
336 0 64.1938 12.6959 815 63.8736 1056.12 461.983
337 0 63.279 12.9743 821 64.944 1056.6 458.032
338 0 66.1622 12.5147 828 65.9988 1056.17 454.455
339 0 68.1093 13.3609 910 65.0791 1056.15 454.475
340 0 69.3978 13.646 947 64.4583 1055.97 455.386
341 0 71.1016 12.3063 875 66.0389 1056.08 455.097
342 1 36.1446 11.454 414 64.8309 1056.43 469.551
343 0 39.115 9.58711 375 67.24 1056.24 468.328
344 0 35.0213 9.25151 324 68.7191 1056.42 468.367
345 0 39.0207 10.2766 401 66.9751 1056.19 467.85
346 0 37.0509 10.8229 401 68.2369 1056.21 466.087
347 0 42.0582 11.0086 463 66.6026 1055.62 464.166
348 0 42.035 9.58724 403 69.3424 1055.46 464.893
349 0 44.3719 10.7726 478 67.7699 1055.65 465.425
350 0 43.0641 10.4728 451 68.7517 1055.35 463.279
351 0 47.0819 13.0623 615 64.9626 1055.29 462.252
352 0 49.1797 11.8138 581 66.3133 1055.12 460.031
353 0 50.0288 13.2524 663 64.5264 1055.32 462.112
354 0 48.1093 10.4761 504 68.8075 1055.56 457.692
355 0 51.0997 12.0549 616 66.6055 1055.71 457.959
356 0 54.0682 10.4683 566 67.7456 1055.44 459.624
357 0 57.1153 14.0943 805 63.0932 1054.93 456.933
358 0 58.1316 10.8375 630 66.619 1055.03 458.462
359 0 59.0979 12.4032 733 65.2387 1055.62 453.038
360 0 61.0675 12.1177 740 65.8108 1055.77 452.93
361 0 65.2491 13.5787 886 63.4774 1054.96 452.889
362 0 66.1722 12.8604 851 64.7791 1054.97 451.296
363 0 69.1851 13.4133 928 64.1552 1055.18 452.744
364 0 72.2532 15.418 1114 62.14 1054.91 451.737
365 0 74.1845 12.1858 904 66.2423 1055.02 453.199
366 1 38.0128 10.628 404 67.0718 1054.78 470.651
367 0 39.0244 13.2481 517 64.5629 1054.43 468.526
368 0 42.1413 12.0309 507 65.3314 1055.37 466.994
369 0 41.1792 12.2635 505 66.2198 1055.31 467.119
370 0 44.1131 12.8307 566 64.5495 1055.56 467.053
371 0 44.0804 11.7513 518 65.4344 1055.41 468.886
372 0 47.347 11.6586 552 66.3859 1055.62 464.553
373 0 46.0555 11.1605 514 67.7763 1056.1 462.261
374 0 49.19 12.9905 639 64.0673 1056.06 463.82
375 0 50.0235 12.5541 628 64.9889 1055.78 460.831
376 0 53.0673 12.682 673 64.2392 1054.96 460.973
377 0 52.0867 11.5193 600 66.81 1055.32 457.457
378 0 54.0791 11.9455 646 65.9412 1055.25 458.522
379 0 58.0753 13.1381 763 63.401 1055.23 457.105
380 0 59.0174 12.7928 755 64.2291 1056.39 455.256
381 0 59.2003 13.0405 772 64.0842 1056.15 456.051
382 0 64.1509 14.0138 899 62.366 1055.74 453.925
383 0 66.0608 11.4743 758 64.8641 1055.91 451.088
384 0 66.0297 11.1314 735 65.1782 1055.96 452.034
385 1 35.0856 10.7167 376 64.4176 1055.33 468.066
386 0 35.1085 12.1053 425 63.2541 1055.29 468.722
387 0 38.0622 11.849 451 63.2506 1054.55 467.053
388 0 38.1114 12.0961 461 62.8959 1054.73 464.69
389 0 40.2684 13.0127 524 61.8855 1055.2 465.513
390 0 40.1203 12.2133 490 63.5714 1054.58 463.433
391 0 41.0765 13.2192 543 62.5525 1055.18 462.945
392 0 44.0747 11.6393 513 64.0292 1055.73 462.347
393 0 45.0216 11.7943 531 63.4407 1055.46 461.379
394 0 46.1079 11.4514 528 63.7803 1054.6 460.748
395 0 50.1381 12.2861 616 62.039 1054.69 460.367
396 0 54.1333 11.2685 610 60.3656 1054.14 463.344
397 0 52.189 10.9027 569 63.833 1054.94 458.112
398 0 52.1375 11.2587 587 63.6031 1055.6 459.216
399 0 55.1229 11.7011 645 62.7023 1055.1 457.065
400 0 57.0935 12.2431 699 62.0229 1055.38 457.793
401 0 56.0879 10.7688 604 64.1623 1055.45 454.947
402 0 60.3397 13.3909 808 60.3441 1055.35 454.922
403 0 61.1121 11.4216 698 62.692 1055.15 453.981
404 0 64.1908 11.201 719 62.5229 1054.76 451.726
405 0 65.2318 10.9762 716 62.6453 1055.01 447.426
406 0 68.0431 11.287 768 62.1172 1055.3 446.255
407 0 74.0841 9.58371 710 63.1493 1055.7 448.023
408 0 72.0756 11.2382 810 62.079 1055.21 448.458
409 1 35.1279 10.8176 380 60.9053 1055.71 465.118
410 0 36.1276 10.6844 386 61 1055.69 466.205
411 0 39.0862 12.3573 483 59.5114 1055.29 461.513
412 0 41.332 10.3552 428 60.8551 1054.99 462.946
413 0 46.265 12.9688 600 57.1317 1054.84 462.018
414 0 48.0839 14.038 675 56.0178 1054.62 462.413
415 0 46.1165 10.3867 479 60.2881 1054.56 460.453
416 0 48.1303 12.2584 590 58.4203 1055.14 458.764
417 0 51.0951 12.0559 616 58.289 1055.26 456.122
418 0 53.1212 13.9869 743 56.4832 1055.32 456.526
419 0 54.298 11.2159 609 58.936 1055.19 456.279
420 0 57.3034 15.2172 872 54.6376 1055.35 453.909
421 0 57.0754 12.4222 709 57.3836 1055.16 455.013
422 0 61.1573 12.7049 777 57.0064 1056.11 453.35
423 0 62.1301 12.1036 752 57.4694 1055.72 453.386
424 0 66.1625 12.5902 833 56.7215 1056.37 452.461
425 0 66.2744 12.5841 834 56.6763 1055.94 450.347
426 0 68.2975 12.4016 847 56.8005 1055.76 449.589
427 0 70.3493 11.9973 844 57.5403 1055.98 448.066
428 0 74.2761 12.3728 919 56.6137 1055.86 449.246
429 0 77.2268 12.7287 983 55.766 1055.46 449.218
430 1 39.1357 14.6414 573 53.4293 1056.19 465.478
431 0 39.0516 11.6257 454 56.0396 1055.74 466.83
432 0 40.1813 14.0613 565 54.5664 1056.04 464.375
433 0 41.3379 11.5874 479 56.7056 1056.06 462.766
434 0 44.1705 13.946 616 54.0195 1056.08 462.326
435 0 47.1622 13.8246 652 53.6212 1055.48 461.739
436 0 47.1183 13.0098 613 54.8238 1055.2 462.176
437 0 47.1016 10.8064 509 57.1415 1054.66 460.925
438 0 53.5272 13.7126 734 53.624 1054.78 460.778
439 0 51.176 11.7242 600 56.4117 1054.78 459.757
440 0 55.1174 10.65 587 57.1721 1054.45 459.714
441 0 56.0971 11.7831 661 56.475 1054.52 456.871
442 0 57.2629 12.2418 701 55.7233 1054.75 455.35
443 0 60.4655 11.9242 721 56.0042 1054.77 456.868
444 0 59.3152 12.0543 715 56.3231 1054.74 455.615
445 0 64.0821 11.142 714 56.444 1054.85 455.704
446 0 64.3356 9.83903 633 57.9921 1055.03 451.156
447 0 68.2035 11.451 781 56.0576 1055.07 450.677
448 0 70.1731 12.6687 889 55.1924 1055.07 451.017
449 0 72.3668 11.4555 829 56.0084 1055.24 450.618
450 0 75.2429 8.57223 645 58.9442 1055.4 447.536
451 0 76.3519 12.4293 949 55.3751 1055.42 446.607
452 1 35.1633 11.5177 405 57.0667 1055.65 464.526
453 0 37.0698 9.57653 355 57.8873 1055.25 467.82
454 0 37.1145 11.1277 413 57.4165 1055.38 463.92
455 0 37.1726 11.0834 412 57.9442 1055.61 463.942
456 0 40.1311 13.8048 554 55.0036 1055.15 463.153
457 0 43.0549 14.377 619 54.2003 1055.2 461.384
458 0 45.073 13.6001 613 54.7879 1054.87 461.63
459 0 47.0403 11.8622 558 56.2294 1054.65 462.341
460 0 48.181 11.4568 552 56.4348 1054.53 461.219
461 0 49.0208 11.5053 564 57.0762 1055.12 458.287
462 0 51.1132 12.756 652 55.7454 1054.99 457.325
463 0 54.1113 11.3655 615 57.0911 1055.15 456.332
464 0 54.0254 12.6792 685 55.7971 1055.46 454.381
465 0 57.1795 11.5951 663 56.8039 1055.33 455.219
466 0 59.1554 13.5575 802 54.7444 1055.95 452.495
467 0 62.1036 12.1249 753 56.2935 1054.81 453.992
468 0 61.0631 11.8238 722 57.0748 1055.15 451.436
469 0 62.177 11.8211 735 57.551 1055.07 449.224
470 0 66.2106 13.8649 918 55.3649 1055.42 450.528
471 0 69.1038 12.0833 835 56.9234 1055.29 448.255
472 0 71.4845 14.017 1002 54.7834 1054.92 447.565
473 0 76.2193 12.1623 927 56.48 1055.75 448.09
474 1 38.3751 8.65143 332 59.4367 1055.29 463.777
475 0 39.1592 11.134 436 56.4931 1055.27 465.897
476 0 46.1167 13.1623 607 54.7446 1055.69 464.076
477 0 42.2813 13.1737 557 56.3627 1055.43 462.731
478 0 48.0895 13.2669 638 55.2038 1055.41 461.552
479 0 49.0806 11.7358 576 56.8108 1055.9 459.835
480 0 51.1683 12.0192 615 56.4537 1055.19 459.675
481 0 54.0838 13.1832 713 55.3787 1055.5 455.377
482 0 53.1033 12.6734 673 56.1664 1054.9 458.403
483 0 55.0413 11.664 642 57.2368 1055.46 455.494
484 0 59.1387 13.8657 820 54.8134 1055.37 455.529
485 0 60.1171 14.0559 845 54.8142 1055.38 454.805
486 0 61.0725 12.9191 789 55.1318 1055.37 456.932
487 0 63.319 12.2712 777 56.4414 1055.16 452.916
488 0 67.0894 11.5816 777 56.7876 1055.23 449.921
489 0 66.1429 10.7343 710 58.1394 1055.67 449.761
490 0 68.1561 10.5053 716 57.986 1055.63 449.25
491 0 73.0947 11.3141 827 57.1499 1056.08 446.129
492 0 75.1421 11.791 886 56.8792 1056.15 445.191
493 1 39.0539 9.93498 388 57.4072 1056.18 465.716
494 0 38.1055 12.8066 488 55.4529 1056.09 464.939
495 0 39.163 12.0267 471 57.1359 1055.73 464.204
496 0 41.1873 10.1488 418 58.6435 1055.8 462.794
497 0 42.1603 13.1166 553 55.9458 1055.53 461.369
498 0 45.1429 11.6962 528 56.8769 1055.42 462.388
499 0 45.0308 11.3478 511 57.9178 1055.61 458.939
500 0 48.2008 13.0496 629 55.806 1055.27 460.1
501 0 48.2051 11.4718 553 57.774 1055.31 461.21
502 0 49.1691 13.0977 644 56.5109 1056.04 458.724
503 0 54.2816 13.6326 740 55.2527 1055.85 458.373
504 0 53.054 10.8569 576 58.092 1055.38 457.372
505 0 54.3227 11.1003 603 57.9469 1055.37 456.443
506 0 57.0997 11.2785 644 58.1522 1054.86 456.961
507 0 60.2203 11.4745 691 57.6556 1055.31 457.255
508 0 63.094 11.1104 701 57.9729 1055.07 453.389
509 0 63.4006 12.9021 818 56.2714 1055.33 453.947
510 0 65.187 11.352 740 57.9081 1055.12 452.816
511 0 68.192 12.7874 872 56.4839 1056.09 448.86
512 0 71.1504 14.3499 1021 54.9628 1055.56 451.696
513 1 32.4039 11.3258 367 57.5259 1055.62 467.725
514 0 39.1176 11.5038 450 56.32 1055.98 467.736
515 0 39.0236 13.3509 521 55.6987 1056.17 467.96
516 0 39.1068 12.8366 502 57.5438 1056.16 464.711
517 0 36.2042 10.7446 389 60.4602 1056.17 464.689
518 0 42.1656 12.0477 508 58.3465 1056.05 462.053
519 0 44.2036 12.8044 566 57.9293 1055.84 461.143
520 0 44.2583 11.1617 494 59.5081 1055.39 460.407
521 0 46.2568 12.1063 560 58.7161 1055.16 460.377
522 0 48.1082 15.1118 727 55.4911 1054.79 458.924
523 0 50.2426 14.1712 712 56.2879 1054.94 460.812
524 0 50.1605 12.2208 613 58.4568 1054.9 456.979
525 0 52.1402 13.713 715 56.9678 1054.77 459.799
526 0 55.075 13.5815 748 56.6711 1054.87 457.695
527 0 55.0536 14.6948 809 56.0062 1055.45 456.357
528 0 57.0316 12.5545 716 57.9092 1055.28 455.257
529 0 60.1591 11.2535 677 58.7578 1055.88 455.35
530 0 60.1063 14.0085 842 56.633 1056.13 450.796
531 0 64.0665 12.3934 794 57.4496 1055.47 451.199
532 0 65.2998 12.6953 829 57.2533 1055.53 452.062
533 0 69.198 13.5842 940 56.5181 1055.85 448.167
534 0 70.2279 13.2284 929 57.3025 1055.75 448.374
535 0 72.2195 11.8389 855 58.6199 1056.28 446.49
536 0 77.0913 14.1131 1088 55.739 1056.16 445.795
537 0 77.2004 12.8756 994 57.2223 1056.24 443.571
538 1 40.1807 10.8759 437 57.6178 1055.8 463.174
539 0 38.048 11.6432 443 57.9436 1055.42 461.298
540 0 43.0512 12.218 526 56.5589 1055.14 459.84
541 0 44.1654 12.9966 574 55.4791 1055.39 460.686
542 0 47.0585 11.0288 519 56.9152 1054.77 458.857
543 0 50.2891 12.4083 624 55.2708 1055.13 457.644
544 0 49.4168 12.4856 617 55.3647 1054.72 457.582
545 0 52.0404 11.5872 603 55.6551 1055 458.512
546 0 54.1955 12.6948 688 54.7093 1054.8 458.516
547 0 57.1771 10.7561 615 56.2667 1055.13 456.298
548 0 59.146 13.678 809 53.843 1055.14 454.843
549 0 59.3093 14.0113 831 53.799 1055.63 452.233
550 0 63.1565 13.997 884 53.0769 1056.13 453.122
551 0 62.4385 14.8306 926 52.9784 1055.53 450.005
552 0 64.0715 12.4236 796 55.549 1055.72 448.785
553 0 68.1636 12.5434 855 55.1649 1055.8 447.382
554 0 70.1356 12.2762 861 55.4355 1055.77 450.573
555 0 72.0643 13.7794 993 53.86 1055.67 449.766
556 0 74.1751 12.6862 941 55.6387 1055.02 446.74
557 1 34.0942 10.2657 350 56.2171 1055.33 464.486
558 0 37.088 11.5671 429 56.2494 1055.23 462.988
559 0 39.0277 9.50606 371 57.9542 1055.74 461.361
560 0 40.1652 12.3241 495 55.198 1056.12 463.39
561 0 43.2385 10.5924 458 56.7271 1055.5 461.548
562 0 44.1334 14.6148 645 53.1147 1055.71 461.826
563 0 46.4051 13.1667 611 54.6792 1055.76 459.19
564 0 49.1305 12.4973 614 54.5375 1055.47 460.383
565 0 49.1599 12.9577 637 54.5024 1055.31 457.38
566 0 47.0676 12.4077 584 55.2568 1055.5 459.639
567 0 51.0642 10.6728 545 56.9688 1055.35 456.536
568 0 50.035 12.1515 608 55.9359 1055.49 457.617
569 0 53.3192 12.472 665 55.197 1055.28 455.438
570 0 55.1983 13.2613 732 54.3675 1054.94 454.742
571 0 56.074 10.1295 568 57.1796 1055.26 454.114
572 0 59.0996 11.8952 703 55.431 1055.52 450.929
573 0 61.067 12.3962 757 54.6962 1055.01 448.929
574 0 64.1703 11.0643 710 55.893 1055.52 447.734
575 0 63.038 8.64558 545 57.655 1055.76 443.428
576 0 69.0904 11.7093 809 55.3523 1055.58 447.46
577 0 73.1047 9.972 729 56.5089 1055.5 449.353
578 0 75.0542 13.2704 996 54.0843 1055.46 445.654
579 0 77.0526 12.7705 984 54.5935 1055.32 444.365
580 1 36.04 12.1532 438 54.137 1055.4 461.998
581 0 37.0276 10.2626 380 55.3263 1054.92 463.121
582 0 41.1235 11.5992 477 53.914 1054.81 464.866
583 0 41.0456 11.2314 461 54.8872 1054.19 461.425
584 0 43.124 10.922 471 54.9703 1054.3 462.159
585 0 44.1299 10.2651 453 55.2671 1054.12 459.494
586 0 45.1391 12.7162 574 53.4111 1054.02 461.247
587 0 46.2312 10.0365 464 55.9052 1054.31 459.575
588 0 51.0487 12.1453 620 53.7968 1054.43 460.59
589 0 50.04 12.2902 615 54.0602 1054.47 457.528
590 0 54.205 12.8586 697 52.7403 1054.69 460.551
591 0 53.1142 11.56 614 54.4984 1054.53 458.378
592 0 55.0195 13.3771 736 53.2976 1054.98 454.859
593 0 56.0382 8.51206 477 56.5556 1054.73 456.937
594 0 59.1727 12.0495 713 54.345 1055.22 451.149
595 0 61.4013 10.6512 654 55.2171 1054.99 451.084
596 1 26.0687 11.93 311 53.8167 1055.02 466.99
597 0 29.0408 11.1912 325 54.2615 1054.9 465.929
598 0 30.0352 11.0204 331 54.4592 1054.6 466.852
599 0 29.2033 7.91005 231 56.4762 1054.59 467.654
600 0 32.041 11.4853 368 53.7527 1055.14 466.723
601 0 32.0221 9.64959 309 55.2589 1055.33 464.987
602 0 34.0377 13.0737 445 52.0652 1055.04 463.413
603 0 35.121 9.45303 332 54.8343 1054.54 463.422
604 0 35.052 7.70284 270 56.4963 1054.56 463.619
605 0 38.0436 13.248 504 51.746 1054.49 466.202
606 0 37.0322 10.0723 373 54.9812 1054.99 461.429
607 0 37.0811 8.44095 313 56.7093 1054.46 460.102
608 0 36.0506 7.93329 286 57.3287 1054.96 459.248
609 0 43.1186 11.2017 483 54.3333 1054.83 458.203
610 0 41.0506 12.0096 493 54.0609 1054.71 458.736
611 0 45.0639 10.7403 484 54.4545 1055.01 457.686
612 0 42.0419 9.68082 407 55.6953 1054.13 456.371
613 0 44.1723 9.14599 404 56.1114 1054.02 456.505
614 0 49.0783 8.27249 406 56.202 1054.34 455.672
615 0 53.151 14.7693 785 51.3847 1054.21 456.743
616 0 55.1329 10.6289 586 54.7389 1054.32 454.621
617 0 55.0817 10.8385 597 54.7236 1053.76 454.295
618 0 57.1847 9.21575 527 55.8046 1053.6 454.778
619 0 58.1072 11.3239 658 55.0137 1053.58 452.875
620 0 62.0861 11.0009 683 54.8214 1053.66 449.395
621 0 63.2039 10.743 679 55.6171 1053.91 449.85
622 0 62.249 8.61057 536 57.3657 1053.82 449.228
623 0 67.1049 10.8785 730 55.9836 1053.88 447.105
624 1 36.1015 7.7005 278 56.3273 1054.49 467.507
625 0 38.1053 13.4889 514 51.9708 1054.15 466.07
626 0 38.0176 11.5999 441 53.805 1054.52 465.134
627 0 37.0563 9.20222 341 55.5924 1054.21 466.543
628 0 39.1316 9.91526 388 55.7577 1054.52 464.18
629 0 41.1206 8.17109 336 56.6667 1054.03 464.81
630 0 44.0265 11.4931 506 54.0652 1054.31 462.767
631 0 43.3184 12.2811 532 54.0451 1054.03 462.115
632 0 44.0296 9.42547 415 55.8964 1054.42 460.051
633 0 47.04 10.1616 478 55.2887 1054.41 460.741
634 0 48.0597 12.2764 590 53.8 1054.53 460.966
635 0 48.0308 12.6794 609 53.8161 1054.72 457.233
636 0 53.1533 14.1854 754 52.695 1054.53 460.524
637 0 51.0728 10.9452 559 55.2343 1054.82 458.428
638 0 57.0897 14.7137 840 52.094 1055.06 458.149
639 0 58.0645 12.6067 732 54.3648 1054.82 456.846
640 0 60.1057 11.0971 667 55.7046 1054.9 455.289
641 0 60.1451 11.0899 667 55.9655 1054.82 454.903
642 0 63.1343 11.8953 751 55.739 1054.78 452.87
643 0 67.07 11.6595 782 55.8261 1054.58 454.055
644 0 66.2627 10.2169 677 57.5465 1054.53 453.696
645 0 68.1742 8.22892 561 59.3529 1054.64 455.02
646 1 33.2166 11.4702 381 56.2047 1054.24 468.982
647 0 35.1291 10.561 371 56.9677 1054.74 470
648 0 36.0721 12.0315 434 55.9562 1055.05 468.217
649 0 39.0821 12.026 470 56.1468 1055.01 467.149
650 0 39.0681 12.4142 485 56.3753 1054.54 467.095
651 0 40.1287 10.3666 416 58.7981 1054.69 467.029
652 0 43.0222 11.6219 500 56.816 1053.98 468.88
653 0 45.117 13.9194 628 55.336 1053.65 465.89
654 0 44.0281 13.7866 607 56.7891 1053.8 464.394
655 0 47.0896 10.1933 480 59.4646 1054.36 463.004
656 0 48.1752 11.9148 574 58.6707 1054.56 462.99
657 0 49.0368 12.8271 629 58.194 1054.52 461.545
658 0 52.0776 11.4061 594 58.8754 1054.49 461.244
659 0 54.0598 12.6527 684 58.2617 1054.7 460.425
660 0 55.0621 13.5847 748 57.7767 1054.19 457.253
661 0 55.0748 11.8748 654 59.6483 1054.56 457.93
662 0 59.0756 12.1031 715 59.8294 1054.76 454.622
663 0 59.1743 11.1535 660 60.8667 1054.57 452.332
664 0 62.1372 10.5734 657 61.3318 1054.66 452.164
665 0 64.1763 11.3438 728 61.4808 1054.83 447.732
666 0 67.2095 11.2484 756 61.3796 1054.84 452.242
667 0 69.0742 11.1764 772 61.9793 1054.44 451.317
668 1 35.0504 10.8701 381 60.294 1054.58 465.454
669 0 37.0365 11.9072 441 59.356 1054.15 463.98
670 0 38.0372 12.146 462 58.8788 1053.63 464.615
671 0 40.0359 10.6404 426 60.8685 1054.31 461.641
672 0 42.097 10.1908 429 61.3497 1053.86 462.909
673 0 42.0264 11.4928 483 60.5424 1053.68 456.979
674 0 45.1102 11.4165 515 59.9631 1053.77 462
675 0 52.2578 14.3902 752 44.6888 1053.42 459.64
676 0 48.0449 11.3227 544 59.9118 1054.75 461.651
677 0 52.0364 12.9332 673 58.6746 1054.01 457.679
678 0 54.0192 10.9591 592 60.3345 1054.31 457.856
679 0 56.0337 13.2242 741 58.1714 1054.58 456.632
680 0 57.1102 12.3971 708 59.1356 1054.46 456.511
681 0 60.0973 11.2151 674 60.138 1054.37 455.076
682 0 63.0638 13.8907 876 57.1199 1054.23 453.266
683 0 63.056 13.4008 845 57.8982 1054.23 454.85
684 0 66.0874 11.0914 733 60.2169 1054.01 450.37
685 0 68.1453 12.5467 855 59.462 1054.13 447.812
686 0 70.0446 11.0929 777 60.5586 1054.21 448.402
687 0 76.0346 12.2444 931 59.0999 1054.64 448.439
688 1 37.0491 9.06905 336 60.7917 1054.8 466.006
689 0 39.1084 9.6143 376 60.0293 1054.54 464.58
690 0 40.0607 8.51207 341 60.5015 1054.78 466.848
691 0 42.0274 10.3028 433 60.0808 1054.86 462.261
692 0 44.091 11.7711 519 58.4432 1054.61 462.391
693 0 44.0366 11.7857 519 58.2543 1054.92 461.908
694 0 47.0855 10.98 517 58.8801 1055.01 459.251
695 0 50.0664 11.4847 575 57.9165 1054 460.111
696 0 50.1032 12.6738 635 56.8835 1054.04 458.392
697 0 52.1155 12.2229 637 57.427 1054.38 459.455
698 0 53.0275 12.5595 666 57.2793 1054.32 456.556
699 0 55.1027 11.1065 612 58.1029 1054.37 457.742
700 0 56.0351 8.70883 488 60.9385 1054.36 456.859
701 0 57.0166 11.0143 628 58.9825 1054.23 456.022
702 0 61.1666 9.98912 611 59.8462 1054.41 450.917
703 0 64.0184 10.7313 687 59.5357 1054.33 451.528
704 0 66.075 13.1215 867 57.3114 1054.02 453.127
705 0 70.0832 11.0726 776 58.9691 1053.65 449.777
706 0 72.2726 10.6679 771 59.0908 1055.47 447.345
707 0 76.0838 10.9747 835 58.9365 1055.44 447.335
708 1 36.0484 10.4304 376 57.3005 1055.5 465.165
709 0 38.0314 11.7534 447 56.3579 1055.5 464.018
710 0 41.0787 10.1026 415 57.8145 1055.26 462.911
711 0 41.1097 9.90035 407 56.8428 1055.02 460.791
712 0 40.0715 9.30836 373 57.1072 1054.79 462.882
713 0 42.1049 12.6351 532 54.6316 1054.99 458.72
714 0 45.0479 12.6754 571 54.3608 1054.84 459.608
715 0 46.0212 11.234 517 55.6441 1055.08 457.147
716 0 46.0634 13.3078 613 54.3622 1055.15 457.374
717 0 47.2493 9.96839 471 57.3163 1054.93 456.724
718 0 49.0882 11.021 541 56.122 1054.81 456.921
719 0 50.0958 11.2784 565 56.2035 1054.38 455.267
720 0 52.1006 11.3818 593 56.0185 1054.49 454.803
721 0 50.072 11.104 556 57.6745 1054.21 454.655
722 0 54.16 12.8877 698 55.5258 1054.87 452.424
723 0 55.0741 10.7128 590 57.6763 1055.32 455.581
724 0 56.0904 11.3388 636 57.6777 1054.33 454.737
725 0 59.0371 12.2635 724 56.5138 1053.54 451.71
726 0 60.1579 12.6168 759 56.2661 1054.52 450.914
727 0 62.1516 11.5524 718 57.3036 1054.25 451.364
728 1 31.0445 10.3078 320 57.4281 1054.58 464.281
729 0 34.2905 9.41952 323 56.192 1054.28 468.867
730 0 35.0696 11.3489 398 56.4824 1054.54 464.02
731 0 33.0225 10.0235 331 58.2749 1054.9 464.804
732 0 37.0474 10.2841 381 57.3097 1054.85 462.094
733 0 38.0325 10.5699 402 56.8532 1055.32 463.53
734 0 39.0297 9.55683 373 58.3727 1055.21 461.836
735 0 41.1004 11.8734 488 56.0676 1055.45 459.906
736 0 39.1077 8.94965 350 58.6257 1055.51 459.083
737 0 45.027 10.8824 490 56.4816 1055.27 457.424
738 0 45.0347 11.7909 531 55.8305 1055.56 454.388
739 0 48.1755 10.1504 489 57.2086 1055.56 456.712
740 0 48.0291 10.4728 503 57.2903 1055.42 455.95
741 0 51.1489 11.4763 587 55.9676 1055.13 454.716
742 0 51.0384 11.5795 591 56.4298 1055.21 453.736
743 0 54.0702 10.8008 584 56.9452 1055.47 453.664
744 0 56.0421 11.5627 648 55.8472 1055.86 456.293
745 0 56.1411 9.56519 537 58.3929 1056.09 450.294
746 0 60.0763 11.6186 698 56.2407 1055.98 451.179
747 0 63.0716 11.9071 751 56.3901 1055.74 450.546
748 0 65.0904 12.6747 825 55.6945 1055.5 449.418
749 0 66.0896 9.68382 640 58.9125 1054.72 448.341
750 0 68.1164 11.3776 775 57.2968 1055.29 447.897
751 0 73.2032 10.3821 760 57.9553 1055.4 446.539
752 0 76.1129 11.01 838 57.4726 1055.64 445.076
753 0 79.4758 12.6076 1002 56.5619 1055.31 441.111
754 1 41.0962 11.2176 461 57.0672 1055.43 461.711
755 0 41.1003 11.3868 468 57.1218 1054.75 462.985
756 0 42.0686 10.7206 451 59.102 1054.78 460.009
757 0 43.2351 10.9171 472 58.7733 1055.15 458.653
758 0 44.0477 9.67133 426 60.2793 1054.46 455.357
759 0 46.2074 10.4529 483 59.1491 1054.32 457.188
760 0 50.155 11.9031 597 57.3769 1054.68 458.605
761 0 50.0895 10.7008 536 58.8526 1055.63 456.185
762 0 54.0932 13.3289 721 56.2594 1054.98 456.032
763 0 54.063 10.0438 543 57.6611 1054.66 456.547
764 0 58.2533 12.48 727 55.1829 1054.26 455.443
765 0 58.1246 11.8366 688 56.4767 1054.12 455.004
766 0 60.0654 11.9536 718 56.4457 1054.78 453.185
767 0 63.2358 12.5562 794 55.4395 1054.84 453.121
768 0 64.1294 12.849 824 55.6226 1054.18 449.584
769 0 69.1421 12.7997 885 55.409 1054.45 452
770 0 70.1991 11.8093 829 56.421 1054.75 448.42
771 0 73.1594 11.0991 812 56.7562 1054.54 447.095
772 0 77.2874 12.6799 980 55.3194 1054.34 448.346
773 0 80.1814 13.4071 1075 54.6558 1054.19 447.141
774 0 81.1477 11.3497 921 56.6938 1054.29 446.236
775 1 39.1253 11.2204 439 55.9271 1054.62 464.312
776 0 43.1385 11.0342 476 56.2185 1054.64 463.25
777 0 44.2771 11.428 506 56.0553 1054.62 462.271
778 0 49.0279 12.0544 591 54.9949 1054.62 462.751
779 0 49.0807 12.5711 617 55.0032 1054.88 459.912
780 0 50.0582 13.9837 700 53.97 1054.49 460.794
781 0 52.0609 13.2345 689 54.7954 1054.67 458.408
782 0 54.0291 13.0485 705 55.1986 1054.82 456.372
783 0 54.1468 11.4134 618 56.6084 1054.26 456.634
784 0 56.0642 12.5927 706 55.9377 1053.98 455.038
785 0 59.0901 13.8433 818 54.8582 1053.96 453.248
786 0 60.0666 12.4861 750 56.096 1053.99 452.888
787 0 62.0854 13.5781 843 55.1969 1054.49 452.841
788 0 68.1009 12.9661 883 55.3284 1053.4 449.949
789 0 71.6986 12.5525 900 55.5267 1054.27 449.762
790 0 73.3269 13.8148 1013 54.4936 1054.21 445.08
791 0 75.1225 13.4314 1009 54.7532 1054.01 446.957
792 0 77.188 13.655 1054 54.8321 1053.36 446.646
793 0 78.1769 14.7614 1154 54.2366 1054.24 444.438
794 0 84.1194 12.8746 1083 56.0563 1053.7 442.623
795 0 87.1527 12.5297 1092 56.7088 1054.08 440.801
796 0 90.1654 12.954 1168 56.5813 1053.43 439.823
797 1 45.1392 11.4092 515 56.0796 1053.47 460.482
798 0 47.1586 11.3659 536 56.416 1053.15 460.882
799 0 45.2094 11.6569 527 57.8292 1053.7 458.011
800 0 48.2994 12.1741 588 56.7126 1054.4 459.748
801 0 52.2562 14.2949 747 54.6345 1054.47 458.776
802 0 51.0539 11.7131 598 57.1605 1055.03 460.264
803 0 53.1203 14.5142 771 55.4384 1054.32 457.07
804 0 58.4855 14.2429 833 54.4646 1054.5 455.102
805 0 57.2656 13.6906 784 56.2372 1054.16 453.842
806 0 60.1302 13.0217 783 56.6437 1053.95 452.815
807 0 63.0732 13.413 846 56.3345 1054.18 453.087
808 0 66.1913 14.443 956 54.9728 1054.33 454.863
809 0 69.1393 13.3788 925 55.9286 1054.44 452.734
810 0 68.1627 12.9543 883 57.3341 1054.3 451.052
811 0 72.3519 14.4848 1048 56.6059 1054.83 450.217
812 0 75.0687 13.9472 1047 57.2646 1055.51 445.464
813 0 78.2687 12.7382 997 58.2608 1055.36 446.623
814 0 76.0912 10.264 781 61.9168 1054.82 442.085
815 0 84.306 13.5222 1140 57.9474 1054.09 442.047
816 0 84.19 13.1726 1109 59.0974 1054.02 441.003
817 1 42.3053 10.5188 445 59.1888 1053.79 464.238
818 0 45.1042 12.4157 560 58.2179 1054.24 462.079
819 0 49.1542 11.291 555 58.6288 1053.78 461.159
820 0 50.0671 14.5804 730 55.9671 1054.44 460.901
821 0 51.2758 15.6214 801 55.382 1054.43 459.129
822 0 52.3655 12.2409 641 58.975 1054.87 455.663
823 0 55.2463 13.5032 746 56.1743 1054.41 459.712
824 0 58.4059 12.67 740 57.3689 1054.94 457.345
825 0 59.1173 11.6886 691 58.6165 1054.84 455.687
826 0 59.3299 11.0905 658 59.772 1054.76 453.143
827 0 61.2104 13.4944 826 57.2663 1054.68 453.591
828 0 67.3651 13.1077 883 56.9185 1054.5 451.086
829 0 67.1441 13.1508 883 57.5062 1054.42 450.592
830 0 68.1654 11.7655 802 59.1895 1054.45 449.956
831 0 69.1953 10.1452 702 60.8476 1054.8 448.593
832 0 73.1253 13.2923 972 57.9558 1054.75 445.133
833 0 74.3711 12.1284 902 59.0643 1055.39 449.367
834 0 78.4551 13.7148 1076 57.6914 1054.83 446.27
835 0 81.3406 12.7243 1035 59.1024 1054.59 442.824
836 0 83.3465 12.43 1036 59.2452 1054.42 443.002
837 0 84.3855 11.9215 1006 60.3131 1054.3 439.477
838 1 37.1552 10.5773 393 56.626 1054.39 467.438
839 0 37.398 12.6477 473 56.7209 1054.38 465.004
840 0 37.1833 10.381 386 59.2927 1054.26 464.14
841 0 38.2175 14.339 548 56.4106 1054.2 462.301
842 0 37.1574 11.9492 444 58.8333 1054.78 465.588
843 0 39.4631 11.7071 462 59.5801 1055.21 465.909
844 0 40.1399 12.9049 518 57.5695 1055.02 467.61
845 0 40.1287 12.3602 496 59.5524 1055.05 465.819
846 0 41.4241 11.5392 478 60.6527 1055.18 465.362
847 0 43.1431 12.4238 536 60.0019 1054.33 464.149
848 0 43.2787 10.675 462 62.0996 1054.56 463.364
849 0 45.1271 11.7224 529 60.7524 1054.49 464.026
850 0 44.2191 11.8727 525 61.1029 1054.29 461.987
851 0 46.0558 10.6827 492 61.9187 1054.35 463.935
852 0 46.3758 11.4284 530 62.366 1054.37 462.872
853 0 48.1191 10.9936 529 62.31 1054.69 463.28
854 0 47.2256 11.5192 544 62.1875 1054.3 463.312
855 0 50.3839 14.7865 745 58.5812 1054.47 462.388
856 0 48.2112 11.9059 574 62.1916 1053.9 461.375
857 0 50.0559 11.627 582 62.9845 1054.46 459.703
858 0 50.2758 11.6756 587 63.247 1054.76 459.608
859 0 49.5167 9.24941 458 65.4782 1054.81 461.07
860 0 49.0767 10.942 537 64.8883 1055.22 458.676
861 0 49.0951 11.3046 555 64.7658 1054.77 457
862 0 51.1712 11.6472 596 64.4211 1055.05 458.263
863 0 48.0369 11.8451 569 65.0246 1054.63 456.97
864 0 50.0858 11.3605 569 64.9561 1055.26 459.144
865 0 53.0452 9.65214 512 66.6992 1056.48 457.902
866 0 50.0291 8.29517 415 69.7711 1056.31 455.627
867 0 51.0446 12.3226 629 64.9603 1055.96 456.111
868 0 53.178 11.2829 600 66.99 1055.06 453.065
869 0 55.0637 9.89763 545 67.4477 1055.53 457.435
870 0 55.1002 9.5281 525 68.0667 1055.31 455.709
871 0 52.2521 11.2149 586 67.1195 1054.92 454.664
872 0 55.179 11.2905 623 67.2745 1054.62 453.164
873 0 52.091 9.23384 481 69.4137 1054.58 455.834
874 0 55.103 10.0539 554 69.1137 1053.95 453.738
875 0 54.1119 9.09227 492 70.3333 1053.94 454.041
876 0 55.1299 10.9015 601 69.3544 1054.02 450.982
877 0 56.1106 9.17831 515 70.9922 1054.39 450.672
878 0 56.162 10.4875 589 69.163 1054.29 448.998
879 0 56.0657 9.86342 553 70.4738 1054.58 449.248
880 0 59.1172 9.87868 584 68.214 1055.15 453.64
881 0 60.1514 11.3879 685 67.7489 1054.62 451.331
