time division length width area intensity CMx CMy
0 0 44.1112 10.6776 471 56.1189 1029.76 518.136
1 0 45.1515 11.694 528 56.1705 1029.42 516.17
2 0 43.1186 10.4363 450 57.2689 1029.86 516.782
3 0 47.038 12.7131 598 54.3746 1029.4 515.796
4 0 48.0625 11.4851 552 55.1775 1028.53 516.902
5 0 49.0657 11.6171 570 54.8596 1027.65 515.94
6 0 48.0468 10.8228 520 56.3654 1028.52 516.202
7 0 51.1365 11.5182 589 54.9932 1028.65 517.674
8 0 48.1934 9.31662 449 57.9399 1028.45 517.379
9 0 48.1676 11.7299 565 56.0956 1028.2 515.129
10 0 51.0373 10.5217 537 55.9553 1027.98 519.03
11 0 53.1796 10.9817 584 56.0257 1027.04 516.599
12 0 53.1172 12.1618 646 54.8824 1027.8 517.308
13 0 54.1032 9.37098 507 58.0394 1028.21 514.751
14 0 55.0794 9.85849 543 58.1381 1027.6 514.858
15 0 58.0425 11.2504 653 56.6784 1028.12 514.818
16 0 55.0431 10.4645 576 58.0035 1028.85 513.734
17 0 61.0508 12.5961 769 55.6294 1027.56 512.583
18 0 61.0508 12.6452 772 120.777 1026.58 512.65
19 1 138.272 13.0395 1803 55.8547 1027.7 479.984
20 1 65.301 11.0565 722 57.7618 1027.72 511.45
21 0 67.1725 11.9692 804 57.0597 1027.71 510.624
22 0 68.0723 12.4133 845 57.1077 1027.53 509.036
23 0 70.1934 10.6848 750 59.068 1027.37 511.771
24 1 36.0147 11.3009 407 58.1351 1027.48 525.292
25 0 37.0602 11.8726 440 58.1045 1027.28 522.968
26 0 37.0304 10.7749 399 60.4486 1027.74 523.008
27 0 40.0539 11.0351 442 60.3303 1027.01 522.149
28 0 38.0547 10.5638 402 61.2811 1027.71 523.595
29 0 38.0534 10.4064 396 147.101 1027.73 523.626
30 0 44.1027 12.7883 564 59.9911 1028.33 519.629
31 0 43.0132 11.3221 487 61.8357 1028.17 522.058
32 0 45.0119 11.6858 526 61.8802 1028.2 520.544
33 0 47.0312 12.5661 591 60.5161 1027.88 520.755
34 0 48.041 12.6559 608 62.176 1027.25 517.002
35 0 50.1004 12.0758 605 62.3207 1028.02 518.164
36 0 51.0256 13.2091 674 61.9555 1028.64 515.828
37 0 51.2051 9.97948 511 66.4364 1028.28 517.384
38 0 55.0329 12.3381 679 64.1031 1028.65 516.159
39 0 56.1003 11.3725 638 65.7257 1028.81 515.027
40 0 57.0446 11.6225 663 66.0498 1029.4 515.321
41 0 57.0677 12.7743 729 65.5034 1028.85 513.569
42 0 61.1574 12.3779 757 66.2708 1028.25 512.952
43 0 64.0644 13.5176 866 64.2552 1028.92 511.027
44 0 66.0537 12.1265 801 66.5918 1028.55 511.88
45 1 32.025 9.92975 318 68.9308 1028.91 525.05
46 0 35.0066 11.5978 406 67.5197 1028.87 524.005
47 0 35.0148 10.9382 383 68.6762 1028.57 524.133
48 0 38.0354 12.2254 465 66.757 1028.53 523.955
49 0 40.0275 12.8162 513 65.9181 1029.13 524
50 0 41.051 12.6672 520 66.8538 1028.61 523.381
51 0 41.0175 11.9949 492 67.6992 1028.88 523.789
52 0 42.1001 12.5178 527 67.7704 1029.06 521.343
53 0 42.0372 10.8713 457 70.9694 1029.18 521.602
54 0 44.0351 10.696 471 70.5732 1029.22 520.945
55 0 46.055 12.1159 558 69.4588 1028.9 519.91
56 0 47.0263 13.3755 629 68.0366 1028.8 519.464
57 0 47.053 11.859 558 70.9373 1029.64 518.504
58 0 49.0282 11.7075 574 70.5732 1030.48 517.65
59 0 52.0587 12.9853 676 68.571 1029.58 516.719
60 0 54.022 13.1798 712 68.552 1029.82 515.045
61 0 53.0237 12.2775 651 70.2872 1030.15 514.502
62 0 56.0756 12.9111 724 68.4738 1029.12 515.891
63 0 58.0702 13.1565 764 69.2016 1028.98 512.047
64 0 60.0294 12.4273 746 69.5027 1029.64 512.992
65 0 60.0393 11.7923 708 71.589 1030.3 509.442
66 0 65.163 12.6299 823 70.192 1029.77 507.782
67 0 68.0766 12.2509 834 70.187 1030.25 508.255
68 0 70.0314 12.7371 892 69.6726 1029.39 507.735
69 0 73.0533 12.2103 892 70.5751 1028.94 507.636
70 0 74.1196 12.5878 933 70.328 1029.14 504.445
71 1 38.0155 10.7588 409 69.5819 1028.54 522.885
72 0 39.0506 10.4992 410 71.1634 1028.87 521.754
73 0 40.0239 11.5181 461 69.3536 1028.65 521.072
74 0 40.0736 10.4308 418 71.4569 1028.71 520.873
75 0 42.041 10.5849 445 71 1029.54 520.831
76 0 44.0472 12.4185 547 68.6819 1029.74 517.812
77 0 45.0503 11.92 537 68.9721 1029.05 518.164
78 0 46.1497 11.636 537 69.3873 1029.74 519.134
79 0 48.0543 11.487 552 70.2228 1029.74 515.332
80 0 50.0372 11.3915 570 69.7246 1029.46 515.723
81 0 50.046 13.4676 674 66.7552 1029.03 515.861
82 0 52.0327 12.2039 635 67.915 1029.65 515.18
83 0 54.0819 11.3901 616 69.2273 1029.4 514.013
84 0 55.0326 11.793 649 68.6317 1029.22 515.034
85 0 56.043 11.3841 638 68.8495 1029.78 514.558
86 0 58.0387 12.6467 734 67.6294 1030.07 510.598
87 0 62.0799 11.5496 717 68.2218 1029.91 510.668
88 0 62.0289 11.8977 738 67.5163 1029.92 509.489
89 0 64.1281 11.7109 751 67.719 1029.93 508.461
90 0 66.0702 11.2305 742 67.5553 1030.18 508.908
91 0 70.0916 12.5407 879 66.4414 1029.99 504.892
92 0 72.0384 12.6322 910 65.4824 1029.83 505.614
93 0 73.0947 11.4235 835 67.7988 1029.13 501.46
94 0 77.1216 12.6035 972 65.751 1028.87 501.294
95 0 79.1486 12.0154 951 66.1314 1028.95 501.165
96 1 39.0116 9.99702 390 66.5462 1028.88 519.756
97 0 43.0293 9.52839 410 65.9293 1029.18 520.385
98 0 44.0984 10.5219 464 64.8664 1029.09 520.692
99 0 44.092 8.91319 393 67.8448 1028.89 518.445
100 0 46.0275 11.4714 528 64.1117 1029.14 516.506
101 0 48.093 10.8332 521 65.142 1029.42 514.987
102 0 47.0584 10.4763 493 66.359 1029.33 514.083
103 0 51.0196 12.1914 622 63.5241 1029.21 513.368
104 0 52.0557 11.9679 623 63.61 1029.64 511.6
105 0 54.1207 11.733 635 63.5055 1030.27 511.131
106 0 54.1692 11.3902 617 63.9011 1028.9 511.415
107 0 56.0815 10.4847 588 65.2177 1029.48 510.605
108 0 59.0796 12.4916 738 57.1274 1029.42 511.127
109 0 59.1326 9.01364 533 66.7992 1029.31 506.994
110 0 61.1103 9.75286 596 65.8641 1029.72 507.886
111 0 64.073 10.6441 682 64.5938 1029.21 503.749
112 0 64.0693 10.7852 691 65.0579 1029.56 502.078
113 0 67.0691 10.5116 705 64.8823 1029.46 502.294
114 0 70.2011 10.997 772 63.9469 1029.18 502.028
115 0 72.0805 10.9738 791 63.9431 1030.07 504.809
116 0 75.1312 10.5016 789 65.2129 1029.78 500.354
117 0 76.2535 9.31104 710 66.7648 1029.48 500.016
118 0 77.1628 10.8083 834 65.0024 1029.66 500.499
119 1 41.0891 9.9783 410 64.6951 1029.19 518.385
120 0 41.047 10.3784 426 63.5141 1029.04 519.3
121 0 43.1126 10.1594 438 64.4954 1028.97 516.477
122 0 45.0532 8.96717 404 64.9332 1029.23 519.614
123 0 48.0644 11.0893 533 63.045 1029.31 514.054
124 0 50.0747 13.0804 655 60.0947 1029.36 515.427
125 0 51.1562 10.6341 544 63.171 1028.27 515.068
126 0 51.0804 9.43611 482 65.527 1027.89 512.282
127 0 52.0212 9.91903 516 64.3256 1028.62 512.585
128 0 56.0498 11.9001 667 61.8006 1030.1 511.064
129 0 56.0693 11.682 655 62.3389 1030.18 511.379
130 0 58.0696 10.7974 627 63.571 1029.48 507.821
131 0 59.1119 11.1314 658 62.7827 1029.06 509.5
132 0 61.1214 10.3728 634 63.8281 1029.42 508.036
133 0 63.1088 11.7575 742 62.0647 1029.85 507.883
134 0 65.1758 11.3386 739 62.4817 1029.95 508.954
135 0 67.0588 11.736 787 61.357 1029.87 507.591
136 0 67.1041 13.9783 938 59.4552 1029.98 501.913
137 0 68.0477 10.8159 736 62.5706 1029.54 503.851
138 0 73.1805 12.2574 897 60.1104 1029.24 502.206
139 0 74.0753 12.5143 927 60.1758 1029.42 500.168
140 0 76.1904 11.6944 891 61.1156 1030.04 500.843
141 0 79.0651 11.6739 923 61.195 1029.81 499.348
142 0 82.1197 11.2397 923 61.4377 1030.23 496.061
143 1 39.0583 9.54983 373 61.6247 1029.36 516.906
144 0 42.0325 10.0398 422 60.7938 1030.05 516.706
145 0 43.0661 11.8655 511 58.9237 1029.63 516.362
146 0 44.0303 11.265 496 59.6472 1029.59 515.294
147 0 46.0298 12.2095 562 58.9342 1029.31 514.996
148 0 47.0993 10.8494 511 61.1448 1029.27 515.119
149 0 46.1061 10.2806 474 62.5169 1028.94 513.5
150 0 49.048 12.498 613 60.0897 1029.62 512.369
151 0 48.0302 9.99372 480 63.9125 1029.52 512.129
152 0 51.0352 10.7965 551 62.8784 1029.36 511.047
153 0 50.085 11.1211 557 62.8384 1029.25 511.312
154 0 54.0869 11.9807 648 61.1096 1030.2 509.636
155 0 54.0338 10.2158 552 63.4203 1029.78 510.868
156 0 57.1131 12.0113 686 60.551 1030.24 509.21
157 0 57.0582 9.95476 568 63.0211 1029.15 508.621
158 0 57.0784 11.528 658 61.7933 1029.75 506.283
159 0 57.215 8.68653 497 64.4688 1029.46 502.101
160 0 55.0528 8.53725 470 65.2085 1029.38 502.706
161 0 60.151 10.2243 615 62.6683 1029.35 498.241
162 0 65.0965 9.96981 649 63.0185 1029.32 501.247
163 0 67.0667 10.7058 718 61.9526 1029.56 499.698
164 0 68.1013 9.80891 668 62.8578 1028.81 497.713
165 0 71.1604 10.6379 757 61.9392 1029.79 495.184
166 0 73.0362 10.1593 742 62.4097 1029.96 494.942
167 0 74.2921 11.1183 826 61.8547 1029.35 492.55
168 0 76.1156 10.5629 804 62.9963 1029.7 494.714
169 0 80.1 10.3745 831 61.8833 1029.22 489.099
170 1 43.1261 10.2026 440 62.2114 1029.74 515.293
171 0 45.0403 10.6571 480 61.5521 1029.31 514.392
172 0 46.0125 9.95383 458 63.2052 1029.77 513.721
173 0 48.0165 11.4128 548 61.4489 1029.45 510.599
174 0 48.028 10.0983 485 63.0495 1029.74 513.252
175 0 50.0474 11.3093 566 61.9046 1029.36 511.463
176 0 53.1898 10.7163 570 61.9263 1029.32 511.793
177 0 55.0394 11.1738 615 61.5285 1029.11 510.137
178 0 56.0808 11.2516 631 61.2758 1029.44 509.865
179 0 55.1179 10.9583 604 62.5662 1030.37 507.541
180 0 59.0538 11.2779 666 61.4234 1030.47 508.449
181 0 60.0753 12.734 765 59.7987 1030.46 505.966
182 0 62.0896 11.5317 716 61.2989 1030.2 504.352
183 0 63.0506 12.4662 786 60.402 1029.6 506.543
184 0 65.0552 12.7123 827 60.2044 1029.28 503.871
185 0 69.0666 13.5811 938 58.807 1028.82 504.891
186 0 69.0956 12.3452 853 60.5416 1028.14 502.995
187 0 73.0669 11.4826 839 60.4589 1028.08 503.932
188 0 75.1371 11.7518 883 60.2673 1027.64 503.331
189 0 75.0794 11.2015 841 61.824 1028.03 498.392
190 0 78.1155 11.547 902 60.7406 1027.8 497.563
191 0 80.097 11.124 891 61.6532 1027.3 498.047
192 0 82.0778 11.416 937 60.8794 1027.64 500.1
193 0 87.369 12.9909 1135 59.363 1027.41 496.648
194 0 87.1541 10.4872 914 61.965 1027.28 498.756
195 1 47.0285 11.5037 541 59.6599 1026.41 517.954
196 0 46.0564 11.3339 522 60.6973 1027.16 516.9
197 0 47.0938 10.5109 495 61.2384 1027.65 517.008
198 0 49.0305 12.0129 589 59.545 1027.53 516.328
199 0 51.0373 10.3062 526 61.1293 1026.52 515.586
200 0 54.0603 12.3011 665 58.5414 1026.59 515.28
201 0 55.023 11.7769 648 59.1728 1027.02 515.333
202 0 58.0481 12.1968 708 58.4703 1026.4 513.917
203 0 59.0711 12.3749 731 57.8892 1026.16 514.068
204 0 60.0732 12.3349 741 58.3455 1026.02 511.073
205 0 60.0739 10.2207 614 60.8632 1025.86 511.489
206 0 64.044 11.4296 732 58.556 1025.69 514.158
207 0 65.1052 11.8884 774 58.5103 1026.58 509.8
208 0 66.1123 11.2687 745 59.9168 1026.19 508.505
209 0 69.0359 11.7185 809 59.0346 1025.91 509.832
210 0 71.1121 12.3608 879 58.6678 1025.41 508.275
211 0 73.0828 11.6717 853 59.2814 1025.88 505.093
212 0 76.1019 10.7487 818 60.1259 1025.56 502.104
213 0 79.0903 12.4035 981 59.0469 1024.8 504.592
214 0 81.1424 10.8205 878 61.0888 1024.81 501.28
215 0 84.0691 12.228 1028 59.9679 1024.68 500.562
216 0 87.0749 12.8855 1122 59.1221 1024.8 500.34
217 0 89.0914 12.5377 1117 59.9696 1024.26 501.215
218 1 47.0345 10.9919 517 59.2012 1023.84 521.551
219 0 48.1187 10.2663 494 60.5628 1024.68 518.298
220 0 50.1297 10.4329 523 60.4551 1023.95 518.511
221 0 50.1297 10.5327 528 129.57 1021.96 518.479
222 0 55.0445 11.3908 627 58.9059 1024.63 516.344
223 0 54.0454 9.89908 535 60.4075 1024.4 517.428
224 0 58.0522 11.3346 658 58.614 1024.22 516.16
225 0 60.0501 11.3905 684 59.3626 1023.68 511.668
226 0 58.1583 10.1963 593 60.6948 1024.11 509.297
227 0 64.1992 11.0593 710 58.9437 1023.51 510.586
228 0 64.1288 9.94872 638 60.4467 1024.67 508.854
229 0 67.2141 11.5601 777 58.601 1024.67 507.017
230 0 71.0522 10.6119 754 59.1273 1024.33 506.241
231 0 73.1444 11.7029 856 58.0642 1024.42 504.398
232 0 77.0391 12.0199 926 57.1609 1024.99 504.909
233 0 78.0812 10.9501 855 58.7298 1024.82 502.043
234 0 79.1223 10.1236 801 59.573 1024.36 500.975
235 0 82.1386 10.044 825 59.623 1024.45 500.421
236 0 85.0918 12.2338 1041 58.0221 1024.69 497.697
237 0 89.1377 11.1962 998 58.6172 1024.24 494.29
238 1 47.0225 10.1866 479 55.9019 1024.91 518.985
239 0 46.0534 9.38041 432 57.7593 1024.91 518.81
240 0 48.0445 10.2821 494 56.4555 1025.08 517.451
241 0 51.0365 10.8942 556 55.3651 1025.08 517.158
242 0 50.0286 10.9937 550 56.4764 1025.01 513.827
243 0 53.0424 11.8396 628 55.1608 1024.49 513.358
244 0 53.0327 12.0115 637 55.5871 1024.26 512.02
245 0 57.1271 12.0608 689 54.492 1025.05 512.102
246 0 58.0665 12.4685 724 54.7887 1025.48 510.543
247 0 59.0548 10.4649 618 56.9126 1024.66 513.146
248 0 59.0993 10.1524 600 57.645 1025.03 510.807
249 0 62.1917 12.4615 775 55.2271 1025.46 509.041
250 0 66.1404 12.413 821 54.8051 1025.23 508.414
251 0 67.1563 11.5254 774 56.2455 1024.74 507.907
252 0 66.1513 11.3679 752 56.1676 1024.8 509.918
253 0 71.1368 12.3987 882 54.9422 1024.74 508.6
254 0 72.0694 12.377 892 55.2534 1025.41 506.672
255 0 76.1079 11.7465 894 55.717 1025.01 506.183
256 0 76.091 11.3417 863 56.613 1024.73 505.969
257 0 80.0922 11.2995 905 56.5414 1025.05 501.935
258 0 82.1525 12.4159 1020 55.9196 1025.06 501.397
259 1 42.0228 9.78041 411 56.6691 1024.78 524.234
260 0 43.0534 12.0316 518 54.7896 1024.62 520
261 0 46.1369 11.791 544 55.2978 1024.65 520.853
262 0 44.0682 11.3234 499 56.9078 1024.78 519.683
263 0 47.0671 11.4942 541 56.8318 1025.45 520.292
264 0 46.1246 9.04073 417 60.1655 1024.69 519.427
265 0 50.0547 10.8481 543 58.4125 1024.46 517.319
266 0 52.1137 11.7627 613 57.69 1024.2 517.566
267 0 52.0629 10.3529 539 59.5788 1023.98 518.36
268 0 53.0562 10.6114 563 60.1261 1023.9 515.622
269 0 58.0949 11.0165 640 59.35 1023.9 515.916
270 0 61.1222 11.2561 688 59.3154 1023.99 515.762
271 0 60.0412 10.5095 631 60.8209 1023.57 516.439
272 0 64.0846 12.3118 789 58.872 1024 512.319
273 0 64.0568 11.24 720 60.6639 1023.69 513.908
274 0 67.0934 12.2218 820 58.7305 1023.95 514.528
275 0 70.0863 10.8152 758 60.4631 1023.29 510.896
276 0 71.106 11.3071 804 60.0871 1023.64 507.81
277 0 73.0823 12.3423 902 59.1663 1023.63 507.936
278 0 76.0964 12.9572 986 58.3093 1023.98 506.387
279 0 78.1239 10.957 856 60.9346 1023.98 505.192
280 0 81.1293 11.6111 942 60.0403 1024.52 505.944
281 1 42.0312 9.13607 384 60.8229 1023.72 524.602
282 0 44.0245 10.7894 475 58.5979 1023.41 526.52
283 0 46.0305 10.4062 479 59.3862 1023.87 525.305
284 0 47.0444 10.6282 500 58.87 1023.67 524.888
285 0 48.1561 12.4595 600 57.2167 1023.06 522.293
286 0 49.0437 11.6223 570 58.6509 1023.5 522.149
287 0 50.08 11.1821 560 59.1089 1023.11 520.516
288 0 52.0718 9.52531 496 60.1633 1023.42 520.387
289 0 54.0971 10.9618 593 59.1265 1023.23 519.324
290 0 55.0233 13.0308 717 56.6374 1023.28 519.088
291 0 58.0457 11.6115 674 58.184 1023.37 518.009
292 0 58.0981 11.7388 682 57.9047 1023.37 520.314
293 0 60.1025 12.096 727 57.9959 1023.37 517.711
294 0 62.1241 10.5917 658 59.2796 1023.69 517.415
295 0 63.1344 12.7189 803 58.1034 1023.65 513.625
296 0 66.187 11.6941 774 57.8966 1023.14 514.779
297 0 68.1133 11.1285 758 58.3694 1022.5 514.476
298 0 71.1348 11.9632 851 57.859 1022.77 510.564
299 0 72.0665 12.1277 874 58.4783 1022.76 508.966
300 0 71.1015 10.9562 779 59.9089 1023.43 507.557
301 0 76.1367 12.8584 979 57.2462 1022.88 504.91
302 0 79.185 12.616 999 57.4655 1022.59 504.439
303 0 81.1504 11.5588 938 58.4392 1022.44 503.28
304 0 82.1905 12.2155 1004 57.7968 1022.06 499.498
305 0 82.1905 12.179 1001 122.062 1021.07 499.576
306 0 88.2447 12.3294 1088 57.2858 1021.99 500.067
307 0 90.1418 11.9589 1078 58.1967 1021.84 497.237
308 0 95.0639 12.4127 1180 57.0551 1022.95 498.885
309 1 47.0753 9.7291 458 58.1747 1022.67 520.884
310 0 45.0826 9.38277 423 59.6359 1022.04 519.047
311 0 50.0385 11.5511 578 56.6246 1022.54 518.718
312 0 50.0283 10.1343 507 58.6292 1021.78 516.625
313 0 53.0443 10.5572 560 57.7696 1021.08 514.446
314 0 53.0851 11.3968 605 56.8959 1021.97 516.255
315 0 56.09 12.89 723 54.9599 1022.19 512.714
316 0 58.1706 11.7069 681 56.047 1022.21 515.302
317 0 58.038 11.7509 682 56.3622 1022.45 512.648
318 0 59.1124 11.8249 699 56.6481 1022.29 511.601
319 0 62.0989 11.7232 728 56.0879 1022.81 509.13
320 0 61.1209 10.471 640 58.2891 1022.48 509.278
321 0 65.1534 11.4345 745 56.6577 1021.79 511.028
322 0 69.073 12.19 842 55.5523 1022.1 510.186
323 0 71.0755 11.7059 832 56.6587 1021.8 506.835
324 0 73.0876 12.7929 935 55.4385 1022.45 505.605
325 0 76.0662 12.3314 938 56.0938 1022.24 505.233
326 0 77.0889 12.1807 939 56.656 1022.91 503.515
327 0 78.1096 9.71712 759 59.3729 1022.92 505.142
328 0 81.1265 12.1785 988 57.4464 1023.3 501.033
329 0 84.2555 11.7974 994 57.7223 1022.66 503.98
330 1 42.0494 9.13213 384 59.8542 1022.09 521.872
331 0 42.0564 9.82016 413 59.9322 1021.93 521.806
332 0 44.0157 11.4505 504 59.2024 1022.63 519.262
333 0 46.0358 11.6648 537 59.527 1022.92 518.426
334 0 47.0659 11.7495 553 60.1338 1023.17 517.336
335 0 50.0487 10.8694 544 60.2004 1022.16 518.888
336 0 52.051 13.6021 708 57.6878 1022.45 516.288
337 0 51.1536 12.3354 631 60.0634 1022.15 516.656
338 0 54.0996 11.9964 649 60.1618 1022.74 515.977
339 0 55.0647 13.0937 721 59.3523 1022.97 514.528
340 0 57.0796 13.9279 795 58.0843 1022.97 512.73
341 0 57.024 13.3979 764 59.2788 1022.1 514.293
342 0 60.113 13.0255 783 59.6475 1022.69 511.29
343 0 62.0692 13.5494 841 59.1094 1022.59 509.912
344 0 63.1229 13.5925 858 59.0093 1022.44 509.628
345 0 63.0743 12.0968 763 61.2962 1022.99 508.924
346 0 68.0827 12.8373 874 60.079 1022.86 507.608
347 0 67.0567 11.4679 769 62.6489 1022.39 505.27
348 0 73.1936 14.004 1025 58.8029 1022.28 506.244
349 0 76.0479 12.479 949 59.9642 1022.29 504.681
350 0 78.1102 12.5848 983 60.3266 1022.12 505.066
351 0 78.285 12.2118 956 60.9519 1022.56 503.217
352 0 82.1138 12.5923 1034 60.766 1022 501.308
353 0 76.1272 9.37904 714 64.9006 1022.38 489.697
354 1 223.173 8.12373 1813 63.0055 1022.7 461.792
355 0 223.305 7.26809 1623 62.5299 1023.52 451.944
356 0 225.204 9.22718 2078 58.2411 1023.1 461.373
357 1 145.776 13.8089 2013 51.5072 1022.93 481.307
358 0 107.217 15.0909 1618 56.9846 1022.99 489.719
359 0 150.94 15.7347 2375 50.3533 1022.18 484.074
360 0 152.292 13.3362 2031 53.7282 1022.97 485.085
361 0 155.869 12.4014 1933 54.7506 1022.49 474.609
362 1 60.0385 12.2255 734 61.8256 1022.44 513.758
363 0 61.0786 11.739 717 62.7755 1022.61 512.332
364 0 64.2178 14.1705 910 59.9044 1022.82 511.589
365 0 63.0705 11.4475 722 64.0609 1023.3 508.432
366 0 67.1112 11.4288 767 63.4368 1023.58 509.545
367 0 69.108 12.0825 835 63.5269 1022.2 506.052
368 0 72.0617 13.1693 949 61.8757 1022.77 506.725
369 0 77.07 12.9103 995 61.8894 1023.07 506.25
370 0 78.1532 13.3712 1045 61.9522 1023 504.145
371 0 83.2401 13.2989 1107 61.346 1022.92 504.505
372 0 85.087 11.7174 997 63.0873 1022.52 505.585
373 0 90.0807 10.4906 945 64.5196 1022.86 503.746
374 1 45.0538 11.2754 508 62.0295 1023.36 519.839
375 0 46.0372 11.6428 536 61.4664 1023.34 521.157
376 0 49.0606 12.1483 596 61.052 1023.59 520.171
377 0 50.0843 9.6038 481 63.3035 1023.07 520.794
378 0 50.0843 9.64374 483 154.658 1023.1 520.824
379 0 52.0909 11.096 578 63.173 1022.16 516.888
380 0 53.0291 11.8803 630 62.0492 1022.22 517.257
381 0 55.0353 10.8112 595 63.7025 1021.98 515.244
382 0 59.0392 13.1946 779 60.0937 1021.84 513.843
383 0 59.0616 12.8002 756 61.0212 1022.59 511.745
384 0 61.0513 12.2848 750 61.492 1022.5 512.153
385 0 64.0717 11.9554 766 60.9909 1023.22 513.684
386 0 66.1123 12.5393 829 60.5645 1022.67 509.853
387 0 67.0464 13.0358 874 59.7197 1022.35 511.319
388 0 68.0862 11.5589 787 62.0267 1022.35 508.999
389 0 73.1018 13.83 1011 58.7468 1022.46 508.404
390 0 73.0982 13.0236 952 60.1943 1023.37 506.92
391 0 75.1814 11.7449 883 61.6183 1023.9 507.289
392 0 78.0554 11.4534 894 61.981 1023.71 504.214
393 1 37.0958 9.30024 345 61.029 1023.33 525.255
394 0 39.071 11.5687 452 58.9734 1022.94 523.352
395 0 42.0153 10.7342 451 58.9956 1022.82 523.701
396 0 40.0741 12.402 497 58.7082 1023.09 522.211
397 0 43.0714 11.4229 492 58.6809 1022.64 523.937
398 0 44.0409 11.126 490 59.1204 1023.16 522.624
399 0 43.0333 10.7126 461 60.8048 1023.29 521.401
400 0 46.0608 11.1592 514 59.7393 1023.08 521.874
401 0 47.0111 11.9121 560 59.1643 1023.2 518.502
402 0 49.1227 11.3186 556 59.7104 1023.48 517.944
403 0 51.0154 11.9376 609 58.5944 1024.16 517.118
404 0 51.1488 12.493 639 58.6557 1024.54 515.127
405 0 55.0439 12.4446 685 57.9679 1024.46 515.365
406 0 56.0317 12.2252 685 58.308 1023.99 515.521
407 0 56.0475 10.9193 612 60.6258 1024.61 511.833
408 0 60.0568 11.4392 687 59.2868 1023.86 512.98
409 0 59.0304 12.519 739 58.6888 1023.7 513.571
410 0 63.0221 12.0117 757 59.1889 1022.98 510.602
411 0 66.0384 12.0385 795 59.0289 1022.81 510.776
412 0 67.0841 11.8508 795 59.5132 1022.9 508.249
413 0 71.1228 13.3712 951 57.2744 1023.42 507.713
414 0 71.1023 12.5594 893 58.8735 1023.46 506.934
415 0 73.0658 11.8523 866 59.7436 1023.26 507.102
416 0 75.1222 11.4879 863 60.5817 1022.81 505.654
417 0 77.1071 12.9301 997 59.0752 1023.48 502.39
418 0 80.1447 10.7181 859 61.787 1023.47 503.828
419 0 83.1722 13.7666 1145 58.2742 1022.33 501.17
420 0 86.075 12.675 1091 59.7708 1022.11 499.727
421 1 40.0531 10.561 423 60.3546 1021.86 524.073
422 0 43.0365 10.1542 437 60.2426 1023.02 521.911
423 0 44.1671 10.732 474 60.4346 1023.08 520.698
424 0 46.0693 10.9618 505 60.4376 1022.8 519.416
425 0 48.0319 12.4917 600 58.46 1022.63 519.933
426 0 48.0554 12.007 577 59.8284 1022.8 517.059
427 0 49.0501 10.6422 522 61.4828 1022.78 517.659
428 0 53.0387 12.67 672 57.9702 1023.42 517.689
429 0 52.0255 12.0902 629 59.4913 1022.9 515.013
430 0 56.0357 12.724 713 58.5792 1023.11 515.031
431 0 57.015 10.3306 589 61.0255 1022.54 515.088
432 0 59.1644 10.8342 641 60.8222 1022.92 512.872
433 0 61.0497 11.3023 690 60.2319 1022.5 510.196
434 0 63.0486 10.7536 678 60.8083 1023.23 512.013
435 0 64.0547 11.3965 730 60.3863 1023.61 508.256
436 0 66.0614 11.0503 730 60.3726 1023.35 509.901
437 0 69.0519 11.6 801 59.9713 1023.4 506.876
438 0 71.105 12.8683 915 58.2776 1023.03 504.648
439 0 75.1697 12.5982 947 57.9335 1022.56 505.074
440 0 77.1049 11.4779 885 58.9684 1022.08 506.821
441 0 79.0519 12.2578 969 58.5036 1022.8 502.658
442 0 82.1369 10.2512 842 60.0736 1022.88 505.504
443 1 39.0239 10.6858 417 57.5971 1023.45 522.976
444 0 37.0422 10.4205 386 59.1088 1022.96 522.622
445 0 40.0562 10.5602 423 58.5225 1023.29 523.317
446 0 39.0424 10.0148 391 59.5064 1023.41 521.898
447 0 42.0095 10.1406 426 58.9624 1022.58 519.329
448 0 43.0825 11.861 511 57.2524 1022.69 520.507
449 0 46.0257 9.47298 436 58.8922 1022.61 521.644
450 0 47.0474 9.86238 464 59 1023.03 516.312
451 0 48.0453 9.26208 445 59.782 1022.44 516.645
452 0 50.1182 10.8344 543 57.9319 1023.01 518.374
453 0 53.0552 11.8367 628 56.3742 1023.16 516.285
454 0 54.0338 13.8617 749 54.6609 1023.05 513.314
455 0 54.0722 12.1689 658 56.7432 1023.68 513.956
456 0 57.0957 11.2093 640 57.5938 1023.18 512.164
457 0 57.064 12.0041 685 56.6686 1023.04 513.777
458 0 61.1584 10.6772 653 57.9265 1023.25 510.576
459 0 61.0867 11.3445 693 57.8976 1023.56 511.147
460 0 65.0181 11.7967 767 57.4928 1022.74 508.332
461 0 67.1178 10.5933 711 59.0408 1022.42 506.266
462 0 68.0704 12.0023 817 57.7197 1022.39 506.596
463 0 72.1336 10.6053 765 58.8941 1021.85 505.221
464 0 73.2182 10.2707 752 59.3005 1022.35 506.733
465 0 78.1746 12.4721 975 56.8933 1022.76 502.504
466 1 41.0777 9.81067 403 57.9653 1022.39 521.767
467 0 43.0669 10.8436 467 57.0428 1021.83 522.578
468 0 46.0427 10.1645 468 56.9124 1022.94 520.816
469 0 44.0659 10.3027 454 57.4405 1022.45 521.249
470 0 47.0377 10.0132 471 58.2569 1021.82 519.764
471 0 49.0883 10.9802 539 57.4471 1022.06 517.212
472 0 50.0929 9.52231 477 58.8784 1021.99 516.698
473 0 52.112 10.8804 567 57.418 1022.06 515.587
474 0 50.0128 8.67778 434 60.4493 1022.86 515.194
475 0 53.0189 11.0527 586 57.9522 1022.96 514.604
476 0 56.0734 10.4328 585 58.2735 1022.21 514.405
477 0 59.1832 11.777 697 57.1334 1021.74 513.933
478 0 60.053 12.1559 730 56.7507 1022.3 512.788
479 0 61.0525 11.4164 697 57.2812 1022.43 512.462
480 0 64.0466 11.3511 727 57.0344 1022.35 513.686
481 0 64.1169 9.24873 593 60.0641 1022.54 507.501
482 0 69.0849 11.2036 774 57.9354 1022.54 506.459
483 0 73.111 11.8313 865 57.1075 1022.67 506.231
484 0 75.0691 11.6826 877 57.9179 1022.71 505.346
485 0 75.1094 10.8109 812 59.0271 1022.2 502.071
486 0 79.13 10.8176 856 58.8376 1022.85 500.172
487 0 84.0634 11.5032 967 57.5584 1022.29 503.944
488 1 43.1029 9.67453 417 56.8249 1022.6 524.839
489 0 41.0608 9.81472 403 58.3648 1022.63 521.948
490 0 45.0782 9.13967 412 58.6893 1022.47 522.57
491 0 46.0911 12.0848 557 55.219 1023.01 522.388
492 0 49.0295 11.0954 544 55.5735 1022.38 521.722
493 0 46.1206 10.234 472 57.5381 1022.53 519.447
494 0 48.0333 11.7835 566 55.3304 1022.59 518.933
495 0 50.0518 11.3083 566 56.4717 1022.65 516.631
496 0 53.0491 11.8946 631 55.5341 1022.2 514.559
497 0 54.0701 11.67 631 55.7021 1022.56 516.021
498 0 56.0571 10.0433 563 56.5293 1022.39 516.304
499 0 58.2017 11.6491 678 54.9159 1022.8 514.813
500 0 58.2447 10.8679 633 55.7536 1022.95 513.782
501 0 61.1364 10.1249 619 56.3296 1023.1 511.021
502 0 64.0633 12.035 771 54.5655 1022.86 511.305
503 0 67.17 12.7736 858 54.3508 1022.93 509.996
504 0 67.2173 11.3066 760 55.5921 1022.73 510.542
505 0 71.1776 10.5511 751 56.4794 1022.81 508.27
506 0 73.1845 11.7784 862 55.7947 1022.6 506.862
507 0 74.1867 11.1341 826 56.8402 1022.48 502.89
508 0 77.1192 11.372 877 56.6842 1022.48 502.42
509 0 81.1219 10.7369 871 57.2985 1022.6 503.377
510 0 82.1418 11.3584 933 57.1147 1022.06 502.457
511 0 85.2304 11.5452 984 57.3404 1022.17 499.132
512 0 90.0783 10.7684 970 57.7175 1022.47 500.423
513 1 43.1421 12.5631 542 55.7325 1021.9 521.336
514 0 45.1187 8.51089 384 59.3516 1022.13 523.141
515 0 47.0526 9.94632 468 58.7115 1022.14 520.844
516 0 49.0831 10.3294 507 58.4793 1021.41 517.594
517 0 52.0644 10.2565 534 58.279 1021.31 518.992
518 0 53.0747 11.0599 587 57.8688 1021.91 519.762
519 0 54.0768 9.61595 520 59.075 1021.89 518.846
520 0 57.0325 9.60856 548 60.0219 1021.64 515.352
521 0 58.0298 11.5975 673 57.6909 1022.15 516.541
522 0 58.1217 10.5468 613 59.4584 1022.25 514.741
523 0 62.0348 11.4452 710 58.3507 1021.95 511.996
524 0 64.0901 11.4994 737 58.3731 1021.85 509.985
525 0 68.119 12.3167 839 57.0846 1021.76 509.669
526 0 67.0725 10.9434 734 59.2193 1022.13 510.861
527 0 70.336 9.68209 681 60.4273 1022.62 506.869
528 0 73.076 11.4675 838 58.0728 1021.98 509.868
529 0 73.0819 10.8372 792 59.7664 1022.26 506.744
530 0 77.1735 10.444 806 59.7146 1021.8 508.357
531 0 79.099 12.4654 986 57.6775 1021.96 503.563
532 0 83.3446 12.1904 1016 57.5354 1021.46 504.171
533 0 86.1032 13.1586 1133 56.5534 1021.68 502.329
534 0 88.1797 11.6127 1024 58.6309 1021.53 500.54
535 0 90.1219 12.3721 1115 57.9354 1021.66 499.077
536 1 49.0872 12.4472 611 58.1817 1021.4 517.304
537 0 51.1387 10.364 530 60.1472 1022.42 519.008
538 0 52.0368 11.8762 618 58.9838 1022.27 516.472
539 0 55.0763 13.1636 725 57.3793 1022.61 516.669
540 0 55.0736 12.6376 696 58.0546 1022.64 517.829
541 0 55.1491 11.7318 647 58.9505 1021.49 517.474
542 0 57.033 11.3268 646 60.1502 1022.63 514.613
543 0 60.0259 12.0281 722 58.964 1022.16 510.767
544 0 62.0847 12.4346 772 58.3627 1022.42 511.536
545 0 61.1441 10.7942 660 59.9879 1021.81 513.359
546 0 64.0318 10.7134 686 60.3878 1021.82 511.023
547 0 67.081 12.2091 819 58.4664 1021.85 512.647
548 0 70.1169 12.7644 895 57.6235 1022.23 508.21
549 0 71.0771 10.5801 752 60.0093 1021.81 509.843
550 0 71.1354 11.9772 852 58.7488 1022.12 509.491
551 0 76.0693 12.4229 945 58.4762 1021.3 506.261
552 0 77.0779 11.4559 883 59.5198 1021.66 504.623
553 0 77.1802 10.5856 817 60.7687 1022.76 505.262
554 0 82.0593 12.101 993 59.4955 1022.04 501.36
555 0 85.2578 12.5384 1069 58.4761 1021.88 503.61
556 1 41.0385 11.8425 486 59.0638 1021.84 521.85
557 0 40.0647 9.35987 375 61.84 1021.7 523.699
558 0 45.0197 12.4834 562 58.5356 1021.65 521.952
559 0 45.0198 12.6611 570 59.4246 1021.15 520.577
560 0 45.2029 11.2825 510 61.0176 1021.91 519.604
561 0 46.0661 13.8931 640 58.6594 1022.27 517.655
562 0 49.1039 12.3819 608 60.4901 1022.43 517.995
563 0 49.0661 12.901 633 60.1848 1022.41 518.368
564 0 51.1121 12.9911 664 59.9819 1021.77 517.816
565 0 53.1233 13.1204 697 59.6298 1021.43 514.4
566 0 54.0897 12.2389 662 61.2281 1021.74 515.024
567 0 57.0904 13.067 746 60.5576 1021.78 513.127
568 0 57.2378 13.2081 756 61.0926 1021.9 512.147
569 0 59.035 12.0945 714 62.6106 1021.38 511.634
570 0 62.0531 13.2306 821 61.4324 1021.15 510.402
571 0 61.1021 13.0274 796 62.2902 1021.05 512.602
572 0 64.0812 13.5297 867 62.0162 1021.57 510.375
573 0 69.109 15.1789 1049 60.101 1021.63 510.358
574 0 67.0282 12.8006 858 63.993 1021.68 509.631
575 0 72.0595 13.9191 1003 62.5364 1021.95 506.638
576 0 73.1542 13.8475 1013 63.4748 1021.28 506.976
577 0 73.1544 12.7538 933 65.6495 1021.82 506.475
578 0 78.1153 14.3122 1118 63.6717 1022.61 506.022
579 0 79.1613 12.5566 994 66.4598 1022.74 503.571
580 0 82.0702 14.7678 1212 63.5429 1022.96 504.425
581 0 86.1744 12.9969 1120 65.2232 1022.84 505.226
582 1 42.1534 12.075 509 63.9568 1022.57 525.081
583 0 43.1201 11.2477 485 66.6186 1023.17 522.53
584 0 46.1692 11.0463 510 65.9078 1022.3 521.798
585 0 48.0772 13.4575 647 63.4961 1022.45 521.754
586 0 47.1811 11.6784 551 66.323 1022.54 520.463
587 0 48.0279 11.3268 544 67.1857 1022.11 519.439
588 0 49.0875 12.0397 591 66.2809 1022.17 516.816
589 0 51.0566 12.5351 640 65.5562 1021.94 518.594
590 0 52.0868 11.8648 618 66.754 1021.19 517.204
591 0 55.08 12.3457 680 65.7618 1021.57 516.844
592 0 57.1144 13.4992 771 64.0143 1021.4 516.147
593 0 58.0826 12.0518 700 65.6414 1021.53 515.64
594 0 60.1052 12.9606 779 64.6175 1021.77 514.375
595 0 62.0927 14.2207 883 63.4009 1021.63 512.751
596 0 64.1236 12.164 780 65.8974 1022.46 511.91
597 0 67.0469 13.334 894 64.4698 1021.4 509.623
598 0 68.1002 13.5682 924 64.3496 1022.15 509.91
599 0 71.1993 11.9805 853 66.3622 1021.96 508.569
600 0 74.1341 13.1249 973 64.5077 1021.52 507.51
601 0 76.0929 12.7213 968 65.2738 1022.78 506.142
602 1 37.0478 11.4177 423 65.4799 1022.72 525.009
603 0 38.0423 11.1455 424 64.8255 1022.99 525.321
604 0 40.0872 11.0758 444 65.5496 1022.72 522.063
605 0 42.1038 12.3979 522 63.9176 1022.98 521.429
606 0 44.2094 11.9205 527 63.5939 1022.97 522.975
607 0 44.0453 12.7142 560 63.2625 1022.82 520.907
608 0 44.0628 12.4368 548 62.9288 1022.33 522.182
609 0 46.0733 13.6087 627 61.3365 1022.58 520.059
610 0 47.0434 13.4131 631 62.1458 1022.59 518.13
611 0 49.0361 12.7253 624 62.6587 1022.52 516.723
612 0 51.0578 13.1224 670 61.8313 1022.78 517.431
613 0 50.0604 11.8657 594 63.8872 1022.89 516.909
614 0 53.0167 14.1842 752 60.8298 1023.13 517.234
615 0 55.1479 11.5326 636 63.7076 1023.3 516.335
616 0 57.0428 13.2532 756 61.6534 1023.05 515.415
617 0 57.0667 12.2663 700 63.1843 1023.68 514.476
618 0 60.0482 12.2069 733 63.0491 1022.88 511.09
619 0 61.0779 12.5741 768 63.0091 1022.94 511.677
620 0 63.0765 12.0489 760 62.8132 1023.09 512.918
621 0 67.1735 12.2816 825 62.5648 1022.92 507.659
622 0 68.0713 11.1354 758 63.4683 1023.37 511.313
623 0 70.0895 11.2285 787 63.3698 1022.8 507.15
624 0 72.0924 13.6769 986 60.284 1022.3 505.563
625 0 75.1083 13.4606 1011 60.9743 1022.3 504.727
626 0 77.1343 12.3032 949 61.5142 1021.68 504.973
627 0 78.1124 11.9187 931 62.3319 1022.26 501.07
628 0 80.2806 11.1359 894 62.132 1022.51 504.147
629 1 38.0557 10.5897 403 63.5806 1022.79 518.737
630 0 40.0134 9.37186 375 64.256 1022.74 519.405
631 0 41.0814 10.4427 429 62.6737 1022.45 520.172
632 0 45.046 11.788 531 61.1469 1022.01 517.623
633 0 44.058 11.3487 500 62.712 1022.45 517.422
634 0 47.0604 13.6633 643 59.7045 1021.84 516.182
635 0 47.0162 11.0175 518 62.751 1022.12 515.722
636 0 51.046 11.852 605 61.2215 1023.12 516.159
637 0 50.0524 12.6068 631 60.5737 1023.58 514.738
638 0 52.0436 12.3742 644 60.8727 1023.33 513.175
639 0 55.169 13.3771 738 59.4065 1023 512.001
640 0 60.0301 12.4771 749 59.3698 1022.47 512.951
641 0 60.0631 10.6555 640 61.9516 1022.66 510.347
642 0 64.1033 11.7311 752 60.5918 1022.12 509.823
643 0 64.0702 10.707 686 61.2813 1022.22 511.659
644 0 66.0917 11.9833 792 60.5985 1021.83 506.303
645 0 71.0217 12.9819 922 59.0293 1021.54 505.678
646 0 71.0901 12.3365 877 59.9327 1022.22 502.746
647 0 75.0631 12.656 950 59.8621 1022.85 502.28
648 0 79.0509 10.8917 861 60.885 1021.69 503.641
649 1 41.0688 10.178 418 60.6364 1021.93 520.072
650 0 42.0594 12.0068 505 59.7762 1022.71 519.246
651 0 42.0822 12.6895 534 58.7228 1022.46 521.807
652 0 45.0279 12.2813 553 59.5714 1022.7 519.944
653 0 47.0677 11.0692 521 60.382 1021.72 517.591
654 0 49.0327 13.0321 639 58.1346 1022.51 518.534
655 0 51.014 12.7024 648 59.2407 1022.61 516.503
656 0 52.0425 12.6627 659 59.0819 1022.63 516.018
657 0 52.1617 12.7296 664 59.616 1022.83 514.096
658 0 57.038 16.5504 944 54.7818 1022.61 513.48
659 0 56.0173 12.8175 718 59.4457 1022.16 513.474
660 0 58.0424 11.8189 686 60.1706 1023.06 514.929
661 0 60.1017 11.83 711 60.4079 1022.88 512.051
662 0 60.0658 11.887 714 60.6905 1022.61 511.678
663 0 65.0338 13.7313 893 58.4737 1021.99 507.929
664 0 67.0757 12.225 820 60.1817 1022.26 506.389
665 0 70.0746 14.4846 1015 57.2187 1022.7 508.169
666 0 72.0755 12.473 899 59.8309 1022.63 507.894
667 0 74.102 10.9174 809 61.7256 1022.34 505.313
668 0 77.0492 12.9657 999 59.4785 1022.21 502.731
669 0 80.1006 13.4456 1077 58.675 1021.98 501.354
670 1 39.0128 10.5606 412 62.0947 1022.43 519.629
671 0 40.0633 10.8828 436 61.2271 1022.28 520.337
672 0 45.0527 13.007 586 58.9437 1022.36 519.916
673 0 44.0258 11.4933 506 60.7648 1022.44 520.903
674 0 46.0424 13.3572 615 58.8488 1022.97 519.501
675 0 47.0211 13.5258 636 59.0598 1022.8 517.627
676 0 50.0387 14.209 711 57.5893 1022.4 517.769
677 0 52.0309 12.2235 636 59.8208 1022.25 515.321
678 0 51.025 12.5625 641 60.5242 1022.3 514.651
679 0 55.0511 11.1351 613 61.1044 1022.18 513.827
680 0 57.1824 12.1191 693 59.5931 1021.36 514.442
681 0 59.063 12.4274 734 59.9687 1021.8 512.012
682 0 60.1156 12.8419 772 59.8031 1022.4 510.455
683 0 62.3373 11.534 719 60.2003 1022.97 512.161
684 0 64.1463 12.0974 776 60.4433 1022.89 508.019
685 0 64.198 10.7324 689 62.5167 1022.23 507.913
686 0 67.0983 14.5458 976 57.9672 1022.4 505.026
687 0 69.1331 11.1813 773 61.4981 1022.26 507.135
688 0 73.1496 11.3329 829 61.7986 1022.25 503.87
689 0 77.1172 11.7613 907 60.8269 1022.52 503.766
690 0 79.1162 12.6017 997 59.9107 1022.14 504.313
691 0 79.2287 12.0411 954 60.9822 1022.3 500.968
692 0 81.1513 10.2894 835 63.1449 1023.08 499.83
693 0 85.1271 12.0291 1024 60.9385 1022.28 498.399
694 0 91.1042 12.9851 1183 59.1251 1022.17 499.884
695 1 48.0641 13.0243 626 58.3546 1022.92 519.54
696 0 47.0129 11.4437 538 61.9572 1022.73 517.792
697 0 50.0755 11.7622 589 61.8404 1022.73 517.097
698 0 54.0241 9.68087 523 63.8031 1022.96 514.761
699 0 54.0295 12.1785 658 61.6383 1022.26 514.477
700 0 57.0612 13.1613 751 59.8589 1022.91 511.951
701 0 58.0616 13.4684 782 60.1778 1022.86 511.496
702 0 59.0462 12.4479 735 61.5796 1022.86 509.524
703 0 62.0769 13.4188 833 60.3193 1022.55 511.947
704 0 64.1398 12.8937 827 60.4704 1022.72 511.179
705 0 65.0392 11.7006 761 61.9777 1023.1 510.731
706 0 68.0827 12.4848 850 61.2553 1023.43 505.629
707 0 71.0308 12.4031 881 61.5051 1023.43 507.195
708 0 71.133 13.8051 982 60.5947 1023.45 507.02
709 0 70.0898 10.7862 756 64.3413 1022.99 503.554
710 0 76.044 12.2035 928 63.1002 1022.99 500.625
711 0 82.1515 14.242 1170 46.8957 1022.02 505.556
712 0 82.0765 13.1706 1081 62.1767 1022.27 500.913
713 0 84.1865 12.2823 1034 63.6441 1022.66 499.745
714 0 88.1216 13.9239 1227 61.6553 1022.51 499.019
715 1 41.0768 10.0787 414 64.5 1022.91 520.944
716 0 44.0171 11.2229 494 62.8482 1022.73 522.3
717 0 45.0237 10.861 489 65.0593 1023.44 519.252
718 0 48.0553 12.7561 613 62.429 1023.01 517.537
719 0 49.0221 11.811 579 63.4974 1022.47 519.513
720 0 52.1504 11.5627 603 63.8093 1022.27 517.527
721 0 53.1051 11.2795 599 64.4741 1022.81 516.501
722 0 55.0446 12.6079 694 63.3228 1021.36 514.869
723 0 56.1929 12.7952 719 62.6954 1021.85 516.054
724 0 57.06 13.3193 760 62.3408 1022.48 513.466
725 0 59.1357 12.7672 755 63.694 1022.6 511.273
726 0 62.1392 12.1179 753 64.0226 1022.85 513.44
727 0 62.1003 12.5603 780 64.341 1022.07 510.617
728 0 65.0953 12.6891 826 63.5908 1021.85 511.676
729 0 67.0773 14.2373 955 61.8492 1021.52 509.242
730 0 69.171 14.4425 999 62.04 1022.32 505.873
731 0 72.0464 13.9493 1005 62.4945 1021.18 507.422
732 0 74.0918 12.363 916 64.3002 1021.89 507.486
733 0 75.1551 13.226 994 64.0724 1021.9 505.089
734 0 77.0981 13.4115 1034 63.5097 1021.94 504.956
735 0 80.0681 12.9889 1040 64.05 1022.27 501.745
736 0 83.0955 14.3088 1189 62.1304 1022.75 502.653
737 0 86.0689 13.9423 1200 62.6458 1022.11 501.65
738 1 43.0335 10.852 467 65.0942 1021.83 521.368
739 0 44.0526 10.9869 484 66.3636 1021.77 521.57
740 0 47.0551 11.9222 561 64.3512 1021.91 521.415
741 0 48.0467 12.0924 581 63.9053 1022 520.998
742 0 47.0696 13.4482 633 63.1232 1021.96 519.989
743 0 49.1239 11.4405 562 65.1085 1021.73 520.359
744 0 51.031 13.1685 672 63.6071 1021.83 518.838
745 0 52.07 11.715 610 65.9918 1021.86 516.897
746 0 52.0544 12.7559 664 65.3298 1021.57 514.62
747 0 54.0935 11.5356 624 66 1021.35 517.75
748 0 58.12 11.459 666 65.6081 1021.57 515.755
749 0 58.1981 12.2169 711 65.1308 1021.28 514.242
750 0 59.0551 11.8703 701 66.4265 1021.89 513.151
751 0 62.0878 12.1763 756 65.5741 1021.6 511.885
752 0 62.1 13.285 825 65.1842 1021.4 509.418
753 0 64.0607 11.9886 768 66.599 1022.01 511.432
754 0 67.0958 10.5968 711 67.7764 1021.61 510.781
755 0 66.0961 11.4076 754 67.8236 1021.69 508.318
756 0 73.1053 13.5011 987 63.8207 1021.97 509.24
757 0 73.0935 13.8453 1012 63.9486 1021.97 508.616
758 0 75.1701 12.3985 932 65.8777 1022.64 506.098
759 1 37.0306 10.3968 385 65.826 1022.06 523.504
760 0 38.094 11.0778 422 65.8792 1022.11 522.765
761 0 40.1408 10.513 422 66.673 1022.26 522.249
762 0 41.0365 12.4036 509 64.7603 1022.29 522.523
763 0 40.0686 11.1309 446 67.2422 1021.2 520.632
764 0 43.0578 11.682 503 65.9046 1021.84 521.885
765 0 45.0486 11.3211 510 66.6353 1021.66 521.055
766 0 44.1564 11.3234 500 66.878 1022.95 519.418
767 0 46.0618 12.3096 567 65.6526 1021.77 520.233
768 0 50.1201 12.6297 633 64.3807 1021.33 520.374
769 0 50.0826 11.4211 572 66.4318 1021.09 518.706
770 0 50.0963 11.6376 583 66.0274 1020.63 519.491
771 0 53.0527 13.1944 700 63.83 1021.94 518.693
772 0 53.0225 10.5616 560 67.6411 1021.42 518.354
773 0 55.0944 12.4151 684 65.693 1021.54 516.485
774 0 59.09 12.0833 714 64.8627 1021.2 518.231
775 0 60.0444 11.9078 715 66.1035 1022.05 515.338
776 0 60.2379 11.3716 685 66.3299 1022.09 513.825
777 0 61.0973 11.0152 673 66.5958 1021.46 515.633
778 0 66.1468 12.4571 824 64.7379 1021.27 512.433
779 0 68.1456 12.62 860 64.5512 1021.25 512.051
780 0 69.2655 14.4661 1002 63.3832 1020.9 509.88
781 0 73.1421 12.1818 891 65.6734 1021.69 509.568
782 0 76.0321 12.1396 923 65.9166 1021.75 508.376
783 0 75.0736 11.3222 850 67.9224 1021.97 504.701
784 1 37.0447 9.31307 345 69.1014 1022.23 523.078
785 0 40.1067 9.74899 391 67.9309 1021.41 523.281
786 0 43.1606 10.0555 434 68.1797 1021.02 522.373
787 0 44.1272 11.5348 509 66.4715 1020.7 521.328
788 0 45.1026 11.0415 498 67.7008 1021.07 519.783
789 0 48.1303 12.1337 584 66.3134 1020.59 519.937
790 0 49.0229 12.484 612 65.8529 1021.03 520.134
791 0 48.088 11.6453 560 67.9286 1021.09 519.346
792 0 52.1891 11.5541 603 66.5655 1021.06 519.544
793 0 53.0912 13.3732 710 65.107 1021.6 519.624
794 0 54.0501 10.3053 557 68.0664 1022.06 518.354
795 0 57.1257 12.7788 730 65.2918 1021.76 516.811
796 0 60.0802 12.5998 757 64.7622 1021.08 517.53
797 0 60.0931 13.0132 782 65.1701 1021.56 513.514
798 0 63.06 12.4167 783 65.4828 1021.25 513.516
799 0 66.1111 13.2958 879 63.992 1022.15 512.808
800 0 68.1156 13.2716 904 62.9082 1021.58 513.78
801 0 69.0927 11.8392 818 65.7885 1021.63 510.636
802 0 71.0888 12.0413 856 64.9182 1021.53 513.206
803 0 74.205 10.6597 791 66.7977 1021.98 508.642
804 1 38.0532 12.1146 461 65.2017 1021.63 523.202
805 0 41.134 10.8669 447 66.2192 1021.26 521.734
806 0 42.0629 11.9583 503 64.3161 1021.23 523.61
807 0 43.0816 13.2539 571 63.5552 1021.7 521.166
808 0 45.1805 12.1291 548 65.0237 1021.66 520.569
809 0 46.0516 11.6391 536 65.3545 1022.79 521.004
810 0 46.1169 12.7068 586 63.7901 1022.25 521.466
811 0 50.0871 12.5382 628 64.2245 1022.6 519.17
812 0 50.1057 13.0125 652 64.2025 1022.39 516.695
813 0 50.0752 12.4213 622 65.7283 1021.73 517.318
814 0 53.0929 12.6759 673 65.7251 1022.11 516.53
815 0 54.0582 12.9675 701 65.602 1022.02 516.284
816 0 55.0785 13.3264 734 65.7738 1022.04 514.478
817 0 57.0502 13.4618 768 65.8385 1021.46 515.773
818 0 58.1073 12.5802 731 66.8782 1021.75 514.286
819 0 62.0744 13.7255 852 65.2242 1021.23 513.898
820 0 64.0785 13.7956 884 65.1719 1021.62 511.399
821 0 65.1306 10.9472 713 68.4488 1021.55 513.201
822 0 67.1088 13.8134 927 65.0097 1021.71 512.027
823 0 70.129 15.4002 1080 63.2444 1021.74 509.215
824 0 74.1244 14.2868 1059 64.5222 1021.8 508.171
825 0 76.1013 12.8513 978 66.2086 1022.34 507.943
826 1 38.0963 11.9697 456 67.1579 1021.95 523.846
827 0 40.0785 12.0014 481 66.6466 1022.08 525.805
828 0 41.0383 10.8679 446 68.4552 1021.37 523.399
829 0 40.0972 11.2726 452 69.4469 1021.06 522.442
830 0 45.0229 12.7269 573 66.3246 1021.4 523.035
831 0 45.2652 12.4157 562 66.9004 1022.37 522.569
832 0 49.076 14.0191 688 63.9346 1021.36 521.164
833 0 50.0366 13.1304 657 64.8737 1021.78 521.594
834 0 52.0842 13.2862 692 65.552 1021.7 518.618
835 0 55.1132 13.4995 744 64.0484 1021.55 519.571
836 0 53.0695 12.5684 667 65.7571 1021.55 519.927
837 0 57.0797 13.56 774 64.8308 1021.41 515.497
838 0 59.0633 14.1204 834 63.7014 1020.95 517.604
839 0 62.1749 13.6872 851 64.0411 1021.23 515.528
840 0 61.0348 14.5982 891 64.0909 1021.49 513.425
841 0 65.074 14.0609 915 64.0066 1021.47 514.207
842 0 66.0675 12.5478 829 66.2111 1021.61 513.686
843 0 69.0969 13.6475 943 64.4305 1020.97 512.951
844 0 70.0797 13.2991 932 65.0354 1020.67 512.062
845 0 73.082 15.0653 1101 62.5958 1021.76 507.912
846 0 74.0394 12.9526 959 65.6705 1021.97 506.82
847 0 77.0876 13.7246 1058 64.5558 1021.37 506.049
848 0 79.0635 13.4828 1066 64.9156 1021.52 507.049
849 0 82.0736 12.5132 1027 65.8169 1021.52 505.874
850 0 86.194 13.342 1150 64.3539 1021.61 504.21
851 1 44.0319 13.4221 591 63.846 1020.8 523.988
852 0 45.1308 14.0702 635 64.2787 1021.28 521.515
853 0 47.1196 13.7947 650 63.5246 1021.2 524.222
854 0 48.0563 15.0657 724 63.2776 1020.91 521.791
855 0 48.1216 11.9281 574 67.0854 1020.87 519.07
856 0 51.1586 12.7838 654 65.4342 1020.71 520.937
857 0 50.0326 12.6717 634 66.265 1021.74 519.894
858 0 54.0824 12.2961 665 65.7474 1021.52 520.117
859 0 56.1908 14.2194 799 63.4668 1021.39 517.772
860 0 55.0449 11.5179 634 67.8691 1021.38 514.948
861 0 60.0583 12.4379 747 67.083 1020.84 518.004
862 0 61.1394 12.7577 780 66.9359 1020.36 515.327
863 0 64.0716 11.8617 760 67.3868 1021.03 516.463
864 0 67.1124 13.8275 928 64.7597 1021.22 515.051
865 0 68.0966 13.2312 901 66.0866 1021.49 512.881
866 0 71.0936 13.6862 973 65.3289 1021.72 512.048
867 0 72.0849 12.1801 878 67.3975 1021.27 511.137
868 0 75.2302 12.2823 924 67.5162 1021.16 509.827
869 0 76.1023 13.1402 1000 65.987 1022.16 510.53
870 0 81.0895 14.6258 1186 64.2572 1021.06 507.013
871 0 84.129 12.8731 1083 65.7119 1021.45 510.158
872 1 40.1296 9.8431 395 70.7949 1021.21 524.137
873 0 45.0996 12.1731 549 66.765 1021.35 524.812
874 0 47.0624 14.0239 660 64.4818 1021.15 522.921
875 0 48.0464 11.926 573 67.7051 1020.84 522.342
876 0 48.0289 11.2224 539 68.616 1020.41 522.184
877 0 52.0279 12.7432 663 65.908 1020.88 520.442
878 0 54.0719 12.6128 682 65.8519 1020.25 519.07
879 0 55.0384 12.246 674 66.9332 1020.23 517.322
880 0 58.1625 13.2044 768 64.9948 1020.65 517.944
881 0 58.0585 11.4023 662 67.6752 1020.42 517.492
882 0 60.085 13.2313 795 65.6113 1020.8 514.475
883 0 62.0778 13.7247 852 65.2876 1020.48 514.784
884 0 63.0216 10.7423 677 68.4165 1020.13 514.947
885 0 66.054 12.838 848 65.9116 1020.83 514.011
886 0 68.1874 11.3657 775 67.9845 1022.01 511.818
887 0 72.1267 13.6011 981 65.2813 1021.13 508.87
888 0 70.1539 10.4342 732 69.4836 1021.46 507.738
889 0 76.1278 12.8468 978 65.6656 1021.72 509.989
890 0 78.1165 10.8684 849 68.4228 1020.2 507.627
891 0 80.1887 13.0816 1049 66.3384 1020.81 504.392
892 1 44.0492 12.1001 533 66.3959 1021.05 521.81
893 0 44.0365 11.5132 507 67.1085 1021.45 521.882
894 0 46.2354 12.3498 571 64.9019 1020.66 523.394
895 0 49.3055 12.5341 618 65.2589 1021.27 518.646
896 0 50.0618 12.5045 626 65.4425 1021.31 518.153
897 0 53.1795 11.8091 628 64.8599 1021.28 519.702
898 0 53.078 12.6983 674 64.7864 1021.29 516.951
899 0 53.1488 11.3643 604 66.7517 1020.95 516.886
900 0 55.1013 10.5079 579 67.3247 1021.51 514.615
901 0 57.0498 12.8835 735 64.2395 1021.13 514.091
902 0 61.2327 12.6893 777 64.1326 1022.05 513.21
903 0 62.0774 11.389 707 65.942 1021.33 510.457
904 0 65.0614 12.8648 837 64.012 1021.5 510.401
905 0 69.1536 12.7253 880 63.4602 1021.26 509.842
906 0 71.0981 11.6318 827 65.7001 1021.76 508.946
907 0 75.0802 12.6798 952 63.354 1021.63 509.318
908 0 75.166 9.53888 717 67.1716 1021.73 509.173
909 0 78.118 9.30644 727 67.3645 1022.32 509.659
910 0 81.2129 12.8797 1046 64.9694 1022.12 504.082
911 0 84.2411 11.9063 1003 65.9422 1023.12 504.351
912 1 44.2285 11.3049 500 65.788 1023.64 521.93
913 0 45.079 11.8681 535 65.1551 1023.38 522.045
914 0 49.218 11.5405 568 65.4666 1022.61 518.824
915 0 48.1276 11.2825 543 66.1547 1022.68 519.372
916 0 49.1134 12.013 590 65.5102 1023.08 518.522
917 0 53.1967 13.4219 714 63.0112 1023.23 518.161
918 0 51.0551 11.1644 570 67.1877 1022.46 516.861
919 0 55.1578 12.2014 673 65.2259 1021.84 515.474
920 0 59.2321 11.6153 688 65.0581 1021.93 515.451
921 0 60.2304 11.2402 677 65.7814 1022.1 514.631
922 0 61.1127 11.6506 712 65.316 1021.95 514.395
923 0 62.1048 11.8831 738 65.3482 1021.23 511.317
924 0 65.1488 10.9749 715 66.0783 1021.44 510.159
925 0 67.0621 13.495 905 63.411 1021.41 505.643
926 0 70.128 13.3328 935 63.1626 1021.18 506.234
927 0 73.1688 13.6944 1002 62.7315 1021.4 505.606
928 0 74.305 13.2293 983 63.6745 1021.77 503.809
929 0 77.1459 12.7032 980 64.4143 1021.82 500.721
930 0 79.1389 12.7876 1012 64.337 1021.89 501.637
931 1 44.1005 9.38765 414 64.6956 1022.55 523.039
932 0 43.0924 8.37735 361 67.0277 1022.44 520.9
933 0 46.0664 12.9161 595 61.4756 1022.13 520.992
934 0 46.124 12.5531 579 62.551 1022.15 518.49
935 0 47.0781 10.1958 480 65.0396 1022.58 517.571
936 0 52.0608 12.3509 643 61.9813 1022.68 516.149
937 0 50.1369 10.232 513 65.0312 1021.83 517.174
938 0 54.145 13.4823 730 60.6397 1021.4 515.834
939 0 55.0636 12.3494 680 62.3059 1021.72 512.637
940 0 55.0955 9.67411 533 65.5554 1021.97 512.021
941 0 58.1439 10.2504 596 64.4329 1021.09 513.423
942 0 61.2107 13.9191 852 60.0047 1021.47 510.689
943 0 63.1534 11.7492 742 62.3181 1021.95 508.832
944 0 65.1039 11.4279 744 62.9906 1022.17 508.733
945 0 67.0886 11.8649 796 62.3354 1021.92 505.112
946 0 69.1514 10.6144 734 63.5422 1022.2 507.711
947 0 72.0437 11.6457 839 62.8343 1022.24 505.088
948 0 75.2017 12.1806 916 62.0775 1022 503.549
949 0 75.0467 11.273 846 63.6028 1021.6 500.686
950 1 39.0815 11.1818 437 59.3707 1022.12 523.89
951 0 39.0435 11.7305 458 59.7969 1022.84 521.179
952 0 41.063 10.6909 439 60.7472 1022.18 520.041
953 0 43.1831 11.6018 501 59.2315 1022.48 521.206
954 0 44.0681 10.8695 479 59.6555 1022.34 520.186
955 0 46.1596 10.5504 487 60.6283 1022.64 517.807
956 0 48.0829 10.4819 504 60.8631 1021.58 517.44
957 0 48.0974 11.3727 547 59.8135 1022.04 515.879
958 0 48.044 9.94922 478 62 1021.26 515.437
959 0 51.1458 10.0302 513 61.3392 1021.86 514.54
960 0 54.0711 10.1348 548 60.6314 1022.71 513.279
961 0 53.1219 10.5983 563 59.9662 1023.2 514.625
962 0 55.0884 10.5104 579 60.1572 1023.11 511.349
963 0 58.0662 10.2814 597 59.9665 1022.4 509.663
964 0 61.1217 9.98009 610 59.5377 1022.55 509.367
965 0 60.1542 10.1406 610 60.2393 1022.4 508.039
966 0 63.0737 9.73464 614 60.1938 1022.25 505.448
967 0 65.203 9.73881 635 60.2094 1022.37 504.951
968 0 67.1996 10.6102 713 59.1907 1022.4 505.794
969 0 70.1595 10.9607 769 59.3498 1022.47 503.346
970 0 73.1034 11.2717 824 58.7439 1022.86 504.961
971 0 71.0705 7.80915 555 62.3928 1022.47 501.346
972 0 76.0815 10.3047 784 59.4605 1021.98 501.805
973 0 80.1209 11.2455 901 58.3696 1021.98 502.205
974 0 81.2132 9.97375 810 59.7864 1022.03 500.641
975 0 83.2834 11.3588 946 58.6099 1022.33 495.997
976 1 46.0776 10.5257 485 57.4206 1021.85 516.002
977 0 45.1419 9.41476 425 59.5365 1022.24 516.842
978 0 49.0553 9.13256 448 60.1138 1022.41 512.81
979 0 51.0393 10.0707 514 58.7101 1022.5 514.809
980 0 52.0508 11.143 580 57.3828 1022.69 513.369
981 0 52.0482 8.58819 447 60.4072 1021.71 511.004
982 0 56.1085 10.9609 615 57.2309 1021.55 510.115
983 0 57.0961 10.8939 622 57.6447 1021.82 509.148
984 0 58.0914 12.7902 743 55.782 1022.05 508.012
985 0 61.1168 11.7316 717 56.4993 1022.26 509.962
986 0 63.1112 9.72886 614 58.1987 1021.98 508.174
987 0 63.0624 10.672 673 57.8054 1021.86 505.779
988 0 65.0572 10.5907 689 58.2395 1021.78 505.129
989 0 70.2664 12.3957 871 55.3731 1021.98 502.173
990 0 71.0696 11.538 820 56.3537 1021.9 501.355
991 0 73.1158 10.5996 775 57.5768 1022.61 502.154
992 0 76.0802 11.685 889 56.5782 1022.55 504.283
993 0 78.163 10.734 839 57.3385 1022.2 501.335
994 0 78.0726 10.5159 821 57.6102 1022.4 497.558
995 0 82.0573 9.38369 770 47.6701 1021.25 502.666
996 1 39.026 6.91846 270 59.4111 1021.47 518.37
997 0 43.1484 10.4291 450 56.6222 1021.43 517.998
998 0 43.0722 7.96337 343 58.7376 1021.98 514.198
999 0 42.1833 10.3596 437 56.6545 1021.57 519.197
1000 0 46.0568 11.3773 524 55.2805 1021.72 513.914
1001 0 47.0441 10.8622 511 55.6712 1021.93 516.084
1002 0 48.0467 11.6969 562 55.105 1021.16 514.424
1003 0 50.07 11.0445 553 55.6618 1021.51 513.038
1004 0 50.0523 9.76979 489 56.8691 1021.34 512.536
1005 0 52.0508 10.4898 546 56.0842 1021.34 513.125
1006 0 53.0259 10.41 552 56.4783 1021.55 510.714
1007 0 55.1007 10.0906 556 56.687 1021.44 512.214
1008 0 55.0466 13.1343 723 54.3956 1021.13 509.369
1009 0 59.0971 11.0158 651 55.9508 1021.32 510.556
1010 0 61.1384 12.5453 767 54.7653 1021.49 507.832
1011 0 62.0447 11.5884 719 56.0209 1021.28 508.117
1012 0 66.0778 11.0325 729 56.192 1021.44 507.034
1013 0 66.0647 11.0498 730 56.4329 1021.28 505.359
1014 0 70.1444 11.1199 780 56.5231 1021.1 504
1015 0 72.1996 14.3491 1036 53.5077 1020.94 503.555
1016 0 75.1702 12.8109 963 55.3084 1020.89 503.082
1017 1 38.0172 11.8631 451 55.173 1021.09 521.41
1018 0 38.1059 11.3106 431 56.7749 1020.46 520.613
1019 0 40.0213 11.7687 471 56.3885 1021.2 521.045
1020 0 38.0807 9.82124 374 59.5588 1020.42 520.658
1021 0 43.0395 12.2678 528 56.0208 1019.99 521.617
1022 0 45.0474 12.5423 565 55.9734 1020.27 518.094
1023 0 45.1264 11.3016 510 57.5039 1021.31 518.341
1024 0 48.0931 13.2867 639 55.3912 1020.75 517.213
1025 0 49.0823 13.2634 651 55.1659 1020.57 517.806
1026 0 49.0488 10.5405 517 58.528 1020.77 517.207
1027 0 51.0411 11.4614 585 57.1368 1020.36 518.769
1028 0 52.1095 12.3202 642 57.0561 1020.41 517.134
1029 0 55.2249 12.3314 681 56.3568 1021.1 517.852
1030 0 56.0853 11.2329 630 58.2175 1020.55 512.508
1031 0 59.0826 13.3373 788 55.6574 1020.73 514.363
1032 0 61.1584 11.6746 714 56.6176 1021.43 516.064
1033 0 63.1643 10.8606 686 58.1458 1020.63 512.662
1034 0 64.1293 11.7575 754 57.191 1020.94 512.544
1035 0 67.1653 11.8067 793 56.6456 1020.04 512.422
1036 0 71.1294 11.2752 802 57.1471 1020.07 511.177
1037 0 71.157 13.8989 989 55.0243 1020.41 507.466
1038 0 75.1653 12.9448 973 56.0432 1020.31 508.144
1039 0 78.0954 12.4591 973 56.4471 1020.37 508.037
1040 0 80.1635 12.5119 1003 57.0977 1020.23 503.216
1041 1 40.0783 10.6791 428 57.6939 1020.2 525.785
1042 0 41.0653 10.6659 438 58.0388 1020.04 523.463
1043 0 45.0552 11.3638 512 57.3574 1019.86 521.449
1044 0 45.1206 9.95112 449 58.7439 1020.2 524.381
1045 0 46.1973 12.6631 585 55.7436 1019.88 524.144
1046 0 49.1241 12.9061 634 55.8123 1020.05 522.297
1047 0 49.1003 14.5417 714 54.4174 1020.44 519.929
1048 0 51.0453 12.1657 621 56.1836 1020.63 519.585
1049 0 51.0736 13.647 697 55.3271 1019.88 517.178
1050 0 55.072 13.5459 746 55.0054 1019.58 518.068
1051 0 56.0542 12.4879 700 55.97 1019.54 517.627
1052 0 58.1087 12.8896 749 55.6662 1020.09 515.653
1053 0 61.3141 12.2158 749 55.263 1019.81 519.067
1054 0 62.2613 12.303 766 56.4282 1019.55 516.078
1055 0 64.221 12.9085 829 56.0193 1019.94 514.252
1056 0 67.1945 13.3642 898 55.4254 1019.65 512.679
1057 0 70.1976 14.4449 1014 54.1588 1018.81 508.986
1058 0 70.0578 13.2319 927 55.4887 1019.03 511.675
1059 0 73.3177 11.5388 846 57.4125 1019.39 511.4
1060 0 73.1334 9.804 717 59.5425 1018.8 508.674
1061 1 38.1438 10.6439 406 57.7094 1020.07 528.081
1062 0 37.0431 9.79941 363 59.2231 1020.77 528.956
1063 0 40.1535 12.6016 506 57.1542 1020.66 527.21
1064 0 40.2534 10.8811 438 58.6027 1019.62 527.559
1065 0 41.0942 11.6075 477 59.4256 1021.1 524.604
1066 0 45.165 11.779 532 58.8966 1020.45 524.37
1067 0 45.1453 11.4076 515 59.0233 1020.48 524.342
1068 0 47.4738 13.2494 629 57.5851 1020.36 523.981
1069 0 46.0664 10.8973 502 60.5797 1020.11 522.209
1070 0 49.243 12.0017 591 59.4585 1019.75 523.548
1071 0 50.138 10.8102 542 60.4373 1020.94 524.736
1072 0 52.2251 13.7673 719 58.0014 1021.1 521.953
1073 0 54.2741 11.8657 644 59.3106 1020.77 521.705
1074 0 54.2619 12.6608 687 59.3071 1021.13 520.681
1075 0 57.1719 11.824 676 60.1154 1020.95 521.176
1076 0 59.2255 13.4402 796 58.2588 1020.39 519.758
1077 0 58.2469 12.756 743 59.3109 1020.63 518.467
1078 0 61.2436 12.0339 737 59.9552 1021.02 514.384
1079 0 65.4007 11.9571 782 59.6675 1021.05 516.537
1080 0 66.5068 12.1491 808 59.479 1021.51 515.733
1081 0 70.1621 11.5447 810 60.2395 1021.1 511.044
1082 0 72.1848 9.53109 688 62.4695 1020.82 511.269
1083 0 72.1036 11.0813 799 61.6758 1020.7 509.26
1084 0 76.2672 11.4597 874 61.3558 1020.94 508.952
1085 0 77.2772 12.9792 1003 60.2822 1020.69 510.275
1086 0 80.3316 11.5646 929 61.24 1020.52 509.168
1087 0 84.1349 10.4832 882 62.3526 1020.52 507.276
1088 0 87.1622 13.0446 1137 59.9956 1021.1 506.893
1089 1 43.1662 14.3168 618 59.1036 1021.17 526.22
1090 0 43.1385 10.5938 457 63.2713 1021.38 526.967
1091 0 45.1331 11.8095 533 63.1126 1020.87 524.63
1092 0 47.1306 11.3727 536 62.6418 1021.29 525.821
1093 0 46.2658 13.2279 612 62.0163 1021.19 523.291
1094 0 50.2909 11.2744 567 63.1658 1021.22 522.984
1095 0 52.3051 12.8668 673 61.8722 1020.76 521.594
1096 0 53.1931 13.31 708 62.1525 1020.89 520.415
1097 0 56.3437 13.3112 750 61.932 1020.7 519.763
1098 0 56.2519 11.4307 643 64.0171 1020.6 518.804
1099 0 60.2191 13.1852 794 62.3413 1021.71 517.514
1100 0 61.166 13.962 854 61.6312 1021.66 517.789
1101 0 65.3715 16.368 1070 58.8168 1021.81 515.257
1102 0 67.4261 14.0005 944 61.3866 1021.53 513.881
1103 0 67.2474 13.3834 900 62.6533 1021.04 513.721
1104 0 71.1491 14.069 1001 61.8292 1021.26 514.34
1105 0 72.2603 12.2612 886 64.2483 1020.67 510.63
1106 0 76.3036 13.8132 1054 62.3567 1021.42 510.041
1107 0 76.0937 11.6041 883 65.2797 1021.55 507.385
1108 0 81.299 12.534 1019 64.1698 1021.89 506.199
1109 1 39.2258 11.7525 461 63.5662 1021.48 528.193
1110 0 42.3456 12.5869 533 62.651 1020.68 526.043
1111 0 43.1981 12.3385 533 63.2495 1021.08 525.694
1112 0 44.3462 13.1691 584 63.2568 1021.12 523.897
1113 0 44.0721 9.07603 400 55.55 1020.37 524.192
1114 0 47.182 12.3988 585 63.6564 1021.08 522.072
1115 0 48.4231 12.9484 627 62.9872 1021.3 522.582
1116 0 50.2014 12.2905 617 64.0016 1021.12 521.446
1117 0 49.1747 12.5471 617 64.0405 1021.3 520.674
1118 0 52.2495 13.091 684 62.9985 1021.26 519.946
1119 0 52.1015 12.0918 630 64.8317 1021.17 519.095
1120 0 55.2669 11.9601 661 64.7685 1021.42 517.669
1121 0 58.0444 13.7309 797 62.6562 1021.73 518.211
1122 0 60.1363 13.3696 804 63.3209 1021.63 514.801
1123 0 60.2356 12.6337 761 64.6675 1021.36 516.296
1124 0 62.0636 11.6493 723 65.8299 1021.37 513.372
1125 0 67.3493 14.8628 1001 61.7782 1021.37 512.394
1126 0 70.1834 13.0515 916 64.2347 1021.22 511.129
1127 0 73.1362 13.2082 966 64.1046 1022.08 510.61
1128 0 74.305 12.8928 958 64.953 1021.96 509.002
1129 0 79.4271 13.6729 1086 63.7836 1021.46 509.052
1130 0 79.2114 14.4676 1146 64.0401 1021.41 504.927
1131 1 40.084 13.3969 537 65.4339 1021.62 524.728
1132 0 43.3794 12.6327 548 66.3285 1021.77 524.695
1133 0 46.2294 11.5078 532 67.1316 1021.97 525.412
1134 0 46.1646 13.4952 623 65.2568 1021.61 524.57
1135 0 49.2428 13.1796 649 65.4792 1021 523.123
1136 0 48.18 14.7157 709 64.6291 1021.15 523.114
1137 0 51.2149 12.5354 642 66.514 1021.24 522.668
1138 0 54.2107 12.6543 686 66.1793 1021.63 520.786
1139 0 55.0825 14.1424 779 64.9692 1021.39 519.773
1140 0 57.3854 13.2089 758 66.3061 1021.49 518.372
1141 0 60.2692 13.0249 785 66.6688 1021.45 517.757
1142 0 62.1204 14.6168 908 64.7015 1022.75 517.332
1143 0 63.157 12.9835 820 66.9037 1021.31 515.071
1144 0 65.1213 13.2676 864 66.8738 1021.47 512.405
1145 0 68.1581 15.1413 1032 64.907 1022.06 512.476
1146 0 69.1687 13.749 951 66.3733 1021.74 512.838
1147 0 74.1209 14.8271 1099 64.6306 1021.63 511.875
1148 0 75.3014 13.9041 1047 65.9026 1021.87 509.818
1149 0 77.1779 14.0066 1081 66.692 1022.07 508.366
1150 0 79.1087 13.5889 1075 67.2623 1021.71 505.247
1151 0 81.2342 13.3564 1085 67.7051 1021.64 506.151
1152 0 88.0916 14.2238 1253 65.9042 1021.62 504.105
1153 0 87.4014 12.5055 1093 68.4053 1021.12 504.11
1154 0 93.2278 15.7249 1466 63.9809 1022.06 502.592
1155 1 44.0668 12.0953 533 66.7355 1021.93 526.764
1156 0 48.1306 14.6061 703 64.6316 1021.7 523.26
1157 0 47.1167 14.2412 671 65.9464 1021.67 522.253
1158 0 49.1876 14.1702 697 64.5452 1021.63 524.498
1159 0 49.0279 13.217 648 67.2778 1021.69 521.211
1160 0 52.112 13.2023 688 67.061 1021.63 520.792
1161 0 57.1934 14.5996 835 64.3701 1021.03 519.311
1162 0 56.2649 16.0669 904 63.3097 1020.9 517.314
1163 0 59.1096 14.6338 865 64.8948 1020.7 515.642
1164 0 61.166 14.7141 900 64.5978 1021.26 515.81
1165 0 63.1127 14.8623 938 64.0736 1021.56 514.199
1166 0 64.2948 12.5516 807 66.6803 1021.03 512.68
1167 0 65.1768 15.573 1015 63.4463 1020.93 514.186
1168 0 68.071 12.4723 849 66.1637 1021.06 513.575
1169 0 70.1063 14.4495 1013 64.4452 1022.12 510.337
1170 0 73.1386 13.4812 986 65.1055 1021.86 509.077
1171 0 74.4229 14.0817 1048 64.1842 1021.43 510.787
1172 0 79.2778 14.8465 1177 63.1436 1021.7 507.936
1173 0 81.1915 14.6074 1186 63.5118 1021.74 507.679
1174 0 82.0997 15.2376 1251 63.6475 1021.06 502.625
1175 0 84.1227 15.6557 1317 62.59 1021.86 501.796
1176 0 89.2193 14.8062 1321 63.1453 1020.74 503.601
1177 0 92.3639 14.1614 1308 63.8547 1021.97 501.579
1178 0 93.1408 12.422 1157 65.9793 1022.37 499.809
1179 0 96.2947 16.543 1593 61.8035 1022.06 496.773
1180 1 49.1348 13.8395 680 63.8088 1022.08 522.428
1181 0 49.0559 11.5379 566 66.4346 1022.18 522.194
1182 0 52.094 13.1877 687 65.131 1021.74 519.9
1183 0 53.0847 13.7893 732 64.6066 1021.82 519.881
1184 0 56.1826 12.8866 724 64.2569 1021.83 522.67
1185 0 56.2222 12.3795 696 65.8506 1021.25 518.659
1186 0 56.0356 14.0982 790 63.6152 1021.84 520.2
1187 0 62.0554 16.7914 1042 60.428 1021.73 517.209
1188 0 61.0627 15.2303 930 62.6452 1021.59 515.075
1189 0 65.1857 12.4414 811 65.7596 1022.25 515.762
1190 0 66.0755 14.4532 955 63.4785 1021.43 515.206
1191 0 69.2476 12.7947 886 65.0135 1021.15 515.459
1192 0 72.1772 13.6608 986 64.1704 1022.37 511.281
1193 0 73.1464 15.6399 1144 62.9318 1022.02 507.523
1194 0 76.1359 12.6484 963 65.3832 1021.35 509.35
1195 0 76.3291 13.2191 1009 65.0634 1021.52 508.021
1196 0 79.0791 14.0113 1108 64.6164 1021.13 506.634
1197 0 83.2497 13.3454 1111 64.5455 1021.43 507.509
1198 0 83.1888 13.283 1105 65.1665 1020.68 504.58
1199 0 88.3392 14.8066 1308 63.409 1021.11 503.12
1200 0 91.2666 15.5479 1419 62.2156 1021.3 501.624
1201 0 95.2317 12.6744 1207 64.7456 1021.21 502.548
1202 0 98.2841 14.3767 1413 63.2781 1021.05 499.123
1203 0 102.273 13.3467 1365 64 1020.93 500.577
1204 0 106.136 14.3118 1519 62.8367 1021.44 498.949
1205 0 110.303 14.5055 1600 62.8862 1021.49 494.442
1206 0 112.173 15.1997 1705 62.3238 1021.85 492.033
1207 1 49.2157 13.0852 644 64.6599 1021.32 522.62
1208 0 52.1064 12.5896 656 66.3902 1021.08 518.421
1209 0 54.1299 13.9664 756 64.5436 1021.14 518.761
1210 0 55.1737 14.3728 793 63.5851 1020.84 519.282
1211 0 57.068 11.7929 673 65.8529 1020.75 519.682
1212 0 61.0604 12.4958 763 65.6252 1021.01 518.971
1213 0 63.2253 13.4598 851 64.9142 1021.66 518.022
1214 0 64.1249 14.3782 922 64.6486 1021.39 513.863
1215 0 66.0912 14.5556 962 64.5676 1020.6 512.468
1216 0 67.0779 13.4172 900 65.5811 1021.89 513.824
1217 0 71.1177 14.1456 1006 64.3529 1021.59 515.478
1218 0 73.2179 13.9993 1025 64.9424 1021.21 511.474
1219 0 78.274 12.5457 982 65.61 1021.03 512.298
1220 0 81.5213 14.2417 1161 64.4126 1021.43 510.138
1221 0 81.172 15.0544 1222 64.365 1021.65 505.791
1222 0 85.1887 12.3491 1052 66.8108 1021.21 505.282
1223 0 86.0814 13.2549 1141 66.1218 1021.2 504.788
1224 0 91.4241 11.8459 1083 66.988 1021.78 505.071
1225 1 44.1804 14.4634 639 65.4726 1021.69 521.405
1226 0 47.1765 15.1559 715 63.7944 1021.56 523.655
1227 0 47.0967 14.3959 678 65.7389 1022.03 522.105
1228 0 54.1238 13.5061 731 65.0342 1021.8 522.133
1229 0 50.1664 13.3755 671 67.2325 1021.86 520.455
1230 0 52.1095 12.5313 653 68.7948 1021.92 519.643
1231 0 57.1806 14.8477 849 64.8551 1021.29 520.792
1232 0 55.0843 14.5777 803 66.2254 1022.35 519.007
1233 0 58.1744 14.2675 830 66.8952 1022.11 516.64
1234 0 59.1049 14.7196 870 66.6862 1022.05 516.279
1235 0 61.2349 14.7138 901 67.8091 1021.72 514.542
1236 0 64.1302 13.6285 874 68.6064 1021.43 513.987
1237 0 65.1594 12.8915 840 69.8917 1021.62 512.908
1238 0 70.177 14.4492 1014 66.9832 1022.3 513.237
1239 0 65.312 12.0805 789 71.4601 1021.72 510.605
1240 0 71.078 14.3223 1018 68.6611 1021.98 510.422
1241 0 74.2889 14.8474 1103 67.952 1022.56 510.335
1242 0 79.4595 14.1707 1126 68.4414 1021.47 509.899
1243 0 81.2064 13.9152 1130 68.6664 1021.99 509.08
1244 0 83.3888 13.527 1128 70.2757 1021.92 505.505
1245 0 89.3337 16.2201 1449 65.793 1022.71 506.261
1246 0 90.1454 14.2658 1286 68.9549 1022.39 501.792
1247 0 94.2723 13.4716 1270 69.2756 1022.73 503.57
1248 0 94.1859 14.6519 1380 68.6507 1022.54 501.062
1249 0 96.3857 12.7509 1229 71.2148 1022.63 496.804
1250 0 100.179 13.466 1349 70.1698 1022.03 498.165
1251 1 54.3083 13.1103 712 68.9635 1022.6 520.861
1252 0 55.1498 13.0372 719 68.9152 1022.27 522.332
1253 0 57.1656 14.0994 806 68.6712 1022.07 518.629
1254 0 59.2698 13.8519 821 68.4884 1021.98 518.909
1255 0 61.2513 14.0079 858 69.1865 1022.36 515.586
1256 0 63.3722 13.4128 850 69.4812 1022.19 515.749
1257 0 63.1227 13.8144 872 69.1972 1022.19 514.155
1258 0 64.0984 13.6041 872 69.1376 1022.12 515.119
1259 0 71.1924 14.4538 1029 67.6492 1022.42 513.022
1260 0 72.1363 14.1399 1020 68.1971 1022.7 511.497
1261 0 73.2233 13.7251 1005 68.6965 1022.61 512.75
1262 0 76.2216 13.7494 1048 69.3397 1022.55 509.442
1263 0 79.0751 13.7591 1088 68.9164 1022.94 509.428
1264 0 82.514 14.6036 1205 67.3826 1023.01 507.934
1265 0 85.1635 14.9595 1274 67.1468 1022.34 506.761
1266 0 87.3022 14.2264 1242 68.7085 1022.14 502.961
1267 0 88.0881 14.0428 1237 69.342 1021.43 503.606
1268 0 92.2959 15.0386 1388 67.866 1021.77 502.668
1269 0 95.2914 14.3035 1363 68.7836 1021.95 502.018
1270 0 101.476 13.5992 1380 69.4783 1021.56 498.348
1271 0 100.192 14.2426 1427 68.7547 1022.37 499.765
1272 0 106.558 14.5366 1549 67.7502 1021.8 498.834
1273 0 106.178 13.2042 1402 70.3688 1021.72 494.108
1274 0 112.241 11.9296 1339 70.9089 1022 495.906
1275 0 117.16 13.3321 1562 69.8988 1021.16 490.471
1276 1 62.1406 12.3913 770 71.4104 1021.64 517.418
1277 0 62.2532 12.2725 764 71.6257 1022.18 519.009
1278 0 67.4191 13.5718 915 69.9246 1022.13 516.259
1279 0 67.3345 12.0592 812 72.8473 1021.7 513.908
1280 0 72.2123 13.0864 945 71.3884 1021.76 512.018
1281 0 74.6907 13.2413 989 70.2214 1023.04 515.389
1282 0 76.5372 13.7449 1052 70.192 1022.36 512.268
1283 0 74.1734 14.3448 1064 71.0122 1022.09 509.052
1284 0 82.5389 13.9449 1151 69.7593 1021.95 509.973
1285 0 84.8361 12.2589 1040 72.0712 1022.56 510.557
1286 0 87.2187 12.9445 1129 72 1021.86 504.278
1287 0 92.4866 14.8021 1369 68.5289 1021.28 504.82
1288 0 93.4234 14.0436 1312 70.4139 1021.86 503.893
1289 0 95.6616 13.4955 1291 71.488 1021.66 502.064
1290 0 101.295 13.6137 1379 70.8339 1022.24 500.258
1291 0 105.469 14.8859 1570 68.8541 1021.97 500.904
1292 0 108.421 14.0471 1523 69.5568 1021.78 501.191
1293 0 110.722 14.4777 1603 69.6725 1021.87 496.823
1294 0 116.262 15.7231 1828 67.4218 1022.28 494.531
1295 0 120.506 14.8706 1792 68.2863 1021.61 494.18
1296 1 61.3695 13.5246 830 68.8241 1021.36 520.572
1297 0 64.5796 13.7969 891 68.2638 1022.32 520.316
1298 0 67.4907 14.0019 945 67.7852 1021.91 519.769
1299 0 68.3133 13.4381 918 69.4074 1021.9 517.59
1300 0 71.6266 13.9613 1000 68.204 1021.5 518.312
1301 0 73.4833 13.4452 988 69.2358 1022.72 516.279
1302 0 73.53 14.3071 1052 69.2319 1022.73 514.973
1303 0 75.6928 12.7093 962 71.1029 1022.03 515.224
1304 0 77.4956 12.6846 983 71.5137 1021.91 512.804
1305 0 81.4466 14.0337 1143 69.5153 1021.68 511.885
1306 0 84.6265 13.6364 1154 69.9731 1022.03 510.085
1307 0 87.4122 14.3001 1250 69.8216 1022 507.482
1308 0 91.2828 15.1179 1380 67.7674 1021.56 508.151
1309 0 93.3035 14.0402 1310 69.5649 1022.15 507.045
1310 0 97.429 12.8914 1256 70.4546 1022.02 504.358
1311 0 100.493 14.797 1487 68.2771 1022.08 501.634
1312 1 51.5939 12.7922 660 70.5742 1022.22 524.862
1313 0 54.6157 13.421 733 69.4857 1021.8 524.922
1314 0 56.482 12.8182 724 70.3923 1021.21 523.148
1315 0 58.6322 13.3715 784 69.4796 1021.33 523.337
1316 0 62.5219 13.8991 869 68.1979 1021.71 523.229
1317 0 64.3563 15.5851 1003 65.9382 1022.31 521.63
1318 0 64.2891 14.3104 920 67.9533 1021.38 520.797
1319 0 67.5704 14.7846 999 67.5966 1020.99 519.161
1320 0 67.4013 13.6347 919 69.1012 1021.1 519.375
1321 0 71.3036 14.0806 1004 67.9074 1020.79 520.121
1322 0 72.3813 13.2078 956 70.2008 1021.19 516.051
1323 0 76.4585 15.3547 1174 67.3705 1020.97 516.274
1324 0 74.4567 13.8067 1028 70.9776 1021.87 513.087
1325 0 78.2204 13.9222 1089 70.0459 1021.9 510.292
1326 0 83.4443 16.502 1377 66.024 1021.53 512.346
1327 0 85.482 15.1143 1292 68.1006 1020.93 509.8
1328 0 89.5056 15.8649 1420 66.4556 1020.89 507.882
1329 0 90.4837 14.0246 1269 68.6588 1021.83 509.777
1330 0 92.5467 14.5548 1347 68.7944 1021.41 503.959
1331 0 96.5145 14.8268 1431 67.8945 1021.4 504.063
1332 0 100.41 15.0284 1509 67.5229 1021.01 502.901
1333 0 104.406 14.4916 1513 67.6854 1021.55 503.33
1334 0 107.394 14.0883 1513 68.5294 1021.56 498.548
1335 0 110.41 14.1653 1564 68.4252 1021.83 499.102
1336 0 113.455 14.1113 1601 68.3136 1021.68 495.518
1337 0 118.784 14.497 1722 67.2927 1021.02 493.208
1338 0 122.461 13.6043 1666 68.6879 1020.98 491.394
1339 1 62.4964 13.7448 859 67.1246 1021.11 522.396
1340 0 62.6632 13.2454 830 68.9253 1021.38 521.54
1341 0 63.5684 13.6231 866 69.5889 1021.38 517.196
1342 0 68.3924 13.9782 956 67.8745 1021.74 519.762
1343 0 70.3701 14.4806 1019 67.8803 1021.12 514.887
1344 0 74.5491 15.1444 1129 66.2312 1021.21 516.097
1345 0 73.5063 12.3663 909 70.7822 1021.32 515.817
1346 0 77.5619 14.208 1102 68.7196 1021.14 514.29
1347 0 79.6735 14.4088 1148 68.9634 1021.21 510.859
1348 0 81.8155 15.0338 1230 67.8195 1021.02 511.52
1349 0 82.3282 14.1142 1162 69.7392 1021.86 507.53
1350 0 87.5002 16.0685 1406 66.4595 1021.39 510.39
1351 0 88.8261 13.5771 1206 70.2048 1021.62 508.247
1352 0 88.6728 12.8224 1137 72.0519 1021.36 503.618
1353 0 95.8418 14.6074 1400 68.5371 1022.14 503.354
1354 0 99.673 14.7783 1473 68.0509 1021.8 503.023
1355 0 103.664 15.7239 1630 66.7239 1021.57 502.672
1356 0 105.394 15.8832 1674 67.144 1021.58 498.186
1357 0 107.605 13.6703 1471 69.9347 1021.74 500.058
1358 0 109.9 14.8772 1635 68.6508 1021.18 496.24
1359 0 115.423 15.7161 1814 66.6714 1021.4 496.249
1360 0 119.581 15.964 1909 66.3075 1021.69 495.14
1361 0 120.688 14.7488 1780 68.5202 1021.8 489.162
1362 1 66.4368 11.605 771 70.7056 1021.5 520.419
1363 0 66.6026 12.9725 864 70.4873 1022.01 516.124
1364 0 68.5027 12.1163 830 71.4554 1021.72 517.923
1365 0 71.9473 14.7886 1064 68.1645 1021.87 516.442
1366 0 74.2623 15.0951 1121 68.38 1022.05 513.385
1367 0 74.4315 13.9726 1040 70.5942 1022.54 512.803
1368 0 79.3797 14.1094 1120 70.192 1022.57 512.454
1369 0 80.4236 13.3294 1072 71.0392 1022.6 514.078
1370 0 83.4091 14.6866 1225 69.9674 1021.8 512.113
1371 0 87.2327 14.8568 1296 68.8079 1021.5 512.555
1372 0 88.3489 15.5746 1376 69.508 1021.3 506.973
1373 0 90.5127 14.6499 1326 70.1342 1022.02 509.683
1374 0 93.461 15.0116 1403 70.134 1022.17 506.634
1375 0 96.5199 14.194 1370 70.5883 1021.72 505.769
1376 0 97.4289 12.7375 1241 72.4448 1021.77 505.249
1377 0 101.703 14.326 1457 70.1668 1021.58 503.552
1378 0 105.528 15.7778 1665 68.9496 1020.89 500.471
1379 0 108.482 14.6384 1588 69.7475 1021.4 500.78
1380 0 113.408 15.4221 1749 68.6615 1021.29 498.081
1381 0 116.63 15.2277 1776 69.8322 1021.18 494.22
1382 0 120.63 16.7704 2023 67.4385 1021.47 491.707
1383 0 125.554 16.2242 2037 67.9033 1021.35 494.994
1384 0 127.676 14.8422 1895 69.5161 1020.96 494.761
1385 0 130.495 14.2917 1865 70.9099 1021.43 489.086
1386 0 137.525 15.8953 2186 68.7246 1021.82 485.941
1387 1 64.742 10.6731 691 75.1404 1022.16 517.618
1388 0 69.6884 14.2491 993 69.717 1021.75 519.039
1389 0 70.4676 13.7794 971 70.5602 1021.71 519.91
1390 0 73.5437 13.9781 1028 70.9854 1021.1 518.658
1391 0 75.7993 13.7072 1039 72.1915 1021.4 513.674
1392 0 78.8934 14.7034 1160 70.6026 1020.92 516.864
1393 0 78.5213 15.2952 1201 70.9475 1020.95 512.822
1394 0 79.5854 13.319 1060 74.6538 1020.78 512.448
1395 0 83.5274 15.1567 1266 71.4028 1020.88 513.702
1396 0 84.5271 15.4507 1306 72.0245 1021.06 511.065
1397 0 87.9774 16.3337 1437 70.8622 1021.73 508.511
1398 0 88.5922 14.4934 1284 73.4229 1021.79 510.361
1399 0 91.3169 14.8275 1354 73.0776 1021.49 507.835
1400 0 93.3673 14.2448 1330 73.9338 1021.12 508.071
1401 0 97.5483 15.2745 1490 72.5805 1021.46 505.623
1402 0 98.4445 15.0643 1483 73.4417 1021.67 503.392
1403 0 102.431 14.8783 1524 73.3819 1020.94 504.561
1404 0 104.567 14.8422 1552 73.52 1021.07 504.183
1405 0 107.35 13.6842 1469 75.7896 1021.15 501.159
1406 0 112.521 15.4549 1739 72.046 1021.01 500.649
1407 0 113.684 14.1708 1611 74.7157 1021.01 497.759
1408 0 118.357 15.487 1833 73.1309 1020.77 493.595
1409 0 123.58 15.6498 1934 71.9891 1020.94 494.61
1410 0 130.504 15.67 2045 71.6284 1021.93 491.423
1411 0 133.592 14.5967 1950 72.8933 1022.01 491.249
1412 1 69.2431 13.6765 947 72.6146 1021.51 521.031
1413 0 73.3581 13.6726 1003 73.0359 1021.37 517.774
1414 0 74.3788 13.4581 1001 72.8482 1020.88 517.643
1415 0 77.5094 14.9659 1160 71.7957 1021.23 513.746
1416 0 80.6732 16.2879 1314 69.5868 1021.33 515.613
1417 0 82.3984 13.6532 1125 72.8907 1021.76 515.703
1418 0 83.2712 13.8824 1156 73.9576 1021.78 512.179
1419 0 86.5771 13.976 1210 72.3702 1021.98 514.402
1420 0 87.3359 13.7286 1199 73.2761 1021.28 512.304
1421 0 93.6548 12.8023 1199 73.9424 1021.23 512.331
1422 0 94.5479 14.966 1415 71.7859 1021.36 509.517
1423 0 92.3988 14.0478 1298 74.1518 1022.01 505.156
1424 0 95.5209 13.9551 1333 73.4681 1021.34 510.083
1425 0 101.368 15.3796 1559 72.7755 1020.99 502.6
1426 0 105.428 14.7115 1551 73.2637 1021.95 503.752
1427 0 108.474 14.9898 1626 73.2042 1021.92 501.442
1428 0 110.494 14.8062 1636 73.437 1021.29 501.492
1429 0 115.36 15.0053 1731 73.115 1021.39 498.376
1430 0 117.395 14.3107 1680 73.6857 1021.84 497.605
1431 0 124.595 15.0327 1873 71.622 1021.26 497.921
1432 0 126.623 14.5471 1842 73.4061 1021.37 493.89
1433 0 129.415 13.8855 1797 74.6361 1021.56 490.6
1434 0 135.125 14.8677 2009 72.6182 1021.75 490.028
1435 0 138.358 14.6938 2033 72.9843 1021.5 487.563
1436 0 143.44 14.4032 2066 72.9743 1021.35 485.924
1437 0 147.288 14.4207 2124 73.2646 1021.61 482.183
1438 0 152.471 14.3306 2185 73.0156 1021.23 483.638
1439 0 157.767 14.3376 2262 72.9134 1020.89 478.611
1440 0 160.569 12.0384 1933 76.4061 1021.39 476.946
1441 1 80.5007 13.0185 1048 72.5592 1021.02 515.971
1442 0 84.4582 13.6162 1150 71.5948 1021.72 515.311
1443 0 86.3893 14.7356 1273 71.1225 1021.38 512.14
1444 0 89.1696 13.6145 1214 72.9152 1021.28 508.689
1445 0 93.638 14.0221 1313 71.8248 1021.46 509.455
1446 0 93.3996 13.6082 1271 72.4422 1021.22 509.033
1447 0 98.8283 13.7714 1361 72.5915 1021.39 503.428
1448 0 102.84 14.6635 1508 71.2633 1021.02 503.076
1449 0 105.331 14.5921 1537 71.2316 1022 503.84
1450 0 107.57 13.6841 1472 73.6515 1021.5 497.875
1451 0 114.266 14.4313 1649 71.8344 1022.1 498.635
1452 0 117.546 13.9775 1643 72.574 1021.97 498.22
1453 0 120.67 13.4084 1618 73.2423 1021.97 494.135
1454 0 125.51 14.0705 1766 71.8896 1021.98 493.201
1455 1 53.4632 12.3075 658 73.9757 1022.04 525.543
1456 0 54.435 13.9616 760 72.6868 1022.54 524.429
1457 0 55.2897 13.0766 723 73.3873 1022.69 524.936
1458 0 57.3444 14.1775 813 72.2239 1021.96 524.268
1459 0 58.4859 12.9775 759 73.6667 1022.26 524.694
1460 0 60.384 14.474 874 72.5263 1022.42 521.2
1461 0 63.3727 15.6219 990 70.6838 1022.57 521.165
1462 0 65.2629 15.9968 1044 70.5852 1021.98 521.648
1463 0 67.2426 15.2433 1025 71.9239 1021.75 520.681
1464 0 69.1986 13.902 962 73.7235 1021.61 518.748
1465 0 70.334 13.7771 969 74.3498 1022.6 514.694
1466 0 73.2573 14.6197 1071 72.028 1021.97 514.619
1467 0 76.4092 14.8673 1136 71.6646 1021.99 512.926
1468 0 80.304 15.0428 1208 70.553 1021.64 513.857
1469 0 81.2458 14.2407 1157 71.8868 1021.55 512.495
1470 0 84.1482 14.9617 1259 71.0898 1021.57 509.757
1471 0 86.4548 14.6551 1267 71.3173 1022.18 509.346
1472 0 92.4321 15.4167 1425 69.1937 1022.35 507.809
1473 0 96.3056 15.5547 1498 68.4599 1023.02 506.538
1474 0 97.2122 14.3809 1398 70.5172 1021.81 502.5
1475 0 101.341 14.4462 1464 69.821 1021.98 501.88
1476 0 104.487 13.9347 1456 70.1868 1021.44 502.203
1477 0 107.388 14.536 1561 69.0999 1021.59 499.462
1478 0 111.365 14.3941 1603 68.9095 1021.81 498.745
1479 1 54.2849 12.1212 658 70.0806 1021.95 525.058
1480 0 58.4215 13.9675 816 67.674 1021.72 523.164
1481 0 59.3581 14.4209 856 66.9883 1022.24 522.3
1482 0 61.3689 15.0728 925 65.9924 1021.81 522.559
1483 0 61.164 12.818 784 68.6913 1021.67 520.522
1484 0 63.3488 12.5654 796 68.5867 1021.87 520.59
1485 0 63.4052 13.7213 870 67.754 1022.16 519.721
1486 0 64.4807 11.8485 764 69.1191 1021.5 519.653
1487 0 67.2652 13.8705 933 66.3312 1021.1 520.775
1488 0 70.3946 14.5182 1022 65.6321 1021.64 518.138
1489 0 71.5191 12.8357 918 67.8181 1022.01 517.632
1490 0 72.3399 14.1692 1025 66.2849 1022.19 515.358
1491 0 74.2633 13.3444 991 67.6085 1021.8 513.622
1492 0 77.3027 14.7214 1138 65.5615 1021.8 514.627
1493 0 79.637 15.1437 1206 65.1385 1021.22 513.456
1494 0 82.3686 15.5035 1277 64.4628 1021.38 512.771
1495 0 84.2147 16.3986 1381 63.3295 1020.74 512.424
1496 0 86.2483 15.2815 1318 65.1146 1020.74 510.392
1497 0 87.5596 14.6415 1282 66.2832 1022.03 510.086
1498 0 90.3302 15.4101 1392 64.9375 1021.31 508.79
1499 0 93.2794 14.7085 1372 65.7252 1021.54 509.344
1500 0 95.4494 16.1028 1537 63.8777 1021.59 507.643
1501 0 96.5041 14.4761 1397 66.2491 1021.53 505.483
1502 0 98.412 14.2157 1399 66.8134 1022.17 503.372
1503 0 100.277 14.6494 1469 65.9782 1021.66 503.577
1504 0 103.491 13.6341 1411 66.9695 1021.24 501.714
1505 0 107.409 16.2836 1749 64.0149 1021.61 498.362
1506 0 110.392 16.1154 1779 63.941 1021.91 498.331
1507 0 115.429 15.49 1788 64.8686 1021.61 495.198
1508 0 116.463 14.6742 1709 66.0544 1021.17 492.712
1509 0 121.269 14.373 1743 66.237 1020.74 494.683
1510 0 125.249 15.6328 1958 65.19 1021.55 490.773
1511 0 127.603 14.9448 1907 66.2659 1021 491.979
1512 0 132.278 15.1348 2002 66.0889 1021.04 488.774
1513 0 135.486 13.8612 1878 67.549 1021.6 488.296
1514 1 62.4772 14.4053 900 66.04 1021.88 521.532
1515 0 60.2841 12.5074 754 68.7082 1021.63 522.582
1516 0 64.2145 14.2335 914 67.6751 1021.58 519.854
1517 0 66.3059 14.3728 953 68.1207 1021.74 519.974
1518 0 66.1218 14.0801 931 69.5177 1020.7 517.736
1519 0 70.1834 15.8157 1110 67.2919 1020.74 518.422
1520 0 70.4123 14.0885 992 69.7651 1020.49 517.492
1521 0 72.5777 14.7428 1070 69.471 1021.16 516.585
1522 0 75.4162 14.6918 1108 68.9323 1021.06 518.204
1523 0 76.3772 14.7688 1128 69.6853 1021.08 514.79
1524 0 77.3225 15.3384 1186 69.5371 1021.27 512.583
1525 0 80.1742 13.2711 1064 71.1654 1021.44 516.446
1526 0 84.6287 15.1485 1282 69.1763 1021.35 511.711
1527 0 88.394 16.3133 1442 66.6442 1021.65 512.54
1528 0 87.1212 13.992 1219 71.0008 1020.89 510.359
1529 0 93.2167 15.1904 1416 68.6667 1020.74 508.213
1530 0 96.241 15.243 1467 68.5562 1020.45 508.271
1531 0 99.1385 15.4128 1528 68.144 1020.59 506.879
1532 0 100.344 14.251 1430 70.3972 1020.27 503.471
1533 0 104.262 15.3652 1602 69.1816 1021.06 500.649
1534 0 109.221 14.9788 1636 69.173 1020.84 498.853
1535 0 112.267 14.1092 1584 70.3302 1021.35 499.993
1536 0 117.361 16.5216 1939 67.5683 1021.18 495.806
1537 0 120.199 15.6657 1883 69.0027 1020.73 495.637
1538 0 125.19 15.9518 1997 68.7682 1021.18 493.458
1539 0 128.194 15.6325 2004 69.7081 1021 491.605
1540 1 65.1253 14.1573 922 70.0098 1020.93 522.548
1541 0 65.2132 13.3715 872 73.0963 1020.83 519.852
1542 0 70.1885 14.3471 1007 71.433 1020.7 518.884
1543 0 69.2864 14.072 975 72.6544 1020.86 519.457
1544 0 71.0508 14.0041 995 73.9477 1020.12 516.318
1545 0 73.1981 14.4812 1060 73.0528 1020.38 517.338
1546 0 75.1467 14.4917 1089 73.6263 1021.69 515.059
1547 0 79.2344 15.3847 1219 71.8482 1020.48 515.229
1548 0 79.1792 14.0062 1109 73.8638 1020.95 513.528
1549 0 83.1966 17.092 1422 69.1941 1021.43 512.361
1550 0 85.1475 15.2441 1298 71.8005 1021.16 512.081
1551 0 86.2758 16.0184 1382 71.1179 1021.48 510.218
1552 0 88.111 15.0038 1322 73.0424 1021.29 509.135
1553 0 89.2048 14.7974 1320 73.5909 1021.79 508.106
1554 0 93.0711 15.8803 1478 71.2652 1021.65 508.704
1555 0 97.2527 14.8274 1442 72.8606 1021.2 507.427
1556 0 99.3008 15.3977 1529 72.7927 1021.17 502.906
1557 0 103.247 16.4557 1699 70.4414 1021.03 503.46
1558 0 107.367 14.7531 1584 72.0739 1020.95 505.276
1559 1 55.0624 12.0954 666 73.949 1021.86 526.39
1560 0 54.1292 13.5417 733 73.3397 1021.29 526.014
1561 0 57.1387 13.686 782 72.8913 1021.03 525.528
1562 0 59.1358 13.3253 788 73.453 1021.32 523.722
1563 0 60.184 13.2759 799 73.03 1022.1 524.235
1564 0 63.1858 15.0192 949 71.1423 1021.66 523.267
1565 0 66.3534 13.9556 926 72.3898 1021.61 522.204
1566 0 64.1173 13.3349 855 75.2491 1021.63 519.796
1567 0 69.1322 14.9858 1036 71.7751 1021.39 518.774
1568 0 70.3131 15.1039 1062 71.0603 1021.71 519.879
1569 0 71.0522 14.3697 1021 72.6787 1021.77 517.69
1570 0 75.2618 13.4597 1013 72.8085 1021.68 518.092
1571 0 77.1504 13.7783 1063 72.4252 1021.16 516.413
1572 0 79.3461 14.5943 1158 71.5147 1021.76 515.149
1573 0 79.1143 14.2326 1126 72.4485 1021.92 513.479
1574 0 83.1634 16.1008 1339 69.0187 1022.25 510.566
1575 0 86.1056 14.9816 1290 70.7822 1021.09 509.888
1576 0 88.1147 15.2869 1347 70.4462 1021.41 508.67
1577 0 90.2376 13.8191 1247 72.5501 1021.56 506.118
1578 0 93.1993 14.1417 1318 72.5099 1021.91 505.297
1579 0 97.2973 15.2933 1488 70.4207 1021.69 504.122
1580 0 101.345 15.8369 1605 69.4816 1020.75 500.09
1581 0 104.374 14.1893 1481 71.4612 1020.51 502.08
1582 0 108.132 14.9631 1618 70.5711 1021.28 501.299
1583 0 111.143 15.7004 1745 69.5673 1021.05 499.365
1584 0 114.169 14.6186 1669 71.0318 1020.77 496.28
1585 1 58.2415 11.5038 670 73.2642 1020.74 524.898
1586 0 62.1032 12.9623 805 71.4857 1020.71 521.535
1587 0 63.2506 14.8299 938 69.7324 1021.25 521.451
1588 0 64.0816 12.7962 820 73.0207 1020.69 517.944
1589 0 68.1324 14.4865 987 70.5765 1020.17 517.505
1590 0 71.2905 14.5742 1039 69.5236 1021.49 519.07
1591 0 70.0903 15.0235 1053 70.2051 1021.56 516.407
1592 0 73.1525 14.668 1073 70.644 1021.11 515.46
1593 0 74.0498 13.869 1027 72.4771 1020.95 512.954
1594 0 75.1559 12.3477 928 74.32 1020.74 514.623
1595 0 81.1022 14.7468 1196 70.4707 1021.14 512.491
1596 0 84.2565 15.4884 1305 69.4498 1020.39 512.979
1597 0 86.222 15.1817 1309 70.304 1020.59 510.189
1598 0 87.0513 14.4398 1257 71.9475 1020.92 508.245
1599 0 92.1723 16.5885 1529 68.4591 1020.54 507.576
1600 0 93.278 14.4836 1351 71.5581 1020.11 507.816
1601 0 97.2672 15.3186 1490 69.9034 1020.46 507.73
1602 0 99.2381 14.2788 1417 71.8271 1020.37 505.009
1603 0 102.238 14.1434 1446 71.657 1020.3 504.242
1604 0 107.185 14.6102 1566 70.484 1020.67 501.522
1605 0 108.056 14.0576 1519 71.7393 1021.1 500.97
1606 1 57.0623 13.4765 769 71.2666 1021.12 523.488
1607 0 58.0659 13.6741 794 70.4912 1020.76 525.351
1608 0 60.0488 13.9886 840 69.9381 1020.33 524.421
1609 0 62.0789 15.1742 942 68.4989 1020.56 523.054
1610 0 66.1986 14.6529 970 68.6546 1021.04 520.714
1611 0 66.0663 14.879 983 69.4344 1022.01 516.945
1612 0 70.2298 14.7658 1037 68.0125 1021.27 520.026
1613 0 71.1437 15.293 1088 67.8621 1021.11 519.365
1614 0 72.0794 11.9035 858 72.1002 1020.89 518.168
1615 0 75.1034 14.1139 1060 70.1566 1022.03 513.205
1616 0 78.2672 14.2588 1116 69.422 1021.21 514.409
1617 0 79.1327 15.3666 1216 68.7426 1021.06 512.206
1618 1 14.0024 8.56998 120 57.9583 1021.47 543.425
1619 0 14.0082 9.06614 127 56.1575 1021.27 543.299
1620 0 12.0097 8.90946 107 58.4579 1021.23 544.056
1621 0 12.0099 10.6579 128 57.1953 1020.96 542.891
1622 0 13.0038 8.22838 107 56.9252 1021.14 543.439
1623 0 13.0344 8.05562 105 56.1619 1021.49 543.733
1624 0 15.0088 12.3927 186 54.3495 1021.24 542.403
1625 0 14.0071 10.7089 150 55.9933 1021.08 541.64
1626 0 13.0058 8.61157 112 55.6786 1020.87 543.357
1627 0 15.0215 10.0523 151 54.5563 1020.68 543.417
1628 0 13.0318 9.89886 129 56.1008 1020.46 543.543
1629 0 15.018 13.051 196 52.8826 1020.9 543.184
1630 0 15.0029 10.1314 152 54.704 1020.45 543.829
1631 0 14.0056 13.9944 196 53.3367 1021.3 542.306
1632 0 14.0061 10.5668 148 53.6554 1021.03 544.169
1633 0 13.0624 9.18666 120 55.2833 1019.46 543.642
1634 0 13.0303 10.7442 140 54.5429 1020.59 542.893
1635 0 12.003 9.91419 119 56.0252 1020.49 542.571
1636 0 12.0023 9.16489 110 56.1182 1020.65 542.873
1637 0 13.0274 9.90219 129 56.0388 1020.53 542.271
1638 0 14.006 11.9235 167 55.2934 1021.16 542.539
1639 0 16.0086 10.2445 164 54.8415 1021.09 543.159
1640 0 14.0078 11.9933 168 53.9583 1020.89 542.47
1641 0 14.0013 11.5703 162 54.6605 1021.75 543.259
1642 0 14.0056 13.2804 186 54.3763 1021.1 541.898
1643 0 13.0012 9.76835 127 55.8819 1020.1 542.394
1644 0 13.0017 11.8446 154 54.0909 1020.58 542.61
1645 0 14.0019 11.2842 158 54.5 1020.6 541.278
1646 0 14.0056 13.923 195 53.6205 1020.79 540.769
1647 0 12.021 9.4834 114 56.7281 1021.16 542.36
1648 0 14.0279 12.9029 181 53.9834 1020.31 542.409
1649 0 15.006 10.4625 157 54.5096 1021.2 542.822
1650 0 12.0025 6.99853 84 57.2143 1020.6 543.679
1651 0 13.0174 7.91249 103 56.6214 1020.93 544.019
1652 0 13.0499 7.04987 92 56.8804 1020.74 543.38
1653 0 14.005 9.42518 132 56.4621 1020.8 542.682
1654 0 14.0272 9.41026 132 55.2348 1020.98 542.303
1655 0 16.0048 10.6843 171 53.9064 1020.74 542.778
1656 0 14.003 13.5685 190 52.8842 1020.86 542.442
1657 0 14.0052 9.56788 134 56.1567 1020.28 542.067
1658 0 14.0269 10.1234 142 56.0211 1020.46 541.352
1659 0 13.1702 10.3263 136 55.4265 1020.51 542.603
1660 0 14.1273 10.1931 144 54.7431 1020.8 543.556
1661 0 14.0034 9.14062 128 56.5312 1019.88 541.875
1662 0 15.0284 9.18262 138 55.9855 1019.93 542.051
1663 0 14.0177 8.70328 122 55.9672 1020.8 543.574
1664 0 15.0078 13.0599 196 52.9184 1020.74 542.398
1665 0 15.0054 12.3289 185 53.1081 1020.58 543.092
1666 0 15.0365 10.3083 155 54.3097 1021.31 543.136
1667 0 15.0085 9.59453 144 55.25 1021.34 543.229
1668 0 13.0027 9.30577 121 55.6446 1021.34 543.793
1669 0 15.0204 10.7853 162 53.8518 1021.61 543
1670 0 13.0148 10.8338 141 54.4184 1021.77 543.064
1671 0 15.0128 12.6558 190 53.021 1021.97 541.7
1672 0 12.0661 8.86781 107 55.3084 1020.72 542.383
1673 0 14.0551 7.75521 109 55.9725 1021.06 542.147
1674 0 13.0012 12.6911 165 53.1273 1020.94 542.667
1675 0 13.0126 6.99321 91 56.1868 1020.89 542.846
1676 0 13.0297 6.52355 85 57.8471 1020.74 542.153
1677 0 14.0141 11.203 157 54.172 1021.35 542.522
1678 0 14.0777 11.5076 162 52.5309 1021.12 543.451
1679 0 16.0592 12.2671 197 52.934 1021.41 541.467
1680 0 16.0365 10.7879 173 54.6301 1021.26 541.029
1681 0 16.0086 12.3059 197 53.8731 1021.22 541.492
1682 0 16.0215 10.5483 169 54.3491 1021.17 542.373
1683 0 17.128 11.852 203 54.1182 1020.91 541.793
1684 0 18.0797 12.998 235 52.2851 1021.54 543.106
1685 0 16.0075 12.1818 195 54.6308 1021.18 541.867
1686 0 17.0665 9.25788 158 55.6392 1020.62 542.968
1687 0 16.0135 10.8658 174 55.8448 1020.78 542.27
1688 0 15.0605 10.2254 154 55.7532 1020.55 542.539
1689 0 17.1198 10.9814 188 53.4734 1021.02 543.516
1690 0 16.0141 12.5514 201 55.1592 1020.66 540.572
1691 0 15.0164 12.453 187 53.6364 1020.28 541.941
1692 0 15.0434 8.10986 122 55.5082 1020.6 542.32
1693 0 15.0324 6.78533 102 57.6078 1019.83 541.774
1694 0 14.0932 9.29527 131 57.0229 1020.49 542.206
1695 0 17.2148 10.9789 189 54.9841 1020.95 541.286
1696 0 17.1551 12.4744 214 54.5841 1020.57 540.748
1697 0 17.0785 12.0034 205 55.561 1021.46 540.78
1698 0 14.0239 11.2665 158 55.1835 1020.09 543.032
1699 0 17.1157 13.9053 238 53.5966 1020.82 540.517
1700 0 16.0367 12.2844 197 54.731 1020.88 540.751
1701 0 14.0036 11.2114 157 56.2038 1020.39 541.096
1702 0 15.0324 9.44625 142 56.5634 1021 541.07
1703 0 13.0055 10.9184 142 57.5704 1020.68 541.577
1704 0 16.0415 13.4027 215 54.7674 1020.43 541.046
1705 0 16.1408 11.0279 178 55.4494 1020.54 542.522
1706 0 16.1652 12.5578 203 54.7635 1020.42 542.054
1707 0 16.0907 11.8702 191 55.5812 1020.44 540.361
1708 0 15.0933 9.9382 150 55.6333 1020.22 541.993
1709 0 15.0884 13.8517 209 54.7656 1020.73 539.904
1710 0 16.3955 12.6254 207 54.5797 1020.76 539.942
1711 0 13.091 5.9583 78 59.7051 1020.33 541.59
1712 0 14.003 10.6406 149 57.0537 1020.7 541.121
1713 0 15.012 9.39248 141 57.156 1020.23 540.454
1714 0 15.0065 10.6621 160 57.8375 1020.24 540.269
1715 0 16.0681 9.14855 147 56.4558 1019.99 541.966
1716 0 15.0498 13.0899 197 56.7868 1020.74 540.863
1717 0 16.1034 12.4818 201 56.7861 1021.17 541.483
1718 0 15.074 10.6806 161 57.4596 1020.98 541.062
1719 0 16.0686 11.1398 179 56.8436 1021.9 541.413
1720 0 16.0711 11.0136 177 56.4294 1020.88 542.045
1721 0 16.1885 9.38937 152 57.6776 1020.68 542.342
1722 0 15.0427 11.6335 175 56.4914 1020.31 542.891
1723 0 14.2374 11.0975 158 58.1772 1020.42 541.215
1724 0 15.1275 10.9734 166 56.8795 1020.68 541.892
1725 0 17.0185 13.926 237 56.1392 1021.37 541.738
1726 0 17.1619 12.9356 222 56.1126 1021.49 541.946
1727 0 15.0157 9.39016 141 57.1844 1021.16 543.901
1728 0 15.0791 9.08545 137 59.146 1020.62 542.526
1729 0 17.0111 11.1692 190 57.079 1020.21 541.874
1730 0 17.1113 11.6297 199 55.4925 1020.41 542.221
1731 0 17.1514 11.7192 201 56.1791 1020.22 542
1732 0 17.149 11.196 192 54.9427 1020.27 543.307
1733 0 17.3795 12.7162 221 55.2851 1020.28 541.588
1734 0 16.0297 12.9135 207 55.401 1021.21 542.048
1735 0 16.0416 13.7767 221 55.3167 1020.95 541.747
1736 0 18.228 12.5082 228 55.4737 1020.45 542.171
1737 0 18.2453 11.5646 211 56.2085 1019.85 541.228
1738 0 16.0238 13.2928 213 56.4648 1019.98 540.338
1739 0 16.0238 12.8559 206 113.505 1018.95 540.131
1740 0 19.1287 12.3898 237 55.3249 1020.82 543.19
1741 0 18.1405 13.8364 251 56.1315 1020.55 541.753
1742 0 16.0256 9.42242 151 59.5364 1021.3 542.974
1743 0 18.036 13.0295 235 57.7957 1020.26 541.732
1744 0 18.1593 10.2427 186 59.2742 1020.98 542.527
1745 0 18.0408 10.1991 184 60.3098 1020.56 542.283
1746 0 19.2557 13.2948 256 58.2969 1020.51 541.477
1747 0 17.011 8.4651 144 62.1042 1020.53 542.326
1748 0 19.1815 12.9813 249 57.5783 1021.04 542.052
1749 0 17.3737 11.5116 200 60.08 1020.71 540.96
1750 0 18.0514 11.5226 208 60.3702 1020.6 540.072
1751 0 18.1712 7.5394 137 62.6642 1020.7 541.847
1752 0 18.0398 9.86705 178 60.4888 1020.72 542.596
1753 0 18.252 11.7248 214 58.9252 1020.89 540.701
1754 0 17.083 8.54649 146 60.7192 1020.77 542.897
1755 0 18.0707 10.7909 195 59.8872 1020.34 539.585
1756 0 17.0823 6.2638 107 63.7383 1020.97 542.402
1757 0 17.1509 11.0198 189 60.2698 1020.5 540.984
1758 0 18.1323 11.5815 210 59.0286 1020.62 540.724
1759 0 18.0706 11.0124 199 59.3216 1021.45 540.337
1760 0 18.1302 11.2519 204 58.6569 1020.89 540.858
1761 0 19.1565 13.2592 254 56.9764 1021.07 540.461
1762 0 19.3253 7.91706 153 61.1699 1020.33 540.314
1763 0 18.129 10.8665 197 59.7919 1020.89 540.132
1764 0 18.2594 13.6916 250 57.316 1021.1 540.7
1765 0 17.1028 11.1093 190 59.0053 1021.04 540.763
1766 0 18.1542 11.1269 202 59.5347 1020.57 538.634
1767 0 18.3216 12.1168 222 58.4865 1020.41 539.536
1768 0 19.151 11.8009 226 58.5044 1020.73 538.283
1769 0 20.51 8.58116 176 59.3636 1020.35 541.739
1770 0 21.1701 12.7538 270 57.2852 1020.66 540.374
1771 0 19.1708 9.44142 181 60.3812 1020.49 541.392
1772 0 19.1134 10.7255 205 59.522 1020.32 540.463
1773 0 21.3509 12.2243 261 56.7893 1021.27 541.272
1774 0 20.1403 11.4199 230 58.1348 1021.51 541.091
1775 0 18.1622 8.97468 163 61.0061 1020.31 540.172
1776 0 20.405 9.16443 187 59.6845 1021.09 541.032
1777 0 20.2542 10.2201 207 58.5556 1020.76 539.242
1778 0 22.3691 11.802 264 56.4167 1020.81 539.686
1779 0 20.3337 9.14739 186 58.9785 1021.4 540.323
1780 0 19.4718 10.1172 197 57.1015 1021.13 541.107
1781 0 20.1821 11.4953 232 56.194 1021.86 539.138
1782 0 18.1979 9.56153 174 58.1724 1021.05 539.856
1783 0 21.3551 10.5829 226 56.2168 1021.11 540.65
1784 0 21.2457 10.9669 233 56.2661 1020.8 539.64
1785 0 20.119 11.3326 228 56.6886 1020.82 539.031
1786 0 20.2613 9.67362 196 58.5357 1020.93 540.265
1787 0 20.1854 12.2861 248 55.6814 1020.85 538.395
1788 0 20.1763 8.62399 174 58.546 1020.75 538.776
1789 0 22.124 13.2887 294 55.5476 1021.53 537.099
1790 0 20.2973 11.5779 235 56.8894 1021.19 538.213
1791 0 20.1659 9.62021 194 58.3866 1020.88 540.165
1792 0 18.0776 11.7272 212 58.4245 1020.89 538.67
1793 0 20.2887 8.52693 173 58.2948 1020.77 540.821
1794 0 20.2941 12.1217 246 57.7846 1020.32 539.468
1795 0 20.3448 12.7797 260 57.1615 1021.25 539.785
1796 0 19.1823 11.3646 218 58.1881 1020.11 540.138
1797 0 22.0605 12.2844 271 57.3542 1021.16 540.085
1798 0 20.3981 10.6382 217 59.9908 1020.26 538.945
1799 0 19.1134 9.83603 188 59.7606 1020.34 540.011
1800 0 22.3803 10.5896 237 58.5949 1020.94 539.118
1801 0 20.3779 8.24422 168 60.8452 1020.19 540.566
1802 0 19.3105 9.78741 189 60.5503 1020.13 540.429
1803 0 21.2745 10.388 221 58.9502 1021.16 539.81
1804 0 18.1599 9.19609 167 60.3353 1020.93 541.353
1805 0 19.1801 8.44624 162 60.679 1020.23 541.691
1806 0 20.3207 9.59615 195 59.8462 1020.77 541.241
1807 0 20.6168 11.835 244 58.541 1020.22 538.857
1808 0 20.0713 14.9965 301 55.0731 1020.22 540.738
1809 0 20.3919 9.95492 203 58.4778 1019.78 540.665
1810 0 19.2046 7.13372 137 60.7518 1019.95 542.139
1811 0 20.4918 10.6384 218 58.2156 1020.96 539.867
1812 0 21.0775 10.0107 211 57.6777 1021.06 541.27
1813 0 21.239 10.1229 215 57.4419 1021.17 541.377
1814 0 19.1092 12.8734 246 57.813 1021.05 538.199
1815 0 21.5791 10.7511 232 58.3836 1020.99 537.53
1816 0 20.2994 8.2761 168 59.006 1020.93 539.744
1817 0 20.2673 8.7826 178 59.5899 1020.93 540.843
1818 0 20.132 8.44428 170 59.8176 1020.65 539.029
1819 0 20.0908 7.06792 142 60.1761 1020.27 539.479
1820 0 20.158 11.2114 226 58.3274 1020.68 538.527
1821 0 21.2914 11.3191 241 58.527 1020.32 537.004
1822 0 22.379 7.64111 171 60.9708 1020.64 539.567
1823 0 22.2822 9.60408 214 58.3178 1019.78 539.827
1824 0 22.0544 11.517 254 57.7795 1020.48 537.858
1825 0 22.4479 8.41948 189 60.3016 1020.42 538.307
1826 0 21.2282 9.9396 211 58.981 1020.49 537.531
1827 0 23.2943 11.2044 261 57.5824 1020.08 537.395
1828 0 23.1205 12.8458 297 57.0606 1020.96 537.63
1829 0 23.1543 12.3087 285 58.0561 1019.98 536.544
1830 0 23.1551 11.4878 266 59.3383 1020.29 537.669
1831 0 22.3552 11.1383 249 58.9839 1020.58 537.024
1832 0 25.5138 11.3664 290 57.9828 1020.89 537.659
1833 0 25.1378 8.67218 218 58.8624 1020.35 539.069
1834 0 23.1411 7.60552 176 61.5341 1020.18 537.466
1835 0 23.1959 10.2173 237 58.6751 1020.22 537.236
1836 0 24.1107 13.1477 317 56.5584 1020.13 536.12
1837 0 23.1158 8.95491 207 59.4058 1020.48 538.058
1838 0 24.2755 10.0513 244 59.6844 1020.48 536.221
1839 0 25.2741 8.78368 222 60.5586 1019.39 536.104
1840 0 25.4565 8.68149 221 61.0181 1019.71 535.127
1841 0 26.4207 11.6954 309 58.2557 1020.8 534.294
1842 0 27.2397 8.33342 227 60.9427 1020.07 534.863
1843 0 24.0796 8.05661 194 62.1443 1020.33 535.175
1844 0 30.1429 13.0047 392 56.4719 1020.35 532.788
1845 0 28.2 10.0355 283 59.424 1020.36 534.332
1846 0 31.3731 11.3154 355 58.2563 1019.86 533.251
1847 0 30.108 10.3295 311 58.0579 1019.85 535.219
1848 0 29.1848 10.1423 296 59.5034 1020.8 533.054
1849 0 33.3419 10.9772 366 58.3497 1020.1 532.257
1850 0 31.0235 10.7016 332 58.7801 1019.71 533.41
1851 0 33.1275 8.81443 292 60.3699 1020.52 532.699
1852 0 33.2423 10.1678 338 58.9172 1020.09 532.515
1853 0 34.4194 10.1687 350 58.7943 1021.04 533.34
1854 0 31.0935 8.07242 251 62.2749 1020.43 531.669
1855 0 34.3546 10.7991 371 58.938 1019.89 530.129
1856 0 35.1861 10.1176 356 58.4438 1020.6 532.062
1857 0 36.2013 10.4416 378 59 1020.52 530.944
1858 0 36.1606 12.7763 462 57.3182 1020.23 529.565
1859 0 37.0354 12.0965 448 58.1384 1020.02 529.578
1860 0 38.0616 10.7195 408 57.9436 1020.34 531.176
1861 0 36.1525 11.894 430 57.6767 1020.21 529.772
1862 0 37.3272 12.6985 474 57.327 1019.93 529.316
1863 0 37.2206 12.305 458 58.1703 1020.39 529.561
1864 0 37.2171 11.7956 439 57.8314 1020.38 529.483
1865 0 37.1086 9.97074 370 59.2027 1020.21 531.776
1866 0 38.3109 12.8684 493 57.2941 1020.71 528.97
1867 0 39.2441 12.9956 510 56.3588 1020.29 530.012
1868 0 39.0977 10.5888 414 59.1449 1020.3 530.391
1869 0 37.1105 13.1499 488 57.1598 1020.32 529.564
1870 0 38.157 14.519 554 56.0361 1020.39 529.143
1871 0 40.3068 11.735 473 57.4567 1020.69 530.359
1872 0 40.0942 10.6499 427 59.5855 1020.97 528.272
1873 0 41.4235 11.1048 460 59.1239 1021.14 526.863
1874 0 43.3297 13.8473 600 56.9317 1020.22 527.448
1875 0 41.1298 10.3331 425 59.9835 1020.01 529.967
1876 0 41.2369 13.2891 548 58.2244 1020.32 527.741
1877 0 42.257 11.785 498 59.745 1019.85 529.474
1878 0 44.1728 10.4136 460 60.6609 1020.03 529.539
1879 0 44.2502 14.4406 639 58.1111 1020.05 526.7
1880 0 45.1524 11.4723 518 60.0444 1020.74 528.697
1881 0 48.3268 13.5329 654 58.1606 1020.36 526.087
1882 0 46.065 11.3969 525 60.4838 1020.26 525.752
1883 0 48.0868 11.6872 562 60 1020.52 526.733
1884 0 47.0305 11.6095 546 61.1538 1020.11 525.346
1885 0 47.1132 11.483 541 61.9556 1020.09 526.625
1886 0 47.0488 12.0726 568 61.6092 1020.25 524.641
1887 0 51.1069 13.0706 668 60.3099 1021.59 524.223
1888 0 50.0502 12.1278 607 62.1582 1021 521.735
1889 0 49.0528 9.68345 475 64.6021 1020.8 524.147
1890 0 52.078 12.4237 647 61.0077 1021.39 524.927
1891 0 53.1278 12.0464 640 62.7766 1020.43 521.072
1892 0 52.0932 13.0151 678 61.941 1019 520.494
1893 0 51.0474 12.1848 622 63.4325 1020.01 523.74
1894 0 53.0569 10.3474 549 67.3534 1020.28 521.053
1895 0 54.1179 12.5097 677 65.7489 1020.1 519.36
1896 0 58.1802 12.5816 732 64.7309 1020.01 518.967
1897 0 58.0569 11.4887 667 66.7706 1020.45 516.998
1898 0 57.0517 11.1828 638 67.6567 1020.48 519.318
1899 0 62.2062 11.8155 735 66.4177 1021.18 518.186
1900 0 62.1139 13.1533 817 65.7846 1021.37 516.561
1901 0 61.0432 10.9595 669 68.0194 1021.36 518.547
1902 0 65.0443 14.4363 939 64.8786 1021.5 514.493
1903 0 65.0593 12.5885 819 67.4615 1021.45 513.674
1904 0 66.0648 10.1113 668 70.497 1020.56 514.754
1905 0 69.0457 11.5286 796 68.5138 1020.91 514.709
1906 0 67.0807 12.239 821 67.9927 1021.35 514.323
1907 0 68.0572 11.1671 760 69.404 1021.61 511.949
1908 0 70.1959 11.9808 841 68.5315 1021.32 506.535
1909 0 71.0321 11.53 819 68.3504 1020.91 513.245
1910 0 71.1623 10.2723 731 70.6142 1021.31 510.089
1911 0 77.1351 10.6307 820 68.5305 1020.93 512.709
1912 0 77.217 14.1679 1094 65.4324 1020.5 507.32
1913 0 80.0804 11.2137 898 68.6904 1020.63 509.228
1914 0 81.2856 11.8717 965 68.5534 1020.91 506.844
1915 0 81.0841 13.5168 1096 67.2172 1020.32 505.245
1916 1 49.0337 10.4826 514 68.535 1020.89 524.71
1917 0 49.0242 11.7289 575 69.6435 1021.28 521.129
1918 0 52.0976 11.6128 605 69.8926 1020.89 520.585
1919 0 53.0294 10.5225 558 70.5538 1020.58 523.391
1920 0 54.0586 11.432 618 70.6116 1020.81 522.403
1921 0 57.0607 11.5316 658 70.3268 1020.32 520.415
1922 0 57.0616 11.3386 647 70.8717 1020.66 521.682
1923 0 56.048 11.0263 618 72.7864 1021.13 520.909
1924 0 58.0997 11.0328 641 73.4883 1021.38 520.142
1925 0 61.0352 12.3535 754 71.252 1021.75 519.373
1926 1 23.0427 8.37576 193 70.3109 1020.58 537.145
1927 0 27.3726 12.202 334 77.6497 1022.11 539.638
1928 0 24.2442 15.8388 384 80.2005 1021.46 541.393
1929 0 24.2916 15.2728 371 80.4447 1021.24 541.881
1930 0 23.2236 14.1236 328 86.0122 1021.03 541.848
1931 0 23.1588 13.7745 319 87.4545 1021.41 541.586
1932 0 23.3614 13.7834 322 87.9037 1021.54 542.655
1933 0 24.2422 14.2726 346 87.0173 1021.79 541.858
1934 0 25.2938 14.3909 364 85.7363 1020.79 543.39
1935 0 24.3998 12.664 309 91.3495 1021.08 543.867
1936 1 117.348 12.2712 1440 68.7771 1020.16 499.958
