time division length width area intensity CMx CMy
0 0 50.1531 13.0201 653 56.8392 954.181 512.919
1 0 50.1416 11.0088 552 58.5888 953.598 512.746
2 0 52.1517 11.8884 620 57.7548 954.111 511.465
3 0 53.12 11.6529 619 57.6624 953.585 511.002
4 0 56.1591 12.5714 706 55.9759 952.905 511.31
5 0 55.0453 13.0801 720 55.5778 952.05 509.386
6 0 57.1249 13.1116 749 55.8344 952.878 510.841
7 0 58.1257 11.0106 640 57.5422 952.98 512.148
8 0 58.0521 10.9729 637 57.7724 952.774 511.554
9 0 61.1284 11.9748 732 56.7773 952.551 509.892
10 0 62.1133 11.4951 714 57.0574 952.478 508.619
11 0 64.2303 10.7426 690 57.4217 951.478 509.774
12 0 65.1009 11.6742 760 56.6671 952.322 507.582
13 0 68.1597 11.165 761 56.8568 952.686 506.873
14 0 68.1679 10.9436 746 58.0389 952.035 506.16
15 0 72.0692 12.1134 873 56.4903 952.448 505.912
16 0 73.2441 12.6017 923 57.4388 953.302 502.397
17 0 76.1106 12.3636 941 57.8725 952.071 502.649
18 0 76.1106 12.2847 935 136.991 952.06 502.513
19 1 39.0158 9.61149 375 58.3413 952.16 519.429
20 0 41.0271 9.77402 401 57.7481 951.995 518.96
21 0 42.0407 12.5593 528 55.5303 952.123 518.36
22 0 43.0226 11.1105 478 57.5084 951.774 518.121
23 0 44.0231 10.4036 458 57.7948 951.69 520.629
24 0 44.0537 10.8958 480 59.5542 952.312 516.3
25 0 48.0733 13.1882 634 56.5047 951.951 516.172
26 0 46.1329 10.3614 478 61.0084 952.27 515.245
27 0 49.1222 12.6419 621 58.3478 951.581 515.973
28 0 51.0645 11.2798 576 59.8073 952.354 516.238
29 0 51.0645 11.2211 573 139.567 952.363 516.305
30 0 54.0497 11.3229 612 60.4297 952.902 515.024
31 0 55.1691 12.1082 668 60.0434 952.891 514.473
32 0 55.0239 11.5223 634 61.5394 952.811 513.782
33 0 57.0809 10.9844 627 61.5837 952.603 512.872
34 0 61.0958 10.9336 668 60.9252 951.792 513
35 0 61.0914 11.9984 733 60.5211 952.584 511.674
36 0 62.0338 12.3803 768 60.8047 953.316 509.785
37 0 64.0738 11.8145 757 61.7213 952.997 508.762
38 0 67.0966 12.0572 809 61.1978 953.242 508.858
39 0 68.1798 12.1884 831 60.7256 953.54 510.946
40 0 70.0866 10.2587 719 64.1655 954.204 507.193
41 0 72.0901 11.2776 813 62.3112 953.498 509.38
42 0 75.0901 12.5849 945 61.9725 952.951 504.333
43 0 77.1005 10.5187 811 64.4809 953.467 504.19
44 1 41.0395 10.234 420 62.6714 953.229 521.117
45 0 41.0262 9.67675 397 63.8741 953.63 520.884
46 0 43.0974 10.7895 465 62.2946 953.516 521.006
47 0 44.1731 10.1646 449 64.3831 953.261 519.127
48 0 45.1257 11.058 499 62.9679 953.244 519.126
49 0 47.0091 12.0828 568 62.3979 953.78 518.993
50 0 48.0911 11.4574 551 63.2178 953.203 517.846
51 0 49.1483 10.0512 494 65.3907 953.455 517.64
52 0 49.0712 11.2286 551 65.0871 953.595 514.916
53 0 50.0263 10.6344 532 65.4323 953.729 516.594
54 0 53.0181 11.4112 605 65.0413 954.031 513.387
55 0 52.0602 9.95001 518 67.6757 953.425 513.467
56 0 54.047 10.0283 542 67.1568 953.398 515.395
57 0 55.179 10.8012 596 67.0705 954.268 512.809
58 0 61.0374 12.779 780 63.8462 954.987 512.136
59 0 61.0443 12.3189 752 64.5891 954.089 512.19
60 0 63.1034 11.4257 721 65.5007 954.528 511.298
61 0 63.076 10.9392 690 66.6159 954.849 510.113
62 0 66.1296 10.6306 703 67.2703 953.69 508.599
63 0 68.0589 12.0043 817 65.8299 953.568 506.856
64 0 70.0648 11.0326 773 67.4644 954.316 504.784
65 1 29.1581 8.26529 241 64.1826 954.88 524.68
66 0 30.0173 9.09475 273 63.1026 954.582 526.304
67 0 31.0122 10.6732 331 62.9698 954.879 522.997
68 0 32.0349 10.1452 325 63.4031 954.055 523
69 0 32.1209 9.55764 307 63.8436 953.655 524.349
70 0 33.0616 9.16471 303 65.3531 953.918 521.422
71 0 34.0471 10.133 345 63.9217 952.928 521.27
72 0 35.0397 9.76036 342 64.2778 953.556 522.442
73 0 39.0182 11.0974 433 61.5589 953.152 520.954
74 0 38.0105 11.5231 438 62.2009 953.354 519.096
75 0 39.0223 9.55863 373 64.2976 954.22 519.96
76 0 40.0285 9.6931 388 63.9665 954.397 520.701
77 0 42.1057 11.4474 482 62.1203 953.753 517.828
78 0 43.0193 12.1806 524 61.3931 954.422 518.628
79 0 44.0209 11.4945 506 63.1186 954.583 515.338
80 0 45.0366 10.1251 456 63.8728 954.294 516.73
81 0 47.0636 11.7501 553 62.0163 953.938 514.62
82 0 49.102 10.7531 528 62.9981 954.568 514.341
83 0 50.0668 11.5646 579 61.7807 954.268 514.499
84 0 50.0532 9.76961 489 64.7403 953.945 513.888
85 0 52.0351 10.3392 538 63.5074 954.225 514.125
86 0 53.1284 9.93819 528 64.6496 954.68 511.566
87 0 56.0911 9.71634 545 64.4826 954.492 511.156
88 0 57.0668 9.9883 570 64.4877 954.467 508.177
89 0 60.0454 10.2423 615 63.5854 954.455 508.927
90 0 59.1212 9.82728 581 64.4974 954.781 506.589
91 0 64.0783 10.6276 681 62.7753 954.606 507.648
92 0 67.0599 10.6323 713 62.2679 954.328 506.926
93 0 66.169 10.8963 721 62.3856 953.703 507.458
94 0 69.0889 10.4214 720 63.7014 953.474 502.55
95 1 35.007 9.48381 332 61.3012 953.313 520.654
96 0 37.0555 9.85008 365 59.7315 953.436 520.255
97 0 38.0981 9.97425 380 59.5132 953.634 517.608
98 0 39.0468 9.39898 367 60.406 953.689 520.191
99 0 39.0326 9.65859 377 59.8488 953.618 518.687
100 0 41.0095 8.77846 360 61.3667 953.983 516.6
101 0 41.0253 9.16507 376 61.0293 954.247 516.58
102 0 43.0747 9.91302 427 60.3958 954.26 516.37
103 0 46.025 10.6029 488 59.2438 953.934 515.561
104 0 46.0102 12.4972 575 58.3235 954.449 513.343
105 0 47.0145 10.3372 486 61.1214 955.062 512.541
106 0 49.0115 8.73264 428 62.0911 953.942 513.484
107 0 50.0148 9.85708 493 61.6734 954.361 511.233
108 0 50.0899 10.4013 521 55.4702 954.257 510.656
109 0 54.0229 10.6251 574 60.223 954.317 510.145
110 0 53.0781 9.58964 509 61.3202 954.635 510.68
111 0 56.094 9.37711 526 61.6407 954.12 507.498
112 0 58.028 12.1665 706 58.9405 954.401 506.275
113 0 60.0771 9.8873 594 61.5825 954.379 505.438
114 0 63.0922 12.2361 772 58.614 954.162 505.106
115 0 65.0239 12.8261 834 58.2782 954.855 502.571
116 0 65.0952 9.98538 650 61.4415 954.702 504.157
117 0 68.0765 10.356 705 61.0865 954.393 502.728
118 0 68.0687 9.22598 628 62.5032 954.44 499.732
119 1 34.0443 8.69455 296 62.1351 954.584 517.862
120 0 36.056 10.1232 365 60.2027 954.189 517.893
121 0 38.058 9.72201 370 59.6892 954.346 519.549
122 0 39.0366 10.9897 429 58.9441 954.518 516.911
123 0 40.0516 11.5851 464 58.0517 954.627 515.67
124 0 40.0782 8.70798 349 61.0917 954.309 517.799
125 0 43.0456 9.33894 402 61.0597 953.468 513.96
126 0 45.0605 11.5844 522 59.0326 953.199 513.13
127 0 45.0519 11.1427 502 58.8466 953.508 513.337
128 0 48.0582 11.7566 565 58.2779 954.83 514.221
129 0 49.048 11.4174 560 58.8179 954.87 510.27
130 0 49.102 9.87739 485 60.8763 954.041 509.515
131 0 51.0224 9.58403 489 60.775 953.798 510.444
132 0 53.0357 11.0869 588 59.3435 953.986 508.798
133 0 53.0488 9.65148 512 60.5918 954.549 510.869
134 0 56.0596 9.82883 551 60.3956 954.492 508.303
135 0 57.1061 9.54364 545 60.844 954.506 507.068
136 0 59.044 9.24734 546 61.163 954.632 504.275
137 0 61.109 10.9149 667 59.0645 954.285 506.649
138 0 61.0309 9.9294 606 60.6386 953.993 504.33
139 0 63.066 8.48318 535 62.2449 954.008 501.357
140 0 68.0618 10.4464 711 60.3333 954.688 500.039
141 0 70.0841 12.1711 853 58.6108 954.503 500.497
142 1 34.083 8.83138 301 60.2126 954.963 520.017
143 0 37.0126 10.1587 376 59.3856 954.383 518.141
144 0 35.0766 8.35315 293 62.1604 955.044 516.116
145 0 40.0521 10.6611 427 58.8431 954.44 516.26
146 0 41.1687 9.66754 398 59.897 954.422 514.812
147 0 42.076 11.194 471 58.741 954.059 516.382
148 0 46.1947 12.404 573 57.4991 954.11 514.791
149 0 45.1544 10.6523 481 60.0541 953.582 514.362
150 0 47.126 12.5833 593 58.371 954.567 514.137
151 0 49.0485 10.4386 512 61.0195 954.246 512.736
152 0 49.0513 10.4788 514 61.9805 954.325 511.385
153 0 53.0579 12.4958 663 59.4012 954.002 512.664
154 0 52.0708 10.7738 561 62.3868 954.788 511.841
155 0 56.0347 11.939 669 60.867 954.619 509.703
156 0 58.1479 11.3676 661 61.3994 954.976 509.958
157 0 59.0684 11.1058 656 61.5305 953.936 505.791
158 0 60.2009 10.7474 647 62.5178 954.379 505.219
159 0 64.0904 11.6086 744 60.8844 953.999 506.605
160 0 65.0271 11.5029 748 61.6444 953.979 504.231
161 0 68.1758 11.2503 767 62.0548 953.956 504.034
162 0 71.0905 12.1957 867 60.9885 953.852 499.991
163 1 36.0771 9.84002 355 59.9775 954.11 519.631
164 0 37.1008 10.9701 407 59.1253 953.509 519.604
165 0 38.0499 10.8016 411 59.3552 954.528 518.654
166 0 38.0242 10.6511 405 60.1284 954.736 515.398
167 0 41.0888 12.2661 504 58.0794 954.171 513.73
168 0 42.1074 9.59452 404 60.4777 954.396 516.047
169 0 42.0544 10.5578 444 59.6239 953.89 516.218
170 0 46.1392 10.36 478 59.1213 954.301 515.879
171 0 47.0946 11.2539 530 59.1358 953.902 513.534
172 0 48.0539 11.0085 529 59.724 954.335 512.374
173 0 47.1291 9.95138 469 61.4072 953.981 510.836
174 0 49.1549 11.4536 563 60.016 954.238 510.277
175 0 51.0336 10.5225 537 60.8696 953.723 510.873
176 0 53.1149 11.3151 601 59.9667 953.837 510.837
177 0 56.0769 12.1619 682 58.7302 953.613 510.613
178 0 56.0607 11.1665 626 60.4121 953.843 508.783
179 0 56.1108 10.408 584 61.0771 954.729 509.8
180 0 59.0565 11.2943 667 60.8636 954.882 506.696
181 0 61.074 11.4124 697 60.3085 954.844 508.063
182 0 61.0502 10.2702 627 62.0925 954.593 505.067
183 0 64.1172 10.0909 647 62.1113 954.11 505.481
184 0 69.0401 11.3992 787 60.1614 953.732 505.494
185 0 67.036 8.83108 592 63.6402 953.387 504.405
186 0 71.0964 11.8712 844 59.6446 952.592 504.788
187 0 72.1462 11.3104 816 60.6569 952.578 502.105
188 0 75.1521 11.6431 875 60.3417 952.185 501.682
189 0 79.1269 11.3741 900 60.4422 952.517 500.23
190 1 40.0331 8.9426 358 60.9274 952.324 516.282
191 0 42.0587 10.4853 441 59.941 951.664 517.1
192 0 45.0821 11.712 528 57.928 952.191 517.458
193 0 47.0356 12.076 568 57.294 952.072 517.371
194 0 47.1349 12.1566 573 58.0244 951.733 515.588
195 0 47.0567 11.858 558 58.7742 950.767 515.407
196 0 48.0327 11.5963 557 59.4883 951.706 515.341
197 0 53.037 12.6327 670 57.1702 952.097 515.681
198 0 53.0567 12.8165 680 57.9824 951.915 514.529
199 0 55.1569 11.4764 633 58.5434 951.021 517.152
200 0 56.1012 11.9605 671 58.4426 950.857 515.127
201 0 57.0781 10.4243 595 59.995 951.471 516.358
202 0 60.0644 12.1536 730 58.8055 950.803 512.26
203 0 61.0578 11.7921 720 58.8806 950.462 513.086
204 0 63.0788 11.8106 745 59.0188 950.491 513.599
205 0 65.0654 10.0053 651 60.874 950.266 512.822
206 0 67.1281 12.5432 842 58.3088 950.042 511.443
207 0 67.0791 10.4503 701 60.4223 950.89 510.096
208 0 70.1262 11.2797 791 59.9886 950.65 510.07
209 0 72.1241 12.6171 910 58.5758 950.325 509.99
210 0 73.1182 11.0233 806 60.9305 949.826 507.342
211 0 76.1275 10.9028 830 60.8892 950.246 505.763
212 0 75.0593 9.88551 742 62.4164 950.101 505.62
213 0 79.1308 12.2329 968 60.4215 949.226 502.721
214 0 81.1559 11.7182 951 61.1262 949.179 504.183
215 0 82.0584 11.4187 937 62.5752 948.992 498.99
216 0 86.0429 11.1689 961 62.5151 949.049 496.24
217 0 89.1101 11.671 1040 62.3087 948.652 497.97
218 0 91.0664 11.2885 1028 62.7481 948.211 494.536
219 0 97.0633 13.6612 1326 59.6878 949.105 493.239
220 0 99.2133 13.1736 1307 60.6197 948.266 493.652
221 0 99.2133 13.1636 1306 117.861 947.294 493.626
222 0 102.157 12.0501 1231 62.6759 948.945 490.37
223 0 106.353 11.396 1212 63.297 948.746 486.192
224 0 105.086 9.73486 1023 65.3314 948.517 483.031
225 0 113.091 12.2733 1388 61.9416 947.981 483.119
226 0 118.129 13.0281 1539 60.8687 948.329 482.775
227 0 120.15 11.9767 1439 62.4454 947.772 478.862
228 0 126.111 12.7586 1609 61.2461 948.855 478.575
229 1 63.103 10.6176 670 62.0612 949.057 505.037
230 0 68.0643 11.3275 771 61.2023 948.825 504.297
231 0 68.1262 10.7448 732 61.9508 948.978 504.542
232 0 71.1045 13.234 941 59.2529 949.447 503.555
233 0 73.0891 11.616 849 61.0636 949.342 502.797
234 0 77.1428 12.0167 927 60.3042 948.74 500.826
235 0 77.1235 11.9678 923 61.0206 949.011 498.545
236 0 82.2595 10.7708 886 62.342 949.296 497.164
237 0 83.0758 11.1464 926 61.6782 948.875 494.079
238 0 88.128 12.1982 1075 60.1144 949.458 494.794
239 0 91.1041 12.4473 1134 60.5441 949.419 490.759
240 0 92.1598 13.227 1219 60.0025 949.605 488.445
241 0 97.2099 12.8382 1248 60.363 949.613 489.804
242 1 52.1019 11.0553 576 60.1094 949.653 511.387
243 0 54.0977 9.96345 539 61.6252 949.25 508.325
244 0 56.0627 10.2385 574 61.4425 948.909 509.207
245 0 57.0582 11.3568 648 60.8241 949.593 509.551
246 0 61.0789 10.4291 637 61.1868 950 508.936
247 0 63.0552 12.719 802 58.9052 949.249 506.794
248 0 65.1891 13.1157 855 58.4328 949.889 506.653
249 0 65.1788 10.2334 667 61.7631 950.301 505.724
250 0 67.1034 13.0098 873 58.8854 950.018 504.3
251 0 68.0586 9.80037 667 62.3628 949.555 502.813
252 0 73.143 10.0762 737 61.2022 949.605 504.265
253 0 75.1036 10.5188 790 61.3101 949.584 503.59
254 0 77.2328 9.96985 770 61.5221 950.256 501.826
255 0 82.1224 11.1419 915 59.6645 949.748 504.141
256 0 85.089 10.965 933 60.3301 949.674 498.845
257 1 38.1542 7.41726 283 60.0459 950.074 521.385
258 0 41.0508 9.50043 390 57.8795 950.185 521.964
259 0 44.0671 11.0513 487 56.4168 949.803 519.71
260 0 46.038 12.2725 565 54.3239 949.561 520.471
261 0 48.139 10.4281 502 56.2729 949.444 521.612
262 0 48.0514 10.7177 515 56.1786 949.619 519.138
263 0 48.064 10.5484 507 57.2426 950.278 518.209
264 0 52.0324 10.2628 534 57.0449 949.676 518.251
265 0 51.1107 11.4262 584 56.5223 949.428 518.063
266 0 54.0368 9.84514 532 57.5395 948.848 518.327
267 0 55.0692 10.0964 556 56.7158 948.835 517.061
268 0 58.2501 11.5708 674 55.5964 948.752 515.592
269 0 60.0912 10.118 608 56.903 948.743 515.015
270 0 60.1479 11.8707 714 55.9664 948.776 514.27
271 0 62.0942 11.708 727 56.1802 948.678 510.911
272 0 64.0678 10.2079 654 57.6697 948.685 512.315
273 0 67.1355 11.6183 780 55.3667 948.451 515.254
274 0 69.0689 10.3665 716 57.0656 948.694 511.126
275 0 71.1045 10.8151 769 56.5982 948.194 510.671
276 0 74.1607 11.3672 843 56.2705 948.221 509.67
277 0 76.1117 11.3649 865 56.5283 948.384 508.546
278 0 76.1358 12.215 930 56.3226 948.542 505.49
279 0 79.0928 12.871 1018 55.6965 948.542 506.088
280 1 39.1184 8.51262 333 58.991 949.078 522.862
281 0 43.0677 10.2165 440 56.8977 948.232 524.016
282 0 44.0276 10.8341 477 56.7904 948.12 524.809
283 0 44.0152 10.0647 443 57.6975 948.485 524.345
284 0 45.027 10.8379 488 56.9508 948.135 523.203
285 0 48.0436 10.6154 510 56.5431 947.382 520.922
286 0 49.1833 11.142 548 56.6478 947.715 520.974
287 0 50.108 9.89862 496 58.5242 947.599 520.688
288 0 52.0962 11.7283 611 56.6007 947.73 517.558
289 0 50.1327 9.11581 457 59.9891 947.578 516.451
290 0 54.1451 12.4111 672 56.2842 947.689 517.461
291 0 56.1102 12.1725 683 56.6867 947.96 517.274
292 0 57.0767 10.1618 580 59.219 947.714 517.829
293 0 58.1133 8.38019 487 60.7454 947.858 517.63
294 0 61.1072 10.457 639 59.5916 948.113 514.588
295 0 61.0926 11.1143 679 59.0442 948.019 514.27
296 0 66.1515 11.262 745 57.9893 947.507 513.381
297 0 67.1694 11.2254 754 58.3316 947.064 513.65
298 0 69.1949 10.9546 758 59.4921 947.483 509.582
299 0 72.1697 12.3459 891 57.9012 947.595 508.585
300 0 73.2281 9.62745 705 60.8241 948.172 510.871
301 0 76.1585 11.8569 903 59.1406 947.638 503.848
302 0 76.1465 9.98076 760 61.171 947.341 502.339
303 1 39.1435 9.45239 370 58.9757 946.919 522.589
304 0 41.1489 11.1303 458 57.0786 946.515 521.854
305 0 41.1489 11.1546 459 118.148 945.51 521.819
306 0 44.1077 9.70353 428 58.2874 946.481 519.652
307 0 45.0788 11.0695 499 58.0681 945.914 521.944
308 0 48.0355 11.5123 553 57.5063 947.168 520.761
309 0 48.0923 11.4779 552 57.9638 947.072 519.127
310 0 49.0144 9.97666 489 59.6646 946.164 520.744
311 0 54.0296 11.9009 643 56.8072 946.986 519.784
312 0 53.0735 12.3037 653 57.4043 946.286 516.429
313 0 54.0448 11.879 642 57.9642 945.701 516.103
314 0 53.0246 10.1839 540 60.7815 946.533 515.633
315 0 57.0352 11.8874 678 58.6047 946.451 514.136
316 0 58.0807 10.2444 595 59.8202 946.592 516.141
317 0 61.1681 12.8171 784 57.3597 946.967 514.321
318 0 60.0605 10.5727 635 59.7591 946.858 515.019
319 0 63.1487 11.5442 729 59.2016 947.384 510.06
320 0 63.085 11.6985 738 59.6992 946.877 510.79
321 0 64.0352 10.6816 684 60.6579 946.273 509.787
322 0 66.1353 10.5541 698 60.7593 946.511 510.238
323 0 69.1173 10.9669 758 60.095 946.367 511.053
324 0 72.1509 12.9312 933 58.0729 947.092 508.02
325 0 72.0973 11.318 816 60.0515 946.751 505.942
326 0 77.099 12.9314 997 58.2728 947.533 503.711
327 0 79.1103 12.0844 956 59.4236 947.414 504.884
328 0 81.0925 11.2834 915 60.7475 947.793 503.836
329 0 84.1662 14.0318 1181 57.8552 947.235 500.832
330 1 45.0245 9.8835 445 60.1214 946.596 523.33
331 0 47.1345 10.5867 499 59.8236 946.627 522.517
332 0 47.0467 11.8393 557 60.3429 947.205 517.828
333 0 50.0336 10.6328 532 61.2237 947.656 518.773
334 0 50.0729 10.7643 539 61.3414 947.827 519.555
335 0 53.0756 11.8322 628 59.6529 946.858 518.691
336 0 54.1486 11.727 635 60.1669 946.989 517.715
337 0 56.037 11.5281 646 61.2415 946.785 514.389
338 0 58.1251 11.9053 692 60.685 947.308 515.21
339 0 59.2202 11.8203 700 61.43 947.469 512.864
340 0 62.1105 13.9912 869 58.7572 947.7 510.043
341 0 63.209 12.1502 768 61.0534 946.7 510.599
342 0 64.3436 13.3502 859 60.0314 947.319 508.398
343 0 65.0695 12.2177 795 60.7522 947.301 513.225
344 0 67.1559 12.0764 811 61.127 947.131 510.244
345 0 70.1365 14.2009 996 59.1918 947.513 506.496
346 0 72.1168 11.6478 840 61.8238 947.488 508.835
347 0 75.1296 13.2172 993 60.4753 947.049 506.848
348 0 77.049 12.5505 967 61.092 946.974 504.559
349 1 40.046 8.39035 336 62.494 946.771 523.327
350 0 40.0878 10.452 419 60.9451 946.73 522.893
351 0 41.0968 11.4364 470 59.8957 947.155 522.372
352 0 44.064 10.5074 463 60.5248 946.646 522.456
353 0 42.0185 9.7338 409 62.7995 947.098 520.068
354 0 45.0342 11.1471 502 61.3785 947.301 519.002
355 0 48.0727 11.025 530 60.7151 948.111 520.183
356 0 47.0273 11.993 564 60.5514 947.821 518.037
357 0 49.069 11.6367 571 61.352 947.799 517.792
358 0 52.1752 11.3272 591 61.3063 947.519 516.961
359 0 51.0137 11.8596 605 60.7025 947.145 517.464
360 0 52.0707 10.3705 540 62.5852 947.807 516.111
361 0 54.0573 12.5237 677 61.2511 947.369 513.96
362 0 57.0791 10.5818 604 62.4007 947.3 514.829
363 0 58.1322 12.3684 719 60.8999 947.316 512.893
364 0 59.0868 12.1008 715 61.993 947.508 511.438
365 0 59.284 11.3521 673 63.0089 948.01 510.618
366 0 63.1512 11.8604 749 62.7316 948.259 511.199
367 0 66.0781 13.136 868 61.1751 946.889 510.456
368 0 66.065 11.2162 741 64.3293 947.453 507.897
369 0 67.2053 11.6211 781 64.4776 947.762 508.379
370 0 69.089 11.2464 777 65.39 947.649 504.894
371 0 75.0933 12.5311 941 63.6376 947.679 505.623
372 0 76.1006 13.1536 1001 63.5764 947.221 504.236
373 1 38.1077 9.89301 377 63.1777 947.83 523.507
374 0 37.0455 8.34109 309 65.5696 948.129 522.657
375 0 41.0408 9.33218 383 63.436 948.11 523.595
376 0 42.1226 10.8968 459 62.7298 948.368 522.627
377 0 43.0957 10.3259 445 64.191 947.883 521.42
378 0 43.0957 10.3026 444 131.777 946.903 521.482
379 0 45.0934 12.2191 551 62.9292 947.223 521.156
380 0 45.158 10.0093 452 66.3274 947.166 519.949
381 0 48.0636 12.8788 619 62.3716 946.788 519.976
382 0 49.0165 11.0779 543 64.1123 946.744 519.683
383 0 49.0739 9.61815 472 67.4322 947.451 517.926
384 0 50.0488 9.79045 490 67.0735 947.42 516.253
385 0 54.1113 13.1211 710 62.9521 948.114 515.416
386 0 54.028 10.1244 547 66.3035 947.36 516.283
387 0 55.0312 10.7939 594 66.0522 947.084 515.002
388 0 56.1488 10.579 594 66.3401 947.195 515.298
389 0 57.1025 9.98205 570 67.6298 947.446 512.137
390 0 61.0721 10.4467 638 66.7947 948.05 511.466
391 0 64.0786 11.3298 726 65.1832 948.685 513.618
392 0 64.0897 11.0002 705 66.5759 948.461 509.887
393 0 64.0417 10.3839 665 67.6376 948.298 509.738
394 0 68.1026 11.2184 764 65.9463 947.861 509.213
395 0 70.0834 12.5422 879 64.5142 947.671 508.628
396 0 71.1822 11.0702 788 66.9048 948.039 506.755
397 0 74.077 10.7861 799 66.9149 947.636 504.867
398 0 76.1683 11.3039 861 67.0825 948.13 503.209
399 0 78.1204 12.2247 955 66.0743 948.18 504.158
400 0 79.0572 10.8402 857 68.4912 947.887 502.278
401 1 42.2164 10.4225 440 63.8659 947.902 523.857
402 0 43.0625 10.775 464 63.6573 948.2 522.834
403 0 45.0882 11.2003 505 64.4297 948.685 521.527
404 0 46.0442 10.2076 470 64.3787 948.968 521.043
405 0 48.0779 11.523 554 62.3394 948.996 521.289
406 0 46.1286 11.1644 515 64.4621 948.425 518.996
407 0 49.2018 11.5036 566 63.6802 949.118 519.062
408 0 50.1143 10.7554 539 65.0408 948.289 517.362
409 0 52.0567 10.162 529 65.0851 947.945 519.24
410 0 52.0809 11.5781 603 64.4975 947.357 515.605
411 0 54.1422 12.0239 651 63.874 947.255 517.118
412 0 57.1376 12.2511 700 62.96 947.301 516.256
413 0 57.1856 11.2266 642 64.852 947.777 515.137
414 0 59.0381 11.0437 652 65.3819 947.643 514.245
415 0 60.1272 11.01 662 65.0408 947.366 516.565
416 0 62.0565 10.8611 674 65.5772 947.107 514.985
417 0 63.0839 12.0791 762 64.4606 947.579 513.433
418 0 66.1722 10.7296 710 66.531 947.723 512.354
419 0 68.1342 11.5801 789 65.5843 946.682 509.875
420 0 71.0726 12.1988 867 64.5017 946.431 509.14
421 0 74.1098 11.9417 885 64.7514 946.272 508.776
422 0 75.1286 10.888 818 66.6015 947.216 507.225
423 0 76.2475 11.0299 841 66.3092 947.354 507.043
424 0 80.1034 10.6987 857 66.5368 947.197 504.047
425 1 41.0485 9.9882 410 61.3585 946.807 526.434
426 0 41.1522 9.16112 377 64.061 947.098 524.714
427 0 41.0226 8.77565 360 64.4167 947.103 522.706
428 0 43.0547 9.98729 430 63.793 947.616 522.335
429 0 47.0998 10.2548 483 62.0807 947.07 520.923
430 0 48.0891 11.6243 559 60.415 947.352 522.072
431 0 47.0102 10.3807 488 62.9385 946.803 521.432
432 0 48.0657 10.2984 495 62.0525 947.137 520.121
433 0 50.0502 10.4895 525 61.9371 946.75 518.819
434 0 53.0613 10.9684 582 61.6151 947.689 516.357
435 0 53.0613 10.9873 583 60.8902 948.136 519.65
436 0 56.1514 12.7869 718 58.3259 947.896 517.46
437 0 57.2244 10.5724 605 61.1868 947.907 515.802
438 0 58.1044 10.9286 635 60.5906 947.584 516.153
439 0 58.0953 11.4983 668 60.0808 947.061 513.659
440 0 59.107 10.5064 621 60.7746 946.593 516.85
441 0 60.107 10.8806 654 60.9113 947.249 513.193
442 0 65.1122 11.5186 750 59.328 947.5 513.457
443 0 66.167 11.3349 750 60.1053 948.06 511.596
444 0 66.1663 10.519 696 61.7859 947.569 508.826
445 0 68.0978 10.9401 745 61.1638 947.948 508.924
446 0 70.1957 9.27407 651 63.4731 947.96 507.012
447 0 74.0855 12.8905 955 58.9267 947.382 505.554
448 0 74.0801 10.1377 751 62.1931 947.438 504.178
449 0 76.0958 10.0137 762 62.3176 947.287 504.083
450 0 78.1733 8.5707 670 63.9761 947.7 503.287
451 0 81.1306 11.3767 923 61.3965 947.134 500.802
452 1 45.1431 9.83539 444 59.3806 947.5 523.714
453 0 45.0781 11.0697 499 59.4529 947.738 521.898
454 0 46.0737 9.72355 448 61.3013 947.328 520.882
455 0 48.0374 11.2621 541 59.1756 948.255 521.665
456 0 48.0256 11.0983 533 60.2064 947.782 519.448
457 0 51.075 9.94615 508 60.3386 947.516 520.22
458 0 51.0555 10.5767 540 60.4204 947.818 517.906
459 0 53.0996 10.9982 584 59.7808 948.19 516.99
460 0 56.0749 11.128 624 59.1971 947.343 515.426
461 0 56.0406 11.1705 626 59.3403 946.773 514.843
462 0 56.0663 8.25809 463 62.7797 946.825 513.998
463 0 59.1106 10.861 642 60.0888 946.358 510.668
464 0 61.0472 10.582 646 60.0542 946.723 511.991
465 0 64.0739 10.7064 686 59.7055 947.34 510.484
466 0 63.0604 10.149 640 60.5656 947.186 509.597
467 0 68.0818 12.0737 822 57.4027 946.502 511.448
468 0 71.0531 10.6821 759 59.4203 947.822 507.793
469 0 72.127 11.2995 815 59.4184 947.169 504.618
470 0 74.0716 10.7194 794 60.2758 946.917 502.589
471 0 78.1667 11.9488 934 58.9101 947.03 502.425
472 0 82.0715 10.6249 872 60.3991 946.946 502.749
473 1 42.0778 9.98151 420 57.8 946.748 522.424
474 0 42.0496 8.48998 357 59.8515 947.709 524.249
475 0 44.0227 8.85907 390 60.7154 947.764 521.841
476 0 46.0186 9.86557 454 59.3678 946.736 520.634
477 0 48.0303 10.4101 500 59.302 946.426 519.688
478 0 49.0708 12.0846 593 57.8297 946.877 519.363
479 0 49.1566 10.0902 496 59.9093 947.129 520.528
480 0 53.214 9.4712 504 61.3433 947.444 517.647
481 0 55.0967 10.9988 606 59.5627 946.916 515.505
482 0 55.0511 9.1188 502 62.3108 946.837 514.353
483 0 59.0582 11.3617 671 59.2921 946.993 517.279
484 0 59.1168 10.5385 623 60.878 947.185 515.247
485 0 60.1975 9.03692 544 63.5882 946.535 513.868
486 0 63.1574 9.12006 576 63.1354 947.215 514.523
487 0 65.1554 10.851 707 61.2687 946.997 510.457
488 0 66.1641 10.081 667 62.1784 947.457 511.159
489 0 69.0974 10.8542 750 61.1507 947.535 509.213
490 0 71.041 10.9092 775 61.4142 947.492 507.912
491 0 74.1036 10.7687 798 61.386 947.931 506.898
492 0 77.099 10.8432 836 61.5359 946.993 504.664
493 0 80.1377 11.1558 894 60.5459 947.306 505.324
494 0 81.2289 11.2152 911 60.7574 947.653 502.597
495 1 42.0658 8.96216 377 60.5782 947.639 521.342
496 0 43.0444 8.10791 349 61.0315 946.948 522.57
497 0 44.0283 10.1753 448 59.0223 947.306 522.08
498 0 45.0248 10.2166 460 59.7696 946.95 520.05
499 0 45.0269 9.4388 425 60.4071 947.358 521.984
500 0 48.016 10.6215 510 59.3373 947.596 518.555
501 0 50.0681 10.5456 528 59.4242 947.894 518.036
502 0 50.0403 9.87204 494 60.8988 947.883 519.405
503 0 51.0321 9.36665 478 62.6611 948.249 514.835
504 0 53.026 10.1837 540 61.1296 948.126 514.396
505 0 56.0796 10.2533 575 60.6591 948.181 515.69
506 0 55.0627 9.51643 524 62.5363 948.063 514.103
507 0 60.0405 10.8427 651 60.5161 947.905 513.453
508 0 62.0584 11.4408 710 60.0775 947.789 512.097
509 0 63.2406 10.1991 645 60.9984 947.741 513.919
510 0 65.0362 9.1795 597 62.0553 947.31 512.638
511 0 67.0327 12.5759 843 58.6797 947.397 509.261
512 0 66.0596 11.1415 736 60.9878 947.832 507.325
513 0 69.1141 12.1104 837 59.7145 947.342 509.857
514 0 73.1516 10.7038 783 60.8391 947.544 509.811
515 0 73.0877 11.192 818 60.7775 947.467 508.346
516 0 74.2051 10.4575 776 61.4923 946.652 506.554
517 0 78.1724 13.0609 1021 57.904 946.589 506.243
518 0 81.1525 11.4969 933 60.09 947.1 505.546
519 0 82.082 12.39 1017 58.885 946.891 503.919
520 0 84.1323 10.3765 873 61.8316 946.577 501.077
521 0 87.2348 11.3143 987 60.5937 946.901 503.464
522 0 91.0913 11.5488 1052 59.9202 946.975 501.565
523 0 91.13 10.0735 918 62.7211 946.739 495.623
524 0 93.1319 11.2958 1052 61.1445 946.432 496.782
525 0 95.134 9.93336 945 62.7228 946.329 496.668
526 0 101.125 12.7169 1286 59.6788 946.673 493.732
527 1 52.05 8.83765 460 59.95 947.191 519.937
528 0 53.0625 10.4782 556 59.4263 946.547 518.164
529 0 53.1859 9.08135 483 60.2029 946.801 519.344
530 0 57.0529 10.1485 579 60.1762 946.394 516.244
531 0 58.0341 8.49501 493 61.8073 946.57 518.105
532 0 61.0655 11.4795 701 58.408 946.006 515.437
533 0 60.1365 10.1768 612 60.4199 946.1 512.06
534 0 62.0794 9.18179 570 60.8825 946.005 514.639
535 0 67.1651 12.1938 819 57.9182 945.984 512.973
536 0 66.0497 8.645 571 62.5779 946.021 511.053
537 0 70.0445 11.5212 807 60.2528 947.011 505.404
538 0 71.0831 11.3248 805 60.3739 946.717 504.553
539 0 74.3082 11.0351 820 59.872 947.12 509.4
540 0 74.172 11.0419 819 61.0708 947.186 504.269
541 0 78.0633 10.9655 856 60.7675 945.901 506.581
542 0 82.0723 10.6735 876 61.4441 946.905 503.97
543 0 84.1545 12.2037 1027 60.5706 946.511 501.545
544 0 87.0658 11.6119 1011 61.2255 946.852 502.436
545 0 90.2005 12.2948 1109 60.7304 946.296 500.2
546 0 91.0763 12.6158 1149 61.0244 946.394 499.641
547 0 95.1054 11.1981 1065 62.3643 946.516 500.07
548 0 96.0953 11.4262 1098 63.0146 946.751 494.331
549 1 57.0534 10.1659 580 62.2586 946.117 519.022
550 0 57.092 11.5778 661 62.2526 946.684 514.714
551 0 58.1644 11.1236 647 63.3292 945.853 514.348
552 0 61.075 10.6918 653 63.8928 946.106 514.608
553 0 62.1107 11.8015 733 63.1064 947.39 511.914
554 0 63.0759 10.9075 688 64.4971 946.561 513.148
555 0 66.0344 12.6146 833 62.072 946.329 511.071
556 0 68.0175 13.2907 904 61.3208 946.353 511.008
557 0 69.1398 12.7134 879 62.1377 946.146 510.144
558 0 72.0687 12.4465 897 62.6622 946.265 507.188
559 0 74.0807 13.2288 980 61.4326 945.644 505.837
560 0 75.1308 12.3385 927 62.8328 946.494 506.313
561 0 76.0923 11.486 874 64.3089 946.801 505.148
562 0 82.0754 13.2439 1087 61.8068 947.018 503.014
563 0 84.1138 13.0419 1097 62.3938 947.046 502.131
564 0 85.0968 14.0311 1194 61.2571 946.301 502.415
565 0 90.0807 13.0217 1173 62.2626 945.965 499.118
566 0 89.1771 11.2248 1001 64.8222 946.265 501.09
567 0 94.1196 13.2916 1251 62.243 946.325 496.306
568 0 97.1584 13.1435 1277 62.9146 946.304 491.659
569 0 100.098 13.7866 1380 61.7565 945.97 493.538
570 0 102.127 12.4061 1267 63.9471 945.769 491.801
571 1 50.0838 8.72538 437 66.2792 945.659 515.691
572 0 54.031 10.568 571 62.7583 946.093 518.79
573 0 55.0804 8.49667 468 66.1026 946.31 516.466
574 0 57.0239 12.1353 692 62.7428 946.39 514.902
575 0 58.0787 11.4155 663 64.0845 946.629 513.606
576 0 62.0599 12.1979 757 62.856 945.939 514.184
577 0 60.0866 11.317 680 64.6838 946.56 510.324
578 0 63.0856 10.7156 676 66.3432 947.275 509.72
579 0 67.1113 12.6357 848 62.888 947.375 510.08
580 0 67.0963 9.777 656 67.0152 947.564 510.425
581 0 70.0766 12.786 896 63.423 947.693 508.138
582 0 71.0733 12.3394 877 64.1551 947.51 505.737
583 0 74.0609 12.8408 951 63.1861 947.979 508.146
584 0 78.1054 13.661 1067 62.5361 947.017 504.343
585 0 79.1015 12.5661 994 65.0865 947.341 502.977
586 0 83.1091 13.1755 1095 64.0292 947.449 503.105
587 0 84.1219 12.684 1067 65.2437 946.905 501.004
588 0 86.0733 12.5939 1084 65.3662 947.008 501.257
589 0 89.1046 13.6132 1213 64.352 946.711 499.274
590 0 91.1239 13.4542 1226 65.1933 945.905 496.094
591 0 95.127 13.2875 1264 65.6361 946.248 495.929
592 1 49.1025 13.1561 646 62.3684 946.11 519.135
593 0 50.0374 12.5107 626 63.845 946.304 516.912
594 0 50.1155 10.0967 506 66.1186 946.407 518.682
595 0 52.0528 12.7947 666 63.7643 946.401 515.77
596 0 52.0383 12.2602 638 64.7022 947.044 517.176
597 0 57.0905 12.2087 697 63.8264 946.116 514.001
598 0 58.0527 12.0752 701 63.4408 946.85 515.508
599 0 59.2156 13.2735 786 62.8448 946.662 513.866
600 0 60.0877 12.4984 751 63.8269 946.241 511.055
601 0 63.1283 14.1141 891 61.587 947.443 510.879
602 0 65.0711 13.6927 891 62.3042 947.382 509.346
603 0 68.0419 12.3747 842 64.2482 947.514 507.876
604 0 69.0261 10.9958 759 65.4005 947.224 506.634
605 0 70.2174 10.3251 725 67.0317 947.586 504.303
606 0 74.1585 12.3115 913 64.5991 947.656 505.758
607 0 76.0239 13.0748 994 64.7193 947.428 502.064
608 0 79.1254 11.7914 933 65.5573 946.98 504.428
609 0 81.0627 11.8797 963 66.4756 947.174 499.648
610 0 83.1022 11.913 990 66.3717 947.31 501.931
611 0 85.2579 14.157 1207 64.7945 947.2 495.397
612 1 44.1399 10.2855 454 65.9934 947.639 518.295
613 0 44.0215 11.4035 502 64.753 947.683 520.857
614 0 47.0592 12.2399 576 64.8038 947.851 518.444
615 0 48.0815 11.1685 537 65.9832 948.071 518.032
616 0 49.0136 12.8536 630 64.8222 947.903 516.37
617 0 52.0318 11.3777 592 65.9409 948.363 517.701
618 0 50.0633 10.9262 547 68.0951 947.497 513.728
619 0 54.08 11.9083 644 66.0031 947.682 516.54
620 0 56.1154 11.9575 671 66.462 947.851 513.835
621 0 56.0356 11.2607 631 67.1854 947.738 514.621
622 0 59.0604 11.666 689 66.9492 948.212 514.266
623 0 60.0831 11.7005 703 66.8023 947.576 513.77
624 0 62.034 12.4287 771 66.358 947.086 509.516
625 0 67.0659 13.0618 876 64.7717 947.022 513.071
626 0 67.1398 12.1984 819 66.7912 946.482 508.626
627 0 68.1077 10.8358 738 69.149 947.08 507.938
628 0 74.0342 12.967 960 65.6062 947.449 508.345
629 0 74.0742 11.745 870 68.4138 947.347 507.072
630 0 77.1134 11.2562 868 68.8813 947.532 505.823
631 0 79.1438 11.8139 935 67.1861 947.191 507.681
632 0 82.083 10.9158 896 69.7946 946.74 503.559
633 1 43.1028 9.62816 415 67.3783 947.306 524.089
634 0 44.1802 11.0457 488 67.4734 946.779 520.873
635 0 45.0319 11.725 528 67.1023 947.102 520.724
636 0 47.0578 13.324 627 65.2344 947.802 519.904
637 0 47.0637 11.5588 544 68.3382 948.448 517.936
638 0 51.0672 10.868 555 68.2504 948.106 517.98
639 0 53.0734 11.3616 603 67.2985 947.881 517.716
640 0 53.0467 10.7452 570 68.0509 947.314 517.796
641 0 56.115 10.9775 616 68.4821 947.586 516.141
642 0 56.0276 10.1914 571 69.4221 947.033 515.086
643 0 59.1383 11.1265 658 67.9833 947.298 513.468
644 0 60.1135 10.6133 638 67.4169 946.607 515.382
645 0 63.0974 12.0924 763 66.2778 946.36 510.752
646 0 66.0626 11.2772 745 67.3463 947.101 509.236
647 0 67.0532 11.6475 781 67.4379 947.675 506.723
648 0 69.0919 10.7249 741 67.5695 946.486 508.862
649 0 73.1643 12.1507 889 65.3375 946.694 507.589
650 0 75.0817 11.3343 851 67.4324 947.383 505.146
651 0 79.1061 12.9699 1026 64.9561 947.311 503.326
652 1 38.0296 8.73005 332 66.9277 947.864 522.937
653 0 44.0497 11.3735 501 62.4671 946.872 523.008
654 0 43.0233 11.3892 490 64.0694 947.594 521.159
655 0 44.0129 10.0198 441 65.6463 947.807 521.433
656 0 49.0411 12.1327 595 61.4992 947.59 521.487
657 0 49.1068 11.2408 552 64.2681 947.955 516.71
658 0 50.015 12.0764 604 63.0795 947.639 515.747
659 0 49.0082 9.65145 473 66.0042 947.197 517.973
660 0 51.0774 8.59481 439 67.0433 948.173 519.255
661 0 52.0762 9.65892 503 66.0239 947.859 517.499
662 0 56.0679 10.5586 592 64.7568 947.623 512.434
663 0 59.0955 11.2022 662 63.2145 946.977 513.051
664 0 61.037 10.3708 633 63.5513 947.071 512.566
665 0 63.0355 12.5802 793 61.1274 947.642 511.871
666 0 62.0281 11.2046 695 63.3295 947.488 510.472
667 0 65.0655 11.0043 716 62.6564 947.128 510.515
668 0 67.0732 10.6004 711 62.8959 946.927 508.346
669 0 68.1603 10.2112 696 62.7644 946.885 509.092
670 0 71.0618 11.1734 794 61.5088 947.134 507.518
671 0 73.1452 9.70673 710 63.0155 946.924 504.772
672 0 75.0587 8.92635 670 63.9015 946.767 505.464
673 1 38.0186 8.83778 336 61.1042 947.143 521.946
674 0 39.0385 7.3261 286 61.7937 947.685 525.22
675 0 40.0278 8.2193 329 61.6413 947.249 521.672
676 0 42.06 10.5563 444 59.232 947.119 521.423
677 0 42.0971 8.67044 365 60.8767 946.855 522.819
678 0 41.022 8.53201 350 62.1029 946.931 517.883
679 0 45.0404 10.6349 479 59.6722 946.969 517.058
680 0 46.0475 9.92454 457 60.6018 946.221 517.801
681 0 47.0658 8.49875 400 62.71 946.6 518.308
682 0 48.0175 9.3091 447 61.8546 946.949 517.045
683 0 48.0804 9.42171 453 62.0993 947.689 516.534
684 0 50.0712 10.0856 505 61.3584 947.406 515.36
685 0 55.1075 11.9222 657 59.2938 946.775 513.767
686 0 58.0478 13.6267 791 57.024 947.022 512.709
687 0 58.0599 10.5753 614 60.8453 946.91 512.621
688 0 60.059 9.92357 596 61.7299 946.753 511.498
689 0 63.1621 11.0193 696 60.194 947.161 513.29
690 0 66.1074 12.4041 820 58.2659 946.759 511.199
691 0 67.1211 11.6655 783 59.8314 946.973 509.382
692 0 69.1171 12.0086 830 59.5446 947.661 508.595
693 0 72.1192 11.0511 797 60.453 946.732 508.124
694 0 74.1373 10.9257 810 60.6321 946.544 506.856
695 0 76.1191 11.0485 841 60.6694 947.357 505.194
696 0 76.0656 9.92564 755 62.3007 947.028 505.23
697 1 39.0259 11.1977 437 59.6842 947.652 521.659
698 0 39.0199 11.0457 431 60.6172 947.766 522.234
699 0 42.03 10.2546 431 60.8446 947.165 521.749
700 0 40.0407 10.5642 423 61.4752 947.577 521.092
701 0 44.0987 10.6352 469 61.1599 947.574 520.951
702 0 45.03 10.9705 494 61.1721 947.423 519.33
703 0 45.018 10.8179 487 62.2402 947.423 518.573
704 0 48.0293 10.7434 516 61.5136 947.43 519.599
705 0 50.0331 11.4524 573 61.4031 948.033 515.466
706 0 49.0278 10.3003 505 63.2297 948.145 515.689
707 0 53.0491 12.5167 664 60.0467 948.241 516.566
708 0 52.0877 10.5399 549 63.1767 948.058 514.894
709 0 58.0648 12.8477 746 59.3861 947.582 515.114
710 0 58.1108 11.2371 653 61.9096 947.655 512.383
711 0 59.1051 13.2307 782 47.3018 946.738 514.884
712 0 62.0851 10.7433 667 62.4138 947.032 513.01
713 0 63.1652 13.1401 830 60.3663 947.437 509.34
714 0 65.0804 10.8789 708 62.5297 947.316 509.886
715 0 69.0352 11.0523 763 62.1966 947.549 508.992
716 0 72.0246 11.621 837 61.2007 947.478 509.367
717 0 74.2175 12.0861 897 60.8439 948.074 508.479
718 0 73.1307 10.8573 794 62.8111 947.684 506.096
719 0 76.0671 12.1603 925 60.9805 947.122 506.443
720 0 79.0675 12.4324 983 61.2014 946.975 502.09
721 0 80.0884 12.174 975 62.1744 947.491 499.584
722 1 42.0153 9.49654 399 62.3058 946.19 522.09
723 0 43.0219 11.3198 487 60.6591 946.815 522.012
724 0 45.0261 11.3934 513 60.4366 947.279 520.602
725 0 43.037 9.87522 425 63.5435 947.449 520.671
726 0 46.0537 11.0089 507 62.1775 947.718 520.03
727 0 48.0386 12.594 605 60.362 946.83 518.889
728 0 49.0459 12.0092 589 61.8149 946.598 516.285
729 0 49.0336 12.1549 596 61.4077 946.349 516.992
730 0 50.0793 10.743 538 63.4164 946.942 515.121
731 0 52.0711 10.0632 524 64.1412 945.908 514.803
732 0 54.063 12.3744 669 61.4574 946.601 514.274
733 0 57.0712 13.3167 760 60.2895 946.633 512.242
734 0 58.0806 12.7926 743 61.0417 946.746 511.54
735 0 59.0384 13.4489 794 59.762 947.175 512.417
736 0 64.1191 12.9915 833 59.6759 947.531 513.672
737 0 63.1622 12.6816 801 60.4307 946.996 510.834
738 0 67.1075 13.8882 932 58.7307 946.596 508.07
739 0 67.0751 13.552 909 59.9076 946.561 507.399
740 0 70.2191 12.4183 872 60.9805 946.61 507.819
741 0 71.1068 13.5711 965 60.0238 946.863 507.572
742 0 75.1286 13.3238 1001 60.034 946.651 504.815
743 0 75.0422 11.1271 835 62.818 946.432 505.884
744 0 79.1701 12.9089 1022 60.9589 946.483 503.169
745 1 38.0108 11.3389 431 60.7309 946.722 522.905
746 0 39.0141 9.66318 377 62.9416 946.501 522.618
747 0 39.0808 10.6702 417 62.9041 946.146 520.851
748 0 42.0141 11.4962 483 61.501 946.3 521.352
749 0 41.0564 11.0823 455 63.2132 946.004 518.8
750 0 43.0887 11.1398 480 62.3958 946.696 520.54
751 0 46.1058 10.7145 494 62.9109 946.356 520.425
752 0 47.1719 9.87875 466 64.5172 946.215 519.075
753 0 49.0212 11.2808 553 62.4322 946.64 520.011
754 0 50.0894 11.7789 590 62.4322 946.268 517.458
755 0 50.0403 11.9104 596 62.8154 946.53 516.054
756 0 52.0605 12.2166 636 62.3019 946.805 515.972
757 0 54.1123 11.3468 614 63.0228 946.743 516.995
758 0 57.0994 13.783 787 60.5565 947.49 514.197
759 0 59.0816 13.0667 772 60.7966 946.965 513.21
760 0 60.0572 11.7555 706 62.3711 946.919 513.204
761 0 62.1009 11.4813 713 62.6564 947.101 513.734
762 0 62.0443 11.4434 710 63.5014 947.086 511.459
763 0 67.1217 11.9037 799 62.4105 946.009 510.837
764 0 68.0664 12.2968 837 62.4552 946.661 509.082
765 0 71.085 11.4511 814 63.2568 946.398 509.323
766 0 73.0655 12.7146 929 61.8418 947.652 507.368
767 0 72.1072 10.5953 764 64.949 946.613 505.929
768 1 39.1055 10.8169 423 61.0638 946.279 524.225
769 0 41.1076 9.00076 370 63.3595 946.154 523.462
770 0 42.0833 10.9782 462 60.7294 945.678 523.918
771 0 41.0135 10.9964 451 63.0953 946.9 520.051
772 0 44.0561 11.4399 504 62.0179 946.436 519.778
773 0 47.0948 11.5512 544 61.6342 946.436 519.824
774 0 48.1266 11.449 551 62.3757 946.18 518.944
775 0 47.1329 10.2476 483 64.5259 946.923 518.282
776 0 51.04 11.3832 581 61.9793 946.759 518.907
777 0 53.0747 13.2643 704 60.3849 946.266 516.122
778 0 52.058 10.7572 560 63.4768 946.03 517.33
779 0 53.0609 9.64929 512 65.2285 945.977 513.67
780 0 57.0974 11.892 679 62.782 945.594 514.44
781 0 61.0487 12.8258 783 61.3716 946.544 513.529
782 0 60.0676 11.5703 695 63.3799 946.54 513.127
783 0 62.0618 11.3758 706 63.7011 946.633 511.657
784 0 63.1169 10.8687 686 63.9636 946.933 512.888
785 0 68.0661 12.6495 861 61.2718 946.078 511.282
786 0 69.0909 13.1132 906 60.8234 945.807 510.3
787 0 71.0686 11.313 804 63.2848 945.555 508.95
788 0 71.1029 10.4496 743 64.852 945.787 506.389
789 0 76.0615 11.8062 898 63.0356 945.416 506.797
790 0 79.12 11.7669 931 63.073 945.816 504.983
791 1 41.0098 10.0951 414 62.2729 946.121 523.094
792 0 43.0421 11.4771 494 60.3988 946.03 523.356
793 0 41.0632 11.1048 456 62.511 946.632 523.544
794 0 47.0368 11.7355 552 60.2192 946.92 521.574
795 0 46.0253 10.9288 503 62.2386 946.763 520.511
796 0 49.1326 10.9907 540 61.9296 945.804 521
797 0 49.0402 11.3784 558 61.3853 946.288 520.251
798 0 48.0435 10.095 485 63.1443 946.142 518.806
799 0 50.0702 10.2656 514 63.2549 946.944 516.957
800 0 51.1518 8.6605 443 64.1761 946.44 516.492
801 0 55.1439 11.1526 615 61.3512 946.337 513.761
802 0 57.0365 11.5365 658 60.7675 946.131 513.973
803 0 58.09 9.55414 555 63.1694 946.701 513.914
804 0 60.0589 10.6395 639 61.3678 946.413 512.85
805 0 63.0923 11.507 726 59.8361 946.087 512.222
806 0 64.1033 9.0635 581 61.8141 945.942 509.694
807 0 67.0488 9.30666 624 61.2468 946.325 509.822
808 0 69.0845 12.1156 837 58.8865 946.161 505.805
809 0 70.0635 11.1899 784 59.2003 947.458 508.677
810 0 71.0192 9.20878 654 61.4236 946.786 507.761
811 0 75.0918 11.4127 857 59.2532 947.089 505.263
812 0 77.1948 10.6484 822 60.444 946.766 501.547
813 0 78.0407 10.4433 815 59.4135 945.913 505.532
814 1 41.0378 9.35722 384 58.9297 946.94 520.945
815 0 44.1062 9.001 397 57.6625 946.668 525.176
816 0 44.0166 11.3593 500 57.046 946.662 520.524
817 0 42.0943 9.05111 381 59.4567 946.407 521.685
818 0 45.0984 12.3729 558 56.2742 946.575 518.846
819 0 46.081 11.4147 526 57.0437 946.091 518.603
820 0 49.0129 11.3236 555 57.1243 946.322 518.521
821 0 51.1015 12.5241 640 55.7375 946.247 518.789
822 0 52.1138 11.2062 584 57.7979 946.377 517.144
823 0 54.2427 9.75247 529 58.741 946.446 517.529
824 0 54.1028 10.3691 561 58.574 946.312 512.788
825 0 54.0829 10.2435 554 58.6372 946.825 516.449
826 0 55.0871 9.7482 537 59.4637 946.592 513.078
827 0 58.0613 10.8334 629 58.3275 946.73 512.924
828 0 60.1539 13.0997 788 55.8185 945.916 512.591
829 0 61.131 10.3875 635 58.5717 945.526 511.663
830 0 63.1442 9.05863 572 59.4476 946.016 512.621
831 0 63.0766 10.9074 688 58.436 946.932 510.31
832 0 69.0842 9.29301 642 58.5249 945.765 511.045
833 0 71.0773 8.48372 603 59.7197 946.244 504.64
834 0 72.1551 8.02438 579 59.6822 946.185 510.406
835 0 75.1499 10.3926 781 57.7029 945.868 508.371
836 0 76.2069 10.0385 765 58.5346 945.967 505.703
837 0 82.1505 12.6232 1037 56.3057 945.795 501.92
838 0 83.095 12.0344 1000 56.635 945.32 502.639
839 0 86.1842 9.71176 837 59.0048 945.666 503.453
840 0 89.148 12.4063 1106 57.0832 945.99 498.276
841 1 47.0797 12.7868 602 55.0365 946.046 520.55
842 0 50.0204 10.4357 522 57.3199 946.124 521.176
843 0 49.0848 10.3902 510 58.2412 945.543 519.855
844 0 48.134 8.08161 389 61.509 945.419 516.391
845 0 53.1045 11.9575 635 56.7606 946.356 517.635
846 0 53.0647 10.6285 564 58.2074 946.33 516.014
847 0 56.1435 12.4146 697 56.5825 945.884 513.651
848 0 57.0854 10.8959 622 57.9823 946.225 514.582
849 0 61.0746 12.8531 785 55.3796 946.062 513.864
850 0 63.0505 11.5304 727 56.4016 946.136 513.369
851 0 65.0949 11.9671 779 56.2041 945.376 508.686
852 0 65.1917 9.8172 640 58.0781 945.822 509.544
853 0 69.0975 12.287 849 55.5147 945.681 508.607
854 0 71.1628 11.5931 825 56.1976 945.396 507.335
855 0 75.0844 11.6535 875 55.1474 945.611 506.857
856 0 77.0874 12.7907 986 54.142 945.327 504.502
857 0 79.0545 12.1309 959 54.8113 946.41 501.559
858 0 81.0659 10.695 867 55.6482 946.053 503.268
859 0 83.1552 11.8213 983 54.8403 945.872 501.864
860 0 83.0738 10.1476 843 56.4816 945.99 498.1
861 0 86.0913 11.302 973 56.813 945.485 497.201
862 1 44.0903 7.93825 350 57.4457 945.106 521.72
863 0 43.0961 8.46944 365 58.2301 945.797 519.732
864 0 49.0735 9.61822 472 56.4174 946.068 518.466
865 0 47.112 10.0399 473 57.222 946.194 518.937
866 0 51.0127 11.7422 599 54.808 946.561 520.624
867 0 52.028 11.34 590 55.9424 946.034 517.429
868 0 55.121 11.5564 637 55.8273 945.801 516.294
869 0 56.0622 11.4872 644 56.0093 946.879 515.561
870 0 57.1692 10.8625 621 56.9549 945.784 514.332
871 0 57.0696 11.2494 642 57.271 946.067 512.844
872 0 62.2356 11.0708 689 56.685 945.807 510.952
873 0 61.037 10.0922 616 58.2224 945.734 511.248
874 0 64.3915 10.7934 695 57.1928 945.662 509.479
875 0 69.1304 11.5868 801 56.3745 945.27 511.563
876 0 69.073 11.0173 761 57.4113 944.827 506.647
877 0 73.0971 11.2316 821 56.8441 945.409 506.838
878 0 74.0951 11.9981 889 56.4128 944.819 504.486
879 0 77.0324 12.1118 933 56.314 944.777 506.757
880 0 79.1903 11.062 876 58.1393 945.071 503.994
881 0 84.1481 14.938 1257 54.6881 944.861 501.672
882 0 87.1704 12.9516 1129 56.4606 945.332 501.222
883 0 86.1106 11.6827 1006 58.497 945.027 501.337
884 0 96.1509 13.9468 1341 55.6078 944.465 498.369
885 0 97.1181 13.0563 1268 57.2011 945.419 496.613
886 0 100.089 12.4889 1250 57.9896 946.622 493.044
887 0 101.236 11.7744 1192 58.7542 945.784 494.968
888 1 51.1093 10.096 516 58.1686 946.202 519.936
889 0 53.0732 10.9283 580 57.5931 946.491 517.852
890 0 54.0827 11.9077 644 56.5419 944.798 517.848
891 0 56.1569 12.2692 689 56.3033 945.596 515.434
892 0 60.0699 13.734 825 54.1152 945.688 515.296
893 0 58.1244 11.8711 690 57.0304 945.926 512.51
894 0 60.1361 11.6901 703 56.367 945.236 515.595
895 0 62.0527 10.1204 628 58.1959 945.866 512.312
896 0 67.0817 12.6711 850 55.0471 945.833 511.745
897 0 68.1147 13.3745 911 53.9704 945.692 513.993
898 0 68.1693 10.5766 721 57.0915 945.831 513.362
899 0 70.0976 11.1701 783 57.0779 945.466 508.241
900 0 74.1087 12.4547 923 55.5482 945.892 508.675
901 0 74.0519 10.6817 791 57.5992 945.563 504.314
902 0 77.0828 10.8585 837 57.1362 946.544 505.41
903 0 82.1288 13.1135 1077 54.662 945.817 503.823
904 0 85.0605 11.6976 995 56.0523 946.044 503.636
905 0 85.0878 11.8818 1011 56.2176 945.757 501.052
906 0 88.173 11.0011 970 57.5979 946.148 497.543
907 0 90.1327 10.0186 903 58.1739 945.966 500.213
908 1 45.0956 11.5311 520 54.3635 945.979 519.91
909 0 49.0819 9.14798 449 56.2739 946.454 520.339
910 0 52.1013 12.5525 654 53.159 946.462 519.54
911 0 51.0685 11.6902 597 54.8559 947.561 516.864
912 0 53.0926 11.9791 636 54.3286 947.876 519.066
913 0 57.0466 12.2707 700 53.4329 947.654 517.041
914 0 58.0756 12.6215 733 52.914 947.041 516.576
915 0 56.1386 8.8709 498 57.1386 947.135 514.582
916 0 61.1102 10.9802 671 55.2057 947.379 512.608
917 0 64.0861 11.5002 737 54.479 947.606 512.152
918 0 63.2627 11.223 710 54.9183 946.955 511.931
919 0 66.1577 13.3318 882 53.2188 946.28 507.857
920 0 71.0227 13.0381 926 53.2354 946.448 510.157
921 0 71.0674 11.2569 800 55.5125 946.415 507.645
922 0 74.1302 11.0211 817 55.9682 946.486 506.244
923 1 35.0519 9.18637 322 55.1242 946.016 524.345
924 0 36.0204 9.63344 347 54.5591 945.957 522.98
925 0 36.0217 8.38382 302 54.6821 946.07 525.96
926 0 38.0564 11.0888 422 53.8128 946.033 520.957
927 0 41.02 12.9937 533 52.3208 946.193 521.835
928 0 41.0553 12.2518 503 53.5805 946.392 521.396
929 0 42.0203 10.3759 436 55.9312 946.053 518.894
930 0 43.0275 9.43583 406 57.4754 946.084 518.931
931 0 46.0702 10.0933 465 56.2817 946.353 520.591
932 0 46.0899 8.6353 398 58.4472 946.347 518.935
933 0 49.0466 10.2148 501 56.8922 946.164 517.615
934 0 50.0285 11.0337 552 56.1268 946.284 516.766
935 0 53.1239 10.6355 565 56.2956 946.809 517.582
936 0 51.0349 10.1303 517 57.4565 946.998 515.648
937 0 54.0468 10.1394 548 57.2062 946.206 516.443
938 0 56.1064 10.4979 589 56.8727 945.762 516.747
939 0 59.1161 9.03308 534 57.6105 946.075 516.564
940 0 60.0711 9.32229 560 58.1446 946.355 512.655
941 0 61.1806 11.9155 729 56.1084 945.407 511.036
942 0 63.2439 11.8114 747 56.0348 945.76 513.269
943 0 64.0626 10.4585 670 57.4179 946.366 508.06
944 0 67.1109 11.3841 764 56.7749 946.589 505.852
945 0 70.0529 13.6325 955 54.3812 946.459 507.636
946 0 72.1047 12.1351 875 56.2903 946.672 505.504
947 0 73.1488 12.5498 918 56.1024 946.643 503.845
948 0 74.1135 9.72832 721 59.2718 946.39 503.742
949 1 38.0229 7.75848 295 58.583 946.403 523.01
950 0 39.0578 9.57554 374 58.0882 946.714 520.922
951 0 42.0497 11.5577 486 56.428 947.344 518.325
952 0 42.0528 8.94115 376 58.883 946.798 520.918
953 0 45.0392 11.2791 508 56.8268 946.925 519.75
954 0 44.0374 10.6955 471 58.2527 946.546 518.2
955 0 46.0479 8.4043 387 60.8579 946.731 519.098
956 0 48.0445 11.5518 555 57.7297 945.912 516.346
957 0 49.0396 7.78962 382 61.199 946.39 516.728
958 0 49.0383 10.7875 529 58.811 945.452 515.497
959 0 52.0428 10.0878 525 59.7581 946.023 514.91
960 0 53.0266 11.2962 599 58.9783 946.947 514.843
961 0 55.0347 11.7199 645 59.1736 947.431 512.498
962 0 56.1038 11.7283 658 59.4954 947.26 511.752
963 0 57.0221 10.417 594 60.9478 946.658 511.923
964 0 58.0644 9.05892 526 62.2605 946.844 510.051
965 0 61.0536 9.56537 584 62.1815 946.813 511.697
966 0 63.0487 10.6426 671 61.0626 946.706 509.906
967 0 66.096 10.5301 696 61.1092 946.84 509.027
968 0 68.077 10.7085 729 61.2044 946.881 506.996
969 0 69.1181 10.9812 759 61.1291 946.913 507.191
970 0 67.0949 9.4344 633 63.4123 947.283 505.785
971 0 72.1224 10.8149 780 61.3667 946.822 503.265
972 0 74.1071 12.2795 910 60.0099 946.366 501.057
973 0 75.0984 9.86706 741 62.6343 946.486 505.277
974 0 79.0957 11.2016 886 61.2269 946.535 501.31
975 1 36.0684 7.7353 279 61.7885 946.634 523.366
976 0 40.1099 10.9948 441 58.7574 946.109 522.426
977 0 44.0438 11.1934 493 57.8114 946.578 523.99
978 0 42.0454 9.82273 413 60.6005 946.843 520.804
979 0 45.0588 10.564 476 59.4958 946.903 520.51
980 0 46.039 11.4468 527 58.2163 947.165 520.309
981 0 49.0383 13.4385 659 56.3399 946.184 516.275
982 0 50.0628 11.965 599 56.9332 946.057 518.546
983 0 51.1096 12.7765 653 56.9709 946.185 516.11
984 0 54.0841 11.7225 634 57.9369 946.582 514.826
985 0 55.0674 13.8376 762 56.0105 946.735 513.795
986 0 57.0245 11.7844 672 58.0833 946.549 512.957
987 0 57.0291 11.3275 646 58.3034 946.35 514.817
988 0 59.1258 13.0231 770 57.0597 946.126 512.221
989 0 61.2621 10.806 662 58.7583 946.304 511.663
990 0 64.0698 12.1274 777 57.4234 946.206 513.023
991 0 67.123 12.7378 855 57.0795 946.943 510.688
992 0 66.0972 11.4831 759 59.2556 946.937 509.221
993 0 68.1522 10.7994 736 59.3125 946.715 509.361
994 0 72.148 12.9595 935 57.2075 946.872 507.543
995 0 74.1677 14.5481 1079 46.4708 945.609 505.989
996 0 75.0604 11.9903 900 58.1089 945.652 502.269
997 0 76.1587 9.97917 760 60.171 945.864 505.32
998 0 80.1124 10.7224 859 59.6484 946.215 503.539
999 1 39.0342 11.1697 436 58.2546 946.048 520.592
1000 0 44.1021 10.6117 468 57.8611 946.064 520.981
1001 0 45.026 12.2818 553 56.217 946.653 520.119
1002 0 43.0713 11.5622 498 58.01 945.88 520.189
1003 0 44.0793 11.6381 513 57.5848 946.117 520.567
1004 0 46.0125 10.9535 504 58.377 946.099 516.359
1005 0 47.1412 11.3277 534 57.3708 945.991 518.06
1006 0 48.0479 12.1337 583 56.8508 946.067 517.813
1007 0 51.0516 11.1848 571 57.6567 946.084 515.706
1008 0 52.0377 9.58921 499 58.8998 945.884 516.389
1009 0 56.0812 11.9648 671 56.4963 946.043 512.149
1010 0 56.0534 10.7041 600 58.29 946.082 513.228
1011 0 58.0618 13.1928 766 55.8864 945.975 513.517
1012 0 60.0226 11.3624 682 57.8284 946.057 511.987
1013 0 61.1022 11.1616 682 58.1789 945.739 509.469
1014 0 64.1005 10.7487 689 58.4819 945.817 508.412
1015 0 66.0243 11.3292 748 57.2995 945.472 508.139
1016 0 69.0849 11.7247 810 56.963 945.557 507.026
1017 0 70.15 10.9337 767 58.2073 945.836 506.089
1018 0 74.0933 11.0941 822 57.6642 945.21 508.878
1019 0 77.1294 12.0577 930 57.2064 946.017 505.124
1020 0 79.1017 13.0718 1034 56.9091 945.092 502.935
1021 1 39.0736 9.64845 377 59.1061 944.886 523.021
1022 0 37.0536 8.96 332 61.0813 945.093 520.166
1023 0 43.0786 10.2835 443 58.526 946.027 521.194
1024 0 42.104 11.8279 498 57.7048 945.518 520.398
1025 0 44.02 11.0177 485 58.6866 945.27 519.27
1026 0 47.0217 10.9736 516 58.4806 945.469 521.475
1027 0 46.07 11.6996 539 58.4564 945.289 518.451
1028 0 50.0699 12.163 609 57.4187 945.141 519.55
1029 0 51.1594 11.3567 581 58.7883 945.788 516.623
1030 0 52.1938 12.9326 675 57.1348 945.313 514.286
1031 0 53.04 12.2172 648 58.3056 945.429 514.187
1032 0 57.1106 13.4126 766 56.5026 945.863 513.257
1033 0 60.1811 14.6558 882 55.1315 945.386 515.846
1034 0 62.0423 13.7326 852 56.1984 945.648 514.055
1035 0 63.021 12.2975 775 57.6413 944.728 513.928
1036 0 65.1304 11.6382 758 58.6253 944.826 512.879
1037 0 67.0747 11.9866 804 58.0684 945.15 510.573
1038 0 68.1365 11.8292 806 58.6315 945 512.23
1039 0 72.1165 11.6617 841 58.893 945.037 510.321
1040 0 75.0429 10.6606 800 60.3625 944.788 506.048
1041 0 78.1034 11.9329 932 60.1255 944.795 505.029
1042 0 81.0658 13.2855 1077 58.3278 944.658 503.153
1043 1 43.135 13.4693 581 56.4165 944.745 525.873
1044 0 42.0342 10.7532 452 59.5907 945.091 526.442
1045 0 44.1258 12.3964 547 58.2815 944.526 524.768
1046 0 47.1054 10.381 489 60.1738 944.791 524.264
1047 0 47.057 11.7517 553 59.6763 945.15 523.016
1048 0 49.0878 12.6712 622 58.7026 945.262 520.95
1049 0 51.12 13.0673 668 57.8533 944.539 521.515
1050 0 51.13 12.7323 651 59.1413 944.253 520.209
1051 0 52.062 11.8321 616 59.7451 944.343 520.641
1052 0 57.2704 11.9084 682 59.6466 944.83 518.18
1053 0 59.0187 14.4531 853 57.3857 944.454 517.505
1054 0 60.1372 13.4692 810 58.3975 944.304 514.825
1055 0 62.0694 11.7288 728 60.331 944.852 517.525
1056 0 63.2105 13.0675 826 59.0617 944.361 513.866
1057 0 67.1095 15.0649 1011 56.2601 943.565 515.343
1058 0 66.0419 11.5684 764 60.8547 943.59 512.403
1059 0 69.0859 13.3023 919 59.2165 944.09 511.6
1060 0 70.0705 12.9584 908 59.9262 943.504 511.618
1061 0 74.0791 11.9737 887 60.4814 944.818 512.534
1062 0 76.1593 12.4082 945 60.637 945.461 511.046
1063 1 40.0837 11.4261 458 60.4345 945.496 528.253
1064 0 40.0474 12.0607 483 59.3375 944.553 529.845
1065 0 41.0381 11.5259 473 60.6998 945.846 529.55
1066 0 42.0702 11.8611 499 60.8196 945.303 527.856
1067 0 43.0474 12.6837 546 59.5952 945.506 527.711
1068 0 44.0831 12.4537 549 60.5974 945.064 526.379
1069 0 45.0362 11.7461 529 61.2495 945.036 523.924
1070 0 47.1317 11.33 534 61.9513 944.438 524.262
1071 0 48.117 12.2202 588 61.8401 945.711 522.709
1072 0 50.052 11.3682 569 61.9578 945.824 522.761
1073 0 50.0631 12.0049 601 61.6639 945.488 520.025
1074 0 53.0974 12.769 678 59.938 945.785 523.757
1075 0 55.1871 12.811 707 60.1754 945.717 522.782
1076 0 57.0712 13.7372 784 59.4209 945.208 520.4
1077 0 60.0727 12.0854 726 60.8113 945.351 519.163
1078 0 62.1298 13.1177 815 59.919 945.626 517.906
1079 0 63.0503 13.3703 843 59.5623 945.743 519.185
1080 0 64.043 12.8195 821 60.9805 946.213 516.979
1081 0 63.1758 11.0802 700 63.6257 945.77 513.473
1082 0 70.131 13.2752 931 60.58 945.459 515.013
1083 0 71.2038 11.6848 832 62.5781 945.445 515.03
1084 0 75.0578 13.0033 976 61.4795 945.639 512.124
1085 1 37.112 11.7752 437 62.0618 945.439 529.053
1086 0 42.2001 12.0142 507 59.3886 945.335 530.594
1087 0 41.0591 9.7177 399 62.7368 945.521 529.842
1088 0 43.1174 12.0601 520 61.0865 945.906 528.562
1089 0 43.0324 12.2931 529 61.7127 946.032 527.076
1090 0 45.2127 14.1774 641 59.6552 946.306 526.896
1091 0 43.0872 10.7921 465 64.4602 945.695 526.136
1092 0 48.054 12.1322 583 62.4408 946.139 524.806
1093 0 47.0212 12.9303 608 62.0345 945.957 524.808
1094 0 51.1137 12.8341 656 62.0991 946.076 522.546
1095 0 52.0625 12.9844 676 62.0296 945.547 522.43
1096 0 52.257 12.3237 644 63.2733 945.559 522.166
1097 0 54.038 12.3247 666 63.5706 945.47 520.24
1098 0 57.0192 12.9605 739 62.7253 945.311 520.194
1099 0 60.2714 12.0289 725 63.3103 946.495 519.417
1100 0 59.1778 11.8288 700 65.2457 946.344 516.153
1101 0 63.088 13.077 825 63.7976 946.337 513.725
1102 0 67.1952 13.9296 936 62.3536 946.369 516.506
1103 0 69.1093 12.0968 836 64.3684 945.666 515.041
1104 0 70.2442 12.3426 867 65.2526 945.933 512.689
1105 0 73.0687 13.9732 1021 63.477 945.401 512.743
1106 0 76.1142 13.1119 998 64.6273 946.266 511.88
1107 0 76.085 12.2495 932 66.0333 946.246 511.16
1108 0 80.1628 12.7241 1020 65.3559 946.662 510.988
1109 0 79.1127 10.82 856 68.5128 946.213 507.381
1110 0 85.2849 11.6433 993 67.3676 945.502 507.399
1111 0 86.1002 11.1266 958 68.6868 945.795 504.581
1112 0 89.1392 12.6768 1130 67.3549 945.82 504.045
1113 0 92.0979 13.7245 1264 55.0981 945.105 507.228
1114 1 44.0472 12.6909 559 64.7853 945.966 525.714
1115 0 45.1066 13.2575 598 64.2241 945.898 526.055
1116 0 44.0322 13.8308 609 64.532 946.054 525.32
1117 0 48.0921 12.684 610 65.2705 945.851 522.215
1118 0 48.0636 13.5238 650 65.5015 946.012 522.678
1119 0 50.0378 13.3499 668 65.3443 945.772 522.597
1120 0 53.0774 13.3767 710 65.0239 946.206 521.311
1121 0 55.0378 12.9184 711 65.6315 946.302 521.021
1122 0 57.0552 13.4081 765 64.8797 946.376 520.898
1123 0 58.0802 12.6893 737 65.981 946.09 519.198
1124 0 59.0646 11.9869 708 66.3178 946.114 519.67
1125 0 59.086 11.881 702 67.7536 946.018 516.48
1126 0 62.1106 11.882 738 67.2737 945.886 517.709
1127 0 67.1285 12.3346 828 66.6522 946.849 515.806
1128 0 66.0597 13.3667 883 67.0113 946.684 513.649
1129 0 70.0849 12.9985 911 67.1251 946.116 512.12
1130 0 74.1066 12.2526 908 67.4879 946.231 511.795
1131 1 36.0666 11.8669 428 67.8902 946.631 527.673
1132 0 37.0713 11.842 439 68.246 946.79 527.538
1133 0 39.077 11.7716 460 67.6261 946.937 527.644
1134 0 38.1373 11.8519 452 68.2279 946.46 526.164
1135 0 42.0971 12.4474 524 66.5305 945.937 526.17
1136 0 45.0884 12.9745 585 65.053 945.935 525.388
1137 0 44.1124 14.5764 643 63.6174 946.213 524.173
1138 0 43.0277 12.2944 529 67.9603 946.614 522.817
1139 0 49.2144 13.8171 680 63.7559 946.102 523.904
1140 0 50.0667 12.6232 632 66.1551 946.429 522.506
1141 0 51.1287 12.7717 653 65.3675 946.277 522.98
1142 0 54.1416 13.3908 725 64.8703 947.556 521.145
1143 0 57.115 14.7772 844 62.9799 946.121 519.415
1144 0 58.178 12.8399 747 65.415 946.339 518.934
1145 0 57.0972 12.5225 715 67.7664 946.846 517.134
1146 0 61.2529 12.1464 744 67.5914 946.634 516.641
1147 0 64.058 13.9093 891 65.5859 946.314 516.552
1148 0 66.2243 13.4241 889 66.5591 946.658 514.861
1149 0 70.3087 14.6212 1028 65.106 947.062 516.181
1150 0 70.0928 12.783 896 68.8304 946.566 512.444
1151 0 73.1645 14.2829 1045 66.7856 946.482 512.17
1152 0 75.1173 14.4707 1087 66.9558 946.478 510.2
1153 0 77.0947 12.7765 985 69.1563 946.065 511.694
1154 0 78.1563 13.3706 1045 68.7828 946.871 511.912
1155 1 40.1452 11.0349 443 71.6208 946.935 527.508
1156 0 41.1699 11.5618 476 71.1366 946.496 525.939
1157 0 44.1261 13.3255 588 68.8316 946.541 525.546
1158 0 47.088 12.1687 573 69.9145 946.55 524.62
1159 0 47.0737 13.362 629 68.903 946.579 524.556
1160 0 47.2336 13.6344 644 69.0745 946.46 523.747
1161 0 51.1973 12.6765 649 69.4268 945.777 524.193
1162 0 50.1772 12.9541 650 69.7738 945.734 521.282
1163 0 53.1523 12.5112 665 69.6135 945.544 519.69
1164 0 51.0991 12.7204 650 71.88 946.002 520.195
1165 0 57.3948 12.9629 744 69.4987 946.29 520.903
1166 0 57.198 12.413 710 71.0859 945.887 517.424
1167 0 58.2746 13.1103 764 70.784 945.665 517.801
1168 0 60.0479 12.923 776 69.9278 945.705 517.588
1169 0 63.08 12.6347 797 70.9348 947.024 515.491
1170 0 63.1198 13.6882 864 70.4931 946.559 513.146
1171 0 65.0596 13.2494 862 70.7575 946.264 512.26
1172 0 69.1603 14.1266 977 68.7185 946.367 513.962
1173 0 71.2694 13.3999 955 70.3874 946.43 510.796
1174 0 73.2418 14.5545 1066 69.0675 945.802 508.75
1175 0 77.0902 14.2431 1098 68.9763 946.571 509.669
1176 0 77.1615 13.7115 1058 69.8129 945.475 507.439
1177 0 79.0729 14.6321 1157 69.9248 946.705 506.052
1178 0 83.0985 13.0809 1087 72.1362 947.082 505.985
1179 1 41.1395 11.1086 457 74.9256 946.904 524.418
1180 0 45.0984 9.82298 443 74.7923 947.113 526.415
1181 0 46.2252 10.9681 507 74.3649 946.98 523.562
1182 0 47.1144 11.3978 537 74.905 946.67 523.812
1183 0 49.1026 11.7305 576 74.3299 946.509 523.306
1184 0 51.0633 13.5322 691 71.2634 946.566 523.711
1185 0 53.0529 12.9116 685 72.0102 946.199 521.712
1186 0 53.0366 13.8206 733 70.7258 946.611 522.941
1187 0 56.0725 12.3412 692 72.0231 946.509 520.624
1188 0 57.2399 12.4039 710 72.2099 946.359 519.556
1189 0 59.0989 13.6212 805 71.1814 947.041 517.825
1190 0 59.1079 13.027 770 71.7312 946.168 517.518
1191 0 65.1159 12.5469 817 70.8654 945.889 518.326
1192 0 67.1287 13.9285 935 69.3572 947.076 516.219
1193 0 69.2398 14.3559 994 69.4256 946.812 512.702
1194 0 72.2242 14.9119 1077 68.1764 946.178 512.242
1195 0 73.1505 14.7778 1081 68.4255 946.278 512.5
1196 0 76.1698 14.2314 1084 69.333 945.864 510.525
1197 0 78.1592 12.5257 979 70.9734 946.271 512.01
1198 0 81.2434 14.1304 1148 69.2047 945.503 507.327
1199 0 83.138 14.8548 1235 68.8105 945.868 504.811
1200 0 86.2944 12.7355 1099 71.333 946.005 505.252
1201 0 90.1382 14.0007 1262 69.3368 945.804 505.13
1202 1 45.0417 10.2572 462 70.868 945.968 528.621
1203 0 44.0753 9.75603 430 73.0791 946.205 526.246
1204 0 48.1233 12.0939 582 69.0704 946.395 527.354
1205 0 48.0523 13.1731 633 69.2385 946.416 524.515
1206 0 49.1089 13.1544 646 69.3684 946.717 523.138
1207 0 52.0765 13.941 726 67.8347 946.178 523.45
1208 0 51.0761 13.4701 688 69.2907 945.99 521.299
1209 0 54.1154 11.9375 646 69.4381 946.242 523.42
1210 0 55.1097 14.081 776 68.2229 945.802 518.732
1211 0 56.1274 12.2935 690 69.8812 945.674 517.413
1212 0 58.1279 13.6079 791 68.5171 945.766 516.684
1213 0 59.1154 13.0254 770 69.2571 946.49 519.152
1214 0 62.2486 12.7071 791 69.1062 946.137 520.531
1215 0 65.1672 11.7237 764 70.1715 945.394 517.797
1216 0 67.1214 13.7214 921 67.8122 946.772 515.833
1217 0 70.2249 12.9441 909 68.5897 946.3 516.525
1218 0 70.1121 12.8081 898 69.8552 945.978 513.324
1219 0 73.2737 13.5519 993 68.855 945.864 511.583
1220 0 76.2133 13.0292 993 69.0262 946.082 512.243
1221 0 78.3568 13.145 1030 69.433 946.445 507.902
1222 0 80.183 12.3218 988 70.1964 945.945 509.895
1223 0 82.1536 14.1808 1165 68.7322 945.866 504.293
1224 0 85.3088 13.3163 1136 69.1065 946.399 507.54
1225 0 89.1645 15.1742 1353 66.8596 946.273 506.273
1226 0 91.4469 13.9753 1278 69.0736 946.24 502.114
1227 0 93.2519 13.737 1281 69.4707 946.573 500.635
1228 1 46.3729 12.3132 571 68.9597 946.63 524.271
1229 0 46.1536 12.7834 590 69.3051 946.708 524.873
1230 0 44.1324 12.4625 550 71.16 946.587 523.195
1231 0 50.1146 13.9281 698 68.1991 946.109 521.467
1232 0 52.1753 13.8955 725 67.1821 947.164 523.379
1233 0 52.2703 12.8945 674 69.3412 946.829 521.499
1234 0 52.1804 12.3035 642 70.2492 946.935 522.003
1235 0 57.2214 13.8584 793 68.1677 946.454 520.701
1236 0 54.2093 13.7799 747 69.498 946.086 519.772
1237 0 59.2254 13.8285 819 68.5934 946.376 519.485
1238 0 60.1049 11.796 709 71.6164 946.935 516.63
1239 0 64.0842 12.9517 830 69.259 946.47 517.305
1240 0 65.1107 15.1895 989 67.6057 946.724 513.584
1241 0 69.1199 14.2795 987 68.1104 947.231 515.024
1242 0 70.0774 13.7705 965 69.7389 946.26 512.651
1243 0 73.1869 13.2401 969 69.8349 946.618 511.166
1244 0 76.0734 15.2616 1161 67.944 946.632 510.294
1245 0 76.0872 13.708 1043 70.4056 947.312 507.404
1246 0 79.1562 14.6798 1162 69.4578 947.058 506.108
1247 0 81.1027 13.4644 1092 71.1877 947.417 506.648
1248 0 83.0974 13.6226 1132 71.1166 947.209 507.629
1249 0 88.0898 14.5874 1285 69.7728 947.251 505.329
1250 0 90.2926 14.9292 1348 69.75 946.642 501.931
1251 1 40.0835 13.6964 549 69.878 947.277 526.302
1252 0 40.0262 14.9402 598 69.2558 947.013 526.084
1253 0 42.0422 13.4627 566 70.7774 946.8 525.583
1254 0 43.1169 13.4054 578 71.3062 946.67 523.228
1255 0 43.014 11.6706 502 73.5956 947.038 525.03
1256 0 45.1219 14.2281 642 70.5732 946.903 525.03
1257 0 49.0252 12.5446 615 72.0065 946.922 522.327
1258 0 51.1245 14.5723 745 69.2658 946.646 522.444
1259 0 52.054 14.3505 747 69.49 947.103 522.299
1260 0 52.0781 12.9613 675 72.5185 947.32 519.828
1261 0 56.1924 13.0267 732 70.873 947.228 522.374
1262 0 57.1987 14.1612 810 70.0123 947.346 519.896
1263 0 58.0992 14.5441 845 69.4627 947.656 519.065
1264 0 61.0984 13.6829 836 70.5993 947.76 518.191
1265 0 63.1235 14.2419 899 70.1435 947.032 515.749
1266 0 66.068 15.3478 1014 68.6519 946.795 515.216
1267 0 68.3736 15.5031 1060 68.1755 946.106 514.794
1268 0 69.1044 14.5866 1008 70.2381 946.498 515.06
1269 0 72.0442 16.2262 1169 67.8683 946.823 514.869
1270 0 75.089 15.8745 1192 67.9857 946.372 513.238
1271 0 76.1477 15.7326 1198 68.6786 946.992 512.74
1272 0 80.0736 15.3234 1227 68.806 946.615 510.575
1273 0 81.2163 13.8396 1124 70.5294 946.512 510.91
1274 1 38.0781 12.9996 495 70.6929 946.723 530.226
1275 0 38.0685 12.7665 486 72.8951 945.907 527.42
1276 0 38.1474 12.5566 479 72.595 946.299 528.891
1277 0 43.1028 13.6418 588 70.6752 946.956 528.679
1278 0 43.0835 13.3462 575 70.9878 946.769 529.504
1279 0 44.0457 13.7357 605 71.0628 946.426 528.484
1280 0 46.1754 15.008 693 69.5786 946.309 527.583
1281 0 47.2494 14.2436 673 71.5944 947.651 526.539
1282 0 48.2891 13.4399 649 72.7057 947.048 524.638
1283 0 50.0686 14.4402 723 71.2282 946.809 525.224
1284 0 49.1647 13.77 677 73.0606 946.669 524.504
1285 0 53.0996 13.4652 715 73.1958 947.136 523.522
1286 0 53.1234 15.304 813 71.0123 946.448 523.228
1287 0 55.1405 14.9799 826 71.437 945.893 522.988
1288 0 57.0874 15.5551 888 71.4775 946.504 521.723
1289 0 59.0516 14.6143 863 72.9965 946.304 520.779
1290 0 59.0943 15.213 899 72.7408 946.923 519.899
1291 0 62.1323 19.201 1193 67.1811 946.692 519.582
1292 0 65.1747 16.8163 1096 70.0839 946.41 519.563
1293 0 67.0997 15.9464 1070 72.0953 946.503 517.933
1294 0 70.1307 14.1308 991 74.3088 946.887 517.414
1295 0 71.2522 15.6486 1115 72.8951 946.252 514.809
1296 0 76.1391 16.1809 1232 71.3726 946.101 513.829
1297 0 76.1939 15.6049 1189 72.7006 946.799 514.708
1298 0 79.1709 16.4454 1302 71.4094 946.498 511.493
1299 0 81.1048 15.5724 1263 72.7553 946.416 510.949
1300 0 83.0918 14.9112 1239 73.3196 946.111 511.314
1301 0 87.1035 15.1085 1316 72.9787 947.386 507.173
1302 0 89.1541 14.9965 1337 72.7816 947.297 507.916
1303 0 92.2406 14.614 1348 73.5556 946.645 506.999
1304 0 96.188 13.7543 1323 74.003 946.516 505.457
1305 1 48.0617 13.0457 627 72.622 946.38 528.93
1306 0 48.104 14.8428 714 72.6106 946.825 525.864
1307 0 51.1631 13.8381 708 73.7698 946.975 525.054
1308 0 53.0562 14.4375 766 72.1188 946.398 525.564
1309 0 54.1249 14.8915 806 71.5273 946.883 524.752
1310 0 54.1818 15.6879 850 71.1788 946.832 522.398
1311 0 58.1027 15.8168 919 70.0544 946.842 523.03
1312 0 57.1331 14.1949 811 73.2429 946.903 521.021
1313 0 60.26 14.1221 851 72.8578 946.538 520.516
1314 0 62.3091 14.396 897 71.7703 945.852 520.074
1315 0 65.2149 14.6592 956 71.7029 945.969 518.613
1316 0 67.0601 15.1804 1018 70.9401 946.26 519.407
1317 0 71.2022 15.6877 1117 69.7851 947.018 516.363
1318 0 71.2943 14.4892 1033 71.7599 946.126 515.737
1319 0 74.2661 15.0405 1117 70.7081 945.593 515.466
1320 0 75.0939 14.3953 1081 71.272 945.667 515.315
1321 0 79.1449 15.5664 1232 70.2549 945.447 512.472
1322 0 81.0632 15.6791 1271 69.9866 945.828 508.71
1323 0 85.1409 15.3863 1310 70.3756 945.627 510.45
1324 0 86.2214 14.0916 1215 72.177 946.476 508.897
1325 0 92.257 15.0232 1386 69.811 946.492 508.344
1326 0 92.1793 14.884 1372 70.7784 946.217 505.903
1327 0 98.3705 15.0045 1476 68.96 945.656 506.939
1328 1 48.0916 15.9279 766 65.688 945.815 528.372
1329 0 46.119 13.0098 600 69.5417 946.617 528.488
1330 0 48.0671 14.4798 696 68.6695 946.168 526.491
1331 0 51.1406 14.7828 756 67.7619 946.214 527.192
1332 0 50.0921 13.3554 669 70.5052 945.955 526.133
1333 0 53.163 15.0105 798 67.9336 946.485 527.137
1334 0 52.291 14.84 776 69.0451 946.549 526.138
1335 0 55.0938 14.7204 811 69.873 946.663 523.115
1336 0 55.0436 12.6264 695 71.7281 946.642 524.963
1337 0 59.0672 16.1003 951 67.1546 945.854 522.62
1338 0 60.1713 14.2427 857 70.1482 945.742 522.495
1339 0 63.4003 15.0315 953 68.171 945.763 522.937
1340 0 62.216 14.5943 908 69.6817 945.934 521.065
1341 0 67.3807 15.316 1032 68.7093 946.13 516.925
1342 0 69.2354 14.8334 1027 68.7459 946.474 519.601
1343 0 72.3637 15.3115 1108 67.7247 945.746 517.13
1344 0 73.1592 14.1336 1034 69.559 945.991 515.118
1345 0 76.1982 14.9872 1142 69.0587 945.989 513.229
1346 0 78.2474 15.7449 1232 68.1128 945.874 512.214
1347 0 83.3066 14.1165 1176 69.2058 945.791 511.031
1348 0 82.2455 15.5388 1278 67.8255 945.549 509.014
1349 0 85.2019 14.9997 1278 68.2402 946.465 509.604
1350 0 89.2528 14.9911 1338 68.1428 946.084 507.502
1351 0 93.3878 14.5736 1361 68.5592 946.212 505.093
1352 0 93.2255 13.1187 1223 70.5405 946.002 502.746
1353 1 46.1815 13.2737 613 69.3034 947.057 524.714
1354 0 48.1428 13.2107 636 70.2264 946.667 524.011
1355 0 51.257 13.4811 691 69.3618 946.386 524.951
1356 0 53.2239 14.8805 792 68.0038 946.395 524.833
1357 0 55.2534 15.2751 844 67.0462 946.713 525.74
1358 0 55.1804 13.2475 731 71.1245 945.966 522.902
1359 0 57.0955 15.1676 866 68.8799 946.193 523.133
1360 0 60.3832 14.3749 868 69.4009 946.355 522.561
1361 0 62.311 14.7967 922 69.7321 946.549 521.356
1362 0 62.1576 14.415 896 70.644 945.998 520.176
1363 0 63.128 14.4944 915 70.5148 946.558 521.142
1364 0 65.2261 14.902 972 70.7047 946.35 518.727
1365 0 69.2528 14.3532 994 70.6167 946.594 518.763
1366 0 70.2128 14.5273 1020 70.7745 946.777 517.554
1367 0 72.2391 16.4869 1191 68.9102 947.175 514.558
1368 0 74.2175 13.9051 1032 72.3847 947.321 513.269
1369 0 77.2986 15.0326 1162 70.3571 947.319 514.067
1370 0 79.4509 14.8645 1181 71.1194 946.362 512.958
1371 0 80.2045 14.064 1128 72.1543 946.136 511.853
1372 0 86.2519 14.7939 1276 70.7437 946.002 510.093
1373 0 87.2468 15.1639 1323 70.839 946.692 507.857
1374 0 89.3434 14.7856 1321 71.5284 946.883 507.424
1375 0 95.1931 14.9906 1427 69.9194 946.39 507.222
1376 0 96.2763 13.6586 1315 72.0745 946.36 505.821
1377 0 100.177 14.5443 1457 71.2203 946.194 500.23
1378 0 106.189 15.0392 1597 69.5523 945.602 504.738
1379 0 106.312 14.6456 1557 71.0173 946.105 502.23
1380 0 109.211 15.5387 1697 70.6629 945.946 498.211
1381 1 55.1494 13.9258 768 72.1901 946.073 523.379
1382 0 58.4105 15.5109 906 69.7682 946.359 523.102
1383 0 60.31 13.0658 788 72.8858 946.094 524.445
1384 0 64.2277 12.0353 773 73.2083 945.781 524.439
1385 0 65.2971 15.2074 993 70.9849 946.144 520.865
1386 0 66.2706 15.7083 1041 70.5245 946.512 520.66
1387 0 68.2352 14.8897 1016 72.314 946.617 519.797
1388 0 71.1382 16.3766 1165 70.3133 946.342 518.819
1389 0 69.162 14.5889 1009 74.3568 946.519 517.992
1390 0 72.4045 15.1786 1099 73.515 945.741 517.483
1391 0 74.1256 15.5142 1150 73.1096 945.93 515.587
1392 0 77.1653 14.281 1102 75.1216 945.586 516.147
1393 0 82.4143 15.6284 1288 72.3214 945.76 515.238
1394 0 81.205 14.802 1202 75.198 945.416 511.359
1395 0 85.2249 15.0426 1282 74.2644 945.512 511.795
1396 0 86.2356 15.4229 1330 74.3414 945.793 509.317
1397 0 90.3195 14.4487 1305 74.7739 946.574 510.848
1398 0 94.2056 15.4131 1452 73.7989 946.444 506.536
1399 0 97.3787 14.459 1408 74.6818 946.09 505.954
1400 1 49.2304 14.422 710 72.7042 945.961 527.955
1401 0 49.1523 12.7563 627 73.1308 946.329 530.319
1402 0 48.1337 12.9639 624 75.359 946.57 527.455
1403 0 50.2094 14.7383 740 72.0176 945.745 528.2
1404 0 52.1402 13.8665 723 73.9391 946.066 527.18
1405 0 53.2514 15.2484 812 72.9815 945.969 524.522
1406 0 56.3971 14.1851 800 73.2662 945.878 525.19
1407 0 58.1524 15.4766 900 72.0544 945.888 524.482
1408 0 59.3113 14.7864 877 73.5964 945.645 524.349
1409 0 57.1204 13.1477 751 76.9388 946.024 523.308
1410 0 62.3894 14.0729 878 74.902 946.813 523.769
1411 0 64.3567 13.3941 862 76.2575 946.983 521.458
1412 0 67.3909 15.4027 1038 73.2052 946.248 521.984
1413 0 66.3814 13.4978 896 77.3616 946.193 519.772
1414 0 69.3052 13.7652 954 76.5472 945.642 518.041
1415 0 72.2499 13.8408 1000 76.418 945.87 517.622
1416 0 73.2426 14.7592 1081 76.2202 945.995 514.495
1417 0 77.3826 15.0163 1162 74.8528 946.469 515.621
1418 0 78.3385 15.3309 1201 74.8002 946.398 514.196
1419 0 81.3491 13.8293 1125 76.3422 946.74 514.731
1420 0 84.2678 14.7862 1246 74.7865 946.052 513.208
1421 0 85.2968 13.2479 1130 77.5389 946.004 511.6
1422 0 87.2448 14.3046 1248 77.0024 946.024 506.341
1423 0 91.1469 14.9978 1367 75.0907 946.713 506.602
1424 0 95.2583 15.0538 1434 74.8501 946.043 504.719
1425 1 44.3847 15.0502 668 71.5868 945.871 531.019
1426 0 44.2128 13.5029 597 75.0486 946.849 528.663
1427 0 45.3358 12.3082 558 76.5054 946.851 529.849
1428 0 47.1677 13.3566 630 75.3429 946.132 528.39
1429 0 49.2376 15.476 762 72.6102 946.255 527.913
1430 0 51.2305 15.1277 775 72.8361 946.707 526.182
1431 0 51.1046 14.4018 736 75.0571 946.2 525.342
1432 0 53.2219 12.7391 678 76.4528 946.22 527.378
1433 0 54.2241 14.2925 775 74.2761 946.296 526.699
1434 0 53.274 14.6413 780 75.3667 946.514 525.128
1435 0 57.439 15.1291 869 73.626 946.369 524.352
1436 0 58.2585 14.4872 844 74.7903 946.201 523.171
1437 0 60.3018 14.6264 882 74.6315 946.545 522.531
1438 0 59.3137 14.6678 870 74.8988 946.07 522.764
1439 0 65.1812 16.201 1056 71.2784 945.844 521.513
1440 0 65.2525 13.624 889 75.0225 946.227 520.251
1441 0 65.3334 12.7347 832 76.7115 945.846 519.833
1442 0 68.5635 13.4328 921 75.0869 946.477 519.242
1443 0 70.3387 13.3923 942 75.1263 946.156 517.262
1444 0 75.312 15.2034 1145 72.3878 946.047 514.987
1445 0 76.3051 13.9178 1062 73.8079 946.195 515.364
1446 0 77.3456 13.1746 1019 75.052 946.012 513.369
1447 0 81.3608 12.7949 1041 74.9222 946.119 513.824
1448 0 85.3132 13.8548 1182 73.8088 945.752 512.234
1449 0 85.4189 14.4816 1237 72.9264 946.698 511.746
1450 1 40.2792 12.4878 503 74.5149 946.497 529.141
1451 0 42.2958 13.2401 560 73.3839 947.138 529.045
1452 0 44.2597 15.0024 664 71.3102 946.923 529.349
1453 0 45.265 14.161 641 72.2792 946.93 528.527
1454 0 44.3463 13.3269 591 74.6853 947.103 527.558
1455 0 48.3907 14.1763 686 72.7653 946.822 528.493
1456 0 48.2505 13.0776 631 75.1062 947.422 527.849
1457 0 49.3299 14.2713 704 73.429 947.422 528.372
1458 0 52.3645 15.5831 816 72.424 946.684 526.248
1459 0 51.4978 15.1657 781 73.8745 947.158 526.227
1460 0 52.3284 14.5619 762 76.3399 947.318 524.852
1461 0 53.308 14.0129 747 77.4284 947.316 524.23
1462 0 57.3515 14.5593 835 75.9713 946.738 525.878
1463 0 57.1846 13.8674 793 78.3266 946.53 524.41
1464 0 61.1964 15.916 974 75.6324 946.413 521.748
1465 0 61.2254 14.5691 892 78.0975 947.258 524.252
1466 0 62.7017 14.242 893 78.2553 946.672 526.618
1467 1 17.0144 13.1066 223 87.6592 946.78 545.152
1468 0 16.0057 13.5577 217 91.1198 946.664 544.862
1469 0 19.1795 12.8783 247 88.1417 946.547 545.19
1470 0 19.1215 13.5972 260 86.3962 946.45 545.154
1471 0 18.1066 15.0221 272 86.0772 947.162 545.243
1472 1 59.2709 14.6784 870 73.7471 947.347 523.36
1473 0 55.3084 13.2168 731 80.1806 947.754 523.045
1474 0 55.2673 13.3533 738 80.3984 946.696 524.5
1475 0 57.3329 13.849 794 79.4332 946.943 525.836
1476 0 58.2144 14.8245 863 79.3673 946.283 524.579
1477 0 58.2942 14.5984 851 80.2714 946.412 523.351
1478 0 58.3591 14.3594 838 81.8771 946.69 522.63
1479 0 59.2962 14.5709 864 82.6157 946.644 522.216
1480 0 56.2442 14.117 794 85.437 946.268 522.788
1481 0 60.2762 14.5829 879 83.678 946.968 522.262
1482 0 58.2781 12.6634 738 88.5393 946.526 522.272
1483 0 58.3168 14.507 846 87.5544 946.325 523.078
1484 0 54.1845 14.506 786 92.617 946.616 523.047
1485 0 52.2326 13.8994 726 96.1984 946.93 524.986
1486 0 54.2465 14.4341 783 94.9387 946.284 526.101
1487 0 55.252 14.5877 806 95.3275 945.862 525.346
1488 0 53.2208 15.3511 817 96.3684 946.498 523.875
1489 0 57.2106 14.6302 837 96.3023 946.779 523.313
1490 0 56.3194 14.5953 822 96.7372 947.043 523.461
1491 0 56.2721 14.7142 828 96.8116 946.55 523.251
1492 0 58.3786 14.68 857 95.8436 946.606 524.01
1493 0 55.1135 14.6425 807 98.3544 945.892 522.844
1494 0 59.2783 15.4357 915 94.3093 946.216 522.176
1495 0 59.2611 14.6302 867 96.6655 945.595 522.413
1496 0 58.1646 15.5421 904 95.5653 945.563 521.914
1497 0 60.2651 15.4318 930 95.2043 946.878 523.34
1498 0 59.3004 16.3405 969 93.8029 946.205 521.821
1499 0 57.225 15.5701 891 97.3266 946.281 522.574
1500 0 61.2173 14.9304 914 96.1302 946.339 521.979
1501 0 61.2035 15.5057 949 95.3962 946.391 522.307
1502 0 60.3183 15.1861 916 97.0273 946.946 521.505
1503 0 60.1508 14.846 893 98.4255 946.467 520.165
1504 0 62.2075 15.4162 959 95.2263 946.172 521.277
1505 0 60.2344 14.8586 895 98.7665 946.313 519.993
1506 0 62.387 15.3558 958 96.3789 946.644 520.255
1507 0 64.4125 15.6647 1009 95.002 946.515 521.306
1508 0 63.254 15.9674 1010 95.8178 946.014 519.497
1509 0 65.2827 16.4209 1072 90.3153 945.57 518.944
1510 0 66.289 16.232 1076 91.5651 946.379 518.319
1511 0 64.2841 16.7538 1077 93.5905 945.894 520.979
1512 0 58.6317 15.0431 882 103.73 945.899 523.014
1513 0 58.2893 15.0113 875 104.171 946.453 521.827
1514 0 60.2739 15.5955 940 100.946 946.624 521.89
1515 0 59.2141 15.3342 908 103.141 946.358 520.23
1516 0 59.2125 15.3177 907 104.487 946.359 519.921
1517 0 58.3511 15.7666 920 104.661 946.579 522.707
1518 0 59.2671 16.2147 961 103.584 945.48 521.027
1519 0 58.2107 15.5642 906 106.104 945.539 521.289
1520 0 59.2342 16.8821 1000 102.308 945.468 520.861
1521 0 58.3546 15.4743 903 106.031 945.972 522.408
1522 0 61.3378 15.3739 943 104.992 945.962 521.594
1523 0 60.3098 15.0888 910 106.153 945.969 521.26
1524 0 61.2533 16.1134 987 103.065 946.109 520.976
1525 0 62.3415 16.6663 1039 100.459 946.283 520.962
1526 0 61.1362 16.2751 995 101.65 946.237 520.733
1527 0 62.1868 16.9168 1052 99.2424 946.491 522.267
1528 0 65.4727 16.6329 1089 97.8577 945.747 521.635
1529 0 63.3417 16.2926 1032 100.336 945.625 521.014
1530 0 65.25 15.8161 1032 101.256 945.262 520.622
1531 0 62.1421 15.8508 985 102.771 945.49 520.218
1532 0 63.127 16.3322 1031 100.751 945.121 520.797
1533 0 62.2786 16.94 1055 100.627 945.979 520.209
1534 0 64.3544 15.539 1000 102.35 945.76 521.723
1535 0 63.3748 15.3531 973 104.145 946.148 521.091
1536 0 63.179 16.6036 1049 101.295 946.132 521.174
1537 0 64.2562 15.8428 1018 101.928 945.673 520.091
1538 0 65.3286 16.1185 1053 99.8063 946.086 521.256
1539 0 65.2454 16.2464 1060 100.614 945.921 519.985
