time division length width area intensity CMx CMy
0 0 48.0388 13.7181 659 56.3748 653.516 511.267
1 0 51.0512 13.222 675 55.6089 652.945 511.769
2 0 52.0892 14.552 758 54.2348 653.48 511.303
3 0 53.0891 14.73 782 54.7455 652.877 511.202
4 0 53.0763 13.6407 724 55.9903 652.094 510.696
5 0 53.0456 14.7797 784 54.9337 651.346 511.596
6 0 56.0998 14.3316 804 55.3893 652.192 512.41
7 0 57.0994 14.2383 813 55.6248 652.353 512.866
8 0 57.0468 13.7957 787 56.864 652.078 510.717
9 0 57.0389 14.9372 852 56.5962 651.637 508.858
10 0 62.0932 14.9453 928 55.2349 651.633 508.986
11 0 62.079 13.8533 860 56.9895 650.593 507.994
12 0 65.2144 13.8006 900 56.7133 651.342 508.724
13 0 64.0959 13.3706 857 58.0117 651.53 507.797
14 0 68.1669 13.467 918 57.9259 650.919 506.174
15 0 68.0678 14.8822 1013 57.1096 651.455 506.42
16 0 70.1802 13.0094 913 59.0832 652.157 505.804
17 0 71.2468 13.2497 944 59.5275 651.052 504.37
18 0 71.2468 13.1234 935 152.794 650.037 504.259
19 0 74.2922 12.3432 917 61.3053 651.126 502.696
20 0 77.1206 12.9408 998 60.8437 650.975 501.495
21 0 81.2263 14.5027 1178 58.7003 650.986 500.642
22 0 81.1958 12.2297 993 62.6415 650.683 499.606
23 0 85.1532 14.3506 1222 60.1686 650.556 499.144
24 0 83.1729 11.9029 990 64.5242 650.772 496.147
25 0 89.1673 14.2878 1274 61.471 650.582 492.606
26 0 91.18 14.773 1347 61.7023 650.928 495.07
27 0 94.056 13.8747 1305 63.187 650.2 491.507
28 1 48.023 9.89109 475 66.1621 651.227 516.211
29 0 48.0305 11.6384 559 65.7621 652.191 513.875
30 0 52.0557 12.525 652 64.9479 651.793 512.696
31 0 51.0876 11.7837 602 65.9169 651.945 513.929
32 0 53.0244 12.334 654 66.0046 651.726 512.749
33 0 55.0544 13.1506 724 64.8605 651.508 511.144
34 0 57.1575 13.524 773 64.9495 650.702 509.875
35 0 59.0247 11.7747 695 66.6475 651.419 509.614
36 0 58.0444 11.0088 639 68.6166 652.102 508.336
37 0 63.1184 13.5143 853 64.6846 651.792 508.223
38 0 66.1771 13.071 865 65.3145 652.094 506.782
39 0 67.2565 10.9878 739 67.8917 652.221 506.954
40 0 70.0983 12.6251 885 66.5684 652.899 505.033
41 0 71.1568 12.9714 923 66.8342 652.216 502.174
42 0 75.1968 12.7 955 67.2429 651.728 501.318
43 0 78.0814 13.5243 1056 65.6856 652.182 501.02
44 0 79.133 11.5754 916 69.1856 652.039 500.598
45 0 82.1731 14.1409 1162 66.1627 652.257 498.083
46 0 84.0954 13.1755 1108 67.8132 652.248 497.912
47 0 88.1405 11.8901 1048 68.8578 651.987 499.186
48 0 88.0764 12.6822 1117 69.547 651.975 494.714
49 1 45.0677 12.6698 571 66.4396 652.692 517.454
50 0 48.0259 13.2637 637 64.8776 652.361 517.507
51 0 48.0462 11.6346 559 67.9911 652.429 515.991
52 0 47.0779 11.2792 531 68.6403 652.597 514.798
53 0 51.0247 11.465 585 68.1487 652.591 514.887
54 0 51.0744 11.2972 577 69.0676 652.92 511.671
55 0 53.1891 12.6906 675 67.1511 652.324 512.609
56 0 55.0201 13.4133 738 65.7859 652.489 511.607
57 0 56.0453 11.8832 666 68.0556 653.251 511.997
58 0 59.0508 12.8364 758 66.8971 654.042 510.474
59 0 59.093 11.2873 667 68.2294 652.943 510.678
60 0 62.1062 11.271 700 67.9471 653.449 509.286
61 0 63.067 12.8118 808 67.5693 653.511 505.261
62 0 64.0622 10.7396 688 69.6265 652.507 507.34
63 0 67.1132 12.4119 833 67.7419 652.366 503.778
64 0 70.1757 12.6254 886 67.2325 653.128 503.436
65 0 72.0764 11.4046 822 67.6983 653.782 504.119
66 0 75.122 13.0055 977 66.8864 653.3 501.884
67 0 77.1238 11.9029 918 68.4651 653.692 499.902
68 0 78.1049 12.2015 953 68.745 652.76 498.754
69 0 79.1428 11.5867 917 69.6968 652.426 499.919
70 0 81.1666 11.5072 934 69.2355 652.622 500.005
71 0 86.161 13.2659 1143 68.1785 652.166 494.766
72 0 88.1321 13.2075 1164 67.89 652.558 496.941
73 1 40.0526 9.38766 376 70.6037 652.545 515.455
74 0 43.0493 10.9642 472 68.1123 652.78 516.992
75 0 45.0552 12.0519 543 66.5617 653.484 516.389
76 0 47.1236 12.3293 581 66.358 653.523 514.816
77 0 48.1093 11.2868 543 67.1639 652.98 515.495
78 0 47.0351 11.0981 522 68.9559 653.527 515.755
79 0 50.0363 12.0113 601 67.6339 653.517 513.361
80 0 50.0416 11.4705 574 69.0714 653.162 513.033
81 0 53.0842 12.8098 680 67.4324 652.872 509.999
82 0 53.1527 10.7991 574 69.6899 653.603 512.284
83 0 55.0452 11.9538 658 68.6778 653.298 509.962
84 0 58.0948 12.4968 726 67.7052 652.96 510.7
85 0 58.1447 12.4173 722 68.6039 653.497 509.719
86 0 61.1423 12.8389 785 67.8382 653.893 509.892
87 0 61.1347 11.2211 686 70.6531 653.673 508.748
88 0 62.0893 11.7573 730 70.2822 653.647 507.721
89 0 64.035 11.7592 753 70.6189 653.655 505.689
90 0 68.0642 12.9584 882 68.8832 653.997 505.857
91 0 69.1223 12.9047 892 69.546 653.794 505.132
92 0 71.1686 11.7327 835 70.8778 653.544 505.929
93 0 70.1317 10.6942 750 73.08 652.951 505.129
94 0 76.1683 13.8903 1058 69.5104 652.516 500.777
95 0 77.1186 12.3965 956 71.84 652.478 499.719
96 0 76.1213 11.1664 850 74.02 652.526 501.489
97 0 81.1336 13.4963 1095 71.2438 652.931 499.726
98 0 82.0964 12.8264 1053 72.7683 652.821 499.93
99 0 85.054 12.4627 1060 73.6038 652.525 496.946
100 0 88.1211 14.3212 1262 71.1173 652.665 495.264
101 0 89.2001 12.6121 1125 74.6631 652.927 493.163
102 0 91.0582 12.4316 1132 74.6943 652.946 494.026
103 1 48.0977 13.4934 649 69.379 652.81 516.317
104 0 49.0285 11.8095 579 73.095 653.159 513.328
105 0 49.0308 12.176 597 72.2496 653.889 514.521
106 0 51.1228 10.9736 561 74.0784 652.658 513.287
107 0 53.0819 12.5278 665 72.2722 653.155 511.009
108 0 54.06 10.3034 557 69.9228 652.955 510.052
109 0 57.069 11.1619 637 73.0942 652.871 510.937
110 0 58.0698 13.4493 781 72.219 653.279 506.297
111 0 59.0146 11.9462 705 73.3035 652.864 507.797
112 0 61.0795 12.6393 772 73.3795 653.172 505.464
113 0 62.1676 12.1768 757 74.6631 653.118 505.029
114 0 65.0576 11.6051 755 74.8172 652.795 503.939
115 0 66.0552 12.1414 802 75.0599 653.571 503.842
116 0 68.0758 11.59 789 75.6895 653.431 504.072
117 0 73.1684 13.7218 1004 72.2092 653.107 501.381
118 0 73.0947 11.3688 831 75.988 653.262 502.489
119 0 77.0617 12.5484 967 74.8242 653.107 501.148
120 0 78.081 11.2832 881 76.6413 652.823 498.355
121 1 40.0472 11.4615 459 73.9891 653.061 518.142
122 0 42.0229 11.7793 495 73.9899 653.293 515.869
123 0 44.0409 11.6937 515 72.734 653.322 516.433
124 0 46.0231 12.5372 577 71.8891 653.282 515.799
125 0 44.1185 10.0185 442 76.543 652.244 514.027
126 0 49.0609 12.5558 616 72.1981 651.672 512.544
127 0 51.1191 12.2655 627 71.2967 652.257 514.475
128 0 51.0451 13.4391 686 71.2974 653.531 511.364
129 0 52.025 11.8981 619 73.4992 653.577 512.144
130 0 56.067 12.4137 696 71.7644 652.868 509.609
131 0 57.0485 13.1993 753 70.6773 652.555 509.827
132 0 59.0512 11.3969 673 72.8603 652.856 509.198
133 0 62.0613 12.4232 771 70.7432 653.21 510.466
134 0 61.0921 12.2111 746 72.6113 653.237 507.893
135 0 63.098 10.5392 665 73.7143 653.462 507.465
136 0 65.0646 12.7258 828 71.5278 653.293 503.93
137 0 67.0863 10.7175 719 73.4006 653.01 504.572
138 0 68.1914 11.629 793 72.1223 652.719 502.478
139 0 73.1053 13.8567 1013 68.5035 652.735 501.728
140 0 75.0793 12.1871 915 71.1902 653.457 500.036
141 0 75.1645 11.3218 851 72.5264 653.306 498.83
142 0 78.2993 10.7281 840 72.781 653.701 499.123
143 0 82.1147 11.7519 965 71.5057 652.991 497.703
144 0 84.124 12.8976 1085 70.3152 653.431 494.767
145 1 43.1031 11.6465 502 68.996 653.376 514.582
146 0 44.114 10.8129 477 70.5786 653.545 515.025
147 0 46.2006 12.3375 570 68.2211 652.816 514.807
148 0 45.0629 11.5172 519 71.2235 652.956 512.605
149 0 46.0577 10.6605 491 71.6456 652.776 514.263
150 0 49.0239 10.7499 527 71.888 653.562 512.681
151 0 49.031 10.7279 526 71.597 653.243 512.485
152 0 51.0458 11.9501 610 70.223 653.066 510.443
153 0 54.0942 11.8867 643 69.5879 652.944 510.918
154 0 54.013 13.0894 707 69.0552 653.747 509.308
155 0 56.0254 12.7621 715 69.2657 653.481 508.72
156 0 55.1016 11.6694 643 71.1509 653.784 506.428
157 0 59.0481 11.9564 706 69.9462 652.618 506.674
158 0 59.0677 11.5291 681 71.3935 653.319 506.724
159 0 62.0476 12.4098 770 69.6974 652.93 506.664
160 0 61.0446 11.2705 688 72.5015 652.85 502.956
161 0 66.0508 11.1581 737 72.4993 652.782 502.499
162 0 67.0595 12.8841 864 69.5174 652.861 504.468
163 0 70.0733 11.7734 825 71.1152 653.112 502.113
164 0 73.0661 12.0302 879 71.1024 652.248 500.261
165 0 75.0504 11.952 897 71.5385 653.299 500.153
166 0 77.1915 12.022 928 71.7134 653.442 498.084
167 1 38.1104 9.83984 375 71.544 653.157 516.552
168 0 40.034 10.3912 416 71.351 653.44 516.745
169 0 41.0081 10.7296 440 71.0682 653.005 516.164
170 0 39.0606 11.0341 431 72.5592 653.32 515.107
171 0 42.0219 10.6611 448 71.971 652.982 515.214
172 0 45.0578 12.3175 555 69.4631 653.541 514.8
173 0 45.0448 11.5219 519 71.1503 652.934 514.622
174 0 48.0912 11.7901 567 70.0899 653.18 513.407
175 0 48.024 10.9529 526 70.5913 652.928 514.359
176 0 53.0537 11.4978 610 69.1098 652.81 513.461
177 0 53.0633 11.3826 604 69.7682 652.573 512.616
178 0 55.0965 11.7249 646 68.4598 652.901 511.672
179 0 56.0793 12.2327 686 67.9636 653.805 511.297
180 0 57.2464 11.2147 642 70.3598 653.818 508.813
181 0 59.0561 11.6499 688 68.4782 653.821 510.359
182 0 61.039 12.0087 733 68.4188 653.671 508.733
183 0 63.0415 12.3569 779 68.3453 653.081 506.303
184 0 63.074 11.6371 734 69.5504 652.553 505.926
185 0 63.0328 11.4702 723 70.4288 652.196 503.549
186 0 68.07 10.4745 713 70.2496 651.523 506.935
187 0 70.0739 11.7448 823 68.9951 651.459 503.317
188 0 73.0848 13.4091 980 66.7255 651.053 502.98
189 0 75.1174 11.9812 900 68.9289 651.327 502.513
190 0 77.0889 12.3753 954 68.7558 650.994 500.755
191 1 40.0474 10.2129 409 69.489 650.648 519.083
192 0 41.0442 9.91613 407 70.0467 651.162 519.639
193 0 43.0417 11.2217 483 69.0062 651.087 518.594
194 0 46.011 11.0843 510 68.1647 650.914 519.89
195 0 44.0746 11.5032 507 69.0533 649.892 518.3
196 0 47.0842 13.3803 630 66.4079 650.857 518.459
197 0 48.0473 11.7176 563 68.0124 651.266 517.48
198 0 50.0797 11.2421 563 68.0124 650.918 518.591
199 0 51.1071 10.8008 552 68.9384 650.007 516.786
200 0 53.0307 12.3136 653 66.8469 650.051 517.069
201 0 54.0532 10.5637 571 68.9422 650.639 516.541
202 0 53.026 11.2586 597 68.2714 649.918 516.71
203 0 55.0832 11.6914 644 67.6382 649.522 515.339
204 0 60.0578 11.9218 716 66.655 649.473 514.152
205 0 61.0506 11.515 703 67.0185 649.414 515.541
206 0 62.0314 11.736 728 66.6951 649.051 514.339
207 0 64.0267 12.9477 829 65.1978 649.829 512.214
208 0 65.0956 11.8902 774 67.2132 649.496 510.096
209 0 69.1101 12.169 841 66.239 649.377 510.379
210 0 72.0449 10.7572 775 67.4516 648.699 510.373
211 0 73.1325 13.0722 956 65.2897 649.244 508.122
212 0 75.0749 10.363 778 67.4049 648.95 509.87
213 1 38.0802 10.0577 383 67.2637 648.209 523.948
214 0 42.0707 10.5537 444 66.3131 648.291 524.405
215 0 40.0423 8.7907 352 68.9233 648.259 523.614
216 0 43.0538 12.5192 539 64.5714 648.165 522.564
217 0 45.0507 11.4982 518 65.9846 647.753 522.178
218 0 47.0648 12.5572 591 64.6396 647.22 521.536
219 0 48.0791 11.3771 547 66.4717 648.062 519.715
220 0 49.0205 10.873 533 66.3396 647.306 521.255
221 0 49.0205 10.7914 529 125.597 646.304 521.189
222 0 52.0771 12.3855 645 65.2496 647.933 517.178
223 0 55.0509 12.6247 695 64.8331 647.679 514.843
224 0 57.0544 12.5494 716 64.4609 647.573 513.673
225 0 58.0475 12.507 726 64.3609 646.933 512.769
226 0 59.0214 12.3684 730 64.2863 647.223 510.855
227 0 61.1293 11.5493 706 64.8088 646.64 511.48
228 0 65.0587 11.6971 761 64.4954 647.849 509.263
229 0 66.0728 11.9111 787 64.6989 647.86 507.765
230 0 68.0987 11.7036 797 64.5847 647.605 503.232
231 0 72.0927 11.8042 851 64.0881 647.669 506.06
232 0 71.0533 10.668 758 66.1649 648.14 503.158
233 0 78.0388 12.5194 977 63.3214 648.051 502.646
234 0 79.1069 12.5779 995 63.3407 647.487 503.111
235 0 82.1183 11.7879 968 63.9174 647.842 502.406
236 1 43.099 10.9051 470 64.4851 648.147 519.917
237 0 47.0772 11.2581 530 63.4434 647.691 517.196
238 0 47.0698 11.0049 518 64.4942 648.203 516.502
239 0 48.0266 12.264 589 63.652 648.092 517.156
240 0 51.1873 11.7998 604 64.8195 648.387 514.786
241 0 51.0161 11.4474 584 64.9795 648.401 515.534
242 0 54.1657 13.1264 711 63.3305 648.277 512.875
243 0 57.1082 13.4657 769 62.6502 647.912 510.918
244 0 57.0631 11.0755 632 65.8054 647.587 512.492
245 0 59.0976 12.2171 722 64.7036 648.26 511.324
246 0 61.1791 11.9812 733 65.2319 648.573 510.655
247 0 64.0712 12.4705 799 64.9149 648.05 509.547
248 0 65.157 12.9994 847 64.4876 648.392 508.737
249 0 68.1257 12.4182 846 64.8747 648.814 507.758
250 0 69.2828 12.9758 899 65.1257 648.433 506.758
251 0 73.1162 12.9793 949 64.608 648.003 506.278
252 0 77.1648 12.2724 947 65.0327 648.008 506.188
253 0 79.1427 13.621 1078 63.9601 648.097 503.783
254 0 81.1421 14.0125 1137 63.2885 648.557 504.308
255 0 83.0869 12.5652 1044 66.0536 648.216 499.773
256 0 87.0995 12.4111 1081 65.2849 648.119 501.292
257 0 89.1059 12.4122 1106 65.6673 648.356 499.192
258 0 91.1493 11.4757 1046 66.9818 648.358 498.167
259 1 50.0585 11.8262 592 64.8902 648.113 518.954
260 0 52.0511 11.6616 607 65.1565 647.926 518.143
261 0 53.0409 11.8588 629 65.6391 648.008 517.99
262 0 54.1898 12.4562 675 65.1111 648.019 515.624
263 0 57.2314 13.3144 762 64.1365 648.799 514.316
264 0 56.0495 11.4542 642 66.391 648.065 515.927
265 0 63.1103 14.1657 894 62.1174 647.796 515.248
266 0 62.0436 13.1359 815 64.546 647.465 513.47
267 0 63.1597 12.5238 791 65.2212 647.362 510.659
268 0 67.085 12.8494 862 64.413 647.285 513.472
269 0 67.1253 12.1117 813 65.7601 647.125 511.137
270 0 70.1902 13.5774 953 63.7293 647.217 511.133
271 0 72.0501 13.1159 945 64.5439 647.031 509.977
272 0 74.0743 12.312 912 65.9331 647.292 506.387
273 0 77.1776 13.1126 1012 64.1038 647.05 508.801
274 0 79.1531 12.8991 1021 64.3457 647.161 503.939
275 0 83.2096 13.1475 1094 63.2066 646.698 505.91
276 0 85.0816 12.4116 1056 64.4394 646.788 504.479
277 0 89.0729 14.8755 1325 61.2875 646.965 502.083
278 0 92.2439 13.6269 1257 63.1854 647.129 498.025
279 0 93.0873 12.1929 1135 64.8907 647.154 500.93
280 0 96.1801 14.3065 1376 62.7246 647.635 498.291
281 1 50.1703 11.6403 584 63.0685 646.938 522.077
282 0 50.0889 10.6411 533 64.9381 646.891 521.114
283 0 52.1506 11.7544 613 63.9347 647.334 519.692
284 0 55.123 13.098 722 61.9197 647.026 519.368
285 0 55.134 12.4968 689 62.2293 646.241 519.447
286 0 57.107 12.4503 711 62.3966 646.826 517.768
287 0 58.0578 10.7824 626 65.0703 646.567 515.19
288 0 61.1617 12.5405 767 62.7927 646.859 514.528
289 0 60.2309 11.1073 669 64.8251 646.846 513.058
290 0 65.0963 12.735 829 62.1387 646.788 513.232
291 0 65.4401 12.1638 796 63.4925 646.997 512.922
292 0 66.1123 12.5998 833 63.7155 646.851 509.622
293 0 68.1589 10.3728 707 65.3805 647.028 512.129
294 0 71.1532 12.0023 854 63.7763 647.156 510.107
295 0 73.1089 12.7071 929 63.183 647.155 506.313
296 0 78.1884 12.8536 1005 62.2458 646.618 506.987
297 0 79.208 11.5014 911 64.0351 646.065 506.615
298 0 81.0853 12.5053 1014 63.2653 646.349 504.062
299 0 81.1097 12.9824 1053 63.1149 646.374 502.724
300 0 85.0357 12.3125 1047 64.0191 647.065 501.167
301 1 43.0409 10.4552 450 62.8667 646.644 521.438
302 0 45.0155 11.2406 506 63.8617 646.269 516.498
303 0 44.0552 10.0329 442 63.595 646.283 522.007
304 0 45.0961 10.4665 472 64.2246 645.576 518.29
305 0 45.0961 10.6218 479 131.455 644.576 518.397
306 0 51.1183 9.8986 506 64.7708 645.484 517.403
307 0 53.0707 9.83593 522 64.9061 645.314 516.077
308 0 55.0249 11.413 628 63.2293 646.597 515.916
309 0 56.031 11.0118 617 64.1329 646.237 514.429
310 0 58.1008 10.5506 613 64.5367 645.325 511.767
311 0 61.0687 12.3631 755 62.4 646.094 512.091
312 0 63.0413 11.9445 753 62.7304 645.347 510.644
313 0 68.1159 12.0677 822 61.8406 644.709 509.934
314 0 69.1509 12.5956 871 61.8898 645.596 507.082
315 0 70.0876 12.8125 898 61.961 645.458 505.361
316 0 71.1058 11.6446 828 63.6329 645.529 503.522
317 0 72.0793 12.1533 876 63.4212 645.838 501.986
318 0 77.0603 11.0433 851 64.2949 645.647 501.777
319 0 79.0908 12.1127 958 63.1096 646.178 498.957
320 0 81.113 11.7984 957 64.3083 645.725 497.639
321 0 84.0955 12.1528 1022 63.5548 645.215 500.118
322 1 42.0826 10.8358 456 62.3377 645.535 520.669
323 0 43.1039 10.1615 438 62.5639 645.475 522.381
324 0 44.1293 11.421 504 62.1567 646.159 518.367
325 0 47.0258 12.3762 582 59.9141 645.902 520.852
326 0 47.1972 10.5091 496 63.0101 646.629 519.413
327 0 49.1104 11.7083 575 62.1357 646.63 519.195
328 0 51.1689 10.5728 541 63.3678 646.933 517.24
329 0 50.0901 10.6608 534 64.3614 646.219 515.414
330 0 53.0805 11.5673 614 62.1466 645.777 518.067
331 0 52.0766 10.9454 570 63.6544 645.805 515.27
332 0 55.03 10.7941 594 63.9276 646.418 515.259
333 0 58.1655 11.5876 674 62.592 646.708 513.856
334 0 58.058 11.0751 643 63.8165 646.858 513.86
335 0 61.072 14.2455 870 60.6494 645.831 510.22
336 0 63.0879 13.5208 853 61.007 646.147 512.107
337 0 63.1165 12.0254 759 64.365 645.801 507.328
338 0 68.1207 12.0228 819 63.6044 646.335 511.182
339 0 69.2375 12.7243 881 63.4154 646.619 508.144
340 0 71.0816 12.7459 906 63.3311 646.634 507.247
341 0 74.1323 13.0308 966 63.0642 645.623 507.53
342 0 76.1496 13.1846 1004 64.244 646.14 504.176
343 0 77.0953 11.8684 915 66.0962 646.232 504.051
344 0 80.1369 13.5393 1085 63.9558 645.999 502.299
345 0 82.0938 13.3993 1100 64.8491 646.517 502.315
346 1 41.107 10.2172 420 65.8857 646.781 522.276
347 0 43.1033 13.2009 569 63.1968 646.243 521.088
348 0 43.0703 12.4448 536 65.0056 646.123 520.299
349 0 44.0237 11.6301 512 65.6797 646.244 519.797
350 0 46.0883 12.194 562 65.1922 645.963 518.932
351 0 46.1182 11.4488 528 66.5398 646.21 517.992
352 0 47.09 12.0408 567 65.8448 645.885 518.071
353 0 52.1532 12.6934 662 64.5151 646.148 517.122
354 0 50.0401 11.7905 590 66.9373 646.5 515.776
355 0 52.0505 10.8356 564 67.7819 647.388 516.493
356 0 56.1245 12.793 718 65.7173 646.795 514.639
357 0 57.2021 12.8492 735 66.2082 646.774 515.888
358 0 57.2331 12.3705 708 68.1963 646.459 512.558
359 0 59.0547 12.5646 742 67.8019 646.061 512.288
360 0 62.1163 11.8648 737 67.8901 646.799 513.92
361 0 63.1112 12.6285 797 68.2158 646.196 510.527
362 0 66.0734 12.8796 851 68.6075 646.095 511.683
363 0 68.085 12.5578 855 69.3801 646.191 507.559
364 0 69.1569 13.2019 913 69.1336 646.206 508.394
365 0 71.1489 12.4949 889 69.5489 646.763 508.746
366 0 74.0798 13.9984 1037 68.8303 646.995 507.66
367 0 74.0817 12.7157 942 71.413 645.654 506.177
368 0 76.0982 13.6403 1038 70.8295 646.179 505.249
369 1 39.1309 10.6054 415 71.8554 646.829 523.812
370 0 40.0541 11.5094 461 70.974 646.573 524.913
371 0 42.0945 12.0681 508 70.2106 646.528 524.563
372 0 40.0373 12.6882 508 71.9508 646.175 521.787
373 0 42.0744 11.7173 493 72.9736 646.556 522.331
374 0 43.0457 13.1024 564 71.5355 646.755 522.218
375 0 46.1009 12.6028 581 71.0998 646.904 522.303
376 0 43.1131 11.9917 517 75.3269 647.251 521.201
377 0 47.011 12.6141 593 72.317 646.621 521.054
378 0 47.011 12.5077 588 150.012 646.631 521.048
379 0 49.0371 12.9698 636 72.9292 646.011 519.657
380 0 50.0463 12.4485 623 74.2071 645.955 518.575
381 0 55.0706 12.4567 686 73.3353 645.577 520.06
382 0 54.1014 12.2732 664 74.5753 645.532 517.604
383 0 54.0341 13.473 728 73.8668 646.132 516.802
384 0 56.1168 11.4226 641 76.9048 646.212 514.783
385 0 60.1553 13.7311 826 73.5169 646.854 514.956
386 0 58.0798 11.6392 676 77.6391 646.141 513.229
387 0 60.086 11.417 686 78.637 645.851 509.79
388 0 63.1378 11.5145 727 78.3521 645.989 510.758
389 0 63.0708 11.1462 703 79.1792 646.07 507.34
390 0 65.0658 11.2194 730 79.2219 646.797 506.251
391 0 68.0708 10.871 740 79.7608 647.435 506.572
392 1 33.0679 11.7032 387 74.9897 647.339 524.016
393 0 34.0163 10.0834 343 77.7318 647.181 523.563
394 0 32.0712 11.2874 362 76.8646 646.61 523.845
395 0 33.0238 10.2653 339 78.1327 646.301 524.552
396 0 37.0541 10.741 398 77.0352 646.716 522.696
397 0 36.0295 10.7134 386 77.0803 646.448 524.184
398 0 39.1027 11.6616 456 75.5219 646.882 522.827
399 0 38.0449 9.51506 362 78.8204 647.083 522.356
400 0 38.0569 7.93549 302 80.8212 646.738 522.725
401 0 40.0219 10.4443 418 77.0861 646.933 521.165
402 0 42.0685 11.719 493 75.1278 647.152 519.093
403 0 45.0313 10.526 474 74.962 647.759 521.454
404 0 47.0123 11.4651 539 74.1707 648.237 519.868
405 0 48.0976 12.537 603 72.6202 648.061 519.169
406 0 49.0437 12.2544 601 72.817 647.549 519.775
407 0 52.0538 11.7379 611 73.563 648.214 517.291
408 0 52.0593 10.8914 567 74.4691 647.363 516.522
409 0 55.0668 11.5496 636 73.1824 647.219 517.384
410 0 54.0361 10.7151 579 75.2366 646.332 516
411 0 56.0698 10.8971 611 75.2209 646.227 516.205
412 0 59.2351 13.9107 824 71.0133 646.249 514.206
413 0 60.1041 12.0291 723 73.2379 646.824 515.633
414 0 59.0659 10.5645 624 76.5657 646.635 513.228
415 0 63.1151 11.7246 740 74.7027 646.459 513.478
416 0 65.0756 11.6634 759 74.9038 646.308 513.603
417 0 65.0936 12.3668 805 74.6646 646.758 511.839
418 0 68.1228 11.2004 763 76.5819 646.873 510.969
419 1 35.0533 10.8406 380 74.4263 645.976 526.682
420 0 37.0092 11.2134 415 74.0241 645.73 526.523
421 0 38.0525 11.8258 450 73.5844 645.44 525.829
422 0 40.0392 10.5147 421 74.62 646.532 526.178
423 0 39.0229 11.8392 462 74.3961 646.639 525.632
424 0 41.0162 10.9225 448 75.6406 646.42 524.529
425 0 43.0822 11.6522 502 74.3367 646.187 524.845
426 0 43.0092 12.881 554 74.2942 646.244 522.643
427 0 44.0266 10.7435 473 77.3066 646.277 522.116
428 0 46.0168 12.6041 580 74.2052 646.888 521.155
429 0 48.032 12.2627 589 73.9542 646.226 519.998
430 0 50.0612 13.4635 674 72.1677 646.588 521.886
431 0 49.0387 11.5623 567 76.2892 646.118 520.323
432 0 51.0407 12.3235 629 75.0827 646.404 518.75
433 0 54.0355 11.0113 595 76.6538 645.97 516.534
434 0 54.0549 11.5253 623 76.748 646.961 516.498
435 0 57.1106 11.574 661 76.6899 647.253 514.499
436 0 57.14 11.0956 634 77.5836 646.953 515.656
437 0 58.0174 11.1001 644 78.2981 646.793 513.306
438 0 61.0962 11.441 699 77.5393 646.546 513.276
439 0 66.0273 12.7826 844 73.7595 646.118 512.52
440 0 67.0776 11.2556 755 76.8649 645.532 511.518
441 0 70.0384 11.3509 795 75.2365 646.249 513.912
442 1 34.0682 10.479 357 74.4622 646.723 529.224
443 0 37.0891 11.8364 439 72.082 647.139 527.248
444 0 37.0624 11.8719 440 72.6864 646.798 526.591
445 0 36.0793 10.9204 394 74.8731 647.16 525.751
446 0 39.0349 11.5282 450 73.0756 647.167 525.907
447 0 38.0282 10.8078 411 74.6326 646.676 525.562
448 0 40.0983 10.973 440 74.0841 646.716 525.384
449 0 41.0473 12.108 497 72.5956 646.481 523.491
450 0 44.0227 12.1755 536 71.5429 646.838 522.517
451 0 45.0301 11.1037 500 73 646.354 521.49
452 0 47.1283 11.7764 555 71.9045 646.872 521.355
453 0 46.1211 11.0145 508 73.3819 647.022 521.681
454 0 49.0985 12.2 599 70.1169 646.93 521.192
455 0 48.048 11.3844 547 72.2633 647.693 520.062
456 0 51.0569 12.6917 648 70.4784 646.965 517.651
457 0 53.1478 12.23 650 70.2338 646.769 516.514
458 0 55.0431 11.4638 631 71.1807 646.997 515.494
459 0 57.0246 11.2232 640 70.3359 647.392 518.219
460 0 58.0629 11.6081 674 70.224 646.464 515.163
461 0 61.057 11.6612 712 69.7669 646.004 514.199
462 0 59.0633 9.32897 551 73.9564 646.145 509.519
463 0 62.0417 11.1699 693 70.9206 645.561 509.828
464 0 66.0433 11.5076 760 69.5079 645.942 510.909
465 0 68.0562 11.564 787 68.7217 646.473 512.056
466 1 34.0482 8.89914 303 68.6205 646.739 527.211
467 0 38.0737 9.74427 371 68.5391 646.059 525.345
468 0 39.0209 10.9172 426 67.3333 647.448 522.984
469 0 38.0684 9.32531 355 70.3493 646.775 522.676
470 0 40.0329 10.7412 430 68.1047 646.542 524.36
471 0 41.0187 9.94669 408 69.402 646.537 522.917
472 0 43.0508 10.778 464 69.2823 646.588 519.621
473 0 45.0471 11.0107 496 68.1875 646.433 521.722
474 0 46.0613 9.29197 428 71.0794 647.234 519.105
475 0 46.0227 12.1896 561 67.221 647.314 520.695
476 0 46.034 9.47127 436 70.7867 646.399 519.021
477 0 48.0472 9.51148 457 71.628 645.969 518.702
478 0 50.0369 10.5722 529 70.0227 646.491 516.767
479 0 51.0677 9.59511 490 70.8408 646.635 517.678
480 0 55.0774 12.2192 673 66.9346 646.404 515.847
481 0 56.042 12.1695 682 66.9648 646.188 515.375
482 0 59.0188 13.1653 777 65.2149 646.098 515.883
483 0 58.0789 10.744 624 68.6811 646.2 515.835
484 0 62.0565 12.2791 762 66.2244 646.332 514.613
485 0 63.0206 11.7581 741 67.4966 645.667 512.587
486 0 63.2056 12.0084 759 66.9684 646.455 511.974
487 0 67.178 12.6381 849 66.5088 645.899 508.888
488 0 69.0897 13.4318 928 65.4925 646.466 510.874
489 0 72.2347 11.9333 862 66.9339 646.498 510.068
490 0 73.104 11.8051 863 68.044 646.29 508.067
491 1 40.0834 10.553 423 66.4894 646.946 526.924
492 0 39.0533 10.8058 422 68.9194 646.052 523.346
493 0 41.1027 10.6806 439 69.2278 646.303 523.638
494 0 42.0887 11.547 486 68.3128 646.815 523.508
495 0 43.1491 11.6109 501 69.0719 646.804 522.846
496 0 46.0884 13.0402 601 66.3694 646.1 521.582
497 0 47.0262 12.1847 573 68.1571 646.295 520.979
498 0 49.1065 12.422 610 67.8557 646.005 520.628
499 0 48.0442 12.3012 591 69.4365 646.369 518.316
500 0 50.1101 12.2929 616 69.0097 646.644 519.39
501 0 50.1042 11.6956 586 70.7543 646.785 519.589
502 0 53.0768 12.2087 648 69.6667 646.444 517.273
503 0 55.0758 12.7642 703 69.3129 646.664 515.844
504 0 57.0337 13.4306 766 67.7337 646.342 516.346
505 0 58.069 12.554 729 68.9383 646.476 516.429
506 0 58.0592 12.3839 719 69.9777 646.405 513.985
507 0 59.0972 11.4557 677 71.226 646.18 514.641
508 0 61.0498 12.2359 747 70.4096 646.244 513.189
509 0 64.1165 13.4755 864 68.4109 646.056 511.791
510 0 65.0875 13.3359 868 69.0749 645.771 511.06
511 0 68.1104 13.7718 938 67.9968 645.819 510.599
512 0 70.0706 12.4446 872 70.1835 646.07 508.396
513 0 71.0322 12.9096 917 70.2334 645.766 507.632
514 0 74.079 13.2831 984 68.7703 646.022 510.227
515 0 76.1761 14.2039 1082 67.902 646.006 508.34
516 0 78.1007 13.8155 1079 68.9008 645.101 506.505
517 0 80.0838 14.335 1148 68.6446 645.179 503.532
518 0 82.1037 13.8118 1134 70.0467 645.707 503.892
519 0 84.0895 12.6532 1064 71.5592 645.615 501.983
520 1 46.0305 12.7959 589 69.708 645.489 523.153
521 0 47.0912 13.5482 638 69.29 645.951 522.237
522 0 48.0495 11.2384 540 72.9389 645.902 523.231
523 0 50.1216 12.0507 604 72.9619 645.563 519.833
524 0 48.085 11.7292 564 74.6862 645.376 519.943
525 0 52.0859 12.4602 649 72.9214 645.384 519.513
526 0 53.0331 14.3118 759 71.1686 645.563 518.664
527 0 56.0439 14.2031 796 70.093 646.08 518.877
528 0 55.0546 13.2959 732 73.0929 645.469 516.608
529 0 57.0816 13.507 771 72.3424 645.642 517.316
530 0 59.1444 12.6301 747 73.838 645.183 516.147
531 0 59.0772 12.289 726 74.6116 645.507 514.804
532 0 61.0357 12.8941 787 73.629 644.835 514.254
533 0 65.0847 13.5208 880 72.425 645.131 511.068
534 0 65.0564 12.5583 817 73.9143 644.961 509.682
535 0 68.1149 13.903 947 71.8184 645.014 510.563
536 0 70.0852 13.0413 914 72.9639 645.014 509.621
537 0 71.0332 12.3463 877 74.4208 645.935 507.236
538 0 75.1359 14.1477 1063 71.8137 645.629 505.348
539 0 79.1072 13.9178 1101 71.059 646.067 506.288
540 0 81.165 14.2796 1159 71.2399 646.084 504.85
541 0 81.1401 14.0374 1139 71.7568 644.867 504.952
542 0 85.1379 14.1183 1202 72.3012 645.874 501.695
543 0 87.0693 13.7821 1200 72.67 645.439 502.89
544 0 90.1805 13.5839 1225 73.0849 645.87 500.964
545 1 44.069 11.5274 508 72.5571 645.274 523.392
546 0 47.0997 11.6774 550 73.9436 645.465 521.004
547 0 49.129 12.7827 628 70.965 645.484 521.715
548 0 50.0375 13.1501 658 71.1185 645.751 519.421
549 0 50.0254 11.6941 585 73.4188 645.362 519.41
550 0 54.0579 12.6161 682 72.0455 645.762 517.858
551 0 55.0368 12.9368 712 71.5772 645.052 518.077
552 0 57.0514 13.9874 798 70.4185 645.242 516.094
553 0 58.0948 12.9271 751 71.2357 646.276 516.77
554 0 59.1562 11.9683 708 72.7726 645.65 516.017
555 0 62.1058 11.9796 744 71.3333 645.573 517.399
556 0 64.0383 13.4607 862 70.1903 645.487 513.997
557 0 64.114 12.1814 781 72.3111 645.134 512.383
558 0 67.0696 14.0153 940 69.6787 645.38 511.024
559 0 69.0379 14.3255 989 68.6006 644.539 509.785
560 0 71.0693 13.3813 951 69.9905 645.403 508.712
561 0 75.1068 13.5274 1016 69.1998 645.849 508.449
562 0 76.0755 13.2631 1009 70.7007 645.999 506.696
563 0 79.0598 13.6605 1080 69.9722 645.865 504.975
564 0 80.0894 13.435 1076 69.6868 645.204 505.728
565 0 82.1523 10.8944 895 72.9006 644.912 504.533
566 0 84.135 11.0655 931 72.8217 645.126 504.173
567 0 90.1901 14.0481 1267 69.0387 645.072 499.552
568 0 91.1278 13.0915 1193 70.031 645.22 501.324
569 0 93.0714 12.4206 1156 71.4671 644.68 497.658
570 0 95.1063 13.4902 1283 70.862 644.458 493.494
571 0 98.16 12.6426 1241 71.3683 644.442 496.242
572 0 103.102 12.9969 1340 70.6172 644.649 494.767
573 1 53.0266 11.1831 593 70.4283 645.133 518.384
574 0 55.0814 11.129 613 70.5644 645.207 516.176
575 0 55.1313 11.8989 656 69.846 645.569 515.98
576 0 56.1479 11.6478 654 71.1024 644.772 514.191
577 0 57.0506 10.5345 601 72.3378 645.424 513.852
578 0 60.1129 12.1937 733 70.6753 646.048 513.367
579 0 61.0665 11.1681 682 71.8959 646.318 514.155
580 0 65.0804 12.2771 799 70.8198 646.506 511.001
581 0 66.1108 12.8421 849 69.9658 646.352 510.834
582 0 69.1263 12.0504 833 70.4226 646.122 510.31
583 0 70.1165 11.0958 778 72.8085 646.639 506.317
584 0 72.1946 11.9538 863 71.6767 645.648 505.9
585 0 74.183 12.1456 901 72.5216 646.07 503.504
586 0 77.0654 12.1196 934 72.3747 646.142 505.527
587 0 78.1034 10.7038 836 75.4605 645.669 501.379
588 0 83.0694 13.1216 1090 71.6 645.683 499.823
