time division length width area intensity CMx CMy
0 0 64.2519 11.7039 752 60.2114 1040.58 411.806
1 0 70.1041 13.6083 954 58.1813 1040.16 406.994
2 0 71.112 13.4858 959 58.1543 1040.36 408.95
3 0 73.1409 12.8246 938 59.2996 1040.68 404.699
4 0 74.1528 13.162 976 58.6721 1040.71 403.709
5 0 77.3109 13.5298 1046 57.8652 1039.81 405.576
6 0 76.3446 10.0859 770 61.4649 1038.67 405.499
7 1 40.1187 11.2666 452 59.3584 1039.42 421.181
8 0 44.0646 10.4392 460 59.9326 1038.73 420.343
9 0 44.0719 12.0031 529 57.8242 1039.12 422.743
10 0 47.1685 12.0631 569 57.413 1039.62 422.23
11 0 48.1383 10.9061 525 59.3029 1038.25 420.19
12 0 48.1247 11.8858 572 58.5524 1038.05 418.815
13 0 51.0519 12.3208 629 57.7361 1037.7 418.568
14 0 50.0696 12.5825 630 57.8508 1038.13 418.151
15 0 52.0641 13.1377 684 57.3699 1037.58 417.712
16 0 55.0975 12.4869 688 57.4884 1036.86 417.34
17 0 56.0362 12.3849 694 58.3847 1036.73 415.856
18 0 59.0443 12.2281 722 57.5319 1036.96 414.42
19 0 59.0389 13.5165 798 56.4887 1037.15 412.835
20 0 59.0868 10.5946 626 59.5543 1037.28 413.126
21 0 64.0539 12.3646 792 57.404 1037.94 410.725
22 0 64.2032 13.2236 849 56.9812 1037.84 408.961
23 0 65.1829 9.49636 619 60.5024 1036.95 411.493
24 0 69.1349 11.5282 797 58.6449 1036.93 408.842
25 0 69.1243 10.7054 740 60.0743 1037.76 406.399
26 0 73.078 12.2198 893 58.355 1038.26 407.316
27 0 76.1231 13.1892 1004 57.3446 1037.72 404.644
28 0 77.122 10.7622 830 59.9976 1037.77 405.448
29 0 80.2046 13.0541 1047 57.5702 1037.84 403.622
30 0 83.2103 12.5946 1048 57.7576 1037.85 404.401
31 1 43.0726 10.8886 469 58.7612 1037.21 421.71
32 0 43.0387 12.2448 527 58.6793 1037.49 422.926
33 0 46.0108 11.4538 527 58.4326 1037.05 424.097
34 0 47.0599 13.1109 617 57.718 1037.16 418.483
35 0 48.0432 12.2182 587 59.0187 1036.96 416.574
36 0 52.2022 12.8539 671 57.6677 1037.03 416.967
37 0 51.0295 14.2467 727 56.8363 1037.45 415.626
38 0 53.0882 15.8604 842 54.8622 1037.45 415.379
39 0 55.1634 12.9252 713 57.791 1037.21 416.129
40 0 55.1095 10.4882 578 60.263 1037.2 415.022
41 0 56.1174 12.955 727 58.0275 1037.61 414.631
42 0 58.1682 11.6902 680 59.2206 1037.42 412.309
43 0 60.0903 12.9805 780 57.7974 1037.18 413.399
44 0 61.0979 10.2295 625 60.3472 1037.66 413.024
45 0 65.0834 13.5057 879 57.4391 1037.47 410.928
46 0 69.0339 15.2244 1051 55.0485 1037.05 410.546
47 0 71.1264 13.5112 961 56.3132 1036.89 410.077
48 0 71.1418 11.8777 845 57.9929 1036.93 409.833
49 0 75.0806 12.8928 968 56.4793 1037.01 410.206
50 0 77.1664 13.6977 1057 55.7332 1036.55 409.95
51 1 38.1197 10.9917 419 57.5489 1036.68 424.186
52 0 40.1123 12.3404 495 56.6949 1037.08 422.432
53 0 38.0277 11.9913 456 57.4211 1037 423.827
54 0 41.0768 10.2004 419 58.7422 1037.13 420.723
55 0 44.1375 14.6361 646 54.2214 1037.25 421.231
56 0 44.0426 9.80868 432 58.588 1036.87 419.47
57 0 43.0515 11.4746 494 57.4352 1037.17 416.449
58 0 46.0845 11.1751 515 57.1689 1037.38 415.763
59 0 47.1452 11.3267 534 56.9682 1037.67 415.796
60 0 50.1595 10.7059 537 57.3128 1037.79 415.559
61 0 51.1005 12.7787 653 55.4211 1037.62 414.821
62 0 53.1603 9.3867 499 57.515 1037.14 416.519
63 0 53.0907 10.5292 559 56.7442 1037.24 413.354
64 0 53.0523 8.31255 441 58.3537 1037.2 412.17
65 0 53.0713 7.81966 415 58.8361 1037.76 410.477
66 0 57.0935 10.9294 624 56.024 1037.16 408.325
67 0 61.0602 9.20402 562 57.2776 1036.39 408.703
68 0 62.0619 8.97491 557 57.1831 1036.54 406.153
69 0 63.1381 8.94863 565 57.7416 1037.09 406.549
70 0 72.1026 13.2866 958 53.1493 1036.35 410.033
71 1 38.1328 8.73265 333 55.039 1036.64 429.105
72 0 38.0627 11.7175 446 54.1076 1036.41 425.386
73 0 41.0625 12.4932 513 53.3021 1037.11 426.101
74 0 45.0919 11.5542 521 53.9021 1037.07 423.831
75 0 45.1058 14.5657 657 51.4871 1036.92 423.95
76 0 47.0446 11.2447 529 54.7183 1036.61 422.894
77 0 49.1156 14.924 733 51.633 1036.88 422.396
78 0 47.0147 11.4645 539 55.3655 1037.4 421.098
79 0 51.2851 13.0642 670 53.7687 1037.37 420.667
80 0 53.0275 13.6156 722 53.662 1037.38 419.237
81 0 54.1224 11.1414 603 55.7794 1037.41 420.595
82 0 55.0589 11.751 647 54.9784 1036.54 418.946
83 0 59.1315 12.3792 732 54.4536 1036.45 417.441
84 0 56.0818 11.9112 668 55.268 1036.03 415.928
85 0 62.2235 14.8015 921 51.9642 1036.62 414.852
86 0 61.1209 12.7616 780 54.6154 1036.8 413.499
87 0 65.1242 13.5433 882 53.0227 1037.13 416.415
88 0 68.0196 11.335 771 55.511 1036.73 413.119
89 0 70.1139 12.3656 867 54.6794 1037.47 411.054
90 0 73.1381 13.2763 971 53.6014 1037.15 412.655
91 0 75.1015 13.9944 1051 52.8982 1037.34 412.409
92 1 39.1408 12.6211 494 52.581 1037.35 429.184
93 0 41.0815 11.4894 472 54.9047 1037.04 427.674
94 0 40.0854 9.82901 394 56.5863 1037.26 427.931
95 0 45.0644 10.4295 470 55.3957 1036.94 428.04
96 0 46.0699 14.1307 651 52.3149 1037.48 425.266
97 0 47.2469 13.3554 631 53 1036.71 424.092
98 0 48.1285 11.7602 566 54.2898 1037.06 426.131
99 0 47.0917 13.272 625 53.952 1036.94 422.797
100 0 51.0352 12.1289 619 54.357 1037.19 423.323
101 0 49.0625 11.2306 551 56.049 1037.4 420.628
102 0 52.0335 11.6848 608 55.4819 1037.3 420.661
103 0 50.0446 12.1092 606 55.6799 1036.83 421.002
104 0 55.2511 13.8821 767 53.794 1036.77 419.43
105 0 54.0849 12.1476 657 55.309 1036.98 420.079
106 0 57.1293 11.0626 632 55.9066 1037.63 420.573
107 0 60.0831 15.6617 941 52.2189 1037.3 418.081
108 0 61.059 11.8574 724 56.3453 1036.96 414.081
109 0 62.1085 12.4621 774 55.73 1037.16 414.946
110 0 65.057 11.39 741 55.9325 1037.86 416.818
111 0 68.0746 13.7349 935 54.8802 1037.42 412.556
112 0 71.14 13.7335 977 54.3224 1037.61 412.692
113 0 72.1347 12.8094 924 55.6061 1037.06 411.597
114 0 73.1288 12.2934 899 56.6029 1036.82 410.862
115 1 36.0259 8.8825 320 58.0812 1037.45 429.131
116 0 39.0205 10.3279 403 57.3449 1037.87 425.571
117 0 39.1056 10.7146 419 56.7518 1037.59 426.427
118 0 40.0326 9.91693 397 58.1285 1037.55 424.234
119 0 45.1542 13.2435 598 54.1204 1037.67 422.532
120 0 46.0254 13.5143 622 54.2701 1037.84 424.886
121 0 49.0436 13.1312 644 54.5171 1038.17 422.486
122 0 49.2033 10.5684 520 57.1058 1037.04 421.371
123 0 49.087 11.4694 563 56.7567 1036.92 420.43
124 0 54.0353 12.6214 682 54.7478 1037.12 419.761
125 0 55.1313 11.8263 652 55.7699 1038.03 420.5
126 0 58.1003 13.1153 762 54.2651 1037.83 419.587
127 0 60.1399 13.1527 791 54.3047 1038.21 417.26
128 0 63.0576 13.115 827 54.4571 1037.7 414.907
129 0 65.125 13.9578 909 53.7151 1037.27 412.821
130 0 66.1126 12.9476 856 54.9579 1036.89 412.482
131 0 67.1875 11.9814 805 55.8161 1036.6 410.858
132 0 70.0744 12.7579 894 55.6163 1036.45 409.107
133 0 74.0898 14.9818 1110 53.2495 1037.15 408.588
134 0 78.0462 13.4536 1050 54.7533 1037.71 406.038
135 0 79.0547 12.6242 998 56.1323 1037.33 403.705
136 0 80.0978 11.7856 944 57.0911 1037.57 402.341
137 0 83.0888 10.3744 862 58.4664 1037.1 403.179
138 1 39.1393 10.9353 428 56.5958 1037.77 422.502
139 0 41.1245 11.3314 466 56.9099 1037.55 422.328
140 0 43.0365 12.989 559 55.1306 1037.89 422.267
141 0 45.0515 13.762 620 54.8032 1039.02 419.239
142 0 45.1033 10.6201 479 57.714 1037.99 416.729
143 0 45.1154 11.0605 499 57.2966 1037.49 419.297
144 0 49.0487 11.1522 547 56.8117 1037.07 417.843
145 0 51.0334 11.4043 582 56.3986 1037.75 415.612
146 0 54.0547 11.5439 624 55.5112 1037.95 416.42
147 0 55.1038 12.5944 694 55.0879 1038.52 414.892
148 0 56.1256 11.5634 649 55.9153 1038.54 412.011
149 0 58.0876 11.6032 674 54.9184 1037.93 415.083
150 0 59.2486 9.80614 581 57.3511 1037.9 410.131
151 0 67.1293 13.9432 936 52.8921 1038.09 410.407
152 0 70.1756 11.4 800 55.0475 1038.17 410.058
153 0 71.0592 12.6233 897 54.1851 1038 408.934
154 0 76.0657 11.4112 868 54.773 1038.03 409.85
155 0 76.273 13.6352 1040 53.2288 1037.62 405.691
156 0 81.0917 12.4427 1009 54.4232 1037.35 403.828
157 1 39.0271 10.9924 429 54.042 1037.8 423.848
158 0 41.1751 10.6132 437 54.4233 1037.87 421.86
159 0 43.1159 11.5734 499 53.7034 1038.21 420.91
160 0 43.0369 9.89848 426 55.3873 1037.87 420.387
161 0 46.0401 10.7081 493 54.4888 1037.47 421.598
162 0 46.1072 11.7118 540 54.1259 1037.83 418.791
163 0 47.1326 11.351 535 54.6168 1038.22 414.8
164 0 50.092 12.2574 614 53.7329 1037.29 417.599
165 0 52.1881 11.152 582 54.5155 1037.71 416.22
166 0 52.0855 11.7499 612 54.8039 1037.51 413.364
167 0 57.0826 12.5607 717 53.205 1036.77 417.194
168 0 59.1234 13.2773 785 53.2357 1036.7 413.983
169 0 60.3005 10.8457 654 55.3914 1037.42 412.228
170 0 61.1419 11.8086 722 54.9681 1037.79 412.442
171 0 66.1734 11.3943 754 54.9867 1037.52 412.125
172 0 66.0727 10.0495 664 56.6506 1037.84 408.605
173 0 69.2492 10.686 740 55.4162 1037.72 413.307
174 0 73.3697 9.97687 732 56.6735 1038.03 409.963
175 0 73.1187 12.1036 885 55.6441 1037.79 407.495
176 1 36.0794 9.89485 357 56.451 1037.51 422.364
177 0 38.0553 10.6161 404 56.0322 1038.72 424.327
178 0 42.0328 11.2293 472 55.3729 1038.88 423.409
179 0 42.1035 10.4979 442 56.0068 1038.71 422.747
180 0 46.0834 10.3508 477 55.3899 1037.71 424.273
181 0 48.1382 12.8173 617 53.5267 1037.54 420.807
182 0 47.0438 9.67185 455 56.7868 1038.02 419.842
183 0 52.0745 12.4053 646 54.0929 1038.16 418.711
184 0 54.0778 11.465 620 55.2629 1038.47 419.11
185 0 54.0837 10.3358 559 56.102 1037.8 417.991
186 0 57.1121 12.6593 723 53.0152 1037.76 418.336
187 0 57.0875 11.8064 674 54.2018 1037.42 415.58
188 0 58.1627 10.8661 632 55.4241 1037.86 414.774
189 0 63.2559 12.8051 810 53.7654 1037.84 411.923
190 0 63.0668 11.4006 719 55.0793 1038.15 413.537
191 0 67.1334 11.2165 753 55.1129 1037.9 407.98
192 0 68.2136 11.2148 765 55.532 1037.9 408.999
193 0 72.2657 11.8452 856 54.396 1037.93 409.407
194 0 73.307 12.2635 899 53.6741 1038.46 411.873
195 0 77.2203 11.1888 864 55.6562 1037.78 406.701
196 1 38.1525 9.77657 373 54.7292 1038.2 430.523
197 0 39.0623 10.7008 418 55.9139 1037.66 425.763
198 0 40.1235 11.8883 477 55.0545 1037.72 424.413
199 0 45.1341 11.5212 520 54.6154 1037.71 425.067
200 0 42.0809 12.4522 524 54.3416 1037.78 424.836
201 0 44.1144 11.3795 502 55.5418 1038.24 425.97
202 0 43.0553 10.0104 431 57.3921 1037.16 421.251
203 0 48.1338 10.3669 499 56.01 1037.13 424.255
204 0 49.0881 12.0803 593 54.6358 1036.5 421.604
205 0 47.0444 11.1172 523 56.2218 1036.72 421.442
206 0 50.14 9.33387 468 57.7628 1037.33 420.156
207 0 51.175 11.3727 582 54.8454 1037.34 416.617
208 0 56.1344 12.2563 688 53.6105 1037.34 416.417
209 0 55.0237 13.5578 746 52.6005 1036.98 416.54
210 0 60.0292 12.9104 775 53 1036.93 413.908
211 0 57.2663 10.5123 602 55.9668 1037.34 415.284
212 0 61.1942 12.779 782 54.1189 1037.49 414.148
213 0 63.1386 13.5416 855 53.6936 1037.54 411.527
214 0 63.0297 10.265 647 56.6986 1037.58 413.93
215 0 69.1779 12.9955 899 54.4805 1037.43 409.901
216 0 67.1173 11.6512 782 56.9655 1037.45 407.623
217 0 73.1825 13.4185 982 54.6629 1036.5 407.435
218 0 74.1045 13.2381 981 55.1233 1036.65 409.288
219 0 77.1174 13.1099 1011 56.2226 1036.64 404.78
220 0 76.407 10.9807 839 58.5864 1036.72 407.783
221 0 80.3129 12.1649 977 58.392 1036.89 400.382
222 0 83.1808 11.8898 989 59.0182 1037.73 399.849
223 0 87.1224 11.3978 993 59.9778 1038.25 399.67
224 0 89.1335 12.9693 1156 58.7301 1037.51 394.609
225 0 93.26 13.9503 1301 57.8125 1036.77 396.494
226 0 95.1885 11.1778 1064 60.9305 1037 398.473
227 1 47.0302 10.674 502 62.5956 1037.26 415.179
228 0 54.1647 12.5912 682 59.5381 1037.46 418.023
229 0 53.0824 12.961 688 60.2137 1037.58 416.565
230 0 55.1114 11.0685 610 62.318 1037.7 415.441
231 0 57.1593 10.6719 610 62.4869 1037.47 413.136
232 0 60.1823 12.6117 759 60.1845 1038.12 413.087
233 0 63.1144 13.5785 857 59.0618 1037.85 412.961
234 0 62.0371 12.0251 746 61.2922 1037.91 411.917
235 0 66.1253 13.4895 892 59.593 1037.78 410.62
236 0 68.0798 10.4877 714 62.7591 1037.14 406.64
237 0 71.1775 13.951 993 58.6435 1037.31 409.673
238 0 74.073 13.0277 965 60.1803 1037.47 404.908
239 0 75.1291 12.1524 913 61.1457 1038.02 404.117
240 0 76.0711 15.0517 1145 58.4576 1037.89 403.971
241 0 79.0703 13.899 1099 59.6852 1038.02 401.601
242 0 81.1211 12.3519 1002 61.4271 1037.4 400.309
243 0 83.0876 11.4217 949 62.7861 1037.37 398.849
244 0 84.0764 10.4191 876 64.3721 1037.51 398.462
245 0 89.154 10.465 933 63.9721 1037.34 396.553
246 1 47.0304 12.9916 611 60.3797 1037.85 417.579
247 0 47.0859 11.8719 559 61.4973 1037.38 417.785
248 0 48.0755 11.2947 543 62.8692 1036.61 414.282
249 0 51.0449 10.7357 548 62.6004 1035.99 414.87
250 0 52.0539 11.9492 622 62.2588 1036.71 411.103
251 0 56.1283 11.5272 647 61.9614 1037.08 413.743
252 0 55.0682 11.2225 618 62.9579 1037.23 412.617
253 0 57.167 12.0524 689 62.0755 1037.17 412.122
254 0 60.0368 11.1432 669 62.4918 1037.22 411.734
255 0 62.0293 13.8805 861 60.2416 1037.41 407.815
256 0 66.0714 14.3481 948 59.5496 1037.25 408.321
257 0 67.247 13.2645 892 60.7904 1036.79 407.92
258 0 68.0882 13.7469 936 60.6368 1036.87 406.563
259 0 73.1101 16.906 1236 56.4353 1037.15 409.267
260 0 76.1571 13.8529 1055 59.9242 1037.24 406.975
261 0 77.0877 12.3885 955 62.2576 1037.31 403.788
262 0 78.1667 15.1087 1181 59.7604 1037.82 403.412
263 0 83.0463 14.8231 1231 59.9334 1037.87 402.843
264 0 85.0704 13.6005 1157 61.3405 1037.31 402.362
265 0 85.1169 11.8543 1009 64.2359 1037.61 399.5
266 0 91.2959 12.8483 1173 62.4876 1037.13 401.083
267 0 92.1688 13.1715 1214 62.7133 1037.06 399.306
268 1 52.0428 11.3368 590 63.2169 1036.89 419.308
269 0 51.0599 13.1806 673 61.8737 1037.19 419.128
270 0 51.2028 11.8744 608 64.0214 1037.17 417.906
271 0 55.0933 13.9944 771 61.6316 1037.26 416.938
272 0 58.0227 13.9084 807 61.6357 1038.18 416.871
273 0 58.0319 12.4587 723 63.9959 1037.88 412.375
274 0 59.0952 12.8268 758 63.7744 1038.14 412.657
275 0 64.0726 14.9518 958 60.7829 1036.93 412.434
276 0 64.118 13.132 842 62.8147 1037.42 411.67
277 0 67.1175 13.7073 920 62.4772 1037.46 411.337
278 0 67.0598 13.0928 878 63.2825 1036.95 410.937
279 0 70.0761 15.0408 1054 61.0247 1036.93 411.061
280 0 75.3855 11.6733 880 64.183 1037.13 409.718
281 0 76.0812 12.6181 960 63.9969 1037.42 407.174
282 0 84.3538 15.6839 1323 58.9796 1037.73 409.218
283 0 84.2435 13.8883 1170 61.7598 1036.65 407.539
284 1 42.0584 12.554 528 61.8712 1037.14 426.564
285 0 43.0442 11.0352 475 64.3874 1036.49 424.867
286 0 48.1027 11.6418 560 62.0268 1036.52 427.557
287 0 47.0447 10.6494 501 65.3593 1036.9 423.172
288 0 48.0564 13.172 633 62.1169 1036.98 425.294
289 0 52.0563 13.0051 677 61.8301 1037.11 423.007
290 0 52.0548 12.1603 633 62.6003 1037.09 423.633
291 0 54.096 13.3651 723 61.0705 1037.26 424.003
292 0 53.1193 11.6907 621 63.4138 1037.5 423.176
293 0 55.0519 11.7889 649 63.4545 1036.98 420.011
294 0 57.0418 13.271 757 62.5865 1037.17 417.699
295 0 58.0765 12.0703 701 63.4993 1037.12 419.899
296 0 62.1032 13.3165 827 61.503 1036.75 417.358
297 0 63.0276 13.3275 840 62.0655 1036.77 416.649
298 0 65.0618 12.1577 791 63.0771 1036.94 416.226
299 0 68.0741 12.0751 822 63.0754 1037.01 414.697
300 0 72.1422 12.1981 880 62.5739 1037.13 413.158
301 0 74.1739 12.7134 943 62.2015 1036.7 412.365
302 0 76.0837 10.541 802 64.7294 1037.49 409.539
303 0 79.1448 13.6332 1079 61.6358 1037.51 408.449
304 1 42.0456 10.3935 437 61.8513 1037.39 428.501
305 0 44.1673 11.0489 488 61.9242 1037.72 426.445
306 0 46.0724 9.15949 422 63.4573 1037.28 426.945
307 0 48.0305 11.3886 547 61.9598 1037.07 422.583
308 0 49.0928 11.631 571 61.3135 1037.25 425.039
309 0 50.0254 12.8135 641 60.4087 1037.71 422.123
310 0 53.0601 11.421 606 61.6139 1037.77 422.094
311 0 55.0994 10.6716 588 61.8827 1037.23 422.245
312 0 57.1506 14.2081 812 58.2611 1037.47 420.58
313 0 61.0742 12.1983 745 59.9114 1037.27 418.926
314 0 60.0626 11.9542 718 60.9554 1037.33 415.188
315 0 64.0605 11.2706 722 61.2784 1037.2 415.294
316 0 67.1353 14.4484 970 57.8186 1037.36 413.611
317 0 66.1567 10.2182 676 62.787 1037.17 412.101
318 0 70.1543 12.7006 891 60.1336 1036.97 409.552
319 0 74.0609 13.867 1027 58.5336 1037.41 410.019
320 0 75.1366 12.5505 943 60.299 1037.56 410.316
321 0 79.0471 13.182 1042 59.643 1037.96 407.814
322 0 81.0642 11.7685 954 61.3176 1038.06 406.87
323 0 85.1459 11.0281 939 61.3301 1036.98 406.351
324 1 44.0431 9.74045 429 61.7599 1036.9 425.142
325 0 48.1633 11.7724 567 58.7884 1037.23 425.575
326 0 47.0432 12.074 568 59.2658 1037.2 424.401
327 0 49.0529 11.3959 559 60.254 1037.2 422.122
328 0 52.0767 12.5008 651 58.4977 1037.31 424.078
329 0 50.1039 11.2965 566 60.6449 1037.65 422.615
330 0 57.1908 12.6244 722 57.9709 1037.45 422.778
331 0 57.1668 10.7055 612 61.1438 1036.39 418.234
332 0 58.1078 12.4424 723 59.13 1036.93 419.614
333 0 60.2518 9.74244 587 62.4106 1036.35 417.893
334 0 62.0675 11.7936 732 60.5738 1037.02 416.54
335 0 63.2437 11.8115 747 60.9224 1037.35 414.622
336 0 67.1636 12.9683 871 59.4076 1037.23 414.757
337 0 69.1416 12.7564 882 59.4195 1037.44 413.985
338 0 70.1114 11.767 825 60.9636 1037.15 412.589
339 0 73.0844 12.9439 946 59.7326 1037 411.346
340 0 76.0871 12.0651 918 60.5882 1037.49 409.163
341 0 80.116 12.5693 1007 59.4528 1037.4 409.173
342 0 80.1079 11.3472 909 61.4851 1037.38 406.554
343 1 44.094 12.4053 547 57.9342 1037.71 425.607
344 0 43.1076 10.1838 439 60.8884 1037.3 423.897
345 0 47.0137 11.5924 545 58.7468 1037.12 425.424
346 0 48.0383 13.3019 639 57.4804 1037.22 422.559
347 0 51.0855 12.3518 631 58.393 1037.52 420.361
348 0 50.0966 13.0548 654 57.8058 1036.66 419.995
349 0 51.0412 10.1095 516 60.6609 1036.49 420.095
350 0 55.2425 11.4948 635 58.9244 1036.43 419.483
351 0 57.0399 12.2896 701 57.4522 1036.39 420.496
352 0 57.128 14.3887 822 56.1715 1036.39 414.302
353 0 59.0389 14.465 854 55.4906 1036.97 416.829
354 0 62.1287 13.8905 863 55.9085 1036.84 413.809
355 0 62.0573 13.3909 831 56.8183 1036.75 411.62
356 0 64.0645 12.0191 770 57.7571 1036.62 413.8
357 0 68.2829 12.0821 825 56.7224 1036.36 414.355
358 0 67.0549 11.0208 739 58.6888 1036.09 407.702
359 0 72.0978 13.2875 958 56.4374 1036.29 406.878
360 0 74.1549 11.8536 879 57.5757 1036.96 408.263
361 0 77.1285 11.9152 919 57.7008 1037.21 407.799
362 0 80.0966 10.6871 856 58.6717 1037.24 405.206
363 0 81.1452 11.9416 969 58.1238 1037.43 402.164
364 0 83.2129 14.0843 1172 56.1459 1037.46 406.859
365 0 87.3328 12.1375 1060 58.4189 1037.26 399.338
366 0 91.1639 13.0753 1192 57.4136 1037.53 402.518
367 0 92.2086 11.0185 1016 59.8671 1037.39 399.215
368 0 96.2487 11.9898 1154 58.6785 1037.09 398.163
369 1 52.3236 13.0152 681 55.279 1036.7 422.88
370 0 49.0951 10.3473 508 58.8012 1036.76 421.201
371 0 51.0905 9.43425 482 59.666 1036.9 419.239
372 0 55.1229 10.6489 587 58.8109 1036.79 417.884
373 0 57.1359 12.234 699 57.372 1037.69 414.488
374 0 59.08 11.7976 697 57.2841 1037.66 416.446
375 0 62.2666 13.4422 837 56.178 1037.81 413.461
376 0 61.1407 12.4958 764 57.1492 1038.01 411.725
377 0 64.0714 12.8138 821 56.732 1038.06 411.213
378 0 67.1014 12.5631 843 57 1037.44 406.698
379 0 73.2564 13.5005 989 54.905 1037.3 409.524
380 0 75.1089 13.7001 1029 55.2089 1038 408.48
381 0 79.0951 12.7442 1008 55.2669 1037.43 409.543
382 0 78.2573 11.705 916 57.2751 1037.28 406.793
383 0 82.1833 14.0053 1151 55.086 1037.19 403.077
384 0 81.0904 11.518 934 57.7677 1037.27 398.155
385 0 84.0974 12.212 1027 57.3291 1037.46 397.127
386 0 91.2354 13.2076 1205 55.3336 1037.26 399.661
387 1 42.1323 8.68692 366 58.8661 1037.03 418.134
388 0 47.1272 10.8642 512 55.627 1037.04 420.943
389 0 50.0639 11.1457 558 56.0771 1037.33 417.989
390 0 51.0981 13.4056 685 54.0978 1037.6 417.615
391 0 52.1179 11.2821 588 56.4983 1037.45 413.735
392 0 55.1017 11.8871 655 55.771 1037.7 414.101
393 0 58.1053 10.0507 584 57.2312 1037.51 415.108
394 0 61.1826 13.6967 838 53.5728 1037.19 413.974
395 0 59.0754 10.7998 638 56.8746 1036.41 407.997
396 0 63.0902 12.1572 767 55.1173 1036.8 412.402
397 0 63.2571 11.7773 745 55.6336 1036.64 410.332
398 0 65.1414 11.4674 747 56.3561 1037.24 408.541
399 0 71.1143 14.1322 1005 53.0139 1037.74 409.205
400 0 70.1224 13.3338 935 54.3957 1037.84 408.336
401 0 75.1299 10.9144 820 56.2122 1036.93 404.663
402 0 75.136 11.1664 839 56.559 1037.1 403.837
403 0 81.081 12.3827 1004 54.5319 1036.69 405.846
404 0 79.2785 11.0749 878 56.0308 1036.56 405.068
405 1 40.0677 11.1561 447 56.2953 1036.82 418.702
406 0 44.1743 11.2056 495 55.4747 1036.9 422.303
407 0 48.1373 11.8827 572 54.5682 1037.15 419.705
408 0 47.0718 11.1532 525 55.8019 1037.07 419.35
409 0 48.0924 9.71048 467 57.1113 1036.49 416.212
410 0 51.1548 12.7261 651 54.1244 1036.94 417.364
411 0 52.1231 14.1396 737 53.2659 1037.13 415.194
412 0 55.0407 12.7179 700 54.2143 1037.46 415.687
413 0 59.2776 14.2212 843 52.223 1037.64 415.221
414 0 59.128 12.5998 745 54.3087 1037.3 412.584
415 0 61.1245 12.45 761 54.4481 1037.44 410.164
416 0 64.2251 11.8334 760 54.9553 1037.46 409.378
417 0 65.1491 11.0516 720 55.65 1037.85 408.418
418 0 66.1028 11.4216 755 55.6914 1037.25 406.833
419 0 70.2658 11.1292 782 55.7417 1037.32 405.038
420 0 73.108 12.2011 892 54.5191 1037.39 407.578
421 0 75.0867 12.6387 949 54.7123 1037.35 403.979
422 0 76.0582 11.0442 840 56.0714 1037.29 405.785
423 0 80.2249 12.465 1000 55.119 1037.78 401.357
424 0 82.0689 12.2946 1009 55.3925 1037.82 400.465
425 0 86.1942 10.8128 932 56.515 1037.55 399.958
426 0 92.1104 12.6804 1168 54.2654 1037.8 403.92
427 0 93.2894 12.756 1190 54.9681 1037.2 399.516
428 0 97.301 10.6063 1032 56.3634 1037.62 402.016
429 1 50.1626 10.6852 536 55.2276 1037.66 421.584
430 0 50.022 11.295 565 56.8088 1038.13 415.848
431 0 54.0694 11.6517 630 55.6905 1038.23 416.746
432 0 53.0771 11.9449 634 56.3423 1038.61 413.904
433 0 55.0423 11.3549 625 56.6464 1038.18 413.142
434 0 58.0716 11.9508 694 56.0807 1038.33 414.163
435 0 60.09 14.8278 891 53.6431 1038.36 412.281
436 0 65.0944 15.1165 984 52.9522 1037.83 411.234
437 0 65.1278 10.7942 703 56.9872 1036.96 410.859
438 0 64.1404 12.9559 831 56.077 1037.09 409.799
439 0 73.1299 15.0828 1103 52.806 1037.11 413.434
440 0 75.1385 14.5332 1092 53.8013 1037.33 410.954
441 0 77.2956 13.3255 1030 54.5408 1037.17 412.378
442 0 80.0956 12.6599 1014 56.2584 1036.94 405.08
443 0 82.2278 11.8695 976 57.3719 1036.85 404.561
444 0 85.1317 14.1193 1202 55.5657 1036.65 402.964
445 0 90.1197 12.6609 1141 56.518 1036.11 404.833
446 0 95.1676 14.3431 1365 55.4403 1036.23 401.383
447 1 45.1532 9.10234 411 59.4672 1037.29 421.878
448 0 48.1587 11.2337 541 58.1701 1037.04 420.07
449 0 51.0766 11.6883 597 57.3652 1036.91 421.27
450 0 52.0342 11.1081 578 58.5035 1036.8 418.185
451 0 57.0722 11.2139 640 57.3953 1036.63 419.245
452 0 59.0984 12.0308 711 57.2911 1036.84 416.876
453 0 59.0897 15.1295 894 54.274 1037.06 419.353
454 0 61.2086 13.4622 824 55.1359 1036.33 419.453
455 0 63.2165 13.9995 885 54.7955 1036.84 416.525
456 0 65.1683 12.414 809 56.9518 1036.39 412.885
457 0 66.1512 13.9831 925 55.5395 1036.82 415.384
458 0 70.079 11.858 831 57.3995 1036.83 413.004
459 0 72.1068 13.8267 997 55.9478 1036.67 412.971
460 0 73.0424 12.568 918 57.5926 1036.49 410.568
461 0 77.4384 13.1072 1015 56.6847 1036.42 409.944
462 0 78.0818 12.7687 997 57.4734 1036.69 409.304
463 0 81.1812 13.7717 1118 57.246 1036.75 405.082
464 0 85.2018 13.11 1117 56.7055 1037.8 411.087
465 0 88.2472 12.703 1121 58.347 1038.17 403.963
466 0 91.2469 14.0827 1285 57.084 1038.21 403.563
467 0 91.2216 13.2425 1208 58.7947 1037.73 399.924
468 1 44.0285 10.5386 464 59.6034 1037.95 423.649
469 0 49.0992 11.0389 542 58.3506 1037.59 426.26
470 0 53.1908 13.0098 692 56.0477 1037.81 426.377
471 0 53.1942 11.8434 630 57.954 1037.23 424.165
472 0 55.0986 12.8134 706 57.3994 1036.83 423.494
473 0 54.3115 9.97948 542 60.7085 1037.17 422.315
474 0 58.075 12.3461 717 58.0642 1036.99 421.4
475 0 59.1493 11.378 673 59.2808 1037.11 420.822
476 0 62.0853 12.9821 806 58.2705 1037.19 417.215
477 0 62.1628 13.6577 849 57.9317 1037.35 416.72
478 0 64.0465 12.7095 814 58.8157 1037.92 416.182
479 0 66.136 14.1375 935 57.5604 1038.05 417.921
480 0 66.0945 12.3308 815 60.1902 1038.07 413.364
481 0 69.1671 11.8698 821 60.7418 1037.84 412.171
482 0 72.1414 14.1666 1022 58.3591 1038.29 411.859
483 0 76.1538 14.1818 1080 58.288 1037.06 408.529
484 0 76.1085 12.8764 980 60.0827 1037.3 409.071
485 0 72.1068 10.0545 725 63.5366 1037.35 397.673
486 1 83.1015 12.4185 1032 60.8217 1037.28 405.344
487 0 87.2895 9.95538 869 62.9712 1037.77 406.107
488 1 46.1986 9.69726 448 61.6897 1037.41 423.165
489 0 46.0285 12.7964 589 59.7385 1037.52 420.126
490 0 47.1682 11.3848 537 60.9926 1036.97 422.43
491 0 49.0791 11.7769 578 61.1609 1037.29 420.087
492 0 51.0877 12.5471 641 59.9579 1037.49 419.647
493 0 53.0278 13.3892 710 59.5887 1037.07 416.737
494 0 56.1094 11.5667 649 60.7088 1036.53 417.351
495 0 60.1805 13.4761 811 58.4945 1036.27 416.319
496 0 60.0827 12.1499 730 60.4014 1036.56 415.359
497 0 64.1944 14.238 914 57.7867 1037.15 415.857
498 0 67.2571 12.9206 869 59.4016 1037.31 414.409
499 0 69.0467 14.2223 982 58.2077 1036.99 413.048
500 0 69.1282 12.6142 872 60.3326 1036.15 411.194
501 0 73.0675 13.7544 1005 58.9841 1036.47 410.809
502 0 76.1033 11.1953 852 61.5352 1037.02 410.464
503 0 80.1737 12.186 977 60.2938 1037.18 407.954
504 0 78.1868 14.67 1147 58.8204 1037.23 403.806
505 0 86.088 11.2327 967 61.2927 1036.7 403.727
506 1 46.1104 10.67 492 59.8516 1036.39 424.134
507 0 48.3737 11.8039 571 58.8161 1036.76 424.294
508 0 47.0832 12.7646 601 58.8103 1036.98 420.952
509 0 52.355 11.6321 609 58.5764 1037.96 423.957
510 0 50.0817 10.5627 529 60.9811 1037.56 420.274
511 0 54.1203 11.3266 613 59.3409 1037.36 420.38
512 0 56.1126 12.6888 712 57.5042 1037.53 420.657
513 0 57.0985 11.5765 661 58.7882 1037.81 420.891
514 0 59.1759 12.3699 732 57.8306 1037.75 419.824
515 0 60.0847 13.8804 834 56.464 1038.17 417.451
516 0 64.0584 13.4252 860 57.8453 1037.5 413.89
517 0 62.1783 12.3194 766 59.564 1037.65 414.708
518 0 66.278 13.0209 863 58.9965 1037.18 411.877
519 0 68.1401 13.6924 933 58.1629 1036.76 409.954
520 0 68.1458 12.7227 867 59.323 1037 409.299
521 0 72.1218 14.739 1063 57.19 1037.25 408.378
522 0 74.2159 13.4203 996 58.3414 1036.3 407.702
523 0 77.09 13.0627 1007 58.7944 1036.4 405.048
524 0 80.1363 13.7641 1103 58.1414 1036.61 405.17
525 0 82.0877 13.8023 1133 58.4872 1036.76 402.857
526 0 83.0789 11.9284 991 60.3804 1036.39 401.17
527 0 88.169 11.7048 1032 59.7984 1036.76 400.709
528 1 48.101 9.04346 435 59.8276 1036.95 422.336
529 0 49.096 13.0561 641 56.7332 1037.66 421.68
530 0 53.2258 12.8885 686 56.516 1038.2 419.144
531 0 54.0745 11.7431 635 57.8835 1037.02 415.474
532 0 57.2534 11.5452 661 58.1437 1037.16 415.26
533 0 58.0922 12.79 743 56.8775 1037.42 416.51
534 0 59.1092 10.8443 641 59.0749 1037.62 415.693
535 0 61.1051 12.814 783 57.6335 1037.42 413.315
536 0 63.0576 12.7503 804 57.3408 1037.4 411.46
537 0 69.308 12.4228 861 56.9512 1037.53 411.987
538 0 68.0303 11.3626 773 58.9263 1037.1 407.564
539 0 71.1632 12.7173 905 57.7061 1036.77 407.891
540 0 73.3671 12.5669 922 57.5879 1037.16 409.548
541 0 78.292 11.5337 903 59.2403 1037.09 404.003
542 0 78.0732 12.0528 941 59.339 1036.97 403.554
543 0 80.2066 13.8767 1113 57.7197 1036.96 405.006
544 0 85.0845 14.2212 1210 57.6702 1036.53 401.83
545 0 89.1579 13.0779 1166 58.7238 1036.42 400.087
546 1 41.1104 7.37039 303 63.3597 1036.87 421.475
547 0 47.0909 11.3822 536 58.1213 1036.48 423.317
548 0 48.0641 12.2337 588 57.4473 1036.48 421.655
549 0 48.156 10.5906 510 57.8078 1036.84 419.675
550 0 52.0462 10.8942 567 59.3845 1037.27 420.714
551 0 50.0371 12.4907 625 58.7152 1037.76 417.446
552 0 53.0562 10.5925 562 60.6157 1037.66 416.751
553 0 57.0253 11.8018 673 58.9079 1037.34 416.125
554 0 59.133 15.0001 887 55.8681 1037.35 415.035
555 0 60.1968 10.3162 621 60.6634 1037.67 416.267
556 0 62.163 11.5825 720 59.6042 1037.71 414.233
557 0 66.187 12.7064 841 58.6397 1037.36 409.014
558 0 67.0184 11.7729 789 59.3878 1037.29 414.029
559 0 69.134 11.7164 810 59.8494 1037.41 411.033
560 0 75.3009 13.1871 993 57.8107 1037.3 410.574
561 0 75.0846 12.1596 913 59.563 1037.11 409.371
562 0 80.1865 13.5559 1087 57.6164 1037.57 409.719
563 0 82.188 11.5954 953 60.0871 1037.1 405.79
564 0 84.0867 10.7984 908 60.8183 1037.11 407.965
565 1 47.0805 10.3015 485 58.6082 1037.08 425.095
566 0 45.0523 12.0748 544 56.6599 1036.8 426.77
567 0 51.1459 9.52177 487 59.2464 1036.85 422.934
568 0 49.133 10.8481 533 58.9006 1037.13 419.848
569 0 50.1196 9.6569 484 59.7624 1036.98 421.128
570 0 53.0778 12.7549 677 55.356 1037.68 422.391
571 0 54.1819 11.2215 608 57.6661 1037.57 421.271
572 0 57.1205 12.4474 711 56.7525 1037.65 414.595
573 0 55.1217 11.8465 653 58.0643 1037.08 415.931
574 0 61.1261 13.5949 831 55.6751 1037.42 412.574
575 0 62.0695 12.0993 751 57.6471 1037.07 409.835
576 0 65.12 10.519 685 58.8131 1037.35 409.296
577 0 69.177 10.8996 754 58.3236 1037.58 409.227
578 0 70.3589 10.8302 762 58.4029 1037.5 409.486
579 0 73.2089 10.313 755 58.7682 1037.94 407.995
580 0 75.1896 11.1851 841 57.742 1037.58 407.397
581 0 76.2517 9.82273 749 59.6489 1037.76 405.347
582 1 42.0737 12.8108 539 55.1039 1037.91 420.243
583 0 44.1582 12.1382 536 55.9963 1037.25 420.112
584 0 46.1338 10.3828 479 57.8309 1037.14 419.507
585 0 49.0813 12.7136 624 54.742 1036.95 420.66
586 0 48.0606 10.3203 496 57.8609 1036.22 418.976
587 0 48.0937 10.5835 509 58.1061 1036.48 416.305
588 0 50.0257 11.634 582 57.244 1036.71 412.99
589 0 53.0399 13.4239 712 55.2725 1036.79 414.721
590 0 54.0392 11.6027 627 57.4769 1036.8 411.785
591 0 53.0554 9.46181 502 59.5857 1036.56 413.199
592 0 57.1324 11.8322 676 57.3861 1036.97 411.243
593 0 60.0796 12.6499 760 56.2868 1036.56 408.497
594 0 60.0684 12.6523 760 56.8066 1036.96 408.774
595 0 64.0635 12.6125 808 56.5668 1036.92 408.057
596 0 66.0962 10.5301 696 58.283 1037.02 406.751
597 0 66.1052 11.5573 764 57.7107 1036.8 404.812
598 0 72.0608 12.1425 875 56.8469 1036.72 402.723
599 0 74.096 12.8212 950 56.2453 1036.8 403.757
600 0 77.1963 10.7777 832 58.0577 1036.48 400.477
601 0 81.1845 11.8249 960 56.7969 1037.39 401.058
602 0 83.1969 12.1399 1010 56.804 1037.29 398.243
603 0 86.1566 13.963 1203 55.3666 1036.99 397.176
604 1 44.022 11.7441 517 56.323 1036.54 415.441
605 0 47.0537 12.0076 565 55.9628 1037.15 416.761
606 0 50.1695 10.9429 549 57.0528 1037.33 416.508
607 0 52.0561 11.9294 621 56.4863 1036.72 413.155
608 0 53.0142 11.9213 632 56.5791 1037.19 412.074
609 0 56.169 12.2844 690 56.1246 1037.72 411.497
610 0 60.1043 11.7795 708 56.3333 1037.29 413.575
611 0 57.0611 11.0759 632 57.8228 1037.32 413.204
612 0 60.0928 13.0299 783 55.9068 1036.88 412.397
613 0 64.0315 12.4001 794 56.2594 1036.75 410.725
614 0 64.0911 9.43969 605 59.1455 1036.96 409.775
615 0 67.1971 13.5869 913 55.6911 1037.21 406.892
616 0 70.0919 13.5394 949 56.255 1037.01 405.721
617 0 72.0657 10.8651 783 58.4138 1036.71 406.844
618 0 82.101 14.6649 1204 46.6985 1036.42 405.884
619 0 81.0475 12.795 1037 56.5796 1037.16 402.636
620 0 83.2439 13.3583 1112 56.4074 1036.15 400.045
621 0 87.1259 12.6484 1102 57.2768 1036.48 399.752
622 0 90.0982 14.3399 1292 55.3646 1036.45 400.692
623 0 89.1258 11.8035 1052 58.9268 1036.39 396.16
624 1 53.0202 11.4485 607 57.0412 1036.35 416.685
625 0 53.0925 12.45 661 56.8593 1036.16 415.927
626 0 56.1164 11.5296 647 56.9258 1036.34 416.122
627 0 59.189 11.9617 708 56.3206 1036.46 415.431
628 0 60.0782 12.2507 736 56.6508 1036.82 412.251
629 0 60.1079 13.2761 798 55.9085 1036.13 413.068
630 0 64.1969 13.6144 874 55.6533 1036.04 410.252
631 0 65.0617 12.2806 799 57.5594 1036.13 406.787
632 0 68.2679 12.0554 823 56.842 1035.59 409.344
633 0 72.2557 12.8294 927 56.4186 1036.09 408.194
634 0 72.17 13.4128 968 56.0052 1036.16 406.045
635 0 74.221 11.8834 882 58.017 1036.5 406.389
636 0 77.0402 13.785 1062 56.9087 1036.98 400.864
637 0 81.1037 13.4766 1093 56.9735 1036.6 400.104
638 0 85.113 11.7138 997 58.7533 1037.25 398.731
639 0 86.1886 11.9389 1029 59.3188 1037.63 395.516
640 0 88.1218 12.8912 1136 58.2148 1037.2 399.226
641 0 92.1975 13.8182 1274 57.4152 1037.09 396.115
642 0 95.3462 13.624 1299 57.9092 1037.49 393.916
643 0 101.477 12.2097 1239 59.4802 1036.89 391.88
644 0 103.278 12.3647 1277 59.3814 1037 392.847
645 1 54.2264 11.9868 650 58.3292 1036.64 414.708
646 0 53.2075 9.79186 521 61.643 1036.61 414.695
647 0 63.3387 15.0303 952 54.2794 1036.81 416.53
648 0 61.2231 11.7603 720 58.7153 1035.92 413.472
649 0 61.5061 12.4541 766 58.8029 1036.63 411.585
650 0 68.4141 13.316 911 56.9254 1036.49 409.772
651 0 67.1867 11.5053 773 59.0621 1035.94 411.859
652 0 70.217 12.2335 859 58.461 1035.98 408.655
653 0 73.5698 11.4449 842 58.9869 1036.33 410.514
654 0 73.0922 10.5346 770 60.1896 1036.48 406.705
655 0 79.3209 12.9852 1030 57.468 1035.96 405.096
656 0 80.1955 13.6417 1094 57.1508 1036.41 406.252
657 0 84.4559 16.4583 1390 54.1245 1037.15 404.293
658 0 86.0989 14.344 1235 56.1385 1036.02 404.779
659 0 87.0493 12.0162 1046 58.9417 1035.62 400.751
660 0 95.4153 13.5618 1294 57.0796 1036.21 396.826
661 0 97.2998 12.775 1243 58.4336 1035.86 392.901
662 1 50.3586 12.2521 617 57.6256 1035.96 415.828
663 0 53.2587 11.7539 626 57.7716 1036.61 417.264
664 0 54.0264 12.6605 684 57.2325 1036.24 415.301
665 0 56.2401 13.2646 746 56.8928 1036.01 413.361
666 0 58.1727 12.0331 700 57.82 1035.79 410.694
667 0 60.0981 14.4431 868 55.0645 1036.59 416.397
668 0 62.1508 11.3916 708 58.0989 1036.58 414.484
669 0 66.2613 14.3825 953 55.5331 1036.82 410.387
670 0 68.196 11.9802 817 57.7931 1036.56 406.607
671 0 71.2968 12.2165 871 57.4294 1035.9 407.538
672 0 72.1977 14.6127 1055 55.7185 1036.26 406.065
673 0 77.2282 14.0493 1085 55.7972 1036.08 402.81
674 0 76.2354 13.4452 1025 57.2702 1036.2 398.339
675 0 79.2085 11.88 941 58.9224 1035.71 398.091
676 0 82.079 12.3783 1016 58.4675 1035.52 397.606
677 0 86.2217 14.4163 1243 56.6677 1035.59 393.427
678 0 89.1162 14.0827 1255 57.0438 1034.65 393.947
679 0 92.2588 12.6058 1163 58.3534 1035.43 389.997
680 0 96.2597 13.6298 1312 57.3445 1035.97 394.152
681 0 98.0936 11.7847 1156 59.577 1035.82 386.415
682 0 103.114 12.1516 1253 59.3136 1035.91 385.891
683 0 106.261 11.7258 1246 59.7978 1035.9 385.32
684 0 110.197 11.3342 1249 60.4924 1035.65 382.548
685 0 114.263 11.2985 1291 60.3315 1035.57 380.631
686 0 120.407 12.6986 1529 58.6024 1035.3 383.679
687 0 125.23 11.914 1492 59.5985 1035.93 379.674
688 1 65.1822 11.0613 721 59.3675 1036.14 404.763
689 0 70.2981 11.2663 792 58.9937 1036.48 405.855
690 0 75.2889 10.8383 816 59.2929 1036.47 404.5
691 0 80.3145 14.6673 1178 54.7793 1036.32 406.829
692 0 80.3057 12.7388 1023 57.5112 1036.18 403.592
693 0 86.6107 13.4164 1162 56.5516 1035.85 402.403
694 0 85.247 11.7072 998 59.1944 1035.7 398.683
695 0 89.258 14.3965 1285 56.7191 1036.19 396.852
696 0 92.6989 14.1857 1315 56.9087 1036.06 396.948
697 0 94.3362 13.3671 1261 58.1443 1035.61 394.311
698 0 98.2354 14.6587 1440 56.8007 1036.09 393.124
699 0 101.423 13.5867 1378 58.0435 1036.22 394.263
700 0 104.272 15.2103 1586 56.6885 1036.6 390.357
701 0 107.357 14.0839 1512 57.9292 1036.67 389.293
702 0 109.454 16.1894 1772 56.355 1036.78 379.226
703 0 114.153 14.8135 1691 57.8492 1036.54 384.747
704 0 118.3 13.2122 1563 59.3404 1036.39 385.211
705 0 120.204 12.1294 1458 60.9335 1036.05 382.94
706 0 127.253 13.0527 1661 59.932 1034.6 374.828
707 1 64.258 12.6677 814 59.1007 1036.33 407.692
708 0 67.1369 12.0351 808 58.9579 1035.96 408.012
709 0 70.0309 14.5793 1021 56.431 1036.67 409.452
710 0 70.1886 13.2073 927 58.5771 1036.09 406.03
711 0 75.0948 14.9012 1119 55.6586 1035.7 405.474
712 0 75.0792 13.8654 1041 56.903 1035.55 403.554
713 0 80.2718 15.8462 1272 54.6918 1035.35 401.622
714 0 82.2004 13.4671 1107 57.7182 1035.74 398.421
715 0 84.3347 12.9958 1096 58.1597 1035.33 400.848
716 0 88.0481 14.1286 1244 57.3376 1035.32 399.151
717 0 90.1355 14.5781 1314 57.4475 1034.93 395.391
718 0 94.2234 15.1342 1426 56.8969 1035.42 393.634
719 0 94.1911 13.2178 1245 59.2426 1035.96 393.874
720 0 100.274 15.4577 1550 56.96 1036.17 391.805
721 0 100.184 14.4834 1451 58.754 1036.34 389.552
722 0 104.279 13.8666 1446 59.5311 1036.83 387.501
723 1 58.1739 12.7377 741 58.1511 1036.77 414.563
724 0 61.0789 13.72 838 57.0465 1036.69 415.128
725 0 61.1858 13.8104 845 56.5988 1036.45 417.105
726 0 64.2612 11.5622 743 60.0673 1037.02 412.456
727 0 61.1749 13.7802 843 58.2752 1036.9 414.344
728 0 66.2336 14.1016 934 57.4914 1036.6 414.119
729 0 70.2339 13.2842 933 58.3205 1036.07 412.185
730 0 71.1046 13.5716 965 58.6829 1036.36 411.939
731 0 75.1839 14.0057 1053 58.0551 1036.95 411.944
732 0 79.2136 13.1922 1045 59.2077 1036.75 407.703
733 0 81.0766 11.5693 938 60.3625 1037.15 410.262
734 0 84.1436 13.881 1168 58.3887 1036.93 406.491
735 0 86.1102 16.5137 1422 56.3629 1036.96 404.878
736 1 48.28 16.3836 791 54.3123 1036.96 425.523
737 0 48.1747 10.711 516 60.126 1036.73 424.079
738 0 52.1936 14.9252 779 55.8691 1037.04 422.919
739 0 52.1018 12.2453 638 58.5204 1037.18 425.014
740 0 55.264 12.1417 671 59.0358 1036.79 422.829
741 0 55.1139 15.5315 856 56.4848 1036.58 422.097
742 0 58.1624 11.743 683 58.9883 1036.62 422.309
743 0 59.2305 12.6117 747 59.6386 1036.25 419.274
744 0 58.1382 11.1975 651 61.0353 1036.29 418.508
745 0 61.0946 12.4234 759 59.7246 1036.13 421.244
746 0 65.1344 12.5433 817 59.7442 1036.23 416.857
747 0 68.0347 15.0217 1022 57.2984 1036.36 418.386
748 0 70.289 13.1884 927 59.2481 1036.52 415.762
749 0 74.2639 13.2904 987 58.8369 1035.95 414.385
750 0 73.4507 12.9611 952 60.1439 1036.31 414.649
751 0 75.1062 11.983 900 61.3656 1037.28 413.343
752 0 79.0579 13.3193 1053 59.8101 1036.66 412.97
753 0 82.1262 13.0896 1075 60.5674 1036.76 411.967
754 0 85.0722 14.0587 1196 59.2299 1036.74 412.913
755 0 87.1444 12.0031 1046 61.1635 1036.46 413.941
756 1 46.0817 12.6731 584 58.1969 1036.81 432.452
757 0 46.056 13.0276 600 58.47 1036.95 431.68
758 0 48.1238 9.78725 471 61.3418 1036.47 430.614
759 0 48.0316 13.741 660 58.3939 1036.41 428.742
760 0 49.0439 12.3359 605 59.5835 1036.09 428.253
761 0 52.0192 12.207 635 59.4583 1036.42 429
762 0 55.1006 14.0652 775 57.0942 1036.35 428.61
763 0 57.0917 11.3852 650 58.9969 1036.72 427.766
764 0 56.0809 10.2887 577 59.9775 1036.74 427.846
765 0 58.0351 13.9226 808 57.448 1037.3 425.356
766 0 59.1472 11.4967 680 60.0721 1037.18 424.909
767 0 60.0362 11.1266 668 60.1976 1037.06 424.409
768 0 65.0538 12.2514 797 58.5772 1036.41 425.208
769 0 67.1551 11.9425 802 58.8766 1036.55 423.071
770 0 70.1209 13.5338 949 57.5047 1036.81 421.941
771 0 70.2107 10.2549 720 60.1444 1036.68 424.701
772 0 72.1957 12.0229 868 59.053 1036.45 421.977
773 0 77.1123 12.6958 979 58.0266 1036.63 421.263
774 0 78.1453 12.7199 994 58.2736 1036.54 422.679
775 0 81.0363 12.6733 1027 57.5735 1035.81 422.765
776 0 84.183 10.8098 910 60.189 1036.07 417.469
777 0 86.0757 10.6534 917 59.5485 1035.37 419.775
778 0 90.0951 12.176 1097 58.4412 1035.24 416.51
779 1 47.0829 12.1275 571 56.7898 1035.83 439.266
780 0 49.0303 9.6267 472 58.7585 1035.45 435.193
781 0 53.0319 11.8985 631 56.2044 1036.01 436.978
782 0 54.1301 11.4908 622 57.1977 1036.56 435.548
783 0 56.0548 12.3094 690 56.2696 1036.98 434.632
784 0 57.0367 11.3611 648 57.25 1037.12 430.844
785 0 60.0484 10.2417 615 58.2293 1036.63 432.694
786 0 63.1616 11.3677 718 57.0446 1036.57 431.159
787 0 66.0448 11.689 772 56.5453 1036.85 431.484
788 0 65.2824 12.5915 822 56.4428 1036.29 426.622
789 0 70.0866 11.657 817 56.8054 1036.47 428.105
790 0 72.0262 10.4406 752 57.7327 1036.37 423.665
791 0 73.0576 12.3738 904 56.3119 1036.62 424.705
792 0 76.1766 11.1452 849 57.4653 1036.56 421.218
793 0 84.0818 14.2837 1201 53.7394 1036.88 426.36
794 0 87.1363 12.6239 1100 55.8545 1036.02 422.371
795 0 88.0823 11.7163 1032 57.1948 1035.93 421.092
796 1 44.0273 12.4014 546 54.6136 1036.39 441.154
797 0 46.0418 10.2081 470 55.3021 1036.26 443.953
798 0 46.051 12.2473 564 55.3103 1036.12 440.434
799 0 48.1358 10.2834 495 56.9879 1036.49 436.537
800 0 48.112 12.4501 599 55.793 1035.94 436.424
801 0 52.0493 9.14517 476 58.5084 1036.55 439.025
802 0 54.0815 12.1114 655 56.0473 1037.56 436.907
803 0 56.113 12.0649 677 57.1905 1037.41 433.583
804 0 59.141 12.411 734 56.1376 1037.1 435.924
805 0 61.1383 12.0219 735 57.215 1037.26 431.424
806 0 63.1213 12.1987 770 57.4727 1037.65 430.079
807 0 67.0389 12.888 864 56.1898 1037.53 432.667
808 0 67.0972 11.5206 773 58.4049 1037.34 431.595
809 0 72.0899 13.7606 992 57.0706 1036.7 426.167
810 0 74.0683 12.0024 889 59.6985 1037.43 426.29
811 0 77.1149 12.6435 975 59.9303 1036.73 422.809
812 0 82.1933 12.6774 1042 59.6871 1037.04 424.551
813 0 82.1889 11.0842 911 62.1811 1036.96 420.541
814 0 87.1863 11.8711 1035 61.3285 1037.8 418.181
815 0 93.2306 12.0132 1120 60.9652 1037.61 417.843
816 1 4 3 12 58.75 1037.92 423.25
817 1 41.0508 8.37985 344 58.9913 1038.36 444.794
818 0 42.0956 9.45468 398 59.4724 1037.97 441.495
819 0 45.0371 12.7006 572 55.9476 1038.85 440.32
820 0 47.0358 10.2262 481 58.5322 1038.85 440.661
821 0 49.051 13.2311 649 55.3005 1038.46 437.974
822 0 51.1038 13.815 706 55.0297 1037.55 437.086
823 0 53.0986 12.1096 643 56.9409 1037.27 436.16
824 0 59.2286 11.2277 665 57.185 1037.91 435.239
825 0 57.0758 13.5259 772 55.5492 1037.29 435.889
826 0 57.1187 11.6599 666 58.2853 1037.07 430.291
827 0 61.0949 11.3266 692 58.2977 1037.03 433.175
828 1 0 0 1.04732e-303 -nan 276 -0.0394378
829 1 143.185 9.39347 1345 63.7918 1036.53 395.771
830 0 142.176 7.75093 1102 65.1461 1036.17 397.31
831 0 143.196 9.22509 1321 63.0961 1036.77 398.359
832 0 142.256 7.22639 1028 63.57 1035.6 406.555
833 1 83.2711 10.0035 833 59.5906 1035.89 426.898
834 0 87.4606 12.2684 1073 57.8555 1037.68 423.582
835 0 92.3269 12.055 1113 58.3109 1037.1 421.804
836 0 92.4555 12.2654 1134 58.6332 1037.28 417.431
837 0 94.1433 12.7147 1197 58.8906 1037.04 415.186
838 1 13.0134 6.60858 86 44.3372 1039.44 460.884
839 0 15.0017 5.86601 88 44.4205 1038.92 459.58
840 0 13.0031 1.30738 17 47 1040.18 458.941
841 0 13.0041 4.92152 64 43.9219 1038.95 457.391
842 0 15.0384 13.0333 196 40.2398 1039.32 458.571
843 0 13.0022 6.76811 88 45.0114 1038.92 460.125
844 0 14.0301 4.13396 58 45.569 1038.86 455.603
845 0 14.0159 5.99318 84 44.0714 1039.45 457.536
846 0 14.0289 6.91431 97 43.567 1039.68 455.206
847 0 15.0108 9.92617 149 42.349 1038.57 456.195
848 0 12.0078 8.99417 108 42.463 1038.3 457.296
849 0 12.0146 4.07838 49 45.3265 1039.24 457.898
850 0 13.0281 9.51788 124 42.0323 1038.45 456.54
851 0 12.0033 7.9978 96 43.2917 1038.67 457.635
852 0 12.0353 4.73607 57 43.8947 1038.93 457.386
853 0 10.0048 6.89671 69 42.8986 1039.12 455.913
854 0 14.0978 8.37012 118 42.2203 1039.21 456.593
855 0 15.0171 9.58909 144 41.6597 1038.5 455.84
856 0 11.0158 5.71907 63 43.4127 1038.63 457.032
857 0 13.0053 8.0736 105 42.1429 1038.31 456.076
858 0 13.0227 2.0733 27 45.2963 1038.63 455.815
859 0 12.0064 4.08117 49 43.0408 1039.37 458.633
860 0 0 0 1.04732e-303 -nan 412 -0.254714
861 0 0 0 1.04732e-303 -nan 316 0.00718406
862 0 0 0 1.04732e-303 -nan 312 -0.00335608
863 0 12.0112 4.74556 57 42.3333 1038.4 454.439
864 0 4 10 40 36.525 1042.85 450.225
865 0 4 7.75 31 39.5484 1036.35 452.097
866 0 9.00252 5.554 50 42 1039.76 455.64
867 0 3 3.66667 11 41.9091 1039.73 449.455
868 1 14.0131 6.27982 88 41.5227 1038.01 455.375
869 0 11.0026 4.08995 45 42.3556 1039 455.511
870 0 11.039 6.43172 71 41.8592 1038.45 454.577
871 0 13.0311 4.98808 65 42.2769 1039 453.615
872 0 14.0086 7.70953 108 40.6667 1038.69 452.759
873 0 12.0047 5.08134 61 42.5246 1038.16 453.508
874 0 12.0107 4.07971 49 42.8776 1038.2 452.837
875 0 13.0132 11.5267 150 39.7067 1038.19 452.927
876 0 13.0058 8.84224 115 40.487 1038.34 452.661
877 0 14.1875 10.7841 153 38.6993 1038.94 452.007
878 0 12.0095 11.3244 136 39.3529 1038.47 452.441
879 0 12.0029 3.83241 46 42.6957 1038.48 453.848
880 0 9.00317 12.1068 109 39.4771 1038.1 452.394
881 0 14.1081 10.7031 151 38.6159 1038.09 452.96
882 0 12.0026 8.99805 108 40.6667 1038.33 453.62
883 0 14.0037 7.35518 103 41.5146 1037.88 455.155
884 0 12.0119 9.07431 109 41.0917 1038.06 453.633
885 0 14.0117 11.5618 162 40.0864 1038.49 453.765
886 0 15.0194 3.99484 60 44.2833 1039 454.733
887 0 15.0258 5.59039 84 42.75 1039.33 457.298
888 0 15.009 10.9934 165 41.4242 1038.65 454.345
889 0 19.0579 9.54985 182 42.1868 1038.45 453.879
890 0 17.1356 8.63699 148 44.7838 1037.73 453.804
891 0 17.109 11.1637 191 43.9215 1037.63 453.429
892 0 18.0094 10.7722 194 44.9381 1037.81 452.361
893 0 22.2788 11.2663 251 45.0199 1037.59 452.355
894 0 22.4442 9.26743 208 46.8462 1036.77 452.096
895 0 24.23 9.78124 237 46.9451 1037.37 451.954
896 0 27.2607 8.07022 220 48.0273 1037.75 453.059
897 0 26.2187 11.671 306 46.7843 1037.62 451.212
898 0 26.2742 10.9233 287 48.5749 1037.41 450.199
899 0 28.1682 11.7863 332 48.009 1037.12 451.114
900 0 30.4551 8.83267 269 50.2714 1037.17 451.699
901 0 34.4986 10.783 372 48.2016 1037.2 452.573
902 0 33.3563 11.542 385 49.1922 1036.79 451.371
903 0 32.1514 11.508 370 50.2541 1037.28 450.965
904 0 33.2177 10.9279 363 50.7466 1037.55 450.7
905 0 37.2532 12.4553 464 48.2091 1037.68 452.425
906 0 36.3045 11.4586 416 50.6418 1037.3 450.488
907 0 38.4596 11.4406 440 51.2636 1037.89 450.1
908 0 37.1882 12.1006 450 51.1978 1037.56 450.387
909 0 38.2962 12.1161 464 50.0388 1037.54 453.578
910 0 37.2518 10.7109 399 52.1228 1037.43 451.521
911 0 41.358 10.3245 427 51.4637 1037.16 453.166
912 0 43.259 13.0609 565 50.0266 1036.07 449.789
913 0 43.2418 10.7304 464 52.0323 1036.41 451.31
914 0 46.4418 13.6084 632 50.0348 1036.4 448.722
915 0 49.3938 14.1111 697 49.5524 1036.7 450.092
916 0 48.4346 11.4381 554 52.3159 1036.69 449
917 0 49.141 11.701 575 52.8313 1036.93 444.179
918 0 51.1182 11.3267 579 52.8808 1037.48 449.126
919 0 54.2195 12.7998 694 52.2882 1037.52 446.318
920 0 59.2248 12.8662 762 51.7402 1037.96 447.315
921 0 59.154 12.3745 732 53.8443 1038.74 442.619
922 0 61.4229 11.4615 704 54.7031 1037.68 441.982
923 0 60.1633 11.3358 682 56.1246 1038.49 438.782
924 0 66.29 13.1996 875 53.3246 1038.21 441.599
925 0 68.2577 12.5261 855 53.9298 1038.26 436.584
926 0 70.3127 13.4115 943 54.6702 1038.66 437.979
927 0 74.3101 13.8474 1029 54.9048 1038.07 435.104
928 0 80.2346 15.0434 1207 53.8169 1038.07 435.751
929 0 83.1717 15.5341 1292 54.3862 1037.72 431.699
930 0 86.4213 13.087 1131 57.2679 1037.89 426.942
931 0 91.3397 14.988 1369 55.8451 1037.26 426.397
932 0 95.2124 15.2711 1454 56.2421 1036.91 422.672
933 0 98.2183 13.8467 1360 58.511 1036.57 423.403
934 0 101.39 13.5516 1374 59.6194 1037.1 420.466
935 0 104.37 13.5096 1410 61.083 1037.03 418.717
936 1 43.1825 9.5409 412 58.9539 1038.23 453.99
937 0 44.1474 8.53957 377 60.6154 1037.79 455.077
938 0 45.1094 12.7468 575 57.2539 1037.48 451.936
939 0 47.1435 11.6453 549 58.4536 1038.24 453.936
940 0 47.1645 11.1313 525 60.4248 1037.63 451.825
941 0 46.1169 12.0346 555 60.0613 1038.43 451.957
942 0 46.1222 9.23634 426 63.885 1038.95 453.329
943 0 48.1231 9.82897 473 63.2072 1038.43 454.827
944 0 49.1294 11.5817 569 62.2513 1038.5 452.093
945 0 49.2578 10.0898 497 64.7907 1038.32 452.994
946 0 47.1111 10.2524 483 65.9379 1038.35 452.228
947 0 50.1945 11.4554 575 63.4644 1038.47 454.934
948 0 49.1374 11.0099 541 65.4307 1037.86 452.272
949 0 52.1006 12.0152 626 63.238 1038.12 454.77
950 0 51.1059 9.901 506 66.9486 1038.17 455.413
951 0 52.2068 12.1823 636 63.9371 1038.62 455.692
952 0 50.127 10.4734 525 66.6705 1037.82 455.518
953 0 51.119 10.2115 522 67.3467 1037.14 454.182
954 0 51.1287 9.87704 505 67.9406 1037.43 456.198
955 0 50.1584 10.6064 532 66.9286 1037.68 456.43
956 0 52.1179 10.7257 559 66.2522 1037.41 456.481
957 0 52.1384 10.0118 522 67.569 1037.14 453.287
