time division length width area intensity CMx CMy
0 0 48.0285 12.909 620 62.4274 814.532 514.111
1 0 49.0628 11.2713 553 64.2929 814.548 512.09
2 0 49.0598 12.4746 612 62.5556 813.757 514.657
3 0 52.0158 12.3232 641 62.3791 813.637 513.457
4 0 52.078 11.1564 581 63.5904 814.084 515.589
5 0 55.0956 12.7959 705 61.7191 814.18 514.962
6 0 54.0897 12.5532 679 62.6819 814.016 515.15
7 0 56.0266 11.8694 665 63.0316 813.126 515.018
8 0 56.0663 12.5387 703 62.1807 813.44 516.817
9 0 59.0881 12.3037 727 62.4085 813.341 514.732
10 0 59.0881 12.3883 732 150.835 813.354 514.795
11 0 62.1604 13.9478 867 60.0715 813.003 513.504
12 0 64.1143 14.3962 923 59.3987 813.121 510.957
13 0 64.0734 11.799 756 62.9034 813.616 510.499
14 0 68.0722 12.3692 842 61.6116 812.322 510.859
15 0 68.1085 12.4948 851 62.5123 812.347 510.626
16 0 70.1663 12.6556 888 62.4809 812.824 510.481
17 0 72.0807 13.0409 940 62.3479 812.655 507.536
18 0 76.037 12.1651 925 63.3157 813.168 507.562
19 0 78.0833 14.0491 1097 61.1787 813.273 507.728
20 1 37.019 10.6432 394 62.8934 813.104 526.32
21 0 37.0208 10.3185 382 64.4058 812.395 525.673
22 0 38.0331 9.62319 366 63.9317 812.691 528.18
23 0 38.0131 10.7068 407 65.2015 812.671 524.462
24 0 40.0661 11.8305 474 64.4641 812.833 523.631
25 0 42.0212 10.9944 462 65.132 812.673 523.846
26 0 44.0218 10.5402 464 65.4634 813.213 524.252
27 0 45.0231 10.3058 464 66.6789 813.537 524.81
28 0 46.0602 11.485 529 66.5104 813.108 522.011
29 0 48.0222 11.9944 576 65.8559 813.245 521.51
30 0 47.0566 9.81795 462 69.7597 813.597 520.139
31 0 51.0141 11.193 571 67.2609 812.513 521.968
32 0 52.0388 11.453 596 67.6913 812.909 518.465
33 0 54.0284 11.679 631 66.1949 813.681 520.721
34 0 57.0556 11.8481 676 66.6139 813.53 516.249
35 0 57.0684 9.84784 562 69.5836 814.004 517.742
36 0 60.0278 11.9944 720 66.2931 813.411 515.379
37 0 60.0815 10.2195 614 69.0212 813.58 515.28
38 0 65.0327 11.8556 771 66.3839 814.016 512.208
39 0 66.0927 12.1799 805 65.8509 814.313 512.075
40 0 69.1352 12.1646 841 65.8811 813.75 510.382
41 0 71.0747 12.4939 888 65.5822 813.571 508.828
42 0 72.0841 11.4727 827 67.1028 814.114 508.287
43 0 75.1858 10.8265 814 67.5676 814.36 508.312
44 1 37.0589 9.63331 357 66.2017 814.597 526.686
45 0 40.0138 11.4461 458 63.3013 814.321 525.742
46 0 39.0361 11.1948 437 64.0343 813.947 526.201
47 0 41.0947 11.364 467 64.3619 814.85 525.165
48 0 42.0543 12.8643 541 62.5434 815.346 523.224
49 0 44.0257 10.6529 469 65.339 814.256 523.821
50 0 43.0249 10.1104 435 66.1724 814.786 524.529
51 0 47.0523 10.4989 494 65.253 814.676 523.555
52 0 49.0428 11.2555 552 64.346 814.567 520.462
53 0 49.0515 10.7438 527 65.0626 814.554 520.448
54 0 50.0234 11.2547 563 64.611 814.536 518.107
55 0 50.0541 11.8871 595 64.484 814.864 518.326
56 0 50.0303 11.9528 598 64.5201 814.443 518.396
57 0 53.1338 10.9723 583 65.06 814.407 516.731
58 0 56.0746 12.1267 680 63.5809 814.141 517.882
59 0 56.086 11.3219 635 64.8614 815.219 516.288
60 0 60.1051 11.796 709 63.2073 815.657 515.746
61 0 62.1306 12.007 746 63.3874 815.743 512.701
62 0 63.0205 11.4883 724 63.9185 815.403 513.623
63 0 65.0902 11.0309 718 64.6908 815.547 510.336
64 0 68.1068 11.3792 775 64.0426 815.27 512.213
65 0 70.1594 11.3171 794 64.2632 814.947 508.904
66 0 73.1035 13.0637 955 62.4524 814.591 507.487
67 0 74.1084 12.1579 901 64.0644 814.447 504.565
68 1 39.0932 9.82269 384 63.2135 814.281 526.331
69 0 37.031 8.96547 332 67.0572 814.816 524.434
70 0 41.0237 10.823 444 63.7275 815.446 524.056
71 0 40.0375 11.2894 452 64.4624 815.569 522.106
72 0 44.0264 10.4028 458 64.9716 815.262 520.83
73 0 42.0477 9.60813 404 66.6312 814.45 521.205
74 0 44.0346 10.6961 471 65.0318 813.989 521.106
75 0 47.0333 11.0347 519 64.3372 813.952 520.287
76 0 47.084 9.93968 468 66.7585 814.705 519.013
77 0 48.043 11.0526 531 65.3785 814.379 519.915
78 0 51.0852 12.2149 624 64.2404 814.468 516.208
79 0 52.0482 11.1435 580 65.7397 814.309 517.01
80 0 54.0702 13.5565 733 62.8186 814.87 516.27
81 0 55.0996 11.1072 612 66.5147 814.951 516.518
82 0 57.0776 12.1414 693 65.0058 815.212 515.052
83 0 56.02 11.0139 617 68.3971 815.585 514.112
84 0 60.0327 11.2439 675 68.08 815.095 513.813
85 0 63.0786 12.8094 808 65.7611 814.761 513.692
86 0 64.1098 12.8374 823 66.3985 815.205 513.4
87 0 65.1101 12.1026 788 67.3668 815.011 512.184
88 0 67.0563 10.6478 714 69.9692 814.606 510.559
89 0 69.0779 12.9709 896 66.885 814.584 508.831
90 0 72.1517 13.1806 951 66.9769 814.862 505.419
91 0 74.1074 12.4549 923 68.2232 814.863 505.555
92 0 76.0668 14.2112 1081 66.1656 815.174 504.482
93 0 77.1865 11.7119 904 69.5177 815.152 505.824
94 0 80.0361 12.3819 991 69.0787 815.396 502.48
95 0 82.0706 11.9775 983 69.1994 815.053 503.519
96 0 85.1123 11.3497 966 70.6905 815.326 502.529
97 0 86.1405 11.4232 984 71.0772 815.381 499.584
98 1 43.0268 9.36625 403 70.6849 815.159 520.948
99 0 45.0105 11.5973 522 67.3908 814.736 520.703
100 0 48.0211 12.9735 623 65.4366 815.008 519.612
101 0 49.0308 11.4418 561 67.5597 814.602 520.841
102 0 51.0141 12.1143 618 66.7282 815.146 518.123
103 0 52.0283 12.4932 650 66.3877 815.277 518.425
104 0 54.0658 11.8004 638 67.4044 815.152 517.102
105 0 55.0613 11.3873 627 67.9059 814.994 516.018
106 0 56.0149 13.0322 730 65.9452 815.008 513.137
107 0 59.0225 12.7917 755 65.7483 815.191 514.77
108 0 59.0322 11.1126 656 68.5244 814.465 512.409
109 0 62.0341 12.9284 802 65.7731 814.549 512.44
110 0 64.0433 12.96 830 64.5072 815.187 513.595
111 0 64.1124 11.745 753 67.5843 815.353 508.301
112 0 66.0771 13.4691 890 64.8202 814.83 508.733
113 0 66.1163 11.9638 791 68.182 814.866 506.31
114 0 69.1189 11.7479 812 67.5936 814.622 506.001
115 0 73.1441 13.1931 965 65.1264 814.405 507.16
116 0 74.0667 11.5031 852 67.8768 814.805 505.282
117 0 76.1141 12.9805 988 65.7753 815.095 505.062
118 1 39.0527 10.9339 427 65.5902 815.569 522.183
119 0 41.049 10.8164 444 65.8829 815.651 521.367
120 0 41.068 9.69123 398 67.2638 815.508 521.985
121 0 41.0406 11.3059 464 65.694 814.578 521.644
122 0 44.0433 10.8984 480 66.4938 814.498 520.221
123 0 44.0088 10.5434 464 66.7392 814.403 519.5
124 0 48.0463 10.7604 517 65.53 813.847 520.696
125 0 46.063 10.7462 495 66.1677 813.842 520.636
126 0 49.0232 10.6276 521 66.5317 814.311 518.885
127 0 50.0151 10.4568 523 67.3614 814.692 516.866
128 0 51.0663 11.1228 568 67.0757 813.651 514.317
129 0 52.0237 9.74556 507 68.3195 814.446 514.219
130 0 54.0562 9.73061 526 68.0342 814.831 515.719
131 0 58.0495 11.5763 672 65.6429 814.918 513.939
132 0 59.0495 10.686 631 66.878 814.439 512.726
133 0 60.0301 12.8102 769 64.4928 814.605 512.655
134 0 61.0496 11.204 684 66.6213 815.126 513.208
135 0 63.0499 11.0071 694 67.3415 814.87 510.065
136 0 67.0533 12.6914 851 64.8649 815.508 509.222
137 0 65.0889 10.0478 654 68.5382 814.881 509.379
138 0 71.0518 12.1742 865 65.6971 815.357 506.86
139 0 72.0996 11.4425 825 67.1515 815.079 503.766
140 0 75.0836 11.2941 848 66.7512 814.93 505.666
141 1 38.044 9.41015 358 65.6788 815.268 522.584
142 0 39.0129 9.58656 374 65.5267 815.858 522.473
143 0 39.068 8.42121 329 67.3617 815.407 522.088
144 0 43.067 10.7739 464 63.5776 815.015 521.672
145 0 43.0845 10.4678 451 64.8337 815.508 520.344
146 0 45.095 11.7751 531 63.8004 815.284 520.339
147 0 45.0709 10.2283 461 66.1193 814.959 520.633
148 0 45.0926 10.8665 490 66.7918 814.861 517.586
149 0 48.1379 10.3661 499 66.8677 815.349 518.082
150 0 50.0371 10.9719 549 64.5774 815.189 519.304
151 0 50.0371 9.89266 495 66.9172 815.768 516.604
152 0 51.0862 11.8036 603 64.9685 814.582 514.784
153 0 53.0232 11.1649 592 65.0355 815.199 515.688
154 0 55.054 10.7168 590 65.2051 814.837 516.007
155 0 57.0378 11.694 667 63.7106 815.325 514.562
156 0 56.0278 10.709 600 65.86 816.008 513.375
157 0 58.0733 12.0537 700 64.68 815.729 511.589
158 0 60.0468 10.8749 653 65.7106 815.547 510.995
159 0 64.1104 12.2289 784 63.4184 815.253 511.643
160 0 66.094 10.9541 724 65.5414 815.122 510.174
161 0 68.0653 12.3852 843 64.2135 814.544 507.523
162 0 69.0582 11.3527 784 65.6747 814.929 507.886
163 0 72.0924 11.3327 817 65.8029 814.466 506.263
164 0 74.0798 13.3505 989 63.7189 815.149 503.763
165 0 77.0524 12.3293 950 64.4979 814.561 503.921
166 0 80.121 12.6059 1010 64.499 815.642 501.359
167 1 39.0068 10.7674 420 63.0929 815.486 522.531
168 0 40.0089 10.3727 415 64.4289 815.422 521.065
169 0 43.0233 9.57622 412 64.9587 814.876 521.308
170 0 42.0281 9.44606 397 66.5416 815.123 520.403
171 0 45.0376 10.2359 461 65.0738 815.059 519.918
172 0 45.0533 10.8316 488 65.5738 815.381 518.988
173 0 45.054 10.5651 476 66.2857 815.471 518.973
174 0 49.0723 11.3302 556 65.6493 814.782 518.178
175 0 45.0849 8.1402 367 70.3406 815.545 517.548
176 0 50.0611 11.1064 556 65.2734 815.746 517.5
177 0 55.1002 10.3811 572 65.0052 816.177 518.488
178 0 54.1266 9.95813 539 66.6048 816.733 517.416
179 0 57.0699 11.1793 638 65.2915 815.412 513.846
180 0 57.1073 10.9268 624 64.6891 815.603 517.314
181 0 61.1369 11.6296 711 63.9648 815.11 514.186
182 0 59.0757 9.22545 545 68.4404 815.121 511.96
183 0 63.0828 10.4307 658 66.8906 814.48 511.5
184 0 64.1765 10.1906 654 66.7187 814.424 513.084
185 0 69.1071 10.9251 755 65.7272 814.266 511.192
186 0 69.1023 10.7232 741 66.3846 814.57 510.568
187 0 73.0664 10.9216 798 66.2444 814.345 508.078
188 1 35.0304 9.44893 331 65.6375 814.1 527.514
189 0 35.0149 9.76728 342 66.7105 813.5 525.251
190 0 37.0145 10.5904 392 65.5663 812.796 525.253
191 0 36.0198 8.66191 312 68.8013 812.455 527.237
192 0 40.0441 10.5633 423 64.7163 812.168 528.182
193 0 39.0375 9.96479 389 67.2905 811.81 527.429
194 0 42.0329 11.372 478 64.2301 811.952 528.906
195 0 40.1105 11.1692 448 67.2902 812.426 525.565
196 0 42.0374 9.75321 410 69.539 812.495 524.629
197 0 45.0598 11.9397 538 65.7565 812.199 525.329
198 0 46.0485 11.7485 541 66.9482 811.93 523.094
199 0 48.0663 11.2761 542 66.7435 811.983 524.924
200 0 48.0449 10.5735 508 68.3957 811.801 522.644
201 0 49.0248 10.5457 517 68.234 812.323 523.532
202 0 51.0333 11.3063 577 66.7296 811.503 522.66
203 0 53.0969 11.6579 619 65.9725 811.342 522.375
204 0 54.045 11.953 646 65.4737 811.584 521.506
205 0 54.062 11.2833 610 66.4377 811.607 522.803
206 0 58.0798 12.4312 722 64.1717 811.35 519.856
207 0 59.0992 12.1321 717 64.9038 809.722 518.715
208 0 59.1081 11.7243 693 65.153 809.714 521.003
209 0 62.1311 11.6045 721 65.5631 810.508 519.513
210 0 63.1049 11.2669 711 66.2686 810.27 517.658
211 0 66.051 11.4306 755 64.9974 809.936 517.359
212 0 69.084 10.8274 748 65.3195 809.424 517.257
213 0 70.0762 9.61811 674 67.2092 810.006 518.528
214 0 71.0921 10.1136 719 67.2503 809.331 514.527
215 0 73.0347 11.0632 808 66.4505 808.835 513.028
216 0 77.1532 13.1427 1014 63.4448 809.145 511.493
217 1 40.0845 10.2034 409 65.1247 809.005 529.213
218 0 40.0508 9.13839 366 66.6831 809.552 530.721
219 0 41.1439 11.8122 486 63.716 808.177 528.128
220 0 41.0512 12.0094 493 63.5538 808.578 528.7
221 0 43.0254 11.1097 478 64.8766 808.372 526.169
222 0 44.0474 9.83031 433 65.9746 807.979 527.857
223 0 45.0489 10.4997 473 65.611 809.353 526.334
224 0 48.0473 10.8227 520 65.0173 808.892 523.748
225 0 49.0742 11.9615 587 63.5622 809.283 524.276
226 0 49.0243 10.2602 503 66.6581 809.169 521.495
227 0 52.0737 11.1957 583 64.2436 808.132 521.835
228 0 53.0752 11.8134 627 64.1356 808.118 520.496
229 0 54.041 9.43727 510 66.7451 808.365 519.792
230 0 55.0331 10.5391 580 65.6241 809.084 517.678
231 0 58.0423 11.3021 656 64.7378 808.576 516.345
232 0 62.016 11.9163 739 62.9161 809.18 518.613
233 0 62.066 11.1494 692 64.8569 809.902 517.556
234 0 64.1002 11.4196 732 65.2036 809.895 513.324
235 0 67.0439 11.3955 764 64.5969 809.726 515.575
236 0 68.0605 12.4301 846 64 809.595 510.73
237 0 71.0793 10.8189 769 66.0078 809.459 509.879
238 0 74.0356 12.2914 910 63.8857 809.764 509.226
239 1 39.0419 10.0661 393 64.1145 810.036 527.789
240 0 38.0258 12.097 460 62.987 810.33 525.6
241 0 41.0316 11.6496 478 63.0335 809.584 525.146
242 0 41.0885 11.2197 461 63.8351 809.375 524.623
243 0 41.0679 10.6166 436 65.1651 809.844 524.608
244 0 45.0701 11.8926 536 63.3265 809.603 522.756
245 0 44.0598 9.87295 435 66.0851 809.377 523.124
246 0 47.098 11.9963 565 63.5097 810.108 521.68
247 0 49.0537 11.3345 556 63.9209 809.903 521.236
248 0 49.1016 11.3846 559 64.1914 810.526 522.179
249 0 51.1723 12.6826 649 62.3282 810.444 520.724
250 0 51.0329 11.3848 581 64.6885 810.487 520.16
251 0 55.0803 11.1111 612 63.2108 809.873 521.26
252 0 56.0384 11.8133 662 63.1571 810.251 519.559
253 0 58.0558 11.11 645 63.5674 810.631 520.808
254 0 61.1082 11.6515 712 63.198 810.791 517.829
255 0 63.0283 12.4388 784 62.0625 811.318 518.362
256 0 64.0851 11.079 710 63.0535 810.908 520.224
257 0 63.0621 10.5769 667 64.7841 810.753 516.154
258 0 68.058 11.0053 749 63.6862 811.2 516.836
259 0 69.0761 11.9289 824 62.767 810.816 515.28
260 0 70.0605 10.705 750 64.2947 810.615 515.492
261 0 75.2685 11.6516 877 63.1038 809.975 511.51
262 0 74.0939 11.229 832 64.1923 810.425 512.316
263 0 79.1831 11.8207 936 63.2927 810.198 511.267
264 0 82.0875 12.7303 1045 62.6373 810.373 509.48
265 1 41.0467 10.9875 451 63.6297 810.729 528.461
266 0 43.0356 9.01579 388 65.4768 810.644 528.477
267 0 44.0479 10.1935 449 64.8196 810.247 528.171
268 0 47.1125 11.5468 544 63.171 810.656 528.347
269 0 47.0344 12.8204 603 61.8988 810.118 527.179
270 0 49.0579 11.3539 557 63.8115 810.425 527.436
271 0 48.0169 9.91317 476 66.3445 810.246 526.998
272 0 50.0377 10.3522 518 65.6602 809.442 526.627
273 0 53.0509 10.7255 569 64.5606 809.685 525.545
274 0 54.0248 11.3096 611 64.2651 809.273 524.093
275 0 55.0324 11.575 637 63.7928 809.495 523.458
276 0 59.0659 11.3941 673 63.2704 809.811 522.629
277 0 59.0882 11.6775 690 63.8493 809.8 519.961
278 0 61.0705 11.9206 728 62.9643 808.843 519.409
279 0 65.1296 12.406 808 61.9196 808.769 520.046
280 0 64.072 11.5339 739 63.5616 808.874 518.217
281 0 66.041 11.1749 738 63.6179 808.905 517.648
282 0 66.089 11.197 740 63.9973 809.057 516.008
283 0 72.0723 11.6133 837 63.0251 809.106 516.268
284 0 75.1112 13.9793 1050 59.5933 808.691 512.842
285 0 76.1391 12.464 949 61.7524 808.145 511.013
286 0 78.0553 11.7609 918 62.3519 807.986 512.38
287 0 81.1485 11.9534 970 62.9196 808.136 508.534
288 1 41.0085 9.33953 383 63.6632 808.065 528.585
289 0 44.1133 10.9944 485 62.3856 807.649 526.169
290 0 47.094 10.8082 509 61.3792 807.862 527.784
291 0 48.0241 10.0575 483 63.1284 807.979 529.4
292 0 51.0257 12.0332 614 60.9365 807.694 527.702
293 0 52.0547 12.2563 638 60.9483 807.459 526.597
294 0 54.0122 11.4419 618 62.3269 807.715 523.845
295 0 54.051 10.2866 556 64.5414 807.64 523.065
296 0 55.0279 11.4306 629 62.8839 807.052 523.396
297 0 57.0699 12.1255 692 62.2399 807.926 522.199
298 0 61.0388 11.6811 713 62.439 808.209 521.391
299 0 62.0597 12.069 749 62.267 807.513 520.015
300 0 63.0693 13.0809 825 61.1079 807.594 519.537
301 0 65.0636 12.2803 799 62.0964 807.38 517.393
302 0 68.035 11.3765 774 63.6796 807.656 517.553
303 0 69.0527 13.3232 920 61.4391 807.714 513.641
304 0 71.0381 12.0358 855 63.1041 807.306 512.676
305 0 75.0585 13.616 1022 60.2613 807.729 516.212
306 0 75.1175 11.8215 888 63.6025 808.197 512.319
307 0 78.0621 13.7199 1071 61.6237 807.481 509.019
308 0 81.1772 13.4644 1093 62.1116 807.432 507.19
309 0 82.0994 12.3631 1015 64.3586 807.318 505.973
310 0 86.1219 12.4242 1070 64.2589 806.906 505.04
311 0 87.0911 12.6764 1104 64.2201 806.722 505.476
312 0 91.07 13.9563 1271 62.7215 806.927 501.736
313 0 93.1921 12.5118 1166 64.9511 807.041 500.389
314 0 96.2258 12.0654 1161 65.5177 806.548 498.326
315 0 101.086 12.2668 1240 65.1363 806.261 498.714
316 0 105.124 12.1096 1273 65.4352 807.219 498.922
317 1 50.0703 10.4054 521 64.9674 806.687 523.72
318 0 51.1497 10.4986 537 64.8939 807.326 523.475
319 0 54.0608 10.8581 587 64.6048 807.853 521.445
320 0 55.0976 11.5795 638 63.7962 808.086 521.168
321 0 59.0349 13.2125 780 61.5103 808.372 520.521
322 0 61.0902 11.704 715 63.4196 808.291 519.538
323 0 60.0737 11.5025 691 64.8003 807.815 516.276
324 0 62.0359 12.654 785 62.7363 807.982 516.88
325 0 64.0487 11.7723 754 63.9058 807.867 516.907
326 0 66.1495 10.9147 722 64.0623 807.331 517.622
327 0 69.1169 11.6903 808 63.5755 807.524 515.071
328 0 68.0789 11.6629 794 64.2544 807.033 512.953
329 0 73.0905 12.3545 903 63.0454 807.303 511.164
330 0 74.0447 10.2235 757 66.4729 807.935 509.88
331 0 76.033 11.2583 856 64.7886 808.193 508.403
332 0 80.1363 11.1186 891 65.2817 808.228 505.627
333 0 82.1261 10.7761 885 64.8045 807.852 508.391
334 0 86.1365 12.1551 1047 63.213 806.887 506.582
335 1 45.0834 9.89277 446 62.583 808.265 525.318
336 0 45.0676 10.2069 460 62.8783 807.913 523.554
337 0 45.1551 9.61133 434 63.5092 807.394 524.581
338 0 47.087 10.7248 505 62.8594 808.337 523.461
339 0 47.0275 10.6746 502 63.3267 808.44 521.801
340 0 47.0497 10.4995 494 63.4757 808.093 522.431
341 0 52.1239 10.571 551 62.9129 808.354 520.648
342 0 53.0427 10.501 557 63.3034 808.524 519.995
343 0 54.034 11.2337 607 61.5601 807.191 518.906
344 0 55.1093 11.3048 623 62.0193 808.125 517.345
345 0 58.0986 12.4788 725 59.9393 807.481 519.701
346 0 59.1068 11.7922 697 61.4347 808.126 516.643
347 0 61.0966 10.1479 620 64.0968 807.816 516.423
348 0 61.0973 12.1446 742 61.7129 807.702 515.749
349 0 65.12 11.6093 756 60.9841 807.306 516.55
350 0 65.174 13.1648 858 60.2949 807.02 512.716
351 0 68.0952 11.4252 778 62.3663 807.139 512.09
352 0 71.112 11.6577 829 62.1303 807.723 509.622
353 0 73.0467 11.0067 804 63.143 807.595 510.195
354 0 76.179 10.4491 796 63.6093 807.191 510.638
355 0 78.0665 11.708 914 62.7177 807.595 508.516
356 0 80.1921 13.3305 1069 61.0992 807.261 506.466
357 1 41.1001 10.2919 423 61.6714 807.222 526.574
358 0 41.0628 9.86295 405 62.2025 807.398 524.054
359 0 45.1207 9.90675 447 61.9306 807.107 525.197
360 0 43.039 9.68889 417 62.5444 807.897 524.151
361 0 47.0539 11.0299 519 61.657 807.617 522.293
362 0 48.0826 11.1059 534 61.7697 807.89 522.594
363 0 50.1447 11.8058 592 60.3784 807.167 521.519
364 0 52.117 9.5938 500 62.944 807.736 519.64
365 0 53.1368 10.6706 567 61.9912 807.372 518.228
366 0 55.0513 11.68 643 61.3795 807.331 517.992
367 0 58.1078 11.4098 663 61.3047 807.278 517.777
368 0 58.0542 12.2472 711 60.3671 807.146 516.044
369 0 58.0979 9.00205 523 64.4704 807.507 516.874
370 0 62.089 10.4688 650 62.4954 807.266 514.709
371 0 64.1359 11.0235 707 61.5941 806.502 514.32
372 0 65.0533 9.40767 612 63.482 806.845 513.716
373 0 68.0475 11.7712 801 60.7191 807.563 513.342
374 0 71.0478 11.26 800 60.9288 808.499 513.376
375 0 75.0578 13.4296 1008 58.124 807.766 510.869
376 0 74.1028 10.391 770 62.3364 807.892 510.158
377 0 76.1319 10.8233 824 62.5146 808.604 506.428
378 0 77.1311 10.346 798 63.1203 808.698 506.924
379 0 82.08 12.0127 986 61.0325 808.474 505.335
380 0 84.0554 11.2188 943 61.983 808.332 504.158
381 1 44.0622 8.32914 367 62.4033 807.793 523.425
382 0 47.1882 9.43032 445 60.6539 807.721 524.535
383 0 47.0773 8.79405 414 62.8913 807.877 522.065
384 0 46.044 7.99235 368 64.7201 807.726 522.429
385 0 51.0683 10.6524 544 61.0882 807.263 521.138
386 0 53.1677 10.8336 576 61.4479 806.785 518.033
387 0 54.0901 11.6657 631 61.271 807.525 520.051
388 0 55.0113 9.34353 514 64.6868 807.984 515.224
389 0 56.0602 10.8812 610 63.0426 808.515 517.907
390 0 59.1169 9.8449 582 64.2302 807.952 516.43
391 0 61.0979 10.0494 614 64.0081 807.788 515.787
392 0 64.1114 12.1507 779 61.5931 807.924 514.235
393 0 66.1099 11.6775 772 62.0803 807.807 513.595
394 0 67.0994 10.8049 725 63.1228 808.651 511.85
395 0 70.1536 11.0757 777 62.7941 808.789 511.265
396 0 73.0775 11.1799 817 62.7589 808.744 511.131
397 0 75.0955 10.187 765 63.9961 808.522 509.584
398 0 78.0789 10.2332 799 62.9449 807.676 511.081
399 0 80.1117 11.0221 883 62.8845 807.956 508.778
400 0 82.1723 11.0499 908 63.0441 807.789 508.024
401 1 44.0402 10.5131 463 61.622 808.4 524.918
402 0 47.0682 11.7914 555 59.0685 808.759 525.73
403 0 45.0428 9.94609 448 62.8661 808.433 524.721
404 0 46.1308 8.84442 408 64.1275 808.282 525.468
405 0 49.0804 10.5745 519 63.3333 808.039 521.543
406 0 48.0549 10.5296 506 63.8715 808.368 523.01
407 0 50.0757 10.544 528 62.1742 807.955 521.146
408 0 53.0619 12.1179 643 60.4059 807.375 518.947
409 0 57.0775 11.8435 676 59.9645 807.438 520.552
410 0 57.0385 12.2023 696 60.3491 808.134 519.287
411 0 57.0248 11.381 649 62.6471 808.236 517.277
412 0 58.1058 11.393 662 62.2931 807.663 516.779
413 0 60.0358 10.9768 659 63.0243 807.832 515.935
414 0 64.1345 12.3023 789 60.5539 808.351 517.054
415 0 67.048 12.0212 806 61.1935 808.438 517.524
416 0 66.0622 12.1098 800 61.6962 807.635 514.644
417 0 67.0509 10.8723 729 63.5391 806.72 513.642
418 0 72.1004 11.4285 824 62.3167 806.756 513.109
419 0 74.0835 13.0393 966 60.6946 807.259 510.708
420 0 78.101 11.3955 890 62.4124 807.143 510.534
421 0 78.0851 11.2057 875 63.2423 807.175 510.305
422 0 81.2803 11.2204 912 63.6656 806.754 507.467
423 0 84.1814 13.3046 1120 61.2312 807.221 503.979
424 0 86.0967 10.2907 886 64.8217 807.533 505.59
425 1 46.0843 9.22223 425 63.9035 807.607 525.162
426 0 45.0668 9.45263 426 65.5822 808.082 524.122
427 0 49.0223 11.3214 555 62.9369 807.742 521.714
428 0 51.0436 11.2845 576 62.2274 808.415 520.63
429 0 51.0338 10.5616 539 63.8015 808.052 519.668
430 0 54.0905 10.39 562 62.2064 808.121 521.683
431 0 55.2096 11.719 647 61.0696 808.009 518.604
432 0 58.1134 11.2711 655 60.9435 808.162 520.905
433 0 58.0753 11.6745 678 61.6947 807.158 516.621
434 0 61.1466 12.7562 780 60.3462 807.614 515.691
435 0 60.0935 10.8997 655 63.5496 806.916 514.911
436 0 63.0673 10.3382 652 63.8037 807.241 515.85
437 0 66.1756 11.6055 768 63.3281 807.715 513.21
438 0 67.086 10.5834 710 64.2873 808.023 514.272
439 0 71.1163 11.6007 825 62.143 808.239 513.716
440 0 72.1633 12.347 891 61.4355 807.469 514.752
441 0 76.1313 11.8611 903 62.0288 807.501 513.283
442 0 78.1356 13.6813 1069 60.0514 806.531 511.28
443 0 79.1778 10.9248 865 64.0312 806.586 508.598
444 0 84.1956 14.8107 1247 49.3817 806.626 512.796
445 1 44.0325 9.83364 433 62.4249 806.709 528.069
446 0 46.0419 11.3375 522 59.3295 807.123 529.27
447 0 47.0462 10.4578 492 61.4492 807.695 527.293
448 0 46.0885 11.0874 511 61.773 808.204 522.75
449 0 50.0625 12.9039 646 58.6254 808.341 524.574
450 0 50.0273 10.0545 503 62.0199 808.27 523.964
451 0 50.0249 10.2549 513 61.3372 807.84 523.815
452 0 55.0745 10.6583 587 60.9148 807.925 522.647
453 0 53.0656 9.40345 499 63.4108 808.022 522.104
454 0 55.0625 10.2066 562 62.8434 807.883 519.434
455 0 57.0833 10.9314 624 61.6891 807.686 519.595
456 0 59.0823 11.4755 678 61.0265 807.547 519.214
457 0 61.0462 11.9418 729 60.273 807.978 515.997
458 0 62.0788 10.8733 675 60.7867 807.55 517.326
459 0 65.0364 11.1476 725 61.1462 807.509 513.873
460 0 66.0893 11.7266 775 60.7329 807.818 513.24
461 0 67.137 11.6776 784 60.75 807.849 512.464
462 0 69.0884 11.9268 824 59.7658 806.775 509.96
463 0 71.1543 9.87993 703 61.7539 806.846 509.151
464 0 72.1943 10.8873 786 61.0878 807.078 507.066
465 0 77.0779 10.2234 788 61.6193 807.047 509.444
466 0 78.1632 8.87886 694 63.2939 807.012 506.349
467 0 81.0978 10.6415 863 61.5585 807.619 504.103
468 1 42.0139 8.75902 368 60.1141 806.641 525.552
469 0 43.0198 7.90334 340 60.7794 806.762 525.921
470 0 43.0523 8.78002 378 61.0952 807.354 525.862
471 0 48.0321 11.0135 529 57.6503 806.922 524.828
472 0 47.0356 10.6302 500 60.058 806.39 521.912
473 0 50.0639 11.6052 581 58.284 807.174 523.377
474 0 49.0342 11.3186 555 58.8559 806.688 521.836
475 0 51.0383 10.1884 520 60.2058 806.283 518.862
476 0 54.0261 12.7346 688 56.4172 806.936 522.049
477 0 56.054 11.3819 638 57.674 807.03 522.255
478 0 55.0384 12.2278 673 57.945 806.599 518.663
479 0 57.0281 12.4149 708 57.8545 807.116 518.321
480 0 61.0627 10.7103 654 58.841 806.791 517.87
481 0 61.0782 10.462 639 59.3756 807.133 515.23
482 0 61.0715 12.0514 736 57.6929 807.079 517.058
483 0 65.1217 10.5188 685 59.0715 806.559 515.79
484 0 67.0759 11.569 776 58.1108 807.361 515.93
485 0 68.1607 9.683 660 60.1561 807.814 512.753
486 0 70.0841 11.6289 815 59.1816 807.254 509.313
487 0 72.095 12.0674 870 58.9736 807.595 508.491
488 1 37.0298 8.31763 308 58.9708 807.604 530.753
489 0 39.0156 10.7906 421 58.1734 807.399 526.513
490 0 39.0633 9.62541 376 60.6144 807.029 526.367
491 0 42.0308 10.4923 441 58.3583 807.057 528.58
492 0 42.0335 10.4441 439 60.9613 808.21 526.549
493 0 44.0471 11.692 515 57.9417 807.643 526.186
494 0 45.0692 10.5837 477 61.1447 807.421 525.927
495 0 45.0632 9.98597 450 61.5956 807.289 522.94
496 0 49.0234 10.6684 523 60.2696 807.606 522.964
497 0 49.0337 11.4615 562 59.9359 807.477 522.69
498 0 54.0494 12.3036 665 58.1609 808.051 521.854
499 0 53.1 9.92467 527 61.8824 807.865 521.108
500 0 53.081 9.73983 517 62.8665 806.986 518.834
501 0 56.0377 10.7428 602 61.4518 806.703 518.425
502 0 58.1114 11.0133 640 61.45 807.08 518.481
503 0 59.0789 10.376 613 63.0473 806.336 514.233
504 0 62.1505 13.226 822 59.3017 806.917 516.345
505 0 65.0896 11.031 718 62.0097 806.904 513.288
506 0 68.1922 12.3915 845 60.4462 806.6 513.256
507 0 69.1199 12.5723 869 60.6087 805.941 513.885
508 0 72.1476 12.419 896 60.4821 805.895 512.128
509 0 74.0716 13.0144 964 60.4533 805.978 511.344
510 0 75.1149 11.7553 883 62.5379 805.757 507.395
511 1 40.0455 8.93984 358 63.6648 805.709 524.503
512 0 43.0804 9.05285 390 63.4282 805.854 524.715
513 0 44.077 9.48339 418 63.122 806.478 523.734
514 0 46.2716 11.2164 519 60.7919 806.089 524.447
515 0 47.1578 11.1116 524 62.1489 806.849 525.032
516 0 47.1157 10.8456 511 61.6693 806.646 523.012
517 0 50.1013 11.9957 601 59.3794 806.681 525.403
518 0 49.1042 11.0988 545 61.5284 806.578 523.325
519 0 52.0242 10.0915 525 61.9467 806.796 523.491
520 0 54.1677 11.2429 609 59.9163 806.335 520.634
521 0 55.0885 12.5435 691 58.6758 805.79 519.268
522 0 55.0794 11.0386 608 60.5822 805.785 518.317
523 0 59.0361 10.7731 636 60.2752 805.583 517.252
524 0 59.0691 10.547 623 60.5971 806.424 518.085
525 0 61.0396 13.2701 810 57.3247 806.12 516.499
526 0 65.0924 11.645 758 58.715 805.761 516.908
527 0 66.1268 12.1736 805 58.5441 805.566 512.667
528 0 68.0759 12.0894 823 58.8724 805.558 513.271
529 0 71.0364 11.5715 822 59.0219 805.891 513.811
530 0 71.0886 13.0119 925 57.8486 806.048 511.741
531 0 74.0782 10.5834 784 60.8941 806.685 509.08
532 0 77.1607 11.5992 895 59.6022 806.364 510.722
533 0 79.0418 11.5509 913 60.1709 806.162 508.082
534 0 83.2351 11.3894 948 60.1013 805.597 506.273
535 1 44.0319 10.9012 480 58.7771 805.642 526.388
536 0 45.0925 10.1125 456 59.3048 806.186 527.2
537 0 45.1087 9.75421 440 60.8614 806.002 522.386
538 0 47.0393 10.0554 473 60.1459 805.833 525.163
539 0 48.1174 12.0538 580 58.5845 805.955 522.166
540 0 48.0295 9.88976 475 61.5158 806.362 522.594
541 0 50.1188 12.3706 620 58.4677 806.169 521.466
542 0 52.077 10.7341 559 60.7979 806.775 520.284
543 0 54.1068 12.1057 655 59.0076 806.374 519.919
544 0 55.0787 12.0555 664 60.0979 806.05 518.755
545 0 57.0832 11.965 683 59.9795 806.611 518.404
546 0 58.058 11.299 656 61.3125 806.245 516.101
547 0 58.0738 10.28 597 62.6717 806.871 519.04
548 0 62.0273 11.3176 702 61.1111 806.623 516.05
549 0 63.0628 9.87904 623 62.6726 806.133 518.286
550 0 63.0475 11.7372 740 61.0919 806.045 513.58
551 0 68.1526 14.3942 981 57.5831 806.128 514.915
552 0 68.1236 10.936 745 61.7705 805.936 515.448
553 0 69.2237 11.7156 811 61.0222 805.598 511.81
554 0 72.1389 11.4224 824 61.5352 806.392 509.385
555 0 74.1512 11.4091 846 61.6879 806.319 509.94
556 0 74.0406 10.8184 801 62.4694 806.243 509.678
557 0 78.0494 10.7624 840 62.4488 806.401 506.199
558 1 39.053 10.9083 426 59.8404 806.026 527.829
559 0 39.1039 8.02988 314 62 806.08 528.949
560 0 40.0167 8.44648 338 62.1627 805.828 527.506
561 0 44.158 10.0095 442 60.8846 805.867 526.52
562 0 44.038 10.0368 442 60.7919 805.835 526.742
563 0 45.047 10.4113 469 61.1471 806.038 524.991
564 0 46.0402 12.0981 557 59.1239 806.127 525.977
565 0 45.0161 11.0627 498 60.7851 806.149 523.869
566 0 48.0759 11.6274 559 60.9571 806.383 523.018
567 0 51.0675 12.1408 620 59.5984 806.45 521.337
568 0 51.0643 12.9053 659 59.4067 805.827 520.794
569 0 53.0687 11.4945 610 60.5213 805.669 519.177
570 0 55.0461 10.7365 591 61.4619 806.064 517.337
571 0 56.108 11.9056 668 60.3024 806.311 519.229
572 0 56.1511 10.8457 609 61.8851 806.264 518.384
573 0 59.1268 12.7353 753 60.3174 806.722 515.858
574 0 59.0682 11.2582 665 62.5414 806.066 515.929
575 0 62.0256 12.124 752 61.8258 806.766 514.621
576 0 64.0627 9.70923 622 64.455 806.291 512.895
577 0 65.0613 10.3595 674 63.9881 806.313 512.629
578 0 69.1124 11.1847 773 62.9573 807.208 511.721
579 0 70.0687 11.5315 808 63.2376 806.786 511.016
580 0 71.038 13.4576 956 61.909 807.139 510.164
581 0 73.1063 10.9977 804 65.2214 807.294 507.944
582 0 75.183 12.4496 936 63.2265 807.136 506.92
583 0 82.0803 13.304 1092 62.0504 807.257 506.038
584 0 83.1483 11.726 975 64.4103 808.142 506.4
585 1 39.0372 10.7333 419 63.7303 807.115 527.382
586 0 41.0293 8.28675 340 66.4176 807.332 527.432
587 0 45.0435 10.2568 462 64.3788 806.446 526.418
588 0 44.0098 8.86167 390 66.0282 807.015 525.91
589 0 46.0433 11.272 519 63.3141 807.287 525.985
590 0 45.0573 11.674 526 64.3935 806.819 524.15
591 0 48.0805 11.7927 567 65.3739 806.577 521.52
592 0 50.0525 11.3081 566 65.0406 806.708 523.638
593 0 52.1162 11.6662 608 64.824 806.227 522.176
594 0 52.0334 11.8193 615 65.2585 806.699 520.257
595 0 54.0207 10.5885 572 65.6259 806.851 522.129
596 0 56.066 9.97039 559 67.1449 805.95 518.59
597 0 59.0529 11.6336 687 65.393 807.134 516.852
598 0 59.0317 12.3324 728 64.6854 807.139 518.218
599 0 62.0407 11.4602 711 65.8228 807.752 516.769
600 0 64.0267 12.6041 807 64.9331 807.532 515.109
601 0 67.0634 11.5562 775 65.6787 807.179 515.501
602 0 70.0656 11.4464 802 66.2594 807.035 514.076
603 0 72.0457 11.8119 851 66.2338 807.429 511.921
604 0 72.1165 11.2734 813 67.1882 806.717 508.936
605 0 75.1241 11.5675 869 67.7123 807.174 509.036
606 0 78.1125 11.4834 897 67.7748 807.086 507.915
607 0 80.1823 12.4092 995 67.5467 807.445 505.797
608 0 82.1663 12.7546 1048 67.4905 807.656 503.987
609 0 72.0142 3.42988 247 80 807.385 493.255
610 0 68.0681 5.03907 343 77.1108 807.65 479.294
611 1 45.0502 7.76912 350 76.8086 806.594 478.463
612 0 45.0332 9.59293 432 74.9074 807.014 476.775
613 0 47.1087 11.4629 540 66.537 807.178 522.026
614 0 48.0651 10.3818 499 67.6313 807.814 522.196
615 0 51.0268 12.0721 616 65.9123 807.631 520.161
616 0 55.1033 12.903 711 63.9395 807.603 520.454
617 0 56.1324 12.613 708 64.9929 807.051 520.35
618 0 58.0764 12.5869 731 65.1122 806.332 517.157
619 0 59.1466 10.1274 599 68.1503 807.082 516.593
620 0 60.0754 9.18845 552 69.6105 807.094 515.909
621 0 61.0487 10.2377 625 68.6384 806.146 512.862
622 0 65.0402 11.3007 735 66.8109 806.264 514.018
623 0 69.1153 10.7357 742 66.9057 806.434 511.849
624 0 71.1057 12.6713 901 65.0166 807.382 510.665
625 0 74.0494 13.2479 981 64.6167 807.836 509.454
626 0 74.0553 11.2754 835 67.4994 807.442 504.043
627 0 77.0801 11.274 869 67.6433 807.587 506.253
628 0 81.0638 12.1633 986 66.214 806.828 504.308
629 0 83.219 9.58916 798 68.8484 807.096 506.559
630 1 43.027 8.41332 362 64.9696 807.387 526.522
631 0 45.1398 11.4754 518 62.1815 806.653 524.205
632 0 46.1123 11.472 529 62.7637 806.955 524.558
633 0 48.033 12.2832 590 62.0322 806.981 523.397
634 0 49.1141 11.3817 559 63.1002 806.685 522.707
635 0 50.0521 11.4481 573 63.2129 807.117 521.731
636 0 51.044 10.0893 515 64.666 807.074 520.79
637 0 53.0339 11.5398 612 63.1193 807.007 520.761
638 0 55.0402 12.2456 674 62.9392 806.907 518.537
639 0 56.0338 11.0291 618 63.9741 807.422 519.735
640 0 58.0773 12.3973 720 62.5028 807.153 516.678
641 0 60.1146 11.7941 709 63.6488 807.453 515.544
642 0 62.0826 10.2766 638 64.4326 807.45 517.611
643 0 64.0663 11.8003 756 63.2249 807.931 513.655
644 0 64.0273 11.0734 709 64.8717 807.9 511.731
645 0 67.1842 11.4164 767 63.5854 807.192 510.678
646 0 67.1105 10.2667 689 66.0348 806.348 507.427
647 0 73.1441 11.8807 869 63.4695 807.031 506.517
648 0 73.2161 11.8143 865 63.4971 806.808 506.294
649 0 75.1345 9.31663 700 66.2929 806.444 508.81
650 0 77.1318 11.1757 862 64.6311 807.394 505.915
651 0 79.0702 9.39671 743 66.1736 807.45 503.521
652 0 84.118 10.2 858 65.4114 806.838 499.339
653 1 41.0406 10.0388 412 62.4053 807.417 523.536
654 0 43.0763 9.91264 427 61.9672 806.927 524.096
655 0 45.0208 11.6169 523 60.1013 806.335 523.178
656 0 47.1092 11.1443 525 60.659 806.886 523.754
657 0 49.0635 10.0482 493 62.142 806.548 523.481
658 0 51.0951 11.6058 593 60.3558 807.152 521.904
659 0 51.092 9.88414 505 62.2891 807.343 520.713
660 0 54.0795 11.3721 615 60.9024 806.527 518.82
661 0 56.0619 12.5397 703 59.027 806.521 519.563
662 0 56.1636 9.93526 558 62.3297 806.579 516.799
663 0 60.099 11.5143 692 60.1806 806.584 515.923
664 0 60.125 9.41371 566 62.0972 806.065 517.412
665 0 63.0704 9.94127 627 61.8469 806.601 515.951
666 0 64.1339 11.0238 707 61.0198 806.726 514.238
667 0 67.0355 10.7704 722 61.072 806.211 514.49
668 0 69.0835 11.6091 802 59.9501 806.915 511.091
669 0 70.1089 10.6976 750 61.5027 807.297 509.861
670 0 74.119 10.0244 743 61.8506 807.226 511.611
671 0 73.0657 10.6206 776 61.6198 808.21 508.294
672 0 76.0405 10.0473 764 62.0615 808.381 508.279
673 1 37.0094 8.64644 320 61.1219 808.103 529.266
674 0 40.1094 8.2275 330 60.3848 807.427 529.558
675 0 41.0261 10.0668 413 60.1453 807.719 525.153
676 0 40.0312 8.96801 359 61.9359 807.276 525.841
677 0 45.0186 8.97406 404 61.2401 806.795 522.765
678 0 47.1323 11.2662 531 59.1318 806.578 521.682
679 0 48.0804 10.836 521 59.2783 807.284 521.188
680 0 48.1135 9.29053 447 61.4966 807.736 522.888
681 0 49.0436 9.95033 488 60.875 808.086 521.316
682 0 52.028 9.89852 515 60.6893 808.493 519.827
683 0 53.0752 9.96698 529 61.0095 808.202 517.157
684 0 56.0367 11.5103 645 59.0155 808.87 515.808
685 0 58.0256 10.9262 634 59.7192 807.849 516.443
686 0 60.0489 10.9078 655 59.0947 807.324 515.363
687 0 61.1695 13.3236 815 56.2405 806.634 514.377
688 0 61.0572 9.67944 591 60.5465 806.832 517.54
689 0 63.0991 12.0921 763 57.8729 807.13 515.51
690 0 67.118 11.9938 805 57.8708 807.313 514.605
691 0 68.0735 11.5463 786 58.5407 807.883 513.455
692 0 67.0741 9.81004 658 61.1824 807.904 513.728
693 0 71.0831 9.97424 709 60.5205 807.821 512.417
694 0 75.0941 12.0249 903 58.9258 808.367 509.998
695 0 78.1407 10.7882 843 59.9098 807.251 508.294
696 0 81.1404 12.8912 1046 57.8489 807.615 510.067
697 0 83.0893 12.1436 1009 59.1625 807.219 506.117
698 1 41.0486 10.7921 443 60.0903 807.984 527.957
699 0 42.0309 10.3257 434 61.9194 807.935 526.025
700 0 43.0863 10.0728 434 62.5991 807.687 525.198
701 0 45.0678 10.695 482 62.5415 808.533 524.979
702 0 48.0353 12.8239 616 59.5828 807.778 523.781
703 0 49.1174 12.2767 603 60.8325 807.864 522.327
704 0 51.0578 11.9472 610 61.0869 807.687 520.956
705 0 51.1407 10.8915 557 62.7343 807.813 522.11
706 0 52.0959 11.8627 618 61.6052 807.066 519.604
707 0 55.0636 10.3517 570 63.6632 807.404 519.568
708 0 57.0652 15.2107 868 58.2788 808.202 518.887
709 0 58.0243 11.702 679 62.1679 808.18 517.418
710 0 63.158 12.16 768 61.5299 808.051 517.689
711 0 63.0789 11.3033 713 63.1753 807.756 516.151
712 0 65.0846 12.0766 786 62.145 807.803 516.641
713 0 68.1066 12.1868 830 62.2349 807.602 512.11
714 0 69.0763 12.2039 843 61.847 807.135 516.089
715 0 72.0423 12.8119 923 60.7031 807.141 515.778
716 0 71.1254 11.2618 801 64.0549 807.664 512.079
717 0 75.1523 11.7362 882 63.5317 806.828 509.443
718 0 80.0527 13.4536 1077 60.6722 806.552 509.537
719 0 80.1712 11.4256 916 63.7303 806.129 508.736
720 0 85.0832 11.9178 1014 61.997 807.044 510.316
721 1 41.0287 10.8461 445 62.2629 806.845 527.458
722 0 39.0672 9.75244 381 64.9055 808.066 526.499
723 0 44.0807 10.5715 466 62.8627 806.627 524.624
724 0 45.0775 11.6022 523 61.9178 807.155 524.006
725 0 46.0632 12.0704 556 62.3399 806.466 520.074
726 0 49.0701 12.4923 613 60.9331 806.574 521.556
727 0 50.1408 10.9691 550 63.2491 807.493 520.731
728 0 52.1017 11.7271 611 61.5188 807.529 519.615
729 0 53.0906 11.6782 620 61.5581 807.739 520.506
730 0 54.1564 11.2083 607 62.2982 807.107 518.71
731 0 53.0556 10.0461 533 64.0281 807.158 517.351
732 0 59.1557 12.5939 745 60.298 807.019 517.561
733 0 60.0616 11.9211 716 61.1243 807.663 516.205
734 0 61.1352 13.3475 816 59.4877 807.825 514.062
735 0 65.0599 12.4962 813 59.9582 806.847 513.77
736 0 66.06 11.3987 753 61.0691 806.32 513.89
737 0 67.0664 9.37877 629 62.9157 806.66 513.113
738 0 69.1114 10.4903 725 61.3324 807.167 511.13
739 0 73.0879 12.4644 911 58.8683 807.018 512.977
740 1 39.0873 11.9732 468 57.062 807.432 528.75
741 0 38.0433 9.62063 366 59.2896 807.26 529.426
742 0 40.1605 10.2588 412 58.8859 806.835 527.43
743 0 41.0225 10.9696 450 58.52 806.802 526.962
744 0 44.0627 12.4141 547 57.1938 807.11 523.841
745 0 43.0794 12.5118 539 57.3191 807.616 522.635
746 0 47.0442 11.266 530 57.8509 806.906 524.14
747 0 45.0278 10.5934 477 59.3103 806.866 524.197
748 0 48.0607 10.9653 527 58.4459 806.56 523.611
749 0 49.0496 9.78602 480 60.2667 806.66 520.135
750 0 51.0817 9.86655 504 60.0139 806.627 519.796
751 0 53.1326 12.7605 678 57.0088 805.367 517.459
752 0 54.0943 11.3505 614 59.0423 806.075 517.638
753 0 56.0299 11.1012 622 59.4486 806.4 516.871
754 0 59.1103 12.0453 712 58.3989 805.84 518.173
755 0 62.0646 13.5826 843 56.3677 806.949 515.326
756 0 60.0526 10.4741 629 60.5501 806.215 514.601
757 0 60.0732 11.7523 706 59.5737 806.425 512.579
758 0 67.0756 11.6287 780 58.6077 806.146 514.36
759 0 67.1652 12.9382 869 57.6789 806.374 511.713
760 0 70.1364 12.2761 861 58.3496 806.336 510.657
761 0 73.1928 13.0477 955 57.6283 806.991 509.684
762 0 75.0725 12.721 955 58.6199 806.415 507.987
763 0 76.1823 11.2362 856 60.2056 806.711 508.863
764 0 82.0647 11.4056 936 59.8942 806.882 507.186
765 1 41.1116 10.9945 452 60.7389 806.675 525.569
766 0 43.0894 13.5532 584 57.2791 806.31 526.856
767 0 43.0365 12.2454 527 59.5503 806.326 524.812
768 0 45.0367 12.0124 541 59.1627 806.294 526.281
769 0 50.1231 13.2274 663 57.4977 806.222 522.578
770 0 48.0738 12.2936 591 59.8934 806.274 522.638
771 0 50.1431 11.8262 593 60.4772 806.659 523.292
772 0 52.0714 11.0041 573 60.925 806.424 517.267
773 0 54.0752 12.1497 657 60.2511 807.009 520.17
774 0 55.1376 13.6205 751 58.6258 806.619 520.473
775 0 59.1588 12.8468 760 59.1421 805.824 520.07
776 0 56.113 12.956 727 60.4498 805.879 518.232
777 0 60.0465 12.9067 775 60.3987 805.917 518.208
778 0 63.2352 13.7582 870 58.7782 806.331 516.167
779 0 64.2266 13.2188 849 60.1461 806.293 515.022
780 0 65.0634 12.5262 815 61.3816 806.35 514.458
781 0 68.0435 14.2262 968 59.3926 806.024 511.986
782 0 68.1264 12.1098 825 61.7152 805.846 514.102
783 0 71.1023 14.0924 1002 59.8124 806.52 510.383
784 0 72.123 11.2031 808 62.8762 806.243 512.032
785 0 77.0477 14.0043 1079 59.6108 806.081 510.197
786 0 78.063 11.9006 929 62.6523 806.357 505.897
787 0 80.1963 14.7014 1179 60.0933 806.618 505.78
788 0 84.1048 11.4976 967 63.6753 806.125 502.086
789 0 86.224 11.4701 989 64.1901 806.02 503.983
790 0 90.1287 12.8705 1160 62.8259 806.025 501.429
791 1 48.2119 12.1547 586 63.6348 806.111 521.891
792 0 48.0946 9.85558 474 65.6414 805.711 523.416
793 0 50.02 14.5142 726 61.5854 805.621 521.358
794 0 53.0439 12.1032 642 63.9034 805.88 519.838
795 0 54.0765 11.7611 636 64.6069 806.006 518
796 0 57.0394 13.1663 751 62.6831 806.197 518.234
797 0 59.0585 12.3606 730 64.0466 806.082 517.311
798 0 59.1811 12.4364 736 63.8247 807.341 517.474
799 0 61.1321 11.2216 686 65.9665 807.045 515.602
800 0 64.2586 13.2278 850 62.8824 806.199 514.542
801 0 65.1046 12.1958 794 64.9068 806.673 512.635
802 0 69.06 10.7443 742 65.9488 806.24 514.027
803 0 72.1296 11.9784 864 64.0972 806.51 513.363
804 0 72.0871 11.0699 798 65.2832 806.714 513.133
805 0 77.0803 12.1691 938 64.4488 807.215 509.764
806 0 78.1019 13.5208 1056 63.0786 807.418 507.157
807 0 81.1251 12.5362 1017 64.3953 806.564 507.053
808 0 85.0621 13.2491 1127 62.9849 806.475 506.246
809 0 87.0951 13.8355 1205 62.7344 806.266 503.852
810 0 92.1319 13.3721 1232 63.1177 806.36 501.676
811 0 91.0745 13.6592 1244 63.9477 807.212 499.629
812 1 50.1533 12.2225 613 61.4992 807.943 525.359
813 0 48.0811 11.2102 539 64.3803 807.792 522.059
814 0 49.0123 11.7521 576 63.7517 807.554 522.512
815 0 50.1347 12.9651 650 63.2369 807.38 520.278
816 0 55.0568 13.4225 739 62.0961 806.685 521.158
817 0 55.0254 12.2126 672 64.4435 807.137 518.548
818 0 57.0618 13.2313 755 62.7232 807.016 518.417
819 0 58.0345 11.9239 692 64.237 806.574 518.861
820 0 60.0875 10.6678 641 66.0515 807.207 517.232
821 0 61.0888 12.5719 768 63.8411 807.69 515.967
822 0 64.0598 10.4434 669 66.2631 807.013 515.42
823 0 66.0207 11.7387 775 64.2723 806.72 516.777
824 0 68.1517 12.0907 824 64.642 806.623 513.47
825 0 71.1213 13.6106 968 62.4969 805.601 512.47
826 0 71.0223 10.8135 768 66.707 805.862 509.445
827 0 76.0944 12.8656 979 63.2574 805.354 511.794
828 0 78.1083 10.7543 840 66.7083 806.24 508.226
829 0 81.0602 12.6943 1029 64.9563 806.395 505.088
830 0 82.1417 12.5758 1033 65.0048 806.625 506.069
831 1 39.0108 9.92034 387 63.522 807.24 528.106
832 0 42.0632 10.3891 437 63.3066 806.975 525.593
833 0 44.0299 10.1068 445 63.436 806.773 526.292
834 0 44.0714 12.1621 536 62.0205 807.407 525.41
835 0 43.0408 10.5714 455 64.5099 806.635 523.815
836 0 48.0529 9.51036 457 64.4354 806.558 524.306
837 0 48.052 9.78106 470 64.8021 806.732 523.257
838 0 51.0674 12.5912 643 61.2022 806.745 523.418
839 0 53.1714 12.187 648 61.8796 806.796 521.929
840 0 53.0341 11.7094 621 62.9018 806.203 518.824
841 0 55.0535 10.626 585 64.4769 806.126 519.655
842 0 56.032 11.7611 659 63.6115 806.797 520.228
843 0 58.0898 12.5151 727 62.9917 806.816 516.131
844 0 61.0885 11.1478 681 64.2937 806.871 516.507
845 0 62.0725 10.8744 675 64.5748 806.551 517.17
846 0 65.1045 10.0915 657 65.1492 806.601 516.177
847 0 68.0469 10.9483 745 64.8322 806.948 512.962
848 0 68.0681 10.8274 737 65.4043 806.307 511.928
849 0 72.1099 11.1635 805 64.6733 805.966 513.508
850 0 75.0824 11.4274 858 64.0373 806.45 510.728
851 1 40.0612 9.18595 368 63.4837 806.938 530.005
852 0 42.0685 10.9821 462 62.79 806.872 527.829
853 0 43.0341 11.061 476 62.6492 807.145 527.179
854 0 45.1701 10.4051 470 63.0234 806.445 526.889
855 0 44.0137 9.22441 406 64.9458 806.539 525.761
856 0 46.0212 10.5169 484 63.936 805.585 523.93
857 0 47.0892 10.7031 504 64.2024 805.609 521.99
858 0 50.0582 9.00951 451 65.4812 806.133 520.785
859 0 50.0327 10.773 539 63.2245 806.137 523.297
860 0 54.0257 11.1799 604 62.7401 806.214 519.831
861 0 55.1834 11.0722 611 65.1768 806.794 519.817
862 0 56.0141 11.3364 635 64.6394 806.915 518.932
863 0 58.0782 10.4342 606 64.9224 806.653 518.947
864 0 58.0553 10.6278 617 64.9546 806.783 518.567
865 0 61.1136 10.8977 666 63.4264 806.12 520.508
866 0 62.0486 11.4104 708 64.0325 806.76 516.126
867 0 64.2259 9.68457 622 65.5386 806.328 515.979
868 0 67.1307 10.5019 705 64.705 806.529 515.993
869 0 70.0349 11.3515 795 64.0667 806.449 512.772
870 0 72.0784 10.5579 761 64.594 807.183 512.556
871 0 76.0293 11.7718 895 63.2302 806.365 511.499
872 0 78.0953 11.0506 863 64.0452 805.987 510.709
873 1 37.0305 7.83138 290 65.5966 806.4 528.128
874 0 39.0258 10.429 407 62.8256 806.73 527.774
875 0 43.0246 9.57591 412 63.0024 806.381 526.376
876 0 42.0443 9.94188 418 63.2967 807.014 526.33
877 0 46.0333 11.1224 512 60.3164 806.375 527.008
878 0 45.0543 11.0755 499 61.3287 807.204 523.667
879 0 46.0216 11.4729 528 60.8447 806.517 524.828
880 0 49.0781 11.2066 550 61.2564 806.978 522.989
881 0 51.0318 12.1101 618 60.6278 806.209 519.997
882 0 54.0543 11.433 618 60.2168 806.466 521.136
883 0 55.0391 11.828 651 59.0015 806.55 521.968
884 0 57.0638 10.6723 609 60.3186 806.397 517.456
885 0 58.0446 9.26873 538 61.6394 806.9 519.662
886 0 61.0835 9.10229 556 61.6978 806.586 517.442
887 0 62.0277 12.1075 751 58.6352 806.482 514.541
888 0 64.0532 11.5529 740 59.023 806.159 517.293
889 0 67.0602 11.184 750 59.3227 806.517 511.612
890 0 67.0219 9.42975 632 60.8544 806.204 515.418
891 0 71.0303 9.93942 706 61.0807 806.584 509.627
892 0 75.1204 12.3003 924 57.7262 807.096 512.577
893 0 78.1023 11.2929 882 58.9342 806.408 508.329
894 0 80.0918 11.5118 922 59.4349 806.458 507.477
895 0 83.2115 10.6355 885 60.2791 806.653 505.478
896 0 85.0557 11.6512 991 59.3098 806.115 504.898
897 1 43.0679 10.6344 458 58.4454 806.124 525.686
898 0 43.0589 8.22129 354 60.4605 806.754 526.797
899 0 46.1069 9.36953 432 59.6597 806.516 525.928
900 0 47.1325 9.75972 460 59.4913 806.809 524.902
901 0 49.0942 9.34936 459 60.1743 806.78 524.366
902 0 50.1191 12.7496 639 57.3709 806.404 522.887
903 0 53.0909 11.2072 595 59.1395 807.432 523.203
904 0 55.0554 10.4985 578 59.9412 805.725 522.218
905 0 57.0538 12.7073 725 57.3807 806.099 519.895
906 0 61.1524 11.2015 685 58.365 806.657 522.778
907 0 62.2043 11.4301 711 57.8706 806.774 520.812
908 0 64.2759 11.2017 720 58.2222 807.358 517.824
909 0 65.1229 10.0579 655 59.5679 807.757 519.67
910 0 65.0975 9.92358 646 60.0464 807.859 515.511
911 0 71.1841 11.2806 803 57.6239 807.161 517.22
912 0 72.3201 11.0619 800 57.9638 808.41 513.825
913 0 73.1097 9.19167 672 59.5655 808.143 514.327
914 0 76.0837 9.23982 703 59.4395 807.596 514.774
915 0 79.0992 10.1392 802 58.4052 807.726 512.728
916 1 37.0441 9.79913 363 58.2176 806.879 529.171
917 0 39.0204 10.8405 423 57.2009 807.253 529.65
918 0 41.0412 11.3057 464 56.2909 807.213 529.022
919 0 42.095 8.59959 362 58.9088 807.395 528.301
920 0 43.0849 11.3961 491 55.721 807.36 530.479
921 0 45.0895 11.954 539 55.2245 807.169 529.061
922 0 48.1266 11.9269 574 54.9564 806.422 526.103
923 0 49.0164 10.2415 502 55.9761 806.096 527.554
924 0 47.0378 8.78018 413 58.3801 806.368 523.93
925 0 50.0344 11.8319 592 55.1588 806.125 522.394
926 0 52.0896 11.4994 599 55.818 806.422 520.065
927 0 54.2118 10.7726 584 56.286 806.413 520.01
928 0 54.0625 11.3572 614 55.5033 806.423 520.643
929 0 57.0826 10.441 596 56.6493 805.597 518.336
930 0 60.1475 10.2914 619 56.2698 805.081 515.649
931 0 62.0701 10.1659 631 56.859 805.539 516.025
932 0 62.0556 12.2471 760 55.1895 805.634 515.082
933 0 66.1783 10.0939 668 56.732 805.969 513.004
934 0 67.1062 9.83515 660 57.4439 806.08 513.977
935 0 67.1291 9.48918 637 57.27 806.008 514.14
936 0 70.0751 10.2319 717 56.781 805.94 514.244
937 0 75.1784 12.0779 908 55.0275 806.689 513.398
938 0 78.0517 11.3386 885 56.3175 806.699 508.645
939 1 37.0495 9.55478 354 57.5706 806.514 528.452
940 0 37.0438 9.90718 367 58.3542 806.322 527.057
941 0 42.0952 11.9254 502 55.8665 805.986 529.45
942 0 43.0209 12.7612 549 55.2459 806.481 529.454
943 0 42.0708 10.8626 457 57.8753 806.35 525.464
944 0 45.0215 10.9947 495 57.3596 806.576 527.026
945 0 45.0386 10.0358 452 58.8584 807.23 525.889
946 0 50.0579 11.0472 553 57.0235 806.595 525.911
947 0 50.0733 12.4418 623 56.2665 806.774 523.114
948 0 50.115 10.6355 533 58.5328 806.775 523.702
949 0 51.0537 10.5967 541 58.8244 807.067 521.76
950 0 54.1243 11.8431 641 57.7254 806.559 522.37
951 0 55.0132 10.5793 582 59.5842 806.591 521.072
952 0 54.0609 10.6547 576 60.1753 807.816 519.182
953 0 58.0682 13.2086 767 56.9817 807.342 522.066
954 0 60.0666 13.9845 840 56.6917 807.1 519.686
955 0 64.0517 11.1473 714 59.5364 806.773 517.902
956 0 66.0543 13.4889 891 57.4198 807.169 518.303
957 0 68.095 11.6749 795 59.2528 806.916 517.226
958 0 72.0188 12.5106 901 58.6959 806.868 514.121
959 0 72.0852 11.2506 811 60.6276 806.286 511.492
960 0 75.162 11.9741 900 59.94 806.704 510.531
961 0 79.124 12.2592 970 59.733 806.165 512.233
962 0 78.064 12.1567 949 60.5342 806.293 509.807
963 0 82.1308 13.3324 1095 59.5078 807.126 506.861
964 1 42.1592 10.5552 445 62.6427 807.22 527.917
965 0 43.0222 11.436 492 62.3232 806.955 527.608
966 0 46.041 11.8807 547 61.543 807.148 528.764
967 0 49.1047 12.7483 626 61.1166 807.339 525.543
968 0 49.026 12.6464 620 61.9081 807.368 526.747
969 0 50.0449 11.5896 580 63.5569 807.264 525.202
970 0 52.0703 12.3679 644 62.9627 806.978 522.427
971 0 55.0821 14.2696 786 60.5814 807.861 522.216
972 0 56.0864 13.5505 760 62.0737 807.846 521.408
973 0 57.0615 13.4592 768 62.3958 807.857 521.116
974 0 59.0571 13.0382 770 62.8519 807.648 521.457
975 0 60.0502 12.6061 757 63.6103 807.268 519.166
976 0 62.0836 13.3852 831 62.7353 807.226 520.487
977 0 65.0542 14.265 928 61.8438 807.167 518.456
978 0 68.1292 12.8579 876 63.8927 807.281 517.777
979 0 69.0805 12.9559 895 64.2123 807.642 517.38
980 0 72.117 14.4626 1043 62.3941 807.703 514.942
981 0 73.0518 15.4822 1131 62.3448 806.955 513.823
982 0 75.0999 13.3023 999 65.0651 807.411 511.894
983 0 78.1664 14.5331 1136 63.7694 807.482 512.62
984 0 80.1559 16.3432 1310 62.0023 807.907 511.621
985 0 83.1365 14.8551 1235 64.0032 807.142 510.441
986 0 84.1059 14.5055 1220 64.5566 807.633 511.468
987 0 89.1759 15.7778 1407 63.2701 807.512 507.04
988 0 89.2108 14.4713 1291 65.3981 807.702 509.029
989 1 46.0228 12.5155 576 67.0694 807.54 529.767
990 0 47.0385 14.7751 695 64.0561 807.514 529.895
991 0 47.072 12.8527 605 68.1207 807.623 527.157
992 0 49.1212 14.3115 703 66.2262 806.977 526.535
993 0 51.1048 13.2473 677 67.6854 807.448 524.614
994 0 53.0528 12.4404 660 68.3045 807.295 526.103
995 0 55.0536 13.4233 739 67.0298 806.892 523.273
996 0 55.1388 13.8741 765 66.5294 807.208 523.865
997 0 58.0882 15.201 883 64.4213 807.448 524.137
998 0 58.0758 13.5512 787 67.4473 806.939 520.468
999 0 62.1289 14.1319 878 65.4442 806.9 521.759
1000 0 63.0399 14.8319 935 64.4449 806.263 520.666
1001 0 65.0943 13.5803 884 65.6538 807.086 520.223
1002 0 65.1176 12.9151 841 66.6623 806.875 519.488
1003 0 70.2197 14.9246 1048 63.9714 806.956 517.177
1004 0 73.2616 14.7553 1081 63.926 807.211 514.667
1005 0 74.1099 14.2896 1059 64.3437 806.673 515.462
1006 0 76.104 12.8377 977 65.9836 806.491 514.585
1007 0 80.2951 14.5837 1171 64.1605 806.362 511.227
1008 0 81.3858 13.8599 1128 64.9956 806.07 511.269
1009 0 84.2185 12.9425 1090 65.9982 806.457 511.114
1010 0 88.1311 13.9565 1230 64.5992 806.185 509.84
1011 0 88.1253 15.5234 1368 63.6542 806.586 505.349
1012 0 92.1075 15.1345 1394 63.9161 807.271 503.553
1013 0 93.087 14.2233 1324 65.3633 807.007 504.406
1014 1 45.087 13.5294 610 64.6656 806.092 527.767
1015 0 48.0923 12.2057 587 65.8535 806.698 528.86
1016 0 47.0538 12.9001 607 66.0214 807.033 528.344
1017 0 50.0965 14.9511 749 63.3004 807.116 526.65
1018 0 51.0538 13.0451 666 65.6712 807.026 524.553
1019 0 52.1936 13.1242 685 65.9343 807.101 522.734
1020 0 54.1356 12.4318 673 66.6211 806.859 521.18
1021 0 55.0746 12.8371 707 66.3451 806.758 521.255
1022 0 57.0455 12.8669 734 65.8515 806.5 524.876
1023 0 59.3112 13.9265 826 65 806.6 519.443
1024 0 65.0621 12.5726 818 65.2396 807.037 521.976
1025 0 66.2387 12.8173 849 65.0459 806.557 520.015
1026 0 67.1319 13.6448 916 64.6146 806.749 520.133
1027 0 69.3136 11.989 831 67 806.294 516.143
1028 0 73.1187 13.6627 999 64.8749 805.847 515.285
1029 0 73.1312 12.3887 906 66.6148 805.943 517.068
1030 0 76.1059 14.4404 1099 64.6943 806.163 514.14
1031 0 79.1107 14.3849 1138 64.9359 805.765 513.937
1032 0 78.1229 12.4547 973 67.7883 806.038 511.616
1033 0 85.2176 13.6709 1165 65.4678 805.779 511.555
1034 1 43.0361 12.9194 556 65.1403 805.128 531.719
1035 0 44.1736 13.7186 606 64.3531 805.632 531.122
1036 0 50.0523 12.2472 613 64.6313 805.437 532.801
1037 0 47.0611 15.0018 706 63.4377 805.779 528.072
1038 0 49.1327 12.9038 634 65.5142 806.096 531.087
1039 0 47.1169 11.4396 539 68.295 805.039 527.827
1040 0 51.202 15.6439 801 63.4632 804.879 526.04
1041 0 52.078 13.403 698 66.1691 804.691 525.122
1042 0 54.0437 12.2493 662 66.9048 804.875 527.795
1043 0 56.139 13.6625 767 65.5619 804.664 526.068
1044 0 58.1356 12.8493 747 66.0482 804.288 525.859
1045 0 60.0605 11.8214 710 68.1408 804.863 522.842
1046 0 60.1904 11.9288 718 68.2117 804.753 522.951
1047 0 65.144 13.5853 885 65.9153 805 523.4
1048 0 65.1161 13.76 896 66.4174 805.342 521.369
1049 0 69.2509 15.2056 1053 64.3067 805.12 520.341
1050 0 70.0797 13.5132 947 67.1806 804.946 518.686
1051 0 70.3317 12.569 884 69.0011 805.18 517.348
1052 0 75.0939 13.3167 1000 68.421 805.007 515.036
1053 0 77.1039 14.0719 1085 67.6249 804.887 514.817
1054 0 79.0474 14.0675 1112 67.9838 804.637 514.923
1055 0 81.3036 14.1691 1152 68.026 804.888 513.636
1056 0 84.0806 13.8558 1165 68.7219 804.797 510.361
1057 0 86.1484 12.6061 1086 70.2744 804.771 509.692
1058 0 89.0877 13.8178 1231 69.0292 804.296 509.174
1059 0 93.2428 14.1673 1321 68.2468 804.735 508.746
1060 1 46.1239 12.4014 572 69.4108 804.701 531.984
1061 0 48.1864 11.58 558 72.1039 804.17 528.203
1062 0 49.1093 13.7449 675 69.2074 804.428 530.311
1063 0 52.0182 13.1492 684 69.383 804.861 529.126
1064 0 55.0745 14.0355 773 68.5045 805.273 528.239
1065 0 55.2936 12.4427 688 71.6555 805.185 524.686
1066 0 57.0857 13.0856 747 70.9531 805.469 526.333
1067 0 58.0323 11.4591 665 72.3729 805.293 524.753
1068 0 63.2885 13.1935 835 69.806 805.8 523.928
1069 0 63.244 13.3135 842 70.8385 805.873 520.666
1070 0 66.2087 12.7929 847 70.5407 805.478 523.83
1071 0 68.2484 13.8318 944 70.3538 804.362 517.344
1072 0 72.1944 12.0508 870 72.0437 804.991 518.689
1073 0 73.0637 13.892 1015 69.9606 805.627 518.144
1074 0 76.0883 14.4963 1103 69.4524 805.502 515.994
1075 0 79.0801 13.5559 1072 70.444 805.314 515.592
1076 0 81.1273 15.0258 1219 69.0271 806.219 515.299
1077 0 83.1967 13.426 1117 71.06 806.335 514.056
1078 1 41.1391 10.4766 431 72.7425 806.016 532.626
1079 0 41.1973 11.36 468 71.3056 805.545 534.474
1080 0 42.161 13.5433 571 69.6077 805.909 533.946
1081 0 44.1179 13.6452 602 69.485 805.669 533.439
1082 0 45.0739 13.5112 609 69.0049 805.99 533.567
1083 0 48.395 13.9477 675 68.3896 806.606 532.975
1084 0 48.0691 13.0437 627 69.4099 806.638 532.408
1085 0 51.1646 13.2513 678 68.7522 806.625 531.37
1086 0 52.096 15.0491 784 66.3074 806.741 528.841
1087 0 54.1804 13.1782 714 67.6835 806.048 530.578
1088 0 54.0992 11.5713 626 71.107 806.42 525.797
1089 0 57.0498 12.4628 711 69.9297 806.727 526.035
1090 0 59.0995 13.1473 777 68.7568 806.228 524.417
1091 0 59.1057 12.1139 716 70.8422 806.448 522.244
1092 0 65.1398 12.0971 788 69.1028 806.31 523.443
1093 0 67.2079 13.1532 884 67.9729 806.325 518.37
1094 0 67.2826 11.8307 796 69.9472 806.405 520.613
1095 0 70.1369 12.9033 905 67.6895 806.794 521.301
1096 0 74.2182 13.8106 1025 66.9259 806.342 518.25
1097 0 75.2048 12.8449 966 68.5704 806.175 514.526
1098 0 78.1522 11.9894 937 68.8933 806.379 515.498
1099 0 81.1922 13.2525 1076 67.1134 806.073 513.901
1100 0 82.2509 11.4406 941 68.8183 805.644 513.282
1101 0 85.1948 12.0547 1027 68.1685 805.719 511.271
1102 0 87.2498 11.9771 1045 67.9713 806.334 511.676
1103 0 91.1479 11.5088 1049 68.5005 806.485 507.979
1104 0 93.2106 12.9063 1203 66.6999 806.844 508.333
1105 1 48.0452 11.8222 568 66.382 806.694 529.132
1106 0 50.0989 14.0921 706 64.7989 806.269 523.694
1107 0 52.0868 13.2087 688 65.3488 805.953 522.266
1108 0 55.1843 11.978 661 66.1059 806.298 522.62
1109 0 56.1172 12.8659 722 64.7604 806.932 520.555
1110 0 61.0899 13.7502 840 63.2238 806.792 521.817
1111 0 63.0787 13.1265 828 63.4336 806.582 521.359
1112 0 64.1883 12.7126 816 64.1324 806.239 517.631
1113 0 66.0408 11.9472 789 64.8137 806.791 519.27
1114 0 69.0542 13.9166 961 62.769 806.332 517.024
1115 0 70.33 12.8537 904 64.2179 806.125 514.904
1116 0 72.1335 12.9621 935 63.9647 805.868 515.034
1117 0 76.2268 13.6829 1043 63.0882 805.813 512.564
1118 0 79.1991 12.9673 1027 63.8656 806.218 514.441
1119 0 79.1397 14.2912 1131 63.4324 806.524 509.757
1120 0 82.2327 11.7472 966 66.2836 806.961 509.999
1121 1 41.1244 11.599 477 64.4885 806.444 531.648
1122 0 41.0629 12.2008 501 65.024 806.168 531.192
1123 0 44.0565 11.5534 509 66.055 806.917 528.64
1124 0 47.1305 12.8367 605 63.9074 807.182 528.656
1125 0 48.1493 13.7074 660 63.45 807.505 526.371
1126 0 49.0755 12.3483 606 65.1007 807.523 525.224
1127 0 49.1492 10.6004 521 66.8157 806.622 526.572
1128 0 52.1078 12.1095 631 65.3265 806.721 525.097
1129 0 56.0616 12.5933 706 64.4745 807.387 521.914
1130 0 55.2112 12.262 677 65.2171 807.164 523.993
1131 0 58.0737 13.4484 781 63.7875 806.604 520.995
1132 0 60.1956 11.5789 697 65.7977 806.527 522.684
1133 0 60.148 12.436 748 64.6898 806.521 521.957
1134 0 64.169 12.8878 827 64.4909 806.791 518.404
1135 0 66.2323 12.7732 846 64.4374 806.054 516.182
1136 0 67.0789 13.5512 909 64.5215 806.953 516.372
1137 0 69.1694 14.3705 994 63.6046 807.02 514.008
1138 0 73.1167 13.8409 1012 64.5879 807.283 512.551
1139 0 75.0986 13.3158 1000 64.922 807.11 514.501
1140 0 79.0832 13.8841 1098 64.8142 807.022 511.269
1141 0 80.1803 11.8982 954 67.3071 806.613 509.154
1142 0 83.2477 13.8743 1155 65.3169 806.198 505.79
1143 0 86.1091 14.0403 1209 64.8867 805.48 507.303
1144 0 86.0817 12.4301 1070 67.6103 806.206 503.097
1145 0 92.1198 13.9384 1284 66.0023 807.106 503.33
1146 1 46.0593 11.6806 538 67.6989 806.781 527.493
1147 0 45.1366 11.6978 528 68.0739 806.866 526.589
1148 0 49.0938 11.8956 584 67.7209 806.717 525.356
1149 0 50.2422 11.8824 597 67.4338 805.978 528.209
1150 0 51.2234 12.26 628 68.1815 806.104 522.834
1151 0 55.3187 13.9736 773 66.0427 806.285 522.765
1152 0 56.0934 13.7628 772 66.0479 806.105 523.446
1153 0 54.0577 10.1373 548 71.3394 805.599 521.777
1154 0 61.3649 13.4442 825 66.3127 806.342 521.142
1155 0 60.0887 12.1154 728 68.4973 806.611 520.412
1156 0 63.0952 13.6144 859 66.2678 806.673 520.258
1157 0 66.2579 13.9153 922 65.9328 806.315 517.194
1158 0 68.2285 12.634 862 67.6114 806.588 515.825
1159 0 67.0558 10.961 735 70.4776 806.369 513.875
1160 0 75.0594 12.3769 929 68.1787 806.363 513.37
1161 0 78.1148 13.1217 1025 67.16 806.747 513.164
1162 0 80.1383 12.5533 1006 67.7406 806.651 513.777
1163 0 81.2183 14.0362 1140 67.4544 807.084 510.056
1164 1 40.0896 13.6195 546 66.9139 805.777 529.148
1165 0 39.1329 12.3937 485 69.4887 805.889 529.994
1166 0 41.3428 12.1182 501 68.7226 806.074 532.345
1167 0 44.3564 11.2949 501 70.3453 806.114 529.136
1168 0 46.1312 12.963 598 67.9298 806.259 530.42
1169 0 46.2843 11.9695 554 69.5451 806.655 530.009
1170 0 48.1254 12.9246 622 68.7974 806.547 528.606
1171 0 49.1211 11.8279 581 70.7005 806.446 525.134
1172 0 52.2722 13.1619 688 67.6613 806.028 526.372
1173 0 53.1379 12.5146 665 69.212 806.556 525.317
1174 0 55.2665 11.5983 641 70.1544 806.925 523.51
1175 0 57.3803 12.6524 726 68.0248 806.686 525.017
1176 0 58.1055 13.8713 806 67.5422 806.391 522.907
1177 0 60.2725 12.2776 740 69.1324 806.568 523.554
1178 0 62.1122 15.2466 947 66.6938 806.423 519.611
1179 0 64.1659 11.8755 762 70.8281 806.117 519.243
1180 0 67.107 12.5173 840 69.8119 806.88 519.202
1181 0 68.2573 11.3541 775 71.72 806.092 517.75
1182 0 73.1912 13.7995 1010 69.0881 806.512 515.446
1183 0 75.1757 11.8522 891 71.6173 807.18 514.102
1184 0 77.195 12.1251 936 71.6934 806.881 513.963
1185 1 37.0909 12.348 458 71.5611 806.253 529.218
1186 0 39.0854 12.3064 481 70.1559 806.534 532.744
1187 0 40.1543 14.6435 588 68.3537 807.342 530.207
1188 0 43.1391 12.0077 518 71.2162 807.085 530.303
1189 0 44.1136 13.5106 596 69.2836 806.114 529.545
1190 0 48.1133 14.3204 689 67.2714 806.724 528.2
1191 0 48.1125 14.4453 695 68.1281 806.367 526.186
1192 0 49.1134 13.4383 660 68.9621 806.644 525.367
1193 0 52.0703 14.3652 748 67.6324 806.164 524.543
1194 0 51.1494 12.2191 625 70.6 806.477 524.493
1195 0 52.0488 12.5075 651 70.5253 806.091 524.501
1196 0 57.039 14.9021 850 66.2329 806.269 525.316
1197 0 55.1447 12.4944 689 70.4731 806.023 523.692
1198 0 58.11 13.027 757 69.4412 806.251 522.02
1199 0 60.0739 13.2337 795 69.6818 806.311 520.809
1200 0 65.0531 13.2507 862 68.9095 806.144 519.463
1201 0 64.1292 14.9542 959 67.5099 806.865 519.063
1202 0 70.109 14.6201 1025 67.0088 806.99 520.057
1203 0 69.2577 14.0923 976 68.835 806.845 516.889
1204 0 70.1956 12.5649 882 71.2109 806.754 515.558
1205 0 73.1276 13.6884 1001 69.2448 806.326 516.604
1206 0 75.0805 13.2391 994 69.9185 806.625 515.606
1207 0 78.2708 14.667 1148 68.3772 806.362 511.192
1208 0 81.2128 13.0644 1061 70.557 806.721 511.995
1209 1 41.0747 13.3659 549 70.3443 806.818 529.175
1210 0 43.0125 11.6013 499 71.8978 807.002 529.89
1211 0 46.085 12.7156 586 70.1314 806.16 528.123
1212 0 46.1185 13.7905 636 69.7531 806.66 526.698
1213 0 46.1254 12.5744 580 71.2241 806.534 527.709
1214 0 48.1551 13.3112 641 69.9719 806.963 527.371
1215 0 51.1199 11.9327 610 70.618 806.884 527.315
1216 0 52.159 13.5739 708 68.904 806.713 525.15
1217 0 54.1068 13.6582 739 68.4317 807.208 526.183
1218 0 55.156 13.0358 719 69.3296 807.427 522.818
1219 0 57.0196 14.7318 840 67.706 807.358 522.189
1220 0 60.089 13.6631 821 68.4117 806.43 521.703
1221 0 61.2557 14.8394 909 67.6029 806.867 519.734
1222 0 64.0879 12.9198 828 69.3647 806.641 519.046
1223 0 65.0722 12.8473 836 69.8337 806.691 517.037
1224 0 67.3394 14.8799 1002 67.5888 806.612 516.161
1225 0 69.0549 14.9736 1034 67.6992 806.826 514.894
1226 0 73.1154 13.1299 960 69.3458 806.982 515.786
1227 0 73.0957 13.0651 955 70.2639 806.349 511.965
1228 0 76.1133 13.1252 999 70.4044 806.937 511.865
1229 0 81.328 13.2919 1081 69.2137 806.805 511.066
1230 0 81.1929 13.9298 1131 69.3714 807.128 510.431
1231 1 41.1981 13.3744 551 69.4882 807.37 529.452
1232 0 42.0674 11.8144 497 72.0885 807.223 527.127
1233 0 46.0451 13.2913 612 68.8317 807.078 528.899
1234 0 45.1038 12.7262 574 71.4512 807.876 526.666
1235 0 47.2446 13.5253 639 70.2739 806.944 526.365
1236 0 46.0693 13.5882 626 71.1006 806.671 525.565
1237 0 49.544 12.938 641 71.0562 807.109 524.761
1238 0 51.1432 13.2569 678 70.9366 807.59 522.938
1239 0 54.1127 13.4164 726 70.3278 807.416 523.752
1240 0 54.0491 12.7662 690 72 807.197 521.1
1241 0 58.2827 13.1085 764 70.9071 806.67 522.209
1242 0 60.0591 13.6366 819 70.3553 807.211 522.686
1243 0 61.2884 12.9388 793 71.3846 806.85 520.05
1244 0 64.1496 13.2191 848 71.8502 808.04 517.685
1245 0 66.1205 13.9745 924 70.2078 807.668 519.263
1246 0 67.1448 13.8358 929 71.7147 807.65 515.238
1247 0 68.106 11.2472 766 74.5849 807.783 517.009
1248 0 71.1526 13.5905 967 72.3071 807.722 513.404
1249 0 74.2329 13.2556 984 72.6585 807.837 511.688
1250 0 76.0549 12.7802 972 73.215 807.714 513.813
1251 0 78.0754 12.5264 978 73.4519 807.537 513.344
1252 1 35.1443 10.9548 385 75.213 807.673 530.805
1253 0 40.1903 13.461 541 71.4787 807.597 529.974
1254 0 41.0795 12.9262 531 71.6836 806.917 529.77
1255 0 41.0362 12.2575 503 73.6759 807.441 528.346
1256 0 46.0696 13.8703 639 70.0595 807.388 529.318
1257 0 47.2266 14.0387 663 69.6109 807.213 528.4
1258 0 47.1873 12.5457 592 72.5591 807.807 526.615
1259 0 48.1344 11.5718 557 73.1885 807.535 526.761
1260 0 52.1126 13.9506 727 69.8542 807.722 526.541
1261 0 54.168 13.6981 742 69.1671 806.73 525.852
1262 0 53.1443 12.8894 685 71.2365 806.891 524.067
1263 0 57.1149 10.5577 603 72.0879 805.793 526.332
1264 0 56.0614 12.7004 712 70.7978 806.643 524.979
1265 0 58.1403 13.2438 770 70.5623 807.144 522.938
1266 0 59.0337 12.1456 717 72.3794 807.003 519.47
1267 0 63.2052 13.5115 854 70.4778 807.923 520.042
1268 0 64.1635 13.4812 865 70.378 808.148 520.434
1269 0 67.092 13.4591 903 70.8638 807.752 518.734
1270 0 69.232 11.8009 817 73.1824 807.231 515.838
1271 0 74.3924 12.7432 948 70.9726 806.538 516.444
1272 0 74.2427 13.402 995 70.8312 806.985 517.157
1273 0 77.4155 12.8398 994 72.0855 806.844 511.821
1274 0 78.2252 12.758 998 72.1503 806.983 514.022
1275 0 81.1587 11.4097 926 74.7138 807.271 512.721
1276 0 83.4181 13.0188 1086 73.3444 807.272 508.671
1277 1 46.3743 13.2185 613 70.2855 806.904 530.372
1278 0 47.1125 13.16 620 71.2048 807.081 531.848
1279 0 45.0818 11.7342 529 75.155 807.159 530.146
1280 0 47.1463 12.5991 594 74.532 806.382 527.618
1281 0 48.361 14.9294 722 71.4127 806.371 527.867
1282 0 53.552 14.2852 765 70.9268 806.996 526.507
1283 0 53.3424 12.7478 680 73.3235 806.54 525.618
1284 0 55.2622 14.4583 799 71.2416 806.705 524.645
1285 0 58.1865 13.8004 803 72.4645 807.031 523.163
1286 0 58.2661 13.3697 779 73.0308 807.779 524.209
1287 0 59.3545 11.743 697 75.5854 807.516 522.574
1288 0 62.2525 11.5819 721 75.3592 805.785 521.395
1289 0 66.1527 12.4863 826 73.7107 806.375 521.425
1290 0 67.3565 13.5844 915 73.1115 805.686 519.203
1291 0 70.251 12.6404 888 74.3536 806.385 519.2
1292 0 73.2452 14.1716 1038 71.9692 806.099 519.224
1293 0 77.2235 13.3897 1034 73.0271 806.515 517.358
1294 0 76.2146 12.6747 966 74.5466 806.319 516.825
1295 0 78.1989 11.573 905 76.8099 806.549 513.885
1296 0 81.2348 12.8516 1044 75.0718 806.318 511.193
1297 1 39.3273 13.6292 536 72.1493 806.528 534.248
1298 0 40.1594 12.8737 517 72.6809 806.679 533.157
1299 0 40.3451 11.6495 470 75.4404 807.032 530.953
1300 0 43.1719 13.9906 604 70.8659 807.245 532.795
1301 0 43.5386 12.1501 529 74.1626 806.643 531.174
1302 0 45.1925 13.9182 629 71.7138 807.238 531.049
1303 0 47.1785 11.9546 564 73.3706 807.161 530.628
1304 0 49.1448 14.6913 722 69.3476 806.54 530.053
1305 0 50.1626 13.3964 672 71.2693 806.686 528.853
1306 0 52.1266 13.1027 683 71.8829 806.723 527.764
1307 0 54.1698 13.9192 754 70.63 807.928 527.641
1308 0 55.1802 14.0993 778 70.4357 807.346 526.621
1309 0 55.2356 11.7678 650 73.7046 807.3 525.768
1310 0 60.1729 14.1592 852 70.0012 806.914 522.401
1311 0 61.2779 13.6101 834 71.0384 807.253 523.683
1312 0 63.1896 14.7176 930 69.7903 807.295 521.714
1313 0 66.1908 14.5489 963 69.5857 807.372 522.086
1314 0 67.3017 15.646 1053 68.4976 807.385 520.021
1315 0 71.4336 13.859 990 70.5162 807.482 518.93
1316 0 71.3058 13.1125 935 72.3112 806.284 517.835
1317 0 74.2735 13.0329 968 71.7541 806.386 513.961
1318 0 77.3884 15.2219 1178 68.6783 806.677 515.799
1319 0 79.1653 13.9202 1102 70.451 806.699 513.99
1320 0 81.1204 13.3382 1082 71.0176 806.664 513.565
1321 0 85.1566 15.266 1300 68.2538 807.098 513.107
1322 0 87.2766 13.3827 1168 71.1515 806.402 510.281
1323 0 90.1609 13.6201 1228 71.009 807.038 510.046
1324 0 93.2107 13.5929 1267 71.1389 807.144 508.168
1325 1 46.0769 11.8932 548 70.5967 806.193 530.942
1326 0 48.0742 13.2087 635 69.6504 806.65 530.627
1327 0 49.4051 13.5613 670 68.3507 807 531.515
1328 0 51.1915 13.01 666 69.4865 806.851 529.401
1329 0 51.2048 12.577 644 70.4053 807.374 529.781
1330 0 54.0837 15.2357 824 66.9915 807.305 528.916
1331 0 54.2494 15.3735 834 67.3309 806.885 527.823
1332 0 54.2584 13.5832 737 69.8345 806.677 526.339
1333 0 58.2356 15.5575 906 66.8311 806.242 526.021
1334 0 60.2826 13.6524 823 68.7618 806.634 526.954
1335 0 61.5585 13.2232 814 69.9054 806.447 525.138
1336 0 63.3915 13.7085 869 69.4051 807.455 521.402
1337 0 65.1084 15.3129 997 67.2788 807.547 520.285
1338 0 68.263 13.5505 925 69.3686 807.263 519.476
1339 0 70.3203 13.5949 956 68.0303 806.797 522.918
1340 0 73.4086 14.0038 1028 68.5224 806.554 518.918
1341 0 75.3395 14.2422 1073 68.0224 807.13 516.679
1342 0 79.4566 14.5614 1157 67.5912 806.897 515.43
1343 0 79.1824 12.4523 986 70.2921 807.099 514.726
1344 0 82.2228 14.6553 1205 67.2415 807.199 515.069
1345 0 86.2211 13.9293 1201 68.3913 806.896 511.788
1346 1 39.257 10.6478 418 71.2656 806.873 534.806
1347 0 43.3156 13.3901 580 69.05 807.045 532.512
1348 0 42.3592 14.5659 617 67.9206 807.008 533.204
1349 0 43.2814 13.3545 578 70.5952 807.303 531.014
1350 0 47.4109 13.963 662 68.5151 807.701 531.391
1351 0 48.3563 15.6753 758 66.5673 807.933 531.83
1352 0 48.4017 14.2764 691 69.2041 807.404 530.512
1353 0 49.4 13.4615 665 70.7398 806.529 530.432
1354 0 51.3735 15.0661 774 69.3101 806.844 528.562
1355 0 52.3686 14.5507 762 70.6391 806.886 526.993
1356 0 52.4057 14.3305 751 71.5792 806.61 528.47
1357 0 54.0695 12.7614 690 74.2232 806.42 526.314
1358 0 58.4158 14.9275 872 70.5447 806.979 526.047
1359 0 60.3414 14.8323 895 70.3184 807.185 526.234
1360 0 60.3201 14.191 856 72.6928 806.124 523.761
1361 0 63.607 13.7878 877 73.0331 806.104 523.051
1362 0 66.2254 13.7862 913 73.0329 805.843 523.177
1363 0 67.4194 14.1502 954 72.8354 806.021 522.133
1364 0 69.3608 13.0477 905 73.9414 806.335 523.562
1365 0 71.3197 14.6243 1043 72.3595 807.058 522.124
1366 0 72.3003 13.029 942 74.8376 806.656 520.131
1367 0 75.2551 13.5007 1016 74.0719 806.38 518.824
1368 0 76.2881 14.6943 1121 72.8742 805.612 516.827
1369 0 79.4791 14.595 1160 73.056 805.834 514.386
1370 0 81.3437 14.3097 1164 74.0249 806.279 513.527
1371 0 85.396 13.9234 1189 73.4811 806.371 513.076
1372 0 87.3241 15.3566 1341 72.1872 806.309 509.306
1373 0 89.3985 13.1434 1175 74.8111 806.7 509.417
1374 1 43.1069 12.875 555 73.3441 806.829 533.494
1375 0 41.3058 14.0174 579 73.5993 806.321 532.081
1376 0 42.4114 14.0292 595 73.7681 805.938 529.812
1377 0 45.2044 13.3615 604 73.702 806.439 532.144
1378 0 49.2543 15.1053 744 70.2258 806.581 531.758
1379 0 48.2865 13.8548 669 73.5306 806.894 529.546
1380 0 49.1907 15.1045 743 72.2275 806.514 528.626
1381 0 52.2029 14.6927 767 72.1917 806.595 530.037
1382 0 53.4909 13.6285 729 74.3951 805.838 528.785
1383 0 52.1344 14.4051 751 73.7137 804.953 529.123
1384 0 52.2429 14.5474 760 74.4842 805.189 525.928
1385 0 55.4904 14.1286 784 74.7768 806.485 525.856
1386 0 58.2461 15.1941 885 73.0192 805.779 525.159
1387 0 58.2339 13.2741 773 76.2846 805.512 523.375
1388 0 61.2499 13.9102 852 74.7782 806.647 523.202
1389 0 62.3654 14.1745 884 75.2127 806.555 519.767
1390 0 66.3167 13.6165 903 74.7796 806.372 521.822
1391 0 67.1231 14.0786 945 73.9026 805.384 522.933
1392 0 71.217 15.5581 1108 72.1579 805.588 519.813
1393 0 74.2145 15.8325 1175 71.0349 805.969 520.2
1394 0 75.1999 13.8165 1039 74.6862 805.891 517.01
1395 0 78.2289 14.2403 1114 73.1293 806.19 517.514
1396 0 80.4369 15.7888 1270 71.4165 805.993 515.691
1397 0 83.6914 14.8044 1239 72.0888 805.431 513.182
1398 0 85.3189 15.5886 1330 71.2466 805.202 511.755
1399 0 90.3113 14.3171 1293 72.2158 806.119 511.964
1400 0 89.3732 13.7737 1231 73.3534 806.433 510.719
1401 0 94.2304 15.1225 1425 71.5375 806.469 508.352
1402 1 47.29 13.0471 617 72.4327 806.123 531.204
1403 0 46.0722 11.4603 528 75.2197 806.064 532.14
1404 0 46.2652 15.5625 720 71.2222 805.783 530.239
1405 0 50.1662 14.7908 742 71.4838 806.71 529.511
1406 0 51.4424 14.1323 727 72.2435 806.435 527.93
1407 0 51.3104 13.506 693 73.86 806.081 528.372
1408 0 54.1311 14.9452 809 71.6897 806.063 529.148
1409 0 57.2144 14.6292 837 71.3429 806.358 528.693
1410 0 58.1357 14.4834 842 72.5083 806.097 527.025
1411 0 59.1732 14.7364 872 72.4943 806.383 525.928
1412 0 59.1046 12.9093 763 75.5138 806.739 526.098
1413 0 64.2335 13.4665 865 74.4994 806.178 524.862
1414 0 65.1043 14.7917 963 72.6521 806.614 523.96
1415 0 65.2062 12.9129 842 76.1021 805.703 520.701
1416 0 70.0522 14.532 1018 73.2554 805.935 520.856
1417 0 71.2657 13.8917 990 74.5737 805.855 518.695
1418 0 72.4137 13.561 982 75.0468 806.005 518.813
1419 0 77.1732 15.1089 1166 72.4125 806.572 518.892
1420 0 74.125 12.8971 956 76.3724 806.859 515.249
1421 0 82.1692 14.1537 1163 73.0696 806.829 516.915
1422 0 85.3658 15.7909 1348 71.0601 806.33 512.876
1423 0 85.4399 13.8694 1185 73.773 806.725 512.803
1424 0 88.1941 14.264 1258 73.1677 806.745 513.253
1425 0 90.2461 14.5602 1314 73.1027 806.583 512.274
1426 1 46.0714 12.9364 596 73.8154 806.773 532.498
1427 0 47.3502 14.8468 703 71.5121 807.256 532.512
1428 0 47.365 14.2933 677 72.5879 807.061 531.253
1429 0 48.0907 12.4972 601 75.6057 806.839 530.849
1430 0 51.1864 15.0431 770 71.5377 806.612 530.953
1431 0 53.1015 13.9732 742 73.4636 806.391 529.243
1432 0 51.0924 13.2505 677 76.1034 806.626 528.832
1433 0 55.1008 14.1922 782 74.4412 806.78 528.101
1434 0 55.069 13.0382 718 76.8677 806.727 526.61
1435 0 59.2016 15.0165 889 73.811 806.589 526.159
1436 0 61.0853 14.7008 898 74.4933 807.262 526.121
1437 0 62.1108 15.585 968 73.7955 806.3 523.557
1438 0 63.2382 16.0504 1015 73.1172 806.89 523.293
1439 0 66.0883 13.9359 921 75.8187 806.844 524.015
1440 0 66.1721 14.417 954 76.7212 806.042 523.642
1441 0 68.2341 15.0072 1024 76.293 806.309 521.877
1442 0 69.074 13.4783 931 77.5628 806.394 524.488
1443 0 71.1578 13.463 958 78.7015 806.379 519.515
1444 0 74.1741 15.2209 1129 76.0239 806.54 520.119
1445 0 75.1533 14.1311 1062 78.9633 807.051 520.146
1446 0 74.2742 14.7023 1092 79.4066 806.58 520.614
1447 1 19.2369 14.5553 280 77.8929 807.929 551.579
1448 0 20.0804 15.936 320 95.2812 807.475 550.353
1449 0 22.4315 18.0995 406 102.603 806.406 549.227
1450 0 23.2202 15.9775 371 92.4879 807.154 548.412
1451 0 22.2737 14.9504 333 99.4565 806.79 547.622
1452 0 24.2847 19.3538 470 88.8936 807.04 547.853
1453 1 69.2711 10.1197 701 61.669 808.435 533.408
