time division length width area intensity CMx CMy
0 0 48.0267 11.7435 564 63.5426 811.33 434.284
1 0 49.0587 12.4748 612 63.6225 810.807 430.51
2 0 50.1021 10.8778 545 65.7138 811.031 431.738
3 0 55.0464 13.3705 736 61.3207 811.417 432.929
4 0 56.1436 11.8802 667 63.904 811.403 430.024
5 0 55.1153 10.8863 600 65.5767 810.588 430.723
6 0 57.0356 12.3256 703 63.4651 809.205 428.326
7 0 60.134 13.0708 786 62.1845 809.833 428.162
8 0 61.109 10.2113 624 65.5737 809.26 429.497
9 0 62.0317 11.1717 693 65.228 809.538 426.31
10 0 63.0598 11.1006 700 65.6957 809.981 425.064
11 0 68.1011 13.0541 889 62.5467 808.965 425.186
12 0 70.123 11.8364 830 63.8253 808.916 423.999
13 0 73.0737 13.329 974 61.8973 808.522 423.88
14 0 75.0995 12.7697 959 62.755 808.863 421.424
15 0 75.2189 12.4703 938 63.5554 808.281 420.092
16 0 78.1294 11.6345 909 64.5699 807.637 420.061
17 0 79.1075 10.6058 839 66.6341 807.944 417.518
18 1 42.0361 10.0152 421 63.8599 807.606 437.926
19 0 42.0605 9.98562 420 65.05 807.843 435.557
20 0 45.0343 11.2137 505 63.3782 808.065 433.826
21 0 43.031 10.1555 437 66.1281 808.737 433.16
22 0 48.098 10.7489 517 64.0561 808.644 433.385
23 0 48.0508 11.363 546 63.4524 807.793 432.751
24 0 54.1227 13.2107 715 59.6811 807.923 434.982
25 0 53.1018 12.2406 650 61.9892 808.792 432.182
26 0 54.1757 11.2781 611 63.5041 809.252 431.55
27 0 57.099 11.8216 675 62.4533 808.707 430.281
28 0 60.0902 11.5992 697 61.878 808.759 432.643
29 0 60.0594 10.5063 631 64.4643 808.767 429.667
30 0 64.1357 11.8655 761 62.0854 808.878 430.288
31 0 63.0998 10.9509 691 63.8944 808.598 427.563
32 0 67.0848 14.2208 954 59.3878 808.809 428.69
33 0 69.1357 10.6602 737 63.6052 808.387 428.517
34 0 72.2021 12.2573 885 61.3616 808.282 426.318
35 0 73.1268 13.6475 998 60.4429 807.991 423.741
36 0 77.1626 11.3138 873 62.9691 807.809 422.292
37 0 79.0448 12.7017 1004 61.6703 807.985 421.39
38 0 82.182 13.4093 1102 60.598 808.108 420.921
39 0 83.1197 13.1978 1097 61.1778 808.116 420.047
40 1 45.1839 10.2249 462 61.2857 808.074 439.069
41 0 49.2943 10.1837 502 61.1394 808.604 439.496
42 0 47.2525 11.047 522 61.5249 808.4 437.695
43 0 47.0592 11.7299 552 62.0851 808.123 435.781
44 0 50.1963 11.3753 571 61.7443 808.529 434.998
45 0 51.0521 12.0073 613 61.075 808.607 435.458
46 0 52.0794 10.772 561 62.328 808.07 435.109
47 0 54.1341 11.8779 643 61.1166 807.818 433.412
48 0 56.0918 13.0679 733 59.0477 807.921 433.945
49 0 59.0946 12.9453 765 59.2667 808.03 432.047
50 0 60.0817 12.0835 726 60.8884 807.478 430.853
51 0 61.1707 11.5578 707 62.0382 807.74 429.103
52 0 61.058 12.5291 765 61.7229 808.285 428.225
53 0 62.0705 11.6319 722 63.0526 808.157 426.701
54 0 65.1403 13.1869 859 60.9779 808.297 426.932
55 0 66.0686 11.7302 775 63.2258 808.213 426.32
56 0 70.0627 13.0883 917 60.8288 808.19 427.605
57 0 72.1216 13.1999 952 61.395 808.231 424.488
58 0 73.218 12.8247 939 62.1353 808.245 422.65
59 0 77.1368 12.8603 992 62.5262 808.572 420.311
60 0 78.1371 12.7212 994 62.7404 808.775 419.873
61 1 40.033 8.2432 330 63.7697 808.958 441.27
62 0 42.0661 10.6974 450 60.3756 808.744 441.753
63 0 42.1055 11.2812 475 61.0147 808.457 438.291
64 0 45.0197 10.5732 476 62.3424 807.872 436.416
65 0 46.0598 10.5732 487 62.1376 808.487 436.189
66 0 47.0845 10.2369 482 62.3921 807.88 433.286
67 0 48.0316 11.1177 534 62.4757 807.247 433.584
68 0 49.0578 12.0878 593 61.2884 807.45 433.165
69 0 50.0112 12.4372 622 61.0868 807.949 432.209
70 0 53.0734 11.3616 603 62.1692 807.075 434.003
71 0 54.0413 10.9176 590 63.9051 807.581 431.781
72 0 56.0889 12.1236 680 62.1485 807.415 432.387
73 0 57.1091 12.0997 691 62.6208 807.951 429.14
74 0 59.0271 12.2655 724 61.9033 808.135 429.686
75 0 60.1718 13.4448 809 60.0074 807.972 430.072
76 0 62.1125 11.8173 734 62.0368 807.989 426.812
77 0 62.1383 11.3939 708 62.9689 808.093 425.198
78 0 67.0626 12.2721 823 61.1604 808.764 426.872
79 0 68.1382 12.9003 879 60.9431 808.733 425.633
80 0 69.0927 11.5931 801 63.2772 808.592 423.468
81 0 73.0604 13.8516 1012 59.668 808.666 425.042
82 0 74.1292 11.1157 824 64.233 807.671 422.36
83 0 75.1203 11.0889 833 64.7455 807.61 422.928
84 1 39.0695 9.75185 381 63.2835 806.898 440.546
85 0 41.0167 10.7761 442 63.0701 807.661 441.081
86 0 43.0573 11.1944 482 62.7178 807.932 440.386
87 0 42.0791 11.4308 481 62.4615 808.085 441.356
88 0 44.1941 10.8612 480 62.6354 808.179 441.173
89 0 43.1322 9.92297 428 64.6215 808.512 440.234
90 0 46.0747 13.1959 608 60.5033 808.37 437.683
91 0 48.0785 11.814 568 62.0669 808.363 437.859
92 0 48.1379 11.0931 534 63.8258 808.425 436.049
93 0 50.0835 11.361 569 63.4921 808.127 435.522
94 0 50.1338 11.4693 575 64.6713 808.191 433.856
95 0 51.1203 11.0719 566 64.0053 807.332 432.546
96 0 54.0607 10.7287 580 63.931 808.233 433.747
97 0 56.0697 10.1481 569 64.2988 807.685 433.037
98 0 55.1142 9.45309 521 66.167 807.91 432.102
99 0 60.0498 11.6237 698 62.1777 807.877 431.123
100 0 61.0879 10.8532 663 63.1719 808.469 428.983
101 0 63.0855 11.8252 746 62.0174 808.657 428.283
102 0 63.0703 11.8439 747 63.0174 808.671 427.384
103 0 68.1704 12.5568 856 60.889 808.174 426.695
104 0 65.1806 10.2638 669 65.2108 808.03 423.954
105 0 70.2881 11.0972 780 63.3115 808.173 424.228
106 0 73.1344 11.2669 824 63.2949 808.636 422.847
107 0 75.0954 11.1591 838 63.1599 808.282 423.922
108 1 36.0268 8.27162 298 62.6141 808.057 442.087
109 0 38.0363 9.28062 353 62.1133 808.354 441.13
110 0 41.0921 12.9222 531 57.3484 809.139 440.561
111 0 43.1813 10.3517 447 61.1477 808.85 439.114
112 0 42.0404 9.94281 418 62.5215 808.589 439.397
113 0 42.0663 10.6498 448 62.4911 808.136 437.493
114 0 44.0671 11.0286 486 61.6214 807.926 438.516
115 0 47.1643 10.3256 487 61.0472 808.421 439.936
116 0 49.1152 11.5036 565 61.0071 808.726 434.688
117 0 50.0888 11.2201 562 60.9359 808.498 437.498
118 0 50.1275 11.5705 580 62.1379 808.629 432.233
119 0 52.189 11.6116 606 61.2525 808.619 433.34
120 0 52.0664 12.6569 659 60.2974 808.836 434.197
121 0 55.1042 11.7051 645 60.876 809.259 434.647
122 0 57.1759 12.8201 733 59.4802 808.314 433.692
123 0 58.0209 13.047 757 59.9168 808.069 431.878
124 0 58.0869 10.8802 632 62.4778 808.19 432.826
125 0 62.076 11.1154 690 61.9203 809.016 430.535
126 0 63.1777 11.2065 708 62.1398 808.624 429.304
127 0 65.0854 12.3376 803 61.1569 809.126 428.451
128 0 69.0782 13.1011 905 59.4177 808.82 425.809
129 0 69.0884 11.811 816 61.6949 808.211 424.712
130 0 72.0692 12.4741 899 61.0857 807.739 421.621
131 0 73.065 11.9893 876 61.8721 807.455 422.715
132 0 77.0967 12.9188 996 60.7781 807.31 418.977
133 1 39.0541 9.78129 382 63.0995 808.474 438.571
134 0 41.0587 10.8868 447 61.9351 808.736 438.013
135 0 43.0434 13.1495 566 58.8728 808.726 439.235
136 0 42.0204 11.0899 466 62.5365 808.717 438.549
137 0 43.0731 10.7027 461 62.731 808.139 439.846
138 0 45.2008 12.0352 544 61.4982 808.197 437.915
139 0 46.0305 10.732 494 64.0304 808.395 436.638
140 0 49.1062 13.6032 668 59.8488 808.817 438.388
141 0 50.2035 11.314 568 62.8926 809.734 437.412
142 0 52.1713 11.5964 605 62.4248 808.983 437.127
143 0 50.0949 10.9792 550 64.5927 808.182 433.727
144 0 53.159 10.1958 542 65.2214 807.795 434.188
145 0 55.2095 11.1394 615 64.2504 808.501 433.824
146 0 58.1159 12.5267 728 62.1264 808.53 432.38
147 0 59.0495 12.1932 720 63.1875 808.935 430.378
148 0 62.2554 12.2238 761 62.5834 809.209 432.304
149 0 61.1096 12.5676 768 62.3646 808.396 431.857
150 0 63.0752 12.8418 810 62.7074 808.423 427.54
151 0 66.126 12.5669 831 62.7786 808.639 427.247
152 0 69.228 13.1016 907 61.7266 808.857 427.342
153 0 68.1909 12.0104 819 64.0965 808.604 424.635
154 0 73.0849 12.9028 943 62.4772 808.768 424.129
155 0 71.1424 11.6246 827 64.9601 808.393 421.64
156 0 76.0864 13.4715 1025 61.2859 808.153 423.951
157 1 41.0471 11.6208 477 62.174 808.451 440.314
158 0 42.0298 11.3729 478 62.7845 808.579 439.456
159 0 43.0571 11.2873 486 62.8169 808.751 438.866
160 0 45.0327 11.5694 521 62.0077 808.601 437.798
161 0 46.0285 11.3408 522 62.2835 808.274 437.117
162 0 45.0304 11.1702 503 62.9443 808.722 434.833
163 0 50.0693 11.5041 576 62.1215 808.887 433.948
164 0 51.0151 10.8399 553 62.6166 808.076 433.819
165 0 51.076 12.0996 618 61.9612 808.477 432.047
166 0 53.0376 11.8972 631 61.5547 808.225 432.591
167 0 54.0549 12.7648 690 61.0188 807.493 428.809
168 0 56.132 12.524 703 61.4481 807.616 428.319
169 0 56.0898 12.1412 681 61.8957 808.367 429.972
170 0 59.0348 11.8235 698 61.8266 808.894 428.483
171 0 60.1008 12.0464 724 61.6464 808.561 431.43
172 0 62.1953 13.0235 810 60.6148 808.936 428.698
173 0 65.0645 13.2484 862 60.4316 808.874 426.233
174 0 67.1255 13.0353 875 60.1611 808.998 427.995
175 0 68.1421 12.9142 880 61.4432 808.823 423.841
176 0 70.0818 13.1275 920 60.7457 808.545 422.886
177 0 74.0584 13.0438 966 60.53 809.577 423.684
178 0 74.046 11.8575 878 62.7859 809.798 421.026
179 1 37.0255 11.0194 408 61.4755 809.684 440.14
180 0 40.1393 10.8373 435 60.2552 808.752 440.572
181 0 41.0695 11.8579 487 59.8727 808.721 438.392
182 0 41.1006 11.3867 468 60.641 809.387 438.524
183 0 43.071 11.6319 501 59.8363 809.373 439.573
184 0 43.0491 9.40787 405 63.3185 809.679 436.832
185 0 45.1236 10.992 496 60.7641 809.081 437.014
186 0 46.1884 9.54784 441 63.1859 808.871 435.172
187 0 52.0299 11.9931 624 59.8734 808.869 434.753
188 0 52.1442 11.449 597 61.0804 809.064 432.943
189 0 52.056 11.5837 603 61.6219 809.081 431.894
190 0 55.0448 11.8086 650 60.7923 809.388 432.083
191 0 57.0897 11.2279 641 61.6771 809.275 430.059
192 0 58.0688 10.522 611 63.0655 809.357 428.684
193 0 62.2163 11.8618 738 60.3618 809.499 429.673
194 0 65.1009 13.5636 883 58.3669 809.776 428.323
195 0 66.1162 12.5839 832 59.3462 809.488 428.892
196 0 68.126 13.2402 902 58.6929 809.106 428.22
197 0 70.2089 13.5026 948 58.9156 808.688 424.523
198 0 72.0725 12.0018 865 60.1341 808.815 426.043
199 0 74.084 12.2024 904 60.7887 808.473 420.685
200 0 78.0998 10.8067 844 61.5379 808.748 423.097
201 0 80.1133 10.3978 833 62.6279 809.164 421.077
202 0 83.2206 10.8507 903 62.0044 808.609 418.516
203 0 87.1593 12.1387 1058 60.1796 808.392 415.98
204 0 90.1379 12.6251 1138 59.9473 807.422 410.238
205 0 92.1298 11.7009 1078 61.1688 807.693 412.669
206 0 95.2046 12.783 1217 60.1578 808.238 411.698
207 0 100.099 12.0081 1202 59.9567 808.243 408.347
208 0 104.145 11.34 1181 60.5334 808.274 406.74
209 1 53.082 9.38171 498 59.5763 807.876 433.679
210 0 56.1127 9.94427 558 59.2115 807.957 430.803
211 0 56.0543 9.88328 554 58.9152 808.377 432.61
212 0 56.075 12.0196 674 57.3071 808.372 428.714
213 0 59.0412 11.348 670 57.9925 808.596 426.046
214 0 60.0886 11.4331 687 57.8486 808.45 425.672
215 0 62.1295 9.96305 619 59.0598 808.296 427.171
216 0 65.0436 11.4692 746 57.5456 808.448 424.441
217 0 68.1258 11.7283 799 56.6746 807.421 425.119
218 0 70.0986 12.3826 868 55.8122 807.371 424.993
219 0 73.0957 12.381 905 55.6663 807.465 425.372
220 0 74.1281 11.1564 827 57.3035 807.214 418.422
221 0 77.131 11.9926 925 56.1027 808.397 420.944
222 0 78.0839 11.3083 883 57.1325 809.165 419.101
223 0 79.1025 9.99969 791 59.1922 809.336 415.971
224 0 83.0898 12.3842 1029 56.4713 808.696 414.537
225 0 86.0407 10.4718 901 58.0488 807.818 414.928
226 0 91.109 12.8857 1174 55.4395 808.57 415.099
227 0 94.1143 12.5804 1184 55.8522 808.421 412.54
228 1 50.1011 11.3969 571 55.8074 808.221 434.933
229 0 53.1222 11.5206 612 55.7533 808.109 433.415
230 0 53.1293 9.63687 512 58.9141 808.262 430.945
231 0 57.0365 10.2566 585 56.6427 808.296 430.085
232 0 57.0474 9.67617 552 56.1884 809.226 433.438
233 0 59.0994 11.3537 671 55.0224 808.659 428.92
234 0 58.0531 8.35442 485 58.5629 808.951 429.045
235 0 64.0258 10.8706 696 55.8003 808.684 426.687
236 0 64.151 14.2788 916 52.6703 808.105 424.581
237 0 67.1597 9.48486 637 57.1523 808.181 426.003
238 0 71.2491 12.9826 925 53.4324 808.455 423.781
239 0 73.1063 13.0905 957 53.6604 808.945 422.522
240 0 75.0732 10.6296 798 55.8546 808.887 424.352
241 0 76.1037 12.1676 926 55.1296 808.968 418.153
242 0 79.2617 13.4113 1063 53.5466 808.301 419.693
243 0 81.095 10.2596 832 57.3317 808.149 418.236
244 0 84.1644 10.7052 901 57.6815 808.313 414.845
245 1 47.1028 12.547 591 53.687 808.482 436.014
246 0 48.085 14.2456 685 52.7723 808.672 434.142
247 0 49.0415 13.3357 654 53.9067 808.177 433.809
248 0 52.069 11.696 609 55.8506 807.394 431.895
249 0 53.0731 11.1921 594 56.2121 806.852 431.364
250 0 54.0664 12.7621 690 55.0609 807.432 431.962
251 0 54.0367 13.1762 712 54.9312 807.801 431.486
252 0 56.0951 12.5858 706 56.2224 807.989 429.407
253 0 59.0465 14.0567 830 54.1651 808.101 429.967
254 0 59.1769 11.4741 679 57.4742 808.152 428.492
255 0 61.1721 13.1923 807 55.6642 808.279 427.311
256 0 64.0902 13.3406 855 55.3287 808.156 428.165
257 0 67.0369 13.8729 930 55.072 807.781 426.766
258 0 68.1126 11.6865 796 57.7915 807.977 424.038
259 0 68.0948 12.5854 857 56.9277 807.866 427.006
260 0 71.124 12.0775 859 58.0757 808.25 423.345
261 0 72.1101 11.4131 823 59.1069 808.348 423.339
262 0 76.2482 12.656 965 58.4404 808.924 417.946
263 0 77.1021 12.8661 992 58.7077 808.941 418.312
264 1 40.0842 10.6276 426 58.6972 808.434 438.11
265 0 44.0183 9.6778 426 59.0023 808.803 438.364
266 0 45.0658 10.2739 463 60.0432 808.382 435.512
267 0 46.1164 12.4251 573 58.3962 808.251 433.979
268 0 48.1095 11.9103 573 59.1658 807.644 432.923
269 0 51.0971 11.9576 611 58.5303 807.831 433.142
270 0 51.0359 12.403 633 58.8246 807.834 431.166
271 0 55.0998 12.6498 697 57.8422 807.885 431.91
272 0 54.0496 13.4691 728 57.9698 808.837 431.029
273 0 56.0924 13.0677 733 58.2497 808.578 430.247
274 0 57.0971 11.1039 634 61.3423 808.852 427.09
275 0 60.0527 12.3891 744 59.5699 807.755 425.378
276 0 62.0561 13.0688 811 58.1911 808.293 427.439
277 0 62.1302 11.6208 722 60.3449 808.317 426.848
278 0 64.1138 13.1641 844 59.0225 807.874 423.242
279 0 67.1417 12.8087 860 59.15 807.742 421.562
280 0 69.1077 10.5343 728 61.6799 808.152 423.052
281 0 70.0746 10.8741 762 61.773 808.474 419.941
282 0 71.0392 11.74 834 60.7506 808.607 420.801
283 0 74.0619 10.5182 779 62.0218 807.659 420.272
284 0 77.0766 12.5589 968 60.0434 807.865 417.853
285 0 81.1575 12.4942 1014 59.4803 806.896 416.158
286 0 81.1847 10.7779 875 62.0709 807.401 416.333
287 1 41.0373 12.0622 495 59.8727 808.01 436.21
288 0 44.0849 11.7501 518 59.7259 807.917 435.875
289 0 44.081 11.7284 517 59.7447 807.986 435.319
290 0 45.1661 10.561 477 61.6289 808.071 434.512
291 0 46.0303 11.9269 549 60.4918 808.173 434.745
292 0 48.1517 11.0692 533 61.7092 808.381 432.989
293 0 49.0565 12.1493 596 60.1409 807.847 433.795
294 0 52.1227 12.0101 626 60.4553 808.054 432.129
295 0 51.0657 12.807 654 60.5933 807.933 431.318
296 0 55.1082 12.1942 672 60.4643 807.652 429.735
297 0 55.2289 12.1313 670 61.0642 807.509 429.794
298 0 58.1885 12.4251 723 60.0595 807.856 429.714
299 0 57.0634 12.1093 691 61.3386 808.003 427.067
300 0 63.1526 12.6519 799 59.5394 808.08 427.836
301 0 62.0891 12.4821 775 60.8181 807.631 425.39
302 0 63.0712 11.9389 753 61.425 808.482 423.126
303 0 64.1164 11.5883 743 61.825 808.402 425.361
304 1 35.0295 10.5054 368 61.2147 808.351 439.261
305 0 37.0345 12.8259 475 58.8253 808.886 439.499
306 0 37.0144 11.8332 438 60.589 808.432 438.025
307 0 39.083 11.3349 443 60.8126 808.14 437.278
308 0 41.1003 11.3868 468 60.7628 808.293 436.925
309 0 41.0858 11.9506 491 60.2688 808.79 437.275
310 0 41.0847 11.2694 463 62.2203 808.797 436.255
311 0 43.0448 10.3845 447 62.8277 808.23 437.468
312 0 44.0416 12.6471 557 61.1041 808.542 435.657
313 0 44.0631 11.7786 519 62.8516 808.25 435.699
314 0 48.0623 11.2354 540 62.75 808.456 435.222
315 0 49.1633 11.3906 560 62.6143 808.461 436.118
316 0 51.046 13.145 671 60.8137 808.389 432.468
317 0 50.0416 12.1699 609 63.2135 808.399 429.246
318 0 52.0385 11.626 605 63.6711 808.195 429.706
319 0 54.0384 11.8804 642 63.5249 808.439 430.684
320 0 55.0834 12.0363 663 63.4525 808.33 428.326
321 0 59.0607 13.5284 799 61.1577 808.965 428.929
322 0 61.0631 13.9528 852 60.6878 809.022 430.083
323 0 62.0721 13.1782 818 62.0355 808.057 427.851
324 0 61.1817 11.5067 704 64.2287 808.284 428.987
325 0 65.0433 12.5609 817 63.0404 808.206 425.583
326 0 68.063 14.1927 966 60.9731 808.154 426.289
327 0 71.0513 13.7647 978 60.9141 808.218 426.812
328 1 37.0277 11.829 438 62.2671 808.372 441.473
329 0 41.0639 10.7881 443 63.7111 808.637 439.752
330 0 40.0297 11.2167 449 63.6726 808.376 439.615
331 0 44.1792 13.1057 579 60.715 807.751 439.934
332 0 45.1175 11.9466 539 62.4416 807.915 438.328
333 0 47.0339 13.182 620 60.4 807.558 439.708
334 0 49.0335 12.6648 621 60.5346 808.322 440.208
335 0 47.1129 10.5916 499 64.3627 808.615 437.122
336 0 51.0656 12.0042 613 62.4013 808.489 436.431
337 0 53.0498 14.6089 775 59.3677 808.701 437.637
338 0 54.0616 11.4684 620 63.121 808.319 437.121
339 0 56.0424 14.8994 835 59.3425 808.21 435.146
340 0 59.1458 13.3737 791 60.2832 808.872 436.54
341 0 59.1145 11.9937 709 62.4386 808.574 435.859
342 0 61.0479 12.0397 735 62.8327 808.539 431.703
343 0 63.0842 11.445 722 63.2521 808.716 433.271
344 0 66.0499 12.7177 840 61.5107 808.352 431.349
345 0 68.0954 10.8965 742 63.4798 808.232 431.725
346 0 72.1646 13.2475 956 60.7301 808.299 428.186
347 1 35.0362 10.7888 378 62.6243 808.77 444.217
348 0 37.0244 9.21015 341 64.044 807.853 445.114
349 0 40.0949 11.797 473 61.6427 807.702 442.52
350 0 41.0569 11.3014 464 62.1681 807.513 443.627
351 0 44.0192 12.5627 553 60.6275 807.584 441.609
352 0 44.0208 12.0625 531 61.4595 807.331 438.983
353 0 47.1423 11.4335 539 61.8386 807.972 439.941
354 0 47.0386 11.2036 527 62.1954 807.778 439.157
355 0 50.0651 11.505 576 61.7812 807.698 434.925
356 0 52.0305 11.7623 612 61.4967 807.779 438.181
357 0 53.1943 11.8058 628 61.5924 807.463 434.944
358 0 55.0748 13.3636 736 59.6821 807.31 434.168
359 0 57.0601 11.6369 664 62.0181 807.223 433.7
360 0 56.0561 8.72341 489 65.1881 808.055 434.685
361 0 62.0663 13.5822 843 59.6299 808.089 432.546
362 0 63.1798 10.5413 666 63.6982 808.036 429.613
363 0 66.0364 12.2054 806 62.0074 808.531 429.664
364 0 71.1535 12.9298 920 60.2554 808.44 431.046
365 0 72.0727 12.0989 872 61.5998 808.305 430.597
366 1 35.0222 12.3065 431 59.9814 808.418 448.007
367 0 35.025 9.36474 328 63.2805 808.424 447.71
368 0 38.0881 12.0773 460 60.8304 808.009 445.811
369 0 39.0492 10.7557 420 62.7048 807.162 445.093
370 0 41.165 10.9073 449 61.8931 807.548 444.497
371 0 42.0433 10.8697 457 62.4748 807.788 443.118
372 0 45.0432 10.7896 486 62.4938 807.603 442.358
373 0 45.0531 10.5653 476 63.9013 808.483 439.966
374 0 46.0587 11.8761 547 63.0201 808.324 438.186
375 0 47.0765 11.3857 536 63.7687 808.584 435.974
376 0 50.0356 12.7509 638 62.6238 808.884 434.201
377 0 52.031 11.5892 603 63.8242 809.008 433.635
378 0 54.0416 12.916 698 62.2493 808.332 432.365
379 0 57.0534 12.1465 693 62.9885 808.245 432.075
380 0 58.0288 12.7523 740 63.1027 808.741 429.465
381 0 60.0335 12.01 721 63.6782 808.184 429.047
382 0 65.0357 11.7781 766 63.3068 808.291 426.838
383 0 66.1542 12.4558 824 62.9842 808.097 426.541
384 0 66.068 10.5649 698 65.2335 808.298 425.128
385 0 70.0695 12.93 906 61.979 808.501 424.099
386 0 75.2293 12.1362 913 62.0263 808.153 426.692
387 1 37.0433 10.9061 404 62.6312 808.582 441.78
388 0 38.0359 10.3586 394 63.3477 808.655 440.459
389 0 42.0627 11.6968 492 60.624 808.864 440.965
390 0 44.0647 10.7796 475 62.0126 808.971 437.731
391 0 45.1595 12.2233 552 60.8659 808.688 434.908
392 0 47.1481 11.326 534 61.0824 808.717 437.215
393 0 48.0921 12.4345 598 60.2207 808.604 434.637
394 0 49.0448 11.0919 544 61.8511 808.105 435.204
395 0 52.0486 12.8918 671 59.5261 807.311 432.189
396 0 54.0598 10.8953 589 61.1732 807.625 433.516
397 0 53.0618 11.9106 632 60.7263 807.231 432.084
398 0 56.0566 11.6668 654 60.8869 807.936 430.515
399 0 60.1087 13.1262 789 58.5513 808.446 429.066
400 0 62.0319 11.9293 740 59.7649 808.589 429.03
401 0 64.1215 10.7452 689 60.9478 807.82 428.772
402 0 66.0892 11.1062 734 60.7956 808.207 426.144
403 0 69.1478 11.6851 808 59.5569 807.911 426.006
404 0 72.0726 14.0969 1016 56.8632 807.7 421.749
405 0 73.1295 12.4027 907 59.0981 807.802 420.804
406 0 76.1072 11.0239 839 60.758 807.662 419.6
407 0 77.0881 10.3648 799 61.4969 807.879 419
408 0 79.0766 11.002 870 61.1621 807.666 417.814
409 0 86.2534 11.9879 1034 59.6412 807.338 415.876
410 1 42.0424 9.63312 405 61.242 808.126 435.198
411 0 42.0316 12.3241 518 58.0116 808.278 437.479
412 0 44.0459 9.35389 412 61.8228 808.364 433.913
413 0 48.1367 11.7789 567 58.5044 808.374 433.085
414 0 49.0643 10.8225 531 60.1846 808.185 431.409
415 0 49.053 9.94841 488 60.9754 808.5 432.33
416 0 53.131 10.5964 563 60.1954 808.412 429.568
417 0 54.1111 10.0719 545 60.1046 808.91 432.25
418 0 56.1258 10.7615 604 59.3162 808.28 430.841
419 0 58.1565 12.1569 707 58.2518 808.322 427.839
420 0 60.0726 11.6193 698 58.1705 808.507 427.418
421 0 62.1033 11.1749 694 58.6513 808.408 427.477
422 0 64.1158 10.871 697 58.7791 808.367 425.527
423 0 69.0399 10.1825 703 59.0071 808.825 423.824
424 0 69.1397 10.9922 760 58.2395 808.907 425.13
425 0 73.0734 11.2763 824 57.2973 808.499 425.342
426 0 77.2277 12.2106 943 56.3828 808.77 421.344
427 0 80.2028 11.658 935 56.5551 808.304 422.187
428 0 83.2612 13.1033 1091 55.2493 808.762 419.9
429 1 39.0898 10.8212 423 57.721 808.667 438.931
430 0 45.0867 10.9123 492 56.3252 809.063 439.547
431 0 45.0264 11.4377 515 56.6078 809.091 436.86
432 0 46.085 10.8061 498 57.4277 809.627 436.528
433 0 49.1037 11.8728 583 55.6021 808.981 436.058
434 0 50.1051 12.3939 621 55.7585 809.182 433.675
435 0 51.0732 13.1184 670 54.8552 809.124 434.784
436 0 53.0533 11.1774 593 56.9258 808.673 433.251
437 0 56.0892 13.015 730 55.2123 807.968 429.736
438 0 59.1934 12.2987 728 55.7486 808.085 429.629
439 0 61.1838 13.6474 835 54.2299 807.977 429.816
440 0 63.1372 13.4469 849 54.1449 808.044 429.379
441 0 64.1105 12.3693 793 55.546 807.999 427.189
442 0 67.0995 11.1774 750 57.1427 807.84 424.156
443 0 71.383 12.2718 876 55.887 807.963 422.498
444 0 72.1345 13.1421 948 55.2996 807.694 420.673
445 0 78.0975 15.0069 1172 52.8251 807.221 420.236
446 0 78.1125 12.354 965 56.1161 807.38 416.918
447 0 82.0708 11.6119 953 56.6317 808.277 418.104
448 1 42.059 11.7692 495 56.5091 808.077 438.517
449 0 45.0212 10.595 477 57.4319 807.803 439.82
450 0 47.1635 11.916 562 56.3025 807.785 437.927
451 0 46.0554 10.2485 472 58.572 807.659 438.576
452 0 47.0494 11.4348 538 58.2045 807.825 436.028
453 0 53.2355 12.6044 671 55.5857 807.858 436.556
454 0 53.1122 11.6734 620 57.1 807.139 433.731
455 0 51.0862 10.1006 516 59.407 807.618 432.946
456 0 54.0762 10.1338 548 59.4891 807.338 431.321
457 0 58.0902 12.2568 712 56.2584 807.605 432.642
458 0 57.0613 9.83153 561 59.7041 807.729 431.519
459 0 62.1457 11.1029 690 57.6072 807.597 431.97
460 0 64.0435 13.0536 836 56.2309 807.678 429.958
461 0 67.1465 13.195 886 55.7415 807.465 428.885
462 0 70.1065 13.0516 915 56.0273 807.954 425.417
463 0 71.2731 11.0841 790 58.2203 807.78 425.499
464 0 73.148 12.3038 900 56.9156 808.709 424.721
465 0 76.2289 15.1911 1158 53.9577 809.308 422.335
466 0 78.0891 12.7803 998 56.495 809.418 421.749
467 1 42.1085 11.3754 479 56.5157 809.065 439.493
468 0 38.0129 8.97064 341 58.6393 808.979 441.179
469 0 42.0324 10.6822 449 57.2561 808.539 440.176
470 0 45.0865 11.1563 503 56.1909 808.656 439.654
471 0 46.0458 11.6623 537 55.6927 808.192 438.315
472 0 50.0625 12.1848 610 54.4016 807.944 437.27
473 0 48.0544 11.7159 563 55.5062 808.135 436.137
474 0 50.0174 10.7763 539 56.5547 808.078 435.043
475 0 51.0447 11.5389 589 55.8727 808.317 432.267
476 0 54.0345 11.7888 637 54.8854 808.51 434.281
477 0 56.057 11.5953 650 54.9477 808.52 432.006
478 0 59.1663 12.2198 723 54.2268 809.007 430.447
479 0 61.0488 12.318 752 53.9242 809.056 430.238
480 0 63.1143 13.8162 872 52.4736 809.295 428.782
481 0 67.0673 13.6877 918 52.0882 809.04 428.419
482 0 66.0702 11.6089 767 54.2973 809.501 426.881
483 0 71.1768 12.8975 918 52.5719 808.279 425.449
484 0 72.0395 11.688 842 54.0356 808.589 422.544
485 0 75.2242 13.9849 1052 51.866 808.765 421.632
486 0 78.1856 13.2505 1036 52.2934 808.691 422.907
487 0 80.1874 10.9618 879 54.504 809.003 421.304
488 1 44.0543 9.4656 417 53.4029 808.727 439.451
489 0 43.0905 11.4874 495 53.3475 808.913 436.095
490 0 45.0742 10.6713 481 53.7027 808.387 437.424
491 0 45.0183 11.1954 504 52.8333 808.659 438.851
492 0 46.0687 10.4409 481 53.9376 808.869 437.15
493 0 47.0282 12.1842 573 52.6754 808.22 435.728
494 0 51.1097 11.5438 590 52.9475 807.644 434.958
495 0 54.1442 12.3005 666 52.2598 807.311 432.893
496 0 56.0977 14.653 822 50.6119 807.558 431.005
497 0 60.1304 11.2256 675 53.283 808.166 431.828
498 0 59.1029 13.2312 782 52.3849 808.416 428.826
499 0 60.0993 11.6807 702 53.9202 808.026 429.231
500 0 61.0564 10.1709 621 55.4219 807.314 427.614
501 0 65.1423 12.0198 783 53.0881 807.651 430.072
502 0 68.1259 12.0512 821 53.7393 808.223 425.946
503 0 71.075 11.6215 826 54.0908 808.533 424.665
504 0 73.0963 12.8734 941 52.5313 808.38 426.231
505 0 73.249 11.181 819 54.6667 807.977 423.451
506 0 75.0477 12.5653 943 53.0901 807.677 424.807
507 0 77.3264 9.76381 755 56.3192 808.09 422.922
508 0 81.2184 11.3767 924 55.4848 808.289 417.1
509 0 81.3709 13.0636 1063 54.4901 809.025 417.614
510 0 87.2647 12.5595 1096 54.6478 808.539 416.891
511 0 88.1751 11.6359 1026 55.8957 808.44 414.593
512 0 92.2123 12.2435 1129 55.3835 808.458 414.225
513 0 96.1489 13.3023 1279 54.4996 808.889 414.504
514 0 99.063 12.1034 1199 56.4395 808.681 409.682
515 0 101.32 11.4587 1161 57.3299 808.862 407.96
516 0 105.139 9.49222 998 60.0261 808.371 409.182
517 1 49.0657 10.9241 536 57.7015 808.491 435.118
518 0 51.0365 10.7178 547 57.6929 808.261 436.808
519 0 52.044 11.8553 617 57.9092 807.84 431.237
520 0 54.0742 12.2054 660 57.803 808.085 430.408
521 0 55.0778 10.8937 600 59.495 808.085 431.45
522 0 58.1061 12.5804 731 58.0479 807.254 429.573
523 0 59.0428 10.992 649 59.9646 807.381 430.228
524 0 60.0741 12.7176 764 58.4031 807.552 429.694
525 0 62.1372 11.4907 714 60.6947 807.737 426.272
526 0 64.0502 12.8805 825 58.9964 807.44 424.598
527 0 68.1905 11.9078 812 59.6096 807.826 425.706
528 0 70.1167 12.2225 857 59.888 807.826 422.856
529 0 73.0772 12.4115 907 60.0243 808.512 422.345
530 0 75.1222 12.4198 933 60.7856 809.135 419.628
531 0 78.0803 11.6803 912 61.5384 807.849 420.804
532 1 39.0771 9.80114 383 62.3551 808.204 439.483
533 0 38.0452 10.2772 391 62.6547 808.476 438.266
534 0 43.0846 11.6051 500 61.284 808.704 438.546
535 0 44.0939 10.8178 477 62.7715 808.526 437.057
536 0 45.102 11.4186 515 62.2874 808.526 434.532
537 0 48.028 11.5974 557 61.8007 808.671 435.614
538 0 49.1311 10.5432 518 63.9459 808.28 434.986
539 0 52.019 11.2267 584 63.1182 807.932 433.793
540 0 53.0444 11.5941 615 62.7919 808.319 432.65
541 0 51.0336 11.4434 584 64.6164 808.402 431.353
542 0 56.0589 11.8804 666 63.1306 808.117 432.108
543 0 60.1107 12.6267 759 61.5744 808.095 431.005
544 0 59.0649 11.6821 690 63.8 807.786 430.661
545 0 60.0485 12.1902 732 63.4973 807.66 429.24
546 0 66.1741 11.364 752 64.2447 807.836 426.226
547 0 64.0565 11.0684 709 64.9492 807.498 427.722
548 0 67.1348 13.0037 873 62.7686 807.498 426.598
549 0 70.1036 13.637 956 59.5272 807.754 426.006
550 1 38.0812 10.5039 400 65.9475 808.433 439.17
551 0 39.0902 10.5141 411 64.82 808.669 440.455
552 0 41.0159 11.9953 492 63.2195 808.825 440.341
553 0 41.1006 9.17261 377 67.3634 808.613 439.422
554 0 44.1298 12.0327 531 64.5217 808.311 436.942
555 0 46.1363 11.401 526 64.3916 808.633 436.99
556 0 48.142 12.4424 599 63.3606 808.644 436.361
557 0 46.0542 12.1596 560 64.6286 808.409 435.498
558 0 49.1237 12.1123 595 64.5748 808.245 434.595
559 0 49.0532 11.2123 550 66.3145 808.265 433.882
560 0 52.076 12.1361 632 65.1187 808.204 434.028
561 0 54.0265 11.846 640 65.5422 808.03 433.336
562 0 53.0615 13.3996 711 64.4838 808.526 433.037
563 0 55.0826 12.1817 671 66.2548 808.077 431.45
564 0 57.1495 13.0185 744 64.953 808.358 430.745
565 0 58.1351 12.3677 719 66.3032 808.317 431.758
566 0 58.1256 13.4364 781 65.2689 807.921 430.743
567 0 62.0804 12.4516 773 65.9741 808.133 430.722
568 0 64.1537 13.4053 860 64.9407 808.331 426.828
569 0 66.0714 12.547 829 66.2678 808.408 426.86
570 0 66.0336 11.1761 738 68.4851 808.698 426.434
571 0 68.0768 12.2802 836 67.3553 808.756 424.59
572 0 71.0546 12.3708 879 66.5313 808.696 426.543
573 0 72.0517 12.1579 876 67.7215 808.134 423.789
574 1 35.0801 10.7468 377 66.5729 808.682 441.491
575 0 37.0234 12.4516 461 64.4729 808.336 440.85
576 0 38.018 9.78484 372 66.9839 808.5 440.653
577 0 38.1144 10.2586 391 67.9744 808.744 438.637
578 0 41.0243 14.2111 583 62.765 808.702 438.621
579 0 43.0931 13.5057 582 63.3402 809.057 439.098
580 0 43.0402 11.6171 500 66.232 808.854 438.268
581 0 45.0443 14.0306 632 63.0158 808.978 437.63
582 0 46.034 11.6218 535 65.8561 808.985 438.107
583 0 50.0533 12.4467 623 63.7352 808.258 437.762
584 0 50.081 13.8975 696 63.0761 808.188 434.993
585 0 53.1004 13.6722 726 62.3898 808.007 434.955
586 0 54.102 11.774 637 64.5997 807.537 435.708
587 0 54.0181 12.107 654 64.4312 807.809 435.547
588 0 56.0894 12.177 683 64.6325 808.042 434.313
589 0 57.0858 12.525 715 64.4727 808.168 435.003
590 0 61.0265 13.2074 806 63.2481 808.119 433.096
591 0 62.2098 12.3293 767 63.9087 807.868 434.098
592 0 64.0545 12.7079 814 63.7076 808.155 431.844
593 0 66.1054 13.7962 912 62.8596 807.85 428.596
594 1 35.0903 8.60637 302 65.7815 808.361 446.02
595 0 37.2305 9.85752 367 63.485 808.283 448.093
596 0 40.0552 12.308 493 60.2515 808.564 447.868
597 0 41.0416 9.91676 407 63.3391 808.138 447.781
598 0 43.2108 12.4506 538 60.0799 808.082 446.478
599 0 44.1197 13.3954 591 59.5533 808.166 445.526
600 0 44.0585 13.5275 596 59.7349 807.948 443.911
601 0 46.1008 10.4554 482 62.4419 808.834 445.724
602 0 49.1616 11.8182 581 60.4613 808.554 444.306
603 0 50.312 12.8995 649 59.319 808.41 442.639
604 0 48.0681 10.714 515 62.4718 807.654 440.598
605 0 51.1049 11.6427 595 60.6824 808.319 443.447
606 0 52.1145 12.3574 644 60.4488 808.689 442.304
607 0 54.075 11.1882 605 61.4413 807.906 439.423
608 0 56.1213 14.0232 787 58.4473 808.385 438.064
609 0 58.0963 12.0318 699 59.7668 808.774 441.323
610 0 61.2771 11.9294 731 60.3105 808.54 438.828
611 0 62.1144 13.1371 816 59.0919 808.575 438.925
612 0 64.0802 12.4532 798 59.5439 808.036 438.405
613 0 65.0651 12.1263 789 60.1204 807.984 438.403
614 0 68.2019 15.1169 1031 57.0175 808.261 435.23
615 0 70.0836 12.3139 863 59.5736 808.541 436.853
616 0 74.1017 12.051 893 60.112 808.307 436.335
617 0 75.0854 12.7188 955 59.8147 808.063 434.245
618 0 82.1216 12.5789 1033 50.2962 807.463 435.817
619 1 38.1218 9.75818 372 61.0806 808.618 452.909
620 0 42.0464 10.2744 432 59.2616 807.56 454.817
621 0 43.0429 11.3143 487 59.2957 807.928 452.68
622 0 44.0503 11.1464 491 59.5173 807.731 451.287
623 0 46.0618 11.2892 520 59.6846 807.935 451.194
624 0 47.1455 12.5569 592 58.4172 808.042 450.182
625 0 48.129 12.695 611 58.563 807.799 449.426
626 0 49.0554 10.4779 514 61.3833 807.786 449.016
627 0 51.0998 12.2897 628 59.3328 807.914 447.287
628 0 55.0471 12.3712 681 58.5536 808.411 448.909
629 0 56.0261 10.8521 608 60.6974 807.587 446.544
630 0 57.1565 11.1973 640 60.8078 807.337 443.317
631 0 58.0416 11.6985 679 60.4433 807.477 442.04
632 0 62.0806 12.822 796 58.7739 806.956 440.224
633 0 63.0854 12.0789 762 59.601 807.411 444.455
634 0 63.0893 10.8576 685 61.7606 807.378 437.747
635 0 66.149 10.2949 681 62.2129 807.789 441.511
636 0 69.2286 11.2959 782 61.6726 808.168 437.031
637 0 69.0714 9.61325 664 64.1325 807.892 436.97
638 0 72.0846 10.0854 727 64.3177 808.413 433.67
639 0 75.1146 12.5808 945 61.5598 808.865 433.854
640 1 40.0173 8.52132 341 64.4135 808.613 452.191
641 0 40.0579 8.76232 351 64.7607 808.618 451.051
642 0 42.0564 10.2719 432 63.3356 808.736 449.403
643 0 45.1526 10.6528 481 62.2973 808.216 448.561
644 0 46.0849 10.4156 480 62.8062 808.225 446.923
645 0 49.0922 10.1645 499 62.8677 807.611 446.631
646 0 48.0425 10.8862 523 62.1644 807.709 443.446
647 0 50.0227 11.7947 590 61.6814 807.802 443.919
648 0 52.0639 10.5639 550 62.5109 806.855 445.195
649 0 55.0804 11.1292 613 61.6264 807.408 441.122
650 0 57.0914 10.6146 606 61.9785 807.061 441.736
651 0 59.121 10.7914 638 62.337 806.741 438.87
652 0 62.0908 10.6457 661 62.1921 806.758 438.849
653 0 61.1286 9.71722 594 63.9175 807.024 439.17
654 0 65.0884 10.5549 687 63.0175 807.233 436.036
655 1 35.0988 9.25958 325 59.5908 806.895 456.351
656 0 36.0671 7.98512 288 61.2535 807.524 456.385
657 0 39.0648 9.77862 382 59.212 808.018 454.398
658 0 38.0291 9.41384 358 60.6061 807.084 452.151
659 0 39.0496 11.1141 434 59.1613 806.749 450.961
660 0 42.104 11.1391 469 58.7164 807.328 450.591
661 0 44.0648 9.5995 423 60.4965 807.019 449.39
662 0 43.0532 11.0096 474 59.673 806.717 448.873
663 0 45.0838 10.3807 468 60.5235 807.259 448.368
664 0 43.0264 10.3657 446 61.0179 807.22 446.177
665 0 46.142 10.251 473 61.1099 806.74 446.879
666 0 47.0576 13.2391 623 57.7817 806.722 443.897
667 0 49.1035 11.099 545 60.3028 807.426 447.193
668 0 50.1123 10.9753 550 60.1436 807.533 447.465
669 0 51.0507 11.2241 573 60.5724 807.656 443.162
670 0 53.1217 10.1089 537 61.4302 807.493 443.287
671 0 55.0756 12.6372 696 58.6911 806.871 440.938
672 0 56.0589 10.9706 615 60.8081 807.184 441.296
673 0 56.0348 10.3507 580 62.4552 806.886 437.648
674 0 59.0394 10.8233 639 61.0704 807.089 437.488
675 0 61.0286 11.6011 708 60.0904 806.766 437.184
676 0 65.0553 11.8361 770 59.9597 806.457 434.16
677 0 68.094 14.0835 959 57.3608 806.679 434.625
678 0 68.1116 11.2903 769 60.472 805.81 435.12
679 0 72.0981 10.8186 780 60.6026 806.424 435.388
680 0 73.1404 10.7875 789 61.0241 807.015 433.362
681 0 81.064 11.5711 938 59.4275 807.064 430.445
682 1 45.054 11.6527 525 57.899 807.162 448.798
683 0 43.0988 9.81466 423 60.6217 807.201 448.714
684 0 47.1558 10.3487 488 59.9365 806.832 447.205
685 0 48.0538 11.0293 530 59.9642 806.713 445.492
686 0 48.0434 13.2589 637 57.7802 806.524 444.881
687 0 49.023 10.3625 508 60.7185 807.232 445.949
688 0 51.0683 11.7098 598 59.3211 807.247 442.214
689 0 54.0326 11.3635 614 59.1254 807.339 443.648
690 0 55.0606 13.585 748 57.0481 807.702 440.825
691 0 56.0364 12.0279 674 58.9955 807.251 439.476
692 0 59.1175 11.9085 704 58.6037 807.217 439.933
693 0 60.1522 12.5515 755 58.2397 806.911 438.148
694 0 60.063 12.0207 722 59.0983 806.704 435.648
695 0 62.1783 12.3677 769 58.6437 807.302 435.325
696 0 63.0862 11.4288 721 59.7656 807.089 434.699
697 0 65.0613 11.6967 761 59.498 806.8 434.528
698 0 68.0529 11.7556 800 59.65 807.322 432.228
699 0 71.0408 12.9644 921 58.2562 807.382 430.455
700 0 74.0632 13.1104 971 57.7817 807.754 428.78
701 0 77.1446 12.9368 998 58.2014 807.963 427.683
702 0 79.0381 13.1962 1043 58.6913 807.822 424.712
703 1 39.0442 8.14461 318 61.5881 808.019 447.802
704 0 40.0316 10.117 405 60.5037 807.849 445.101
705 0 43.0247 9.92453 427 60.2459 807.504 443.808
706 0 42.0528 10.0826 424 60.8608 806.106 441.443
707 0 44.0809 11.4108 503 59.6879 807.469 440.688
708 0 48.1968 10.9343 527 58.6357 807.192 441.679
709 0 49.0296 12.2171 599 57.4174 807.726 441.905
710 0 49.072 11.2895 554 58.9711 807.181 437.679
711 0 52.073 11.3302 590 56.5186 806.834 438.627
712 0 53.2 11.9173 634 56.4227 806.549 436.199
713 0 56.1049 12.0845 678 56.2404 806.528 434.661
714 0 59.1145 13.8206 817 54.0894 806.979 434.961
715 0 58.2236 11.1295 648 57.1975 806.531 432.068
716 0 58.0521 11.0246 640 57.9937 806.434 431.278
717 0 63.0413 12.3094 776 56.3119 806.106 431.765
718 0 65.109 11.9799 780 56.9795 806.394 431.117
719 0 69.1044 11.8661 820 56.6585 807.08 430.591
720 1 32.1547 9.73418 313 56.3674 807.39 447.674
721 0 35.0348 10.4753 367 55.4196 807.676 446.905
722 0 33.0326 10.2929 340 57.0471 808.129 447.315
723 0 37.0706 10.5205 390 56.3821 807.759 444.949
724 0 37.0405 12.7428 472 54.5191 807.845 445.797
725 0 37.0279 10.1005 374 57.6658 807.524 442.286
726 0 40.1203 11.5901 465 55.8473 807.809 443.602
727 0 43.1059 10.9034 470 56.4894 807.945 443.509
728 0 42.0258 11.8737 499 56.3287 807.623 441.605
729 0 44.076 10.0281 442 58.1652 807.276 442.914
730 0 44.1416 10.8515 479 58.0084 807.434 439.839
731 0 48.3122 11.5706 559 56.6261 808.061 442.621
732 0 48.1263 10.6595 513 58.5497 807.517 437.661
733 0 48.0384 11.4075 548 57.9161 808.042 440.586
734 0 50.135 12.7855 641 56.4961 807.817 439.755
735 0 53.0859 10.5113 558 58.7778 807.672 436.323
736 0 53.4153 13.3857 715 56.207 807.453 435.629
737 0 56.0609 11.7907 661 57.7443 807.474 436.924
738 0 59.4315 12.6364 751 56.9081 807.723 434.876
739 0 59.0635 13.24 782 56.7954 807.891 434.5
740 0 61.1257 10.9774 671 59.2623 807.557 435.082
741 0 65.2036 12.806 835 57.1629 807.386 433.711
742 1 35.0256 10.164 356 57.6854 807.511 447.705
743 0 36.113 9.52565 344 58.9593 807.218 447.282
744 0 38.166 11.4762 438 57.1507 807.32 447.466
745 0 39.2101 10.0484 394 58.7411 806.901 446.155
746 0 39.1628 9.52433 373 59.7962 807.091 445
747 0 41.1665 10.5668 435 59.046 807.264 444.352
748 0 42.2468 11.5038 486 57.8992 807.572 443.693
749 0 44.2123 11.5353 510 57.9176 806.812 441.724
750 0 46.2587 10.9385 506 58.8735 807.344 443.006
751 0 47.1746 11.4468 540 58.387 808.256 441.854
752 0 47.1258 12.6046 594 57.9057 807.744 440.968
753 0 49.2346 10.6632 525 59.8038 807.785 440.362
754 0 52.471 10.8441 569 59.2443 807.773 441.039
755 0 52.222 11.7958 616 59.2256 807.515 438.718
756 0 53.0751 12.0584 640 59.075 807.773 437.956
757 0 57.2176 11.5349 660 59.5848 807.861 437.432
758 0 57.1334 12.1295 693 59.1833 807.398 436.502
759 0 56.0832 11.4294 641 60.571 807.424 436.08
760 0 61.3804 10.6549 654 60.8425 807.307 437.563
761 0 60.1971 10.3161 621 62.1659 807.406 435.385
762 0 63.1902 11.315 715 61.179 807.352 434.448
763 0 64.108 11.1375 714 60.7829 807.644 433.373
764 0 67.2014 10.342 695 61.0532 807.751 430.073
765 1 37.2574 11.434 426 57.8897 808.486 449.265
766 0 35.121 9.11136 320 61.2125 808.109 448.181
767 0 39.1847 12.1731 477 56.979 808.073 447.436
768 0 38.1988 10.9427 418 58.6746 807.49 448.411
769 0 42.102 10.8071 455 58.4 807.824 448.231
770 0 42.0685 11.3862 479 58.6681 807.691 445.674
771 0 43.0822 10.5148 453 59.4592 807.804 445.907
772 0 44.2951 10.7009 474 59.3418 807.489 443.637
773 0 48.2663 11.7266 566 57.8516 807.783 443.947
774 0 48.0647 11.4013 548 59.3084 807.496 441.87
775 0 49.1534 12.6339 621 57.8905 806.729 440.081
776 0 54.4666 10.2815 560 59.8107 807.196 441.159
777 0 55.139 11.8247 652 58.1166 806.322 439.998
778 0 58.1951 10.9288 636 59.0582 806.187 440.876
779 0 58.1134 13.5253 786 57.098 806.613 439.084
780 0 58.0853 12.0168 698 58.765 806.265 438.446
781 0 60.1062 11.4131 686 59.7959 806.783 435.593
782 0 64.0711 12.4081 795 58.9434 807.245 433.761
783 0 66.0656 12.2908 812 58.9483 807.562 434.143
784 0 69.0984 11.2593 778 60.081 807.9 430.107
785 0 71.1344 12.4131 883 58.9977 807.376 428.119
786 0 72.0377 15.603 1124 56.0107 807.381 426.779
787 0 76.066 13.7118 1043 57.8581 807.64 425.477
788 1 40.1135 9.67255 388 59.2758 807.291 445.753
789 0 41.0569 10.8142 444 59.5045 807.477 441.624
790 0 43.0707 12.4679 537 56.7561 807.471 442.056
791 0 45.1128 12.5907 568 56.8345 807.625 442.076
792 0 48.163 11.5441 556 57.3975 807.714 442.04
793 0 52.1634 11.7515 613 57.2333 807.856 439.103
794 0 49.2391 10.8044 532 58.844 807.141 440.314
795 0 54.3835 11.0879 603 58.6982 806.904 436.829
796 0 55.1457 10.3 568 59.5282 807.058 436.979
797 0 57.3123 11.481 658 58.4498 806.813 434.883
798 0 60.2324 8.93207 538 61.316 806.478 433.188
799 0 60.2611 11.0021 663 59.5083 807.312 434.762
800 0 64.2252 11.4441 735 59.1415 806.695 432.195
801 0 66.254 9.76545 647 61.2164 806.912 432.317
802 0 70.1209 11.851 831 58.3586 807.982 432.931
803 0 75.4268 12.0779 911 58.0274 808.007 430.54
804 0 76.1636 12.5125 953 57.4827 807.576 430.484
805 0 76.0807 10.9489 833 60.5126 807.672 424.503
806 0 81.1514 10.5975 860 60.4965 807.944 425.053
807 1 40.0384 8.26707 331 61.1722 807.789 443.604
808 0 42.0145 7.66403 322 61.3261 808.068 443.764
809 0 49.0644 10.9856 539 57.1707 807.058 442.497
810 0 49.0899 11.3262 556 58.4191 807.865 438.847
811 0 50.0522 10.7488 538 59.316 807.03 438.874
812 0 52.0609 10.4493 544 60.0588 807.233 436.011
813 0 54.0708 10.9856 594 59.7492 807.342 436.865
814 0 58.0748 10.8997 633 59.0047 808.384 436.684
815 0 57.0329 9.8189 560 60.8429 807.962 431.916
816 0 62.0938 10.7096 665 59.3759 808.211 435.047
817 0 66.0652 9.6874 640 60.0562 808.289 434.189
818 0 69.0811 11.1463 770 57.9805 807.923 434.736
819 0 70.1774 11.9839 841 57.6813 808.955 432.246
820 0 74.121 11.6971 867 57.451 809.025 430.877
821 0 76.1365 12.4513 948 57.0665 808.726 429.424
822 0 77.4874 12.131 940 58.5404 807.798 426.689
823 0 81.2872 12.3882 1007 58.1688 807.359 425.696
824 1 45.1281 10.7029 483 57.4472 808.271 444.685
825 0 44.0843 11.2965 498 57.8293 807.538 444.127
826 0 48.0664 13.1693 633 55.7425 807.622 440.188
827 0 48.1315 11.5932 558 56.7724 807.226 443.057
828 0 48.1221 11.3877 548 57.2883 807.505 441.327
829 0 52.0702 10.3706 540 57.1833 807.53 442.92
830 0 56.0841 11.5541 648 55.838 807.113 442.077
831 0 58.054 12.5056 726 55.5234 807.928 437.08
832 0 60.0275 13.7104 823 54.2843 806.751 437.416
833 0 58.0985 9.55274 555 59.236 807.007 435.712
834 0 64.069 10.3794 665 58.5098 808.429 433.844
835 0 65.0886 10.309 671 58.459 808.043 432.225
836 0 69.2094 13.4086 928 55.125 808.458 433.374
837 0 71.0746 11.4809 816 57.6115 808.54 431.637
838 0 73.1636 12.3695 905 57.0331 808.583 430.376
839 0 75.1075 11.2106 842 58.9252 808.228 425.83
840 1 42.112 11.2319 473 56.6829 808.772 445.793
841 0 44.0619 8.41997 371 59.2588 808.216 446.623
842 0 40.0452 9.23956 370 60.6865 808.359 442.941
843 0 46.1949 11.0618 511 58.1624 808.268 443.305
844 0 47.1068 10.784 508 59.3583 808.496 441.573
845 0 48.1339 10.3669 499 59.992 808.711 442.335
846 0 50.1871 12.0948 607 58.3097 808.83 439.952
847 0 52.1328 11.7968 615 58.3154 808.002 440.031
848 0 49.1019 11.1808 549 60.0182 807.76 439.208
849 0 54.1491 10.5819 573 60.2443 808.168 437.461
850 0 59.0963 11.2359 664 58.7319 807.533 437.152
851 0 58.0406 11.1646 648 59.5818 807.474 436.131
852 0 64.0772 12.2352 784 57.6952 807.395 436.494
853 0 66.0624 11.4286 755 58.4371 807.95 434.657
854 0 64.0693 11.9558 766 58.735 807.701 433.525
855 0 69.1548 11.0621 765 59.2235 807.488 431.605
856 0 68.101 12.6577 862 57.848 807.426 431.294
857 0 74.1993 11.0109 817 59.1946 807.289 430.381
858 0 78.0912 10.603 828 59.3841 807.139 426.139
859 0 81.2208 16.0181 1301 53.3812 807.743 429.037
860 0 84.1261 12.8141 1078 56.7885 807.457 425.183
861 1 46.0596 12.093 557 56.8133 806.984 442.86
862 0 46.0375 11.6861 538 58.158 807.141 442.078
863 0 47.019 11.1232 523 59.3671 806.987 440.109
864 0 50.0557 12.1065 606 57.6568 807.926 443.632
865 0 53.093 12.657 672 56.5536 808.521 444.284
866 0 53.0516 12.2711 651 58.5576 808.432 439.845
867 0 54.136 12.3393 668 58.482 807.951 439.204
868 0 56.2161 12.025 676 59.1598 807.994 438.439
869 0 60.0759 12.7838 768 57.6927 807.716 438.336
870 0 59.1251 13.9873 827 57.0459 807.944 438.23
871 0 61.1224 11.5015 703 60.1679 808.422 438.158
872 0 63.0585 12.8611 811 59.037 808.042 436.527
873 0 63.0873 12.0627 761 60.4901 808.242 434.18
874 0 66.0531 12.4748 824 60.7136 808.231 432.915
875 0 69.0985 12.2 843 60.8802 808.263 432.458
876 0 70.1009 11.6118 814 62.1069 808.24 430.542
877 0 76.1767 12.3791 943 60.1071 808.561 432.874
878 0 77.0827 13.0509 1006 60.3032 808.197 428.565
879 1 40.0249 10.1187 405 60.0963 809.094 449.351
880 0 42.107 11.0433 465 60.6495 807.97 446.669
881 0 44.0275 11.1294 490 60.5327 808.039 446.869
882 0 46.0512 11.4221 526 60.7776 808.538 444.774
883 0 48.068 13.3145 640 58.4609 808.614 445.567
884 0 50.1062 13.2519 664 58.6506 808.434 443.286
885 0 47.0745 10.3028 485 63.4392 808.293 441.311
886 0 53.1086 12.7286 676 59.9941 808.633 441.546
887 0 53.138 11.5736 615 61.6049 809.133 441.379
888 0 55.0424 12.6993 699 60.9013 808.205 438.454
889 0 55.0613 12.3499 680 61.8265 807.966 437.434
890 0 59.1042 12.7741 755 60.5298 807.905 439.917
891 0 61.0539 12.7101 776 61.2539 807.742 435.528
892 0 64.1143 12.2282 784 61.2781 808.037 434.467
893 0 67.0919 13.489 905 59.9768 808.024 434.087
894 0 70.1229 12.7776 896 60.3862 807.018 433.579
895 0 72.2071 12.6026 910 60.2582 807.681 432.186
896 0 76.0868 12.2886 935 61.215 807.872 428.697
897 0 77.0697 12.4044 956 61.1339 807.862 430.471
898 0 83.0935 13.8037 1147 58.898 807.703 428.793
899 1 46.026 13.0144 599 59.6144 807.544 444.311
900 0 48.0863 11.5417 555 61.7495 807.514 444.804
901 0 51.0722 13.2753 678 59.1799 807.479 444.746
902 0 50.2074 11.2932 567 62.0935 807.247 443.092
903 0 54.0761 13.1481 711 59.7243 807.734 443.797
904 0 57.1296 13.023 744 58.6599 808.008 443.435
905 0 56.2188 13.3763 752 59.9003 807.759 439.681
906 0 61.073 13.1482 803 59.4271 807.727 440.224
907 0 61.154 12.9673 793 60.5095 808.17 439.149
908 0 64.1083 14.2883 916 58.7205 807.919 437.847
909 0 67.1057 12.1003 812 61.0259 807.92 437.331
910 0 69.0519 13.3378 921 59.6004 807.872 434.026
911 0 70.0569 13.8459 970 59.0876 807.286 436.549
912 0 74.1027 12.3882 918 60.5044 806.347 433.743
913 0 76.202 14.1729 1080 58.5593 806.745 431.189
914 0 77.2541 11.9346 922 61.064 806.67 432.868
915 0 79.1018 11.3272 896 61.8214 806.731 429.863
916 1 39.1799 8.72896 342 63.2778 806.909 449.33
917 0 42.0253 11.2075 471 61.0786 807.306 446.72
918 0 44.0267 10.0848 444 61.0248 807.703 449.804
919 0 46.1409 12.1151 559 60.8444 807.535 446.685
920 0 49.104 13.0336 640 58.5859 808.009 447.936
921 0 50.2405 11.8629 596 61.4396 809.112 445.002
922 0 51.161 11.3563 581 62.2048 808.003 442.754
923 0 54.25 13.0691 709 59.567 808.843 445.37
924 0 57.1175 12.0979 691 61.1954 808.411 441.873
925 0 59.1574 12.7457 754 58.2507 808.631 442.322
926 0 58.105 12.8388 746 61.3472 808.894 439.458
927 0 61.1328 12.0066 734 61.5545 808.356 438.936
928 0 64.1701 11.6565 748 62.2019 808.127 438.206
929 0 65.1133 9.96724 649 63.5378 807.931 439.188
930 0 69.125 13.179 911 60.1712 808.18 433.894
931 0 71.1781 12.2931 875 61.2697 807.369 433.21
932 0 73.0784 12.124 886 61.4628 807.191 432.99
933 0 77.111 15.0044 1157 57.5799 806.924 432.06
934 0 79.3034 12.4711 989 61.1749 807.565 429.313
935 0 82.086 11.7681 966 62.2671 807.538 429.866
936 1 44.0784 12.6593 558 60.2921 808.016 448.145
937 0 47.1293 12.6248 595 60.6487 807.568 446.975
938 0 48.2648 12.9908 627 60.0526 807.195 445.289
939 0 51.2595 12.6416 648 59.8627 807.966 445.576
940 0 52.268 14.3108 748 57.9171 807.381 445.575
941 0 54.1725 11.3896 617 61.7099 808.147 443.308
942 0 55.1329 12.0618 665 61.2947 808.641 441.717
943 0 57.1757 11.4734 656 61.6418 808.03 441.62
944 0 57.3002 13.4729 772 59.3096 808.201 441.652
945 0 60.234 12.551 756 60.336 808.094 439.493
946 0 64.108 13.0873 839 58.7986 808.188 441.316
947 0 64.2771 11.0926 713 61.4165 808.097 439.975
948 0 67.3188 11.7501 791 60.1542 807.576 439.807
949 0 71.1225 12.8511 914 59.1619 807.961 436.668
950 0 73.1883 12.6933 929 59.8568 808.015 436.213
951 0 74.3192 12.6347 939 59.9329 808.396 435.271
952 0 79.2465 13.0227 1032 59.2171 807.863 433.081
953 0 82.3584 12.7492 1050 59.541 807.34 430.535
954 1 43.2264 8.62898 373 63.1555 807.204 452.121
955 0 45.1502 10.609 479 60.2568 807.246 451.712
956 0 50.2102 11.8103 593 59.4503 807.148 449.061
957 0 50.2128 12.5665 631 59.0634 806.878 447.426
