time division length width area intensity CMx CMy
0 0 68.1823 11.5426 787 58.878 1041.08 505.066
1 0 71.1248 11.3744 809 57.8307 1041.16 507.214
2 0 70.2262 11.1497 783 58.7101 1040.47 504.881
3 0 75.2924 12.5112 942 56.4299 1040.26 503.896
4 1 37.0291 7.23755 268 59.0485 1041.12 524.34
5 0 38.1422 7.97018 304 58.5329 1041.02 524.707
6 0 41.0959 10.0253 412 56.1165 1040.8 523.068
7 0 41.042 12.0121 493 53.7505 1039.92 525.349
8 0 42.0386 9.99082 420 55.1119 1040.25 526.15
9 0 43.1381 9.59708 414 56.2826 1040.17 525.302
10 0 43.1381 9.59708 414 127.932 1040.17 525.295
11 0 43.0808 9.74913 420 56.2595 1039.84 522.581
12 0 45.037 9.88076 445 55.382 1039.54 522.169
13 0 46.0385 9.44861 435 55.6736 1039.95 522.708
14 0 48.0314 9.99345 480 55.2792 1038.67 522.046
15 0 49.0498 11.417 560 54.0071 1038.64 520.329
16 0 51.0958 11.5861 592 53.5963 1039.13 522.48
17 0 51.0663 9.86953 504 55.7282 1039.1 522.101
18 0 53.0695 11.3625 603 54.4677 1039.64 518.449
19 0 54.0901 11.259 609 54.89 1039.22 521.066
20 0 56.1669 12.2314 687 54.0146 1038.92 518.528
21 0 56.0716 10.4509 586 55.9693 1038.42 519.287
22 0 58.15 10.6793 621 55.8583 1038.59 517.697
23 0 60.1355 10.9752 660 55.597 1038.6 517.424
24 0 63.047 10.2781 648 56.1744 1038.87 515.69
25 0 62.1266 10.0762 626 58.0048 1038.46 513.674
26 0 66.1397 12.655 837 55.1708 1038.82 511.096
27 0 67.0895 11.3729 763 56.8637 1039.24 511.942
28 0 71.1064 11.2226 798 56.886 1038.76 508.688
29 0 71.1455 9.82494 699 58.6094 1038.94 510.565
30 0 75.162 11.269 847 57.8607 1039.42 507.366
31 0 74.1579 11.0979 823 58.9453 1038.18 507.968
32 0 80.0601 12.7654 1022 57.1497 1038.73 505.751
33 0 81.1197 10.0962 819 60.177 1039.49 506.952
34 1 41.0155 9.80117 402 59.6766 1039.92 524.816
35 0 44.058 10.577 466 59.9914 1040.47 522.56
36 0 45.0725 11.2485 507 58.9606 1039.69 523.665
37 0 46.0933 9.93637 458 61.4236 1039.86 523.168
38 0 45.035 8.01599 361 64.4792 1040.38 522.083
39 0 50.0093 11.4579 573 59.8552 1040.75 519.52
40 0 51.0622 11.3195 578 60.7145 1039.83 521.654
41 0 54.1062 12.0134 650 60.1138 1039.83 518.36
42 0 54.1197 11.0865 600 61.5617 1040.24 517.828
43 0 54.0841 8.11699 439 65.1526 1040.56 516.497
44 0 59.0654 10.8693 642 61.6386 1040.51 515.97
45 0 59.0842 11.3567 671 61.1967 1040.28 516.298
46 0 61.1577 10.8735 665 61.994 1039.79 515.642
47 0 64.1279 12.9429 830 59.8855 1040.86 514.223
48 0 66.0909 11.696 773 61.2406 1041.29 512.74
49 0 66.1037 10.1053 668 64.0225 1040.19 510.735
50 1 33.0069 8.90724 294 61.7993 1040.89 529.486
51 0 34.0348 8.8439 301 63.0498 1040.69 527.827
52 0 36.019 9.21735 332 62.8313 1040.48 525.678
53 0 39.0895 8.69798 340 62.2971 1040.01 526.644
54 0 38.0698 9.32498 355 62.8084 1039.99 525.192
55 0 41.049 9.59829 394 62.3071 1040.49 525.038
56 0 43.0147 9.36889 403 62.4516 1039.96 523.973
57 0 44.036 10.8093 476 60.5567 1040.33 524.21
58 0 46.0429 9.96896 459 61.9782 1040.6 523.617
59 0 46.0706 10.1583 468 62.9701 1041.49 520.421
60 0 48.0472 11.3846 547 60.8026 1041.74 520.402
61 0 49.0597 11.5574 567 61.1781 1041.72 519.529
62 0 51.0321 11.3654 580 61.1707 1041.48 520.498
63 0 53.0268 10.391 551 62.0381 1041.55 519.713
64 0 51.0633 8.81259 450 65.0467 1041.17 518.347
65 0 57.075 11.1257 635 61.2016 1040.76 518.917
66 0 57.1062 11.2947 645 61.9287 1040.53 517.526
67 0 58.0605 10.4718 608 62.9112 1040.42 514.854
68 0 62.0603 12.9874 806 59.3387 1040.02 515.82
69 0 62.1118 10.5616 656 63.1402 1040.43 513.224
70 0 65.0853 11.2621 733 61.9618 1041.06 514.001
71 0 67.0667 11.4364 767 61.8422 1041.3 512.712
72 0 68.127 10.2896 701 62.7946 1041.1 510.506
73 0 72.1299 11.4793 828 60.465 1040.39 509.872
74 0 73.1619 10.839 793 61.8487 1040.03 508.328
75 1 37.0362 9.0452 335 61.3791 1040.23 527.624
76 0 38.0314 10.7543 409 60.1369 1040.95 525.628
77 0 39.1773 10.8481 425 59.72 1040.67 524.715
78 0 41.0224 10.4577 429 59.8974 1040.7 524.713
79 0 44.0718 10.1199 446 58.9282 1040.7 525.002
80 0 44.0092 10.8159 476 59.0525 1041.09 521.389
81 0 46.0318 10.2538 472 59.4894 1041.28 519.591
82 0 46.0627 9.20485 424 60.4906 1041.37 521.094
83 0 48.0765 9.33929 449 60.7127 1042.01 519.033
84 0 50.0464 11.0298 552 58.4312 1041.4 519.61
85 0 51.0154 9.74215 497 60.2535 1041.06 518.67
86 0 52.0877 11.5574 602 57.9336 1041.54 519.573
87 0 55.0184 9.99666 550 59.3727 1040.43 518.324
88 0 56.136 11.4721 644 58.1071 1040.69 515.09
89 0 59.0599 12.0048 709 57.1932 1040.81 515.526
90 0 59.0273 9.60573 567 60.6279 1041.04 513.868
91 0 59.0758 9.85175 582 60.6564 1041.01 514.347
92 0 62.1163 10.5769 657 59.9254 1041.42 511.951
93 0 66.0978 11.5435 763 57.9633 1041.39 514.013
94 0 67.0336 10.1293 679 59.8409 1041.23 509.826
95 0 68.119 10.0412 684 60.2924 1040.85 507.547
96 0 69.052 10.8469 749 59.6595 1041.16 507.41
97 0 74.0692 11.6243 861 57.9605 1041.2 507.034
98 0 75.1051 11.5971 871 59.2939 1041.06 504.516
99 0 78.121 10.9574 856 59.5783 1040.46 505.061
100 1 39.039 9.11907 356 59.9775 1040.67 523.34
101 0 40.0686 10.7566 431 59.2622 1040.38 523.169
102 0 42.1385 9.35011 394 60.3883 1040.69 520.7
103 0 45.0867 10.5574 476 59.271 1040.74 520.74
104 0 47.049 11.86 558 58.086 1041.02 521.039
105 0 47.0279 10.6958 503 59.658 1041.15 519.372
106 0 50.093 11.9178 597 58.1189 1040.63 518.171
107 0 50.1448 11.0081 552 60.0254 1040.95 517.944
108 0 51.1075 11.9943 613 59.1631 1040.27 516.868
109 0 53.0629 12.1177 643 59.4059 1040.53 514.7
110 0 55.0858 10.7106 590 60.8102 1041.23 517.042
111 0 54.1233 8.70235 471 63.9406 1041.27 514.955
112 0 57.1293 12.2179 698 59.7307 1040.85 511.807
113 0 58.1125 10.5829 615 62.2504 1040.73 512.07
114 0 61.1268 10.879 665 61.188 1040.51 510.624
115 0 63.1169 12.2788 775 59.7548 1040.5 508.365
116 0 63.1858 10.5245 665 62.2842 1040.98 510.868
117 0 66.1313 10.8421 717 61.5495 1041.3 508.873
118 0 67.1468 10.9462 735 62.0463 1041.61 505.797
119 0 70.1232 10.9807 770 62.2338 1041.83 505.83
120 0 71.1844 11.1963 797 62.1418 1041.57 504.068
121 0 74.112 10.0928 748 63.1444 1040.7 503.345
122 0 76.071 9.97752 759 63.527 1040.57 504.196
123 0 81.1345 11.9555 970 60.835 1040.73 501.418
124 0 83.0842 11.6869 971 61.3841 1040.1 499.182
125 0 85.0836 10.9892 935 62.2 1040.11 500.734
126 0 89.0649 13.1926 1175 59.3149 1040.49 500.787
127 0 91.1235 12.4995 1139 61.0404 1041 497.521
128 1 47.0339 10.6944 503 61.6461 1040.04 519.28
129 0 46.0669 7.7496 357 64.958 1040.9 518.126
130 0 50.0726 10.1652 509 62.1297 1041.16 517.99
131 0 53.0593 11.3081 600 60.7933 1041.06 518.463
132 0 53.0959 11.2626 598 61.6304 1040.89 516.018
133 0 55.0555 10.1171 557 62.7271 1040.97 517.882
134 0 57.0876 11.7889 673 60.6612 1041.22 515.957
135 0 57.1591 10.0596 575 63.3356 1040.9 513.104
136 0 57.0277 10.4511 596 62.9362 1041.24 513.211
137 0 58.2082 9.29423 541 64.4732 1040.76 510.211
138 0 66.0801 10.5478 697 61.726 1041.16 510.887
139 0 64.1109 8.95324 574 64.4477 1041.01 509.713
140 0 64.085 10.3925 666 63.5751 1040.8 508.336
141 0 69.0971 11.245 777 61.0399 1040.95 511.613
142 0 72.1622 9.60337 693 63.9466 1041.53 507.427
143 0 71.1003 8.87479 631 65.748 1040.92 506.599
144 0 76.1702 12.157 926 60.365 1040.78 508.261
145 0 80.1473 10.6055 850 61.4094 1041.3 508.533
146 0 80.276 11.9463 959 61.5568 1041.4 502.294
147 0 84.2069 10.5217 886 62.5643 1041.06 502.549
148 1 45.0438 10.3233 465 60.8753 1040.99 521.555
149 0 45.0751 9.89461 446 62.0987 1041.7 520.368
150 0 45.0764 9.25097 417 63.7122 1041.46 520.022
151 0 48.1219 10.224 492 62 1041.78 519.539
152 0 50.0549 10.3087 516 61.0174 1040.44 519.731
153 0 52.0734 12.0983 630 58.4587 1041.2 517.678
154 0 54.1742 11.6292 630 60.4317 1040.89 517.589
155 0 56.0857 10.6088 595 61.1227 1041.4 517.884
156 0 54.1753 10.8906 590 61.7814 1041.95 516.529
157 0 57.0711 10.2329 584 62.3031 1041.54 514.478
158 0 62.1211 10.8337 673 60.5007 1041.49 513.318
159 0 59.0335 9.87575 583 62.235 1041.15 513.681
160 0 63.044 10.5799 667 61.09 1040.93 512.03
161 0 64.1016 9.75014 625 62.4192 1040.53 510.798
162 0 65.0666 12.1875 793 58.7881 1040.8 509.514
163 0 66.0514 11.2791 745 59.5651 1040.55 509.017
164 0 68.1087 10.263 699 60.3062 1041.02 507.66
165 0 71.0839 10.6916 760 59.7092 1040.36 509.011
166 0 72.0948 11.0133 794 59.3212 1041.59 505.348
167 0 74.113 10.484 777 59.816 1041.08 505.212
168 0 77.1129 12.6438 975 57.1846 1040.92 503.333
169 0 78.071 12.0019 937 57.9787 1040.62 500.971
170 0 77.0899 10.6758 823 60.3864 1040.61 499.383
171 0 83.1302 10.5257 875 59.6971 1040.62 499.962
172 1 44.0247 9.90353 436 57.6514 1040.43 521.17
173 0 42.0723 8.98454 378 59.1825 1040.33 520.291
174 0 45.0313 10.4816 472 57.678 1040.06 517.763
175 0 49.0422 10.6847 524 56.3321 1040.65 519.231
176 0 46.0392 9.18783 423 59.3948 1041.12 517.733
177 0 49.0333 9.85046 483 58.8116 1041.67 516.493
178 0 49.0454 9.31789 457 59.7024 1042.09 518.832
179 0 52.1006 11.1899 583 57.7924 1041.15 514.528
180 0 51.0475 10.4413 533 59.212 1041.12 516.803
181 0 54.052 12.155 657 57.4581 1040.76 516.644
182 0 56.0339 10.9934 616 58.4334 1040.93 514.312
183 0 56.0393 9.761 547 60.234 1040.49 513.526
184 0 58.0404 10.7856 626 59.2045 1040.16 511.802
185 0 60.0529 10.3409 621 59.9646 1040 511.61
186 0 64.1257 12.6626 812 57.0172 1040.4 511.058
187 0 64.0846 11.2976 724 58.5166 1040.18 510.083
188 0 65.0588 10.9439 712 59.1447 1039.37 509.437
189 0 68.0922 10.7501 732 59.2691 1038.71 507.619
190 0 70.0338 10.1522 711 59.9761 1038.12 508.084
191 1 36.0533 10.1794 367 59.0054 1037.84 526.392
192 0 38.0374 9.6221 366 59.4836 1037.35 526.918
193 0 38.0446 9.85686 375 59.624 1036.91 527.101
194 0 39.0138 10.3553 404 59.7748 1037.17 524.54
195 0 38.0974 11.0769 422 60.0735 1037.64 526.04
196 0 41.0348 10.747 441 59.5601 1037.72 526.993
197 0 45.015 11.2629 507 58.8205 1037.36 524.85
198 0 45.0971 12.085 545 58.8771 1037.01 525.081
199 0 46.1256 12.596 581 58.5164 1037.17 523.628
200 0 49.0557 11.4564 562 59.8078 1037.13 524.676
201 0 49.0319 10.7277 526 60.4468 1037.69 526.175
202 0 51.057 11.3794 581 59.8451 1036.95 526.077
203 0 51.0803 11.2764 576 61.0139 1036.86 522.729
204 0 54.1445 12.1896 660 60.0591 1037.05 523.486
205 0 55.0809 11.8371 652 60.4356 1037.22 524.256
206 0 57.1336 11.7094 669 60.9133 1036.97 521.704
207 0 59.0822 12.0002 709 60.3879 1035.32 521.726
208 0 60.0527 12.7721 767 60.3142 1035.44 520.416
209 0 60.059 11.5886 696 62.056 1036.04 521.904
210 0 63.0972 12.3619 780 60.8026 1035.93 521.609
211 0 65.0801 13.2145 860 59.743 1035.6 517.851
212 0 67.0703 12.2707 823 60.6464 1035.14 520.487
213 0 69.0966 11.7951 815 61.881 1035.53 517.507
214 0 72.0508 12.0887 871 61.1998 1035.03 518.064
215 0 71.0347 11.6 824 62.6007 1034.65 515.474
216 0 74.0536 11.3701 842 62.9988 1034.75 513.61
217 0 77.0987 12.5164 965 61.6622 1034.65 509.126
218 0 78.2087 12.5945 985 62.1371 1035.13 510.516
219 1 42.0217 10.9229 459 62.6558 1034 528.259
220 0 44.0668 10.6202 468 63.4551 1034.27 526.457
221 0 45.1146 11.5484 521 62.7083 1034.22 525.653
222 0 45.0785 12.2009 550 62.7236 1033.7 526.547
223 0 47.0299 11.9498 562 63.5534 1035.11 525.66
224 0 49.0224 12.6881 622 62.7058 1034.99 523.415
225 0 50.0265 11.5938 580 64.3241 1035.01 523.257
226 0 51.0555 11.6932 597 64.8727 1034.83 520.456
227 0 52.0662 12.4265 647 64.3709 1033.74 519.249
228 0 54.1157 10.3667 561 66.6007 1033.9 519.547
229 0 56.039 10.6533 597 65.5963 1034.01 519.933
230 0 59.0368 12.3652 730 63.9342 1034.76 515.473
231 0 62.05 13.328 827 61.873 1034.35 517.129
232 0 62.0809 12.7414 791 63.7876 1035.01 515.972
233 0 64.0497 11.9438 765 64.3307 1035.6 516.918
234 0 66.1299 11.4018 754 65.7135 1035.78 513.447
235 0 66.1684 12.5286 829 64.8178 1035.69 514.183
236 0 69.047 11.8035 815 66.0233 1035.5 510.369
237 0 71.2015 12.1205 863 65.3604 1035.53 509.044
238 0 74.067 12.3267 913 64.9573 1035.81 509.952
239 0 73.0435 11.5958 847 67.0496 1036.18 506.616
240 0 78.0626 12.4772 974 66.0955 1036.38 504.231
241 0 78.0526 11.9791 935 67.2717 1035.66 503.889
242 0 83.0986 11.9136 990 66.6919 1035.55 503.693
243 0 86.0753 13.128 1130 64.9734 1035.97 501.715
244 1 41.0416 10.9645 450 65.9956 1035.89 524.007
245 0 42.0363 11.5852 487 65.5606 1035.84 523.055
246 0 42.0267 11.1596 469 65.6119 1036.32 524.898
247 0 43.0468 11.0577 476 66.6134 1036.11 524.668
248 0 46.0489 10.2283 471 67.2335 1036.68 524.926
249 0 46.0222 12.8416 591 65.154 1036.65 522.734
250 0 47.1 11.465 540 67.4315 1036.65 522.285
251 0 50.0192 12.4552 623 64.7352 1035.89 522.997
252 0 51.154 11.397 583 66.825 1036.41 521.902
253 0 52.0712 11.5035 599 66.3656 1036.69 523.419
254 0 54.1967 12.4915 677 65.4904 1036.88 520.121
255 0 57.0627 10.6024 605 66.9256 1037.33 521.676
256 0 59.0543 12.3615 730 64.9562 1036.92 520.044
257 0 61.0543 10.6135 648 66.9275 1036.93 520.313
258 0 64.0572 10.3345 662 67.293 1037.19 519.979
259 0 65.1488 11.7731 767 66.1982 1036.93 515.376
260 0 68.0385 11.6846 795 65.2956 1037.08 517.449
261 0 69.1455 10.7455 743 66.7698 1036.37 517.221
262 0 71.0779 11.2553 800 66.7638 1036.72 512.741
263 0 76.0449 11.4801 873 65.7537 1036.72 514.253
264 0 77.0596 13.522 1042 63.9117 1036.66 510.514
265 0 80.1041 13.1704 1055 64.8446 1036.9 510.576
266 1 43.016 10.531 453 63.2958 1037.01 528.698
267 0 43.0104 9.43958 406 66.0764 1036.73 527.889
268 0 44.1283 10.6961 472 64.4703 1036.83 529.826
269 0 46.031 10.5798 487 64.3121 1036.56 529.483
270 0 48.0317 10.9511 526 64.0703 1036.68 528.089
271 0 51.0457 11.9305 609 62.4056 1036.41 526.746
272 0 52.0577 11.1991 583 63.6484 1035.38 526.233
273 0 54.1545 11.5965 628 62.7755 1035.47 525.444
274 0 54.1094 12.2899 665 62.2165 1035 523.977
275 0 55.0268 10.2859 566 64 1035.19 524.495
276 0 56.1086 10.1767 571 64.4711 1035.63 523.942
277 0 59.058 11.3448 670 62.0597 1035.75 524.281
278 0 62.065 10.7146 665 63.1233 1034.89 520.269
279 0 64.1201 11.4473 734 61.4932 1034.82 522.632
280 0 66.1264 12.4761 825 60.7503 1035.04 520.084
281 0 65.0779 10.5719 688 63.5872 1035.01 519.205
282 0 69.2424 11.2359 778 63.1542 1035.23 516.211
283 0 71.1027 11.5467 821 62.7893 1035.09 513.995
284 0 74.1389 10.5613 783 62.4968 1034.82 517.663
285 0 74.1076 10.7681 798 63.0902 1034.41 511.05
286 0 78.1284 10.8795 850 62.2988 1034.24 512.802
287 0 80.1876 9.77708 784 64.185 1034.43 511.023
288 1 41.0589 8.52434 350 62.0571 1034.74 529.766
289 0 43.1534 9.52417 411 61.4428 1034 528.195
290 0 44.035 8.28885 365 62.2712 1034.32 530.364
291 0 46.0523 11.4652 528 58.4375 1034.43 528.835
292 0 45.0875 10.2246 461 59.2646 1033.91 526.716
293 0 48.0921 10.7502 517 58.2863 1033.71 527.184
294 0 49.0992 10.8759 534 58.6105 1033.76 525.146
295 0 51.112 9.99765 511 59.5773 1033.92 525.65
296 0 52.1294 10.0519 524 59.1412 1033.14 525.029
297 0 53.0895 9.04134 480 60.8958 1033.79 521.102
298 0 54.1534 9.28843 503 62.4891 1034.15 520.127
299 0 57.186 9.82758 562 61.3167 1033.56 519.589
300 0 59.0795 10.5282 622 60.574 1033.35 518.013
301 0 60.0974 9.80075 589 60.8048 1033.28 514.007
302 0 60.1707 8.42602 507 62.3531 1033.54 512.815
303 0 63.121 9.53724 602 60.309 1033.67 511.885
304 0 64.2397 10.1651 653 59.9617 1033.34 510.343
305 0 68.095 7.09303 483 63.4203 1033.62 508.273
306 0 70.1257 8.86979 622 61.6125 1034.19 511.822
307 0 72.2031 9.75028 704 61.1889 1033.35 508.338
308 0 77.1171 9.7514 752 60.9242 1033.41 507.422
309 0 81.1262 10.9459 888 59.7365 1033.45 507.605
310 1 39.1277 9.37955 367 60.2153 1033.73 527.43
311 0 41.0553 8.25716 339 61.1032 1033.53 526.41
312 0 42.0118 8.90227 374 60.7754 1033.59 525.781
313 0 46.0198 9.30034 428 60.215 1033.54 525.32
314 0 46.0958 11.8232 545 57.9339 1033.15 524.193
315 0 48.0492 10.2811 494 58.5182 1032.57 525.532
316 0 49.0503 10.3975 510 59.0157 1033.17 524.661
317 0 52.1272 10.8772 567 57.8324 1032.53 523.437
318 0 51.0536 10.1854 520 59.4231 1033.1 524.173
319 0 53.0501 12.1772 646 57.4551 1033.97 520.562
320 0 55.0939 11.3261 624 58.2869 1034.07 519.955
321 0 55.0529 10.172 560 60.0661 1034.45 521.232
322 0 59.0977 11.5571 683 58.2123 1034.36 517.974
323 0 60.0805 11.7842 708 57.9492 1033.99 517.733
324 0 61.1687 11.6726 714 58.6779 1034.26 516.297
325 0 63.0925 10.0646 635 60.6866 1034.04 515.597
326 0 65.0943 12.7968 833 57.4922 1033.57 517.244
327 0 67.0233 13.1298 880 57.75 1033.76 514.518
328 0 67.1126 10.3855 697 60.8422 1033.43 515.357
329 0 69.1425 11.6715 807 59.9244 1033.58 513.39
330 0 73.1445 11.2517 823 59.9636 1034.16 510.744
331 0 74.1555 13.5256 1003 57.4058 1034.6 509.123
332 0 76.144 10.8085 823 61.1519 1034.49 509.96
333 0 82.1335 9.58196 787 60.9911 1034 510.233
334 0 78.2477 10.0067 783 62.3806 1032.96 505.814
335 1 42.0947 9.62117 405 59.3086 1033.43 528.723
336 0 42.1319 8.56832 361 61.6593 1033.44 525.537
337 0 44.0762 10.8676 479 58.8998 1032.97 524.476
338 0 45.1668 11.2472 508 59.2303 1033.72 522.896
339 0 46.045 10.2943 474 60.6456 1033.74 524.122
340 0 48.0411 10.4078 500 59.944 1033.39 523.544
341 0 48.032 10.0766 484 60.8822 1033.69 522.777
342 0 51.0547 11.4975 587 59.138 1033.75 521.107
343 0 53.0409 11.6514 618 58.6375 1032.59 519.107
344 0 54.056 11.5436 624 58.8349 1033.52 519.944
345 0 56.0799 10.0749 565 60.3115 1032.97 521.071
346 0 58.0361 11.579 672 58.5342 1034.06 519.609
347 0 59.086 11.1702 660 59.4364 1033.93 518.344
348 0 60.033 11.7435 705 58.4326 1033.8 516.216
349 0 65.0384 10.6553 693 58.1616 1033.58 518.242
350 0 66.1018 11.0284 729 58.7682 1033.33 512.962
351 0 68.1711 13.0994 893 56.2217 1033.26 513.606
352 0 71.0421 11.5565 821 57.6261 1033.98 513.248
353 0 72.1366 12.3377 890 57.3 1033.99 509.918
354 0 75.0762 12.7337 956 56.7249 1033.49 510.592
355 0 77.1014 12.2955 948 57.0517 1033.96 510.983
356 0 79.094 10.8226 856 58.9241 1033.53 506.384
357 1 39.026 9.53211 372 58.2043 1033.89 531.277
358 0 39.0897 10.7189 419 58.6205 1033.95 525.635
359 0 42.1344 11.5108 485 57.0742 1033.41 525.907
360 0 40.0559 10.011 401 60.1746 1033.98 525.239
361 0 43.0428 10.8032 465 59.2882 1033.78 523.49
362 0 44.0563 10.5093 463 60.1879 1034.37 523.78
363 0 47.0818 11.9579 563 57.8437 1033.72 524.048
364 0 49.1208 11.2783 554 58.9838 1034.19 521.901
365 0 48.0625 10.736 516 59.8992 1033.82 522.219
366 0 48.0506 11.7792 566 59.576 1033.7 522.097
367 0 51.0621 12.4554 636 58.7264 1033.57 518.77
368 0 53.0167 11.8453 628 58.5669 1033.51 521.025
369 0 53.0807 11.3789 604 60.755 1033.91 517.808
370 0 57.1936 11.1901 640 59.7141 1033.53 520.405
371 0 57.1927 11.435 654 60.2538 1032.87 517.58
372 0 59.0428 11.6864 690 59.8797 1033.28 519.146
373 0 60.0689 12.6521 760 59.1197 1033.99 518.034
374 0 65.0898 12.5519 817 59.1065 1034.8 516.652
375 0 66.1031 11.0736 732 61.1803 1033.78 515.064
376 0 66.1475 10.9452 724 62.0332 1034.01 515.305
377 0 71.1496 14.1392 1006 58.2465 1034.68 510.46
378 0 72.0498 13.3241 960 59.9375 1034.88 509.93
379 0 74.0993 12.6452 937 60.9498 1034.51 508.747
380 1 36.0686 10.286 371 62.3747 1034.53 528.065
381 0 37.0117 10.4562 387 62.1912 1034.03 529.09
382 0 39.0918 10.0277 392 62.824 1033.92 528.066
383 0 41.0309 13.2827 545 59.0862 1034.01 527.675
384 0 43.0656 10.5188 453 62.7219 1033.79 526.497
385 0 40.0519 11.4851 460 63.5913 1033.24 525.737
386 0 43.0452 12.9863 559 61.0948 1032.78 525.599
387 0 45.0377 13.744 619 60.622 1033.13 523.569
388 0 47.0283 11.4399 538 63.5372 1033.45 524.56
389 0 48.0528 10.9463 526 63.8099 1034.16 524.049
390 0 51.0702 13.3346 681 60.6667 1033.48 521.791
391 0 52.0294 12.0893 629 62.4754 1033.39 521.679
392 0 52.0687 11.0239 574 64.6028 1033.44 520.448
393 0 53.0138 12.7891 678 62.3053 1033.48 521.478
394 0 56.0805 11.537 647 63.7883 1034.39 520.094
395 0 58.0862 12.9463 752 62.2753 1034.56 519.848
396 0 58.0798 11.6219 675 64.88 1034.51 517.384
397 0 60.0408 12.9912 780 63.2667 1034.42 516.012
398 0 63.0463 13.0222 821 62.4178 1033.57 518.363
399 0 62.1109 11.4473 711 65.6357 1033.75 515.789
400 0 67.0471 11.2458 754 64.5703 1033.52 517.788
401 0 67.0723 11.7932 791 64.5436 1033.92 515.588
402 0 71.1579 12.8447 914 63.0974 1034.36 513.775
403 0 74.0378 12.6692 938 62.7292 1033.88 513.77
404 1 39.1045 10.766 421 63.038 1033.81 529.931
405 0 39.0904 11.0257 431 62.638 1033.6 530.346
406 0 42.0103 11.3306 476 62.3971 1033.89 529.122
407 0 42.0461 11.0355 464 63.1056 1033.86 527.884
408 0 42.0573 11.1514 469 63.4904 1033.19 526.068
409 0 46.0176 12.7342 586 60.4898 1033.32 526.314
410 0 46.1026 12.7108 586 61.3771 1033.89 524.785
411 0 47.043 10.9049 513 63.9474 1033.91 524.368
412 0 50.0671 12.3035 616 61.7565 1033.48 523.192
413 0 52.0764 11.2719 587 62.7973 1033.67 525.414
414 0 54.1321 13.0052 704 60.4375 1034.07 523.702
415 0 55.0897 11.8897 655 62.084 1034.17 523.154
416 0 56.1017 10.8731 610 63.1033 1033.41 523.023
417 0 57.0285 11.4504 653 61.879 1032.46 523.283
418 0 60.0976 13.3616 803 60.0747 1032.36 520.352
419 0 60.0367 12.076 725 62.3945 1032.94 516.993
420 0 64.0451 12.8347 822 60.2494 1032.86 518.395
421 0 65.0764 11.3559 739 62.2165 1032.97 516.317
422 0 65.3271 11.8787 776 61.6198 1032.68 515.871
423 0 69.085 13.6209 941 59.2115 1033.12 513.437
424 0 72.1421 12.1981 880 60.9455 1033.44 512.318
425 0 73.1263 12.0203 879 61.1763 1033.25 510.842
426 0 74.1135 12.265 909 61.4543 1033.56 511.559
427 0 77.1746 10.4827 809 63.5253 1033.27 507.58
428 0 79.0757 12.7599 1009 60.8206 1034.13 506.379
429 0 83.2423 13.0342 1085 59.8839 1033.69 506.524
430 1 40.1206 10.8672 436 61.0092 1033.91 528.583
431 0 41.0929 10.0747 414 62.6836 1033.91 527.534
432 0 42.1458 12.2432 516 60.2868 1033.89 526.674
433 0 43.0721 10.7494 463 61.8294 1033.2 525.981
434 0 44.0792 9.34681 412 63.7816 1033.74 524.027
435 0 48.0591 10.1542 488 62.5861 1033.08 524.07
436 0 46.0209 10.0824 464 63.3211 1033.15 524.668
437 0 48.0518 10.9673 527 62.4592 1033.72 523.844
438 0 51.1062 12.7186 650 60.0923 1033.91 520.931
439 0 51.1812 11.0197 564 62.0319 1034.33 522.168
440 0 54.1272 11.824 640 60.425 1033.75 523.328
441 0 55.0962 13.177 726 59.5441 1033.91 521.745
442 0 56.0239 10.7811 604 62.6606 1033.05 520.96
443 0 59.0375 13.2966 785 58.9287 1032.99 521.141
444 0 59.0401 14.7188 869 48.9275 1032.84 520.784
445 0 60.0342 11.71 703 61.6927 1032.7 517.344
446 0 63.0692 11.1782 705 62.3929 1033.21 515.496
447 0 63.0344 12.3425 778 61.6208 1033.81 516.59
448 0 66.0905 10.6975 707 63.2914 1033.86 513.325
449 0 70.1023 12.8812 903 60.4884 1034 512.674
450 0 72.0747 11.1135 801 62.1573 1034.1 512.37
451 0 74.0781 10.9614 812 62.5098 1033.73 512.685
452 0 77.0739 11.3398 874 62.5275 1033.84 508.919
453 1 41.0132 11.7523 482 59.917 1033.99 529.556
454 0 41.0491 10.1829 418 62.1388 1033.83 527.404
455 0 40.0363 10.1408 406 62.7217 1033.65 527.857
456 0 46.0395 11.4032 525 59.9029 1033.7 528.421
457 0 45.023 10.8611 489 61.5296 1034.04 524.626
458 0 49.0262 12.4219 609 58.248 1033.63 525.084
459 0 45.0282 8.55021 385 64.5532 1033.91 524.19
460 0 47.0416 10.1187 476 62.3908 1033.73 522.256
461 0 51.0291 11.8952 607 59.972 1033.86 523.315
462 0 51.0658 11.0446 564 60.8067 1032.9 523.317
463 0 54.0185 11.6071 627 59.5375 1032.92 522.268
464 0 56.0423 11.4735 643 59.9938 1033.19 520.465
465 0 58.0375 12.3885 719 58.8846 1033.12 520.093
466 0 58.1152 9.63604 560 61.5143 1033.16 520.516
467 0 61.0546 10.3186 630 61.5333 1033.88 516.113
468 0 62.0867 11.6772 725 60.1352 1032.56 516.888
469 0 63.0989 8.46291 534 63.4026 1032.78 517.243
470 0 67.0966 12.3404 828 59.035 1033.06 514.611
471 0 71.1838 12.2781 874 59.4622 1032.93 513.638
472 0 74.0338 10.8869 806 61.0819 1032.31 513.34
473 1 38.037 11.7254 446 58.7265 1032.99 529.729
474 0 38.0883 10.6332 405 59.9185 1032.53 530.267
475 0 40.0505 11.5604 463 59.3564 1032.21 529.708
476 0 41.0437 12.2552 503 58.8608 1032.91 528.916
477 0 44.0606 13.3679 589 57.438 1032.85 529.278
478 0 42.041 11.8456 498 60.2872 1032.26 528.984
479 0 46.101 12.9064 595 58.8807 1032.88 526.182
480 0 47.0516 10.7542 506 62.3103 1032.76 525.565
481 0 48.0752 10.6916 514 62.5409 1033.16 524.302
482 0 50.0624 12.045 603 61.2355 1033.08 524.902
483 0 51.023 10.9362 558 62.9713 1032.6 521.978
484 0 54.0556 11.9322 645 60.9147 1033.21 524.767
485 0 53.0657 12.3243 654 61.2997 1033.58 522.575
486 0 56.0303 13.8318 775 59.6232 1033.04 520.294
487 0 57.0586 11.532 658 62.7006 1033.57 519.233
488 0 60.0602 14.6686 881 58.7435 1033.94 518.63
489 0 61.1413 12.6919 776 61.0747 1033.49 518.254
490 0 61.0344 11.0102 672 63.5997 1032.85 518.932
491 0 65.0913 12.4287 809 61.6638 1032.93 516.633
492 0 69.1523 11.5542 799 61.9312 1033.83 517.824
493 0 70.1259 11.3225 794 63.1385 1033.31 511.844
494 0 72.1513 10.478 756 64.0185 1033.08 513.995
495 0 74.0973 10.8101 801 63.7366 1033.14 509.502
496 0 78.1034 11.9713 935 62.323 1033.5 509.52
497 0 79.05 11.5749 915 63.0831 1033.23 506.815
498 1 41.1077 8.4899 349 63.7765 1033.78 526.874
499 0 44.0259 10.6755 470 60.5745 1033.64 527.923
500 0 44.1458 10.8731 480 61.7312 1032.89 527.19
501 0 46.0406 12.0111 553 60.34 1032.66 526.04
502 0 49.0999 11.3035 555 60.7225 1033.01 526.982
503 0 50.0147 10.9968 550 61.2218 1032.12 522.487
504 0 51.1462 11.3791 582 61.4261 1032.8 522.746
505 0 53.0832 12.4145 659 59.9302 1032.95 522.055
506 0 53.1494 11.59 616 61.5698 1032.75 520.896
507 0 56.0365 11.3854 638 61.4154 1032.16 521.096
508 0 58.0901 12.9454 752 59.3989 1032.02 518.737
509 0 60.1027 11.7965 709 61.1749 1032.09 516.896
510 0 60.0919 10.3841 624 63.0913 1032.01 518.231
511 0 62.0721 11.8733 737 61.8562 1031.44 515.03
512 0 64.0516 10.6321 681 62.6755 1031.54 514.408
513 0 65.0458 10.4849 682 62.4414 1032.36 513.198
514 0 67.096 10.1645 682 62.8534 1032.23 515.114
515 0 71.094 13.236 941 59.5856 1032.76 512.117
516 0 72.0674 9.94902 717 62.8745 1032.65 512.915
517 0 75.0921 12.0385 904 60.9524 1032.9 509.863
518 0 77.0751 11.1969 863 62.2433 1032.75 507.815
519 0 82.1475 11.5767 951 61.1577 1032.9 507.62
520 0 86.0786 12.8487 1106 59.2134 1032.24 507.017
521 1 45.0387 10.9905 495 59.6748 1032.11 526.052
522 0 47.0203 10.9102 513 59.9825 1032.11 525.723
523 0 45.0629 10.0526 453 61.6689 1031.84 524.797
524 0 48.0406 10.9907 528 60.4394 1032.22 523.915
525 0 50.0765 11.2029 561 59.9964 1032.12 525.002
526 0 51.0769 11.5904 592 60.3142 1031.81 523.715
527 0 53.1418 11.0836 589 60.4092 1031.86 525.514
528 0 54.0358 12.0106 649 59.6857 1031.87 521.795
529 0 56.1304 10.9923 617 60.859 1032.11 520.514
530 0 57.124 14.0921 805 57.718 1032.15 519.514
531 0 62.0514 13.0537 810 58.0296 1032.87 518.688
532 0 62.0393 11.8957 738 59.7073 1032.55 517.833
533 0 65.1652 12.6294 823 58.4143 1032.17 518.718
534 0 67.0461 11.425 766 59.9334 1031.89 513.898
535 0 68.0593 9.57988 652 62.0199 1031.58 512.92
536 0 71.151 10.9345 778 60.7764 1032.4 511.107
537 0 74.0645 9.99129 740 60.8257 1032.03 512.488
538 0 79.0995 11.593 917 59.1352 1031.96 510.323
539 1 38.0336 8.57137 326 59.7423 1032.36 530.5
540 0 41.0179 10.9708 450 57.5333 1032.27 529.48
541 0 44.0563 11.8031 520 57.0942 1032.15 527.071
542 0 46.0191 12.0385 554 56.7094 1032.82 527.787
543 0 45.0589 10.3642 467 59.1499 1032.43 526.48
544 0 46.0486 10.9232 503 58.8588 1032.34 525.877
545 0 49.0189 11.9546 586 57.0734 1032.87 526.258
546 0 51.056 12.1631 621 58.599 1032.12 526.045
547 0 52.0937 11.8632 618 58.9272 1032.67 525.146
548 0 52.039 11.0494 575 60.4904 1032.22 521.922
549 0 53.0412 12.2546 650 58.5969 1031.91 523.497
550 0 57.0648 12.0915 690 58.5174 1031.97 522.481
551 0 58.0625 11.7632 683 58.9063 1032.15 523.1
552 0 59.2133 10.5888 627 60.7113 1031.81 520.463
553 0 61.1752 11.8349 724 58.8301 1031.55 520.558
554 0 65.1134 12.2863 800 57.9288 1032.42 517.959
555 0 65.1424 12.6032 821 57.4957 1032.45 518.822
556 0 68.1148 11.6715 795 58.034 1032.62 518.565
557 0 72.0708 12.4461 897 57.0134 1032.79 518.255
558 0 72.1391 12.06 870 57.8299 1032.49 517.114
559 1 36.0162 10.1343 365 58.1315 1032.97 532.548
560 0 38.0555 8.75039 333 60.2943 1032.57 530.309
561 0 41.039 8.91835 366 58.5656 1032.36 533.142
562 0 40.0576 9.11188 365 60.1863 1032.57 530.016
563 0 43.0378 10.2236 440 59.6045 1032.9 528.952
564 0 46.0398 11.2946 520 57.5808 1033.11 530.563
565 0 43.051 11.4051 491 58.8086 1032.89 528.096
566 0 45.0204 9.95104 448 60.3705 1032.38 526.721
567 0 48.1329 10.7203 516 58.905 1032.52 526.417
568 0 49.088 10.2877 505 59.3762 1031.94 524.069
569 0 50.0627 11.4257 572 57.7395 1032.02 525.297
570 0 52.0366 11.0883 577 58.3744 1032.32 524.47
571 0 53.0222 11.9384 633 57.9352 1032.47 521.531
572 0 54.2468 10.7656 584 59.1284 1032.44 521.317
573 0 56.0458 10.6877 599 59.0718 1032.86 522.845
574 0 57.0574 10.6559 608 59.4309 1032.32 520.215
575 0 60.0516 10.9239 656 59.125 1033.05 520.017
576 0 61.0693 12.1501 742 58.1038 1032.69 517.388
577 0 64.0589 12.2544 785 57.0611 1032.63 520.264
578 0 64.1524 9.35273 600 60.805 1033.7 518.132
579 0 65.0857 11.2774 734 58.8774 1033.27 517.255
580 0 67.1495 9.91817 666 59.952 1033.53 516.664
581 0 71.0669 10.2016 725 59.2124 1033.89 515.822
582 0 73.1253 13.7435 1005 55.1751 1033.43 512.576
583 0 76.1727 9.41282 717 59.4826 1033.41 511.565
584 0 78.1709 12.268 959 56.6726 1034.2 508.293
585 0 80.1581 12.1884 977 57.1822 1033.14 507.274
586 0 81.0909 10.0504 815 59.216 1033.74 508.358
587 1 43.0201 10.251 441 57.6984 1032.78 528.912
588 0 44.059 11.5981 511 56.3679 1033.52 526.589
589 0 45.042 11.3228 510 58.4608 1033.85 524.733
590 0 44.0292 10.6066 467 59 1033.11 524.951
591 0 50.0558 11.687 585 57.135 1033.09 523.841
592 0 50.0795 11.7813 590 57.4068 1033.17 524.375
593 0 52.0413 12.2019 635 56.8913 1032.61 524.961
594 0 52.0349 11.3386 590 58.6136 1033.09 520.815
595 0 54.0814 10.9095 590 58.8864 1033.14 523.371
596 0 55.0674 13.0386 718 57.1212 1032.4 520.189
597 0 57.0578 11.3569 648 58.8133 1033.46 521.909
598 0 59.0725 11.6467 688 59.0218 1033.42 518.74
599 0 61.0245 11.7658 718 58.8203 1033.83 516.749
600 0 65.0751 12.4625 811 57.4994 1033.82 518.39
601 0 65.1152 14.3284 933 56.2937 1033.3 516.418
602 0 66.0614 10.8081 714 60.8333 1033.16 514.66
603 0 68.0565 12.2104 831 59.1107 1033.5 512.688
604 0 71.1616 11.5371 821 59.3386 1032.79 513.395
605 0 73.0556 10.7726 787 60.7535 1033.28 510.418
606 0 75.039 11.3008 848 60.1934 1033.14 511.439
607 0 77.0574 11.2384 866 60.8303 1033.42 508.971
608 0 81.1748 12.7379 1034 58.7041 1033.73 509.7
609 1 43.0467 10.4073 448 60.3259 1033.65 527.754
610 0 44.1576 10.1002 446 62 1033.68 524.128
611 0 46.0211 11.5599 532 60.406 1032.98 523.543
612 0 48.0536 12.5693 604 58.7351 1033.45 524.717
613 0 49.0283 12.707 623 59.7223 1033.38 522.77
614 0 51.0722 11.3369 579 61.8946 1033.99 522.37
615 0 52.0909 10.8464 565 62.6336 1033.86 520.954
616 0 52.1174 12.5294 653 60.66 1033.69 519.879
617 0 54.1032 12.4022 671 61.4978 1033.15 519.69
618 0 55.0758 12.6553 697 61.1966 1032.3 517.281
619 0 57.1272 12.866 735 61.0844 1032.96 517.853
620 0 57.0452 12.1483 693 62.3319 1033.05 518.931
621 0 64.1453 13.6409 875 59.4034 1032.23 516.563
622 0 63.0325 12.5967 794 61.5239 1032.28 517.27
623 0 64.0623 12.5503 804 61.9229 1032.37 513.307
624 0 69.0844 12.5354 866 61.5658 1033.4 513.072
625 0 70.1504 11.6749 819 62.7766 1033.67 513.011
626 0 72.0581 13.2393 954 60.6866 1033.48 511.723
627 0 74.0736 14.7286 1091 59.5142 1033.58 509.756
628 1 37.1002 11.1051 412 62.8325 1032.88 528.532
629 0 38.0485 12.4578 474 61.8354 1033.04 528.135
630 0 39.0303 10.5815 413 63.937 1033.26 529.075
631 0 40.0263 11.4924 460 63.0674 1032.61 527.02
632 0 43.1098 13.0597 563 61.1972 1032.85 526.639
633 0 43.0509 12.2646 528 62.5398 1032.92 527.337
634 0 45.0289 11.8591 534 62.8146 1032.74 525.725
635 0 47.0286 11.9927 564 63.2606 1033.14 524.069
636 0 50.0396 13.5493 678 60.938 1032.65 521.83
637 0 48.0323 12.3459 593 63.0691 1032.73 521.612
638 0 51.0643 13.4732 688 61.2965 1032.44 521.728
639 0 54.2721 13.377 726 61.0138 1033.13 520.227
640 0 54.0808 12.7587 690 62.0768 1032.76 518.793
641 0 56.0778 12.447 698 62.788 1033.03 518.158
642 0 59.057 12.1408 717 62.8271 1033.09 518.37
643 0 60.1961 12.6088 759 62.3465 1033.57 515.833
644 0 62.1218 13.6023 845 61.2568 1033.43 516.149
645 0 65.0818 12.9683 844 61.481 1032.85 515.467
646 0 67.0752 13.3432 895 61.0994 1032.07 513.672
647 0 66.0398 11.0994 733 64.5744 1032.61 511.812
648 0 70.0594 12.7749 895 62.3006 1032.53 510.642
649 0 73.1628 12.6567 926 62.2451 1032.09 509.16
650 0 78.2094 14.1159 1104 59.7772 1033.31 511.837
651 1 39.0593 13.4667 526 60.3346 1033.38 528.285
652 0 37.0525 12.1989 452 62.4912 1033.02 527.073
653 0 40.1335 12.7076 510 61.2529 1033.47 527.918
654 0 42.1666 12.0949 510 61.5451 1032.78 527.051
655 0 42.039 12.5835 529 61.7202 1032.53 527.11
656 0 44.1161 12.7391 562 61.5445 1033.04 526.27
657 0 46.0476 14.1375 651 60.2151 1032.71 523.45
658 0 46.0639 11.7229 540 63.7167 1033.27 522.567
659 0 47.0697 11.1962 527 64.7154 1033.36 522.169
660 0 50.0483 12.5878 630 62.3936 1032.56 521.673
661 0 51.1192 14.2021 726 60.5386 1032.57 521.983
662 0 52.1437 10.7587 561 64.0677 1032.61 520.61
663 0 53.237 12.2471 652 63.5675 1032.63 517.864
664 0 55.0774 12.201 672 62.7946 1032.15 515.865
665 0 56.0996 12.353 693 62.961 1032.7 516.574
666 0 59.163 12.2374 724 62.9461 1032.86 515.349
667 0 61.1218 11.8779 726 63.5661 1032.38 514.694
668 0 63.0594 12.9719 818 61.8851 1032.72 518.095
669 0 65.1591 11.5563 753 64.1142 1033.02 515.722
670 0 66.2394 13.6324 903 62.4441 1032.8 513.755
671 0 70.1185 12.0938 848 62.7924 1033.85 517.568
672 0 72.1256 12.2564 884 63.4344 1033.83 512.371
673 0 74.1985 12.9383 960 63.1854 1033.59 510.355
674 0 76.0917 12.8792 980 63.0816 1032.92 509.852
675 0 80.2509 13.0715 1049 62.9905 1033.52 507.332
676 0 81.0663 13.6802 1109 63.1145 1032.86 507.032
677 0 83.0751 14.3846 1195 62.5699 1032.51 505.172
678 0 86.3572 13.56 1171 63.0948 1032.57 505.681
679 0 88.068 14.1255 1244 63.0418 1033.15 502.459
680 0 91.1737 14.412 1314 62.6271 1033.11 501.276
681 0 93.0806 12.8168 1193 64.9405 1033.5 499.589
682 0 95.2473 12.9347 1232 64.9164 1033.81 499.94
683 0 99.2123 13.5669 1346 64.3046 1033.59 496.492
684 1 53.2156 10.8427 577 65.2305 1034.33 520.34
685 0 51.086 11.8624 606 65.2657 1033.4 518.663
686 0 54.0356 13.8797 750 63.012 1033.07 517.616
687 0 57.2743 12.8155 734 64.1458 1032.82 518.616
688 0 59.0379 13.5167 798 62.9586 1033.19 518.767
689 0 61.2231 12.5116 766 64.0614 1033.41 519.343
690 0 63.0783 13.6338 860 63.1698 1033.33 517.086
691 0 64.0354 11.072 709 66.0508 1033.78 517.217
692 0 66.0798 12.6362 835 64.3485 1033.69 515.177
693 0 68.1091 12.7443 868 64.4044 1033.85 514.195
694 0 72.1378 13.4326 969 63.7688 1034.26 511.594
695 0 74.0493 12.8968 955 64.3183 1033.5 509.916
696 0 78.0607 14.8859 1162 62.2177 1033.85 510.509
697 0 79.0682 13.0394 1031 65.2648 1033.44 508.532
698 0 79.262 12.8309 1017 65.997 1034.03 508.137
699 0 85.0374 12.3122 1047 66.3906 1033.76 506.307
700 0 89.1176 15.0812 1344 62.5484 1033.65 505.844
701 1 46.077 10.3956 479 66.2902 1034.49 527.209
702 0 47.0413 12.8185 603 64.6484 1033.7 526.015
703 0 49.034 13.46 660 63.7091 1033.95 523.797
704 0 50.0869 12.5582 629 64.1685 1033.63 524.862
705 0 48.0638 11.0686 532 67.9154 1033.86 522.038
706 0 53.075 12.9439 687 64.7089 1033.24 521.574
707 0 55.0424 12.5176 689 64.8113 1033.55 521.308
708 0 55.0424 12.0453 663 66.4012 1034.18 520.692
709 0 58.0242 13.322 773 63.903 1034.26 520.877
710 0 60.0781 13.7821 828 64.2319 1034.18 518.679
711 0 62.0677 12.3575 767 66.3559 1034.08 517.834
712 0 67.079 13.0592 876 64.968 1033.96 516.272
713 0 67.1171 14.3331 962 64.0988 1033.84 515.42
714 0 70.1234 12.8773 903 66.3477 1033.4 512.608
715 0 73.1623 13.4495 984 65.1839 1033.35 513.249
716 0 74.0809 13.6742 1013 65.2211 1033.88 512.274
717 0 78.2026 13.1326 1027 65.8647 1033.08 511.007
718 1 41.0965 12.6045 518 63.7568 1032.94 529.848
719 0 40.0575 11.5084 461 66.8178 1032.33 527.913
720 0 40.0322 11.3159 453 66.9735 1033.4 529.024
721 0 43.0313 11.3406 488 67.0594 1033.12 526.225
722 0 44.034 11.0369 486 67.642 1034.03 525.57
723 0 45.0737 12.6681 571 65.4028 1032.62 526.177
724 0 46.0595 11.0075 507 67.1144 1033.18 526.006
725 0 50.1091 12.373 620 65.1436 1032.61 525.618
726 0 50.1769 12.7748 641 65.5413 1032.43 522.445
727 0 50.0765 11.2029 561 67.8752 1033.29 523.157
728 0 54.0369 11.8253 639 66.205 1033.6 522.628
729 0 55.051 12.0615 664 66.3419 1033.66 521.232
730 0 58.0362 13.5605 787 64.5578 1033.03 518.456
731 0 57.0464 11.6221 663 67.3544 1033.04 519.148
732 0 63.089 13.5206 853 63.8617 1032.97 520.396
733 0 63.0571 13.9715 881 64.067 1033.56 519.443
734 0 67.0335 12.173 816 65.549 1033.85 518.094
735 0 66.0803 12.4545 823 66.2151 1032.79 513.917
736 0 67.0756 11.1963 751 67.8083 1032.4 515.249
737 1 38.0212 12.0459 458 64.6485 1032.54 529.074
738 0 38.0761 11.0305 420 65.2048 1033.12 530.645
739 0 42.094 11.9019 501 64.99 1033.16 528.262
740 0 42.0385 12.2983 517 65.2166 1033.09 527.139
741 0 43.0315 12.4792 537 64.0968 1033.15 528.594
742 0 44.0668 12.776 563 64.7549 1032.89 526.773
743 0 45.0837 12.1552 548 65.1478 1032.73 525.294
744 0 47.0805 12.7866 602 64.4884 1033.09 524.445
745 0 50.0524 12.4469 623 64.3981 1033.65 523.65
746 0 51.0533 13.006 664 63.5542 1033.26 522.86
747 0 51.0589 12.8675 657 64.5038 1033.1 521.974
748 0 54.1273 12.7477 690 63.8246 1032.83 521.684
749 0 56.0838 13.0697 733 63.4829 1033.11 519.497
750 0 58.0567 11.0582 642 65.4657 1033.02 520.305
751 0 59.0609 11.9707 707 64.2277 1031.84 517.495
752 0 60.0355 12.8591 772 63.794 1032.78 515.061
753 0 61.1344 11.1067 679 65.7437 1032.86 515.999
754 0 64.0878 11.6403 746 64.8405 1032.5 517.29
755 0 67.0758 11.8224 793 64.2005 1033.47 514.803
756 0 70.1916 11.4686 805 64.2137 1032.75 512.918
757 0 72.1475 11.823 853 63.1864 1032.92 514.468
758 0 76.1722 11.5922 883 63.8211 1032.68 511.51
759 1 39.1636 9.01346 353 64.085 1033.41 529.459
760 0 39.0154 10.3292 403 63.8139 1033.37 528.881
761 0 39.0426 11.5259 450 62.4489 1033.95 527.629
762 0 41.1261 13.0817 538 60.0651 1033.3 527.452
763 0 46.1226 11.8163 545 61.1816 1033.61 525.229
764 0 45.0771 11.8907 536 61.6586 1033.51 523.836
765 0 47.0369 10.0559 473 64.1057 1033.4 523.784
766 0 48.0761 10.733 516 62.7481 1032.9 524.812
767 0 48.1785 9.71387 468 64.2521 1032.77 524.241
768 0 51.1173 12.4029 634 60.9274 1032.62 524.025
769 0 53.0308 11.3896 604 61.9934 1032.48 523.95
770 0 55.1461 12.7117 701 60.6605 1032.62 521.401
771 0 56.0782 12.3756 694 61.1772 1033.08 521.746
772 0 59.1895 12.1981 722 61.2687 1032.75 518.485
773 0 61.122 9.55466 584 63.6438 1033.4 519.529
774 0 64.0697 13.6102 872 59.4369 1032.91 517.06
775 0 65.0672 12.0798 786 61.2417 1032.14 515.103
776 0 66.0437 10.2356 676 63.145 1032.21 516.92
777 0 70.1435 12.6883 890 60.691 1032.24 513.093
778 1 36.1025 11.9936 433 57.9192 1032.83 532.319
779 0 36.0537 11.5106 415 59.5446 1032.65 532.039
780 0 40.0971 10.9734 440 60.6818 1032.96 529.666
781 0 38.0646 10.4296 397 61.9144 1032.34 530.224
782 0 39.0827 11.3094 442 61.1878 1032.18 528.434
783 0 40.039 12.4629 499 59.2846 1033.14 529.707
784 0 43.189 12.6653 547 59.2797 1032.8 527.479
785 0 39.1049 9.38501 367 63.7875 1032.58 526.191
786 0 45.0848 11.8887 536 60.209 1032.96 525.067
787 0 46.0307 11.9051 548 60.4726 1033.01 526.203
788 0 48.0359 10.6795 513 62.002 1032.63 523.002
789 0 49.0126 11.7113 574 60.878 1032.54 523.291
790 0 50.0778 12.4207 622 59.6688 1032.46 524.492
791 0 51.0788 12.2556 626 60.8626 1032.47 522.673
792 0 54.087 12.6463 684 60.0804 1032.08 521.206
793 0 54.0746 12.4273 672 60.6964 1031.98 521.446
794 0 57.0421 13.1657 751 59.2983 1032.38 520.204
795 0 57.0865 13.4007 765 59.8876 1032.22 518.516
796 0 60.0403 12.0252 722 61.1427 1032.38 518.429
797 0 61.0884 12.9157 789 60.5995 1032.24 516.698
798 0 61.1493 13.3117 814 60.4803 1033.36 515.295
799 0 65.1018 12.2424 797 60.793 1033.14 515.008
800 0 66.1272 12.9901 859 60.1956 1032.31 514.13
801 0 68.0809 12.6614 862 60.9443 1032.72 512.811
802 0 73.0979 13.3383 975 59.3251 1032.23 512.985
803 0 74.0985 11.6197 861 61.6806 1032.42 509.662
804 0 76.0865 12.4332 946 60.6395 1032.78 512.514
805 0 77.0263 10.9054 840 62.8881 1033.22 508.483
806 1 41.041 10.4286 428 61.3505 1033.69 526.794
807 0 43.1226 11.8267 510 58.3098 1032.92 529.816
808 0 43.0236 10.7615 463 59.6652 1032.73 529.201
809 0 43.1506 11.6105 501 60.1816 1032.57 527.908
810 0 44.0593 11.303 498 60.2651 1032.54 526.984
811 0 47.0757 13.149 619 58.349 1033.49 525.866
812 0 46.1405 11.3783 525 61.6038 1034 523.107
813 0 50.1117 12.3923 621 59.1691 1033.85 524.654
814 0 51.2065 13.0257 667 58.7676 1033.43 522.81
815 0 52.0445 11.74 611 60.8216 1033.32 520.355
816 0 55.1054 13.1566 725 59.3793 1032.74 520.112
817 0 53.0495 11.8003 626 61.5735 1033.01 521.126
818 0 58.1059 12.0126 698 60.4914 1033.11 519.897
819 0 58.0383 12.6296 733 60.4188 1032.39 520.217
820 0 63.122 12.4838 788 60.1523 1033.1 518.322
821 0 63.1524 11.7969 745 61.251 1033.62 517.154
822 0 65.091 13.6732 890 59.3472 1032.93 516.724
823 0 68.2512 13.2159 902 60.3625 1032.61 513.034
824 0 70.0293 11.7665 824 62.142 1032.52 511.729
825 0 71.061 10.3714 737 64.038 1031.61 511.422
826 0 75.045 11.713 879 62.0364 1031.74 511.291
827 0 77.0995 12.218 942 61.6072 1031.37 508.485
828 0 79.0979 12.3265 975 61.9251 1032.2 509.977
829 1 39.0744 11.5677 452 60.2987 1032.58 529.635
830 0 41.094 10.9018 448 60.7812 1032.99 529.319
831 0 42.0307 10.992 462 60.9307 1033.1 528.838
832 0 43.0873 10.9313 471 61.0191 1032.99 528.242
833 0 43.0757 10.9574 472 61.589 1032.79 528.316
834 0 46.0828 11.0019 507 61.3945 1033.13 526.028
835 0 50.1485 11.3662 570 60.7474 1032.59 525.195
836 0 49.0385 11.6847 573 61.0262 1032.59 524.803
837 0 50.0382 10.9317 547 60.9177 1032.89 526.512
838 0 51.0623 12.1812 622 60.9228 1032.65 521.535
839 0 55.1172 13.9884 771 57.7626 1032.74 522.219
840 0 57.0861 12.7001 725 58.8097 1032.1 523.759
841 0 56.0365 13.277 744 59.1936 1032.07 520.328
842 0 57.0553 12.6719 723 60.1867 1032.7 519.697
843 0 60.2012 12.7904 770 60.0792 1032.78 518.096
844 0 63.0843 12.9509 817 59.437 1032.98 517.092
845 0 62.1346 12.8431 798 59.4862 1032.71 520.114
846 0 62.0794 10.245 636 62.9434 1032.76 516.733
847 0 65.0394 11.2701 733 61.9018 1033.07 514.136
848 0 66.129 11.6137 768 61.3893 1032.47 516.833
849 0 68.2225 11.0521 754 62.0066 1032.2 515.629
850 0 73.1209 11.3784 832 61.6346 1032.69 512.787
851 0 75.099 11.7711 884 61.4004 1032.94 513.489
852 0 76.2826 10.4087 794 62.9093 1032.78 513.366
853 1 40.0101 7.49811 300 64.5 1033.01 527.373
854 0 43.0401 11.408 491 61.0713 1032.6 527.894
855 0 46.0789 11.1548 514 60.9105 1032.49 527.477
856 0 45.0255 10.4385 470 62.1723 1031.48 527.187
857 0 47.0867 10.916 514 62.677 1031.44 524.502
858 0 50.0589 11.2467 563 62.3108 1031.92 525.767
859 0 48.0709 11.4414 550 63.1091 1032.16 522.778
860 0 53.0513 11.1213 590 63.4576 1031.82 522.573
861 0 52.1096 12.4929 651 64.4055 1032.42 523.081
862 0 55.0073 12.1075 666 64.5661 1032.44 522.126
863 0 54.1138 9.84962 533 67.3114 1032.23 521.347
864 0 54.0191 9.68176 523 68.0554 1032.4 520.417
865 0 58.0528 12.058 700 65.2029 1031.69 518.429
866 0 60.0694 10.1216 608 67.1743 1032.48 519.988
867 0 61.0637 10.4317 637 66.9403 1031.99 518.305
868 0 64.1735 10.3625 665 67.5654 1032.2 517.692
869 0 66.08 10.8959 720 66.6722 1032.09 516.483
870 0 68.086 11.3092 770 66.6403 1032.7 512.695
871 0 71.0636 11.1168 790 67.0165 1032.16 513.8
872 0 72.0607 10.7271 773 67.7542 1031.76 512.435
873 0 73.091 8.49626 621 70.3591 1031.78 507.129
874 1 36.0205 8.57846 309 72.8382 1032.12 491.314
875 0 44.0843 8.32496 367 71.7847 1031.6 485.373
876 0 42.0414 9.41928 396 71.6717 1032.31 485.563
877 0 37.0327 9.50512 352 69.8665 1031.97 524.224
878 0 30.0036 6.59921 198 72.3182 1032.76 519.076
879 0 25.0316 7.4306 186 70.5968 1032.32 513.446
880 1 38.0682 8.90506 339 70.9676 1032.68 520.959
881 0 41.0484 9.62279 395 70.7215 1031.78 519.653
882 0 43.037 5.34423 230 72.5609 1032.4 513.678
883 0 40.0314 6.89458 276 72.8587 1032.11 515.873
884 0 47.0195 9.14515 430 70.8535 1032.11 515.633
885 0 51.0672 8.89024 454 71.4009 1032.58 515.727
886 0 47.0314 8.3136 391 71.5959 1032.44 513.087
887 0 55.0482 11.2084 617 68.2204 1032.47 514.579
888 0 53.0108 9.75273 517 70.0986 1032.17 511.271
889 0 52.0563 7.78004 405 72.3037 1032.49 509.983
890 0 59.0597 9.31262 550 69.5709 1032.44 509.278
891 0 62.0723 8.52232 529 70.5728 1032.62 509.902
892 0 64.132 9.54282 612 69.286 1033.15 508.131
893 0 70.0175 10.5117 736 68.1997 1032.56 510.125
894 0 71.058 8.14828 579 71.0639 1032.34 505.995
895 0 79.1424 12.269 971 64.5685 1032.77 512.945
896 1 40.022 11.6186 465 65.3097 1032.28 529.241
897 0 44.0603 12.029 530 63.8566 1031.98 529.608
898 0 46.0299 12.1226 558 64.3423 1032.57 528.154
899 0 47.08 11.6398 548 65.2774 1032.5 526.929
900 0 45.0628 11.2953 509 66.0059 1032.71 528.499
901 0 50.0505 10.3695 519 65.6647 1032.93 525.638
902 0 53.033 12.7845 678 62.4749 1032.86 524.965
903 0 55.0262 11.1947 616 64.0276 1033.75 524.075
904 0 56.1582 12.6785 712 62.0913 1032.18 523.414
905 0 56.0374 12.5095 701 62.2668 1032.45 520.679
906 0 59.1594 12.255 725 61.7793 1032.97 521.397
907 0 61.0718 13.918 850 59.4682 1033.09 520.844
908 0 64.0694 11.6748 748 61.6003 1033.6 519.541
909 0 67.1713 11.8652 797 61.5433 1033.87 518.292
910 0 67.0499 12.3341 827 61.2999 1033.95 515.943
911 0 69.0978 11.7949 815 61.5522 1033.26 517.369
912 0 71.056 12.1453 863 60.7949 1034.46 513.591
913 0 73.0673 12.7827 934 60.3244 1034.1 513.078
914 0 76.0945 13.0759 995 59.601 1033.59 514.094
915 0 78.1157 11.2525 879 61.8635 1033.86 513.298
916 0 80.0658 13.2141 1058 59.5066 1032.43 511.587
917 0 84.302 10.8657 916 62.131 1032.83 509.928
918 1 41.0154 11.0934 455 61.6747 1033 529.741
919 0 43.1402 11.7987 509 60.556 1033.42 529.947
920 0 43.0446 13.6138 586 59.1024 1033.35 528.382
921 0 45.0364 11.1243 501 61.4012 1033.29 528.976
922 0 46.0552 11.7468 541 61.2588 1032.62 526.837
923 0 48.0568 13.3384 641 59.1591 1032.47 528.331
924 0 50.0501 12.008 601 60.4126 1032.57 525.155
925 0 51.0303 11.111 567 61.6596 1032.01 525.603
926 0 53.0665 12.4749 662 60.2462 1032.47 522.941
927 0 54.0478 11.0828 599 61.7512 1032.4 521.528
928 0 56.1382 11.8814 667 60.9625 1032.35 521.214
929 0 59.0728 11.2065 662 61.9063 1031.85 519.19
930 0 59.041 11.1279 657 62.1416 1031.2 518.843
931 0 61.047 12.646 772 60.8264 1031.74 515.83
932 0 65.1219 13.5899 885 59.1345 1031.8 516.684
933 0 65.0942 12.6586 824 60.8398 1031.89 515.171
934 0 66.1138 12.8112 847 60.9575 1031.98 514.766
935 0 71.0873 12.4213 883 60.5832 1031.92 513.313
936 0 72.0515 12.8103 923 60.4626 1031.93 512.673
937 0 75.092 12.478 937 60.8068 1032.61 511.101
938 0 79.0905 12.9472 1024 60.3115 1032.7 508.51
939 0 80.0526 10.4806 839 63.1335 1032.56 506.925
940 1 41.0834 10.7343 441 61.8118 1032.34 527.755
941 0 41.0945 10.342 425 62.88 1031.92 528.245
942 0 45.1075 10.3309 466 61.6416 1032.4 529.957
943 0 47.0939 12.2946 579 59.3057 1032.17 527.376
944 0 49.0479 12.2737 602 59.3439 1032.49 525.297
945 0 50.1051 11.7353 588 59.6326 1033.35 525.59
946 0 50.0763 10.484 525 61.4305 1032.57 524.537
947 0 54.0448 12.3786 669 59.1375 1032.69 522.426
948 0 51.0753 10.8467 554 61.6986 1032.75 520.375
949 0 54.0325 11.1415 602 60.6296 1033.11 522.046
950 0 57.1672 12.5247 716 58.8994 1032.71 520.035
951 0 60.077 12.4174 746 58.9008 1032.75 519.442
952 0 63.0739 13.5872 857 57.4352 1034.05 518.77
953 0 62.1176 10.8504 674 60.0623 1033.41 519.869
954 0 65.077 13.292 865 57.5156 1033.15 516.461
955 0 67.0598 12.3024 825 58.4873 1032.83 515.805
956 0 70.0982 12.2257 857 58.6861 1033.5 515.286
957 0 71.1673 12.6884 903 57.887 1033.04 514.753
958 0 75.2694 13.1528 990 57.603 1032.9 513.429
959 0 77.1746 12.6337 975 58.2544 1032.53 510.82
960 0 78.1842 12.5089 978 58.5859 1032.92 510.421
961 1 38.0771 11.1878 426 59.0728 1032.67 531.082
962 0 39.0226 10.148 396 59.5227 1032.67 531.144
963 0 40.1051 10.647 427 60.6183 1033.44 528.145
964 0 40.0438 12.0618 483 59.06 1033.36 528.776
965 0 40.0661 11.506 461 60.5922 1033.12 525.84
966 0 43.0435 12.104 521 59.8157 1033.47 526.497
967 0 46.0177 11.9519 550 59.6255 1033.61 525.504
968 0 47.0128 14.4641 680 57.0868 1033.57 526.066
969 0 48.0501 13.1529 632 58.8877 1033.53 523.168
970 0 52.1002 12.6871 661 58.8139 1033.04 524.05
971 0 53.0689 12.1352 644 59.2469 1033.79 523.019
972 0 52.0572 13.1586 685 59.0088 1033.81 521.618
973 0 57.1071 12.6779 724 58.6961 1033.82 521.633
974 0 56.0498 13.3453 748 58.8636 1033.63 520.021
975 0 59.102 14.365 849 57.4005 1033.34 516.087
976 0 60.2115 11.2935 680 61.1382 1033.23 519.213
977 0 64.0797 14.0294 899 57.9321 1033.26 517.504
978 0 67.0371 13.7387 921 58.4463 1033.35 515.557
979 0 66.0406 11.3718 751 62.0186 1033.7 515.96
980 0 70.102 13.837 970 58.5639 1033.81 514.17
981 0 72.1052 12.2044 880 60.2648 1032.96 514.73
982 0 76.1617 12.5522 956 59.5732 1033.37 512.291
983 1 37.0221 10.021 371 61.3989 1033.71 530.402
984 0 37.0231 10.4529 387 61.4315 1033.83 530.031
985 0 39.0306 10.0178 391 61.977 1033.12 528.875
986 0 38.0116 10.8388 412 61.2282 1033.77 528.291
987 0 41.0172 10.9223 448 60.8415 1033.63 526.632
988 0 44.1935 13.7351 607 57.3031 1033.83 525.702
989 0 41.0689 10.4946 431 61.8585 1033.74 525.559
990 0 44.0306 12.6503 557 59.6499 1033.56 524.483
991 0 48.0537 12.6109 606 58.9125 1033.76 525.574
992 0 50.0538 13.046 653 58.0276 1033.06 525.084
993 0 49.0585 12.9845 637 59.3407 1033.55 522.863
994 0 50.0546 13.3654 669 58.988 1033.32 523.972
995 0 53.0444 13.6112 722 58.5859 1032.99 520.889
996 0 55.0393 12.9544 713 59.1753 1033.24 519.633
997 0 56.1386 11.3291 636 60.7736 1033.54 519.376
998 0 57.1337 13.1971 754 59.6088 1032.98 516.845
999 0 60.0641 10.9217 656 61.5808 1032.89 514.838
1000 0 62.0912 11.7569 730 60.5068 1032.37 516.663
1001 0 64.0761 11.4083 731 60.5828 1033.17 517.193
1002 0 68.1301 12.5495 855 59.2585 1033.16 515.999
1003 0 69.0667 11.0183 761 61.1235 1033.17 513.741
1004 0 72.1223 11.2725 813 60.7798 1033.27 515.314
1005 0 73.114 11.0649 809 62.0247 1032.8 511.499
1006 0 79.148 12.6851 1004 59.7719 1032.55 510.714
1007 1 39.081 11.054 432 61.8241 1032.49 527.928
1008 0 40.0826 10.5282 422 62.3246 1032.31 528.358
1009 0 41.0477 10.2564 421 62.9097 1032.7 528.843
1010 0 44.0604 12.6191 556 60.2806 1032.23 528.214
1011 0 44.0379 11.8988 524 61.6546 1032.78 525.147
1012 0 47.0598 12.3035 579 60.5423 1033.42 524.99
1013 0 48.1068 11.7239 564 61.3865 1033.21 523.259
1014 0 49.0875 11.9379 586 61.4249 1032.21 522.135
1015 0 50.0226 12.5943 630 60.5603 1032.69 525.321
1016 0 54.0387 10.3629 560 62.5732 1033.3 522.705
1017 0 54.099 13.0132 704 60.5938 1033.22 521.598
1018 0 57.1204 12.64 722 60.7299 1033.19 523.122
1019 0 60.086 13.9633 839 58.9333 1033.14 521.153
1020 0 60.0826 12.4329 747 60.9946 1033.18 521.095
1021 0 61.0897 11.9496 730 62.2151 1032.75 518.76
1022 0 65.058 11.2822 734 63.0109 1032.55 519.623
1023 0 68.0258 12.1425 826 61.9746 1032.67 515.59
1024 0 71.1221 13.6666 972 59.7541 1033.04 517.502
1025 1 38.0324 11.5428 439 61.0342 1032.8 532.554
1026 0 39.1 11.509 450 62.0933 1032.79 532.156
1027 0 39.0167 11.1491 435 63.6207 1032.54 529.747
1028 0 41.2016 12.8393 529 60.9433 1032.09 530.745
1029 0 41.0146 10.801 443 64.5034 1032.3 531.124
1030 0 42.0168 12.3046 517 63.5358 1032.45 529.172
1031 0 44.0172 13.3584 588 62.4762 1032.12 527.602
1032 0 46.1001 12.6247 582 62.8505 1032.27 528.395
1033 0 48.0519 11.4668 551 63.6189 1031.96 528.376
1034 0 47.023 11.8878 559 64.3113 1031.34 524.678
1035 0 51.0368 14.4797 739 60.7862 1031.99 526.306
1036 0 49.065 10.9651 538 66.0502 1031.85 526.667
1037 0 54.051 12.0627 652 63.7423 1032.02 522.951
1038 0 53.0305 10.1451 538 67.5911 1032.31 523.827
1039 0 58.1069 13.1138 762 62 1031.24 524.437
1040 0 61.1285 14.3305 876 61.4737 1031.18 521.537
1041 0 61.0787 12.7213 777 64.0103 1030.98 519.315
1042 0 64.0495 12.3967 794 64.7985 1031.13 520.717
1043 0 66.0418 12.3558 816 64.8909 1030.85 519.423
1044 0 67.1161 12.307 826 65.5254 1030.53 516.735
1045 0 70.1919 11.5398 810 66.5136 1031.22 517.853
1046 1 34.0866 12.6443 431 63.4107 1031.06 535.012
1047 0 36.0585 10.3166 372 66.5054 1031.51 534.194
1048 0 36.0392 11.7095 422 66.0095 1031.65 532.853
1049 0 39.051 12.266 479 64.6868 1031.58 531.946
1050 0 40.0638 10.9076 437 67 1031.38 531.403
1051 0 41.042 11.4273 469 66.8913 1031.64 532.39
1052 0 41.0212 11.7744 483 67.3354 1031.48 530.075
1053 0 44.064 12.2095 538 65.7751 1031.45 532.413
1054 0 46.0747 12.5014 576 65.5764 1031.12 530.113
1055 0 47.1169 12.3098 580 65.3603 1031.14 531.14
1056 0 47.0324 12.7146 598 66.0468 1031.01 527.749
1057 0 48.0255 11.7646 565 67.3363 1030.88 528.842
1058 0 51.0622 13.0233 665 65.5338 1030.4 525.797
1059 0 52.1269 11.683 609 67.3514 1030.93 526.596
1060 0 53.0316 12.7471 676 65.6302 1030.7 525.275
1061 0 55.0293 11.4121 628 67.1178 1030.33 527.097
1062 0 58.0771 13.2066 767 65.0039 1030.43 526.192
1063 0 59.0464 13.6164 804 64.0746 1030.91 526.097
1064 0 62.0503 14.1015 875 63.1086 1031.35 526.779
1065 0 62.0373 11.7026 726 67.1116 1031.41 523.949
1066 0 65.0972 12.2893 800 66.3975 1031.62 522.914
1067 0 65.0721 12.0789 786 67.0369 1031.19 520.125
1068 0 69.0952 13.3294 921 64.2161 1031.9 520.901
1069 0 70.0904 11.3853 798 66.9261 1031.9 521.63
1070 0 71.0494 12.428 883 66.2322 1031.44 518.817
1071 1 38.1615 11.3989 435 66.1517 1030.56 533.568
1072 0 37.1035 10.2147 379 68.2269 1031.23 533.404
1073 0 39.0577 10.5229 411 67.18 1031.87 533.297
1074 0 39.0422 13.0116 508 64.2658 1031.76 533.685
1075 0 41.0498 10.9623 450 65.4178 1031.58 534.751
1076 0 44.0334 15.3974 678 60.5752 1032.65 531.764
1077 0 46.0422 12.6623 583 63.0652 1032.71 533.465
1078 0 47.0332 12.3104 579 63.8117 1032.33 530.088
1079 0 48.0195 12.5782 604 63.9437 1031.76 529.248
1080 0 47.0411 11.4368 538 65.868 1032.05 528.509
1081 0 50.0325 12.1121 606 63.7228 1031.81 530.21
1082 0 52.0337 11.8193 615 64.4618 1032.27 526.46
1083 0 54.0626 14.4092 779 61.24 1032.89 528.358
1084 0 55.0458 11.881 654 63.6376 1032.87 526.456
1085 0 58.1969 12.2515 713 62.9201 1032.87 525.616
1086 0 58.0547 13.0222 756 61.996 1032.97 522.071
1087 0 64.049 12.0689 773 62.0841 1032.31 522.437
1088 0 62.1259 11.1387 692 63.7962 1032.7 521.579
1089 0 65.0926 12.6896 826 61.3354 1033.1 521.039
1090 0 67.0636 13.3008 892 60.8845 1032.42 519.268
1091 0 69.1228 12.8322 887 61.4532 1032.57 518.198
1092 0 73.0547 11.9363 872 61.461 1032.64 519.835
1093 0 75.1481 12.6816 953 60.8153 1032.61 514.394
1094 1 36.0566 10.9827 396 62.6869 1032.72 534.568
1095 0 38.211 11.4365 437 61.8719 1033.05 533.739
1096 0 41.0245 12.6266 518 60.861 1032.71 530.054
1097 0 41.039 12.8414 527 61.1954 1032.55 531.658
1098 0 42.0526 12.6271 531 61.8192 1032.83 528.974
1099 0 42.066 10.6499 448 63.4866 1032.26 528.232
1100 0 43.0708 13.6055 586 60.2901 1031.86 527.462
1101 0 46.0248 12.7106 585 61.3761 1032.05 525.486
1102 0 46.0762 11.6112 535 62.871 1032.63 525.759
1103 0 49.04 13.0914 642 60.553 1032.81 527.254
1104 0 51.0382 14.4794 739 58.9838 1032.98 523.549
1105 0 53.0885 12.6016 669 60.6607 1032.9 525.785
1106 0 53.0425 11.3494 602 62.5432 1032.29 523.537
1107 0 55.0324 11.5568 636 61.9009 1032.1 520.349
1108 0 59.1146 14.7679 873 58.2875 1032.49 521.34
1109 0 59.0998 11.506 680 61.8926 1033.2 521.081
1110 0 62.0884 14.3827 893 59.1187 1033.04 517.434
1111 0 62.0646 11.9231 740 61.9027 1032.66 519.126
1112 0 69.0884 13.0123 899 60.0134 1032.42 516.753
1113 0 67.2521 11.2859 759 62.1291 1032.96 519.634
1114 0 74.104 12.9683 961 60.2206 1032.49 514.562
1115 0 75.0319 11.7283 880 61.4125 1032.33 517.003
1116 1 39.0261 9.73708 380 63.3395 1032.22 532.382
1117 0 39.1877 11.2791 442 62.3281 1032.03 530.894
1118 0 41.0389 11.087 455 63.2528 1032.49 531.075
1119 0 43.1922 11.9929 518 61.8784 1032.89 530.859
1120 0 46.1272 12.4439 574 61.4059 1033.13 529.118
1121 0 47.0394 12.0325 566 61.7314 1032.81 530.442
1122 0 48.121 12.1361 584 62.5736 1032.36 528.271
1123 0 50.0631 12.7439 638 61.826 1033.26 527.412
1124 0 52.0751 11.5602 602 63.0233 1033.44 526.384
1125 0 53.0569 12.5526 666 62.6426 1033.7 522.509
1126 0 56.0764 12.8931 723 61.9613 1033.84 523.058
1127 0 57.1901 13.7786 788 60.184 1033.14 525.978
1128 0 61.0749 14.3594 877 59.4972 1032.78 524.174
1129 0 61.026 12.5848 768 63.0143 1033.68 519.467
1130 0 63.0427 14.8154 934 60.2741 1033.52 519.55
1131 0 67.2487 13.8887 934 60.9251 1032.86 519.508
1132 0 67.0992 12.3846 831 63.2383 1032.82 517.404
1133 0 69.0763 13.8832 959 61.3879 1032.67 516.526
1134 0 72.0624 13.1414 947 62.4731 1032.99 514.634
1135 0 73.0703 12.18 890 63.7 1032.16 514.145
1136 0 77.057 13.237 1020 62.2863 1033.09 507.926
1137 0 78.2109 12.5174 979 63.6946 1033.28 508.5
1138 0 78.0997 13.2395 1034 63.8085 1033.5 507.589
1139 1 38.0789 12.8418 489 63.9448 1033.48 527.793
1140 0 39.1545 11.7483 460 64.8913 1033.45 529.441
1141 0 38.0811 10.1888 388 67.0541 1032.74 526.936
1142 0 40.0623 10.7832 432 66.9491 1032.34 526.669
1143 0 44.031 12.9681 571 63.8441 1031.68 523.207
1144 0 45.0417 13.1212 591 64.1303 1032.52 524.567
1145 0 45.1009 11.441 516 66.6802 1033.24 524.55
1146 0 48.1104 12.9078 621 64.351 1033.1 524.282
1147 0 51.2429 12.6652 649 63.7119 1033.1 522.438
1148 0 52.0625 11.0828 577 65.9549 1032.88 520.464
1149 0 52.0594 11.8326 616 65.9205 1032.15 518.838
1150 0 52.0448 8.70405 453 68.7682 1032.35 515.735
1151 0 54.1822 12.0335 652 65.4877 1032.38 515.695
1152 0 54.0736 10.985 594 66.7778 1032.12 513.609
1153 0 55.0417 10.5738 582 66.5309 1031.78 511.002
1154 0 58.1 7.81412 454 69.8238 1032.57 512.661
1155 0 61.0882 8.65961 529 67.2212 1032.86 506.365
1156 0 57.0569 4.90738 280 72.5821 1032.76 504.807
1157 0 58.0248 5.0151 291 72.0241 1032.41 502.818
1158 0 66.0568 8.59866 568 68.7342 1032.82 504.731
1159 0 66.0808 8.11128 536 67.9683 1032.52 496.032
1160 0 68.0587 8.05188 548 69.4142 1032.53 496.46
1161 0 64.0699 7.00797 449 70.2071 1032.77 490.976
1162 0 63.0399 6.77349 427 69.6909 1032.76 484.415
1163 1 48.0537 11.508 553 65.8626 1033.25 481.882
1164 0 48.0389 9.70046 466 68.3326 1031.85 480.764
1165 0 47.1194 11.9696 564 65.5372 1032.12 528.098
1166 0 48.1226 12.0941 582 65.7594 1032.15 526.151
1167 0 50.0587 12.7051 636 64.6384 1032.42 526.943
1168 0 50.0704 11.2042 561 66.1301 1032.43 526.166
1169 0 51.235 11.3789 583 66.4305 1032.89 525.858
1170 0 53.0911 11.2071 595 66.3664 1032.82 525.013
1171 0 56.3956 12.5896 710 64.6648 1032.88 523.699
1172 0 57.0543 12.7773 729 64.2551 1032.42 523.846
1173 0 61.2616 15.1481 928 60.9009 1032.79 523.689
1174 0 63.2312 12.905 816 63.7598 1033.05 521.466
1175 0 64.125 13.4269 861 62.8084 1032.83 520.981
1176 0 67.1042 12.3837 831 64.0674 1032.47 519.075
1177 0 69.2503 13.2851 920 63.0674 1032.66 518.053
1178 0 69.0798 12.8981 891 64.4815 1032.47 514.915
1179 0 73.2896 13.2624 972 63.1214 1032.39 517.69
1180 0 73.0259 12.6257 922 64.9284 1032.97 516.168
1181 0 77.1068 12.6967 979 64.5955 1032.09 512.172
1182 1 41.091 13.4093 551 64.1906 1032.71 531.011
1183 0 42.123 11.7988 497 65.7062 1033.38 531.746
1184 0 45.1319 13.6932 618 63.4223 1033 530.46
1185 0 47.2199 13.2571 626 64.0383 1032.58 527.81
1186 0 49.3076 13.1217 647 63.8624 1032.72 527.371
1187 0 51.1822 13.9111 712 62.5323 1033.63 526.912
1188 0 51.161 11.2781 577 66.0156 1033.25 526.972
1189 0 52.1481 13.174 687 64.313 1032.34 526.314
1190 0 54.2238 12.3562 670 65.4478 1032.81 523.4
1191 0 58.2319 12.7078 740 64.2689 1032.46 522.985
1192 0 59.1874 14.1922 840 62.6881 1032.8 521.87
1193 0 60.2192 12.6372 761 64.5138 1032.42 522.565
1194 0 65.2577 14.2665 931 62.1472 1032.84 521.098
1195 0 66.184 12.5861 833 64.5258 1032.28 519.199
1196 0 67.1319 13.1383 882 64.3413 1032.39 519.017
1197 0 70.1973 12.123 851 65.4136 1032.19 517.303
1198 0 72.0753 13.2362 954 64.1111 1032.44 513.591
1199 0 75.1365 14.3871 1081 63.0648 1032.52 511.921
1200 0 79.1654 12.3412 977 64.7697 1032.21 516.133
1201 1 37.1769 11.647 433 65.4226 1033.03 533.245
1202 0 40.1296 12.5593 504 64.4147 1033.19 533.004
1203 0 40.1233 13.1844 529 64.3195 1033.14 531.206
1204 0 40.2499 12.5963 507 65.3215 1032.88 530.02
1205 0 42.1584 11.3382 478 66.9812 1032.63 530.651
1206 0 43.0359 14.3833 619 63.8158 1032.79 529.213
1207 0 46.1349 11.5964 535 66.4748 1032.61 528.484
1208 0 48.2815 13.3177 643 64.4681 1033 526.832
1209 0 51.0983 13.7774 704 63.142 1033.05 528.71
1210 0 50.0855 13.8563 694 63.9337 1033.13 525.638
1211 0 53.0546 13.6463 724 64.1077 1032.3 525.358
1212 0 54.0912 10.7966 584 67.9418 1032.76 524.055
1213 0 55.0485 12.1711 670 66.3298 1032.7 523.472
1214 0 59.0812 14.4885 856 62.9252 1033.16 523.169
1215 0 59.2266 14.6556 868 63.0438 1033.08 521.267
1216 0 63.1778 14.0556 888 63.1847 1032.87 521.235
1217 0 63.3601 14.2992 906 63.4327 1033.31 520.164
1218 0 65.1459 12.6792 826 65.1695 1033.44 518.51
1219 0 69.2109 14.1741 981 63.5484 1033.42 514.924
1220 0 71.0335 13.7963 980 63.8204 1032.47 514.101
1221 0 75.2364 14.4478 1087 62.6955 1033.11 515.08
1222 0 76.0978 13.9426 1061 63.9972 1032.89 513.344
1223 0 79.0591 13.8883 1098 64.072 1032.72 509.672
1224 0 82.1828 12.9833 1067 65.149 1032.69 508.017
1225 1 42.1235 11.7986 497 65.5654 1033.22 528.932
1226 0 44.0558 14.005 617 63.2869 1033.46 528.125
1227 0 45.032 11.725 528 65.7614 1032.78 528.953
1228 0 46.1456 13.3491 616 64.3912 1033.29 527.823
1229 0 48.0598 11.7562 565 66.5115 1033.13 525.658
1230 0 49.0705 13.0424 640 65.2516 1033.65 525.922
1231 0 52.028 13.0891 681 64.2966 1033.89 524.868
1232 0 53.053 14.0803 747 63.4418 1033.77 521.655
1233 0 57.085 12.2099 697 65.231 1033.46 522.096
1234 0 54.1072 12.4198 672 66.561 1034.13 518.938
1235 0 59.0316 12.7389 752 65.5598 1033.16 517.777
1236 0 62.0995 13.8971 863 63.6732 1033.06 515.064
1237 0 63.156 11.8595 749 66.1509 1033.42 516.981
1238 0 67.0592 13.0184 873 64.5223 1033.97 515.064
1239 0 69.1548 12.2045 844 65.3827 1033.56 514.814
1240 0 74.1271 12.7484 945 64.5926 1033.49 512.599
1241 0 75.2362 12.2149 919 65.3678 1032.91 512.109
1242 0 76.202 13.0574 995 65.1668 1033.53 509.194
1243 0 80.1654 12.4368 997 65.7633 1033.15 507.943
1244 0 83.0735 14.0237 1165 63.933 1034.28 509.9
1245 0 86.1243 13.7476 1184 63.9628 1034.05 506.548
1246 0 89.0664 12.8219 1142 65.6839 1033.94 504.409
1247 1 42.0417 12.5827 529 65.7372 1034.08 527.864
1248 0 46.0637 14.2846 658 64.0456 1034.17 526.622
1249 0 46.0645 13.1121 604 66.3162 1034.2 523.714
1250 0 47.0511 12.7521 600 66.69 1034.12 525.482
1251 0 49.033 12.9097 633 65.6066 1033.79 524.362
1252 0 52.0824 13.3826 697 64.5136 1033.91 524.865
1253 0 53.1559 12.5104 665 65.4767 1033.9 523.042
1254 0 57.0612 12.5304 715 65.0252 1033.28 520.129
1255 0 59.1267 14.1899 839 62.7843 1033.64 520.503
1256 0 58.0415 12.3015 714 65.9566 1033.61 518.98
1257 0 60.0657 13.7516 826 63.6828 1033.46 519.608
1258 0 63.1282 13.7181 866 64.0023 1034.11 517.875
1259 0 66.0939 13.9499 922 63.5282 1033.83 516.529
1260 0 67.051 12.3936 831 65.9639 1033.86 515.122
1261 0 71.2099 14.2677 1016 62.7333 1032.84 514.733
1262 0 71.1304 13.2433 942 65.2038 1033.13 512.282
1263 0 77.0878 13.2317 1020 64.3608 1032.06 511.839
1264 0 79.2378 14.6647 1162 62.9699 1032.85 509.023
1265 0 80.2188 12.6155 1012 66.1166 1033.29 510.328
1266 0 83.102 11.5641 961 67.2008 1033.25 508.104
1267 0 86.1159 14.3644 1237 64.3282 1034.23 505.894
1268 1 45.0173 10.9291 492 66.0508 1034.6 529.073
1269 0 46.0812 12.3044 567 66.425 1034.16 526.228
1270 0 49.0523 14.3724 705 63.3149 1033.63 525.06
1271 0 50.0294 13.2322 662 64.3928 1032.89 524.946
1272 0 50.0239 12.0343 602 66.5017 1033.14 523.291
1273 0 54.0576 13.4301 726 63.8471 1033.14 519.607
1274 0 54.1148 12.9909 703 64.1252 1033.19 521.511
1275 0 57.105 13.6415 779 63.6136 1033.44 521.116
1276 0 58.1702 10.8819 633 67.3318 1033.48 519.551
1277 0 62.1666 13.126 816 62.924 1033.04 519.031
1278 0 63.1787 12.061 762 64.8714 1033.15 516.013
1279 0 67.0731 13.4182 900 62.4178 1033.36 516.473
1280 0 71.0406 13.0348 926 62.5076 1032.7 515.716
1281 0 71.153 12.2834 874 63.6327 1032.61 515.608
1282 0 74.2857 13.5154 1004 62.0209 1033.16 512.83
1283 0 77.0838 13.4788 1039 61.564 1032.77 511.142
1284 0 81.0413 15.1034 1224 59.5711 1032.98 507.777
1285 0 80.1257 12.3681 991 63.9233 1033.24 504.234
1286 0 85.1614 12.9284 1101 62.8165 1034.09 505.917
1287 1 42.1088 11.5653 487 62.0452 1033.92 527.569
1288 0 44.0296 11.4696 505 62.5089 1032.16 524.37
1289 0 48.1286 10.6174 511 64.0039 1032.65 523.875
1290 0 49.0984 15.2144 747 58.3976 1032.13 522.435
1291 0 49.0195 11.6688 572 62.9266 1032.81 522.051
1292 0 53.1355 13.0233 692 60.3237 1032.32 521.84
1293 0 54.0887 13.2375 716 60.5084 1032.89 520.958
1294 0 56.0373 14.1513 793 58.6684 1032.84 521.314
1295 0 59.1533 12.4761 738 60.4743 1033.06 520.63
1296 0 59.0768 12.3399 729 61.2593 1032.79 516.908
1297 0 62.1364 13.0198 809 60.2447 1032.92 516.054
1298 0 63.2372 10.4843 663 62.9321 1033.19 517.998
1299 0 63.0339 12.5964 794 61.5101 1033.49 514.511
1300 0 66.0371 12.5536 829 61.1375 1033.53 512.135
1301 0 69.1116 13.2973 919 60.1491 1033.01 513.078
1302 0 73.0576 14.1669 1035 58.7401 1033.59 513.156
1303 0 73.0823 14.0526 1027 59.519 1033.64 511.736
1304 0 77.0659 13.8583 1068 59.3502 1032.89 510.357
1305 0 77.1172 12.1503 937 61.6126 1033.08 510.869
1306 1 40.0648 12.1054 485 60.0722 1033.13 527.548
1307 0 42.0374 10.9902 462 60.4048 1034.3 528.643
1308 0 44.1135 10.0423 443 62.5011 1033.72 525.641
1309 0 44.037 13.7384 605 58.6645 1033.81 525.445
1310 0 46.0446 13.6607 629 58.4213 1033.16 525.812
1311 0 46.0225 12.4939 575 60.3739 1033.57 524.584
1312 0 48.0783 13.0204 626 59.3275 1033.44 524.219
1313 0 50.0557 11.5072 576 60.6858 1033.55 524.851
1314 0 51.1707 11.6473 596 61.0117 1033.56 521.008
1315 0 52.0554 11.7567 612 61.1226 1033.67 520.317
1316 0 53.0175 10.638 564 62.4167 1032.54 521.222
1317 0 55.0333 12.5379 690 60.7116 1032.6 518.306
1318 0 58.0568 14.0724 817 58.421 1032.84 516.808
1319 0 60.0336 10.4442 627 62.3908 1032.8 515.381
1320 0 62.0923 12.2076 758 60.6187 1033 516.289
1321 0 62.1801 12.6568 787 60.9466 1033.11 515.327
1322 0 65.0861 12.7062 827 60.6034 1032.54 514.533
1323 0 69.1338 13.2207 914 60.6379 1033.28 512.713
1324 0 70.0989 12.2398 858 61.8869 1033.48 513.914
1325 0 74.0807 13.1208 972 60.8045 1032.5 510.399
1326 0 75.065 13.0554 980 61.4898 1032.8 507.87
1327 0 77.0636 12.587 970 62.2443 1033.17 508.006
1328 1 37.0169 9.86035 365 63.8356 1033.06 530.066
1329 0 40.0898 11.7237 470 62.3085 1033.76 529.245
1330 0 42.0265 13.8484 582 60.2835 1033.34 527.589
1331 0 44.0182 11.6543 513 62.7076 1033.21 528.663
1332 0 43.1841 11.7867 509 63.7741 1032.93 526.222
1333 0 46.0632 13.0039 599 62.3706 1032.54 524.965
1334 0 47.0963 11.2323 529 64.3289 1032.81 527.11
1335 0 49.1135 13.0718 642 62.6324 1032.64 522.179
1336 0 51.1818 13.0515 668 62.0988 1033.58 521.957
1337 0 51.1563 11.3573 581 64.7849 1033.64 519.575
1338 0 56.064 13.1457 737 61.1805 1033.65 523.558
1339 0 55.1067 11.8134 651 63.5853 1033.05 520.849
1340 0 61.0479 13.1208 801 61.4906 1032.77 519.806
1341 0 60.0542 12.1557 730 62.8014 1033.34 519.04
1342 0 64.1912 12.3381 792 62.6944 1033.11 516.217
1343 0 64.0902 10.2044 654 64.9434 1033.31 517.24
1344 0 66.1355 12.6861 839 62.242 1033.34 514.291
1345 0 70.0424 13.3205 933 61.7181 1032.96 512.825
1346 0 70.0544 11.8194 828 63.8442 1033.08 512.516
1347 0 75.0706 13.0677 981 61.9643 1033.41 511.878
1348 0 79.0502 12.8652 1017 61.9931 1033.16 510.366
1349 1 41.1329 10.381 427 62.2951 1033.59 527.356
1350 0 40.0545 12.1335 486 62.177 1033.88 526.675
1351 0 42.1064 13.3234 561 60.5169 1034.14 528.553
1352 0 46.0334 12.404 571 60.3398 1033.63 527.879
1353 0 46.0609 11.3762 524 62.5038 1032.85 525.95
1354 0 48.148 12.7939 616 60.4805 1033.02 523.888
1355 0 48.0959 10.1672 489 63.7587 1032.96 522.278
1356 0 49.0377 10.4817 514 63.4844 1032.8 524.307
1357 0 52.0502 12.7185 662 60.6027 1032.66 522.819
1358 0 50.0733 11.2435 563 62.6234 1033.19 521.572
1359 0 55.0697 14.1457 779 58.3453 1033.46 521.68
1360 0 59.0355 13.8561 818 58.3007 1032.51 521.725
1361 0 57.0779 12.1238 692 61.2081 1032.3 516.814
1362 0 61.107 13.2554 810 59.137 1032.11 518.304
1363 0 63.0357 9.56601 603 63.199 1032.25 516.584
1364 0 65.0808 11.8007 768 61.1484 1032.52 515.016
1365 0 66.0912 11.4387 756 61.5357 1033.26 514.025
1366 0 68.0606 11.8424 806 61.2184 1032.84 511.439
1367 0 72.1672 12.471 900 60.01 1032.56 509.959
1368 0 73.0344 10.6936 781 61.6261 1031.78 511.059
1369 1 37.0441 9.9611 369 61.206 1032.14 530.64
1370 0 40.2656 10.0582 405 60.9605 1032.61 528.4
1371 0 39.0806 11.9752 468 59.3162 1032.6 527.949
1372 0 42.0753 11.9072 501 59.7665 1032.49 525.521
1373 0 42.0641 9.65193 406 61.7315 1033.08 525.158
1374 0 46.0351 10.0793 464 60.8254 1033.42 524.776
1375 0 46.0251 11.1461 513 59.6979 1032.73 524.103
1376 0 46.1272 11.2732 520 59.7788 1032.31 522.279
1377 0 48.1116 9.8521 474 61.1097 1032.82 522.283
1378 0 49.099 10.6723 524 59.7481 1032.86 523.823
1379 0 52.0668 13.4059 698 57.2951 1033.32 519.726
1380 0 53.098 11.5635 614 59.2248 1032.68 518.161
1381 0 54.1496 11.0435 598 59.9649 1032.65 519.311
1382 0 57.1285 11.0103 629 59.903 1032.25 516.572
1383 0 61.0782 9.6925 592 60.9527 1031.22 514.125
1384 0 61.0898 12.9809 793 57.7541 1031.42 513.406
1385 0 65.0958 13.1191 854 56.7506 1032.79 516.028
1386 0 67.1105 11.1905 751 58.9787 1032.03 512.624
1387 0 68.2242 12.415 847 57.4734 1031.88 513.061
1388 0 73.2676 10.7415 787 58.6874 1032.86 510.28
1389 0 74.2654 9.45258 702 59.99 1032.71 508.39
1390 0 77.2243 10.0616 777 58.9743 1032.5 509.489
1391 0 80.0578 11.0046 881 57.6606 1031.71 508.536
1392 1 38.1748 11.7093 447 55.9463 1031.86 528.427
1393 0 42.2029 10.331 436 56.8234 1032.25 525.507
1394 0 44.0582 13.4595 593 54.118 1032.15 525.649
1395 0 45.0823 13.1094 591 54.8782 1032.58 524.105
1396 0 47.0889 12.7418 600 54.8933 1032.43 524.647
1397 0 49.0418 12.2141 599 56.0701 1032.11 523.362
1398 0 49.0299 11.7479 576 56.9983 1031.79 520.875
1399 0 52.0814 13.3445 695 54.8921 1032.69 519.083
1400 0 52.1882 10.7687 562 57.4021 1032.96 521.936
1401 0 55.0837 10.9288 602 57 1032.91 519.729
1402 0 56.1188 8.69583 488 59.3074 1032.81 517.949
1403 0 58.052 10.4906 609 57.3038 1032.56 518.126
1404 0 59.1176 11.6378 688 55.8474 1032.45 519.122
1405 0 64.1041 12.1053 776 55.0747 1033.43 517.106
1406 0 64.1294 9.41845 604 57.3493 1032.96 515.045
1407 0 66.0469 9.88691 653 56.9403 1032.4 512.245
1408 0 70.1677 11.1875 785 55.5732 1032.16 512.389
1409 0 72.1685 10.5863 764 56.0013 1032.55 511.483
1410 0 74.1284 12.6132 935 54.1091 1032.16 510.38
1411 0 78.0862 11.3464 886 54.895 1032.71 509.027
1412 1 35.0503 12.4107 435 53.6322 1033.55 527.29
1413 0 37.0136 10.0774 373 55.7051 1032.74 528.107
1414 0 40.0223 10.744 430 54.5767 1033.42 527.609
1415 0 40.1289 12.0362 483 53.4493 1032.44 525.816
1416 0 41.0872 10.2222 420 54.6214 1032.33 524.664
1417 0 43.0667 11.7724 507 53.4832 1032.28 523.584
1418 0 46.0636 10.7026 493 53.4361 1032.38 521.892
1419 0 47.0996 10.085 475 54.2126 1033.16 522.617
1420 0 50.1217 11.3923 571 53.1926 1033.46 521.179
1421 0 49.147 8.68822 427 55.3115 1033.23 524.201
1422 0 49.1146 8.89756 437 55.627 1032.95 519.721
1423 0 54.0883 10.8896 589 53.438 1033.09 518.413
1424 0 58.1703 11.9305 694 51.7032 1033.22 520.706
1425 0 57.0935 10.2814 587 53.8041 1033.09 517.721
1426 0 61.1237 10.716 655 53.1863 1033.07 516.244
1427 0 61.1756 10.6251 650 53.4462 1033.52 517.717
1428 0 64.1008 11.4351 733 52.708 1033.38 516.015
1429 0 67.2269 10.8736 731 52.6785 1033.26 511.614
1430 0 68.1099 11.9953 817 51.7124 1032.89 514.887
1431 0 73.3153 12.0302 882 51.6859 1032.6 512.07
1432 0 74.1271 9.87494 732 53.8975 1033.09 510.885
1433 0 78.0299 10.7651 840 53.0857 1033.18 510.685
1434 0 80.0861 9.87687 791 54.2769 1033.2 506.723
1435 0 85.1837 12.2324 1042 51.0701 1032.85 511.078
1436 0 85.0602 11.2391 956 52.8692 1033.57 506.587
1437 0 91.1461 10.5764 964 53.2178 1032.53 503.917
1438 0 92.1858 11.7806 1086 52.489 1033.02 499.924
1439 0 95.145 9.5223 906 54.1523 1033.21 501.678
1440 1 48.1088 9.24987 445 53.6854 1032.85 525.586
1441 0 50.1578 10.3872 521 52.7716 1033.22 520.825
1442 0 49.0928 10.47 514 53.3833 1033.1 520.739
1443 0 53.1552 10.7609 572 52.2098 1032.6 520.066
1444 0 52.107 8.90475 464 54.1142 1032.52 520.597
1445 0 56.1238 9.65722 542 52.7583 1032.95 519.14
1446 0 57.21 9.29908 532 52.6917 1032.39 517.064
1447 0 60.0507 13.805 829 49.3269 1032.97 517.22
1448 0 60.0804 9.92005 596 51.7634 1032.63 512.567
1449 0 64.0725 10.6286 681 51.5154 1031.82 517.827
1450 0 72.134 10.4112 751 54.3142 1032.41 440.909
1451 0 69.1874 12.4878 864 49.8229 1032.31 508.814
1452 0 69.1063 9.73861 673 52.6568 1032.32 509.944
1453 0 75.1161 10.557 793 51.1627 1032.39 511.274
1454 0 76.0749 10.7 814 51.2666 1032.08 512.969
1455 0 78.1824 10.4243 815 51.5804 1033.42 511.139
1456 0 81.2077 11.9816 973 49.7307 1032.91 510.843
1457 0 84.1649 10.2062 859 51.1129 1033.51 511.809
1458 0 87.1247 11.4204 995 50.8543 1033.33 504.341
1459 0 87.1179 9.67654 843 52.4543 1032.99 503.816
1460 1 46.0336 10.2099 470 52.5872 1033.13 524.419
1461 0 46.0636 10.5941 488 52.957 1032.92 524.352
1462 0 50.1367 9.79322 491 54.0367 1033.13 523.393
1463 0 52.1321 12.1422 633 52.0585 1032.55 519.695
1464 0 56.2 13.7011 770 50.7208 1032.49 521.548
1465 0 56.085 9.07551 509 55.1277 1033.06 523.161
1466 0 57.0689 12.7565 728 51.7651 1032.51 521.059
1467 0 62.0866 11.1457 692 52.5824 1031.77 520.906
1468 0 63.1049 11.8533 748 52.0308 1032.05 518.16
1469 0 66.1726 11.878 786 52.0941 1032.31 517.8
1470 0 69.1734 12.9385 895 50.8927 1032.76 519.941
1471 0 69.1089 12.4297 859 52.3376 1031.95 517.542
1472 0 70.1017 13.6801 959 51.5474 1032.83 515.593
1473 0 74.1662 13.4293 996 51.7791 1032.45 514.21
1474 0 76.1354 13.6599 1040 51.8337 1032.14 511.879
1475 0 79.1417 12.0796 956 53.0701 1032.01 511.493
1476 0 82.1794 11.6331 956 53.6559 1032.27 510.424
1477 0 84.0681 12.3114 1035 53.1072 1032.41 508.118
1478 0 87.2226 12.4509 1086 53.5727 1032.35 504.116
1479 0 90.149 12.6235 1138 53.7276 1032.85 505.471
1480 0 94.2332 12.6389 1191 53.7238 1032.74 504.528
1481 1 50.1585 9.70922 487 56.0329 1032.67 524.807
1482 0 50.1223 12.6291 633 54.4755 1032.23 524.937
1483 0 54.0359 12.9173 698 54.4398 1032.05 524.102
1484 0 54.0544 12.7464 689 55.2859 1032.39 521.57
1485 0 55.0779 11.7107 645 55.9969 1031.67 521.011
1486 0 58.0443 12.9556 752 55.1902 1032.75 520.366
1487 0 61.1855 14.6603 897 53.3333 1032.98 517.828
1488 0 63.1351 14.762 932 53.8895 1032.22 518.455
1489 0 62.1057 10.9169 678 57.4705 1031.86 517.311
1490 0 68.2003 12.8592 877 55.3672 1031.99 516.005
1491 0 70.29 13.0602 918 55.3769 1032.34 515.772
1492 0 70.1872 12.4239 872 55.8005 1032.76 517.054
1493 0 73.1088 13.1311 960 55.9177 1033.01 512.597
1494 0 78.2269 12.5021 978 56.1748 1032.82 512.638
1495 0 79.2055 15.8449 1255 53.5363 1032.89 511.328
1496 0 82.071 14.3412 1177 55.0824 1032.09 509.197
1497 0 86.1047 14.0411 1209 55.1133 1031.49 509.97
1498 0 89.3149 13.6707 1221 55.3956 1032.25 510.142
1499 0 91.0859 15.0298 1369 54.7407 1031.6 502.642
1500 0 94.1857 13.9193 1311 56.1426 1032.48 503.021
1501 0 97.2085 14.6181 1421 55.689 1032 500.224
1502 1 48.0345 14.0108 673 56.0936 1032.73 526.771
1503 0 50.0409 14.5881 730 55.7466 1033.25 523.659
1504 0 48.0544 10.9459 526 59.5989 1032.12 522.835
1505 0 52.0566 13.5622 706 56.8824 1032.19 523.925
1506 0 52.064 13.7715 717 57.2901 1031.85 523.41
1507 0 56.1074 11.8879 667 57.4992 1032.05 526.057
1508 0 58.0473 15.5563 903 55.4839 1032.4 520.071
1509 0 62.0538 13.9395 865 56.6058 1032.8 519.724
1510 0 61.0623 14.6244 893 56.598 1032.43 517.019
1511 0 64.166 13.4962 866 57.4573 1032.27 517.479
1512 0 67.2845 12.5883 847 57.6423 1031.9 518.89
1513 0 68.2023 13.24 903 57.4252 1031.66 513.828
1514 0 72.2229 13.8183 998 56.2555 1031.69 516.518
1515 0 72.14 11.7826 850 59.0765 1031.97 515.064
1516 0 78.2021 13.5291 1058 57.3554 1032.48 513.01
1517 0 80.1855 12.1842 977 59.0635 1032.59 511.818
1518 0 81.2171 13.3469 1084 58.9954 1032.57 508.752
1519 0 84.0529 13.6581 1148 58.6638 1031.87 508.366
1520 0 88.0742 13.3183 1173 59.1799 1032.16 507.65
1521 1 42.0353 13.2983 559 59.1968 1032.25 529.943
1522 0 45.1557 15.1033 682 57.5059 1032.31 527.425
1523 0 45.1273 11.5008 519 60.8054 1032.3 529.014
1524 0 49.1185 12.8261 630 59.8857 1032.59 526.36
1525 0 50.1565 11.823 593 60.7892 1033.04 526.685
1526 0 51.0855 13.9962 715 58.5063 1032.09 526.482
1527 0 52.0582 12.6205 657 60.1903 1032.6 526.566
1528 0 54.1281 13.2279 716 58.9944 1032.02 526.191
1529 0 55.0657 14.6734 808 58.8775 1032.12 522.975
1530 0 56.0319 13.064 732 60.3538 1032.31 522.305
1531 0 61.1401 13.1665 805 59.964 1032.25 521.64
1532 0 60.0624 13.5692 815 60.1816 1031.55 519.459
1533 0 65.2094 13.863 904 59.1018 1031.9 521.247
1534 0 66.0982 12.0578 797 61.1957 1032.07 518.061
1535 0 66.0727 13.5306 894 60.1667 1032.26 516.596
1536 0 70.0675 13.016 912 60.92 1032.13 515.222
1537 0 72.0607 12.5311 903 61.3068 1032.31 514.227
1538 0 73.0487 14.5383 1062 59.7373 1032.67 512.298
1539 0 77.037 12.8769 992 60.994 1032.52 512.298
1540 1 38.0718 11.0318 420 61.0405 1032.01 532.274
1541 0 42.1177 11.1355 469 61.2921 1031.57 529.264
1542 0 38.1033 10.6027 404 62.8069 1031.54 529.287
1543 0 42.1499 12.0759 509 61.4322 1031.49 526.285
1544 0 46.0687 10.7014 493 62.2028 1031.32 528.071
1545 0 44.1001 10.2267 451 62.0887 1032.21 527.738
1546 0 45.0668 10.7174 483 62.2112 1031.91 525.847
1547 0 47.0665 10.1771 479 61.9207 1031.93 526.501
1548 0 50.1707 10.843 544 61.3052 1031.59 524.085
1549 0 52.2065 11.9908 626 60.3291 1031.51 522.944
1550 0 56.1625 12.6419 710 59.2239 1031.39 522.666
1551 0 58.1722 13.099 762 58.4869 1031.8 522.155
1552 0 58.0418 10.4235 605 61.3603 1031.86 521.651
1553 0 61.2026 12.2871 752 59.4082 1032.39 519.94
1554 0 62.0643 14.485 899 57.4616 1032.3 520.139
1555 0 65.1333 13.7411 895 58.4614 1032.42 515.635
1556 0 67.0676 13.9412 935 58.4556 1032.93 516.612
1557 0 69.1461 12.3651 855 59.3591 1031.76 518.113
1558 0 73.0562 14.0577 1027 57.4946 1031.53 517.171
1559 0 74.1634 12.1489 901 60.6626 1031.64 514.396
1560 0 78.0844 13.2293 1033 59.2139 1031.96 513.394
1561 1 36.099 12.7427 460 60.1848 1032.8 530.244
1562 0 37.0288 11.5586 428 61.3645 1032.93 530.021
1563 0 38.1053 14.6174 557 59.3734 1032.58 527.627
1564 0 41.0964 14.1862 583 58.8954 1032.76 528.923
1565 0 41.0569 12.6166 518 61.1158 1032.45 528.106
1566 0 43.0294 12.7587 549 60.5865 1032.03 527.696
1567 0 43.0791 11.3976 491 62.1059 1031.82 526.155
1568 0 46.0522 12.5727 579 60.8221 1032.23 526.447
1569 0 46.0481 11.8789 547 62.245 1032.16 523.726
1570 0 48.0554 12.8394 617 60.5381 1031.42 524.17
1571 0 50.0924 13.1158 657 60.446 1031.61 523.177
1572 0 50.1164 12.8501 644 61.2438 1031.73 522.837
1573 0 53.0534 12.9115 685 60.4526 1031.6 522.531
1574 0 58.0345 11.2519 653 61.9786 1031.57 516.867
1575 0 57.0764 13.1052 748 61.357 1032.42 518.778
1576 0 60.1271 11.9746 720 61.6917 1031.66 520.314
1577 0 63.124 11.517 727 62.7744 1031.15 514.611
1578 0 66.1101 11.9195 788 62.3832 1030.89 513.358
1579 0 68.0366 13.6544 929 61.3811 1032.4 516.384
1580 0 69.3317 12.2599 850 63.4918 1032.23 512.207
1581 0 71.0616 13.4109 953 62.49 1032.49 511.892
1582 0 74.0877 14.2939 1059 62.0708 1031.48 512.728
1583 0 77.3411 12.7616 987 63.8652 1031.92 511.291
1584 1 39.0166 15.3268 598 60.5652 1032.02 528.072
1585 0 40.1233 13.1096 526 63.0989 1032.84 528.612
1586 0 41.093 11.9728 492 63.6748 1032.46 529.404
1587 0 42.0617 10.6986 450 65.5467 1032.11 528.644
1588 0 43.0392 13.5226 582 62.4244 1031.68 528.93
1589 0 43.027 9.94724 428 66.4229 1031.75 526.5
1590 0 47.1052 13.3531 629 62.5501 1031.01 523.701
1591 0 48.0571 12.9846 624 63.2981 1031.4 525.54
1592 0 46.1245 12.6397 583 64.2504 1031.57 522.316
1593 0 52.0224 13.3596 695 62.6993 1031.34 522.4
1594 0 53.1086 12.691 674 63.5786 1031.56 520.877
1595 0 57.0826 14.8557 848 60.7311 1032.24 520.555
1596 0 57.1657 13.0848 748 63.0775 1031.45 518.356
1597 0 59.0284 13.8408 817 62.3011 1031.39 516.395
1598 0 61.037 14.9417 912 61.4353 1031.62 518.272
1599 0 63.1077 13.3898 845 62.6805 1031.47 517.185
1600 0 66.1468 15.0272 994 61.0382 1031.85 515.28
1601 0 67.1434 13.6871 919 62.7443 1031.59 513.592
1602 0 71.2316 14.0949 1004 62.2112 1031.16 512.325
1603 0 72.2867 11.9109 861 63.899 1031.06 513.991
1604 0 74.2499 11.9731 889 64.3408 1031.04 509.717
1605 0 78.058 14.912 1164 61.4648 1031.5 508.914
1606 0 80.5154 12.4945 1006 63.502 1032.19 512.337
1607 0 82.1492 14.6197 1201 61.975 1031.97 508.553
1608 1 40.2085 10.4953 422 64.872 1032.27 530.201
1609 0 42.0667 13.0982 551 62.2414 1032.47 529.641
1610 0 42.0521 12.7223 535 63.1421 1031.89 527.107
1611 0 45.0449 13.2312 596 61.604 1031.74 528.25
1612 0 46.0807 12.9772 598 62.0351 1031.66 525.843
1613 0 46.0796 13.3682 616 62.3425 1032.42 526.48
1614 0 48.0411 11.9897 576 63.4045 1031.87 523.446
1615 0 51.1308 12.4387 636 62.2924 1030.97 523.132
1616 0 52.1964 14.1006 736 60.9701 1031.65 523.257
1617 0 53.0192 12.7501 676 62.0666 1032.17 523.678
1618 0 57.108 14.6564 837 60.055 1032.34 521.037
1619 0 58.0409 13.4905 783 61.4572 1032.35 519.512
1620 0 58.0975 12.0315 699 63.3534 1032.96 521.627
1621 0 64.2053 14.0487 902 60.1397 1032.21 518.777
1622 0 63.0507 14.0363 885 60.9876 1031.8 518.608
1623 0 65.2042 13.9561 910 61.2011 1031.52 516.6
1624 0 68.2274 14.4956 989 60.3337 1032.05 516.225
1625 0 71.088 12.379 880 63.1682 1031.74 513.043
1626 0 73.0709 13.7674 1006 61.1034 1031.23 513.838
1627 0 74.1437 13.4873 1000 62.197 1032.32 511.874
1628 0 78.0966 13.2528 1035 62.7391 1032.1 509.929
1629 1 38.1351 10.017 382 65.3639 1031.86 530.751
1630 0 42.1262 13.151 554 61.713 1031.09 529.576
1631 0 44.077 11.0262 486 63.6626 1030.85 528.169
1632 0 43.1273 13.1935 569 62.2373 1031.24 526.975
1633 0 46.0694 12.7634 588 62.4252 1031.74 526.155
1634 0 48.1765 11.9145 574 63.3206 1031.78 523.521
1635 0 46.2595 13.1216 607 63.4778 1031.65 522.786
1636 0 50.131 14.0831 706 61.0963 1031.35 522.149
1637 0 51.0626 15.1774 775 60.3742 1031.25 522.281
1638 0 53.056 13.9098 738 61.6369 1031.3 519.627
1639 0 54.4152 11.596 631 64.7876 1031.94 520.043
1640 0 57.1046 15.0601 860 60.8733 1032.25 518.852
1641 0 60.0513 13.2886 798 62.0489 1031.49 516.343
1642 0 62.1273 12.9412 804 62.6866 1031.91 516.908
1643 0 63.0646 12.0828 762 64.1903 1032.11 515.432
1644 0 66.0608 13.3513 882 62.5782 1031.37 513.954
1645 0 68.1542 12.8826 878 63.2631 1031.46 514.371
1646 0 71.2055 13.6506 972 62.1636 1031.16 510.985
1647 1 35.0387 9.38961 329 66.8085 1031.77 530.453
1648 0 35.0284 10.5343 369 66.1734 1032.11 529.818
1649 0 38.0705 11.61 442 65.2692 1031.71 528.351
1650 0 39.1362 10.6551 417 65.6283 1032.04 528.633
1651 0 39.1527 10.7528 421 66.62 1031.47 526.304
1652 0 43.1606 12.7431 550 63.6764 1031.67 525.409
1653 0 46.2335 11.3987 527 64.3207 1032.17 524.391
1654 0 46.1084 12.9911 599 63.0968 1032.22 523.902
1655 0 48.1162 13.1349 632 62.1345 1031.28 521.296
1656 0 50.0298 13.1522 658 62.5684 1032.26 520.125
1657 0 53.0587 13.7207 728 61.6552 1032.2 521.173
1658 0 53.1818 11.7145 623 63.671 1031.98 518.608
1659 0 57.0534 16.2479 927 58.0022 1031.55 519.136
1660 0 58.0775 12.7588 741 61.8799 1031.32 515.023
1661 0 61.257 12.2109 748 61.5134 1031.07 518.18
1662 0 64.0487 12.3656 792 61.5114 1031.57 515.477
1663 0 63.1877 12.8189 810 61.3815 1031.68 513.979
1664 0 66.2323 12.5316 830 61.559 1032.05 513.807
1665 0 69.0701 12.0457 832 61.9087 1032.15 514.049
1666 0 71.1537 12.6065 897 61.1527 1032.44 511.86
1667 0 74.126 12.2359 907 61.3682 1032.63 510.185
1668 0 77.063 12.7169 980 60.7429 1032.66 509.023
1669 0 81.0777 11.8775 963 61.1298 1032.14 509.86
1670 0 83.1207 12.6563 1052 60.384 1032.03 505.847
1671 0 84.2046 12.9684 1092 60.4771 1031.88 505.245
1672 1 41.0724 10.2258 420 62.0976 1032.26 525.157
1673 0 43.0977 12.5761 542 59.7638 1032.11 526.638
1674 0 44.0184 11.0863 488 61.7828 1032.29 526.201
1675 0 46.0374 12.5984 580 60.6672 1032.63 523.548
1676 0 48.0522 13.6934 658 59.7523 1032.37 521.771
1677 0 48.1376 11.4879 553 62.2423 1032.49 521.307
1678 0 53.127 13.5901 722 59.2036 1032.18 520.169
1679 0 56.0352 13.438 753 58.9336 1031.58 520.065
1680 0 57.0662 14.0188 800 58.6775 1031.88 515.912
1681 0 58.1111 12.3729 719 59.9944 1031.58 516.028
1682 0 59.0914 11.9307 705 60.6227 1031.19 513.821
1683 0 62.1177 12.8627 799 59.423 1031.86 511.536
1684 0 65.1067 15.4208 1004 56.9054 1032.26 511.621
1685 0 67.1522 13.3428 896 58.6652 1032.28 510.934
1686 0 70.1191 12.9066 905 58.7226 1032.47 512.075
1687 0 72.1935 12.1895 880 59.9068 1031.97 509.947
1688 0 75.0906 13.7434 1032 58.1793 1031.98 506.677
1689 0 78.0706 11.9763 935 60.2139 1032.07 504.783
1690 0 81.0769 13.6784 1109 58.7259 1031.91 504.611
1691 0 81.0437 10.9694 889 61.3116 1031.98 502.192
1692 0 85.0893 13.7973 1174 58.2172 1032.05 503.721
1693 0 91.1071 12.2932 1120 59.3562 1031.83 499.357
1694 1 43.1428 12.1689 525 59.56 1032.05 520.678
1695 0 43.0411 11.4774 494 61.0931 1031.61 522.047
1696 0 45.0746 12.7788 576 59.592 1031.13 519.245
1697 0 45.0388 10.4132 469 62.8635 1031.82 519.034
1698 0 48.0855 13.3928 644 59.0326 1031.96 518.585
1699 0 48.0511 10.9051 524 61.7748 1031.4 516.349
1700 0 49.0854 11.9791 588 61.0493 1031.2 516.67
1701 0 54.0378 11.7695 636 60.1887 1031.65 517.365
1702 0 55.127 13.7319 757 58.6143 1031.72 513.328
1703 0 59.0416 13.1941 779 58.5597 1031.5 512.964
1704 0 60.1028 14.1757 852 57.6209 1032.16 511.46
1705 0 61.0576 10.9896 671 61.0745 1032.08 510.921
1706 0 65.1112 13.1928 859 58.369 1032.59 510.849
1707 0 67.0374 12.7839 857 58.9347 1032.36 510.256
1708 0 69.1469 12.4228 859 59.1455 1032 509.263
1709 0 72.0837 12.9988 937 58.7385 1031.74 506.681
1710 0 72.0838 13.3595 963 58.6386 1031.96 507.258
1711 0 77.1273 13.549 1045 58.221 1030.97 504.205
1712 0 79.1406 12.8885 1020 59.3765 1031.86 502.009
1713 0 79.2556 11.9865 950 60.2516 1031.32 502.759
1714 0 84.3155 12.299 1037 60.0492 1032.11 501.09
1715 0 89.1196 12.6235 1125 59.7084 1032.35 499.955
1716 0 89.0773 10.6873 952 61.3004 1032.73 503.721
1717 0 94.186 11.9551 1126 60.7016 1032.01 500.466
1718 0 95.1382 13.4541 1280 59.45 1031.57 494.514
1719 0 98.1417 13.5009 1325 59.6528 1031.37 494.725
1720 0 104.372 13.5669 1416 59.1427 1032.2 491.523
1721 0 110.19 13.3859 1475 58.5939 1031.87 497.02
1722 1 56.0767 13.1427 737 58.9064 1032.05 518.145
1723 0 58.0493 13.7814 800 57.9475 1032.64 517.314
1724 0 62.0929 13.1899 819 58.2125 1031.95 516.337
1725 0 64.0944 13.3553 856 58.1647 1031.4 516.914
1726 0 65.1476 11.9421 778 59.6671 1031.09 515.248
1727 0 66.1347 12.4292 822 59.635 1030.83 511.713
1728 0 72.1621 12.4996 902 59.3126 1032.14 510.394
1729 0 73.0774 12.5347 916 59.0753 1032.64 512.55
1730 0 76.0608 13.0553 993 58.6969 1032.79 509.83
1731 0 78.149 11.9643 935 60.0428 1032.63 507.851
1732 0 81.0346 11.7604 953 60.0084 1032.76 505.272
1733 0 82.1312 11.7738 967 60.5915 1032.55 506.273
1734 0 85.1792 12.01 1023 60.1535 1032.06 501.267
1735 0 88.2035 14.9087 1315 57.6236 1032.33 500.068
1736 1 45.0303 13.613 613 59.2855 1032.35 521.874
1737 0 46.0989 13.0372 601 59.6755 1032.36 520.87
1738 0 48.1009 14.1577 681 59.0206 1032.02 518.671
1739 0 48.0505 12.4244 597 61.3216 1032.12 519.095
1740 0 50.107 12.6928 636 60.1368 1031.87 519.833
1741 0 52.046 10.9134 568 62.0634 1032.27 516.364
1742 0 56.0861 13.2653 744 59.1747 1032.23 515.492
1743 0 58.037 12.4576 723 59.5187 1031.74 515.437
1744 0 60.0534 15.3031 919 56.9412 1032.05 512.713
1745 0 63.1591 13.7906 871 57.5924 1032.31 516.99
1746 0 65.0653 14.7544 960 57.124 1032.3 511.462
1747 0 64.1538 12.5947 808 59.8181 1031.93 509.562
1748 0 67.1113 12.5612 843 59.5172 1031.57 511.548
1749 0 70.0801 13.0565 915 58.9792 1031.31 508.215
1750 0 72.1703 13.0525 942 59.1253 1031.89 506.559
1751 0 76.1823 12.0238 916 59.619 1031.76 508.433
1752 0 76.1715 12.8657 980 59.5316 1031.72 505.083
1753 0 79.1441 13.4312 1063 58.9925 1032.31 504.485
1754 0 84.1059 13.2333 1113 58.7188 1032.34 503.61
1755 0 87.1016 12.916 1125 59.2444 1032.49 500.488
1756 0 89.1107 12.2544 1092 59.7006 1031.02 501.211
1757 0 92.0739 10.9477 1008 61 1031.29 496.222
1758 0 95.1179 12.5003 1189 58.9613 1031.45 498.886
1759 0 99.1116 13.4596 1334 58.4633 1031.48 493.772
1760 1 48.0439 11.885 571 59.8249 1032.04 518.149
1761 0 54.1603 12.3891 671 58.4844 1032.93 518.426
1762 0 55.0521 11.9886 660 58.7833 1031.88 517.3
1763 0 57.0784 13.5428 773 56.9832 1031.61 516.006
1764 0 57.1661 13.0672 747 58.2784 1032.1 512.131
1765 0 61.0774 11.7228 716 58.9302 1031.5 516.028
1766 0 61.0814 13.9159 850 57.5776 1031.82 513.66
1767 0 64.0914 13.4651 863 57.241 1032.02 512.56
1768 0 67.1504 13.7006 920 57.3935 1031.92 510.38
1769 0 68.0948 13.9218 948 57.5011 1031.87 509.739
1770 0 71.08 12.5774 894 58.4239 1032.63 508.73
1771 0 76.0667 11.5294 877 58.9282 1031.45 506.01
1772 0 77.0515 12.5241 965 59.2186 1032.08 505.723
1773 0 81.0825 13.7884 1118 57.0921 1031.19 507.127
1774 0 83.1206 12.1631 1011 58.725 1031.6 504.758
1775 0 86.1286 14.1068 1215 57.0872 1032.38 503.246
1776 0 89.0986 14.2651 1271 56.8474 1031.6 497.969
1777 0 91.2194 14.35 1309 56.8205 1032.34 500.886
1778 0 93.0908 12.4824 1162 58.4165 1032.38 494.986
1779 1 46.072 11.1347 513 58.6628 1032.81 518.394
1780 0 44.0414 7.90166 348 61.5316 1032.33 519.704
1781 0 49.1772 12.8718 633 56.3539 1032.29 519.632
1782 0 52.0838 11.2127 584 57.8014 1032.77 516.12
1783 0 53.1145 10.4491 555 57.4108 1032.18 520.135
1784 0 54.1115 14.1375 765 54.6706 1032.57 515.567
1785 0 58.1216 13.5406 787 54.8856 1032.04 516.276
1786 0 58.1192 11.0291 641 57.4165 1032.26 517.487
1787 0 60.0386 12.2588 736 56.106 1031.99 514.154
1788 0 61.1046 11.8813 726 56.1295 1031.41 512.857
1789 0 65.1288 12.2066 795 55.7082 1031.15 507.514
1790 0 67.1321 10.5315 707 56.8119 1030.45 508.857
1791 0 70.178 12.4255 872 55.1319 1031.26 510.538
1792 0 70.0552 10.92 765 56.5595 1031.24 508.294
1793 0 76.1799 11.4991 876 55.7397 1030.31 504.952
1794 0 75.1106 10.9705 824 56.8956 1031.65 505.546
1795 0 81.1241 10.4654 849 56.8092 1031.49 503.788
1796 0 81.081 12.0373 976 54.9354 1031.44 508.842
1797 0 87.1151 14.0159 1221 53.7478 1030.97 502.427
1798 0 86.0691 8.5048 732 58.8948 1030.38 499.68
1799 0 93.3062 12.668 1182 55.1455 1031.18 499.375
1800 0 95.1359 12.4769 1187 55.9554 1031.87 495.874
1801 0 97.5029 12.9842 1266 55.7338 1032.16 496.207
1802 0 101.128 13.1219 1327 55.6654 1031.64 492.396
1803 1 53.1667 10.2508 545 57.3541 1031.64 518.42
1804 0 54.0802 13.406 725 55.1297 1032.22 518.076
1805 0 56.1788 10.0394 564 57.8316 1031.65 518.534
1806 0 58.1116 12.6653 736 56.091 1030.98 516.696
1807 0 61.2145 12.6441 774 56.0413 1030.88 515.844
1808 0 65.0984 11.3828 741 57.081 1031.02 513.881
1809 0 65.1718 10.925 712 57.073 1030.65 517.652
1810 0 68.3155 13.1742 900 55.5467 1031.64 516.343
1811 0 70.2327 12.6152 886 56.5418 1030.6 510.708
1812 0 74.1168 13.8835 1029 55.3664 1031.01 511.523
1813 0 76.1482 12.0292 916 57.3253 1031.28 511.37
1814 0 77.3058 11.7326 907 58.0353 1030.59 507.179
1815 0 84.2124 14.5228 1223 55.233 1031.32 507.187
1816 0 84.2539 13.2575 1117 56.7699 1031.25 502.64
1817 0 85.1223 13.2163 1125 56.9013 1031.31 504.214
1818 0 90.1261 13.7252 1237 56.2587 1031.21 500.445
1819 0 91.1924 11.5689 1055 58.6351 1031.91 503.636
1820 0 94.125 11.0916 1044 59.0805 1031.36 500.835
1821 1 40.2067 10.5952 426 58.0235 1030.95 528.854
1822 0 42.0456 12.7719 537 56.3464 1030.07 526.71
1823 0 42.0498 12.3425 519 57.2717 1030.98 527.603
1824 0 43.1422 12.6558 546 57.2509 1031.43 526.934
1825 0 44.0702 11.0959 489 59.5583 1031.52 523.644
1826 0 45.0753 11.4919 518 59.1834 1031.68 524.981
1827 0 47.1057 13.3105 627 57.3397 1031.29 522.73
1828 0 49.2408 11.5352 568 59.0792 1031.12 522.694
1829 0 53.2949 14.4479 770 55.5234 1031.15 523.001
1830 0 54.2378 13.8464 751 56.7044 1030.93 520.887
1831 0 56.1282 13.0238 731 57.3447 1030.4 518.01
1832 0 58.3969 14.5898 852 56.5904 1031.72 516.326
1833 0 61.2414 15.79 967 54.9866 1031.18 517.337
1834 0 63.098 13.9149 878 57.0797 1031.33 514.764
1835 0 64.1254 12.8342 823 58.6051 1030.68 514.329
1836 0 65.1453 12.1728 793 59.2736 1031.07 511.885
1837 0 65.1718 12.7202 829 59.6791 1031.56 511.092
1838 0 70.1203 15.9013 1115 56.2287 1032.06 508.969
1839 0 73.4318 14.0266 1030 57.9233 1031.83 510.28
1840 0 72.1043 15.5747 1123 56.9973 1031.6 509.226
1841 0 76.1082 14.0984 1073 58.027 1030.32 508.816
1842 0 76.0417 11.8093 898 60.5379 1031.18 503.526
1843 0 78.1492 14.9458 1168 57.3159 1031.62 506.055
1844 0 82.1945 12.5799 1034 59.1083 1031.38 504.762
1845 0 84.1711 11.7499 989 60.3033 1031.66 504.693
1846 0 89.1184 13.2296 1179 58.559 1030.94 502.734
1847 0 90.2552 13.5505 1223 58.3402 1031.14 501.842
1848 0 91.1985 11.316 1032 60.9254 1030.73 501.382
1849 0 95.096 14.4486 1374 58.1215 1031.01 498.877
1850 0 100.237 14.785 1482 57.7065 1031.07 497.808
1851 0 104.412 14.5482 1519 57.7722 1030.93 495.38
1852 0 106.123 14.5115 1540 58.226 1031.12 493.769
1853 0 107.188 14.7591 1582 58.3369 1030.33 494.315
1854 0 110.173 12.7981 1410 59.9411 1030.5 494.665
1855 0 116.341 14.681 1708 58.5966 1030.74 494.067
1856 0 118.285 13.4083 1586 59.8651 1030.29 490.549
1857 0 121.162 12.8258 1554 61.1538 1030.77 490.468
1858 0 124.167 13.2563 1646 61.0778 1030.77 484.13
1859 0 129.186 13.9953 1808 61.0205 1030.34 482.679
1860 0 131.192 15.2525 2001 60.2034 1030.45 480.286
1861 0 135.372 12.5875 1704 63.422 1030.69 481.066
1862 0 138.297 14.1724 1960 62.5959 1030.63 475.259
1863 0 142.245 13.7228 1952 63.5845 1030.91 474.468
1864 0 149.215 13.8793 2071 63.6828 1030.94 478.888
1865 0 153.295 16.2562 2492 61.8295 1031.64 474.581
1866 0 156.248 14.6946 2296 64.2879 1030.86 473.866
1867 0 159.399 14.906 2376 64.471 1029.97 472.511
1868 0 164.302 14.9177 2451 65.0612 1030.86 469.971
1869 0 168.2 13.6148 2290 66.9738 1030.9 467.995
1870 0 175.298 14.7007 2577 66.3943 1030.97 463.324
1871 0 176.225 14.1694 2497 67.817 1030.71 463.742
1872 0 181.129 14.9065 2700 67.253 1030.93 461.613
1873 0 188.216 14.9934 2822 67.6201 1030.58 458.393
1874 0 191.357 14.5278 2780 68.9773 1031.32 455.482
1875 0 195.324 13.4699 2631 70.6066 1031.23 456.001
1876 1 152.555 13.7917 2104 70.3997 1030.74 482.343
1877 0 156.363 14.5879 2281 70.3889 1030.84 478.506
1878 0 158.406 14.1346 2239 71.7418 1031.06 477.405
1879 0 163.259 14.088 2300 72.0622 1030.74 477.371
1880 0 165.456 14.0581 2326 73.1776 1030.32 473.888
1881 0 168.353 13.6737 2302 74.3797 1031.31 470.058
1882 0 172.506 12.8459 2216 75.5966 1031.66 471.808
1883 0 176.424 13.1445 2319 75.6072 1031.4 470.294
1884 0 183.602 14.9726 2749 73.4816 1032.17 468.816
1885 0 185.226 14.7063 2724 75.014 1031.34 467.328
1886 0 191.422 14.8886 2850 75.1161 1031.55 464.301
1887 0 194.277 14.7779 2871 75.9237 1030.62 465.363
1888 1 153.5 15.1922 2332 77.205 1030.73 478.884
1889 0 155.132 13.3822 2076 80.8531 1031.15 475.886
1890 0 160.39 14.9074 2391 78.1949 1030.66 475.697
1891 0 165.238 15.7228 2598 77.0843 1031.25 473.876
1892 0 165.251 15.4069 2546 78.7196 1031.44 469.135
1893 0 168.244 15.9471 2683 78.2326 1031.42 469.202
1894 0 172.246 14.6418 2522 82.4925 1030.77 467.46
1895 0 179.22 16.6946 2992 79.1708 1031.37 465.854
1896 0 179.402 15.39 2761 81.8859 1031.35 464.886
1897 0 185.542 16.3629 3036 80.308 1031.24 456.666
1898 0 186.327 14.8663 2770 83.469 1031.25 458.697
1899 0 189.274 13.1555 2490 86.4663 1031.26 459.442
1900 1 147.15 13.2722 1953 87.8182 1031.42 477.311
1901 0 152.383 15.1592 2310 84.8814 1031.17 476.133
1902 0 155.248 14.48 2248 86.4182 1031.54 474.168
1903 0 157.3 14.965 2354 85.5412 1030.84 474.836
1904 0 162.283 14.9492 2426 85.9398 1030.91 469.955
1905 0 165.611 14.5038 2402 86.5079 1030.28 468.201
1906 0 170.346 14.8639 2532 85.3483 1030.9 467.394
1907 0 171.195 14.5039 2483 86.5373 1030.47 466.164
1908 0 178.189 13.9795 2491 87.1196 1030.42 464.659
1909 0 183.263 14.0672 2578 87.3825 1031.1 462.722
1910 0 189.22 14.6549 2773 86.4122 1031.83 458.781
1911 0 197.337 14.6552 2892 86.1196 1031.66 456.661
1912 1 148.142 13.6356 2020 88.347 1031.27 479.343
1913 0 156.115 14.8736 2322 86.6111 1031.2 476.818
1914 0 159.127 13.4421 2139 89.6568 1031.91 475.153
1915 0 163.158 14.5013 2366 88.4438 1031.25 468.631
1916 0 166.375 14.7919 2461 87.7046 1031.12 467.678
1917 0 171.232 12.7021 2175 91.4685 1030.57 462.985
1918 0 178.157 15.0373 2679 86.5965 1030.25 465.557
1919 0 183.299 15.3738 2818 85.9933 1030.72 460.909
1920 0 188.435 14.6151 2754 87.085 1031.15 462.555
1921 0 194.283 13.5472 2632 89.3777 1031.47 458.75
1922 0 199.344 14.2166 2834 88.2177 1031.07 452.473
1923 0 205.377 14.9579 3072 86.5866 1030.85 455.632
1924 0 209.426 13.6182 2852 89.9551 1031.25 449.036
1925 1 159.236 14.0358 2235 89.0908 1031.03 476.084
1926 0 162.365 13.8884 2255 89.3805 1031.05 475.382
1927 0 165.267 14.534 2402 88.5737 1031.67 473.305
1928 0 168.452 13.0245 2194 92.052 1031.97 470.727
1929 0 175.556 15.7158 2759 86.6372 1031.26 466.991
1930 0 176.347 13.8534 2443 90.3655 1030.72 468.996
1931 0 182.412 14.4563 2637 88.9666 1030.98 466.086
1932 0 188.251 14.8844 2802 88.5328 1030.46 461.078
1933 0 190.224 14.3673 2733 89.9524 1030.25 460.688
1934 0 195.287 14.6144 2854 89.561 1030.27 456.282
1935 0 202.224 14.7658 2986 89.0703 1030.44 453.452
1936 0 205.395 14.4648 2971 89.5385 1030.34 452.39
1937 0 212.403 14.7503 3133 89.2723 1030.89 449.907
1938 0 214.363 14.7507 3162 89.5658 1030.66 446.984
1939 0 220.396 14.1246 3113 90.2795 1029.75 446.469
1940 0 226.467 14.1124 3196 91.0754 1029.05 441.242
1941 1 51.3012 12.1635 624 84.5256 1028.79 527.07
1942 0 53.1302 12.1588 646 85.1734 1029.73 526.392
1943 0 56.4418 13.4298 758 82.4288 1029.9 526.249
1944 0 57.2946 12.427 712 84.2598 1029.3 524.02
1945 0 61.7186 12.8324 792 81.4848 1029.71 525.48
1946 0 63.1843 12.4556 787 81.9365 1029.28 524.451
1947 0 62.0845 12.2575 761 83.3548 1028.3 523.089
1948 0 62.1438 12.0044 746 84.0844 1028.37 521.031
1949 0 64.3631 12.5382 807 83.2974 1028.76 521.005
1950 0 64.3631 12.5693 809 142.616 1028.77 521.067
1951 0 67.1259 13.0054 873 82.3058 1028.77 516.381
1952 0 70.1833 13.479 946 80.5909 1027.84 515.321
1953 0 72.3859 13.1241 950 80.4221 1027.99 514.458
1954 0 73.3178 12.8755 944 80.3888 1027.79 515.503
1955 0 75.2922 12.2191 920 81.6891 1027.98 511.727
1956 0 77.406 13.1256 1016 79.81 1027.97 509.007
1957 0 79.2678 11.2656 893 82.421 1028.36 507.28
1958 0 82.4314 13.1746 1086 78.3085 1028.33 507.435
1959 0 84.1405 13.0615 1099 79.1165 1028.79 504.221
1960 0 87.1625 13.2855 1158 78.0173 1029.2 504.837
1961 1 32.1102 10.2148 328 76.9939 1028.49 530.503
1962 0 33.0633 12.8541 425 74.2565 1029.08 529.807
1963 0 34.0578 11.3924 388 76.9665 1029.09 528.183
1964 0 35.2093 11.9571 421 75.7173 1028.93 528
1965 0 38.109 11.8082 450 74.4467 1028.87 526.073
1966 0 38.1699 9.7721 373 77.9196 1029.52 524.799
1967 0 36.0604 10.4269 376 78.2766 1029.59 522.436
1968 0 39.2136 11.0676 434 76.2074 1030.26 521.986
1969 0 40.0804 11.951 479 73.5157 1030.07 522.81
1970 0 41.0729 12.0517 495 73.2141 1030.09 522.301
1971 0 40.0494 11.9852 480 115.219 1031.09 521.898
1972 0 43.2017 11.9671 517 73.8085 1029.94 519.718
1973 0 45.1444 12.2496 553 72.5262 1029.83 517.441
1974 0 47.0868 10.9797 517 73.6576 1029.9 516.621
1975 0 45.2116 12.8286 580 72.2448 1030.85 515.855
1976 0 47.103 12.462 587 71.9404 1030.81 514.961
1977 0 52.1251 10.5515 550 73.5745 1030.71 515.007
1978 0 51.1273 11.6181 594 72.0522 1030.65 513.315
1979 0 55.1874 12.3217 680 70.0897 1029.96 517.113
1980 0 57.2404 12.5611 719 69.0612 1030.24 516.631
1981 0 58.0505 11.266 654 71.2905 1030.28 511.613
1982 0 60.1654 10.2551 617 71.9109 1031.54 514.13
1983 0 59.0836 12.1523 718 70.8064 1031.95 510.974
1984 0 63.2025 11.9457 755 70.0914 1031.46 508.142
1985 0 67.0475 12.081 810 69.4531 1031.36 508.131
1986 0 67.1898 11.1773 751 70.6551 1030.78 506.928
1987 0 71.1747 11.1697 795 69.8239 1030.99 504.97
1988 0 72.1779 13.1342 948 67.2426 1030.96 504.261
1989 0 74.0896 10.8247 802 70.1222 1031.51 502.939
1990 1 34.0704 9.77387 333 68.2402 1031.43 523.165
1991 0 35.0699 12.803 449 65.4031 1031.26 521.886
1992 0 37.1335 12.657 470 65.6383 1032.02 520.26
1993 0 39.0312 10.7862 421 67.1568 1032.54 521.454
1994 0 38.0649 10.955 417 67.3549 1031.3 518.278
1995 0 41.0833 11.8783 488 65.3566 1031 520.186
1996 0 43.0827 8.72739 376 69.2553 1031.9 516.048
1997 0 44.2489 10.8025 478 66.9791 1031.83 516.868
1998 0 44.2666 11.9729 530 65.3245 1031.9 517.877
1999 0 47.1367 10.9893 518 65.8185 1031.29 515.836
2000 0 49.1737 11.4492 563 65.1901 1031.55 515.025
2001 0 51.2528 12.4871 640 63.5156 1031.28 517.569
2002 0 52.1992 11.2071 585 64.9949 1031.8 513.22
2003 0 57.1962 11.1371 637 63.9168 1031.41 515.195
2004 0 58.2062 12.1636 708 62.4703 1030.86 513.031
2005 0 60.2377 12.3179 742 61.8666 1031.48 512.093
2006 0 62.0612 11.8432 735 62.2762 1031.22 510.909
2007 0 60.0807 12.9493 778 61.4871 1030.78 508.387
2008 0 62.1832 11.048 687 63.5138 1031.08 507.735
2009 0 66.1292 12.5663 831 60.793 1030.04 508.898
2010 0 71.16 11.4952 818 61.632 1029.98 506.084
2011 0 71.1748 11.0994 790 61.9342 1029.81 504.076
2012 0 72.084 11.3201 816 61.4424 1030.37 505.743
2013 0 74.1895 11.9424 886 60.6264 1030.29 501.703
2014 1 39.1226 9.89198 387 60.7881 1029.55 521.432
2015 0 40.1523 11.7552 472 58.6992 1030.45 521.439
2016 0 41.3934 9.47011 392 60.8342 1030.7 519.63
2017 0 43.2807 10.2586 444 60.1689 1030.12 521.685
2018 0 42.0352 11.0622 465 59.4903 1030.14 519.981
2019 0 40.0515 8.83863 354 62.4266 1030.84 518.316
2020 0 46.1162 9.2809 428 61.0304 1030.7 516.213
2021 0 46.0288 8.95092 412 61.8034 1030.75 514.888
2022 0 49.228 12.0257 592 57.8885 1030.3 515.765
2023 0 50.0727 12.2821 615 58.0016 1030.22 514.566
2024 0 50.0868 9.66322 484 60.6942 1029.92 512.331
2025 0 54.1087 12.3086 666 57.7658 1030.05 510.823
2026 0 55.0537 11.9701 659 57.9029 1029.96 512.564
2027 0 56.0624 11.505 645 58.3767 1030.11 509.905
2028 0 59.0349 10.9257 645 58.5829 1029.69 509.474
2029 0 62.0565 12.5531 779 56.8832 1029.51 508.205
2030 0 64.0538 13.0203 834 56.0767 1028.85 509.194
2031 0 64.1066 12.37 793 56.8298 1029.83 506.883
2032 0 65.2046 11.2722 735 58.151 1030.37 505.739
2033 0 72.0622 13.4745 971 54.8146 1029.87 506.934
2034 0 74.2829 12.2774 912 56.4912 1029.7 502.314
2035 0 75.0616 12.5497 942 56.1762 1030.59 500.604
2036 0 80.2443 11.8762 953 56.0776 1030.42 499.503
2037 0 81.2728 10.8523 882 57.2426 1030.46 501.747
2038 0 83.035 12.6814 1053 55.6211 1030.07 498.65
2039 0 85.1172 13.4755 1147 54.8596 1029.75 498.817
2040 0 90.1299 10.5736 953 57.3316 1029.91 494.605
2041 1 47.1983 10.4241 492 57.1057 1029.97 517.628
2042 0 47.0415 9.54477 449 58.1826 1030.26 516.292
2043 0 50.0505 9.41049 471 58.0934 1029.63 515.635
2044 0 52.0386 11.1264 579 56.3454 1030.36 514.256
2045 0 54.092 11.2216 607 56.3641 1030.06 510.573
2046 0 55.0198 12.6136 694 54.7262 1029.83 512.313
2047 0 54.073 11.1331 602 56.1927 1029.99 512
2048 0 59.2246 10.4011 616 56.6218 1029.54 509.744
2049 0 61.2254 12.9685 794 53.5642 1030.17 509.873
2050 0 64.0813 13.1084 840 53.1583 1029.61 509.832
2051 0 65.0648 9.97468 649 55.8243 1030.19 507.53
2052 0 65.0516 12.3594 804 53.9789 1029.71 507.78
2053 0 68.0733 12.369 842 54.0831 1030.03 504.436
2054 0 69.0862 9.79936 677 56.1965 1029.3 500.372
2055 0 72.0832 11.4035 822 54.6837 1029.29 500.056
2056 0 76.0446 11.7957 897 54.0925 1029.96 500.318
2057 0 79.3953 11.3483 901 54.5882 1029.66 499.262
2058 0 80.0871 12.836 1028 53.571 1030 498.036
2059 0 83.2086 11.8017 982 54.664 1029.98 493.093
2060 1 40.0288 10.5424 422 55.9218 1030.46 521.045
2061 0 40.0764 9.83122 394 57.4036 1029.39 516.109
2062 0 46.0815 9.5483 440 56.1864 1029.64 518.309
2063 0 46.0849 11.8043 544 54.7868 1029.74 518.526
2064 0 50.065 12.6635 634 54.2602 1029.22 516.358
2065 0 52.0839 14.4575 753 52.1288 1030.33 517.072
2066 0 52.0792 12.1546 633 54.4976 1030.03 516.333
2067 0 53.0505 11.7624 624 55.1186 1029.68 513.154
2068 0 56.1329 12.0072 674 54.7908 1028.98 511.32
2069 0 58.0512 12.6957 737 53.6147 1029.75 512.74
2070 0 60.2025 12.7736 769 54.2835 1029.44 510.428
2071 0 62.0675 12.4058 770 54.5818 1028.97 507.814
2072 0 63.1598 13.4896 852 53.6197 1029.49 510.239
2073 0 65.0797 11.3399 738 55.8767 1029.4 505.344
2074 0 70.1861 11.7402 824 54.9308 1029.66 507.267
2075 0 70.1309 11.8635 832 54.8702 1029.2 505.528
2076 0 72.1264 11.6324 839 55.0918 1029.47 504.853
2077 0 73.1526 10.6353 778 56.2661 1029.1 500.794
2078 0 78.1718 14.8263 1159 52.1329 1029.73 500.19
2079 0 82.142 12.1862 1001 54.2028 1029.16 501.199
2080 0 83.18 10.7718 896 55.6194 1029.85 499.941
2081 0 86.1372 11.8416 1020 54.7392 1030.18 500.879
2082 0 91.239 11.6726 1065 54.6854 1030.25 496.916
2083 1 46.1774 10.8278 500 54.614 1029.52 519.018
2084 0 51.0709 10.6519 544 55.0938 1029.53 513.007
2085 0 51.0475 12.8508 656 52.9954 1028.91 515.976
2086 0 54.0993 11.2016 606 54.83 1029.38 512.55
2087 0 55.0553 9.04545 498 56.7068 1029.28 511.681
2088 0 55.1879 11.8142 652 54.8052 1028.56 508.189
2089 0 58.1271 15.0188 873 52.0699 1030.07 509.92
2090 0 63.1412 13.7153 866 52.2956 1029.76 511.628
2091 0 63.1075 10.9654 692 54.9234 1029.51 508.094
2092 0 63.1214 10.8046 682 55.5323 1029.79 509.742
2093 0 68.1216 12.83 874 53.913 1029.71 505.924
2094 0 70.0684 11.0321 773 55.1992 1029.35 507.872
2095 0 73.2042 14.1795 1038 52.4566 1030.02 506.895
2096 0 77.142 11.5761 893 54.4849 1030.11 502.948
2097 0 78.4244 10.6217 833 55.1453 1029.55 502.975
2098 0 84.3287 11.7398 990 53.9364 1029.17 505.908
2099 0 89.5504 14.249 1276 52.098 1029.74 501.886
2100 0 89.3129 13.4247 1199 53.1059 1029.1 501.557
2101 0 92.2154 11.69 1078 54.859 1029.72 497.021
2102 0 96.3162 11.1092 1070 55.1486 1029.6 499.24
2103 0 98.4436 10.5644 1040 55.8337 1029.87 498.802
2104 1 50.2399 13.555 681 52.8135 1030.4 521.548
2105 0 50.1456 12.6831 636 54.2154 1030.59 521.176
2106 0 54.3202 12.5184 680 53.9426 1030.24 520.463
2107 0 58.5011 10.9742 642 55.3505 1030.62 518.578
2108 0 55.2299 11.8595 655 55.5237 1030.77 517.145
2109 0 59.5405 11.572 689 56.0494 1030.33 513.257
2110 0 59.2497 12.1857 722 56.0152 1030.08 514.77
2111 0 62.2739 12.2042 760 55.6276 1029.51 512.587
2112 0 65.4152 11.2053 733 56.5157 1029.24 513.431
2113 0 68.3481 11.7633 804 55.9863 1029.96 512.729
2114 0 67.1891 10.8946 732 57.3402 1029.95 507.533
2115 0 72.3184 15.3764 1112 53.0108 1030.32 510.634
2116 0 71.1288 12.1189 862 56.348 1030.03 509.473
2117 0 77.3788 12.2256 946 56.0011 1029.53 508.262
2118 0 81.2218 12.7552 1036 55.7172 1029.49 504.436
2119 0 78.3644 12.4674 977 56.651 1029.6 504.86
2120 0 84.1256 10.7458 904 58.3009 1029.59 499.752
2121 0 88.3832 13.2265 1169 56.4765 1029.69 499.777
2122 0 90.4198 12.2097 1104 57.4022 1029.29 497.438
2123 1 45.2409 10.212 462 59.5195 1029.39 517.948
2124 0 50.1818 11.538 579 57.5941 1029.75 518.706
2125 0 50.3269 11.9817 603 58.1658 1029.08 519.806
2126 0 50.2913 11.2942 568 59.243 1029.2 515.623
2127 0 52.1064 9.84525 513 60.9279 1029.74 516.817
2128 0 55.1651 11.8553 654 59.2095 1029.95 513.674
2129 0 59.3246 13.5357 803 56.9726 1030.12 516.453
2130 0 59.2097 13.0553 773 58.3558 1029.9 512.413
2131 0 63.2098 12.2766 776 58.5606 1029.75 513.168
2132 0 64.221 14.6214 939 56.5261 1029.63 512.653
2133 0 66.2057 13.2466 877 58.3968 1029.65 508.247
2134 0 67.205 12.8115 861 59.1347 1029.68 510.506
2135 0 74.2612 14.5433 1080 56.7528 1029.65 508.394
2136 0 76.2776 12.5201 955 58.7927 1029.73 508.839
2137 0 76.175 13.9678 1064 58.4474 1029.45 503.664
2138 0 80.3764 13.1755 1059 59.0529 1028.97 504.022
2139 0 82.2441 11.3929 937 61.1676 1028.68 503.92
2140 0 87.3642 12.3391 1078 60.397 1029.09 498.855
2141 0 87.2957 11.3751 993 61.4995 1029.1 501.139
2142 0 93.264 12.2234 1140 60.664 1029.18 496.559
2143 0 95.2647 13.2368 1261 59.8485 1029.05 497.25
2144 1 52.3373 13.0309 682 58.3226 1029.42 521.965
2145 0 52.3526 11.9192 624 60.4551 1029.58 519.043
2146 0 55.3564 12.2479 678 58.6917 1028.57 522.544
2147 0 55.1627 13.3967 739 59.4141 1028.8 514.108
2148 0 57.4039 11.9156 684 60.8099 1029.04 513.58
2149 0 61.2538 13.5665 831 58.7774 1028.68 510.102
2150 0 62.1815 12.5439 780 59.6103 1028.87 514.463
2151 0 65.2373 12.4162 810 59.5383 1029.44 513.862
2152 0 66.0768 13.8021 912 59.091 1029.13 508.393
2153 0 68.136 14.3096 975 58.56 1029.33 508.288
2154 0 70.1963 14.3312 1006 58.3231 1029.3 508.763
2155 0 71.1978 13.1605 937 59.3789 1029.55 507.641
2156 0 75.2266 12.5886 947 60.0011 1028.98 502.562
2157 0 76.2196 11.0733 844 61.4645 1029.4 501.597
2158 0 81.0849 12.7891 1037 59.6017 1029.34 503.051
2159 0 84.1447 14.4156 1213 57.9143 1029.41 502.334
2160 0 86.0803 14.1612 1219 58.662 1029.05 495.988
2161 0 88.1863 12.655 1116 59.9436 1029.09 498.497
2162 0 91.1346 11.675 1064 61.0094 1029.33 496.871
2163 0 96.2364 12.1368 1168 60.2158 1028.92 495.09
2164 0 101.248 13.5015 1367 58.4631 1029.28 496.44
2165 1 49.2002 13.9024 684 57.4196 1029.77 520.654
2166 0 49.1402 12.9426 636 59.1462 1029.8 519.398
2167 0 49.2127 11.1963 551 60.7931 1029.83 517.563
2168 0 52.0315 12.3771 644 59.75 1029.62 517.141
2169 0 53.1632 13.5808 722 58.0374 1029.59 516.019
2170 0 55.0824 11.3285 624 60.5465 1030.51 516.224
2171 0 55.165 12.4173 685 59.565 1029.29 513.349
2172 0 59.1486 12.3756 732 59.2814 1029.3 512.982
2173 0 62.2856 10.3716 646 60.1409 1029.47 514.201
2174 0 66.093 12.1344 802 59.1895 1029.4 509.387
2175 0 64.1374 12.2394 785 59.6688 1029.98 506.571
2176 0 70.1928 13.8333 971 57.4882 1029.8 510.216
2177 0 71.2731 12.3609 881 59.4143 1029.79 505.372
2178 0 74.3893 12.2329 910 59.2912 1030.03 507.979
2179 0 78.1241 12.5185 978 58.5982 1029.81 505.108
2180 0 80.2063 13.0912 1050 58.5667 1029.66 505.828
2181 0 84.3382 13.0546 1101 58.4124 1029.4 501.754
2182 0 86.1991 14.8725 1282 57.1802 1029.39 500.881
2183 0 88.1934 12.4045 1094 59.7267 1030.06 498.783
2184 0 93.2516 12.0641 1125 59.7218 1028.98 499.628
2185 1 47.1495 12.98 612 57.3758 1029.52 522.008
2186 0 47.1098 10.9319 515 60.6039 1029.18 518.977
2187 0 51.1928 12.7166 651 57.6421 1029.33 520.143
2188 0 54.3929 13.476 733 56.8758 1029.76 519.06
2189 0 51.118 10.5247 538 61.3662 1029.36 515.245
2190 0 54.2111 12.5989 683 58.9912 1029.38 517.455
2191 0 58.1595 13.3942 779 58.113 1029.15 513.329
2192 0 61.1022 15.7441 962 55.7474 1029.43 515.401
2193 0 60.0672 14.3672 863 57.7416 1029.13 513.246
2194 0 63.148 14.664 926 57.2257 1028.54 513.529
2195 0 65.0741 13.0774 851 58.9671 1029.06 512.827
2196 0 70.5153 15.5285 1095 55.7333 1028.46 514.578
2197 0 69.1868 13.4997 934 58.9636 1029.32 512.736
2198 0 72.3124 13.898 1005 58.8736 1029.79 511.105
2199 0 76.238 11.8445 903 60.33 1030.45 511.957
2200 0 79.226 13.1649 1043 59.5724 1029.66 511.106
2201 0 79.3588 12.1726 966 61.2008 1029.04 509.975
2202 0 81.1604 12.8511 1043 61.2828 1029.37 505.386
2203 0 85.6374 12.9149 1106 61.1528 1029.12 505.588
2204 0 88.1988 15.227 1343 59.3619 1029.27 502.299
2205 0 89.1299 11.8254 1054 63.2552 1029.15 504.285
2206 0 90.1783 14.1941 1280 61.5797 1029.73 502.554
2207 0 93.376 12.7442 1190 63.4647 1029.56 498.249
2208 0 97.159 13.1537 1278 63.0532 1029.17 498.696
2209 1 49.1148 11.8702 583 63.4957 1029.61 519.262
2210 0 51.1779 12.818 656 63.1357 1029.34 519.108
2211 0 53.2036 13.1006 697 62.8149 1029.49 522.294
2212 0 57.5524 11.7458 676 63.8772 1029.49 520.145
2213 0 59.5416 14.175 844 61.423 1029.42 520.522
2214 0 57.1057 13.9741 798 63.1779 1029.72 516.91
2215 0 59.2197 14.2858 846 62.3369 1029.7 519.151
2216 0 63.2488 12.3164 779 64.2452 1029.67 515.917
2217 0 65.2521 11.4019 744 65.8199 1029.43 513.827
2218 0 64.2328 13.3577 858 64.6608 1029.85 510.978
2219 0 67.1222 14.2129 954 63.7809 1028.87 509.286
2220 0 71.123 14.6226 1040 62.7933 1028.77 511.409
2221 0 73.3262 11.142 817 67.2889 1028.92 507.676
2222 0 73.1149 14.9901 1096 64.0429 1029.26 505.822
2223 0 78.1206 11.6231 908 65.6707 1029.15 510.798
2224 0 81.0864 13.1711 1068 65.3895 1029.38 506.816
2225 0 80.1014 11.6353 932 67.882 1029.53 505.273
2226 0 91.295 13.7357 1254 64.6132 1029.35 504.344
2227 0 91.1712 13.6447 1244 65.2613 1029.76 504.24
2228 1 46.3007 11.5117 533 65.8762 1029.19 524.976
2229 0 47.1334 13.7907 650 63.5492 1028.9 525.783
2230 0 48.0917 13.2039 635 64.0362 1029.48 525.74
2231 0 48.1459 12.1921 587 66.7547 1030.21 522.38
2232 0 51.1935 14.5331 744 63.6667 1030.15 523.922
2233 0 52.3052 12.0447 630 66.9429 1030.04 521.338
2234 0 52.3619 13.3303 698 65.6576 1029.72 522.063
2235 0 54.1881 13.2871 720 66.2333 1030.23 522.103
2236 0 59.2546 13.9398 826 65 1029.89 519.447
2237 0 60.3793 15.3695 928 63.3179 1030.11 519.928
2238 0 58.229 11.4548 667 67.5862 1029.98 521.259
2239 0 63.368 11.3464 719 69.0334 1030.68 515.388
2240 0 66.3639 11.6479 773 68.4541 1029.94 516.179
2241 0 67.2944 12.7945 861 67.1928 1030.5 516.585
2242 0 67.119 12.2022 819 69.0061 1030.18 512.558
2243 0 72.519 13.4861 978 67.2382 1030.19 510.233
2244 0 74.1936 12.3865 919 68.5452 1029.31 513.048
2245 0 76.2131 12.6225 962 68.9033 1029.66 509.897
2246 0 78.2171 12.4781 976 68.7664 1029.62 507.793
2247 0 80.275 12.7811 1026 68.7953 1030.67 510.202
2248 0 85.3743 13.6575 1166 67.3293 1029.97 506.651
2249 1 45.2524 12.0436 545 67.4734 1030.44 524.928
2250 0 45.4276 11.3367 515 68.8718 1030.7 525.979
2251 0 49.3555 13.0482 644 66.5901 1030.84 524.593
2252 0 48.2939 12.3825 598 68.3562 1030.4 522.625
2253 0 49.5188 11.8743 588 68.3622 1030.2 520.915
2254 0 50.4582 13.1792 665 67.606 1030.69 520.955
2255 0 54.5041 12.2926 670 67.6776 1030.33 521.694
2256 0 57.3065 13.4016 768 65.7865 1030.95 521.456
2257 0 57.2667 12.9569 742 66.9461 1030.7 520.244
2258 0 58.1889 14.7451 858 65.0921 1029.29 519.572
2259 0 60.209 12.4898 752 67.7048 1030.41 516.68
2260 0 62.3319 13.2356 825 66.8473 1029.84 514.342
2261 0 66.2282 14.2084 941 65.5367 1030.16 514.329
2262 0 68.7094 11.5414 793 68.1286 1030.73 513.135
2263 0 68.2568 13.2294 903 66.5592 1030.85 514.401
2264 0 72.2671 13.1318 949 66.2202 1030.22 512.884
2265 0 74.2492 14.8284 1101 64.3669 1030.31 507.574
2266 0 78.3716 13.6529 1070 65.4224 1030.13 510.034
2267 0 81.1234 15.1004 1225 64.1306 1030.25 506.84
2268 0 84.1516 12.3111 1036 66.6081 1030.55 505.269
2269 0 85.2271 12.895 1099 66.5432 1030.38 504.647
2270 0 87.0657 14.4833 1261 64.7129 1030.91 504.242
2271 0 90.2874 12.582 1136 66.8037 1031.34 504.302
2272 1 36.0384 11.349 409 63.6577 1030.63 529.1
2273 0 40.2316 10.5141 423 64.4137 1030.39 527.962
2274 0 40.1692 11.1279 447 64.0492 1030.14 526.698
2275 0 41.1707 13.8448 570 61.6158 1030.51 525.533
2276 0 42.1152 13.3206 561 62.1551 1030.56 526.793
2277 0 40.0188 10.1452 406 66.2734 1030.24 525.212
2278 0 48.2287 11.0515 533 63.2927 1030.24 525.216
2279 0 47.2333 12.3006 581 62.864 1030.42 523.892
2280 0 48.0661 12.8157 616 62.4724 1030.73 519.469
2281 0 47.0646 13.4496 633 62.1106 1030.4 521.951
2282 0 51.1083 13.4029 685 61.2394 1030.16 522.133
2283 0 53.358 12.4817 666 61.8559 1031.04 521.832
2284 0 54.0906 11.5917 627 63.3365 1030.57 516.507
2285 0 55.0981 12.7409 702 62.3305 1030 517.527
2286 0 59.4165 11.9495 710 62.6352 1030.85 517.501
2287 0 58.1169 13.0599 759 61.9236 1030.06 516.638
2288 0 62.2354 12.3884 771 62.2802 1030.29 516.301
2289 0 62.0673 14.1782 880 60.9739 1030.29 515.56
2290 0 61.3458 10.4816 643 65.2924 1030.39 511.222
2291 0 66.1413 13.8189 914 61.7035 1030.42 512.329
2292 0 66.1934 11.7988 781 63.8207 1029.99 510.353
2293 0 69.1888 13.1958 913 62.0756 1030.56 511.732
2294 0 71.1634 10.8904 775 64.6361 1030.63 508.452
2295 0 72.1701 11.5006 830 64.7313 1030.85 504.231
2296 0 77.2959 14.5545 1125 61.2267 1030.17 505.42
2297 0 80.2738 11.9217 957 63.7816 1030.7 500.693
2298 0 81.0374 12.8829 1044 63.2174 1030.38 504.185
2299 0 84.2727 12.6257 1064 63.0696 1030.85 499.395
2300 0 84.1279 11.0665 931 64.3362 1030.63 499.437
2301 0 92.3496 14.0661 1299 61.0293 1030.98 499.691
2302 0 90.1173 11.6737 1052 64.1103 1030.9 495.579
2303 0 96.2517 13.1634 1267 62.4349 1030.65 494.277
2304 1 44.186 13.4658 595 60.9681 1030.58 523.76
2305 0 44.0792 11.3659 501 63.5409 1031.21 523.463
2306 0 47.1344 11.6475 549 63.9271 1031.56 519.311
2307 0 48.0848 12.374 595 63.6756 1031.77 519.553
2308 0 50.0525 12.5268 627 63.5726 1030.27 517.989
2309 0 53.0526 12.252 650 63.5246 1031.17 517.588
2310 0 54.2162 12.1735 660 63.6136 1030.67 515.768
2311 0 57.1815 14.3753 822 61.5024 1030.94 517.807
2312 0 56.0992 14.4922 813 62.0996 1030.7 515.686
2313 0 59.1329 12.937 765 63.5059 1031.06 514.88
2314 0 61.3001 12.9527 794 63.539 1031.79 514.137
2315 0 61.3677 13.688 840 62.9024 1031.87 512.996
2316 0 64.0535 14.3318 918 62.7658 1030.49 510.3
2317 0 67.1065 14.4993 973 62.0627 1030.3 509.28
2318 0 68.2144 12.9152 881 64.143 1030.39 508.471
2319 0 73.0536 14.7974 1081 61.9371 1030.27 505.216
2320 0 77.084 15.2431 1175 60.9455 1031.24 506.861
2321 0 79.113 13.4618 1065 62.5596 1030.53 506.26
2322 0 81.2832 13.9389 1133 62.0971 1030.98 505.362
2323 0 85.1672 14.3248 1220 61.9041 1031.2 501.198
2324 0 88.0685 12.7628 1124 63.2936 1031.21 499.622
2325 0 92.3402 14.1109 1303 61.7544 1031.18 500.52
2326 0 93.2465 14.8745 1387 61.2769 1031.33 498.137
2327 0 95.2296 11.11 1058 65.0586 1031.34 497.541
2328 0 101.224 15.3915 1558 60.8107 1031.71 496.279
2329 0 104.129 13.4161 1397 62.6922 1030.93 490.942
2330 1 56.1307 10.6359 597 64.0687 1030.1 517.221
2331 0 58.1512 13.6541 794 61.4257 1030.04 519.346
2332 0 58.0499 11.6624 677 63.8257 1030.01 516.573
2333 0 61.2262 14.0299 859 61.6903 1030.98 515.987
2334 0 63.1441 14.4748 914 61.1204 1030.22 514.445
2335 0 65.1601 14.7176 959 60.8665 1029.87 514.931
2336 0 65.3698 11.5803 757 63.7583 1030.7 515.505
2337 0 68.0431 13.8883 945 62.5037 1030.12 511.533
2338 0 72.2706 12.9375 935 62.8021 1030.74 512.179
2339 0 72.0966 12.8855 929 63.0065 1030.88 509.546
2340 0 76.072 13.1454 1000 62.491 1030.64 506.47
2341 0 81.209 13.1143 1065 62.2178 1030.56 508.535
2342 0 83.1713 14.4641 1203 60.4988 1030.04 508.883
2343 0 86.0395 14.2028 1222 60.8273 1030.21 506.783
2344 0 90.3477 13.4148 1212 61.4117 1030.86 506.189
2345 0 93.0968 13.1476 1224 62.3284 1029.89 499.395
2346 0 97.1307 13.4046 1302 61.6574 1030.33 497.37
2347 1 51.2988 12.0276 617 62.0519 1030.01 519.572
2348 0 52.1346 13.1966 688 61.5596 1029.56 519.789
2349 0 58.0623 13.5889 789 56.0279 1029.85 520.255
2350 0 57.1857 12.3457 706 56.0241 1030.37 515.915
2351 0 56.1332 12.7554 716 55.7598 1030.54 515.392
2352 0 62.1391 13.1157 815 54.1755 1029.73 517.032
2353 0 63.1695 11.0496 698 56.596 1030.01 513.683
2354 0 65.2204 14.658 956 53.8379 1030.3 513.616
2355 0 65.1491 13.9986 912 54.5548 1030.31 510.853
2356 0 71.082 14.6028 1038 53.7023 1030.37 512.878
2357 0 71.2417 13.8823 989 54.8645 1030.39 509.722
2358 0 75.146 12.3759 930 55.7806 1030.33 510.196
2359 0 80.1776 12.8465 1030 55.4233 1030.4 505.33
2360 0 78.214 14.5243 1136 54.9349 1030.7 502.497
2361 0 82.3622 12.1294 999 56.5055 1030.1 504.199
2362 0 86.0888 12.9053 1111 55.7507 1030.65 506.125
2363 0 86.2788 14.2793 1232 55.5909 1030.57 504.19
2364 0 90.1896 14.4473 1303 55.759 1030.15 498.908
2365 0 93.1859 12.6736 1181 57.4251 1030.4 499.24
2366 0 93.2287 15.8749 1480 55.5257 1029.92 497.309
2367 0 95.1129 12.1014 1151 59.4075 1030.88 495.921
2368 0 97.2212 13.6081 1323 58.517 1030.2 494.828
2369 0 100.107 13.5155 1353 59.1973 1029.78 491.334
2370 0 100.18 15.1528 1518 58.6515 1030.01 489.78
2371 0 102.163 11.4817 1173 62.3197 1031.2 488.012
2372 0 104.149 12.943 1348 61.8034 1030.79 490.899
2373 0 109.109 14.041 1532 61.4112 1030.96 487.618
2374 1 121.245 14.6727 1779 59.8628 1030.86 490.422
2375 0 126.233 15.8912 2006 59.1246 1031.52 489.413
2376 0 130.192 16.5217 2151 59.3036 1030.79 488.251
2377 0 128.246 14.3084 1835 62.491 1030.56 489.121
2378 0 131.463 15.5861 2049 62.2631 1030.54 487.899
2379 0 131.315 16.0149 2103 63.1388 1030.47 487.183
2380 0 134.188 16.6334 2232 62.7186 1031.09 479.899
2381 0 133.304 18.6491 2486 61.1862 1030.37 486.521
2382 0 141.418 18.0599 2554 62.155 1030.5 483.395
2383 0 141.471 15.77 2231 66.1591 1030.52 481.712
2384 0 145.228 17.5104 2543 64.6001 1031.2 481.043
2385 0 149.173 16.3569 2440 66.1344 1030.71 482.141
2386 0 146.384 16.0332 2347 68.5138 1030.85 479.55
2387 0 148.198 16.208 2402 69.0982 1030.84 478.436
2388 0 151.159 15.6457 2365 70.9514 1031.15 475.06
2389 0 156.594 17.3634 2719 68.6182 1031.57 474.653
2390 0 158.365 17.0051 2693 70.0278 1031.01 475.635
2391 0 157.31 17.5195 2756 70.4311 1031.62 472.556
2392 0 159.173 16.6046 2643 73.1426 1031.44 470.436
2393 0 161.398 16.3075 2632 74.0076 1032.53 474.556
2394 0 164.25 16.3105 2679 75.3546 1032.65 469.966
2395 0 164.372 16.9494 2786 75.524 1032.55 467.564
2396 0 168.356 17.4155 2932 74.6531 1032.5 470.035
2397 0 169.364 18.0321 3054 75.2102 1032.93 464.975
2398 0 171.975 17.9445 3086 75.6183 1033.1 468.35
2399 0 170.491 16.3117 2781 79.6185 1032.26 468.051
2400 0 167.383 16.7818 2809 70.7558 1032.43 462.754
2401 0 163.56 16.0919 2632 72.1717 1032.77 465.214
2402 0 162.323 15.3029 2484 73.3853 1033.08 466.369
2403 0 163.482 18.1243 2963 70.4134 1032.32 466.318
2404 0 157.292 16.0974 2532 73.8839 1032.29 467.231
2405 0 158.537 16.4946 2615 73.0864 1032.35 464.5
2406 0 156.64 15.4431 2419 75.3807 1032.39 465.528
2407 0 155.444 15.8449 2463 75.2623 1032.03 464.817
2408 0 153.338 15.6648 2402 75.4796 1032.42 466.633
2409 0 151.638 13.3673 2027 74.0173 1032.54 470.682
2410 0 150.422 14.918 2244 72.4528 1031.75 471.963
2411 0 149.463 13.0935 1957 75.5422 1031.97 467.603
