time division length width area intensity CMx CMy
0 0 56.0502 13.3095 746 59.5509 1266.56 514.716
1 0 56.0721 13.6253 764 58.9175 1266.62 515.645
2 0 57.0231 12.1179 691 60.5919 1266 515.757
3 0 59.0822 12.745 753 59.842 1265.73 514.699
4 0 62.0821 14.5614 904 56.8086 1266.08 516.117
5 0 61.1266 12.2205 747 60.2932 1266.27 514.035
6 0 63.1063 13.6119 859 58.943 1266.1 514.001
7 0 64.0886 13.2161 847 59.6222 1265.13 512.357
8 0 67.0612 14.3749 964 57.8589 1265.65 513.423
9 0 68.1525 14.2768 973 58.3947 1265.34 514.085
10 0 68.1525 14.2768 973 141.774 1265.34 514.012
11 0 71.0975 12.6024 896 61.0714 1264.98 513.557
12 0 73.1448 13.1383 961 61.0073 1265.1 512.202
13 0 73.114 13.773 1007 60.9831 1265.48 509.34
14 0 74.1025 12.3208 913 62.4304 1264.41 513.526
15 0 76.2577 12.6545 965 62.5751 1264.39 512.518
16 0 80.1116 12.8071 1026 63.2047 1264.85 509.092
17 0 82.1448 12.5875 1034 64.1692 1264.63 507.517
18 0 86.0692 13.1057 1128 63.3652 1265.22 507.527
19 0 87.1064 14.3962 1254 61.3931 1265.36 511.673
20 0 88.1258 14.4453 1273 62.597 1264.89 507.194
21 0 90.1382 12.8026 1154 64.7288 1264.2 508.558
22 0 91.1023 11.7121 1067 66.4864 1264.34 506.688
23 1 49.0566 12.3123 604 65.9454 1264.56 524.909
24 0 48.1441 11.8394 570 67.7316 1264.84 524.184
25 0 51.1192 11.8742 607 67.9489 1264.65 521.367
26 0 52.0844 12.3262 642 67.5016 1265.1 521.802
27 0 54.0182 12.4217 671 67.225 1265.46 522.514
28 0 56.0922 13.7809 773 65.7529 1265.09 521.141
29 0 57.0284 12.7656 728 67.9451 1265.23 518.505
30 0 61.0769 14.7519 901 65.0022 1265.7 516.532
31 0 61.0871 12.8669 786 67.8155 1264.38 517.767
32 0 63.0554 12.6555 798 68.6967 1265.01 515.981
33 0 66.0185 13.572 896 67.2656 1265.65 515.362
34 0 69.029 13.067 902 67.3891 1265.55 515.313
35 0 72.0619 13.6549 984 67.561 1266.09 512.786
36 0 73.0398 11.5143 841 70.0285 1265.42 513.493
37 0 75.0697 13.0545 980 67.9041 1265.69 514.869
38 0 77.053 13.2247 1019 69.5054 1266.23 509.196
39 1 37.0517 10.4179 386 69.8601 1266.46 530.785
40 0 39.0819 10.2349 400 71.69 1265.98 528.555
41 0 40.0518 11.4851 460 69.7587 1265.74 528.493
42 0 41.0275 11.6507 478 70.2092 1266.28 527.31
43 0 43.0509 12.9149 556 69.1996 1266.62 525.941
44 0 42.0986 11.6393 490 71.9612 1266.59 525.363
45 0 45.0503 10.8545 489 72.0491 1266.1 524.845
46 0 45.0257 11.3713 512 71.334 1265.79 526.342
47 0 48.0685 11.2964 543 70.8177 1266.82 525.652
48 0 49.0289 11.2995 554 71.0181 1267.22 524.863
49 0 51.0281 12.013 613 70.7015 1266.08 523.773
50 0 53.0565 12.5715 667 69.961 1266.66 522.106
51 0 55.0376 11.9736 659 70.4173 1266.57 522.093
52 0 55.04 12.391 682 70.4457 1266.57 520.084
53 0 59.1298 12.5825 744 70.3105 1266.4 518.155
54 0 62.1677 13.351 830 68.9771 1266.32 517.199
55 0 61.0747 11.8707 725 71.6662 1266.83 518.051
56 0 66.0559 12.9436 855 69.7906 1266.48 516.228
57 0 68.0451 13.1677 896 70.2578 1266.58 514.362
58 0 70.1269 12.5059 877 71.8221 1266.4 513.591
59 0 72.0586 13.0727 942 70.8662 1267.48 513.081
60 1 38.0804 10.5041 400 72.08 1267.8 528.548
61 0 39.0441 11.9352 466 69.8262 1267.98 529.777
62 0 40.0301 11.6412 466 72.2468 1267.5 527.727
63 0 44.0572 13.4825 594 68.7694 1267.69 526.316
64 0 44.068 11.6865 515 71.9146 1267.4 525.93
65 0 44.1322 12.304 543 71.9429 1266.97 524.3
66 0 46.1003 11.5617 533 73.1069 1266.86 524.544
67 0 48.1614 11.3369 546 72.7143 1266.7 523.993
68 0 49.0333 11.8899 583 73.2521 1266.25 522.11
69 0 51.024 13.6015 694 70.719 1266.75 522.592
70 0 53.0817 11.925 633 72.891 1267.28 521.896
71 0 55.0964 11.2712 621 73.6602 1267.46 521.122
72 0 55.0208 12.5952 693 71.987 1267.22 519.837
73 0 56.0489 11.4364 641 74.1544 1266.42 518.814
74 0 59.0311 12.5696 742 72.0633 1265.92 519.156
75 0 62.0268 12.9783 805 71.4994 1265.99 516.57
76 0 63.0525 12.6561 798 72.4799 1266.85 515.036
77 0 66.0342 13.5081 892 71.1928 1266.45 514.463
78 0 70.0492 13.9902 980 69.3622 1266.54 514.809
79 0 70.0509 12.4338 871 72.4638 1266.47 513.3
80 0 71.0564 10.8505 771 74.8677 1266.84 513.515
81 0 73.1468 12.6458 925 72.7146 1267.05 513.416
82 1 41.0249 11.7246 481 71.5426 1267.12 529.239
83 0 41.0583 12.1047 497 72.4085 1267.68 528.604
84 0 42.0314 12.11 509 71.9175 1267.04 528.642
85 0 43.0267 11.5742 498 72.3072 1266.74 528.474
86 0 43.058 13.2612 571 71.1821 1267.23 525.984
87 0 44.0099 11.861 522 72.5881 1267.03 526.603
88 0 48.0401 12.0108 577 72.4402 1266.54 524.135
89 0 48.0556 12.8809 619 71.7221 1266.45 523.535
90 0 47.0406 12.3298 580 74.031 1266.71 523.645
91 0 52.0643 12.8111 667 71.4993 1266.87 524.724
92 0 52.0166 12.496 650 73.22 1267.09 522.546
93 0 50.0335 11.1525 558 75.6272 1267.08 521.505
94 0 55.0196 12.65 696 72.3333 1267.39 519.912
95 0 56.0292 13.368 749 72.2003 1266.94 517.547
96 0 58.0614 12.1423 705 73.2638 1267.26 520.055
97 0 59.0368 12.145 717 73.5914 1267.26 517.763
98 0 62.1557 12.7422 792 72.8043 1267.1 517.991
99 0 62.0964 12.6416 785 73.8841 1266.51 515.823
100 0 64.0244 12.7764 818 73.9095 1266.86 514.009
101 0 67.0629 11.5116 772 75.5168 1266.49 515.412
102 0 70.0633 12.4744 874 74.4039 1266.89 511.874
103 0 73.055 13.1408 960 73.375 1267.17 510.482
104 1 38.0206 10.5732 402 74.199 1267 527.246
105 0 37.0415 10.0428 372 75.0618 1267.03 527.409
106 0 39.0435 10.4243 407 74.3489 1266.72 526.216
107 0 41.0796 12.4149 510 71.6745 1267.14 524.114
108 0 41.0288 11.7966 484 73.7624 1266.44 522.128
109 0 43.0256 11.4815 494 73.5729 1266.72 522.67
110 0 46.0265 11.5151 530 72.8906 1267.22 522.204
111 0 46.0434 11.9453 550 72.64 1267.27 520.473
112 0 48.0189 12.9324 621 69.9694 1266.89 521.519
113 0 50.0984 12.0164 602 72.4651 1267.01 518.402
114 0 50.0313 11.4928 575 73.3687 1266.87 517.863
115 0 51.0561 12.2023 623 72.2472 1266.57 517.507
116 0 53.0423 11.8773 630 71.9683 1267.05 519.57
117 0 55.0619 12.9309 712 70.0857 1267.41 515.588
118 0 57.0584 11.2166 640 72.55 1267.76 515.775
119 0 58.0544 11.3686 660 72.0758 1267.85 513.977
120 0 61.1179 12.7131 777 68.6705 1267.67 514.942
121 0 64.05 12.5995 807 69.0322 1266.9 512.444
122 0 65.1021 10.7523 700 71.7029 1266.8 511.907
123 0 66.1418 12.1708 805 69.8745 1266.79 508.527
124 0 69.1217 10.7781 745 70.7557 1266.14 510.642
125 0 73.1002 11.8878 869 68.1841 1266.22 510.428
126 0 72.0724 11.9879 864 69.1794 1266.52 506.708
127 1 37.0732 9.92632 368 68.5978 1267.44 524.783
128 0 40.0598 10.8088 433 66.4042 1266.38 523.991
129 0 39.055 9.19216 359 67.9081 1266.96 522.891
130 0 40.0529 10.7857 432 65.4329 1267.41 523.669
131 0 41.0605 9.13287 375 66.768 1267.49 522.64
132 0 42.0325 11.729 493 63.7789 1267.11 520.844
133 0 44.0676 9.34928 412 65.2257 1267.27 522.422
134 0 46.0468 10.6631 491 64.2138 1267.84 519.908
135 0 48.043 10.1992 490 63.8 1267.44 520.292
136 0 49.0419 11.1333 546 62.6996 1267.86 519.916
137 0 50.0781 11.0428 553 62.8156 1267.26 517.926
138 0 51.0989 10.5482 539 62.3989 1267.71 519.243
139 0 53.061 11.3077 600 62.1017 1267.26 515.872
140 0 56.0631 11.7546 659 61.3247 1267.2 514.618
141 0 58.0927 10.5693 614 62.1498 1267.37 515.85
142 0 57.071 10.8987 622 62.6222 1267.89 513.347
143 0 59.0994 10.237 605 63.6694 1267.23 511.453
144 0 61.0629 9.74406 595 63.7916 1267.03 512.946
145 0 63.0452 10.9445 690 62.0623 1267.37 509.104
146 0 66.1053 10.453 691 62.3647 1267.08 510.699
147 0 66.0868 10.4106 688 62.9797 1266.7 508.172
148 0 70.0595 10.2484 718 62.7925 1266.83 508.011
149 0 72.0486 10.0765 726 63.062 1267.12 507.635
150 0 75.1717 11.4804 863 61.2549 1267.07 506.764
151 0 79.1311 11.5125 911 61.3699 1267.37 505.203
152 1 37.0238 9.8045 363 62.0193 1266.76 522.482
153 0 38.0311 8.54563 325 62.8277 1267.22 523.215
154 0 40.0166 9.34613 374 61.754 1266.75 523.382
155 0 41.0415 9.79496 402 60.4801 1267.3 525.244
156 0 42.0317 9.35009 393 62.3842 1268.11 522.249
157 0 45.0226 10.4614 471 60.1465 1267.73 521.397
158 0 46.0405 10.8166 498 59.6064 1267.67 521.363
159 0 46.0286 9.73309 448 61.8616 1267.4 518.467
160 0 49.0332 11.1965 549 59.9107 1267.17 517.765
161 0 52.045 10.1066 526 60.4563 1266.68 519.278
162 0 50.0538 10.209 511 60.9883 1267.16 517.552
163 0 55.0815 10.8566 598 59.1171 1266.67 518.717
164 0 54.1369 10.8059 585 60.0137 1267.24 517.229
165 0 54.1272 10.4938 568 60.8415 1266.56 514.005
166 0 57.062 12.9333 738 57.4119 1267.59 514.146
167 0 56.0561 10.3289 579 61.1036 1267.38 512.696
168 0 59.1088 9.897 585 60.9863 1267.16 511.699
169 0 61.1255 10.7157 655 59.9145 1266.84 510.742
170 0 63.1025 10.9821 693 59.6306 1267 511.078
171 0 66.0871 12.5138 827 57.4788 1266.97 508.984
172 0 68.1396 11.7846 803 58.3587 1267.23 509.748
173 0 68.1265 10.8475 739 60.4465 1267.17 508.238
174 0 71.1621 11.5511 822 59.3382 1266.81 508.639
175 0 74.1486 11.3421 841 59.352 1267.39 507.314
176 0 72.1435 10.493 757 61.2576 1267.69 503.985
177 0 75.2137 10.4502 786 61.5254 1268.21 503.79
178 0 78.297 10.8306 848 60.9658 1268.56 506.675
179 0 79.0738 9.94008 786 62.8486 1267.37 502.417
180 0 83.1756 11.3735 946 60.2294 1267.37 504.952
181 1 54.1738 10.7801 584 61.2329 1267.05 518.613
182 0 54.1705 10.5777 573 62.5846 1266.93 517.38
183 0 56.0768 9.84364 552 63.3424 1266.42 518.687
184 0 58.1007 13.0119 756 60.6005 1266.13 513.565
185 0 59.1382 11.4985 680 63.0691 1266.28 514.772
186 0 62.0961 12.9316 803 61.1806 1266.54 513.89
187 0 63.1541 11.5907 732 62.7036 1266.29 515.724
188 0 64.0367 11.5871 742 64.2035 1265.52 512.119
189 0 66.0616 11.1108 734 64.8379 1264.96 511.452
190 0 69.0956 11.9979 829 63.5259 1264.42 508.157
191 0 71.13 12.2733 873 62.8923 1264.16 511.749
192 0 71.1627 10.9748 781 65.1293 1263.78 510.195
193 0 76.1791 14.0196 1068 60.6114 1263.57 510.02
194 0 75.1442 12.1766 915 63.9235 1263.72 507.101
195 0 80.1991 12.9802 1041 62.2632 1264.15 508.021
196 0 82.1346 12.7717 1049 63.0572 1264.11 506.246
197 0 85.1851 12.4552 1061 63.5467 1263.85 504.328
198 0 88.0885 13.5091 1190 62.0328 1263.66 505.086
199 0 88.1141 12.5859 1109 64.1722 1263.62 502.729
200 0 91.1822 13.3798 1220 63.1754 1263.53 502.585
201 0 94.231 13.2122 1245 63.8707 1264.1 499.791
202 0 96.1779 11.9154 1146 65.5305 1263.18 499.565
203 0 100.12 15.1517 1517 60.9822 1263.16 497.968
204 0 104.222 13.0394 1359 64.0986 1263.34 497.714
205 0 106.128 13.022 1382 64.2735 1263.58 495.916
206 0 109.221 12.3145 1345 64.9636 1263.25 497.283
207 0 111.199 13.5523 1507 63.9177 1261.64 491.475
208 0 116.239 12.5173 1455 65.2165 1261.73 492.263
209 0 119.094 12.931 1540 65.1799 1262.29 489.06
210 0 122.203 13.1503 1607 64.4312 1262.19 491.579
211 1 62.2555 11.7259 730 63.0411 1261.85 521.788
212 0 64.297 11.9757 770 63.3039 1261.32 517.709
213 0 64.1752 14.1176 906 61.1214 1261.93 518.437
214 0 67.085 12.0891 811 63.7768 1261.22 516.958
215 0 70.1369 12.6467 887 62.5175 1260.77 516.143
216 0 69.1195 12.312 851 63.7568 1260.99 514.98
217 0 71.1397 12.37 880 63.4545 1260.97 514.8
218 0 73.2021 12.3084 901 63.5949 1261.33 513.819
219 0 75.1361 11.6455 875 64.184 1260.05 512.487
220 0 78.1388 12.465 974 63.3008 1260.52 508.92
221 0 80.2093 11.657 935 64.1604 1260.31 508.003
222 0 80.1123 10.71 858 66.0606 1259.78 507.319
223 0 85.1051 12.7959 1089 62.9128 1261.23 506.181
224 0 86.1362 10.2744 885 65.4712 1260.96 506.695
225 0 90.1476 11.814 1065 63.8254 1261.02 501.546
226 0 93.219 11.3067 1054 64.0797 1260.88 502.445
227 0 96.2 11.1642 1074 64.0028 1259.81 498.62
228 1 39.0132 9.79156 382 59.4634 1260.35 528.173
229 0 39.0758 9.64791 377 61.0477 1260.68 528.247
230 0 41.0884 9.2727 381 61.4514 1261.23 527.021
231 0 45.0602 10.0754 454 60.7026 1260.83 524.54
232 0 43.0909 10.7215 462 60.4762 1261.42 524.645
233 0 47.0947 11.8697 559 58.5295 1261.88 524.148
234 0 49.1081 11.9939 589 58.0543 1261.95 524.246
235 0 48.093 10.75 517 62.0039 1261.55 521.64
236 0 50.0662 11.4448 573 60.9127 1261.4 520.707
237 0 49.1471 10.1939 501 63.1617 1261.23 519.373
238 0 53.1145 11.4093 606 60.8053 1261.6 518.211
239 0 53.0665 9.98747 530 62.3283 1261.92 517.932
240 0 57.0438 11.8155 674 60.0608 1262.18 517.472
241 0 59.0692 12.2568 724 59.2307 1261.49 515.004
242 0 61.062 12.3972 757 58.7305 1261.31 515.469
243 0 64.0409 11.0554 708 59.791 1261.62 515.792
244 0 65.0638 11.2966 735 59.9293 1261.45 514.024
245 0 66.0735 11.0937 733 60.6207 1261.13 512.518
246 0 65.0652 10.0361 653 61.9724 1261.94 511.409
247 0 70.0539 11.7766 825 59.497 1261.58 510.263
248 0 73.0636 11.6474 851 59.4724 1262.31 510.623
249 0 74.0718 11.2053 830 59.9181 1262.37 509.865
250 0 74.133 9.71227 720 61.6653 1262.35 509.644
251 0 79.0821 11.2668 891 58.9405 1261.88 508.921
252 0 81.1848 10.1743 826 59.9177 1262.42 509.199
253 0 84.207 10.8305 912 59.1075 1262.72 508.709
254 1 43.035 8.83003 380 58.8211 1263.74 527.547
255 0 43.0869 9.6549 416 56.9399 1263.96 528.276
256 0 45.0264 9.9053 446 56.4238 1263.06 528.392
257 0 48.1142 12.0131 578 54.3547 1262.98 524.891
258 0 48.0365 9.47196 455 57.4923 1263.22 524.743
259 0 47.0318 9.61051 452 57.7765 1263.23 524.958
260 0 49.0429 10.6234 521 56.6833 1263.18 524.514
261 0 52.019 10.1694 529 57.104 1262.53 523.696
262 0 52.0636 11.486 598 55.5702 1262.99 524.309
263 0 55.0462 11.1906 616 55.7776 1262.74 522.479
264 0 57.1277 10.9754 627 56.429 1262.65 519.7
265 0 57.0559 9.88504 564 57.5798 1263.02 518.637
266 0 60.045 9.19311 552 57.7663 1262.89 520.293
267 0 62.1052 9.70932 603 57.1741 1262.53 519.715
268 0 65.0562 9.77616 636 57.1572 1262.91 518.623
269 0 67.0725 11.7932 791 54.9949 1262.32 517.389
270 0 67.0328 10.5918 710 56.9423 1262.24 516.323
271 0 68.1595 10.358 706 56.7011 1261.94 515.453
272 0 70.151 11.3469 796 55.5503 1261.5 513.317
273 0 74.1545 8.6576 642 57.919 1261.51 515.329
274 0 74.0458 10.4125 771 56.9598 1261.12 511.576
275 1 37.042 12.0134 445 54.182 1261.61 530.479
276 0 38.0232 9.83609 374 56.2888 1262.22 530.925
277 0 41.063 10.9588 450 54.4089 1262.07 532.584
278 0 40.0631 10.9827 440 55.9545 1261.23 530.88
279 0 41.08 11.2707 463 55.7084 1260.97 530.553
280 0 42.1125 8.21609 346 59.0145 1261.1 529.803
281 0 46.0781 11.3069 521 55.2706 1261.11 528.962
282 0 46.062 10.4207 480 57.1167 1261.28 528.942
283 0 50.1229 12.2898 616 55.1234 1261.04 527.911
284 0 50.04 11.211 561 56.5775 1260.81 527.522
285 0 49.0482 10.9076 535 58.0187 1260.37 525.396
286 0 52.0271 12.7626 664 55.5934 1260 526.446
287 0 54.0506 10.1571 549 59.1785 1260.16 524.24
288 0 53.0911 11.2448 597 58.459 1260.19 523.444
289 0 56.0585 12.8616 721 56.8044 1259.39 522.24
290 0 58.045 13.3862 777 56.3591 1259.71 521.165
291 0 58.0481 11.077 643 59.4868 1259.78 523.418
292 0 61.047 11.1226 679 59.1252 1259.44 523.454
293 0 63.0764 12.255 773 58.1009 1259.44 520.931
294 0 64.0844 13.3886 858 57.5082 1259.48 517.502
295 0 67.0783 11.9711 803 58.6824 1259.52 520.577
296 0 68.1142 13.1544 896 57.1719 1258.71 516.413
297 0 69.0909 12.3026 850 57.6776 1259.62 518.511
298 0 73.1327 12.4021 907 58.1621 1259.98 514.405
299 0 76.1524 12.7901 974 57.4877 1259.3 515.529
300 0 75.2217 11.5791 871 59.535 1259.27 512.598
301 0 78.1202 10.9447 855 59.7895 1259.22 513.035
302 1 38.043 10.6459 405 57.3012 1259.65 533.035
303 0 39.0656 11.2887 441 57.1519 1259.82 529.413
304 0 41.0163 11.3369 465 56.5785 1259.58 530.327
305 0 40.0232 10.8187 433 58.2425 1259.83 530.848
306 0 41.1257 9.7749 402 59.3632 1260.39 529.836
307 0 43.039 11.0597 476 58.4454 1259.64 528.637
308 0 44.2125 11.0602 489 58.5685 1259.6 526.697
309 0 45.0583 11.8291 533 58.2702 1259.47 526.424
310 0 46.0686 12.8938 594 57.2845 1259.18 525.232
311 0 50.0608 12.5847 630 56.6762 1258.93 524.76
312 0 49.1108 12.3191 605 57.8264 1259.22 523.84
313 0 51.0812 11.2174 573 58.8342 1259.3 522.867
314 0 53.03 10.8241 574 59.1237 1258.86 523.206
315 0 52.0494 12.8724 670 57.6597 1258.63 520.888
316 0 54.0508 10.5826 572 60.5052 1259.4 520.923
317 0 55.0365 11.0291 607 59.4152 1258.54 521.446
318 0 56.0531 10.5079 589 60.5195 1259.27 517.756
319 0 58.0147 11.1351 646 59.7152 1259.57 517.139
320 0 58.0569 10.3864 603 61.3035 1259.81 518.499
321 0 63.0833 11.5879 731 59.3926 1260.19 514.722
322 0 64.1492 10.1482 651 61.0676 1260.22 512.65
323 0 67.2628 11.8044 794 59.1008 1259.88 513.499
324 0 67.0425 11.8582 795 59.322 1260.12 511.317
325 0 71.1289 10.9801 781 59.9808 1260.03 511.292
326 0 73.1924 12.6789 928 58.4483 1259.52 507.749
327 1 36.0428 8.46215 305 60.9508 1260.05 528.554
328 0 35.0132 9.22508 323 60.6316 1259.19 527.341
329 0 38.0427 8.25389 314 61.9459 1259.68 525.586
330 0 39.0563 10.8305 423 59.3357 1260.5 524.525
331 0 39.0254 10.6597 416 59.4062 1260.67 524.579
332 0 40.12 10.6182 426 60.1268 1260.58 524.016
333 0 43.0808 7.84572 338 61.8432 1260.24 523.343
334 0 41.0193 6.36286 261 63.2261 1258.75 524.188
335 0 44.1194 9.8596 435 60.1609 1259.65 522.848
336 0 44.0441 9.92188 437 59.9039 1259.38 518.519
337 0 53.1151 12.1434 645 56.8155 1259.09 522.042
338 0 54.0327 10.5492 570 57.5281 1259.76 523.63
339 0 55.0601 11.6055 639 57.2144 1259.81 521.402
340 0 55.0572 11.4063 628 57.2325 1259.39 520.728
341 0 59.0628 12.1227 716 55.9874 1259.67 520.736
342 0 59.1003 11.472 678 57.8599 1260.02 515.493
343 0 62.0817 11.2594 699 57.6066 1258.69 517.372
344 0 64.1582 10.4897 673 58.6048 1259.72 516.689
345 0 66.0756 12.0317 795 57.4403 1259.28 514.708
346 0 67.0994 13.5173 907 56.4289 1260.01 514.69
347 0 70.1401 11.7907 827 58.2358 1259.95 513.816
348 0 73.0731 12.0017 877 58.1881 1259.66 512.071
349 0 75.0669 11.8561 890 58.0888 1259.34 509.999
350 0 77.0746 12.2219 942 58.345 1259.06 510.568
351 1 38.0512 9.80259 373 58.9759 1259.09 528.649
352 0 40.0456 10.2883 412 58.4345 1259.71 527.813
353 0 41.068 10.7139 440 57.95 1259.71 527.941
354 0 44.0469 11.6467 513 57.4113 1259.28 526.663
355 0 42.0522 10.7961 454 59.5529 1259.55 525.394
356 0 47.0671 11.6005 546 58.1832 1259.35 525.462
357 0 46.0795 11.0461 509 59.7564 1259.88 525.081
358 0 47.0383 12.9894 611 57.7316 1259.9 524.262
359 0 50.0211 12.3948 620 57.4048 1259.49 524.639
360 0 52.0641 12.3502 643 57.7512 1260.17 521.79
361 0 54.0668 12.54 678 57.8614 1259.75 521.563
362 0 56.0346 13.0455 731 57.0575 1259.89 520.416
363 0 56.0683 13.323 747 57.5368 1259.26 519.906
364 0 58.038 13.181 765 58.0824 1259.76 516.689
365 0 61.0755 12.46 761 58.2076 1259.49 518.832
366 0 61.0831 11.2797 689 60.1161 1259.44 518.335
367 0 63.0648 11.5595 729 60.0494 1259.2 517.465
368 0 63.0684 11.0356 696 60.921 1259.36 514.44
369 0 67.0556 13.019 873 59.3013 1259.77 513.658
370 0 70.1028 13.1093 919 58.8466 1259.34 512.314
371 0 72.141 13.3766 965 58.3119 1258.68 513.841
372 0 72.0216 10.6218 765 62.119 1259.13 511.608
373 0 75.0779 13.7857 1035 58.5391 1259.79 511.21
374 0 75.0566 11.2981 848 61.941 1260.61 510.061
375 0 79.2398 12.9859 1029 59.9397 1259.62 508.484
376 1 43.017 12.6694 545 57.1853 1259.89 528.611
377 0 39.0535 9.88387 386 61.5829 1260.74 529.878
378 0 40.0139 10.1715 407 62.9975 1260.96 527.656
379 0 42.0478 10.4643 440 62.7136 1260.58 526.034
380 0 45.1216 11.2806 509 60.7191 1260.54 526.888
381 0 46.0139 9.10595 419 63.716 1259.86 527.186
382 0 48.143 11.632 560 60.9625 1259.9 525.804
383 0 49.0553 12.7407 625 59.936 1260.1 524.654
384 0 51.0738 11.454 585 61.4051 1259.83 522.627
385 0 53.0191 11.543 612 60.8203 1259.25 525.085
386 0 55.0281 11.6849 643 61.2255 1258.87 522.331
387 0 55.0429 11.4638 631 61.4406 1259.25 523.355
388 0 57.0323 12.9751 740 60.2284 1259.46 521.038
389 0 59.0394 14.3802 849 58.4876 1260.17 518.923
390 0 58.056 12.5396 728 60.9478 1259.61 519.185
391 0 62.0863 12.08 750 61.5893 1259.46 515.981
392 0 65.1505 11.7113 763 61.6632 1259.49 517.007
393 0 66.1075 11.3754 752 62.0439 1259.55 517.864
394 0 69.1836 12.8065 886 60.7822 1260.48 514.779
395 0 70.123 12.7775 896 61.2087 1260.58 512.597
396 0 73.1038 12.1608 889 62.0067 1260.62 511.687
397 0 75.0623 13.6287 1023 60.4457 1260.41 510.974
398 0 76.0911 11.9856 912 62.7478 1259.59 510.701
399 0 80.115 13.206 1058 61.5558 1259.88 508.792
400 1 39.0478 9.80849 383 63.2768 1259.65 529.125
401 0 40.0199 11.6692 467 61.2441 1260.2 530.161
402 0 42.0517 11.9852 504 61.4524 1260.54 527.621
403 0 43.1376 11.1967 483 62.53 1260.13 528.319
404 0 42.0477 9.63193 405 64.521 1260 529.605
405 0 45.0199 10.9729 494 63.6194 1259.63 526.17
406 0 46.0592 12.6793 584 61.2962 1259.98 527.296
407 0 48.0646 10.7563 517 63.0174 1259.82 526.764
408 0 49.0551 12.8223 629 60.8665 1259.1 523.668
409 0 52.055 11.7376 611 61.8298 1259.26 524.954
410 0 53.036 12.3124 653 61.2221 1260.08 524.893
411 0 54.1116 13.62 737 60.3677 1260.09 523.645
412 0 55.192 13.3353 736 60.9117 1259.57 521.511
413 0 56.1435 14.3383 805 60.0894 1259.83 522.04
414 0 58.0505 12.9715 753 61.8792 1260.27 522.016
415 0 60.0382 12.9085 775 62.2116 1260.43 520
416 0 61.0833 12.6221 771 62.9339 1259.51 519.086
417 0 63.0747 13.4602 849 61.5395 1258.49 520.584
418 0 65.1744 11.7684 767 64.3025 1258.66 517.031
419 0 67.0435 12.738 854 62.9813 1259.12 517.454
420 0 71.0679 12.6358 898 62.7494 1259 516.141
421 1 35.065 11.5785 406 62.1404 1259.2 531.953
422 0 35.0183 11.3655 398 62.4246 1258.87 532.832
423 0 37.1125 11.1822 415 63.5831 1259.28 531.496
424 0 36.0396 10.3497 373 65.3003 1259.54 531.067
425 0 39.0564 12.0851 472 62.8686 1259.33 529.231
426 0 41.0791 11.5144 473 63.6871 1259.77 530.723
427 0 40.0845 12.0994 485 63.8639 1259.28 529.386
428 0 40.1359 10.8631 436 65.3739 1260.04 528.218
429 0 42.0215 11.0896 466 65.0279 1259.71 527.94
430 0 44.0671 10.5294 464 65.9634 1259.79 527.948
431 0 46.0892 12.2805 566 63.1943 1259.78 527.357
432 0 46.0468 12.205 562 63.9769 1259.85 526.578
433 0 47.0529 13.8355 651 61.8925 1258.93 523.533
434 0 49.104 12.8706 632 62.2405 1259.43 527.22
435 0 50.0463 12.4884 625 63.9408 1258.81 523.046
436 0 52.0857 13.5354 705 61.9234 1258.9 524.157
437 0 55.06 12.3502 680 63.5574 1259.51 522.91
438 0 55.0142 13.7783 758 62.4776 1259.77 521.479
439 0 57.0392 11.869 677 63.7149 1260.01 520.541
440 0 57.063 12.3548 705 63.8496 1259.38 522.887
441 0 62.0788 13.0963 813 62.7245 1259.54 521.863
442 0 62.0335 11.7517 729 64.963 1258.57 520.668
443 0 64.0147 12.3253 789 64.5272 1258.6 517.856
444 0 70.0885 14.7385 1033 51.8751 1258.58 521.471
445 0 69.0542 11.7878 814 65.0283 1258.44 517.611
446 0 70.0685 13.5867 952 63.0105 1258.83 517.267
447 0 72.0374 13.3125 959 63.732 1259.37 515.484
448 0 76.1766 12.1035 922 65.0803 1259.67 514.252
449 1 39.075 12.1561 475 63.6463 1259.87 530.92
450 0 41.0653 11.4695 471 64 1260.14 531.932
451 0 43.0345 13.1058 564 62.3777 1259.74 529.163
452 0 44.1674 12.43 549 62.9417 1259.91 529.944
453 0 44.0504 12.3949 546 64.0916 1259.76 527.621
454 0 46.1461 13.3923 618 62.4547 1259.63 528.908
455 0 47.0797 11.7673 554 65.4025 1259.71 525.814
456 0 50.0534 13.3657 669 62.4813 1259.47 527.38
457 0 49.0614 11.3939 559 65.4383 1259.81 526.562
458 0 52.0338 10.743 559 65.5438 1259.44 524.714
459 0 55.0872 13.4151 739 62.6089 1259.7 523.804
460 0 57.0183 14.3814 820 61.6927 1259.94 521.961
461 0 57.0785 11.6156 663 65.6697 1259.86 520.763
462 0 61.0401 12.9751 792 63.2866 1258.96 520.352
463 0 62.1506 11.1825 695 66.2432 1259 519.361
464 0 65.1122 13.0237 848 63.5094 1259.27 518.825
465 0 66.0304 11.9339 788 64.7437 1259.31 519.721
466 0 70.1968 12.4507 874 64.1293 1259.29 515.616
467 0 70.1018 11.8114 828 65.7705 1259.81 516.699
468 0 74.059 12.328 913 64.885 1258.62 514.301
469 0 75.1533 11.1638 839 66.615 1258.8 513.058
470 1 42.0865 11.3813 479 62.6806 1259.42 530.186
471 0 44.0349 11.877 523 62.7361 1259.28 529.872
472 0 45.0893 11.8875 536 62.7425 1258.5 529.132
473 0 47.0875 10.9371 515 64.0816 1259.2 526.573
474 0 47.0404 10.7567 506 63.8577 1258.97 528.739
475 0 51.052 12.4383 635 62.3323 1258.73 525.131
476 0 50.0447 10.3707 519 64.7514 1258.94 527.1
477 0 52.0318 12.4539 648 62.8426 1258.96 524.215
478 0 52.0706 10.6394 554 64.9386 1258.52 525.171
479 0 55.028 11.794 649 63.6549 1259.13 523.676
480 0 56.0365 11.3141 634 64.7603 1258.75 522.642
481 0 60.0748 12.0683 725 63.2234 1259.05 520.488
482 0 62.1247 12.1047 752 63.1503 1259.3 519.431
483 0 65.1346 12.0827 787 62.8831 1258.71 516.776
484 0 65.0753 11.2639 733 64.91 1259.37 516.563
485 0 69.1406 12.7711 883 62.4473 1259.78 514.242
486 0 71.04 11.2331 798 64.4223 1259.3 513.956
487 0 71.0776 13.4782 958 62.4071 1259.7 511.826
488 0 76.1301 12.1108 922 63.7375 1259.97 512.617
489 0 77.0381 11.2931 870 64.6713 1259.62 512.562
490 1 41.0321 10.1384 416 63.7115 1259.39 530.298
491 0 40.0209 9.32013 373 64.1046 1259.4 531.201
492 0 43.0234 11.1567 480 63.0208 1260.18 528.175
493 0 46.0809 12.0657 556 61.1493 1259.59 527.459
494 0 47.1038 11.6976 551 61.7786 1259.27 526.55
495 0 49.0787 11.6955 574 61.6254 1259.26 527.12
496 0 48.0623 11.0482 531 63.4708 1259.76 523.733
497 0 52.0538 10.931 569 62.9104 1259.44 523.603
498 0 53.0996 11.243 597 62.397 1260.17 521.911
499 0 55.1064 13.4286 740 59.8689 1259.79 520.846
500 0 56.1656 10.8607 610 62.7967 1259.1 522.875
501 0 58.0823 11.2943 656 62.2683 1258.74 520.884
502 0 61.1928 11.4556 701 62.0057 1259.13 520.411
503 0 61.083 11.0505 675 62.6281 1258.5 520.17
504 0 63.0436 11.1352 702 62.9031 1259.12 518.487
505 0 68.0836 12.7931 871 60.101 1259.08 515.664
506 0 68.1517 11.5771 789 61.6603 1258.88 516.269
507 0 71.0952 10.8868 774 62.8656 1258.04 513.408
508 0 74.1139 10.0116 742 63.2749 1258.18 511.853
509 0 76.1087 10.3011 784 63.1531 1258.37 511.455
510 0 79.0321 12.438 983 60.8718 1258.18 509.421
511 0 82.0481 11.4567 940 61.666 1257.85 509.812
512 1 43.1256 10.7825 465 59.6645 1258.32 529.295
513 0 44.0237 8.49542 374 61.8743 1258.93 528.206
514 0 45.0891 10.446 471 59.38 1258.58 528.459
515 0 47.0771 9.21893 434 60.6244 1259.01 527.618
516 0 47.1039 10.5087 495 59.3556 1259.29 526.436
517 0 50.0909 9.92196 497 59.8209 1259.27 527.101
518 0 50.066 11.0654 554 58.9639 1259.37 526.681
519 0 51.095 10.9991 562 60.1673 1258.81 524.543
520 0 53.2081 11.6336 619 58.9596 1258.4 524.066
521 0 53.1611 9.66873 514 60.5253 1258.01 523.086
522 0 55.2322 11.7142 647 58.5487 1257.92 521.791
523 0 59.0791 12.2717 725 57.4703 1257.83 518.034
524 0 62.1977 11.367 707 57.8784 1258.56 519.559
525 0 64.1499 10.9743 704 57.3168 1258.28 520.007
526 0 62.1553 9.39582 584 60.024 1257.95 518.228
527 0 66.0766 9.59493 634 58.8013 1258.09 518.53
528 0 70.2709 10.488 737 57.8195 1257.78 514.376
529 0 72.1756 12.525 904 55.3451 1257.98 515.454
530 0 72.1857 10.3206 745 58.2738 1258.17 513.541
531 0 75.1765 11.1205 836 57.439 1258.86 511.465
532 0 80.0812 12.1502 973 56.2826 1258.67 509.635
533 0 80.1066 11.4597 918 57.6416 1258.2 506.806
534 1 38.0453 8.17447 311 57.373 1258.4 529.383
535 0 38.0076 10.7873 410 56.039 1257.76 529.644
536 0 40.0533 8.56358 343 57.7376 1258.69 528.921
537 0 43.0226 10.2504 441 56.2517 1258.2 529.014
538 0 45.0142 9.1971 414 57.8623 1258.31 527.292
539 0 45.0604 10.031 452 58.1836 1258.31 526.274
540 0 48.1169 9.33145 449 58.6125 1258.29 526.334
541 0 46.0183 10.2133 470 58.2277 1258.16 526.313
542 0 50.1522 12.1231 608 56.6546 1258.66 522.929
543 0 51.0623 10.497 536 58.3582 1258.33 523.735
544 0 54.169 11.9626 648 56.034 1258.16 524.718
545 0 54.059 11.247 608 57.6283 1258.57 521.719
546 0 58.0959 12.0318 699 56.5451 1258.24 521.379
547 0 59.054 11.2101 662 57.352 1258.98 522.355
548 0 61.0946 11.916 728 56.7459 1258.46 518.382
549 0 61.1741 10.8216 662 58.0559 1258.22 520.272
550 0 65.0994 12.1046 788 56.5622 1258.03 517.052
551 0 66.0635 11.1257 735 57.8245 1258.17 515.033
552 0 69.079 11.9284 824 56.9769 1257.9 514.666
553 0 71.0972 11.8711 844 57.0853 1257.63 513.047
554 0 75.1008 12.663 951 55.9853 1258.5 512.174
555 0 75.0982 10.8658 816 57.8297 1258.41 512.165
556 0 79.2634 12.1872 966 55.9896 1258.31 511.201
557 0 79.0477 10.6644 843 57.7402 1258.36 511.638
558 0 83.1302 11.6444 968 56.7231 1257.96 508.403
559 1 44.1925 9.63965 426 57.27 1258.7 526.69
560 0 44.0577 10.3501 456 56.4934 1258.37 527.072
561 0 46.1495 10.4226 481 56.2994 1258.03 528.755
562 0 46.0726 9.83232 453 57.5585 1257.86 526.494
563 0 50.078 11.9813 600 54.5583 1258.1 526.878
564 0 49.0886 11.2246 551 56.1633 1258.15 526.263
565 0 50.0621 10.487 525 56.8533 1258.11 523.994
566 0 52.0762 10.4846 546 57.5037 1258.48 521.846
567 0 55.0277 11.2125 617 56.222 1258.53 521.624
568 0 56.0541 13.1837 739 54.4696 1257.87 519.434
569 0 56.1061 9.67809 543 57.8582 1257.88 520.759
570 0 59.0345 13.7716 813 53.9766 1258.27 519.831
571 0 62.0891 12.3049 764 55.4437 1258.38 517.785
572 0 63.086 11.3337 715 56.3664 1258.19 516.094
573 0 67.0982 13.443 902 54.3226 1258.81 516.394
574 0 66.1216 11.6755 772 56.9585 1258.25 513.004
575 0 68.0617 11.3133 770 57.6078 1258.84 514.204
576 0 69.0304 11.5167 795 58.0226 1258.45 509.794
577 0 74.0414 12.0743 894 56.7662 1258.33 512.482
578 0 75.0661 15.6662 1176 53.7942 1259.32 510.79
579 0 77.1092 11.7625 907 58.4675 1258.87 508.006
580 0 80.0564 13.3781 1071 56.7348 1259.29 508.586
581 0 83.1116 14.7031 1222 55.5409 1259.5 506.064
582 0 85.1613 14.4197 1228 55.7899 1259.36 504.521
583 0 86.0644 12.0143 1034 59.1219 1259.33 504.126
584 0 90.1775 13.1075 1182 58.2335 1260.17 503.365
585 0 91.235 11.0265 1006 61.1431 1259.13 502.002
586 0 95.129 12.3411 1174 59.5716 1259.5 503.204
587 0 97.2031 12.5922 1224 59.7067 1258.38 500.794
588 1 51.0646 11.2994 577 60.9185 1258.98 521.39
589 0 53.0973 11.752 624 60.9856 1259.36 521.441
590 0 54.1186 10.6433 576 62.224 1258.68 521.87
591 0 55.0198 10.578 582 63.0275 1258.56 520.871
592 0 58.0728 14.1202 820 58.6085 1258.68 520.243
593 0 60.0208 12.4124 745 60.5517 1258.18 520.603
594 0 61.0449 12.3188 752 61.3032 1258.62 516.678
595 0 64.1136 12.4311 797 60.9699 1258.86 517.552
596 0 63.0539 12.1166 764 61.5864 1257.83 517.097
597 0 65.0848 13.5516 882 60.3367 1259.24 516.478
598 0 68.142 13.0316 888 60.8919 1259.09 513.635
599 0 70.1762 12.4116 871 61.8163 1259.69 512.815
600 0 74.0974 11.5524 856 62.4778 1259.56 511.965
601 0 76.1964 12.9534 987 61.2239 1259.18 510.551
602 0 77.0737 12.1313 935 62.9882 1259.03 509.118
603 0 81.1329 11.3271 919 63.5909 1259.44 507.324
604 0 84.1393 11.4215 961 63.3902 1258.73 500.951
605 0 91.1537 12.6929 1157 61.5713 1259.24 505.756
606 0 92.0943 13.3124 1226 61.5604 1259.11 505.522
607 0 94.1068 13.4209 1263 62.1235 1259.4 504.253
608 1 44.0262 10.2666 452 63.1217 1259.83 525.653
609 0 46.0592 10.4865 483 62.7723 1259.8 525.694
610 0 48.1104 10.6838 514 62.4377 1259.88 525.971
611 0 49.0711 14.1631 695 59.1007 1258.93 523.022
612 0 50.0943 13.0554 654 60.5153 1259.32 523.466
613 0 54.1097 13.1769 713 59.7574 1259.24 522.245
614 0 54.086 11.1119 601 63.3943 1259.95 521.83
615 0 55.0285 12.1937 671 61.9121 1259.71 520.577
616 0 57.1047 11.8729 678 62.6622 1259.53 519.73
617 0 60.0308 11.8772 713 62.6522 1259.21 519.63
618 0 62.075 12.1949 757 62.0608 1258.46 517.606
619 0 63.0781 12.1278 765 63.0118 1259.14 515.971
620 0 66.1115 12.6604 837 61.718 1259.11 516.787
621 0 68.0988 14.2881 973 60.3628 1258.38 513.261
622 0 68.1075 11.658 794 63.6096 1258.5 514.059
623 0 71.052 12.4557 885 61.4915 1258.53 514.742
624 0 75.11 13.1274 986 60.8458 1259.69 511.611
625 0 77.0938 13.3993 1033 61.0029 1259.89 509.197
626 0 78.1283 12.6459 988 61.9474 1259.65 507.987
627 0 80.1348 11.7053 938 62.952 1259.75 506.33
628 0 84.1729 13.1515 1107 60.2602 1259.18 508.986
629 1 42.026 9.54172 401 62.1197 1259.56 526.756
630 0 41.0286 11.0898 455 61.2989 1259.8 524.404
631 0 41.0409 8.21132 337 63.6588 1259.08 526.318
632 0 41.0246 12.3828 508 60.187 1259.51 520.976
633 0 43.0182 8.97295 386 64.0155 1259.48 521.922
634 0 39.0448 6.14678 240 66.6292 1259.37 518.433
635 0 35.0446 5.79262 203 65.2611 1259.13 511.305
636 0 41.0573 6.99023 287 64.5854 1258.56 513.808
637 0 38.0137 6.18198 235 65.1787 1258.49 511.821
638 0 43.0602 8.26749 356 64.3455 1258.53 514.598
639 0 48.0447 8.92918 429 62.8998 1258.96 513.895
640 0 52.0784 8.56402 446 62.5785 1258.83 511.971
641 0 54.0241 8.01494 433 64.1409 1258.89 512.852
642 0 52.1509 6.90304 360 65.1889 1259.02 510.978
643 0 56.1895 7.31453 411 65.0462 1259.63 509.555
644 0 60.0633 10.0061 601 62.2097 1259.38 510.93
645 0 62.0322 6.81904 423 64.0024 1258.88 503.407
646 0 66.1456 9.10114 602 61.51 1258.1 501.623
647 0 64.1542 7.85607 504 64.1111 1258.74 504.528
648 1 29.0437 7.60922 221 63.7647 1258.73 522.76
649 0 32.0397 9.48823 304 62.5395 1258.12 526.398
650 0 37.0235 10.7229 397 59.1889 1259.41 530.786
651 0 41.0178 10.7027 439 58.8929 1259.49 528.401
652 0 42.0123 11.4014 479 59.2547 1259.2 525.543
653 0 43.0512 11.5444 497 59.1066 1259.45 527.974
654 0 43.0428 11.686 503 58.7853 1258.82 528.471
655 0 45.0737 11.3814 513 60.1832 1258.54 525.68
656 0 46.0364 12.7942 589 58.8472 1259.15 524.109
657 0 49.1377 12.4141 610 59.0787 1258.85 523.184
658 0 48.0122 11.9969 576 60.3385 1259.36 522.373
659 0 51.0702 12.8059 654 59.1804 1259.48 523.372
660 0 52.0612 11.8706 618 61.0518 1258.83 520.518
661 0 53.0287 13.1438 697 59.7647 1258.63 520.58
662 0 56.0771 12.6611 710 59.5211 1258.84 522.087
663 0 56.1108 13.3129 747 59.7015 1258.95 519.893
664 0 60.0926 15.526 933 57.0182 1258.44 518.004
665 0 61.1378 13.1997 807 59.777 1258.86 519.746
666 0 61.0506 12.6289 771 61.2529 1259.03 517.488
667 0 64.0785 14.2013 910 59.4725 1258.55 517.665
668 0 66.0594 11.8984 786 62.3193 1258.91 515.382
669 0 70.1444 11.1342 781 62.7439 1259.11 515.729
670 0 70.0828 14.2688 1000 60.02 1258.91 513.765
671 0 74.08 12.554 930 61.6688 1259.89 513.461
672 0 76.1968 13.2289 1008 60.4216 1260.1 514.812
673 1 38.0222 12.782 486 60.7798 1259.65 530.34
674 0 38.0708 11.1634 425 63.8329 1258.97 528.765
675 0 43.1317 13.3544 576 60.0694 1259.62 529.377
676 0 43.0385 13.8481 596 60.4883 1258.87 526.997
677 0 46.0651 12.8297 591 60.5702 1258.64 528.986
678 0 46.1051 11.9943 553 61.7505 1258.72 527.564
679 0 46.1536 12.4367 574 62.1794 1259.22 526.017
680 0 50.0265 12.7932 640 60.7875 1259.23 525.483
681 0 50.0996 11.8165 592 62.8564 1259.7 525.02
682 0 50.0934 11.4586 574 62.9495 1260.01 526.263
683 0 52.0918 13.3802 697 61.4921 1259.79 520.779
684 0 54.0624 13.1885 713 61.4011 1260.31 521.335
685 0 54.0681 13.52 731 62.0096 1259.55 519.153
686 0 57.1383 12.496 714 62.409 1259.2 519.283
687 0 58.0526 12.816 744 62.0336 1258.95 520.879
688 0 59.0587 11.5986 685 63.8292 1259.38 518.407
689 0 63.109 15.5445 981 59.4822 1259.45 517.051
690 0 64.0993 12.1374 778 63.1735 1259.52 517.276
691 0 69.0751 14.1151 975 60.7108 1259.78 515.893
692 0 71.2278 13.0707 931 62.1633 1259.75 515.699
693 0 72.0609 12.767 920 62.6978 1259.95 514.211
694 0 73.1052 12.7761 934 62.9968 1260.23 511.395
695 0 78.0853 13.7158 1071 61.5285 1259.54 510.076
696 1 40.1479 11.8063 474 63.2806 1259.92 529.808
697 0 41.054 12.8855 529 62.7524 1259.44 528.771
698 0 43.0245 12.7834 550 62.46 1260.08 528.789
699 0 46.1321 12.3558 570 62.5 1260.02 528.453
700 0 45.0665 13.0474 588 62 1259.76 527.565
701 0 47.0342 12.8417 604 62.8377 1260.37 525.321
702 0 50.0696 13.1817 660 61.7394 1259.75 523.647
703 0 50.0417 13.5287 677 61.5997 1259.8 522.934
704 0 53.0295 12.559 666 61.8393 1259.62 521.778
705 0 56.0656 13.8053 774 60.3721 1259.9 522.412
706 0 56.1252 12.8819 723 61.3776 1259.26 520.23
707 0 58.0967 12.5997 732 61.4658 1259.53 520.839
708 0 60.0473 13.5393 813 60.6408 1260.3 518.648
709 0 62.1258 13.1185 815 60.9546 1260.23 517.844
710 0 63.1357 12.8929 814 61.5799 1260.35 517.004
711 0 66.0553 13.0043 859 61.4203 1260.03 517.165
712 0 69.194 13.3682 925 60.7038 1259.94 515.062
713 0 71.0905 14.5308 1033 59.6554 1259.82 512.46
714 0 72.0523 12.6852 914 61.8972 1259.36 513.263
715 0 76.0743 13.7366 1045 60.4766 1259.26 512.677
716 0 77.079 14.0505 1083 60.6814 1259.76 506.412
717 0 79.2183 13.002 1030 61.8738 1259.06 511.552
718 0 83.2284 13.9616 1162 61.0818 1258.72 508.553
719 1 42.0527 11.1527 469 62.8593 1258.21 529.774
720 0 43.0836 10.2127 440 64.425 1259.34 529.661
721 0 45.034 11.9021 536 62.9608 1258.69 528.325
722 0 47.0918 11.7006 551 63.1942 1259.9 526.588
723 0 47.137 13.9169 656 61.9101 1258.41 522.686
724 0 48.133 12.1746 586 63.4386 1259.06 523.968
725 0 51.0493 12.7132 649 62.2435 1258.4 524.703
726 0 52.0311 12.8385 668 63.226 1258.27 521.695
727 0 56.074 12.4122 696 62.819 1259.33 521.401
728 0 56.0955 12.3361 692 62.8526 1259.51 520.965
729 0 58.0477 11.7834 684 63.3757 1259.51 521.208
730 0 61.1302 13.1523 804 61.3507 1258.88 519.986
731 0 64.113 12.5872 807 61.8761 1258.92 517.97
732 0 66.2365 13.2102 875 61.3131 1258.74 516.096
733 0 68.0941 13.5107 920 61 1259.5 515.718
734 0 71.192 13.3442 950 60.9253 1259.73 514.649
735 0 73.0708 12.8506 939 60.655 1258.86 515.524
736 0 78.2147 13.9999 1095 58.8155 1258.37 515.193
737 0 78.1373 13.7066 1071 60.0962 1258.56 509.554
738 0 81.1124 11.7984 957 61.6322 1259.04 511.466
739 0 84.1247 12.7787 1075 61.106 1258.98 507.738
740 0 87.3143 13.5144 1180 60.6186 1259.05 505.699
741 0 91.1186 13.2355 1206 60.5149 1258.99 507.119
742 0 95.2039 14.2641 1358 59.4138 1258.69 505.253
743 1 49.0699 12.6146 619 61.357 1258.84 525.039
744 0 51.1151 13.362 683 60.3455 1258.98 526.572
745 0 52.0806 13.5943 708 61.0664 1259.55 522.527
746 0 55.2058 13.3138 735 60.5551 1259.17 523.361
747 0 57.0987 14.3436 819 59.9963 1259.07 521.653
748 0 58.0417 14.6102 848 59.8219 1258.85 521.015
749 0 59.1415 12.4278 735 62.1374 1259.09 520.287
750 0 62.1235 13.9239 865 60.7006 1258.84 518.716
751 0 66.1606 15.7496 1042 57.6104 1257.78 516.976
752 0 68.0738 14.073 958 59.7526 1258.55 516.838
753 0 70.089 13.597 953 60.1522 1258.75 517.645
754 0 71.1109 11.5313 820 63.1341 1258.38 516.877
755 0 73.1058 14.5953 1067 59.8107 1259.4 514.12
756 0 78.15 15.1631 1185 58.816 1258.55 511.257
757 0 80.0714 12.2141 978 62.3374 1258.76 510.644
758 0 82.1586 13.5226 1111 61.0855 1258.6 507.749
759 0 83.2956 12.6177 1051 62.4386 1258.69 507.934
760 0 85.1677 13.221 1126 62.1092 1258.81 503.483
761 1 41.1129 11.4076 469 63.3774 1259.42 522.949
762 0 45.0648 11.8052 532 62.9737 1258.78 523.496
763 0 48.0986 12.0794 581 62.1532 1259.27 527.256
764 0 49.0488 12.824 629 61.9444 1259.28 525.863
765 0 51.1179 12.7744 653 62.294 1259.46 524.086
766 0 52.044 12.6624 659 61.2807 1258.88 527.555
767 0 56.1398 12.9142 725 60.4855 1258.82 525.814
768 0 57.1178 12.623 721 61.4286 1258.62 524.279
769 0 59.0759 14.4221 852 59.4331 1258.57 521.138
770 0 62.1517 13.3222 828 59.9167 1258.61 522.953
771 0 63.2123 13.3835 846 60.3097 1259.09 522.325
772 0 66.0684 15.2418 1007 57.7557 1258.83 520.75
773 0 65.0683 13.4013 872 61.0023 1259.38 517.005
774 0 69.0408 14.1945 980 59.452 1258.86 518.162
775 0 73.1675 14.8563 1087 58.5382 1258.14 516.305
776 0 76.1498 13.0401 993 60.292 1258.13 514.7
777 0 77.1624 14.5408 1122 59.2398 1258.2 513.66
778 0 80.2662 12.9569 1040 60.7471 1258.6 512.823
779 1 39.0979 10.5888 414 62.6159 1258.72 531.092
780 0 44.1699 14.7612 652 57.9018 1258.71 530.558
781 0 44.0611 11.5295 508 61.7047 1258.25 529.693
782 0 43.0698 12.6771 546 61.1667 1258.15 529.527
783 0 44.1325 12.1453 536 61.8097 1258.87 529.448
784 0 49.1297 14.1666 696 58.658 1258.64 528.506
785 0 47.0674 13.5125 636 59.9969 1258.37 527.814
786 0 50.1209 13.5273 678 59.8451 1258.71 526.652
787 0 52.1437 14.9395 779 58.0013 1258.81 525.466
788 0 52.0475 12.5846 655 61.3847 1258.49 524.018
789 0 55.0918 14.4486 796 59.1106 1258.41 523.866
790 0 58.1946 13.4892 785 59.7389 1258.34 522.925
791 0 59.1748 12.7757 756 60.9497 1258.41 522.765
792 0 61.0641 14.9024 910 59.1198 1258.03 519.251
793 0 64.1129 14.4433 926 59.1847 1257.91 520.344
794 0 65.1996 13.6044 887 60.0947 1258.18 517.015
795 0 69.0901 14.3291 990 58.8838 1258.08 518.625
796 0 72.2239 15.3689 1110 58.0847 1258.36 516.236
797 0 75.0953 15.2739 1147 58.0741 1258.36 516.017
798 0 74.1408 12.9483 960 61.726 1259.4 515.747
799 0 79.0259 13.4766 1065 60.8516 1259.11 514.053
800 1 42.0812 12.4284 523 60.1109 1258.45 531.925
801 0 45.0844 15.105 681 57.699 1258.65 531.543
802 0 40.0295 12.266 491 63.2607 1258.27 529.253
803 0 45.1837 13.8103 624 60.1506 1258.52 530.893
804 0 46.0851 13.0628 602 61.5133 1258.83 528.779
805 0 49.0695 14.3062 702 59.7479 1259.42 527.585
806 0 49.0806 12.347 606 61.8795 1259.46 528.815
807 0 51.0347 12.9912 663 61.6486 1258.68 525.692
808 0 51.0797 12.5294 640 62.6234 1258.48 524.294
809 0 52.0793 12.2889 640 62.675 1258.38 524.939
810 0 54.0553 13.5972 735 60.6803 1258.36 524.976
811 0 58.1034 15.2315 885 58.6271 1259.43 522.834
812 0 58.0826 13.4464 781 60.8681 1259.68 523.485
813 0 60.1745 11.6993 704 62.8679 1259.81 523.105
814 0 64.1466 14.7475 946 58.6205 1259.32 521.66
815 0 65.1843 14.9116 972 58.8591 1259.18 520.663
816 0 67.1097 14.0069 940 60.8894 1258.61 517.412
817 0 71.1134 13.3449 949 60.8577 1259.04 518.325
818 0 73.1927 13.8538 1014 59.7377 1258.98 519.406
819 0 75.1806 14.8044 1113 60.0539 1258.44 515.331
820 0 76.1318 13.2271 1007 62.3059 1259.12 514.256
821 0 79.0627 13.3944 1059 61.9603 1259.59 512.41
822 0 82.0837 14.7776 1213 60.5845 1258.89 509.707
823 1 44.1291 10.5146 464 63.7069 1258.67 531.179
824 0 45.113 12.1694 549 63.6047 1258.77 527.565
825 0 47.2199 12.3888 585 62.5966 1257.77 527.964
826 0 49.1512 11.3527 558 63.4301 1257.84 528.914
827 0 51.1831 13.3247 682 60.6716 1257.46 528.391
828 0 52.1777 14.2781 745 61.0215 1258.31 526.358
829 0 53.2919 12.6473 674 62.7967 1258.54 526.352
830 0 53.0915 12.0735 641 63.7504 1258.88 525.92
831 0 56.0509 12.8098 718 63.4485 1259.07 522.635
832 0 57.1294 12.4804 713 63.3408 1258.86 524.273
833 0 60.2784 12.7907 771 62.511 1258.74 522.717
834 0 63.1688 13.5985 859 61.0093 1259.26 524.471
835 0 65.2723 13.436 877 61.6032 1258.52 521.439
836 0 65.1604 13.8274 901 61.6293 1258.66 520.972
837 0 70.209 14.2717 1002 60.4251 1258.84 518.84
838 0 71.0244 13.1363 933 62.5413 1258.62 516.719
839 0 70.1531 12.0166 843 64.3784 1258.65 515.006
840 0 75.1423 12.7225 956 62.9205 1258.08 513.86
841 0 77.0679 12.3917 955 63.0147 1257.85 514.67
842 0 81.1499 14.2083 1153 61.307 1258.59 512.06
843 0 82.1656 12.5113 1028 63.5068 1258.77 510.02
844 1 43.1665 10.9112 471 62.6093 1258.97 530.658
845 0 44.1944 13.5764 600 59.1133 1258.55 531.507
846 0 45.0424 12.1219 546 62.6978 1258.69 528.502
847 0 49.0634 11.2711 553 62.7794 1259.05 528.512
848 0 49.1673 12.2236 601 62.0516 1258.42 528.489
849 0 50.1508 12.7615 640 61.25 1258.07 529.75
850 0 52.1262 13.0453 680 61.0559 1258.58 528.838
851 0 51.1079 11.8573 606 63.5446 1258.87 525.36
852 0 54.0779 13.1292 710 61.6296 1258.99 525.772
853 0 57.0499 12.6381 721 62.4896 1258.91 524.426
854 0 55.064 13.9837 770 61.5532 1258.32 524.158
855 0 58.0417 13.163 764 62.3285 1258.56 522.787
856 0 60.0331 14.8918 894 60.1588 1257.46 522.007
857 0 63.1524 13.1587 831 61.5247 1257.5 523.166
858 0 63.0624 11.6551 735 64.3075 1258.03 522.234
859 0 67.0811 13.4017 899 62.0378 1258.16 518.993
860 0 69.0567 13.9161 961 61.5016 1258.12 518.21
861 0 71.0645 13.6074 967 63.7663 1258.74 516.177
862 0 72.0944 13.4546 970 63.8268 1258.77 516.073
863 0 77.1736 13.2947 1026 63.306 1258.46 515.008
864 0 76.0459 12.3215 937 65.3757 1258.66 513.106
865 0 81.1142 12.0694 979 64.9285 1258.03 513.4
866 1 42.0952 12.2342 515 61.9922 1258.73 533.295
867 0 40.0496 11.6106 465 63.9054 1258.41 532.191
868 0 44.0865 11.5682 510 63.3451 1258.46 532.073
869 0 44.1119 11.8562 523 63.6157 1258.26 530.543
870 0 45.0366 13.2559 597 61.5494 1258.98 530.707
871 0 46.071 13.2621 611 61.6023 1258.3 528.401
872 0 45.021 11.9278 537 64.0987 1257.91 526.128
873 0 50.0695 13.5611 679 60.6303 1258.09 527.841
874 0 51.0598 13.0631 667 61.7466 1258.46 526.366
875 0 52.0358 12.5875 655 62.0992 1258.13 526.424
876 0 55.0714 14.0727 775 60 1258.59 524.893
877 0 57.1971 13.0601 747 60.3494 1258.39 524.863
878 0 57.0934 12.6635 723 61.2365 1258.81 524.808
879 0 59.0845 12.1521 718 62.0989 1258.15 521.851
880 0 65.0692 14.1234 919 58.5898 1258.67 522.867
881 0 62.0928 12.5135 777 62.4067 1257.75 518.024
882 0 68.1767 12.893 879 60.6974 1258.16 519.775
883 0 68.0502 12.0205 818 62.1589 1258.18 519.988
884 0 71.1116 12.9093 918 61.549 1258.06 516.146
885 0 72.0242 12.6208 909 62.3531 1258.65 517.464
886 0 74.2017 11.7383 871 63.2204 1258.24 515.804
887 0 79.1455 13.5447 1072 60.7519 1258.22 514.911
888 1 37.1507 12.4897 464 61.5345 1257.92 531.8
889 0 39.2033 10.6113 416 63.0817 1258.35 532.01
890 0 42.1943 11.7551 496 61.7802 1258.05 530.782
891 0 43.1957 10.001 432 63.8704 1258.29 531.065
892 0 45.2171 11.7212 530 61.0811 1258.88 531.728
893 0 46.1116 13.9227 642 59.7399 1258.2 530.442
894 0 48.1805 11.3324 546 62.5696 1258.34 529.053
895 0 49.0776 12.6534 621 61.7021 1258.67 526.528
896 0 50.0811 13.0588 654 60.893 1258.11 525.42
897 0 53.1726 12.7321 677 60.7267 1257.75 525.634
898 0 54.0616 13.3181 720 60.7778 1258.41 523.821
899 0 57.038 12.2199 697 60.7575 1258.32 526.409
900 0 55.0417 11.5549 636 62.6604 1258.7 524.513
901 0 59.2437 11.4442 678 62.2021 1258.78 522.524
902 0 58.0451 11.9907 696 61.9727 1258.65 522.407
903 0 62.1809 11.949 743 61.9166 1259.53 518.047
904 0 64.0388 11.3213 725 62.6538 1258.09 519.07
905 0 66.1944 11.9345 790 61.2544 1258.33 517.418
906 0 69.1033 12.778 883 60.7565 1258.97 515.217
907 0 72.1043 12.2045 880 61.1295 1259.11 513.644
908 0 74.0532 12.572 931 60.5499 1259.73 511.693
909 0 79.1243 12.0696 955 60.733 1260.11 512.946
910 0 81.3265 12.7019 1033 59.7202 1260.22 514.104
911 1 40.0641 12.6797 508 59.5709 1259.51 530.864
912 0 44.1659 12.3851 547 59.4113 1260.8 528.901
913 0 45.041 11.0566 498 61.7631 1260.48 527.691
914 0 46.1513 12.1557 561 59.6078 1260.01 529.13
915 0 49.2295 12.7363 627 58.7033 1260.15 527.876
916 0 49.0958 13.0968 643 58.493 1258.76 525.305
917 0 49.2324 11.4153 562 60.3381 1259.23 527.888
918 0 53.1247 12.8754 684 57.5278 1259.48 529.436
919 0 52.0932 10.366 540 61.9778 1259.62 525.315
920 0 56.0943 11.962 671 59.5112 1259.59 525.584
921 0 58.2517 12.0855 704 59.6747 1259.44 521.808
922 0 63.1026 13.2007 833 57.611 1258.88 521.882
923 0 62.1945 11.5927 721 59.6602 1258.57 522.083
924 0 64.1513 12.2523 786 58.7723 1258.69 521.464
925 0 69.1135 13.4995 933 57.0514 1258.25 518.645
926 0 70.1251 12.0927 848 58.8679 1258.71 518.369
927 0 72.09 12.6509 912 58.6776 1258.67 515.257
928 0 75.1234 12.6325 949 58.7724 1258.47 515.583
929 0 76.0801 12.2897 935 59.7412 1257.93 513.089
930 0 77.1186 12.6558 976 59.8852 1257.35 508.574
931 0 82.0634 12.9656 1064 59.3374 1257.67 510.204
932 0 83.0818 12.6261 1049 60.1964 1257.91 509.418
933 0 86.2043 13.1432 1133 60.12 1258.16 507.169
934 0 88.1642 12.2272 1078 61.4249 1258.25 508.754
935 1 45.1547 12.3354 557 60.6966 1258.43 527.894
936 0 47.2169 11.8601 560 61.4732 1258.31 527.398
937 0 49.1419 12.5148 615 61.2423 1259.08 524.693
938 0 51.1581 12.2561 627 61.8325 1259.13 522.882
939 0 53.1234 11.5203 612 62.5605 1259.04 522.078
940 0 53.1389 12.7026 675 60.9852 1258.71 523.227
941 0 53.2176 12.308 655 62.1038 1258.29 522.446
942 0 57.3148 11.2187 643 61.9176 1258.8 523.739
943 0 58.0746 12.1223 704 61.7926 1258.62 520.08
944 0 63.1403 12.9553 818 59.9731 1259.04 519.757
945 0 64.0847 12.0622 773 61.4709 1259.49 515.599
946 0 64.1219 12.8349 823 61.1932 1258.61 515.011
947 0 67.2076 11.4422 769 62.091 1258.83 515.502
948 0 70.1196 11.8797 833 61.916 1259.02 514.031
949 0 72.0576 14.5578 1049 59.1039 1259.39 511.409
950 0 76.1131 11.6274 885 62.2429 1258.79 511.725
951 0 79.1128 12.9815 1027 60.7887 1258.79 509.575
952 0 81.2777 12.9802 1055 61.11 1260.02 509.488
953 0 83.1257 13.245 1101 61.3252 1259.41 506.556
954 0 87.1464 11.9569 1042 62.5202 1259.26 507.177
955 0 90.0907 14.9627 1348 59.4889 1258.9 504.365
956 0 94.318 13.5393 1277 61.4276 1259.37 501.938
957 1 52.1109 12.032 627 61.2711 1259.4 525.223
958 0 55.1573 13.1442 725 60.4386 1259.12 523.905
959 0 55.0145 11.6696 642 62.7788 1258.69 523.002
960 0 58.0733 12.2259 710 61.8423 1258.95 520.886
961 0 59.1201 11.2652 666 63.015 1258.5 521.712
962 0 61.0757 13.2295 808 61.3564 1258.59 517.168
963 0 64.0629 13.2838 851 61.2045 1259.28 516.498
964 0 65.2225 11.8364 772 62.4482 1259.27 517.644
965 0 66.1668 11.9093 788 62.8477 1258.98 516.797
966 0 70.0799 13.1849 924 60.6634 1259.3 516.216
967 0 72.2192 13.4867 974 59.8439 1259.39 516.234
968 0 75.1143 13.4195 1008 60.1587 1259.4 512.924
969 0 78.0591 12.6699 989 61.2406 1259.35 511.061
970 0 79.0616 12.7116 1005 61.3682 1258.85 508.203
971 0 84.0543 12.8369 1079 60.1205 1259.67 508.938
972 0 85.0743 10.9669 933 62.6945 1259.8 506.641
973 0 90.2196 13.0016 1173 60.2609 1259.88 505.54
974 1 47.0831 11.0018 518 58.8398 1259.8 525.046
975 0 48.1072 10.3103 496 59.7258 1259.39 524.415
976 0 50.0449 10.6304 532 59.2914 1259.49 526.378
977 0 49.0227 11.6681 572 59.5402 1259.32 524.364
978 0 52.0332 10.5702 550 59.5855 1259.52 525.34
979 0 54.0809 11.5198 623 59.5682 1260.23 519.687
980 0 55.0416 11.7729 648 58.0401 1260.23 523.244
981 0 59.1904 10.5591 625 59.8832 1259.4 519.662
982 0 60.0601 11.8048 709 57.5614 1259.76 520.533
983 0 61.0305 11.2075 684 59.2105 1259.9 516.468
984 0 63.0396 11.9607 754 58.6578 1260.07 513.821
985 0 64.14 13.0496 837 57.2258 1259.3 513.963
986 0 68.0889 10.9709 747 58.7992 1260.02 514.507
987 0 72.0556 12.1712 877 57.5473 1259.77 512.444
988 0 70.1013 12.054 845 58.4485 1260.01 510.138
989 0 74.1239 10.469 776 60.1534 1259.88 508.37
990 0 78.0296 10.778 841 59.283 1259.61 511.032
991 0 79.0391 10.1975 806 60.4454 1259.92 505.784
992 0 86.0941 12.6141 1086 57.2836 1259.27 508.759
993 0 87.1809 12.606 1099 57.616 1259.82 505.861
994 0 90.1086 13.0509 1176 57.4558 1259.64 504.95
995 1 43.0711 8.77619 378 60.373 1259.44 524.058
996 0 48.0412 11.7399 564 56.6401 1259.71 523.112
997 0 47.0914 10.9362 515 57.4291 1259.98 524.961
998 0 51.0614 12.1618 621 56.1417 1259.44 523.726
999 0 50.0858 11.4204 572 57.5804 1259.44 523.304
1000 0 55.0894 11.7445 647 56.7697 1258.82 520.998
1001 0 56.0399 12.8123 718 55.7827 1259.58 520.174
1002 0 56.0518 10.5617 592 58.1284 1259.6 521.056
1003 0 61.0993 12.4388 760 55.4539 1259.29 520.253
1004 0 60.0972 13.5946 817 55.2644 1259.71 517.147
1005 0 62.1377 11.6837 726 57.4215 1259.18 516.287
1006 0 64.1138 12.0411 772 56.851 1258.86 516.109
1007 0 66.0571 12.0502 796 56.9736 1258.92 512.28
1008 0 68.2475 10.8722 742 57.8935 1258.57 513.295
1009 0 71.0825 10.9732 780 57.8705 1258.94 511.04
1010 0 75.154 11.7226 881 56.8468 1258.55 511.747
1011 0 74.0592 10.5726 783 58.7637 1258.99 509.421
1012 0 79.2752 10.9744 870 57.7954 1259.67 509.015
1013 0 80.1251 10.7332 860 58.7465 1259.29 504.107
1014 0 87.1367 10.6385 927 58.0302 1258.31 506.598
1015 1 42.1365 9.92014 418 57.9617 1259.04 526.983
1016 0 46.1232 8.8242 407 57.914 1259.29 529.029
1017 0 47.0571 11.1567 525 56.7029 1259.36 526.728
1018 0 47.1282 10.7579 507 57.6193 1259.4 525.217
1019 0 51.0969 11.4488 585 56.788 1259.47 522.807
1020 0 49.0719 11.3303 556 57.6169 1259.25 522.475
1021 0 54.1851 11.0731 600 57.195 1258.85 521.223
1022 0 52.0348 13.491 702 55.0356 1258.89 520.856
1023 0 56.0281 13.8859 778 54.4139 1259.1 518.193
1024 0 60.144 13.0021 782 55.0959 1259.35 518.749
1025 0 60.1668 11.9501 719 56.1808 1258.83 517.469
1026 0 62.0819 12.258 761 56.0013 1259.04 517.587
1027 0 64.2329 13.0151 836 55.1519 1258.68 516.051
1028 0 65.0669 10.958 713 57.244 1258.26 514.195
1029 0 69.2052 11.2708 780 56.3 1258.32 517.033
1030 0 72.1173 13.2285 954 54.4256 1258.52 514.502
1031 0 72.208 12.8656 929 55.226 1258.07 513.053
1032 0 78.0705 12.4247 970 55.1237 1258.4 510.51
1033 0 78.0715 11.7585 918 56.2092 1258.01 510.239
1034 0 81.1592 13.3441 1083 54.3324 1257.36 509
1035 0 83.16 13.2997 1106 54.7848 1257.88 507.71
1036 0 87.1661 13.3423 1163 54.5907 1257.73 508.502
1037 0 91.1891 15.5062 1414 52.2603 1257.95 504.625
1038 0 93.1703 12.5899 1173 55.8014 1258.13 505.639
1039 1 45.0414 10.5903 477 56.0042 1257.31 528.572
1040 0 48.1024 13.5336 651 54.0783 1256.94 525.57
1041 0 48.1095 11.9935 577 55.8683 1256.81 525.896
1042 0 50.0422 10.3113 516 58.8023 1257.08 525.467
1043 0 52.1059 13.012 678 56.236 1256.6 521.94
1044 0 57.0795 14.0506 802 53.6484 1256.35 524.191
1045 0 55.1237 12.989 716 55.9958 1257.1 523.299
1046 0 61.151 13.0824 800 55.3925 1256.98 520.409
1047 0 62.0355 13.4117 832 54.9363 1257.18 520.875
1048 0 64.1094 12.3383 791 55.9937 1257.48 518.785
1049 0 67.2032 13.3625 898 55.1826 1257.27 515.929
1050 0 69.1754 12.7647 883 55.9128 1257.13 514.614
1051 0 71.1037 14.6828 1044 54.1533 1257.29 515.151
1052 0 74.1001 13.8056 1023 54.7586 1257.19 514.989
1053 0 76.1458 13.9469 1062 54.6554 1257.24 516.073
1054 0 78.0502 13.5169 1055 55.5393 1256.92 512.212
1055 0 79.0477 12.9416 1023 56.1662 1257.01 513.937
1056 0 84.1629 12.9986 1094 55.9388 1257 510.239
1057 0 89.1826 12.2894 1096 56.4078 1256.94 511.036
1058 0 90.1223 12.8603 1159 56.7921 1256.3 505.292
1059 0 94.1391 14.0324 1321 54.9054 1256.9 507.532
1060 1 47.0766 12.1292 571 56.1366 1256.86 529.088
1061 0 49.173 11.7544 578 56.9464 1256.31 527.192
1062 0 49.0767 10.29 505 58.7248 1256.54 527.954
1063 0 52.0829 11.8657 618 57.2282 1256.96 527.515
1064 0 56.0381 12.2774 688 56.1773 1257.3 529.044
1065 0 55.1556 13.1809 727 56.0949 1257.46 528.263
1066 0 55.2186 13.4556 743 56.5935 1257.51 525.875
1067 0 58.1413 12.9684 754 57.1963 1257.38 521.545
1068 0 58.0656 12.8992 749 57.6262 1258.15 523.471
1069 0 61.1848 12.0945 740 58.573 1258.05 521.805
1070 0 64.2157 13.6727 878 57.1686 1257.6 521.247
1071 0 66.134 13.2156 874 57.6751 1256.53 520.554
1072 0 69.0879 13.1427 908 58.1861 1257.08 518.159
1073 0 68.14 12.0194 819 59.9463 1257.73 517.166
1074 0 72.1269 12.0343 868 59.8157 1257.55 516.461
1075 0 76.0751 14.3411 1091 57.3712 1257.45 515.484
1076 0 79.158 14.1868 1123 57.4684 1258.44 515.617
1077 0 82.1841 12.1313 997 59.9308 1258.56 515.163
1078 0 82.1002 14.397 1182 57.8926 1258.12 513.583
1079 0 85.1446 14.0467 1196 59.1054 1257.72 510.015
1080 1 40.1575 12.6253 507 59.572 1257.87 532.696
1081 0 44.2581 11.0036 487 60.5216 1257.89 532.778
1082 0 46.0528 13.0068 599 59.2938 1258.08 531.469
1083 0 45.1439 13.1579 594 60.101 1258.73 532.892
1084 0 49.0927 13.4847 662 58.9894 1258.65 531.162
1085 0 51.1215 14.3579 734 58.3134 1258.73 530.495
1086 0 50.353 12.9684 653 60.1945 1258.66 526.761
1087 0 53.0338 13.5385 718 59.1588 1258.08 528.242
1088 0 54.134 11.7117 634 61.4306 1258.54 526.872
1089 0 58.0498 14.8321 861 58.0674 1258.84 524.338
1090 0 60.1043 12.1622 731 61.1724 1258.23 524.848
1091 0 59.1744 12.8434 760 61.8461 1258.52 521.734
1092 0 64.3153 13.7603 885 59.6203 1258.52 524.435
1093 0 64.0686 12.5022 801 61.6604 1258.46 520.848
1094 0 68.159 14.6422 998 58.7615 1258.69 522.655
1095 0 68.1013 13.4212 914 61.0711 1258.72 519.734
1096 0 71.3376 12.0694 861 62.9733 1258.44 518.178
1097 0 75.2462 13.2366 996 61.3544 1258.18 518.384
1098 0 75.2066 13.7355 1033 62.1878 1258.57 513.202
1099 0 77.1396 13.0024 1003 62.2662 1258.14 516.018
1100 1 42.14 12.2924 518 61.8089 1257.79 530.465
1101 0 44.1208 11.6272 513 62.2183 1257.97 532.357
1102 0 44.2523 11.9994 531 63.3503 1258.39 530.322
1103 0 44.31 12.5254 555 63.2919 1258.6 530.746
1104 0 45.1994 11.1063 502 64.9104 1258.94 532.247
1105 0 48.1143 12.3456 594 63.9057 1258.73 529.079
1106 0 51.1503 13.8807 710 61.9254 1258.24 527.625
1107 0 50.2933 14.3757 723 62.2379 1258.08 526.472
1108 0 52.4122 12.3826 649 63.7935 1258.27 528.156
1109 0 52.1871 12.7618 666 64.2147 1258.95 526.285
1110 0 56.2853 13.5915 765 62.7817 1259.05 525.685
1111 0 58.2497 13.4078 781 62.4046 1258.61 526.604
1112 0 58.2216 14.0326 817 63.1224 1258.43 521.71
1113 0 61.2504 13.5019 827 62.763 1258.98 524.48
1114 0 63.3763 13.7907 874 62.667 1258.59 521.82
1115 0 64.2031 13.5196 868 62.477 1258.23 523.507
1116 0 66.1636 13.512 894 63.2069 1258.01 520.547
1117 0 68.1057 11.6877 796 64.7186 1257.92 521.048
1118 0 70.4063 13.138 925 63.0249 1258.46 521.534
1119 0 75.2264 13.6521 1027 61.3223 1258.79 522.009
1120 0 76.1039 13.0217 991 63.3865 1259.04 517.869
1121 0 77.3558 13.8451 1071 63.1783 1258.6 515.765
1122 1 38.0778 13.8663 528 60.2689 1258.24 535.136
1123 0 38.1574 11.5574 441 63.5034 1259 535.465
1124 0 41.1122 13.2078 543 62.1381 1259.25 533.193
1125 0 41.1562 12.5619 517 63.3404 1259.57 532.934
1126 0 40.1319 12.3842 497 64.1529 1259.86 533.278
1127 0 43.2038 12.9387 559 62.5134 1258.79 532.801
1128 0 43.1491 12.2135 527 63.7818 1258.73 532.704
1129 0 46.1547 13.7581 635 62.3496 1259.59 531.065
1130 0 47.1876 13.245 625 62.8368 1259.32 530.877
1131 0 47.1635 11.8524 559 65.0179 1258.58 527.581
1132 0 51.0641 12.2199 624 64.0721 1258.68 528.901
1133 0 52.2205 15.109 789 60.8644 1258.71 526.564
1134 0 52.0522 11.5269 600 65.64 1259 525.013
1135 0 54.097 12.9212 699 63.6094 1258.12 525.05
1136 0 54.0414 12.5089 676 64.4704 1259.08 525.237
1137 0 57.2154 13.3181 762 63.1588 1259.08 522.472
1138 0 61.0729 14.3108 874 61.4211 1259.55 524.483
1139 0 60.0933 12.0313 723 65.3001 1259.17 519.683
1140 0 62.3476 10.7783 672 66.7723 1259.1 519.823
1141 0 64.1186 13.6778 877 63.5804 1258.7 518.235
1142 0 67.1855 13.8125 928 63.4601 1258.25 518.754
1143 0 72.2433 14.4927 1047 61.8854 1257.64 517.76
1144 0 71.1536 13.1546 936 65.0417 1258.3 514.19
1145 0 72.1464 11.8786 857 66.5788 1259.24 516.832
1146 0 74.0964 12.5377 929 66.296 1258.88 514.584
1147 0 78.2313 12.7187 995 65.606 1259.03 513.686
1148 0 81.1711 12.1349 985 66.8416 1258.78 512.234
1149 1 41.1652 11.3688 468 64.6026 1258.09 534.415
1150 0 42.0434 12.3444 519 64.2408 1258.21 533.802
1151 0 41.2415 11.76 485 66.2866 1258.46 532.047
1152 0 45.1595 12.5776 568 64.3345 1257.99 530.859
1153 0 45.2461 11.6253 526 66.0665 1257.71 530.783
1154 0 46.0786 12.3051 567 65.2981 1258.3 530.217
1155 0 50.1253 12.3291 618 64.6974 1258.78 529.04
1156 0 52.1696 12.2677 640 65.2438 1258.89 528.792
1157 0 53.073 13.5097 717 64.378 1258.24 526.067
1158 0 55.0769 12.6732 698 65.1819 1258.69 524.915
1159 0 57.2017 14.038 803 63.3948 1258.43 524.949
1160 0 59.3521 14.2371 845 63.2047 1258.5 524.349
1161 0 61.2062 14.5737 892 63.0359 1258.86 523.118
1162 0 63.1192 12.7378 804 65.6604 1258.61 519.687
1163 0 63.0985 12.5201 790 66.7241 1259.13 520.143
1164 0 65.3601 13.265 867 65.8397 1257.83 517.504
1165 0 68.205 12.4918 852 66.6784 1257.95 519.176
1166 0 72.1064 13.6465 984 64.7805 1258.06 519.453
1167 0 73.1732 12.8326 939 67.0596 1258.21 515.676
1168 0 75.2991 12.2711 924 67.5249 1258.34 514.933
1169 1 38.1533 13.5768 518 64.6332 1258.69 534.069
1170 0 38.3403 12.05 462 66.7186 1258.61 533.582
1171 0 39.0717 11.4405 447 67.9508 1258.72 532.711
1172 0 42.08 12.3812 521 66.3301 1258.28 531.209
1173 0 43.1454 12.6549 546 66.4396 1258.56 529.179
1174 0 45.1132 12.5019 564 66.8032 1258.96 528.734
1175 0 46.1723 12.6483 584 65.0702 1258.83 529.738
1176 0 45.1661 11.8673 536 67.2873 1258.51 527.681
1177 0 50.2532 12.7753 642 65.3863 1258.66 526.813
1178 0 50.3446 12.0768 608 66.1727 1258.4 527.752
1179 0 53.2953 12.7028 677 64.8154 1258.22 527.483
1180 0 54.0833 13.8675 750 64.012 1259.03 525.695
1181 0 56.1086 14.5254 815 63.0049 1258.2 523.696
1182 0 58.1392 13.2097 768 65.1354 1258.6 522.035
1183 0 58.1493 12.4335 723 66.675 1259.24 522.855
1184 0 62.1676 14.2196 884 63.9751 1258.91 521.221
1185 0 65.0742 12.4166 808 65.5099 1258.56 520.514
1186 0 67.1166 13.2754 891 65.2155 1258.59 515.884
1187 0 71.0536 13.7361 976 63.8156 1259.53 517.959
1188 0 72.162 12.2918 887 65.7993 1259.16 518.587
1189 0 74.1387 14.1896 1052 64.4933 1258.26 514.694
1190 1 36.0573 10.4833 378 68.1614 1258.59 532.751
1191 0 40.041 12.0626 483 66.6232 1258.42 531.766
1192 0 42.0526 12.0563 507 64.856 1258.57 533.536
1193 0 41.2239 11.1828 461 68.4816 1258.19 530
1194 0 45.0742 12.6902 572 65.6923 1258.56 529.115
1195 0 44.0319 13.2858 585 65.2034 1258.11 530.072
1196 0 47.0567 13.0056 612 65.549 1258.25 527.866
1197 0 49.1797 11.8545 583 66.8319 1257.98 528.889
1198 0 49.182 12.1793 599 66.2538 1258.25 528.252
1199 0 50.1712 13.2546 665 65.9158 1258.35 524.405
1200 0 54.0984 12.7361 689 64.5806 1258.16 526.202
1201 0 56.0471 14.47 811 63.0937 1258.95 526.953
1202 0 55.2711 13.6418 754 64.7467 1259.12 526.106
1203 0 60.0976 13.4614 809 64.6823 1259.04 524.436
1204 0 57.1395 14.4384 825 64.5236 1258.91 524.116
1205 0 61.1857 12.4539 762 66.8333 1258.43 522.954
1206 0 64.3309 14.0057 901 65.0266 1258.77 521.398
1207 0 65.0807 14.3207 932 64.6738 1258.58 520.467
1208 0 70.2715 14.2021 998 64.4499 1258.94 518.378
1209 0 71.1456 12.6923 903 66.9568 1258.94 516.601
1210 0 74.1479 12.8662 954 66.6268 1259.03 515.556
1211 0 77.162 12.6358 975 66.9897 1258.14 513.682
1212 0 80.0761 13.9118 1114 64.8941 1258.73 515.326
1213 1 40.0261 10.9678 439 68.9317 1258.55 530.246
1214 0 42.0869 10.2407 431 69.1995 1259.03 531.705
1215 0 44.0955 11.906 525 67.5676 1258.91 530.722
1216 0 44.1731 11.5002 508 69.1614 1258.8 528.947
1217 0 50.1842 13.3707 671 65.8331 1259.29 527.259
1218 0 49.1904 11.6689 574 68.6951 1259.48 527.913
1219 0 54.1318 14.8711 805 63.6981 1259.42 525.571
1220 0 50.123 12.6489 634 68.5978 1258.49 521.715
1221 0 54.1251 12.9699 702 67.7108 1258.98 522.711
1222 0 56.1945 13.3109 748 66.8997 1258.82 524.148
1223 0 60.129 13.5209 813 65.8795 1258.82 521.327
1224 0 59.2065 11.9581 708 69.3828 1258.83 518.636
1225 0 63.1697 14.1523 894 65.3233 1259.04 518.918
1226 0 64.1258 13.224 848 66.987 1259.18 519.045
1227 0 64.1282 11.9136 764 69.0105 1258.67 518.651
1228 0 68.1341 12.9157 880 67.692 1259.06 517.122
1229 0 69.0848 14.3592 992 66.1986 1258.92 513.23
1230 0 73.1554 12.9587 948 67.8344 1259.44 515.907
1231 0 72.0873 13.5946 980 67.4214 1259.68 516.324
1232 0 77.114 13.8885 1071 66.9085 1259.49 510.052
1233 0 82.321 13.4109 1104 66.8976 1259.32 511.622
1234 0 84.1301 14.6678 1234 65.9716 1259.9 508.157
1235 0 84.2688 13.0179 1097 68.887 1258.93 507.551
1236 0 88.106 12.3261 1086 69.5589 1258.7 506.079
1237 1 43.0958 12.1822 525 68.7276 1259.37 525.621
1238 0 44.0293 12.4008 546 67.4286 1259.86 527.614
1239 0 47.0598 11.0498 520 69.1654 1259.51 527.175
1240 0 48.0693 13.8342 665 66.5383 1259.5 526.615
1241 0 50.0276 11.3138 566 69.3587 1258.88 526.859
1242 0 53.032 13.7276 728 66.8049 1259.48 525.093
1243 0 55.0468 14.2061 782 65.867 1259.17 522.714
1244 0 55.1088 12.7747 704 69.081 1260.32 522.422
1245 0 56.1458 11.8442 665 70.2992 1259.99 521.457
1246 0 62.1133 13.8457 860 66.6302 1260.1 520.098
1247 0 61.0806 15.1439 925 65.8 1259.95 520.216
1248 0 63.1121 14.4029 909 66.8724 1260.01 519.168
1249 0 65.0742 14.6448 953 66.4239 1260.18 518.923
1250 0 66.0463 13.6117 899 68.3281 1259.91 516.873
1251 0 69.055 13.0765 903 68.371 1259.7 517.343
1252 0 74.1314 13.9212 1032 66.655 1259.91 516.581
1253 0 73.2075 13.4139 982 68.1538 1259.83 513.769
1254 0 77.1667 14.6436 1130 65.5894 1259.21 513.393
1255 0 79.268 13.9148 1103 66.7643 1259.62 511.626
1256 0 82.0942 14.7757 1213 65.2679 1259.57 510.988
1257 1 39.0166 11.3798 444 68.1284 1259.48 529.079
1258 0 42.0559 11.3896 479 67.666 1260.16 528.681
1259 0 42.0247 12.4213 522 65.6973 1259.91 530.241
1260 0 42.1228 11.4902 484 68.2066 1259.97 527.025
1261 0 48.0589 14.3158 688 62.9506 1258.88 526.406
1262 0 47.1187 14.2618 672 63.3839 1259.17 526.987
1263 0 49.1648 12.4479 612 65.6585 1258.06 525.098
1264 0 52.1865 14.3141 747 62.6399 1258.93 525.633
1265 0 51.0968 12.8775 658 64.383 1259.31 525.088
1266 0 51.0181 11.9565 610 66.323 1259.19 523.487
1267 0 53.0732 14.3952 764 63.144 1260.23 524.105
1268 0 56.1509 14.0514 789 63.2294 1260.44 522.721
1269 0 60.1826 13.3593 804 63.5858 1260.11 521.709
1270 0 61.0939 13.9621 853 62.5229 1259.58 521.728
1271 0 62.0196 14.0117 869 62.7077 1258.86 519.507
1272 0 64.1484 13.6714 877 63.1517 1259.24 519.556
1273 0 67.1303 13.5408 909 62.7624 1259.13 516.81
1274 0 69.0355 14.1811 979 61.3115 1259.25 519.957
1275 0 69.0515 12.3531 853 64.6542 1259.57 518.066
1276 0 74.1966 13.8955 1031 62.6334 1259.54 515.559
1277 0 77.149 15.0618 1162 60.9974 1259.14 514.293
1278 1 41.0976 10.8279 445 64.8 1259.27 531.969
1279 0 41.1633 11.2236 462 64.9048 1259.75 529.911
1280 0 42.3405 11.6201 492 63.7744 1258.81 531.26
1281 0 44.2549 13.6482 604 61.2682 1258.85 532.089
1282 0 45.1553 11.2501 508 64.2047 1259.23 529.13
1283 0 47.097 10.9986 518 64.3707 1259.01 527.492
1284 0 50.2655 12.1555 611 63.018 1259.25 527.101
1285 0 50.1391 13.3828 671 62.2012 1259.46 526.794
1286 0 52.2208 12.4471 650 63.0554 1260.24 526.432
1287 0 54.118 13.2119 715 61.9944 1259.91 525.298
1288 0 56.2739 11.8527 667 63.4588 1258.3 524.841
1289 0 54.1101 14.0085 758 61.8694 1258.77 525.582
1290 0 59.1339 13.9514 825 61.8109 1258.09 520.761
1291 0 60.2474 12.0005 723 64.0124 1258.76 522.759
1292 0 62.1496 12.7595 793 62.7692 1258.47 521.11
1293 0 64.2292 14.6818 943 61.2609 1258.9 520.578
1294 0 67.203 12.7078 854 62.3361 1258.72 521.278
1295 0 67.0438 12.7976 858 63.2016 1258.94 518.591
1296 0 70.074 12.9863 910 62.8692 1258.71 518.087
1297 0 72.3345 12.5666 909 63.5446 1258.79 515.288
1298 0 74.1804 10.1914 756 65.1019 1259.14 518.128
1299 1 38.128 11.3827 434 63.0092 1259.77 532.442
1300 0 38.1758 12.4686 476 62.3088 1259.78 531.956
1301 0 43.167 14.2702 616 59.6721 1259.1 532.727
1302 0 44.1466 12.164 537 62.9516 1259.67 531.771
1303 0 46.1516 11.6139 536 63.3731 1259.7 530.787
1304 0 47.2728 13.2846 628 61.5334 1259.06 529.908
1305 0 45.3039 11.4118 517 64.8008 1259.19 527.708
1306 0 48.1756 12.1846 587 63.2828 1259.16 528.375
1307 0 48.1659 13.0175 627 63.6172 1260.26 527.488
1308 0 51.1378 13.2387 677 62.3944 1259.75 527.504
1309 0 55.2705 11.8689 656 62.7835 1259.75 526.82
1310 0 56.162 12.3749 695 62.6388 1259.32 526.154
1311 0 57.2067 12.1664 696 63.2184 1259.58 523.93
1312 0 58.1827 11.7733 685 63.5854 1259.72 524.505
1313 0 62.1963 12.5731 782 62.5831 1259.63 522.418
1314 0 64.1453 15.1999 975 59.6554 1259.72 520.979
1315 0 62.12 10.8339 673 64.997 1259.88 521.511
1316 0 68.1757 12.7465 869 62.7952 1258.63 519.105
1317 0 68.1658 11.4133 778 64.3599 1258.81 517.747
1318 0 69.0645 13.8711 958 61.929 1258.96 516.533
1319 0 72.1052 12.0657 870 63.977 1258.84 516.725
1320 0 76.1368 13.1999 1005 62.9244 1258.94 514.97
1321 1 35.0539 12.0101 421 63.8432 1259.57 535.311
1322 0 39.1707 11.1308 436 64.3968 1258.78 534.333
1323 0 40.0639 11.0324 442 65.5 1259.64 532.952
1324 0 42.1879 13.5584 572 62.8619 1259.62 532.292
1325 0 42.1794 13.8219 583 62.1578 1258.81 533.16
1326 0 43.1198 12.8711 555 64.2018 1258.95 531.533
1327 0 45.2094 13.7361 621 63.0161 1259.45 530.081
1328 0 46.2003 12.3592 571 63.9142 1259.31 530.45
1329 0 48.0975 12.6618 609 63.9984 1259.9 529.591
1330 0 49.0126 13.1803 646 63.6827 1259.54 527.697
1331 0 51.2156 13.0429 668 63.3383 1259.25 528.271
1332 0 51.1458 13.0216 666 64.3694 1259.07 524.476
1333 0 55.0895 12.6703 698 63.5587 1258.65 527.132
1334 0 56.2287 12.9649 729 64.1948 1258.89 524.892
1335 0 56.1329 12.8445 721 65.5589 1258.83 522.806
1336 0 60.087 13.6802 822 63.5389 1259.72 521.839
1337 0 61.2294 14.1925 869 63.3602 1259.83 520.496
1338 0 65.2302 13.7666 898 63.3118 1259.59 521.624
1339 0 64.0855 13.1699 844 65.045 1259.14 519.541
1340 0 69.3446 12.7191 882 65.2834 1258.8 519.401
1341 0 71.1553 14.8127 1054 63.26 1259.41 515.696
1342 1 35.1313 12.0975 425 66.0776 1259.42 533.273
1343 0 37.2301 12.5168 466 63.3026 1259.55 535.532
1344 0 38.1447 12.5312 478 64.7469 1259.55 532.49
1345 0 37.248 11.41 425 67.6329 1259.47 531.033
1346 0 42.1552 13.4028 565 64.1575 1259.5 532.106
1347 0 45.2303 13.9287 630 63.2206 1259.61 531.987
1348 0 47.1607 13.6342 643 62.9751 1259.38 532.449
1349 0 46.025 12.5584 578 65.4706 1259.74 531.573
1350 0 47.0814 13.3811 630 64.6857 1259.97 529.359
1351 0 46.1008 14.0562 648 65.1682 1260.22 528.775
1352 0 51.1464 14.3314 733 63.4707 1259.85 527.514
1353 0 51.1175 12.5202 640 65.3812 1258.99 528.781
1354 0 52.0757 14.0949 734 64.782 1259.21 526.35
1355 0 55.3106 14.1745 784 63.6722 1259.18 525.582
1356 0 59.1455 14.067 832 63.6322 1258.91 525.127
1357 0 59.0967 13.8079 816 64.1605 1258.8 524.502
1358 0 59.1626 13.353 790 65.0544 1259.28 523.015
1359 0 63.1086 15.0059 947 62.6019 1259.56 522.758
1360 0 62.1905 13.0084 809 65.937 1258.57 521.722
1361 0 68.2552 13.4349 917 64.4384 1258.52 522.329
1362 0 67.0439 12.3501 828 67.0978 1258.13 517.327
1363 0 69.0774 12.7972 884 66.5351 1258.22 518.267
1364 0 74.0872 13.8215 1024 64.7422 1258.61 517.732
1365 0 75.1653 15.273 1148 63.351 1259.1 516.461
1366 0 77.2276 13.2725 1025 65.4302 1258.84 517.413
1367 1 41.1599 13.4354 553 64.9548 1258.8 531.309
1368 0 42.0542 10.8907 458 68.2467 1258.03 530.889
1369 0 46.0662 14.4358 665 63.591 1258.31 530.417
1370 0 46.0624 11.2239 517 67.8356 1258.66 531.039
1371 0 48.0609 13.5661 652 64.6887 1258.56 528.949
1372 0 50.0627 13.1036 656 64.8933 1258.59 528.302
1373 0 51.0318 14.5008 740 63.5459 1258.91 527.357
1374 0 52.1571 15.5492 811 61.6523 1259.25 528.768
1375 0 55.1967 13.7146 757 63.7371 1258.65 524.309
1376 0 58.1082 15.213 884 61.1448 1258.36 523.88
1377 0 58.0682 13.8802 806 63.4194 1258.86 522.881
1378 0 62.0904 15.3325 952 60.4485 1258.94 523.451
1379 0 63.0604 12.4642 786 63.5445 1259.3 523.256
1380 0 62.0767 13.3545 829 63.8456 1258.74 518.717
1381 0 67.1062 13.3669 897 63.3367 1258.81 519.683
1382 0 68.0776 14.175 965 62.1979 1258.3 518.548
1383 0 69.1819 13.7753 953 62.9664 1257.23 516.952
1384 0 72.0852 13.9002 1002 62.6707 1257.43 513.754
1385 0 73.1352 13.5776 993 63.2387 1258.72 513.263
1386 0 77.0779 14.6216 1127 61.5537 1258 512.778
1387 0 81.1242 14.1388 1147 61.9582 1257.84 513.446
1388 0 81.0674 14.2104 1152 62.1571 1258.83 512.245
1389 0 85.2562 13.0665 1114 63.0045 1258.69 511.374
1390 0 88.2491 14.0851 1243 61.8737 1258.43 509.689
1391 1 40.119 11.6653 468 62.9017 1257.81 532.434
1392 0 43.0565 11.1017 478 63.4184 1257.75 532.515
1393 0 45.1525 12.0923 546 63.1484 1258.06 528.958
1394 0 43.0953 11.6254 501 64.6108 1258.17 528.583
1395 0 47.0541 14.6002 687 60.3261 1258.52 528.868
1396 0 48.0519 13.8808 667 61.0345 1258.34 527.663
1397 0 51.2514 13.4045 687 60.5604 1257.72 527.613
1398 0 51.2587 12.8954 661 61.3964 1257.59 526.997
1399 0 53.0893 13.5997 722 60.7673 1258.43 525.849
1400 0 54.1075 10.2943 557 63.3914 1258.76 526.434
1401 0 57.0886 13.8206 789 60.2307 1258.7 522.776
1402 0 58.1113 14.3174 832 59.3942 1258.37 525.257
1403 0 62.1937 13.056 812 60.1453 1258.36 520.846
1404 0 64.077 12.9532 830 60.4361 1257.96 520.26
1405 0 67.0922 13.2951 892 59.6771 1259.13 519.916
1406 0 69.2944 12.4108 860 60.5198 1258.7 517.85
1407 0 71.0912 14.7557 1049 58.2126 1258.32 515.85
1408 0 75.1437 13.7603 1034 59.0841 1258.18 514.557
1409 0 75.1202 12.5 939 60.2737 1258.55 515.885
1410 0 77.3528 11.7772 911 61.2722 1258.28 513.047
1411 0 82.2484 12.7905 1052 59.8346 1258.46 510.898
1412 0 87.1925 13.4874 1176 58.557 1258.81 511.372
1413 0 87.066 12.4274 1082 60.3641 1258.31 509.343
1414 0 91.1643 12.6146 1150 59.3026 1258.83 509.017
1415 1 47.0371 12.0543 567 58.7601 1258.02 528.575
1416 0 49.0248 12.6874 622 58.1061 1258.34 525.469
1417 0 52.0958 11.8628 618 58.6683 1258.38 527.563
1418 0 56.1135 13.1341 737 58.0122 1258.33 523.744
1419 0 56.0997 14.189 796 57.1746 1259.02 523.873
1420 0 54.0449 11.4349 618 61.0324 1259.38 522.104
1421 0 61.1199 14.447 883 56.6806 1259.12 522.396
1422 0 64.1719 13.121 842 57.9299 1258.71 519.167
1423 0 62.0413 12.0726 749 59.2537 1259.01 519.721
1424 0 66.1392 13.0482 863 57.9583 1258.94 518.196
1425 0 69.2282 13.5783 940 57.5011 1258.86 516.602
1426 0 72.1125 13.1045 945 57.963 1258.92 517.676
1427 0 72.1125 13.3541 963 57.783 1259.28 517.935
1428 0 75.0783 11.7611 883 59.3749 1259.21 515.37
1429 0 80.1609 13.8721 1112 56.9622 1259.17 512.025
1430 0 81.2426 12.875 1046 58.0679 1258.78 509.925
1431 0 86.1041 13.8321 1191 56.3652 1258.51 510.944
1432 0 88.1238 12.4143 1094 58.3656 1258.8 509.62
1433 0 91.0757 13.1319 1196 57.862 1258.91 506.036
1434 0 92.0621 14.1752 1305 57.2015 1258.96 502.897
1435 0 98.1552 14.6197 1435 56.4746 1258.7 502.423
1436 1 48.0608 11.2774 542 58.3376 1259.4 527.375
1437 0 48.0643 12.5041 601 57.6556 1258.42 527
1438 0 49.0626 12.2496 601 58.0017 1259.07 525.313
1439 0 51.0352 10.8357 553 58.6546 1259.02 526.828
1440 0 53.0761 13.0379 692 57.2225 1258.24 523.776
1441 0 56.1646 13.1043 736 56.5652 1258.46 525.008
1442 0 60.0602 12.5041 751 56.6325 1258.63 524.256
1443 0 60.1016 12.6286 759 56.8669 1258.61 523.221
1444 0 63.0803 12.5079 789 56.9772 1258.81 520.253
1445 0 66.2578 12.5117 829 56.9819 1259.34 519.327
1446 0 65.1762 13.5939 886 56.6716 1258.71 517.668
1447 0 68.0607 14.252 970 55.8608 1259.09 519.921
1448 0 69.0762 14.1148 975 56.6021 1258.94 517.97
1449 0 71.1023 12.9391 920 57.4783 1258.12 517.777
1450 0 76.3019 13.9708 1066 56.5938 1258.79 514.105
1451 0 79.1336 13.1929 1044 57.8065 1258.7 509.981
1452 0 81.1329 13.5703 1101 58.0073 1258.62 511.025
1453 1 39.0219 10.9682 428 58.5935 1258.73 532.035
1454 0 45.0668 11.9822 540 57.4093 1258.45 529.869
1455 0 46.1339 12.7238 587 56.4549 1259.6 530.422
1456 0 47.0533 11.9652 563 57.0142 1259.31 528.444
1457 0 47.0628 14.3638 676 56.1479 1259.76 525.864
1458 0 48.1425 12.4422 599 58.1302 1259.62 526.548
1459 0 50.0626 12.8239 642 57.6931 1259.29 525.611
1460 0 50.0299 12.6724 634 57.5647 1259.13 526.715
1461 0 54.0322 14.2878 772 56.1295 1259.07 525.817
1462 0 56.0608 12.647 709 58.0578 1259.21 524.016
1463 0 57.0559 10.9717 626 59.9042 1258.94 521.45
1464 0 60.0562 15.5188 932 55.383 1258.72 520.167
1465 0 62.1062 11.9795 744 58.8253 1259.13 520.179
1466 0 65.1394 14.0008 912 56.3279 1258.62 517.712
1467 0 67.0889 13.7728 924 56.4394 1257.87 515.014
1468 0 72.039 13.5066 973 56.3186 1258.13 515.321
1469 0 71.1021 10.9279 777 58.8481 1258.48 516.96
1470 0 74.2096 12.4916 927 57.4822 1258.79 514.854
1471 0 77.1145 13.5513 1045 56.9234 1258 510.625
1472 0 80.1083 12.9575 1038 57.4422 1258.75 508.579
1473 0 83.259 12.6713 1055 57.5175 1258.51 509.64
1474 0 88.1005 13.0646 1151 56.8523 1258.1 506.455
1475 0 88.1073 12.4167 1094 58.1216 1258.14 502.826
1476 0 91.1448 11.0922 1011 59.4135 1258.3 500.205
1477 1 46.0474 12.1397 559 57 1258.54 523.499
1478 0 48.0746 10.5669 508 58.9902 1258.52 522.963
1479 0 49.1227 12.7436 626 57.1198 1258.97 520.883
1480 0 51.0181 12.6426 645 56.7225 1259.05 523.439
1481 0 53.0238 10.1087 536 58.3097 1258.62 523.297
1482 0 55.097 14.1569 780 55.5359 1258.21 520.797
1483 0 58.0356 13.9397 809 55.3708 1258.04 518.544
1484 0 60.1434 12.2707 738 57.4661 1258.54 518.771
1485 0 61.0903 13.0954 800 56.8775 1257.48 518.06
1486 0 64.1953 14.2378 914 55.5678 1258.86 515.614
1487 0 65.2293 12.8623 839 57.3969 1258.95 513.819
1488 0 67.0485 13.9302 934 56.5921 1258.13 516.17
1489 0 71.2302 12.256 873 58.0962 1257.81 514.475
1490 0 73.0476 14.0593 1027 56.9737 1257.97 508.814
1491 0 74.1413 12.3952 919 58.9162 1258.36 510.055
1492 0 79.0986 14.286 1130 56.7354 1258.87 507.765
1493 0 79.2082 12.7891 1013 59.0869 1259.07 506.124
1494 0 82.0873 13.8511 1137 57.9068 1258.92 508.309
1495 0 85.176 14.1002 1201 58.1074 1258.99 502.755
1496 0 90.0701 13.8226 1245 58.0297 1258.07 501.816
1497 0 91.3316 14.4966 1324 57.8119 1257.48 502.079
1498 0 94.0807 12.5424 1180 59.3856 1258.25 503.978
1499 1 48.0757 9.56825 460 62.1435 1257.64 522.73
1500 0 53.1028 11.9579 635 59.4079 1258.6 520.946
1501 0 56.0617 12.8787 722 58.4778 1258.22 520.065
1502 0 52.0579 8.1832 426 64.6643 1258.61 463.153
1503 0 57.0738 14.1746 809 58.4747 1259.24 514.381
1504 0 60.0595 11.3054 679 59.5258 1258.19 519.242
1505 0 65.1415 14.8907 970 56.1567 1258.3 516.451
1506 0 67.0598 13.7489 922 57.4685 1257.78 512.102
1507 0 66.1933 13.1433 870 58.8747 1257.95 511.855
1508 0 71.0611 14.6634 1042 56.5998 1258.39 511.987
1509 0 72.1165 12.9097 931 58.7991 1258.73 508.534
1510 0 76.1012 13.8763 1056 57.7197 1258.34 506.751
1511 0 79.1526 14.8195 1173 56.4663 1258.27 506.483
1512 0 82.232 13.2552 1090 57.8725 1257.83 505.915
1513 0 85.0842 16.466 1401 54.4354 1257.74 505.341
1514 0 88.268 13.9348 1230 57.4463 1257.68 503.797
1515 0 90.1908 14.7354 1329 56.8096 1258 501.877
1516 0 94.1539 13.3823 1260 58.5444 1258.49 498.898
1517 0 94.195 11.9433 1125 60.2311 1258.63 499.398
1518 1 50.2403 12.5397 630 58.0635 1258.42 521.537
1519 0 50.1996 12.7292 639 58.0548 1257.82 521.892
1520 0 52.1392 13.9434 727 56.74 1258.07 521.619
1521 0 53.0976 13.5976 722 57.5859 1257.82 519.296
1522 0 57.1719 14.0803 805 56.9739 1258.19 518.568
1523 0 58.3553 13.0579 762 57.5367 1258.2 518.587
1524 0 60.0429 12.0247 722 58.9294 1258.43 517.284
1525 0 61.1475 11.7257 717 59.1883 1258.85 516.582
1526 0 63.0984 12.5835 794 57.8136 1257.89 515.27
1527 0 66.0866 13.6488 902 56.5865 1258.43 512.963
1528 0 67.1016 13.5466 909 56.8317 1257.91 509.527
1529 0 70.163 15.4497 1084 55.1679 1257.89 510.239
1530 0 73.1003 12.0383 880 58.3705 1258.19 506.943
1531 0 76.0619 14.4225 1097 56.0857 1258.24 507.219
1532 0 78.1513 13.1156 1025 57.3434 1257.54 506.039
1533 0 80.1082 12.6079 1010 57.7723 1257.65 503.805
1534 0 85.0707 16.0572 1366 54.0791 1258.13 503.176
1535 0 87.1193 13.9349 1214 56.2438 1258.23 503.204
1536 1 45.0576 11.8959 536 57.3172 1258.24 524.213
1537 0 48.0626 12.5045 601 55.6606 1258.28 525.095
1538 0 49.0422 11.1129 545 57.3064 1258.61 523.998
1539 0 53.054 11.8935 631 56.813 1258.46 523.008
1540 0 53.0323 11.955 634 56.6798 1257.81 522.935
1541 0 56.0873 13.3185 747 55.8246 1257.47 520.461
1542 0 56.2355 13.6391 767 55.6454 1257.48 518.832
1543 0 58.0367 13.5776 788 55.8655 1257.54 520.364
1544 0 59.2047 13.8503 820 56.1073 1257.38 518.134
1545 0 63.2064 13.5271 855 55.4842 1258.05 516.65
1546 0 63.1808 11.8707 750 57.604 1257.82 515.709
1547 0 68.1273 15.1188 1030 54.2437 1257.91 516.007
1548 0 69.0746 12.8701 889 56.4432 1257.46 513.018
1549 0 73.1764 12.2581 897 56.7559 1257.49 513.401
1550 0 74.0918 13.2268 980 56.3133 1257.37 510.183
1551 0 77.2198 12.7428 984 56.8852 1257.82 506.513
1552 0 78.0965 12.2157 954 57.4486 1257.88 508.119
1553 0 82.1227 13.4798 1107 56.5438 1258.26 503.191
1554 0 87.1615 12.9989 1133 56.3319 1258.25 504.733
1555 0 88.1103 16.5134 1455 53.6117 1258.53 503.187
1556 0 90.2576 13.7606 1242 56.8301 1259.04 500.582
1557 1 45.2083 12.7189 575 55.3635 1257.76 526.894
1558 0 45.1048 13.8566 625 55.2768 1257.79 524.61
1559 0 47.0865 10.5975 499 58.6293 1257.61 522.134
1560 0 50.26 11.7589 591 57.3486 1258.05 522.078
1561 0 52.0379 12.7215 662 56.7613 1258.61 520.683
1562 0 51.0143 11.8202 603 58.2139 1258.99 519.796
1563 0 54.1361 12.6902 687 57.4338 1258.59 518.547
1564 0 59.1081 14.7696 873 54.9175 1258.75 516.956
1565 0 61.0885 12.7029 776 56.7088 1258.39 517.196
1566 0 60.2995 10.1991 615 59.5593 1257.93 515.096
1567 0 62.0697 13.5815 843 56.1945 1257.82 514.007
1568 0 67.1388 14.5073 974 55.1314 1258.15 511.372
1569 0 71.1237 16.2112 1153 53.3322 1258.22 512.069
1570 0 74.533 12.4106 925 56.7341 1257.45 509.507
1571 0 75.1968 14.3224 1077 54.7679 1257.7 510.545
1572 0 76.0825 12.0133 914 57.64 1257.74 508.709
1573 0 78.2865 14.5874 1142 55.2478 1257.68 505.823
1574 0 81.1496 13.0869 1062 56.8484 1257.42 502.344
1575 0 90.1488 14.5759 1314 54.0068 1258.47 506.225
1576 0 88.1435 13.3192 1174 56.5426 1257.55 500.439
1577 0 95.163 12.074 1149 56.9556 1257.08 502.272
1578 0 92.2638 14.4802 1336 55.887 1257.04 498.489
1579 0 94.1488 11.3969 1073 58.6514 1258.36 499.855
1580 1 0 0 0 -nan -nan -nan
1581 1 62.3087 12.7911 797 54.1531 1258.58 519.541
1582 0 63.1434 11.6877 738 55.7114 1257.51 517.53
1583 0 67.0997 12.8913 865 53.5098 1257.98 519.666
1584 0 70.0719 13.5575 950 53.0947 1258.05 517.763
1585 0 70.0873 11.5998 813 55.4034 1258.71 515.691
1586 0 71.2702 14.41 1027 52.8306 1258.34 514.952
1587 0 72.2067 11.0932 801 56.7765 1257.98 512.593
1588 0 76.0859 11.2504 856 56.0093 1257.57 510.508
1589 0 81.1295 13.2134 1072 53.7603 1257.67 510.438
1590 0 80.1057 13.1576 1054 54.4108 1257.01 511.152
1591 0 84.0978 14.4118 1212 53.3276 1257.48 506.811
1592 0 87.271 13.9794 1220 53.6918 1257.6 506.165
1593 0 88.1706 13.6667 1205 54.3544 1257.25 506.796
1594 0 96.3719 12.2754 1183 55.6593 1257.39 501.122
1595 0 96.1602 12.5 1202 55.6847 1258.12 501.395
1596 0 100.215 12.0142 1204 56.7242 1257.26 500.897
1597 0 101.092 14.9863 1515 54.0818 1257.44 497.492
1598 1 54.1487 10.5635 572 56.2745 1257.63 519.283
1599 0 56.3041 11.1892 630 55.6571 1257.37 518.236
1600 0 56.6312 12.1664 689 56.0334 1257.79 516.878
1601 0 58.2448 12.4303 724 55.721 1257.54 516.931
1602 0 60.1057 11.2635 677 57.418 1257 513.306
1603 0 62.1286 12.0073 746 56.5442 1256.94 511.519
1604 0 62.0305 12.2198 758 56.1346 1256.93 514.046
1605 0 68.1757 11.661 795 55.917 1257.44 515.458
1606 0 65.0786 11.4477 745 57.6094 1258.02 512.205
1607 1 11.0058 7.72319 85 42.2588 1258.06 546.894
1608 0 12.0401 2.32555 28 45.0357 1257.71 547.964
1609 0 13.0139 4.3031 56 44.2143 1258.55 547.321
1610 0 12.0133 4.32855 52 44.2692 1257.9 547.519
1611 0 12.0114 4.49574 54 44.6852 1258.2 548.204
1612 0 13.0262 7.06267 92 43.4457 1257.8 546.717
1613 0 14.0012 4.85672 68 45.3382 1258.79 548.603
1614 0 12.0065 6.08004 73 44.9726 1257.75 547.26
1615 0 15.0886 9.2785 140 42.7 1256.71 547.079
1616 0 14.307 3.84426 55 46.1636 1257.44 547.782
1617 0 14.0278 4.3485 61 45.8361 1258.44 546.738
1618 0 14.0191 3.06724 43 47 1258.47 548.674
1619 0 15.0206 9.52029 143 43.0769 1258.52 547.636
1620 0 15.008 7.46271 112 44.1786 1259.16 546.893
1621 0 15.0202 9.25422 139 43.295 1258.5 546.583
1622 0 14.0067 5.06899 71 45.9296 1257.94 548.324
1623 0 17.0298 9.6889 165 42.4545 1257.49 544.988
1624 0 15.0445 8.30867 125 44.184 1258.1 546.464
1625 0 15.0134 9.19182 138 43.6594 1258.41 544.964
1626 0 14.1741 10.0183 142 44.0493 1257.51 544.746
1627 0 18.0433 7.59283 137 44.7226 1258.43 547.949
1628 0 17.0256 9.80879 167 43.6826 1258.34 544.629
1629 0 17.0033 5.41073 92 46 1258.08 545.946
1630 0 17.0113 10.9339 186 42.9731 1257.78 544.522
1631 0 15.0027 4.53253 68 47.8676 1256.94 545.838
1632 0 17.0074 13.112 223 42.6009 1257.69 544.83
1633 0 18.0235 11.3185 204 43.7598 1258.05 544.549
1634 0 20.0621 9.17153 184 44.5054 1258.17 540.848
1635 0 20.1242 8.44754 170 45.1882 1258.02 545.9
1636 0 20.0088 9.34588 187 45.369 1257.85 544.802
1637 0 18.0239 11.8177 213 44.3897 1257.82 541.249
1638 0 19.1261 7.11069 136 47.1691 1257.76 543.61
1639 0 18.0315 7.32053 132 48.2121 1258.61 545.492
1640 0 20.015 8.84336 177 46.6949 1258.42 543.921
1641 0 21.0276 9.93933 209 46.2297 1258.03 542.632
1642 0 20.1866 8.17373 165 46.7939 1258.24 543.721
1643 0 21.0301 10.1284 213 46.1033 1258.6 542.178
1644 0 19.0197 6.51955 124 48.371 1258.19 543.242
1645 0 20.0997 11.443 230 45.513 1258.21 541.117
1646 0 20.0755 10.0122 201 46.01 1257.66 542.174
1647 0 21.1076 9.80689 207 46.0628 1258.14 542.319
1648 0 21.0181 8.08827 170 47.7118 1258.32 542.188
1649 0 23.0855 9.78968 226 46.1991 1257.96 543.097
1650 0 22.0894 10.0048 221 46.2398 1258.11 541.665
1651 0 21.0853 7.01911 148 48.7838 1257.86 543.236
1652 0 23.0368 7.63994 176 48.6591 1257.82 542
1653 0 25.017 9.51352 238 47.042 1258.19 540.071
1654 0 24.0392 9.73409 234 47.2991 1258.56 541.603
1655 0 25.0229 10.9899 275 45.8218 1257.13 541.164
1656 0 25.1953 9.96216 251 46.6175 1258.53 539.761
1657 0 26.0172 9.41686 245 46.8163 1258.38 540.265
1658 0 23.0205 14.2482 328 44.5701 1258.18 539.762
1659 0 25.0861 8.49076 213 47.4319 1257.49 539.113
1660 0 22.0151 12.1281 267 46.1236 1257.34 541.416
1661 0 25.016 9.63384 241 46.9253 1257.08 538.456
1662 0 24.0381 6.0321 145 50.0276 1257.61 540.648
1663 0 23.0162 9.03713 208 47.9808 1257.8 538.505
1664 0 26.0303 7.18394 187 48.492 1258.17 540.38
1665 0 26.0588 6.94584 181 48.8343 1258.23 539.575
1666 0 26.2124 12.8946 338 45.003 1258.75 538.642
1667 0 27.0298 12.8747 348 45.0057 1258.66 539.457
1668 0 26.0189 10.992 286 46.3601 1258.69 538.49
1669 0 28.0364 10.094 283 46.1661 1258.47 538.827
1670 0 26.1383 7.80464 204 47.9314 1257.95 536.716
1671 0 21.0117 4.71166 99 51.3737 1257.75 537.404
1672 0 31.0411 14.0137 435 42.7816 1258.17 537.124
1673 0 28.0202 8.56525 240 46.9708 1257.9 538.462
1674 0 27.023 8.40026 227 47.0396 1258.24 537.722
1675 0 29.0491 9.22574 268 46.694 1258.54 537.664
1676 0 30.0487 10.9822 330 45.2121 1258.31 536.364
1677 0 30.0424 8.08858 243 47.465 1258.56 537.251
1678 0 31.0637 8.78839 273 46.0037 1258.18 536.432
1679 0 30.1026 10.6303 320 45.4969 1257.43 537.566
1680 0 31.0333 9.69926 301 45.5448 1257.62 535.638
1681 0 31.0095 8.15879 253 46.4664 1257.58 534.21
1682 0 30.1718 6.16469 186 48.1774 1256.96 534.989
1683 0 32.0594 9.20167 295 46.3932 1257.7 535.63
1684 0 32.1018 7.56966 243 47.3704 1258.18 536.65
1685 0 33.0429 10.441 345 45.4029 1258.01 532.661
1686 0 33.0699 7.2876 241 48.1992 1258.47 534.295
1687 0 34.1098 11.5802 395 45.3367 1257.89 534.98
1688 0 34.0485 8.34105 284 47.3099 1257.9 535.923
1689 0 36.0371 8.65775 312 46.8397 1257.86 532.875
1690 0 36.1994 10.8565 393 46.6743 1257.87 532.975
1691 0 38.053 13.928 530 44.1321 1257.88 536.066
1692 0 38.0328 9.43921 359 47.4735 1257.74 534.535
1693 0 38.2116 7.66784 293 48.5666 1257.6 534.171
1694 0 42.0877 12.4977 526 45.3308 1257.91 532.274
1695 0 40.1253 9.39557 377 47.8011 1257.26 533.674
1696 0 40.0637 8.21192 329 47.9787 1256.79 535.319
1697 0 43.3077 7.73534 335 48.3791 1257.4 533.263
1698 0 41.1319 9.55462 393 47.9466 1257.53 529.914
1699 0 41.0156 10.1425 416 47.4615 1257.14 530.505
1700 0 43.0792 9.05309 390 48.1154 1256.95 528.151
1701 0 42.046 11.0831 466 46.8627 1257.42 530.5
1702 0 42.0638 7.91656 333 49.8859 1257.45 528.282
1703 0 43.0899 9.93272 428 47.8855 1257.33 528.4
1704 0 44.0585 6.60485 291 50.3608 1257.88 527.945
1705 0 43.0905 6.52116 281 50.5231 1257.96 530.167
1706 0 46.0485 10.7495 495 47.998 1258.31 529.719
1707 0 48.1811 9.98316 481 48.4324 1258.12 530.913
1708 0 47.0716 8.05156 379 50.2929 1257.93 532.38
1709 0 49.0536 10.1318 497 48.8491 1257.57 525.869
1710 0 49.054 10.886 534 48.8558 1257.86 528.714
1711 0 51.1509 11.2804 577 48.1733 1256.75 528.087
1712 0 49.114 9.28453 456 49.9013 1257.63 529.713
1713 0 54.1525 8.88232 481 49.9584 1257.06 528.322
1714 0 53.211 11.9148 634 48.4511 1258.01 525.89
1715 0 52.1246 8.67153 452 50.8031 1258.27 529.285
1716 0 55.155 10.6246 586 49.442 1258.42 527.978
1717 0 55.0828 9.78528 539 50.3043 1257.83 528.314
1718 0 56.0414 11.2595 631 48.6751 1257.52 529.791
1719 0 55.088 11.0006 606 49.3168 1257.33 528.246
1720 0 57.0779 9.33812 533 50.5553 1258.13 527.141
1721 0 59.1316 11.1108 657 49.8965 1257.71 525.006
1722 0 60.0818 9.85323 592 50.4628 1257.84 528.112
1723 0 61.0794 9.98701 610 50.323 1258.27 527.254
1724 0 62.193 11.4 709 50.2285 1257.87 522.704
1725 0 62.0706 10.9069 677 50.8331 1257.31 522.27
1726 0 64.1 11.6849 749 50.2029 1256.9 521.491
1727 0 65.1517 8.15021 531 52.791 1256.65 524.405
1728 0 64.0482 9.05568 580 52.7138 1257.92 523.122
1729 0 66.0765 8.6869 574 52.7509 1258.45 526.662
1730 0 67.0513 8.08336 542 54.441 1258.56 520.91
1731 0 68.0619 10.5639 719 52.9346 1258.54 519.204
1732 0 68.0775 10.8406 738 53.1477 1258.59 520.676
1733 0 69.1879 11.924 825 52.6121 1258.36 519.565
1734 0 70.067 9.60509 673 54.4101 1257.85 522.074
1735 0 70.2212 10.2248 718 54.5098 1258.19 516.712
1736 0 72.1073 10.6508 768 53.8737 1258.14 516.784
1737 0 74.1102 8.51435 631 55.607 1258.28 516.867
1738 0 75.0646 10.6974 803 54.2416 1257.97 515.321
1739 0 74.0985 8.82609 654 55.6865 1258.06 516.61
1740 0 77.0649 11.0297 850 54.16 1257.87 517.688
1741 0 78.1345 10.9299 854 54.9883 1258.11 517.102
1742 0 78.1347 9.45803 739 57.3735 1258.2 516.483
1743 0 81.197 12.4512 1011 54.9327 1257.65 514.51
1744 0 78.2276 8.76928 686 60.5918 1257.81 516.63
1745 0 81.3917 10.7382 874 58.9588 1257.97 516.955
