time division length width area intensity CMx CMy
0 0 44.1039 10.3619 457 78.7527 507.081 502.654
1 0 47.0268 11.1638 525 76.659 506.651 500.979
2 0 50.026 13.1731 659 72.1851 506.822 503.876
3 0 51.0405 13.4011 684 72.6213 507.155 501.851
4 0 53.077 13.3956 711 72.4065 507.232 501.495
5 0 53.046 12.6682 672 73.5223 506.458 501.702
6 0 55.0289 13.4111 738 71.6965 505.033 502.127
7 0 56.0551 12.2023 684 74.8129 505.637 500.148
8 0 56.0657 14.5722 817 71.5936 504.854 497.705
9 0 57.147 13.1416 751 74.1332 505.192 497.342
10 0 58.1002 12.0998 703 75.5761 505.619 497.57
11 0 62.1077 12.8486 798 73.3108 504.518 496.422
12 0 64.0348 12.3058 788 73.6637 504.567 497.197
13 0 66.0657 13.9407 921 71.0977 504.198 495.38
14 0 67.0904 11.641 781 75.6338 504.526 495.314
15 0 69.2081 13.351 924 72.5119 504.045 493.863
16 0 71.0636 12.5099 889 73.5624 503.098 492.6
17 0 73.0598 12.4419 909 73.8328 503.462 492.594
18 1 39.0406 10.5531 412 74.5704 503.104 509.364
19 0 41.0201 12.0916 496 73.6694 503.504 507.407
20 0 41.0257 12.7237 522 73.1437 503.686 505.927
21 0 45.0569 10.8751 490 75.3673 504.306 505.259
22 0 46.0271 12.0364 554 73.4621 504.139 504.975
23 0 48.0698 12.4194 597 72.4891 503.181 505.534
24 0 47.0223 12.9938 611 72.3208 503.195 505.417
25 0 49.0443 13.3145 653 72.7152 504.032 503.703
26 0 50.0382 12.9501 648 74.1466 504.676 501.429
27 0 51.0255 12.7583 651 74.3272 504.046 502.854
28 0 52.0317 12.2233 636 75.7091 504.013 501.586
29 0 54.0303 12.7891 691 75.2069 504.007 501.485
30 0 56.0626 13.0568 732 74.1721 504.126 500.475
31 0 57.0204 12.6446 721 74.9293 503.907 499.154
32 0 59.052 12.1249 716 75.8603 504.094 499.197
33 0 61.0412 12.4178 758 75.3061 503.518 498.573
34 0 63.0859 14.9162 941 71.1137 503.593 496.528
35 0 64.0746 12.5947 807 75.2515 503.485 494.783
36 0 66.1222 12.492 826 75.1913 503.403 493.841
37 0 68.0551 11.5054 783 76.2835 503.719 494.484
38 0 72.041 14.3668 1035 71.4734 503.481 491.357
39 0 75.0332 13.1942 990 73.4343 503.522 491.042
40 1 39.0765 11.1832 437 73.746 503.503 508.494
41 0 39.0311 11.2987 441 74.6689 503.796 508.036
42 0 40.0352 10.9154 437 75.9314 503.657 507.076
43 0 41.0464 11.0607 454 77.1872 503.641 505.562
44 0 43.0251 11.226 483 76.6253 503.894 506.13
45 0 43.0271 11.3417 488 77.4037 503.699 505.66
46 0 48.0588 11.8813 571 74.5709 503.252 505.49
47 0 48.022 12.7025 610 74.541 503.056 503.469
48 0 48.0251 11.6606 560 76.95 503.111 503.587
49 0 50.0216 12.0348 602 76.6678 503.349 502.053
50 0 53.0492 11.6684 619 77.0985 502.683 501.872
51 0 53.0457 13.5355 718 74.8621 503.046 499.773
52 0 56.0355 12.0281 674 76.7255 503.274 500.267
53 0 58.0328 12.0277 698 76.9112 503.117 499.681
54 0 59.1045 13.2816 785 74.5414 503.293 500.051
55 0 60.0583 13.9531 838 74.3926 503.31 497.996
56 0 63.0756 12.382 781 76.5864 503.072 497.662
57 0 64.046 13.1156 840 76.1107 503.192 494.296
58 0 68.0916 13.4084 913 75.1183 503.274 493.035
59 0 70.1098 12.5803 882 76.5998 503.54 493.187
60 0 71.0748 12.7471 906 76.8333 503.82 491.909
61 0 75.0564 13.8696 1041 74.4803 503.542 491.11
62 0 76.0687 12.8568 978 75.5726 503.343 492.436
63 1 37.0213 9.88619 366 78.9918 503.134 508.456
64 0 43.022 12.5517 540 72.4315 502.933 507.876
65 0 41.0419 11.4273 469 76.1578 503.667 506.011
66 0 44.0411 12.5564 553 73.6835 503.042 506.309
67 0 46.0283 11.2757 519 75.4104 502.792 506.892
68 0 46.0242 12.0589 555 75.3514 503.142 504.335
69 0 47.0184 11.889 559 75.9946 503.369 505.116
70 0 50.0217 12.6545 633 73.0253 502.719 506.077
71 0 51.0217 12.1321 619 74.9435 502.937 504.003
72 0 50.024 12.7139 636 74.033 502.869 504.929
73 0 52.0385 12.068 628 75.9554 503.268 501.608
74 0 56.0341 13.0456 731 72.9713 503.424 502.819
75 0 56.0336 12.8316 719 74.3964 503.152 500.971
76 0 57.0306 12.8528 733 74.0518 502.993 501.427
77 0 61.0472 13.465 822 72.1277 503.03 500.333
78 0 63.068 13.5568 855 71.683 503.609 500.358
79 0 64.0374 13.0549 836 73.1866 503.492 497.061
80 0 63.0466 11.9436 753 75.2112 503.511 497.817
81 0 66.0395 12.7197 840 74.2 503.542 494.332
82 0 69.0667 12.64 873 73.3139 502.663 493.278
83 0 71.054 12.4131 882 73.6961 502.625 492.88
84 0 73.0722 12.0155 878 73.9077 502.286 493.069
85 0 74.0976 12.9289 958 72.6628 502.767 490.472
86 1 41.0471 11.0117 452 72.0951 503.1 509.201
87 0 42.0578 11.2702 474 70.3291 503.297 510.506
88 0 43.1028 12.6906 547 69.9269 503.316 506.219
89 0 43.0241 10.0874 434 74.182 504.111 506.959
90 0 44.0444 10.83 477 72.9287 503.945 505.593
91 0 46.0965 12.1484 560 70.9661 503.943 503.755
92 0 49.0286 11.9318 585 70.159 503.798 505.074
93 0 48.0693 10.5473 507 73.641 503.657 501.72
94 0 50.0461 10.1906 510 73.8059 503.837 500.694
95 0 54.0357 13.1765 712 68.4171 503.544 499.372
96 0 55.0554 10.2442 564 72.5443 503.938 500.131
97 0 58.0933 10.4143 605 71.2215 503.215 499.124
98 0 57.0476 11.7621 671 70.3368 503.559 496.574
99 0 58.0627 11.057 642 71.4611 503.444 494.871
100 0 61.0189 11.2096 684 70.6827 503.648 493.944
101 0 65.0311 11.1331 724 69.2431 503.963 496.309
102 0 67.1376 12.0052 806 67.8499 504.058 494.865
103 0 69.0291 11.6038 801 68.0137 503.629 490.459
104 0 70.1108 10.8828 763 69.0629 503.435 490.316
105 0 73.0532 11.2384 821 67.3057 503.669 493.213
106 0 74.1247 11.7774 873 67.0241 504.198 489.22
107 0 80.0893 12.9106 1034 64.4807 503.509 489.931
108 0 80.0719 10.9152 874 67.5561 503.283 487.654
109 1 42.0943 10.0014 421 64.5487 503.724 507.862
110 0 42.0909 10.4298 439 64.4077 504.141 507.292
111 0 42.0186 10.7095 450 65.1444 504.02 504.86
112 0 46.051 11.509 530 62.4208 504.225 504.321
113 0 45.0612 9.16531 413 66.3535 503.722 502.639
114 0 47.0796 10.1105 476 64.7143 503.479 503.943
115 0 49.0579 10.2328 502 64.2151 503.922 503.251
116 0 51.1177 11.2877 577 63.2842 504.522 501.572
117 0 52.0398 10.4151 542 64.083 504.297 503.797
118 0 53.0148 11.4874 609 63.266 504.429 501.094
119 0 55.1121 10.8325 597 64.2479 504.241 500.573
120 0 56.0745 11.2172 629 64.6852 504.399 499.51
121 0 59.0874 10.8483 641 64.3245 504.768 499.248
122 0 61.1048 12.0122 734 62.8801 503.85 497.46
123 0 65.0556 11.7284 763 62.9201 503.6 497.073
124 0 65.1318 10.6246 692 64.6908 503.936 495.342
125 0 66.0654 11.5038 760 64.3158 504.695 493.421
126 0 69.0733 12.4361 859 62.7113 504.421 493.584
127 0 70.1751 12.3121 864 63.4456 504.964 492.451
128 0 71.1502 11.8903 846 64.3191 504.364 490.858
129 0 74.3087 11.2773 838 64.6002 504.031 491.378
130 0 77.2345 11.9247 921 63.8306 503.539 489.009
131 0 79.1448 12.673 1003 62.9791 503.129 486.126
132 0 82.2714 12.1671 1001 62.6743 503.057 488.715
133 1 41.034 8.91943 366 64.929 503.839 507.09
134 0 45.1838 9.60522 434 64.1797 504.286 506.912
135 0 47.1102 9.59453 452 65.5708 504.115 504.648
136 0 48.2414 11.1937 540 62.8333 504.467 505.015
137 0 50.1582 11.7229 588 62.8418 503.997 503.102
138 0 51.1734 10.611 543 64.825 504.155 503.462
139 0 53.0834 12.6216 670 62.5209 504.422 500.896
140 0 54.0822 11.1312 602 64.7309 504.314 501.528
141 0 54.1049 10.3688 561 66.5989 505.517 500.223
142 0 58.1182 11.2013 651 65.2596 504.843 499.384
143 0 60.0626 12.3205 740 63.0865 504.119 499.901
144 0 62.1157 10.738 667 65.7736 503.712 497.094
145 0 64.0796 14.6068 936 60.6667 504.366 497.783
146 0 63.0546 11.5297 727 65.5997 504.49 494.733
147 0 67.0236 12.1301 813 64.5412 504.932 494.258
148 0 68.0874 11.1181 757 66.1929 505.104 494.428
149 0 71.1584 11.5095 819 65.4408 504.469 492.295
150 0 74.1325 14.7843 1096 60.4033 504.517 493.521
151 0 73.0653 11.6471 851 65.9624 504.821 490.208
152 0 77.2216 11.5512 892 64.9832 504.924 493.254
153 0 79.1776 11.7584 931 65.276 504.719 488.31
154 0 81.1044 12.6873 1029 64.1234 505.09 488.006
155 0 83.1255 11.7894 980 65.3337 504.665 487.49
156 1 44.1026 9.9994 441 66.2222 504.054 505.177
157 0 44.0474 9.6714 426 67.6268 504.225 504.805
158 0 46.0073 11.4547 527 65.296 504.245 505.063
159 0 48.0774 9.9007 476 67.1954 504.534 504.626
160 0 51.0504 12.615 644 63.0606 504.334 503.863
161 0 53.0809 10.6441 565 66.4018 504.104 502.448
162 0 53.0235 11.4289 606 65.9455 504.764 501.616
163 0 54.0415 10.6215 574 68.0436 504.864 500.221
164 0 55.0818 11.5465 636 67.2736 503.862 499.349
165 0 59.0398 12.0597 712 66.2879 504.317 497.701
166 0 60.079 11.6846 702 67.3333 503.89 498.201
167 0 61.0599 12.7088 776 66.259 503.08 497.906
168 0 63.0607 11.703 738 67.477 502.943 497.659
169 0 64.066 13.3612 856 66.1367 503.699 496.269
170 0 67.128 12.8262 861 66.9954 503.992 494.25
171 0 67.0724 11.2267 753 69.5896 503.774 495.92
172 0 70.0836 12.2711 860 68.4674 504.036 493.038
173 0 71.1021 12.3625 879 69.0739 503.933 493.201
174 0 74.1672 13.4831 1000 67.38 504.171 491.655
175 0 75.1158 12.7403 957 68.2633 503.975 492.978
176 0 78.1799 12.3305 964 69.4201 503.71 489.459
177 0 79.3404 13.0703 1037 68.2247 504.766 491.386
178 0 83.1986 13.606 1132 67.6087 504.889 487.205
179 0 83.1119 12.2245 1016 69.1791 504.942 487.678
180 1 45.0961 10.3335 466 70.8584 504.195 506.884
181 0 46.1133 10.0622 464 70.8427 504.172 506.7
182 0 47.0951 10.8716 512 70.4551 504.934 504.4
183 0 52.2053 13.6576 713 64.6999 504.989 503.92
184 0 52.1517 13.0197 679 66.2239 505.376 502.623
185 0 54.0546 12.4134 671 66.8748 504.766 499.957
186 0 54.1294 12.2669 664 66.8509 504.599 501.816
187 0 58.058 13.6071 790 64.4266 504.418 500.046
188 0 57.0826 12.3155 703 67.367 504.89 498.562
189 0 60.1447 11.8381 712 67.6531 504.917 496.892
190 0 63.0623 13.78 869 64.1933 505.045 495.976
191 0 65.0885 14.319 932 63.1481 505.092 496.46
192 0 65.0734 14.1994 924 64.0195 504.992 493.799
193 0 68.1031 11.9818 816 65.6324 504.837 495.572
194 0 68.1017 12.3639 842 66.5986 505.272 492.226
195 0 73.0807 13.9298 1018 63.2564 504.774 492.422
196 0 74.0896 13.1328 973 64.5663 504.386 489.34
197 0 75.19 13.9114 1046 63.4331 504.064 488.775
198 0 77.1963 12.397 957 65.7085 504.099 488.474
199 0 80.1446 12.2404 981 65.4811 503.859 488.575
200 0 83.3172 12.6624 1055 64.163 504.081 488.805
201 0 83.0972 11.8777 987 66.1327 504.437 486.705
202 0 89.1474 14.3582 1280 61.9 504.078 485.25
203 0 90.085 12.1552 1095 64.8731 504.016 483.83
204 1 44.025 9.26746 408 68.25 503.752 501.38
205 0 48.019 11.8495 569 63.696 503.74 503.937
206 0 50.0465 11.4893 575 64.7722 504.477 501.063
207 0 50.0279 11.6535 583 63.8405 504.576 500.264
208 0 53.0195 10.2415 543 64.1952 504.389 502.179
209 0 54.0478 11.4898 621 63.7601 504.09 498.28
210 0 56.0456 11.8475 664 62.7199 504.22 499.297
211 0 55.0285 12.3209 678 63.0649 504.612 498.951
212 0 58.0884 13.445 781 61.2638 504.529 497.62
213 0 61.0387 11.8777 725 62.9103 504.788 497.371
214 0 60.0472 9.97548 599 66.1519 504.606 495.275
215 0 62.0482 11.2332 697 64.4562 504.407 495.05
216 0 63.0621 10.6086 669 66.1345 504.709 494.028
217 0 69.0541 12.845 887 61.0857 503.37 495.046
218 0 71.1137 13.6683 972 60.5319 503.402 491.076
219 0 72.178 13.1203 947 61.2175 503.329 491.35
220 0 76.1676 12.8007 975 61.1385 503.224 493.035
221 0 77.1732 13.5928 1049 61.062 503.703 487.138
222 0 80.173 13.7952 1106 60.5145 504.391 489.118
223 0 82.277 12.9684 1067 62.1865 504.76 483.903
224 0 84.1236 12.3033 1035 63.2048 504.275 481.99
225 0 86.2336 12.3154 1062 63.2825 503.454 481.876
226 1 47.1148 10.3365 487 63.4867 503.823 501.873
227 0 51.1065 11.388 582 61.6993 503.794 501.524
228 0 49.1145 10.445 513 64.1618 504.201 500.14
229 0 51.1032 10.606 542 63.976 504.461 499.67
230 0 53.1403 10.4629 556 64.1835 504.39 500.365
231 0 56.2116 12.1683 684 61.7266 504.363 497.265
232 0 57.1597 11.0742 633 63.9336 505.251 497.232
233 0 61.1102 12.9111 789 60.0507 504.777 498.418
234 0 62.0883 11.1132 690 62.6681 505.078 498.345
235 0 65.1075 11.2429 732 62.5833 504.706 496.817
236 0 63.0307 10.9946 693 63.2136 504.146 496.641
237 0 66.1266 11.478 759 63.2516 504.336 491.177
238 0 69.0958 11.4624 792 62.7715 504.58 492.646
239 0 69.0493 11.3108 781 63.4673 504.84 490.923
240 0 73.1049 13.6106 995 59.7397 504.693 488.205
241 0 75.0528 12.3113 924 60.9827 504.916 489.373
242 0 76.1345 12.1758 927 61.9795 504.119 484.877
243 0 77.083 12.0909 932 62.1813 504.166 486.626
244 0 81.083 11.4081 925 62.6476 504.171 485.91
245 0 83.1098 11.9841 996 61.746 503.976 485.739
246 0 84.0513 11.9689 1006 62.5129 504.058 481.21
247 0 90.0624 13.1464 1184 59.6292 503.558 484.184
248 0 93.2087 13.797 1286 59.2403 502.875 479.861
249 0 96.1841 13.4742 1296 59.5301 502.248 480.247
250 1 47.0668 8.73226 411 64.5353 503.036 500.287
251 0 54.0884 11.7955 638 59.7508 503.417 501.715
252 0 54.1649 11.3173 613 60.6003 503.419 500.827
253 0 55.0224 10.7411 591 61.8866 503.394 499.142
254 0 58.1348 10.9401 636 61.511 503.728 498.673
255 0 61.0833 11.1978 684 61.5556 504.099 498.906
256 0 62.069 11.89 738 60.8388 503.915 498.287
257 0 62.0944 13.7694 855 59.1415 503.665 496.731
258 0 63.0501 12.1015 763 62.1507 503.885 494.714
259 0 67.1254 12.0819 811 61.8187 503.805 494.711
260 0 69.0743 12.0884 835 62.1725 504.123 493.268
261 0 68.1787 11.8805 810 63.1407 504.184 494.396
262 0 71.1583 11.5517 822 63.7105 504.727 489.28
263 0 73.0745 13.0278 952 61.9055 504.622 487.893
264 0 76.0979 13.89 1057 60.4276 504.092 488.607
265 0 77.1437 13.0665 1008 62.2123 504.612 486.399
266 0 79.079 12.5697 994 62.9638 504.085 486.07
267 0 81.2221 12.2381 994 63.2264 503.832 487.171
268 0 84.1367 11.7071 985 64.0162 503.551 484.845
269 0 86.1421 12.816 1104 62.7156 503.678 484.513
270 0 90.2175 13.9108 1255 61.3147 503.628 479.045
271 0 92.1519 12.8701 1186 62.3482 503.519 481.987
272 0 96.1255 13.0663 1256 62.5151 504.568 478.497
273 1 47.0602 11.1134 523 63.4092 504.197 500.786
274 0 48.0468 10.4065 500 64.418 504.572 500.978
275 0 50.0307 10.9933 550 62.5527 503.424 501.88
276 0 51.0359 10.7963 551 63.8475 503.96 498.47
277 0 54.0133 10.2382 553 64.8662 503.915 498.843
278 0 53.0908 9.66268 513 67.1209 503.752 496.111
279 0 56.0289 11.1371 624 64.5689 503.516 497.729
280 0 59.0611 11.9199 704 63.108 503.821 498.071
281 0 59.2021 10.7091 634 66.3091 504.153 495.427
282 0 59.0644 12.0377 711 64.7075 504.111 494.35
283 0 63.1565 12.9678 819 62.2369 503.333 495.545
284 0 64.0362 11.0406 707 65.9887 503.552 493.54
285 0 66.0662 12.0637 797 64.7114 502.836 492.223
286 0 69.0596 12.9598 895 63.2346 503.009 488.829
287 0 72.169 12.6924 916 63.1812 503.502 489.187
288 0 71.133 11.9073 847 65.4109 503.37 486.575
289 0 74.0773 12.9864 962 64.4875 503.381 484.883
290 0 77.1598 11.4049 880 66.0602 503.516 486.026
291 0 81.1478 14.0484 1140 61.7325 503.617 489.483
292 0 82.1766 12.5461 1031 64.3201 503.981 487.693
293 0 85.2281 12.8127 1092 63.6209 503.53 487.963
294 0 87.1254 11.9368 1040 65.1798 503.665 485.707
295 0 90.1789 12.0649 1088 65.4559 503.492 481.916
296 0 94.1216 12.452 1172 64.0128 503.276 485.009
297 0 95.1773 11.8306 1126 66.0027 503.012 478.99
298 1 52.0497 10.7013 557 65.14 503.939 500.779
299 0 53.0336 10.8987 578 65.7474 503.87 500.275
300 0 55.12 11.7743 649 64.5008 503.941 497.946
301 0 57.05 12.1998 696 63.3477 503.478 498.799
302 0 59.0768 11.7644 695 62.0691 504.023 499.965
303 0 60.0817 11.8505 712 63.0295 503.947 496.853
304 0 60.0864 12.1825 732 63.097 503.721 495.617
305 0 63.0984 10.238 646 64.9288 504.204 496.291
306 0 65.1508 9.62382 627 65.4322 503.963 494.38
307 0 66.1547 13.3626 884 61.1154 503.493 492.937
308 0 68.122 11.362 774 63.4341 503.678 490.966
309 0 70.1938 11.397 800 63.1662 504.114 491.845
310 0 73.1088 11.1614 816 62.9779 504.214 490.669
311 0 76.1529 12.0022 914 62.2812 503.526 487.389
312 0 78.1259 10.5087 821 63.9172 503.822 489.669
313 0 80.1468 11.1296 892 63.6334 503.732 487.9
314 0 82.1599 10.6013 871 64.5626 503.945 485.332
315 0 86.2409 10.9809 947 63.34 503.951 480.577
316 0 86.1293 10.8674 936 64.8301 503.9 478.979
317 0 89.2745 11.8175 1055 63.2834 503.806 480.032
318 0 95.2453 13.5545 1291 61.3439 503.314 475.608
319 1 47.0626 10.7516 506 63.0316 503.613 499.573
320 0 49.0291 8.50516 417 65.6906 503.573 499.89
321 0 50.0466 10.2704 514 64.8619 504.019 498.142
322 0 54.0541 10.915 590 63.9593 504.061 497.986
323 0 53.046 12.0084 637 63.1695 503.251 496.408
324 0 56.0733 11.5563 648 63.3781 503.606 497.204
325 0 60.0452 11.7245 704 62.9901 503.693 495.403
326 0 59.0607 10.9887 649 64.9815 503.738 494.163
327 0 63.1531 12.2559 774 63.1654 503.787 492.771
328 0 63.0481 9.91307 625 66.9968 503.941 491.992
329 0 64.05 11.2568 721 65.1567 504.186 492.811
330 0 66.1075 11.1939 740 65.0041 504.019 491.768
331 0 70.0416 11.1791 783 64.9617 503.18 489.373
332 0 72.1361 11.5753 835 63.8958 503.359 489.371
333 0 74.182 12.2536 909 63.2387 503.228 489.309
334 0 74.126 11.8582 879 64.5495 503.834 486.643
335 0 76.1135 10.4187 793 66.1501 503.922 487.288
336 0 78.1632 11.041 863 65.8899 503.845 485.94
337 0 83.1644 11.6156 966 64.6739 503.883 484.527
338 0 85.2833 11.538 984 64.4898 503.62 486.842
339 1 48.1973 11.3077 545 62.1578 503.58 503.49
340 0 48.0487 11.0513 531 63.4068 504.313 502.71
341 0 52.1035 10.0953 526 64.1749 504.008 502.375
342 0 52.0468 11.2015 583 64.1081 503.815 499.657
343 0 52.0735 11.1573 581 63.883 504.103 500.709
344 0 55.0441 12.2447 674 63.4837 503.892 497.699
345 0 57.0918 11.9807 684 63.8947 503.689 498.149
346 0 59.0494 12.7859 755 62.4119 503.47 497.036
347 0 60.026 11.8782 713 64.3156 504.098 494.874
348 0 60.0215 10.9461 657 65.9619 503.285 494.647
349 0 63.0519 11.435 721 64.8391 503.193 494.983
350 0 63.0598 11.4812 724 64.8025 503.182 495.153
351 0 66.1283 12.6723 838 63.2828 503.205 493.755
352 0 69.0869 13.2008 912 62.6678 503.109 490.031
353 0 69.0732 11.9004 822 64.646 503.304 490.849
354 0 70.0729 11.1598 782 65.6407 503.283 489.407
355 0 73.238 11.3875 834 65.1859 503.233 488.487
356 0 74.1319 12.7745 947 63.3527 503.155 490.351
357 0 77.2009 11.7745 909 64.901 502.906 486.297
358 0 79.4132 13.0457 1036 62.8697 502.797 487.601
359 0 83.1949 13.0056 1082 62.8105 502.758 483.935
360 0 84.1435 12.1816 1025 64.4234 503.627 481.219
361 0 86.2101 12.7595 1100 63.52 503.557 481.783
362 0 90.1949 12.6171 1138 63.152 503.558 482.762
363 1 49.0519 10.5399 517 65.4275 504.224 501.704
364 0 50.0383 11.5112 576 64.9045 504.047 500.92
365 0 50.0775 10.6235 532 66.2444 503.9 500.671
366 0 52.0505 12.6416 658 63.6565 504.053 498.743
367 0 56.0626 12.5574 704 63.1648 504.003 498.173
368 0 56.1082 13.0819 734 62.9237 503.734 498.202
369 0 58.0896 12.825 745 63.5369 502.934 495.467
370 0 60.0434 11.8748 713 64.2889 503.439 495.705
371 0 62.0364 13.3148 826 62.9613 503.347 492.088
372 0 63.0626 11.6234 733 64.869 503.259 493.415
373 0 64.0387 10.4468 669 66.6054 504.206 491.892
374 0 66.0513 11.052 730 65.8027 503.889 488.101
375 0 68.0582 12.0338 819 65.083 504.149 487.911
376 0 72.0743 13.1947 951 63.3985 504.28 486.606
377 0 76.0573 13.2137 1005 62.9483 504.234 484.344
378 0 79.0672 13.9249 1101 62.2352 503.591 483.36
379 0 78.1661 12.1152 947 65.0475 503.308 482.214
380 0 83.1017 13.309 1106 63.1564 503.925 483.95
381 0 86.1619 12.7086 1095 63.821 503.279 481.29
382 1 48.0442 12.322 592 64.9679 503.443 499.505
383 0 47.0112 11.2739 530 67.3415 503.287 498.353
384 0 49.1188 11.3806 559 67.2361 503.458 496.188
385 0 53.0709 13.8117 733 63.7408 503.512 496.655
386 0 54.0787 13.7577 744 63.6398 503.22 497.173
387 0 54.1272 13.4129 726 65.0303 503.601 496.342
388 0 56.095 11.124 624 67.4119 503.75 497.402
389 0 58.027 12.5976 731 66.1313 503.937 495.454
390 0 60.1309 13.2212 795 65.9597 504.044 493.377
391 0 61.0956 13.3234 814 66.0909 504.017 492.268
392 0 62.2562 13.6051 847 66.392 504.073 492.471
393 0 64.0925 12.6848 813 67.92 504.117 492.551
394 0 65.0964 13.0883 852 67.3627 503.54 492.516
395 0 68.0884 13.8203 941 66.2253 502.75 489.78
396 0 68.136 13.2382 902 68.1741 503.021 489.422
397 0 72.1207 12.9366 933 68.2647 502.68 488.836
398 0 73.0907 13.148 961 67.8231 503.425 489.412
399 0 76.0782 13.7359 1045 67.4057 503.716 487.669
400 0 75.0641 12.536 941 69.9065 503.832 487.874
401 0 80.1187 13.1305 1052 68.2928 503.117 486.756
402 0 80.0739 13.525 1083 68.771 503.5 486.04
403 0 83.1153 12.7895 1063 69.7526 503.169 485.463
404 1 46.0331 11.8827 547 69.5302 502.801 503.152
405 0 46.1151 11.7098 540 71.0074 502.963 501.433
406 0 47.0933 12.5071 589 69.9083 502.971 500.569
407 0 49.069 12.2277 600 70.8983 503.17 501.142
408 0 53.1389 13.7752 732 68.6421 502.911 500.4
409 0 52.0816 12.3844 645 71.7767 502.66 498.491
410 0 56.0774 12.9464 726 70.792 503.001 497.098
411 0 58.1196 13.1969 767 69.7718 503.347 498.286
412 0 59.1787 13.5353 801 70.1298 503.569 496.08
413 0 60.0788 13.3824 804 70.9502 503.664 494.204
414 0 63.1253 13.7504 868 69.4585 503.535 495.09
415 0 62.0913 12.9326 803 71.8257 503.643 491.62
416 0 65.1379 12.5426 817 71.1958 503.674 495.239
417 0 68.0685 14.8233 1009 67.9326 504.069 494.205
418 0 69.1129 12.7907 884 71.8167 503.52 491.35
419 0 69.0427 14.1941 980 70.4541 503.709 488.68
420 0 72.1353 13.641 984 70.6799 503.618 489.045
421 0 76.1245 13.7275 1045 70.3407 503.562 488.929
422 0 76.0826 12.5127 952 72.334 503.634 488.613
423 0 78.1567 13.9719 1092 71.3507 504.09 483.765
424 0 80.1613 13.0861 1049 72.4614 504.195 484.472
425 0 85.0787 13.6579 1162 70.5499 503.96 486.281
426 0 88.1921 14.0035 1235 70.2972 504.14 484.994
427 1 49.1389 10.9282 537 71.9702 503.587 502.022
428 0 47.0826 11.6179 547 72.5594 504.13 500.709
429 0 51.2199 12.3194 631 70.8938 503.967 499.973
430 0 51.1375 11.3615 581 72.7332 504.389 500.935
431 0 55.155 12.8909 711 70.4684 504.425 499.069
432 0 55.1995 10.2356 565 74.6425 505.073 497.885
433 0 58.1391 13.2269 769 71.0286 504.414 496.02
434 0 59.0877 11.3391 670 73.503 504.627 495.909
435 0 60.1067 12.1617 731 72.788 504.613 495.699
436 0 61.1151 12.3047 752 72.8484 504.217 495.068
437 0 64.1842 12.2148 784 72.8533 503.573 493.108
438 0 65.2009 11.8863 775 73.6529 503.557 493.948
439 0 67.1085 12.3382 828 73.6486 503.601 492.107
440 0 68.1136 10.7468 732 76.2404 503.593 490.638
441 0 72.2494 11.4741 829 75.2835 503.621 487.279
442 0 74.1539 11.7998 875 74.8114 503.486 488.255
443 0 78.1578 12.0397 941 74.1711 503.475 487.428
444 0 81.0685 11.8665 962 74.6798 503.216 485.065
445 0 84.0947 12.1173 1019 74.0942 502.748 482.547
446 1 45.0398 8.25935 372 74.3038 502.957 502.763
447 0 47.0206 9.57028 450 72.7444 504.029 501.696
448 0 47.1426 11.6455 549 70.6995 503.867 500.189
449 0 49.1295 10.3807 510 72.0333 503.551 500.802
450 0 51.0829 10.806 552 72.1486 503.362 499.025
451 0 54.1544 11.2825 611 70.6645 503.468 499.399
452 0 56.0701 10.9149 612 71.549 503.56 498.4
453 0 55.3098 9.51007 526 73.2928 503.717 499.846
454 0 56.1314 7.83875 440 75.9636 502.982 495.927
455 0 60.1667 11.1025 668 70.9251 503.461 494.53
456 0 64.0775 14.4669 927 65.343 503.101 493.667
457 0 65.0795 11.1095 723 70.3347 503.45 493.819
458 0 67.123 12.6782 851 67.3831 503.659 495.269
459 0 65.0976 10.7224 698 72.2994 503.244 489.987
460 0 71.1253 11.2478 800 69.7013 503.178 493.046
461 0 73.048 11.3487 829 70.4138 502.964 487.684
462 0 76.0845 11.1718 850 70.0659 503.328 489.069
463 0 79.0408 12.3607 977 68.2764 503.082 486.429
464 0 80.0897 11.9491 957 69.7273 504.075 483.324
465 0 82.1014 10.2191 839 71.3623 504.563 485.559
466 0 85.1632 11.7422 1000 69.908 504.67 481.753
467 0 87.2978 10.4699 914 71.4737 504.251 481.482
468 0 91.1939 11.9197 1087 69.0396 504.374 480.47
469 1 52.0944 11.2488 586 64.7526 504.49 499.874
470 0 52.1112 11.3219 590 66.1373 504.702 497.947
471 0 54.1245 9.23796 500 68.916 504.092 499.362
472 0 52.0512 9.37539 488 69.9385 503.928 496.648
473 0 54.152 9.08554 492 70.8232 504.154 493.913
474 0 60.1199 9.61412 578 68.5986 504.045 494.548
475 0 62.2024 10.3533 644 67.8168 504.267 494.261
476 0 62.1189 10.4155 647 67.9274 504.323 493.9
477 0 65.1006 10.9369 712 66.8736 504.351 493.369
478 0 68.0903 11.3966 776 65.9265 504.82 491.04
479 0 69.1881 11.0857 767 66.7236 504.863 489.039
480 0 68.2017 10.469 714 68.1289 505.125 487.3
481 0 73.1225 10.1884 745 68.2054 504.807 486.816
482 0 74.2457 10.5461 783 67.539 505.295 488.213
483 0 76.1826 11.0655 843 67.153 503.926 483.874
484 0 78.3279 10.5199 824 68.1396 504.155 481.21
485 0 82.1278 10.8246 889 67.604 504.376 481.589
486 0 82.1956 9.51389 782 69.3951 504.32 480.215
487 0 87.5879 10.7435 941 66.813 504.446 479.779
488 0 88.4048 10.1578 898 67.1915 504.322 478.335
489 0 92.1936 11.0094 1015 66.1813 504.122 473.827
490 0 94.3573 9.51701 898 68.4287 503.56 472.353
491 1 52.1342 8.17122 426 66.9906 504.319 496.014
492 0 54.1759 11.0935 601 62.7121 504.273 496.81
493 0 57.0783 8.74238 499 65.4509 503.752 494.741
494 0 57.108 9.6659 552 64.7156 503.364 494.877
495 0 59.2103 9.50848 563 65.5613 503.032 491.185
496 0 60.1929 8.92132 537 66.1192 503.421 488.657
497 0 61.0506 10.2865 628 65.2707 503.881 488.909
498 0 65.4118 9.57014 626 65.7796 503.954 487.324
499 0 66.1578 9.67384 640 66.1297 503.492 486.814
500 0 69.2478 12.087 837 62.9821 502.593 488.14
501 0 71.2065 11.3332 807 64.3445 502.695 484.884
502 0 73.2617 10.8925 798 64.8672 503.347 483.952
503 0 75.2738 10.9334 823 65.5456 503.618 483.834
504 0 77.1867 11.3491 876 65.0982 503.491 482.692
505 0 80.2825 11.2851 906 64.8422 503.03 482.366
506 0 82.2238 12.4417 1023 63.8768 502.792 479.749
507 0 86.2581 12.7176 1097 63.5989 503.08 479.656
508 0 85.1638 11.7773 1003 65.8086 503.414 479.961
509 0 89.1829 10.1925 909 67.6755 504.229 479.089
510 0 91.1822 11.4825 1047 65.4575 503.869 480.274
511 0 95.2291 13.0107 1239 64.1098 503.823 475.464
512 0 98.3032 11.5663 1137 66.1504 503.797 473.069
513 0 101.239 11.4975 1164 66.3015 504.239 475.424
514 0 103.296 10.7264 1108 67.4043 504.132 471.824
515 0 107.269 11.1496 1196 67.0953 504.353 470.984
516 1 61.1583 10.4974 642 63.2788 503.734 496.673
517 0 62.2943 9.77617 609 65.3448 503.874 493.002
518 0 62.1989 9.32493 580 66.9931 503.364 491.107
519 0 65.06 10.0676 655 66.2321 502.951 490.031
520 0 67.2178 11.738 789 63.9734 503.313 489.802
521 0 70.1738 11.0725 777 64.9292 503.613 487.183
522 0 71.2294 10.4732 746 65.563 502.666 487.359
523 0 73.2308 9.21744 675 67.5467 502.836 485.784
524 0 75.2688 11.6117 874 64.8593 503.011 486.174
525 0 78.1422 10.2505 801 66.4032 503.132 487.765
526 0 83.1175 12.1274 1008 63.5119 502.931 485.046
527 0 83.1255 10.6586 886 65.5406 503.208 484.348
528 0 85.0908 10.0716 857 67.266 503.384 481.821
529 0 89.2181 11.13 993 65.3263 504.124 483.178
530 0 91.162 10.41 949 67.0506 504.577 477.027
531 0 92.1348 8.01 738 70.2818 503.436 475.344
532 0 99.1436 11.2665 1117 65.7735 503.627 476.851
533 1 52.0671 9.81427 511 63.9863 503.875 501.272
534 0 55.1102 10.3973 573 64.7522 504.059 497.511
535 0 59.095 9.76394 577 65.1958 503.795 496.277
536 0 60.0544 10.6404 639 64.4789 503.862 496.449
537 0 62.1256 9.8671 613 65.6215 503.855 495.608
538 0 66.0869 10.804 714 63.9958 504.08 495.353
539 0 66.1315 10.9479 724 64.3204 503.628 493.843
540 0 68.1446 12.3708 843 62.9015 503.896 491.151
541 0 70.1241 11.223 787 64.5362 503.953 489.801
542 0 73.1219 11.8706 868 63.1141 503.659 492.134
543 0 75.1043 12.6358 949 62.7713 503.692 486.435
544 0 76.1921 11.786 898 64.3385 503.286 485.06
545 0 80.2252 12.2281 981 63.4057 502.91 485.492
546 0 82.0885 11.9262 979 64.2278 502.953 483.799
547 0 84.1851 10.8452 913 65.2432 502.892 484.485
548 0 86.0711 10.7353 924 65.6548 502.803 480.78
549 0 92.1785 11.6622 1075 61.8726 503.184 480.877
550 0 91.1562 11.3212 1032 65.1279 503.682 479.896
551 0 94.1745 10.7566 1013 66.0563 504.038 477.166
552 1 48.1198 9.53869 459 66.4183 504.316 496.242
553 0 52.1161 10.3615 540 64.1778 504.037 497.813
554 0 54.1673 9.72911 527 65.6793 503.702 496.154
555 0 56.1532 10.5248 591 64.2893 504.196 496.288
556 0 56.0633 9.77467 548 66.1606 504.336 494.967
557 0 60.0903 11.0833 666 64.1336 503.643 493.413
558 0 62.0928 11.6761 725 62.9338 503.328 493.625
559 0 64.0956 9.98509 640 65.4813 503.456 487.458
560 0 65.1663 9.31463 607 66.6623 503.334 489.384
561 0 67.3797 11.4426 771 63.5564 503.298 491.144
562 0 69.2735 11.9093 825 63.3345 503.781 488.206
563 0 72.2714 10.9033 788 64.1079 503.325 488.327
564 0 75.1905 10.7726 810 64.7049 503.632 486.526
565 0 73.1192 9.58708 701 67.5392 503.616 481.906
566 0 81.2173 11.6847 949 63.804 503.204 483.874
567 0 81.2013 11.4407 929 64.5727 503.357 483.671
568 0 84.3102 11.1849 943 65.351 503.554 482.364
569 0 87.2099 12.0514 1051 64.3206 503.663 481.382
570 0 92.2087 11.333 1045 65.2316 503.86 477.327
571 0 93.3015 10.375 968 66.8616 503.938 477.951
572 0 97.2232 11.5199 1120 65.8795 503.748 473.768
573 0 100.283 12.4747 1251 64.458 503.246 475.243
574 0 103.198 12.8297 1324 64.2553 503.569 471.82
575 1 60.088 9.50274 571 65.7005 503.285 495.433
576 0 62.0747 10.9223 678 65.2242 503.322 493.634
577 0 64.2279 11.7861 757 64.9287 503.631 489.861
578 0 65.0576 11.6973 761 64.9422 503.518 491.774
579 0 68.0683 10.4307 710 66.3775 503.823 489.999
580 0 70.1636 11.6727 819 64.2723 504.057 488.269
581 0 71.1261 11.9787 852 63.8052 504.296 488.651
582 0 73.2338 11.2243 822 65.1302 504.247 486.405
583 0 76.1479 10.5321 802 65.9863 503.584 484.202
584 0 77.1044 9.80489 756 67.2103 503.56 483.661
585 0 82.0798 12.3904 1017 63.0039 503.219 482.239
586 0 84.114 11.0564 930 64.2763 502.92 481.734
587 0 86.1411 11.2954 973 64.3145 503.132 481.067
588 0 90.1862 14.0044 1263 60.886 503.325 475.434
589 0 91.1394 11.9926 1093 63.6212 503.17 476.977
590 0 92.1837 11.5964 1069 64.3068 503.26 476.294
591 0 98.2044 11.3946 1119 64.1877 503.043 476.039
592 0 101.176 13.6494 1381 61.5713 503.231 473.291
593 0 104.237 13.6612 1424 61.4192 502.771 472.827
594 1 60.1528 10.8557 653 62.9096 503.364 494.263
595 0 60.0847 10.9013 655 63.9969 503.298 491.189
596 0 63.0906 10.6513 672 63.9435 503.531 490.193
597 0 64.1969 11.7451 754 62.9005 503.191 490.245
598 0 67.1136 12.4863 838 61.6754 503.033 490.105
599 0 69.1995 12.0955 837 62.0848 503.005 488.103
600 0 71.083 13.3646 950 60.8389 502.824 487.642
601 0 73.1153 12.5555 918 61.1089 503.688 490.359
602 0 73.1266 11.7741 861 63.1963 503.592 486.777
603 0 76.3174 11.6094 886 63.2077 503.229 486.244
604 0 79.3061 12.7228 1009 61.663 502.827 484.47
605 0 81.1158 12.0322 976 62.4518 503.364 485.522
606 0 84.1011 15.0652 1267 59.5509 503.508 480.388
607 0 88.2014 13.9113 1227 60.3496 502.738 479.096
608 0 89.2618 12.8498 1147 62.3862 503.275 476.058
609 0 93.2808 13.6041 1269 60.9559 503.576 475.682
610 0 96.2344 13.1554 1266 61.2133 503.191 479.525
611 0 98.3578 12.4749 1227 63.1711 503.29 472.356
612 0 102.144 12.639 1291 62.7901 502.916 471.456
613 0 106.152 14.4416 1533 60.6536 502.866 472.457
614 0 106.148 11.2485 1194 65.1784 502.925 471.921
615 0 112.293 13.0997 1471 62.6084 503.282 468.136
616 0 114.215 10.7254 1225 66.4171 502.984 466.084
617 0 119.198 13.0958 1561 63.132 502.662 466.441
618 0 122.183 16.7453 2046 50.8807 502.222 469.928
619 1 69.1818 13.5874 940 61.5436 503.226 488.683
620 0 70.083 12 841 63.5517 502.239 488.023
621 0 72.1489 12.5712 907 63.1974 502.589 488.248
622 0 74.2427 11.5836 860 65.0849 502.541 482.721
623 0 77.0912 12.5047 964 63.7023 502.654 484.378
624 0 78.1389 13.54 1058 63.0633 502.738 483.22
625 0 80.2784 12.0456 967 64.7921 502.578 480.505
626 0 81.2085 11.5998 942 66.0902 502.745 480.906
627 0 88.3971 12.6362 1117 63.9033 502.761 480.677
628 0 89.2375 12.7077 1134 64.4427 503.221 478.181
629 0 91.5082 12.6546 1158 65.3342 502.411 475.174
630 0 95.1235 14.108 1342 63.57 502.145 473.809
631 0 96.2131 12.6594 1218 65.7299 502.396 473.645
632 1 54.2275 9.42326 511 66.6517 502.08 495.98
633 0 59.1654 12.3721 732 64.1148 502.408 494.795
634 0 58.1771 11.8603 690 65.1043 502.443 495.719
635 0 59.0555 11.4807 678 66.5531 503.046 493.935
636 0 61.1508 12.9679 793 65.5006 503.357 490.067
637 0 64.0786 11.9697 767 66.4954 503.089 491.614
638 0 65.1008 11.1059 723 67.2019 503.527 492.198
639 0 70.313 12.5155 880 65.483 503.995 490.288
640 0 70.1238 13.1054 919 65.5473 503.477 488.662
641 0 71.1049 13.1074 932 66.0225 503.447 488.217
642 0 74.2011 13.5712 1007 65.5511 503.722 484.692
643 0 78.1065 12.9567 1012 65.497 503.197 486.977
644 0 80.093 12.9475 1037 66.0714 503.343 484.299
645 0 82.1483 13.9382 1145 64.7965 502.729 483.535
646 0 84.2043 12.6003 1061 66.3817 502.549 484.303
647 0 84.27 11.9022 1003 68.3081 502.752 480.224
648 0 88.1553 11.5138 1015 68.2108 502.025 480.84
649 0 91.1791 12.459 1136 66.9322 502.692 479.801
650 0 95.1478 12.7276 1211 65.8621 502.538 481.12
651 0 96.329 12.0628 1162 67.8305 502.066 474.161
652 0 98.1445 12.2472 1202 68.1281 502.079 474.549
653 0 102.127 12.7194 1299 67.378 502.265 473.938
654 1 60.1633 10.8372 652 67.0199 502.548 493.564
655 0 61.0775 11.6082 709 66.6403 502.027 493.695
656 0 64.1321 12.0377 772 65.9702 502.604 494.571
657 0 64.21 12.7083 816 65.9792 503.123 492.309
658 0 69.2802 11.7927 817 66.3733 502.222 490.837
659 0 67.271 10.5692 711 69.3488 501.892 489.973
660 0 73.204 11.9666 876 66.8037 502.457 487.145
661 0 76.1082 12.3508 940 66.2319 502.236 486.796
662 0 76.1303 9.9172 755 69.4967 502.034 484.197
663 0 81.1361 12.9289 1049 66.0686 502.592 482.489
664 0 78.1145 9.89573 773 71.0724 502.486 479.365
665 0 84.299 12.7759 1077 66.805 502.166 478.213
666 0 87.2191 12.6234 1101 67.2116 502.021 479.538
667 0 88.1215 12.3579 1089 67.8678 502.666 480.83
668 0 93.1533 12.8391 1196 67.6622 502.731 477.693
669 0 95.1861 11.7769 1121 69.769 502.939 475.032
670 0 98.0997 12.9766 1273 68.6057 502.696 471.508
671 0 101.266 11.8006 1195 70.2736 502.116 473.215
672 0 105.164 13.5408 1424 68.5541 502.447 468.907
673 1 61.2256 10.2572 628 68.8471 502.145 492.697
674 0 61.259 10.2352 627 69.3509 502.354 495.254
675 0 63.0608 11.2114 707 70.2815 501.778 489.016
676 0 64.2166 11.7415 754 70.4403 501.653 487.841
677 0 66.1632 11.1542 738 71.2846 501.806 488.462
678 0 69.105 11.9094 823 70.4058 500.829 486.23
679 0 74.1467 11.9628 887 69.354 501.603 488.702
680 0 74.1431 14.7687 1095 66.9068 502.146 485.001
681 0 76.1052 14.0201 1067 68.0797 502.125 483.693
682 0 77.1554 11.4315 882 71.9932 502.257 483.244
683 0 78.2304 11.6451 911 72.135 502.063 483.789
684 0 83.113 12.8379 1067 70.0975 501.861 483.53
685 0 86.1282 10.9836 946 73.0412 501.829 479.773
686 0 87.0947 12.8366 1118 71.3596 501.534 476.716
687 1 48.035 10.305 495 71.8747 502.269 499.659
688 0 51.0797 10.6304 543 71.7403 502.177 498.348
689 0 51.0852 11.6276 594 70.7862 502.308 497.594
690 0 52.0863 11.7305 611 71.7643 502.483 493.663
691 0 56.1065 11.2108 629 71.6963 502.254 494.421
692 0 57.0656 12.6171 720 69.2667 502.274 495.887
693 0 58.0814 13.24 769 68.3576 501.892 494.113
694 0 60.0216 10.4629 628 73.4347 501.836 491.898
695 0 60.0566 12.4216 746 71.6836 502.245 489.855
696 0 64.1701 14.0096 899 68.3237 502.141 491.642
697 0 64.132 12.0533 773 72.1397 501.714 488.146
698 0 68.0329 13.9785 951 68.8728 502.364 489.065
699 0 69.1139 14.2229 983 69.1994 502.329 486.233
700 0 71.0805 13.2104 939 70.6773 502.81 486.02
701 0 71.0651 12.5378 891 72.2671 502.946 482.994
702 0 75.0704 12.5615 943 72.1198 502.94 483.903
703 0 75.1651 12.5058 940 72.9564 502.809 483.224
704 0 79.2273 12.0161 952 73.5672 502.718 481.518
705 0 82.0802 13.9985 1149 70.3908 502.298 480.277
706 0 82.1925 13.8577 1139 71.1141 500.968 479.507
707 0 88.1073 12.6777 1117 72.5264 502.39 479.761
708 0 89.0666 12.9229 1151 73.3831 502.147 474.675
709 0 94.0762 13.8292 1301 71.3935 502.703 473.865
710 0 95.2085 13.3076 1267 72.5888 502.24 471.571
711 0 97.1601 12.042 1170 72.9846 501.934 471.021
712 0 99.1575 12.6667 1256 71.7755 501.663 470.57
713 0 104.134 14.7022 1531 68.9628 501.53 466.839
714 0 108.183 13.8284 1496 70.0902 501.903 465.745
715 0 112.223 14.1683 1590 69.4472 501.416 464.033
716 1 51.1521 11.4951 588 64.199 501.539 496.718
717 0 53.1304 10.9918 584 64.3904 500.949 495.012
718 0 52.1581 9.62458 502 66.2749 501.442 495.996
719 0 55.2057 9.69102 535 66.5495 502.079 492.97
720 0 56.1239 10.3165 579 64.8566 502.218 495.402
721 0 60.168 11.4845 691 64.3502 502.677 490.016
722 0 59.1973 9.93289 588 66.6582 503.114 491.26
723 0 62.0756 10.8094 671 65.2548 502.861 492.119
724 0 64.1149 12.384 794 64.0668 502.929 490.116
725 0 65.0994 10.0615 655 67.0183 502.647 489.334
726 0 68.1453 11.1233 758 65.7836 503.164 489.266
727 0 68.0991 9.45681 644 67.5885 503.026 488.057
728 0 70.1254 10.1675 713 65.6424 502.933 489.975
729 0 71.1245 8.3375 593 68.4958 502.292 487.563
730 0 74.1257 10.8464 804 65.6294 502.787 487.066
731 0 74.06 8.25006 611 68.7741 503.131 487.448
732 0 78.126 10.4703 818 66.7506 503.057 480.983
733 0 77.1126 9.67416 746 68.3458 503.444 483.649
734 0 82.085 10.6231 872 65.8119 503.278 484.514
735 0 81.0731 9.48526 769 68.6229 503.225 478.808
736 0 85.0926 9.76583 831 67.7593 502.978 480.259
737 0 88.1936 9.95537 878 66.8144 502.833 478.88
738 1 46.0879 11.5866 534 61.264 502.89 498.931
739 0 47.0671 8.81719 415 64.1928 503.181 495.848
740 0 49.0766 10.3104 506 61.4545 502.783 497.706
741 0 50.0778 8.90614 446 62.5964 502.422 497.596
742 0 48.129 9.45377 455 62.4352 502.589 494.6
743 0 51.1354 10.1495 519 60.3834 502.262 497.289
744 0 51.0863 9.68948 495 61.4202 502.248 495.869
745 0 52.1166 11.2057 584 60.0086 502.135 494.223
746 0 54.171 9.61769 521 62.8349 502.459 492.415
747 0 55.2445 7.96459 440 64.7273 502.586 490.782
748 0 59.2111 10.5892 627 62.0494 502.659 489.743
749 0 58.1076 8.75961 509 64.0452 501.088 489.159
750 0 61.0758 9.00521 550 64.6727 501.665 488.596
751 0 64.0541 9.53882 611 63.8887 502.586 486.686
752 0 66.0622 10.808 714 62.7241 502.116 486.674
753 0 68.196 10.7338 732 63.0451 502.407 486.44
754 0 70.0484 11.5634 810 62.1198 502.321 484.332
755 0 73.1067 11.2575 823 63.1458 502.22 481.028
756 0 74.2271 10.2119 758 64.2032 502.509 480.406
757 0 79.1247 12.2465 969 61.9092 502.683 478.404
758 0 80.2471 9.8072 787 64.5972 502.215 474.304
759 0 82.1027 11.8023 969 62.5717 502.272 475.454
760 0 86.097 10.3952 895 64.4994 502.085 476.327
761 0 90.0492 10.8052 973 64.4224 502.252 471.283
762 0 89.1825 10.1814 908 65.5044 502.115 470.779
763 0 96.192 11.4459 1101 62.921 502.632 471.074
764 0 98.2526 11.0023 1081 63.7613 502.846 469.35
765 0 103.128 12.7318 1313 62.3473 503.667 470.242
766 0 104.348 11.8546 1237 64.3897 503.563 467.405
767 0 107.427 11.9151 1280 64.2633 503.414 463.005
768 0 110.333 11.6285 1283 64.9829 502.554 464.908
769 0 113.274 11.6973 1325 65.5577 502.848 465.247
770 0 120.364 13.5173 1627 62.6951 502.863 465.969
771 1 60.1094 7.48636 450 69.1133 503.02 491.047
772 0 62.1131 10.4648 650 66.6415 502.828 487.502
773 0 67.1121 11.369 763 64.6986 503.09 488.912
774 0 69.0446 9.79077 676 66.5917 502.828 487.808
775 0 69.1419 11.6427 805 64.5851 502.185 484.475
776 0 73.1066 10.7514 786 65.5992 502.374 486.069
777 0 75.0877 11.2668 846 64.6277 501.7 482.663
778 0 77.0974 10.8953 840 64.7452 501.542 482.171
779 0 79.0924 10.5952 838 65.6277 501.925 479.257
780 0 81.1459 12.2619 995 63.2884 501.69 481.877
781 0 85.1722 13.3259 1135 61.9057 502.074 478.534
782 0 87.1161 12.8105 1116 63.1649 502.593 474.366
783 0 91.2121 11.7419 1071 64.5089 502.991 474.824
784 0 93.1587 10.8095 1007 66.4737 503.294 473.206
785 0 96.2049 10.9766 1056 66.0076 502.678 472.841
786 1 47.0076 8.65818 407 66.2482 502.386 497.455
787 0 50.0185 11.5157 576 62.4219 502.622 496.392
788 0 54.0332 11.567 625 62.3648 502.272 493.867
789 0 54.0515 11.5815 626 63 502.235 494.142
790 0 57.1337 11.8494 677 60.5908 502.61 495.579
791 0 58.1547 11.9681 696 61.0244 502.759 494.784
792 0 61.1993 11.8792 727 61.4085 502.887 491.714
793 0 64.0786 11.8604 760 61.7447 502.883 490.729
794 0 64.0653 10.3176 661 63.8275 502.224 491.511
795 0 66.0629 12.5789 831 62.2022 502.173 486.23
796 0 68.1612 12.7932 872 61.8979 502.205 486.53
797 0 68.0767 10.8995 742 64.5889 502.062 485.815
798 0 72.167 12.2355 883 62.3771 501.801 485.777
799 0 75.0689 11.7892 885 62.5548 502.341 485.224
800 0 76.0746 11.7253 892 63.7478 501.759 482.028
801 0 80.0873 11.6872 936 63.4402 501.956 482.71
802 0 84.1132 13.0182 1095 61.7881 503.02 482.484
803 0 84.0614 11.4559 963 64.5659 503.057 479.052
804 0 87.2513 11.7018 1021 64.2742 502.734 477.618
805 1 45.0319 10.1484 457 62.5886 502.702 499.481
806 0 47.0391 11.1184 523 62.8088 502.952 498.453
807 0 49.0248 10.5253 516 62.7694 502.839 498.882
808 0 51.0597 14.2578 728 58.0165 503.049 498.902
809 0 52.0991 11.4205 595 61.6269 502.193 498.487
810 0 55.0885 11.7447 647 61.6105 503.235 496.532
811 0 56.0713 12.4841 700 61.4943 502.626 494.519
812 0 55.1259 10.7572 593 64.5649 502.914 494.194
813 0 59.0628 13.1555 777 61.3719 503.018 490.822
814 0 61.0482 12.8096 782 61.445 503.798 493.442
815 0 62.1082 12.3172 765 62.1477 503.613 491.084
816 0 65.1743 11.3695 741 63.4332 503.606 489.073
817 0 66.0668 10.8829 719 63.5396 503.765 489.815
818 0 72.136 12.1992 880 61.1705 503.13 488.913
819 0 74.1773 12.0387 893 61.6596 503.763 487.439
820 0 75.1661 11.601 872 62.6193 503.889 486.192
821 0 77.1164 10.9445 844 63.5581 503.8 484.738
822 0 80.1142 12.5446 1005 60.996 502.8 484.526
823 1 39.0501 9.60306 375 62.5147 502.707 503.704
824 0 41.039 10.8921 447 61.4586 503.295 503.427
825 0 43.0303 12.7585 549 59.5264 502.796 500.721
826 0 44.0547 11.3268 499 61.2565 502.707 500.132
827 0 43.0608 11.0309 475 62.5305 502.577 498.918
828 0 46.0989 10.2822 474 62.8017 502.973 499.426
829 0 48.0708 11.5663 556 61.9209 502.883 496.777
830 0 47.0405 10.5866 498 63.6325 502.651 496.667
831 0 52.0529 12.007 625 60.8544 503.384 496.248
832 0 53.069 12.6251 670 60.7134 502.136 495.067
833 0 54.0841 11.5376 624 61.9071 502.135 496.506
834 0 55.1282 11.1921 617 63.128 503.712 493.498
835 0 57.0768 13.3679 763 60.1101 503.19 494.131
836 0 59.0507 11.7696 695 61.8245 503.521 493.223
837 0 59.0569 12.8182 757 61.8904 503.082 489.062
838 0 64.0978 13.4482 862 60.6798 503.036 489.671
839 0 66.1408 11.2185 742 63.783 502.772 489.659
840 0 66.1414 11.4301 756 64.1204 503.319 487.353
841 0 69.1462 12.1048 837 63.5603 503.123 485.074
842 1 35.034 8.73438 306 66.7876 503.422 501.725
843 0 38.1409 9.83196 375 65.728 503.379 501.539
844 0 38.1176 11.0185 420 63.0619 503.369 503.569
845 0 41.0739 11.102 456 63.6009 503.794 501.406
846 0 41.1369 11.4739 472 63.3771 503.672 499.311
847 0 44.1338 10.3322 456 63.6557 502.851 500.656
848 0 42.0579 10.5807 445 64.7034 502.717 497.845
849 0 46.0909 12.5404 578 61.3997 503.327 499.163
850 0 48.0911 12.3724 595 61.6924 502.679 496.817
851 0 50.2257 11.7271 589 62.6961 502.647 496.243
852 0 52.0812 12.1541 633 62.5703 502.66 496.844
853 0 52.1261 11.3571 592 63.9189 503.007 493.36
854 0 54.1321 10.8069 585 64.5744 503.063 494.846
855 0 56.0968 11.6941 656 63.7241 502.852 492.646
856 0 59.1538 11.6645 690 63.5116 502.686 491.162
857 0 61.0767 12.3288 753 62.8088 502.541 491.137
858 0 63.2481 11.6367 736 63.7663 502.568 488.279
859 0 63.2408 10.1833 644 65.3447 503.012 489.602
860 1 35.0541 10.7548 377 61.3422 502.915 504.865
861 0 37.0842 11.2447 417 60.0695 502.336 502.547
862 0 37.0309 9.80262 363 62.4904 502.647 503.295
863 0 38.0254 10.756 409 61.7751 502.609 500.474
864 0 40.0664 10.3578 415 62.294 503.549 500.986
865 0 40.1399 11.6841 469 61.3412 503.78 501.134
866 0 44.1378 10.286 454 62.2555 503.848 499.637
867 0 41.0776 9.85939 405 64.6593 503.383 498.696
868 0 47.0461 11.7332 552 61.1141 503.391 499.067
869 0 44.1775 10.4352 461 64.0694 502.985 496.974
870 0 47.0759 11.1522 525 63.4305 503.49 495.661
871 0 46.0424 9.64328 444 66.0788 503.836 495.766
872 0 51.1051 11.7601 601 62.6339 503.431 496.223
873 0 52.066 11.0629 576 63.4913 503.351 493.373
874 0 54.1328 11.2871 611 63.9836 503.216 490.457
875 0 57.0636 12.1794 695 61.9482 503.285 492.135
876 0 58.0817 13.1022 761 61.0512 503.296 492.792
877 0 62.0839 12.6603 786 60.8639 503.771 491.16
878 0 62.0924 11.3218 703 63.303 503.489 489.29
879 0 63.0868 12.6809 800 61.8188 504.254 487.348
880 0 65.0387 11.3625 739 62.7415 503.264 489.911
881 0 68.0804 11.0898 755 63.6146 503.4 487.528
882 0 68.1212 10.1877 694 65.1772 503.847 485.826
883 0 71.0629 10.9762 780 63.7141 503.813 487.015
884 0 74.0897 11.3916 844 63.6919 503.693 483.684
885 1 37.0556 8.66265 321 63.8536 503.732 501.741
886 0 39.0434 9.16929 358 63.1536 504.254 500.737
887 0 42.0627 10.5319 443 61.1129 504.698 500.607
888 0 44.1366 11.2378 496 59.8206 504.115 500.028
889 0 45.0603 9.52058 429 62.3753 503.769 501.023
890 0 48.1023 12.6605 609 59.1051 503.737 499.718
891 0 48.0995 10.4783 504 62.7401 503.347 498.004
892 0 50.1085 13.0517 654 59.4985 503.861 496.177
893 0 52.073 10.7733 561 62.8824 503.811 495.572
894 0 53.0782 10.8896 578 63.0173 502.849 494.536
895 0 53.11 10.3559 550 64.1018 503.385 494.827
896 0 54.0937 10.3154 558 65.1326 503.566 495.923
897 0 54.0605 12.0051 649 64.2203 503.738 491.225
898 0 57.1436 11.3398 648 64.9923 503.448 491.026
899 0 59.1182 12.6357 747 63.5703 503.071 490.214
900 0 62.0852 12.5473 779 62.5712 502.851 492.548
901 0 61.0805 11.7877 720 64.8319 502.871 490.637
902 0 67.2526 12.1036 814 63.8882 502.864 489.125
903 0 68.121 12.4925 851 64.1375 503.17 488.333
904 0 70.1814 12.0972 849 64.4629 503.554 488.572
905 1 39.0568 10.1391 396 64.3561 503.207 502.588
906 0 41.1475 9.89124 407 64.4423 503.14 503.042
907 0 41.0819 10.8564 446 63.4753 503.567 505.222
908 0 43.0489 11.6379 501 64.509 503.421 500.142
909 0 45.1293 11.9656 540 62.6889 503.291 500.837
910 0 45.1439 11.6516 526 64.8802 503.24 498.202
911 0 47.0529 10.4351 491 66.389 502.839 498.933
912 0 47.1146 10.9308 515 65.7825 501.93 498.136
913 0 51.0945 12.3301 630 63.6429 502.313 496.229
914 0 52.0408 13.3165 693 62.0433 502.31 496.665
915 0 51.0333 13.1679 672 63.6101 502.399 492.228
916 0 57.1238 12.2891 702 62.7236 502.429 495.782
917 0 58.0706 11.4688 666 64.7192 503.104 493.541
918 0 57.0761 10.5824 604 66.4884 503.29 493.43
919 0 59.0367 11.7893 696 64.5733 503.217 492.499
920 0 63.1999 11.9779 757 63.498 503.612 490.789
921 0 63.1314 11.183 706 65.8569 504.589 488.11
922 0 67.058 10.9905 737 64.7246 503.49 488.636
923 0 67.0486 10.2761 689 66.2177 504.299 489.012
924 0 70.0811 12.2858 861 63.3159 503.858 485.17
925 0 73.0555 12.5247 915 60.1617 504.15 485.417
926 1 39.0258 11.044 431 61.9513 504.227 502.179
927 0 39.0533 11.5739 452 60.5442 503.792 504.166
928 0 43.035 11.3861 490 60.6102 503.629 501.633
929 0 43.0368 10.8512 467 62.5289 503.46 500.649
930 0 43.0281 10.7372 462 62.7771 503.76 501.087
931 0 45.0466 11.1884 504 61.869 503.155 500.687
932 0 46.0879 10.9139 503 63.328 502.779 496.598
933 0 49.0708 11.7585 577 61.6724 502.634 496.328
934 0 50.1017 12.8339 643 61.4899 503.076 493.362
935 0 51.0546 11.5758 591 63.6193 503.22 493.523
936 0 53.1226 11.8594 630 63.0254 503.398 493.7
937 0 54.0979 11.7749 637 63.7394 502.98 491.278
938 0 57.1083 12.9753 741 61.5385 502.803 491.885
939 0 61.0612 13.3309 814 60.4386 503.473 491.608
940 0 60.1205 12.292 739 63.207 502.958 487.913
941 0 61.0444 13.0725 798 62.193 503.64 488.88
942 0 62.0566 11.3123 702 65.2849 504.074 487.239
943 0 66.1793 13.3576 884 62.0792 503.514 486.093
944 0 66.0855 12.0753 798 64.1917 503.579 486.192
945 0 69.1296 11.3699 786 64.056 503.471 487.01
946 0 70.046 13.4911 945 62.4381 503.56 483.461
947 0 71.1172 11.2069 797 65.0615 503.43 484.725
948 0 76.1703 12.6296 962 63.289 502.9 481.143
949 0 77.2273 12.1978 942 63.0732 503.137 481.895
950 0 81.0625 12.4472 1009 63.1516 503.238 480.507
951 1 43.0916 9.42179 406 64.2611 503.458 499.685
952 0 45.0451 10.989 495 61.5232 502.921 497.945
953 0 44.1075 9.02341 398 64.6131 502.284 498.334
954 0 48.0966 10.1878 490 62.8551 502.359 496.969
955 0 50.0218 11.7149 586 60.8003 502.642 496.797
956 0 50.0753 10.5242 527 62.5104 502.216 495.994
957 0 54.0923 10.9443 592 60.8801 502.144 495.15
