time division length width area intensity CMx CMy
0 0 39.027 10.7874 421 62.6152 512.891 521.204
1 0 39.027 12.3504 482 60.6079 512.932 519.71
2 0 41.0246 12.4316 510 60.2608 512.71 520.667
3 0 41.0724 11.3458 466 62.1609 512.736 520.961
4 0 42.0454 11.2735 474 62.2806 513.04 520.323
5 0 42.0885 11.2145 472 62.5593 513.375 521.123
6 0 45.104 11.5954 523 61.4857 513.143 522.734
7 0 44.1376 10.2181 451 63.9202 512.326 523.443
8 0 47.1199 12.5 589 60.7793 512.56 522.002
9 0 49.0722 11.5136 565 61.5558 512.513 523.211
10 0 49.0722 11.4525 562 142.781 511.502 523.212
11 0 50.1196 12.2706 615 61.3317 512.042 522.06
12 0 49.1529 12.1865 599 62.2805 512.225 519.701
13 0 52.1022 12.4371 648 61.1111 512.605 519.653
14 0 52.0578 12.8895 671 61.0089 511.42 518.955
15 0 54.1388 12.3571 669 61.1256 511.33 518.567
16 0 56.0936 12.6931 712 60.5 511.775 520.15
17 0 57.0606 13.0388 744 60.6371 511.488 516.816
18 0 57.1048 11.8729 678 62.6637 512.205 516.979
19 0 59.0898 12.1341 717 61.7727 512.112 517.683
20 0 60.101 11.1313 669 62.7698 511.788 517.658
21 0 62.075 13.7576 854 59.3349 511.082 517.027
22 0 62.0773 10.9541 680 63.9118 511.19 513.831
23 0 64.0631 12.9091 827 61.4958 511.212 513.478
24 0 66.049 11.3401 749 63.8104 511.398 511.001
25 0 68.0799 12.3678 842 62.4549 511.321 511.173
26 0 69.0764 12.0012 829 63.386 511.726 510.912
27 0 72.1289 13.4066 967 62.1861 511.995 509.217
28 0 74.082 11.7167 868 64.8975 511.502 507.304
29 0 76.1626 13.3268 1015 63.199 511.712 505.303
30 0 80.0727 13.0631 1046 63.2983 512.08 506.512
31 0 82.1126 12.1297 996 65.011 511.031 506.118
32 0 82.1266 10.8613 892 67.4664 511.423 502.109
33 1 40.0188 11.9444 478 64.2887 512.544 524.966
34 0 41.1781 11.851 488 64.7336 512.566 524.254
35 0 43.0863 12.0688 520 65.0462 512.863 524.681
36 0 42.0275 11.3973 479 66.6284 512.315 523.405
37 0 43.0162 11.949 514 67.4611 512.438 521.138
38 0 45.0763 11.5582 521 66.8177 513.111 522.489
39 0 48.0554 12.444 598 64.7843 513.378 523.146
40 0 47.0916 11.3821 536 67.8433 512.662 519.287
41 0 51.083 13.1551 672 64.0967 512.674 520.443
42 0 50.0563 10.8478 543 68.8379 513.087 518.519
43 0 53.0658 11.5517 613 67.1419 513.378 517.759
44 0 55.0876 11.8357 652 67.3896 513.207 516.867
45 0 56.0667 11.0047 617 68.2901 513.01 517.682
46 0 58.0141 12.2729 712 67.0323 512.504 516.112
47 0 58.1293 11.2164 652 69.3328 513.614 513.11
48 0 63.1081 13.263 837 65.6643 514.019 514.072
49 0 63.1312 11.6266 734 68.4264 513.019 513.677
50 0 66.0938 11.8619 784 68.2041 513.448 512.212
51 0 68.077 11.0169 750 69.156 513.319 513.375
52 0 72.0829 12.6105 909 66.9769 513.29 510.343
53 0 75.0916 11.7057 879 68.24 513.146 509.316
54 0 78.1191 13.249 1035 66.3527 513.19 506.439
55 0 80.0701 13.738 1100 66.46 513.695 505.572
56 0 82.0683 12.2825 1008 68.5089 513.158 504.292
57 1 43.032 11.3636 489 67.1881 513.691 522.953
58 0 45.0246 10.4165 469 68.0789 513.371 523.516
59 0 43.0639 11.3552 489 68.3538 514.427 523.389
60 0 46.077 11.8063 544 66.9982 514.778 521.89
61 0 47.0646 12.0048 565 67.3664 514.738 520.632
62 0 50.1184 11.0139 552 68.8116 514.431 521.14
63 0 51.0623 10.3011 526 69.576 514.751 520.867
64 0 52.1768 11.4419 597 69.134 514.335 518.501
65 0 55.049 12.3708 681 67.1792 513.932 516.928
66 0 57.1027 12.6439 722 66.723 513.751 517.382
67 0 58.1029 12.1164 704 67.3679 513.598 516.608
68 0 59.0671 11.0383 652 69.4923 513.098 515.368
69 0 61.0566 12.6768 774 67.3359 513.537 514.769
70 0 64.0653 12.4404 797 67.1066 514.148 513.26
71 0 64.0884 11.6402 746 69.2346 514.225 512.318
72 0 68.0554 12.5927 857 67.8611 514.09 509.114
73 0 70.091 12.2698 860 67.6721 513.171 510.362
74 0 74.0962 14.0898 1044 65.7126 512.851 508.459
75 0 75.0957 12.291 923 67.8072 512.878 509.18
76 1 36.0932 9.28152 335 68.2537 514.14 527.639
77 0 39.0118 11.1505 435 66.6391 513.89 525.697
78 0 42.0461 10.8215 455 66.4308 513.846 525.255
79 0 41.0268 11.0172 452 68.6593 513.757 521.978
80 0 44.0405 10.1725 448 68.2612 514.103 525.199
81 0 44.0206 11.2447 495 68.0364 514.424 523.331
82 0 46.0354 11.817 544 67.4688 514.439 522.713
83 0 48.0301 11.2013 538 68.6617 515.002 521.877
84 0 49.076 11.8795 583 67.9794 514.331 522.295
85 0 48.0582 10.5289 506 70.7036 514.087 521.771
86 0 51.0909 12.4288 635 67.7874 514.395 519.115
87 0 51.0482 11.3422 579 70.1364 514.059 517.734
88 0 53.0673 13.2285 702 66.5356 513.601 517.613
89 0 56.0848 11.6788 655 68.3252 513.573 518.383
90 0 57.164 12.123 693 68.4574 513.703 514.863
91 0 58.1376 11.9372 694 68.9481 513.767 515.441
92 0 60.1329 11.8072 710 69.6296 514.08 513.082
93 0 63.0557 13.496 851 66.3243 514.093 511.935
94 0 62.0717 11.825 734 69.6921 514.395 511.474
95 0 64.0584 11.1461 714 70.3333 513.98 510.186
96 0 68.2011 11.642 794 69.0063 514.272 511.555
97 0 70.1134 14.0344 984 66.1575 514.11 506.626
98 0 72.0816 12.8049 923 68.1008 513.953 508.343
99 0 73.0937 11.4511 837 69.828 513.479 508.435
100 0 77.0429 12.4216 957 68.3271 513.553 506.068
101 0 78.1112 12.7639 997 68.2708 513.24 504.083
102 0 79.108 12.4893 988 68.83 513.576 502.533
103 0 84.178 13.6615 1150 66.8817 513.787 502.148
104 0 84.1015 12.3066 1035 70.0348 513.613 498.765
105 0 86.1665 13.149 1133 68.5075 513.673 495.884
106 0 90.0829 12.1444 1094 68.9845 513.45 496.937
107 0 91.0941 11.5814 1055 70.6436 513.69 493.191
108 0 95.1475 12.5594 1195 68.5833 512.975 492.167
109 1 47.1199 9.76233 460 65.0456 513.413 519.861
110 0 45.0767 9.58367 432 67.1991 514.044 516.769
111 0 47.1072 8.85214 417 66.8681 514.427 517.53
112 0 49.1544 9.92789 488 65.9426 513.85 515.316
113 0 49.1118 10.2827 505 66.3109 513.897 514.352
114 0 51.1943 10.0402 514 66.1187 513.58 513.035
115 0 51.1273 8.76245 448 68.2656 513.576 514.138
116 0 55.0859 10.2386 564 66.3635 514.027 514.523
117 0 55.0358 10.9202 601 66.5907 514.037 512.053
118 0 58.0751 9.29831 540 67.9852 514.37 511.681
119 0 60.1754 10.5857 637 67.7818 514.452 507.796
120 0 64.1226 11.5404 740 64.7608 514.216 510.208
121 0 64.0807 12.0629 773 65.3778 513.485 508.299
122 0 63.0735 11.1774 705 67.627 513.26 504.782
123 0 69.0666 11.279 779 66.2426 513.339 506.784
124 0 68.0719 10.3567 705 69.0184 512.57 504.088
125 0 73.0591 11.826 864 66.2361 512.766 505.226
126 0 75.0786 11.6012 871 67.0069 512.964 505.232
127 0 77.1212 12.409 957 66.6489 513.567 502.127
128 0 79.2116 12.1321 961 67.2414 512.568 502.631
129 0 83.0983 13.2734 1103 65.4161 513.113 500.823
130 0 85.1048 12.4552 1060 66.9424 513.494 500.073
131 0 87.0512 12.6937 1105 66.8778 513.532 496.767
132 0 89.1626 11.9445 1065 68.1174 513.288 496.815
133 0 89.0618 11.8233 1053 68.8177 513.341 496.486
134 0 93.1152 12.1462 1131 68.4403 513.723 494.792
135 0 97.0706 11.2392 1091 69.7635 513.425 491.434
136 0 99.1494 10.5497 1046 70.9579 514.127 490.838
137 0 103.147 11.091 1144 69.4371 513.575 491.978
138 1 56.1058 10.498 589 68.1732 514.138 512.961
139 0 55.083 11.1468 614 68.4072 514.075 510.552
140 0 57.0525 11.1476 636 67.7877 514.068 514.009
141 0 60.0724 11.0034 661 68.3147 514.033 510.749
142 0 62.0844 10.679 663 68.7436 514.662 509.733
143 0 64.0644 11.4728 735 68.3143 513.901 508.961
144 0 64.0851 11.1102 712 69.5281 513.667 507.013
145 0 68.0416 10.7434 731 69.3064 514.149 507.088
146 0 68.1189 11.4506 780 69.0872 513.894 505.001
147 0 72.0633 11.3095 815 67.9656 513.541 507.018
148 0 74.1484 12.1513 901 67.3041 513.554 505.239
149 0 75.094 12.1181 910 68.2549 513.882 499.921
150 0 78.0463 12.7104 992 66.4536 513.786 504.785
151 0 81.0408 12.8701 1043 66.4564 514.022 502.906
152 0 84.1478 12.7989 1077 67.2544 512.952 499.099
153 0 85.0493 12.0283 1023 68.5855 513.497 498.397
154 0 87.1007 12.7898 1114 67.7451 513.112 496.501
155 0 89.0147 11.5936 1032 69.0533 513.63 497.145
156 0 93.056 12.0788 1124 68.9947 514.25 493.887
157 0 96.0878 14.0392 1349 66.1082 513.956 493.149
158 0 98.1147 12.5873 1235 68.0583 513.868 491.033
159 0 100.098 11.4288 1144 69.5778 513.553 492.67
160 0 102.126 12.0636 1232 69.6778 513.383 488.228
161 0 105.185 12.131 1276 69.6834 512.878 489.246
162 0 108.132 12.8085 1385 68.5126 513.275 485.463
163 0 110.094 11.5628 1273 70.0503 512.919 485.418
164 0 114.084 11.4827 1310 70.0656 513.682 483.058
165 1 61.0236 10.6188 648 67.6528 513.236 508.287
166 0 65.027 11.2107 729 65.8038 514.342 509.246
167 0 66.0796 10.2301 676 67.1553 514.004 508.37
168 0 68.2037 10.8645 741 66.4143 513.776 505.675
169 0 71.0894 12.1818 866 64.6928 513.433 504.194
170 0 73.0449 11.0069 804 66.3955 513.531 503.731
171 0 73.1193 12.9104 944 63.5286 513.587 505.041
172 0 79.1012 12.1616 962 64.4958 513.794 502.627
173 0 78.098 12.1002 945 65.9217 513.792 498.369
174 0 81.1059 10.8377 879 67.2878 513.367 500.271
175 0 85.1721 11.9288 1016 65.4232 513.957 496.682
176 0 88.1473 12.2182 1077 65.377 514.374 495.08
177 0 91.0391 11.5555 1052 66.4154 514.679 496.187
178 0 94.1513 12.2994 1158 65.4853 515.047 495.82
179 0 98.1764 12.9053 1267 65.3244 513.908 491.253
180 0 102.121 14.0127 1431 63.5625 513.921 489.797
181 0 104.072 11.7995 1228 67.3591 513.599 489.691
182 1 55.0884 10.583 583 64.7136 514.077 515.394
183 0 55.0553 10.6802 588 65.6854 513.473 514.214
184 0 56.0626 10.7558 603 65.8292 513.103 511.57
185 0 57.0678 9.70774 554 67.4404 513.058 512.182
186 0 60.0585 10.8394 651 66.4931 513.292 511.906
187 0 64.0536 10.3039 660 65.4152 513.359 514.206
188 0 64.0809 9.76891 626 67.1278 512.524 512.12
189 0 67.0588 11.6465 781 65.0743 511.607 508.971
190 0 67.1044 10.5954 711 66.5809 511.027 506.579
191 0 70.1578 9.72094 682 67.2742 510.685 509.235
192 0 72.1151 10.5664 762 66.727 510.238 506.379
193 0 75.0995 10.5993 796 66.8756 509.822 505.922
194 0 78.092 11.4224 892 66.1401 510.035 505.064
195 0 80.0738 11.6143 930 65.4817 510.281 507.23
196 0 84.0846 11.9998 1009 65.7681 510.235 502.707
197 1 46.0249 10.7116 493 63.7241 510.241 523.791
198 0 47.073 9.58086 451 66.6275 509.8 522.111
199 0 48.1069 10.6637 513 65.4191 509.811 522.581
200 0 50.0569 11.8066 591 64.2555 509.79 521.565
201 0 52.0433 10.4528 544 66.5735 510.375 522.064
202 0 54.0954 10.6663 577 66.5511 509.355 521.789
203 0 55.0284 10.9216 601 65.8186 509.328 521.509
204 0 57.0452 11.9554 682 65.0528 509.959 520.378
205 0 57.1034 10.8225 618 66.9223 510.159 518.23
206 0 58.0225 10.8062 627 66.89 509.812 518.949
207 0 61.084 11.6725 713 65.5217 508.379 518.238
208 0 62.0391 10.9769 681 66.9882 508.355 517.336
209 0 64.0722 12.3142 789 64.8213 509.103 518.89
210 0 66.0472 10.6288 702 67.1652 508.973 516.088
211 0 67.0617 12.3319 827 64.4075 508.469 514.108
212 0 69.0766 11.2194 775 65.6645 508.174 515.115
213 0 72.1152 10.2336 738 66.794 508.495 514.182
214 0 73.0658 10.0868 737 67.3921 508.06 511.113
215 0 78.1227 11.8915 929 64.5533 507.605 509.758
216 0 77.1263 10.5411 813 67.1488 507.959 508.844
217 0 81.1568 10.9787 891 65.6027 507.782 506.978
218 0 85.1017 10.4581 890 66.0438 508.197 506.247
219 1 44.0505 8.71727 384 64.1328 507.258 525.846
220 0 44.0358 9.96917 439 63.2506 507.67 525.271
221 0 46.0645 8.85714 408 64.3774 507.88 524.797
222 0 49.0485 11.3969 559 60.8193 507.324 524.707
223 0 49.1795 10.1872 501 64.3852 507.902 521.385
224 0 51.0759 11.7864 602 61.6495 507.797 521.279
225 0 53.1511 10.2726 546 63.641 507.756 518.918
226 0 54.1199 10.1072 547 63.8976 507.554 517.927
227 0 56.1527 11.0235 619 62.454 506.541 518.076
228 0 57.0564 10.1128 577 63.7556 506.633 516.362
229 0 60.1914 13.8724 835 58.3066 506.887 515.659
230 0 60.1115 11.3955 685 61.5533 507.582 515.331
231 0 60.1088 11.1964 673 62.3626 507.068 511.707
232 0 62.1035 10.8528 674 62.4139 507.852 514.777
233 0 64.1175 12.6175 809 60.0939 508.467 512.236
234 0 66.219 11.5526 765 61.5974 508.654 511.553
235 0 66.0718 11.9113 787 61.2821 508.914 511.226
236 0 70.0462 12.5489 879 59.8248 508.67 510.638
237 0 70.0542 11.7052 820 61.2549 508.744 509.306
238 0 72.0958 11.027 795 62.1899 508.815 508.273
239 0 74.051 11.4381 847 62.1771 509.28 506.613
240 0 79.065 12.6225 998 60.4108 509.461 505.67
241 0 81.195 12.2668 996 59.9689 508.705 504.277
242 0 81.0678 11.1758 906 61.8653 508.439 503.656
243 1 44.0373 11.1496 491 59.4134 509.177 522.326
244 0 43.1604 10.7738 465 61.314 509.168 520.718
245 0 45.0193 11.6395 524 59.3435 508.908 523.595
246 0 46.043 11.4893 529 60.4197 508.798 519.431
247 0 45.0076 10.4205 469 61.8678 509.021 522.239
248 0 50.0244 11.1745 559 60.7746 509.612 520.717
249 0 48.0269 10.6815 513 62.0175 509.058 520.144
250 0 51.0272 12.1308 619 59.5234 509.024 518.997
251 0 52.0437 10.9139 568 60.3521 508.38 520.991
252 0 53.0431 11.7829 625 59.8288 508.811 520.296
253 0 56.061 11.8978 667 58.8801 509.334 522.139
254 0 55.0696 11.7124 645 59.8574 509.6 520.256
255 0 58.1253 13.0236 757 57.8322 509.935 519.682
256 0 59.0741 8.76865 518 63.2992 509.568 520.212
257 0 60.0392 10.6097 637 60.967 509.457 519.57
258 0 63.0658 12.2253 771 58.8612 509.751 518.541
259 0 65.0833 12.7222 828 57.8804 509.55 518.14
260 0 67.0437 9.33719 626 62.0176 509.307 511.594
261 0 68.172 12.0137 819 59.2173 509.021 513.939
262 0 70.1135 11.5099 807 59.228 509.131 514.558
263 0 69.0767 11.4221 789 59.8821 508.968 510.29
264 0 74.0573 13.0034 963 57.4413 509.044 510.793
265 0 77.1225 14.0426 1083 56.1191 509.168 509.058
266 0 79.1681 10.2314 810 59.1012 509.196 513.606
267 1 41.0474 10.7924 443 57.3838 509.377 528.366
268 0 41.0396 9.47864 389 59.1465 509.697 528.378
269 0 41.1082 9.14659 376 60.109 509.378 528.678
270 0 44.0142 13.1321 578 55.1851 509.336 527.443
271 0 46.056 11.1386 513 57.5945 509.049 526.598
272 0 47.0427 11.3301 533 57.9006 508.525 526.334
273 0 47.0615 10.4119 490 58.202 508.271 524.953
274 0 49.1024 11.4047 560 57.1 507.946 525.075
275 0 49.0402 9.7471 478 59.5879 508.234 524.732
276 0 51.0495 10.911 557 58.1759 508.571 523.036
277 0 53.0592 9.9323 527 58.9772 508.469 525.194
278 0 57.094 13.3114 760 55.675 507.741 520.35
279 0 58.0395 11.7506 682 57.3035 507.622 522.103
280 0 58.0381 9.64884 560 59.8786 507.712 522.273
281 0 61.1339 11.8756 726 56.7328 507.707 520.577
282 0 62.0375 12.025 746 57.5389 507.894 518.765
283 0 65.1042 11.5814 754 57.5862 507.928 517.934
284 0 66.0527 11.188 739 57.9175 507.72 519.184
285 0 69.0483 12.1364 838 57.2673 507.354 514.889
286 0 71.0379 12.2611 871 56.9862 506.997 514.759
287 0 71.0644 11.37 808 59.3911 506.973 513.146
288 0 74.096 11.1072 823 59.1154 507.117 509.458
289 0 79.0976 10.7336 849 59.3463 506.45 509.266
290 0 79.1061 11.4403 905 58.4276 506.657 510.367
291 0 82.0817 12.4388 1021 57.6895 506.787 511.369
292 0 85.0536 11.3105 962 59.315 506.423 505.151
293 1 47.0242 9.05916 426 59.2934 506.512 527.418
294 0 48.0249 9.34931 449 59.9488 506.715 525.43
295 0 48.0146 10.7051 514 59.2218 506.586 526.237
296 0 49.0221 11.4642 562 59.2295 506.073 524.758
297 0 51.0732 10.299 526 61.2167 507.002 522.629
298 0 54.0518 11.6555 630 60.0317 507.379 521.989
299 0 55.0973 11.9425 658 59.348 506.591 521.54
300 0 56.1209 12.4374 698 58.8066 506.635 518.934
301 0 57.05 12.1122 691 59.6975 506.388 518.34
302 0 56.0437 10.6524 597 61.7035 506.308 519.467
303 0 59.1538 10.2952 609 62.0476 506.345 517.437
304 0 63.0413 12.6266 796 59 506.039 516.015
305 0 63.0619 10.1805 642 62.366 506.273 515.777
306 0 64.1051 9.62482 617 63.7374 506.726 514.146
307 0 68.2549 11.794 805 60.1478 506.067 515.754
308 0 69.1366 11.3543 785 61.0943 505.929 513.767
309 0 75.0536 11.1121 834 61.0276 505.734 511.986
310 0 75.1995 11.157 839 61.8844 505.331 507.22
311 0 78.1058 11.9581 934 60.742 505.22 506.945
312 0 82.0909 12.0598 990 60.2162 505.523 505.704
313 0 85.1303 11.7115 997 60.4373 505.886 504.966
314 0 89.1961 12.0857 1078 59.8191 505.315 502.523
315 0 90.1987 11.896 1073 60.8248 505.06 498.709
316 1 48.052 11.4668 551 59.8584 506.374 522.399
317 0 50.0564 10.608 531 60.5348 505.755 521.073
318 0 50.0905 10.0418 503 61.326 506.282 522.487
319 0 52.0763 10.6766 556 60.5396 507.023 520.644
320 0 54.0459 10.8241 585 60.5145 507.173 520.468
321 0 57.0533 10.867 620 60.6613 506.653 519.74
322 0 57.0897 10.6674 609 59.8752 506.714 518.115
323 0 59.0554 11.5146 680 59.6132 506.26 514.603
324 0 61.1015 12.7166 777 58.2432 506.413 516.78
325 0 62.0909 10.5007 652 60.4555 506.712 516.095
326 0 64.0838 11.0636 709 60.0564 506.049 512.887
327 0 67.1093 11.146 748 59.9131 505.896 512.825
328 0 69.0657 12.1623 840 58.6583 505.51 511.656
329 0 70.1164 11.3811 798 60.1353 505.89 510.173
330 0 71.082 10.8466 771 60.5266 506.643 509.979
331 0 77.1684 11.9479 922 58.5315 506.912 508.502
332 0 77.0932 11.2461 867 59.9769 506.924 507.213
333 0 82.0876 11.3903 935 58.9636 506.495 505.011
334 1 41.0443 9.47755 389 59.401 505.982 524.828
335 0 44.0342 8.97031 395 59.2506 506.861 524.43
336 0 44.0846 10.1396 447 58.2461 506.183 523.163
337 0 45.038 10.48 472 58.8072 505.875 521.699
338 0 47.0588 11.8363 557 57.2783 506.844 519.894
339 0 48.0902 11.021 530 58.4472 506.766 519.672
340 0 50.0811 10.2434 513 58.9279 506.283 519.663
341 0 50.0738 10.3048 516 59.3934 506.599 517.86
342 0 52.0251 10.1489 528 58.1117 506.801 518.718
343 0 54.0263 10.9206 590 57.0525 505.476 516.13
344 0 54.121 10.1994 552 57.8098 506.493 516.859
345 0 57.0825 9.8454 562 58.0409 505.735 516.916
346 0 58.0621 11.0571 642 57.2181 506.67 514.076
347 0 60.07 11.2036 673 57.3477 506.461 514.532
348 0 61.0833 10.3138 630 58.0984 506.427 510.483
349 0 64.0625 10.6302 681 57.5184 505.984 510.725
350 0 66.122 10.4504 691 57.4631 505.9 510.258
351 0 68.0902 10.9707 747 56.9063 505.94 509.165
352 0 69.2313 10.1688 704 57.7827 506.889 507.648
353 0 74.0724 11.4753 850 55.6765 506.764 508.948
354 0 75.0643 10.1247 760 57.9145 506.188 503.729
355 0 77.0877 10.5335 812 56.9803 506.563 507.079
356 0 81.1148 10.6886 867 56.9896 506.172 504.928
357 1 42.1219 9.25885 390 56.1949 507.318 524.292
358 0 40.06 7.2641 291 57.6323 506.784 524.983
359 0 44.0981 9.45618 417 56.0432 506.012 521.787
360 0 44.0441 9.64942 425 55.4165 506.993 525.186
361 0 46.1119 10.648 491 55.776 506.605 519.32
362 0 47.2308 9.63355 455 56.2396 506.936 522.598
363 0 49.027 9.301 456 56.3794 506.325 521.765
364 0 52.0686 10.1021 526 56.116 506.61 519.129
365 0 52.039 9.10855 474 57.1076 506.43 517.627
366 0 55.0817 9.49498 523 57.4168 506.09 514.985
367 0 55.063 12.1497 669 55.157 505.892 515.922
368 0 57.1325 11.027 630 56.3984 505.833 514.435
369 0 58.0576 11.1613 648 56.821 506.214 513.34
370 0 62.1351 10.7508 668 56.3293 506.057 515.937
371 0 63.0915 11.3327 715 55.7916 505.302 516.166
372 0 63.1534 9.07315 573 59.178 505.59 510.832
373 0 64.1679 11.1894 718 56.9958 506.366 511.56
374 0 69.0519 12.02 830 55.4651 507.111 509.393
375 0 70.0455 11.2784 790 56.2089 506.152 510.732
376 0 73.1203 12.3905 906 55.1126 506.483 507.371
377 0 75.103 11.2645 846 56.8901 507.063 506.504
378 0 78.2114 12.7347 996 55.255 507.361 506.952
379 0 80.1078 10.8729 871 57.1745 507.122 507.051
380 0 81.0999 9.05056 734 59.4114 506.843 502.192
381 0 84.1211 10.152 854 58.3747 506.189 499.306
382 1 41.0459 8.84376 363 57.6749 506.118 523.019
383 0 42.0474 9.65577 406 57.064 506.332 522.618
384 0 44.1446 9.51419 420 57.1024 505.952 523.429
385 0 45.0262 10.0164 451 57.8958 505.723 521.162
386 0 46.043 10.7943 497 56.7545 505.382 519.789
387 0 48.0208 10.787 518 56.6042 505.759 521.875
388 0 48.0701 9.67337 465 58.6108 506.142 521.004
389 0 50.1475 10.3495 519 57.8266 506.753 519.738
390 0 50.0944 10.5201 527 57.8937 506.205 519.992
391 0 54.0293 10.8645 587 57.3237 505.956 518.421
392 0 53.1059 11.6183 617 57.5948 505.914 516.533
393 0 58.0761 11.6571 677 56.9498 506.204 515.152
394 0 58.1086 13.165 765 55.6993 506.991 516.001
395 0 60.0667 11.6704 701 57.592 507.164 516.322
396 0 60.1693 13.1629 792 56.8346 507.064 512.663
397 0 62.0852 10.7594 668 59.25 506.846 515.225
398 0 63.1369 11.9423 754 58.8276 505.97 513.13
399 0 69.1637 14.1114 976 56.2766 506.214 510.953
400 0 69.1 12.1129 837 58.6117 506.192 511.662
401 0 70.0584 13.0891 917 58.1429 506.389 511.419
402 0 73.1621 13.3813 979 57.8897 506.974 510.407
403 0 74.1046 11.9426 885 60.3424 506.502 507.612
404 0 77.0882 13.05 1006 59.4563 506.451 505.707
405 0 78.0937 11.9472 933 61.4159 506.163 504.723
406 0 83.1229 13.462 1119 59.0992 506.411 507.272
407 0 85.0947 13.1971 1123 60.073 506.274 505.004
408 0 87.2072 13.0838 1141 60.5688 505.601 501.877
409 1 45.0669 11.3387 511 60.6693 506.182 524.818
410 0 44.1192 10.7889 476 62.1092 506.725 524.258
411 0 47.0525 12.1354 571 61.5744 506.811 524.678
412 0 50.0446 13.6878 685 59.1854 506.323 523.039
413 0 50.0356 11.9915 600 62.07 506.48 522.705
414 0 49.0678 11.0459 542 64.2288 506.934 522.334
415 0 54.0707 11.9473 646 62.4272 506.957 521.709
416 0 56.1463 12.2359 687 62.4643 506.194 520.971
417 0 55.0313 10.9756 604 65.101 505.339 519.995
418 0 60.0477 13.8224 830 61.7169 505.404 517.451
419 0 59.0873 13.37 790 63.3873 505.9 515.492
420 0 62.0447 13.1196 814 63.3477 505.799 517.389
421 0 61.0345 12.3373 753 65.1235 505.955 517.471
422 0 66.0453 12.7488 842 64.5808 505.625 516.002
423 0 67.1502 13.2985 893 64.4132 505.935 514.226
424 0 68.0765 12.4272 846 65.896 506.308 514.641
425 0 71.1085 12.727 905 65.3226 506.104 513.428
426 0 73.0706 12.5495 917 66.6576 506.386 511.12
427 0 75.0946 13.0768 982 65.7037 506.033 512.587
428 0 77.0616 12.3019 948 67.4968 506.781 510.965
429 0 78.054 13.2985 1038 66.6407 506.367 508.56
430 0 83.1782 16.6029 1381 62.4077 506.507 506.538
431 0 83.1428 12.9656 1078 68.3404 506.571 506.029
432 0 86.0896 12.7425 1097 68.7046 506.518 506.218
433 0 88.0996 12.9285 1139 68.7586 505.654 504.608
434 1 48.0586 11.6732 561 67.8342 506.348 523.456
435 0 47.0425 11.6278 547 68.2669 505.867 524.899
436 0 48.0403 10.741 516 69.7578 505.942 524.684
437 0 49.0572 12.781 627 68.0016 506.614 523.533
438 0 50.0412 11.4705 574 70.8153 506.711 519.782
439 0 54.0438 12.8784 696 67.2112 507.069 520.207
440 0 56.0811 11.519 646 69.5526 506.311 519.864
441 0 55.0333 12.338 679 68.3844 506.561 522.169
442 0 57.0993 12.8898 736 68.5054 505.625 519.476
443 0 61.0554 11.7434 717 68.9819 505.735 519.643
444 0 61.0437 11.844 723 55.3513 505.74 523.174
445 0 63.0389 12.0402 759 69.2622 505.389 518.39
446 0 66.1913 11.0286 730 70.6206 505.862 516.997
447 0 67.083 11.4336 767 70.8031 506.364 515.349
448 0 73.1296 13.6333 997 67.0772 506.608 512.64
449 0 74.0739 11.2725 835 70.1964 506.592 513.766
450 0 75.1224 11.1818 840 70.6155 506.664 512.546
451 0 77.1498 10.7713 831 71.3309 506.308 511.261
452 0 81.1211 12.2533 994 69.659 506.307 510.568
453 0 83.0802 12.1329 1008 69.7113 506.391 509.875
454 0 86.0691 12.2692 1056 69.0038 506.352 508.599
455 1 45.1063 11.6392 525 66.939 506.512 527.377
456 0 47.0431 11.7764 554 67.2545 506.578 526.785
457 0 47.0054 10.7222 504 68.7004 506.821 526.516
458 0 48.0361 11.7412 564 67.2908 506.33 524.594
459 0 48.0886 10.3143 496 70.1976 506.607 524.23
460 0 51.081 11.2175 573 68.5428 506.663 523.389
461 0 52.0908 12.2095 636 66.4906 506.752 523.245
462 0 51.1341 12.5552 642 66.8022 505.678 522.254
463 0 55.0838 10.7654 593 67.6509 505.754 522.43
464 0 57.1078 12.3101 703 66.421 506.03 520.407
465 0 60.0874 13.0643 785 64.2115 506.162 520.929
466 0 60.0695 11.9362 717 66.0753 505.985 520.112
467 0 63.0504 12.4504 785 65.6828 506.564 517.954
468 0 64.0886 12.1394 778 65.6684 505.383 518.256
469 0 67.0287 13.2033 885 64.765 505.435 513.74
470 0 69.052 13.0771 903 64.629 505.905 514.215
471 0 71.0632 13.101 931 65.2503 505.741 512.272
472 0 73.0715 12.8915 942 65.4926 504.956 511.253
473 0 77.0768 12.4551 960 65.6146 505.614 511.309
474 0 79.0574 12.1178 958 65.6044 505.288 511.261
475 0 80.073 11.6269 931 67.1783 505.077 508.003
476 0 82.1489 11.9661 983 67.0071 505.557 506.111
477 0 84.0676 11.4551 963 67.7954 505.537 504.829
478 0 87.0304 12.0188 1046 67.0478 504.837 503.972
479 1 45.1263 9.75042 440 66.4864 505.611 525.998
480 0 48.0783 10.3997 500 65.264 505.436 525.354
481 0 48.1022 11.1014 534 64.9588 505.605 523.397
482 0 48.1232 9.64191 464 66.6897 505.782 524.856
483 0 48.0656 8.73807 420 68.4357 505.333 523.145
484 0 51.1682 10.7293 549 66.0801 505.938 522.811
485 0 53.1261 10.6162 564 66.4681 506.344 519.314
486 0 55.1077 11.414 629 64.9094 505.857 519.957
487 0 55.0591 10.7339 591 66.7513 506.227 518.393
488 0 59.1044 11.8604 701 64.6077 506.399 517.846
489 0 58.0712 10.8832 632 66.0728 506.025 516.894
490 0 59.0442 10.3651 612 65.9706 505.603 518.915
491 0 64.1036 14.0554 901 60.5982 505.538 517.063
492 0 66.0951 11.2111 741 64.1107 506.335 514.395
493 0 68.0904 10.9707 747 64.0776 506.099 514.033
494 0 70.1099 12.6658 888 62.6014 505.628 511.284
495 0 74.1088 11.6046 860 63.8326 505.969 511.28
496 0 74.1587 11.6102 861 63.9988 506.014 507.541
497 0 79.1421 12.2817 972 62.6595 505.833 509.381
498 0 81.0683 12.1749 987 63.1003 506.557 506.694
499 0 81.0629 8.43789 684 67.962 506.338 501.851
500 0 82.1217 8.67006 712 67.736 505.619 502.74
501 1 40.0211 7.52102 301 66.7807 505.392 523.744
502 0 38.0653 8.93201 340 65.3882 505.624 523.285
503 0 49.0495 11.9879 588 60.1956 505.049 524.838
504 0 50.0733 9.84557 493 62.927 505.698 524.619
505 0 50.053 11.6077 581 61.2943 505.688 523.682
506 0 53.09 9.39914 499 62.8818 505.469 524.467
507 0 56.0285 10.5125 589 61.6469 504.966 522.003
508 0 57.1194 11.1171 635 61.3827 504.879 520.698
509 0 57.1305 12.3052 703 60.6003 504.787 520.482
510 0 60.0448 9.64281 579 63.6943 504.52 518.351
511 0 61.0874 10.5423 644 62.6972 504.2 517.498
512 0 63.0871 11.9993 757 60.7067 504.313 517.493
513 0 65.0384 10.5476 686 62.8309 505.137 513.541
514 0 66.0918 9.3809 620 63.8581 504.877 516.555
515 0 71.0617 11.8629 843 61.0498 505.35 513.556
516 0 74.1444 11.8283 877 61.0855 505.325 513.162
517 0 75.0674 10.8569 815 62.7669 505.458 511.811
518 0 79.1093 11.3008 894 62.8042 505.377 508.895
519 0 81.1173 10.7745 874 63.0892 505.423 508.539
520 0 83.0995 12.1421 1009 61.4371 504.824 508.182
521 0 88.2313 12.1952 1076 60.7714 504.589 507.723
522 1 45.0382 8.85916 399 61.7769 504.278 527.852
523 0 45.0832 10.0037 451 60.2727 504.262 528.073
524 0 45.0326 9.7485 439 61.262 504.927 525.517
525 0 45.0582 9.34347 421 62.7007 504.482 526.076
526 0 50.0747 10.3446 518 60.5367 504.367 524.542
527 0 49.0233 8.99573 441 62.1905 504.308 523.701
528 0 52.056 11.0842 577 59.409 504.333 523.854
529 0 52.0721 11.3689 592 60.2905 504.576 521.669
530 0 55.0967 10.9988 606 60.6023 504.682 522.648
531 0 56.1948 12.4567 700 59.7714 505.457 519.366
532 0 60.0993 12.1299 729 59.3333 505.255 521.136
533 0 59.0505 12.2776 725 60.0221 504.92 520.295
534 0 61.0847 11.7051 715 60.2 504.495 520.173
535 0 61.0892 11.2131 685 61.7956 503.991 517.711
536 0 64.1116 10.0762 646 62.8622 504.646 515.488
537 0 65.0529 11.0064 716 61.7249 504.26 513.757
538 0 67.1977 12.5748 845 60.013 504.295 511.667
539 0 70.0865 12.5559 880 59.5534 504.455 513.078
540 0 73.066 12.5503 917 59.7088 504.82 514.165
541 0 73.1213 10.7219 784 62.0816 504.577 511.096
542 0 78.1613 11.8217 924 60.6039 505.281 510.538
543 0 79.2259 12.0541 955 60.4293 505.036 511.16
544 0 81.1892 12.009 975 60.4103 504.693 502.229
545 0 84.1831 12.7935 1077 59.7957 505.16 505.474
546 1 43.1566 10.0332 433 60.9307 505.363 527.564
547 0 44.0659 10.507 463 60.5659 505.898 526.477
548 0 46.1558 11.5912 535 58.557 505.49 526.664
549 0 48.0831 9.89952 476 61.0546 505.059 525.464
550 0 48.0512 10.6969 514 60.358 505.086 525.09
551 0 51.0535 11.7916 602 59.5598 505.093 522.907
552 0 52.0532 10.9119 568 60.8169 504.907 522.326
553 0 54.0624 9.35956 506 62.17 504.415 522.555
554 0 56.1187 10.3709 582 61.5172 505.285 521.378
555 0 58.1497 10.9545 637 61.0047 505.179 519.978
556 0 59.095 12.4545 736 59.0856 505.107 520.185
557 0 60.0799 11.7344 705 60.5121 505.262 518.919
558 0 61.1069 10.7844 659 61.4492 504.903 519.495
559 0 61.0845 10.4445 638 62.8856 504.975 514.832
560 0 65.0502 13.0515 849 59.3746 504.75 514.432
561 0 67.0793 12.1051 812 60.5517 504.764 514.717
562 0 69.1233 12.4705 862 59.7923 504.722 515.18
563 0 72.0741 12.834 925 59.7686 505.066 513.294
564 0 71.0788 11.4521 814 61.9005 505.074 511.875
565 0 76.132 12.8724 980 59.6888 505.028 512.33
566 0 79.0533 12.5105 989 60.8018 505.358 508.459
567 0 79.1191 12.4496 985 61.0487 505.261 507.7
568 0 83.0402 12.7167 1056 60.3665 504.777 506.272
569 0 87.0977 12.2277 1065 60.8404 504.63 504.746
570 0 90.0947 12.4203 1119 60.9669 505.172 503.673
571 0 93.1674 12.9659 1208 60.1465 505.226 503.815
572 1 48.0297 11.2847 542 60.8911 505.096 523.127
573 0 49.0289 10.3204 506 62.7925 505.526 522.14
574 0 51.0292 11.2485 574 61.5 504.995 522.167
575 0 51.1049 9.86208 504 63.8155 505.76 522.827
576 0 54.0683 11.245 608 62.0839 505.464 519.956
577 0 56.1007 11.0515 620 62.0113 505.403 520.013
578 0 57.2128 11.9903 686 61.6414 506.264 517.506
579 0 59.116 11.1645 660 62.1439 505.826 518.618
580 0 61.1402 12.3487 755 60.9378 506.085 516.632
581 0 64.0697 12.4396 797 61.0703 506.028 515.768
582 0 66.11 11.5414 763 61.3932 505.937 515.893
583 0 68.0692 11.3855 775 62.0787 505.945 512.814
584 0 70.1251 11.9643 839 61.9774 506.63 511.398
585 0 71.0674 13.1425 934 60.7934 505.61 507.949
586 0 75.0538 13.5503 1017 59.6342 506.03 511.044
587 0 76.128 11.7434 894 62.8591 504.916 507.974
588 0 80.0784 12.3254 987 61.5876 505.507 507.909
589 0 81.2144 11.8698 964 62.917 505.705 505.821
590 0 85.1799 12.8551 1095 61.4036 505.191 505.542
591 0 88.1086 10.941 964 64.1784 505.029 504.404
592 0 90.0815 13.3324 1201 61.7485 505.085 502.724
593 0 91.1477 10.7079 976 64.9242 504.656 501.512
594 1 48.0514 9.30253 447 68.1656 504.908 474.403
595 0 49.0291 8.97426 440 68.4977 505.33 473.293
596 0 52.068 10.2366 533 66.9737 504.46 470.229
597 0 53.0347 13.0292 691 60.3936 505.576 519.949
598 0 54.0886 11.2038 606 62.8284 505.719 520.37
599 0 55.0808 9.6767 533 64.0113 506.295 520.12
600 0 58.1197 10.9429 636 62.6761 506.113 519.167
601 0 56.1358 10.9021 612 64.2582 505.618 517.162
602 0 61.0525 12.0061 733 62.809 505.574 515.053
603 0 63.104 13.248 836 60.9952 505.994 516.303
604 0 64.0924 11.5926 743 62.8398 505.345 513.965
605 0 65.0553 11.544 751 63.7071 505.8 513.186
606 0 68.0432 12.0953 823 63.1057 505.612 511.3
607 0 72.061 12.198 879 63.1206 505.86 511.389
608 0 72.0416 12.4234 895 63.3464 506.123 509.76
609 0 75.0276 11.769 883 64.1404 506.003 507.85
610 1 37.0189 9.15749 339 63.2242 506.357 529.26
611 0 39.009 11.3051 441 60.8708 505.374 526.68
612 0 40.0421 11.1882 448 62.0625 505.895 524.984
613 0 40.0544 9.81165 393 63.7659 505.702 523.42
614 0 43.0698 10.541 454 63.1234 506.302 523.526
615 0 44.0534 11.5088 507 62.1381 506.193 523.335
616 0 46.0787 11.1114 512 61.7422 505.99 523.65
617 0 49.0186 11.159 547 62.0183 505.457 523.26
618 0 49.0944 10.2048 501 64.1657 504.844 520.581
619 0 52.0837 12.5567 654 60.8502 505.587 519.959
620 0 53.1314 12.1021 643 61.2862 505.701 520.552
621 0 54.1668 11.1877 606 62.4059 504.893 518.454
622 0 58.1368 13.1242 763 59.1704 504.894 519.606
623 0 58.0304 11.0632 642 62.5483 504.945 516.824
624 0 58.0453 10.8191 628 62.836 506.129 516.904
625 0 61.0414 9.9113 605 63.3884 506.385 517.035
626 0 62.03 11.5589 717 61.2232 506.074 517.011
627 0 64.1491 11.6759 749 61.6956 506.075 512.39
628 0 67.061 10.9005 731 62.0027 505.471 512.93
629 0 69.0504 10.8906 752 62.1037 505.682 510.59
630 0 74.1081 12.4953 926 60.3002 505.824 509.168
631 0 75.0745 12.441 934 60.0685 505.003 508.501
632 0 77.1047 11.5038 887 61.5152 505.369 508.426
633 0 79.0592 11.6242 919 61.7291 505.479 506.458
634 0 81.1365 12.5837 1021 60.5397 505.254 504.233
635 0 84.2192 11.755 990 61.2465 505.604 505.168
636 0 87.1299 12.3494 1076 60.6626 505.206 501.17
637 0 90.1365 14.4448 1302 57.9662 505.222 501.4
638 1 48.0446 11.4685 551 58.6534 505.069 523.657
639 0 47.0263 10.6749 502 60.3944 505.43 520.964
640 0 48.0589 11.3194 544 59.5607 505.176 521.949
641 0 50.0305 10.5336 527 61.0816 505.381 519.529
642 0 54.0672 11.1343 602 59.9552 505.497 518.267
643 0 54.0334 11.3448 613 59.6313 506.005 516.742
644 0 58.1037 11.9958 697 58.3802 506.188 517.996
645 0 58.1408 12.5385 729 57.7531 505.864 517.656
646 0 58.0536 10.318 599 60.8247 504.73 512.432
647 0 59.0429 9.62012 568 61.8046 505.472 510.859
648 0 64.0616 11.6607 747 59.5435 505.336 511.317
649 0 66.1657 11.5468 764 59.3874 504.8 510.107
650 0 68.0806 11.457 780 59.7359 505.851 510.055
651 0 70.0763 11.5874 812 59.718 506.005 507.936
652 0 72.0972 10.8881 785 60.1809 505.568 510.65
653 0 75.1133 13.0336 979 58.0112 506.011 507.763
654 0 78.155 12.5776 983 58.5554 505.317 506.636
655 0 79.1384 13.0404 1032 57.9738 505.155 506.202
656 0 82.0781 10.9895 902 60.7295 505.818 501.496
657 0 83.0786 11.459 952 60.7595 505.359 497.59
658 0 89.1928 13.8576 1236 57.6926 506.04 500.521
659 0 91.1184 12.3685 1127 59.858 506.171 499.398
660 1 42.0676 8.29617 349 63.2206 505.55 520.327
661 0 45.2405 10.4331 472 60.5593 505.559 520.237
662 0 45.2112 10.462 473 61.2495 505.526 518.951
663 0 49.0759 11.2683 553 60.3165 505.59 518.376
664 0 51.1679 11.8238 605 59.0016 505.223 517.623
665 0 52.0348 10.8389 564 60.1436 505.615 519.133
666 0 55.0484 13.3882 737 57.5088 505.862 515.847
667 0 56.1565 12.4118 697 58.6384 505.298 515.534
668 0 58.0499 10.9389 635 59.8488 505.537 514.261
669 0 57.0902 11.438 653 59.9326 505.721 515.478
670 0 61.0536 9.89295 604 61.3907 505.531 515.374
671 0 62.1287 10.607 659 60.7071 506.499 509.179
672 0 64.079 11.2517 721 59.9126 506.754 507.852
673 0 67.155 11.3022 759 59.6008 506.407 506.735
674 0 70.0768 12.3579 866 58.6536 505.662 506.139
675 0 73.1584 12.7668 934 57.8994 506.195 506.697
676 0 76.1806 12.641 963 58.3074 505.57 504.031
677 0 78.066 12.2845 959 58.3441 505.129 504.453
678 0 80.065 10.1168 810 61.1728 505.23 500.774
679 0 85.1488 11.2157 955 59.4702 505.783 499.227
680 0 87.1528 11.5429 1006 59.2038 505.733 497.456
681 0 89.0669 10.4304 929 60.3305 506.193 500.426
682 0 93.2301 10.3829 968 60.6994 506.387 497.054
683 0 98.2028 11.629 1142 59.2356 506.063 495.283
684 0 98.1879 9.78736 961 61.7003 506.644 489.303
685 1 53.0876 11.0195 585 57.9094 506.169 514.872
686 0 53.0659 7.72624 410 60.9634 505.883 516.998
687 0 52.0416 9.93436 517 60.2785 505.66 514.694
688 0 55.0359 11.0655 609 59.4729 506.443 514.841
689 0 58.0642 10.9017 633 60.0269 506.654 512.844
690 0 59.0966 11.7266 693 59.1486 506.57 514.179
691 0 62.0476 11.749 729 58.7819 506.92 512.38
692 0 64.0846 9.15976 587 60.6831 506.836 514.825
693 0 65.1716 11.8303 771 58.3385 507.019 510.774
694 0 69.1378 11.2384 777 58.9254 507.25 510.042
695 0 70.1162 11.4096 800 58.6788 506.499 510.129
696 0 73.045 11.8694 867 58.3403 506.765 508.355
697 0 75.1226 11.3947 856 58.8551 506.32 509.24
698 0 78.1407 11.3001 883 59.2797 506.69 507.964
699 0 79.0605 9.87851 781 60.8054 506.442 505.807
700 0 82.0483 10.2501 841 60.2295 506.298 502.858
701 0 85.1004 10.7755 917 59.8179 507.254 500.858
702 0 89.1299 13.5308 1206 56.8051 506.377 500.335
703 0 90.0526 10.9825 989 59.1608 506.554 499.695
704 0 91.081 11.6929 1065 58.5362 506.357 499.825
705 0 96.0862 12.6761 1218 58.28 506.5 494.292
706 1 48.1714 7.78469 375 59.9493 506.517 519.395
707 0 49.0472 8.93018 438 59.9315 506.76 518.256
708 0 52.0752 8.16127 425 60.04 507.381 519.388
709 0 54.0345 11.1965 605 57.4612 507.564 515.296
710 0 57.0359 10.7301 612 57.0147 507.217 517.722
711 0 60.1179 11.3776 684 56.902 506.333 515.058
712 0 61.0231 9.89788 604 58.7765 506.283 513.608
713 0 65.0627 10.0826 656 57.7195 506.261 514.625
714 0 67.0598 10.8858 730 56.5603 505.748 514.012
715 0 67.0886 9.98679 670 58.2507 505.864 509.934
716 0 71.1497 12.3402 878 55.5501 506.288 510.003
717 0 71.0355 11.5998 824 56.284 505.864 511.819
718 0 75.141 13.3482 1003 54.659 505.382 508.533
719 0 77.1187 9.42702 727 58.3177 504.971 508.527
720 0 80.0918 11.9738 959 56.2826 505.713 505.599
721 0 82.2836 10.6461 876 57.7934 505.3 503.249
722 0 86.0392 12.32 1060 55.9443 506.53 499.431
723 0 88.2572 10.2881 908 58.0165 504.911 500.73
724 0 92.1024 11.0638 1019 57.052 505.485 498.445
725 0 93.1005 10.6014 987 57.9635 504.79 496.486
726 1 44.0326 8.60726 379 56.9367 505.401 521.739
727 0 46.0193 8.25741 380 57.0868 506.411 520.763
728 0 46.0417 9.75202 449 56.5635 506.238 517.866
729 0 48.0195 9.74604 468 56.7799 506.314 519.912
730 0 48.0142 11.5383 554 55.5271 505.671 516.426
731 0 52.1603 9.14488 477 56.3585 505.736 517.019
732 0 54.0928 11.3878 616 54.2127 505.352 520.432
733 0 55.0574 11.5879 638 55.0596 505.969 516.694
734 0 56.0733 9.25575 519 57.4856 505.884 516.857
735 0 61.3996 12.3616 759 53.4124 505.592 514.162
736 0 62.0299 11.2043 695 55.7626 504.568 513.565
737 0 62.0476 11.8135 733 55.3561 504.913 514.142
738 0 63.1023 11.4417 722 55.9778 505.375 510.58
739 0 65.1099 8.60085 560 58.7125 505.546 513.712
740 0 69.1449 9.64641 667 57.8186 505.244 511.759
741 0 71.237 11.0196 785 57.5427 505.068 508.411
742 0 74.1849 9.86723 732 58.5 504.542 510.545
743 0 78.1792 12.4458 973 55.0082 504.821 507.299
744 0 80.1501 10.8047 866 56.9215 505.184 507.531
745 0 82.1909 11.4976 945 56.7164 506.183 503.014
746 0 85.081 11.8005 1004 56.6604 505.755 501.038
747 0 87.1788 10.576 922 58.0076 505.632 502.755
748 1 41.1223 8.77868 361 58.241 505.54 524.826
749 0 43.0444 10.9422 471 56.225 505.442 523.096
750 0 45.0242 9.79473 441 57.3946 505.517 523.374
751 0 46.0834 10.481 483 56.8551 504.335 523.675
752 0 47.0655 10.4323 491 58.3462 504.902 520.574
753 0 50.0637 10.7064 536 57.3172 505.263 522.34
754 0 51.0652 11.1818 571 58.3835 505.334 519.434
755 0 52.1776 11.6717 609 57.7586 506.361 517.593
756 0 55.0728 10.2228 563 57.2078 505.384 518.004
757 0 55.0325 11.3206 623 57.7111 505.66 518.226
758 0 58.0944 10.2936 598 58.214 505.485 517.224
759 0 57.0424 9.13356 521 59.4434 505.559 514.146
760 0 61.0778 10.1837 622 57.4325 505.659 515.063
761 0 63.0757 10.2417 646 57.8715 506.347 514.608
762 0 66.0554 11.5661 764 56.5366 505.688 511.216
763 0 67.0643 8.66332 581 59.0723 505.981 513.332
764 0 70.0676 12.174 853 55.6026 505.85 509.837
765 0 72.0786 11.3626 819 56.7546 505.978 509.322
766 0 76.1017 12.4833 950 55.3968 505.378 507.846
767 0 78.233 9.97021 780 58.2577 505.28 503.43
768 0 82.1232 11.3732 934 56.5418 505.256 504.97
769 0 83.0518 10.2948 855 57.2292 505.346 506.223
770 0 86.0539 10.0635 866 58.6963 505.052 504.397
771 1 47.0321 10.9287 514 56.4825 505.424 523.276
772 0 46.0465 11.901 548 55.031 505.166 523.631
773 0 50.1044 11.5758 580 55.3397 505.998 520.898
774 0 52.0648 11.6393 606 55.1898 505.639 522.556
775 0 52.0421 13.2009 687 54.8879 504.937 520.558
776 0 55.1427 12.0415 664 55.8554 504.937 520.096
777 0 55.0857 11.1463 614 57.2248 504.925 519.608
778 0 57.1435 11.6024 663 56.7164 505.43 516.376
779 0 59.185 9.85047 583 58.295 505.18 518.026
780 0 61.1442 11.6446 712 56.3736 505.219 517.219
781 0 60.1604 11.0538 665 57.4752 504.726 516.144
782 0 66.2271 11.5663 766 55.594 504.706 517.55
783 0 65.1137 12.6701 825 54.5855 505.411 515.373
784 0 70.1005 12.3822 868 54.9988 505.252 511.969
785 0 69.1772 11.6946 809 55.6588 505.211 510.415
786 0 71.1208 11.1219 791 56.4943 505.389 508.21
787 0 75.2062 11.515 866 55.963 505.346 508.516
788 0 77.0926 11.2592 868 56.5081 505.135 505.821
789 0 78.1032 9.39782 734 58.846 505.177 506.629
790 0 82.1739 10.6847 878 57.2118 505.015 507.054
791 0 82.2132 10.3876 854 58.582 505.059 505.649
792 0 86.273 9.73653 840 60.1119 504.632 504.605
793 0 89.1739 11.9654 1067 58.8547 504.494 501.625
794 1 47.094 9.8951 466 58.2124 504.594 519.382
795 0 45.039 9.7249 438 59.1918 504.948 524.146
796 0 48.0663 10.6728 513 58.7602 505.567 523.125
797 0 50.1646 11.4224 573 58.1675 505.216 519.482
798 0 50.0265 9.21511 461 60.7701 506.547 520.373
799 0 54.0689 11.5223 623 57.8892 506.196 520.172
800 0 54.1049 10.4427 565 59.4885 505.345 519.29
801 0 58.07 12.1405 705 57.9546 505.811 517.61
802 0 57.0326 11.4321 652 59.1534 505.308 517.186
803 0 62.0628 11.3917 707 59.2433 505.612 516.819
804 0 61.0612 12.4465 760 58.7145 505.792 513.845
805 0 63.0496 10.2459 646 60.839 506.354 515.053
806 0 68.0921 11.3082 770 59.2078 506.331 513.462
807 0 69.0424 11.7464 811 59.2922 505.401 511.713
808 0 72.1666 13.5797 980 57.1643 505.261 508.37
809 0 74.2072 11.67 866 59.1374 505.192 511.344
810 0 76.1024 10.9064 830 60.0699 505.222 506.49
811 0 79.0665 13.5329 1070 57.6421 506.117 505.305
812 0 82.1047 12.618 1036 58.5888 506.567 506.66
813 1 42.0388 12.3458 519 58.6339 506.636 525.709
814 0 45.036 10.6137 478 59.4874 506.291 526.13
815 0 47.0284 14.3956 677 57.0443 505.874 522.482
816 0 46.0485 12.6171 581 60.4182 505.411 522.014
817 0 48.1085 11.5364 555 61.3874 505.741 519.692
818 0 50.013 12.1568 608 60.6201 505.633 520.732
819 0 50.0209 13.1345 657 59.9193 505.008 520.546
820 0 55.0336 11.6474 641 60.4571 505.732 521.042
821 0 56.0704 12.9123 724 59.953 506.291 518.298
822 0 57.0436 13.0076 742 59.8383 505.515 518.749
823 0 59.0408 12.7878 755 60.0464 505.192 517.706
824 0 63.1223 12.4679 787 60.0267 505.173 516.323
825 0 62.0426 10.9763 681 61.793 504.1 514.695
826 0 64.0623 12.3005 788 60.17 504.401 514.174
827 0 68.1109 13.8744 945 57.5926 503.898 513.338
828 0 71.1044 13.8247 983 57.9644 504.807 510.403
829 0 70.0795 12.0863 847 60.2845 504.983 511.856
830 0 73.0507 11.8411 865 60.1954 505.399 511.469
831 0 78.1784 12.1645 951 59.5773 505.415 507.433
832 0 77.0222 13.1261 1011 58.5915 505.318 508.712
833 0 79.1034 11.4281 904 60.4845 505.285 507.894
834 0 83.1116 12.5735 1045 58.9952 505.543 506.232
835 1 42.1994 11.6115 490 59.9061 505.031 523.994
836 0 45.0244 12.682 571 58.6567 505.17 523.774
837 0 45.0523 11.8529 534 59.4363 505.36 524.069
838 0 48.0786 11.502 553 59.4304 505.331 523.624
839 0 49.0234 13.4833 661 57.7292 505.165 522.062
840 0 51.103 13.9522 713 57.101 504.694 519.492
841 0 52.0563 11.526 600 59.7383 504.55 521.537
842 0 54.1006 12.4213 672 59.0982 505.177 519.601
843 0 55.0853 11.9451 658 59.3891 505.322 519.98
844 0 56.1518 11.3443 637 60.5071 505.6 517.964
845 0 58.077 12.2424 711 59.3812 505.073 517.326
846 0 61.137 12.333 754 59.4271 505.219 515.767
847 0 64.0533 11.6622 747 60.1071 505.617 513.315
848 0 64.0552 11.7243 751 60.6072 504.888 513.969
849 0 68.0695 14.5587 991 57.2462 504.614 513.795
850 0 68.1032 10.998 749 61.7036 505.167 512.148
851 0 72.0925 13.4272 968 59.375 505.312 510.039
852 0 75.085 12.679 952 60.2017 505.267 511.359
853 0 77.2151 11.9795 925 61.1719 505.505 508.399
854 0 81.1495 12.594 1022 60.5117 504.837 507.259
855 0 83.0706 13.0853 1087 60.1941 504.907 506.167
856 0 88.1527 13.7375 1211 59.6804 503.971 506.062
857 1 43.1072 11.3438 489 61.4478 504.121 525.973
858 0 45.0724 12.2026 550 60.7255 504.867 527.887
859 0 46.0433 11.6412 536 62.5952 504.772 524.826
860 0 49.1711 12.1819 599 61.6377 504.992 525.895
861 0 49.076 12.4908 613 64.1843 505.323 522.336
862 0 50.1109 13.5499 679 62.8704 505.49 523.33
863 0 53.1452 13.9241 740 61.9122 505.172 521.489
864 0 55.0291 13.1385 723 62.9281 505.293 521.591
865 0 55.0253 11.3402 624 65.6875 504.665 521.46
866 0 56.0643 12.3965 695 64.7813 505.371 519.246
867 0 60.0354 12.2594 736 64.3913 504.984 519.444
868 0 61.1061 12.5519 767 64.2751 505.233 520.246
869 0 63.0803 12.2067 770 65.0831 504.916 517.16
870 0 66.1375 14.4094 953 62.5498 505.536 515.122
871 0 71.0784 14.688 1044 61.6255 504.931 515.799
872 0 71.1224 13.3573 950 63.6895 504.62 515.891
873 0 77.0827 12.9082 995 63.9075 504.686 516.155
874 0 77.1273 13.5231 1043 63.7133 505.075 514.91
875 0 80.1153 14.1421 1133 63.6664 504.591 510.292
876 1 41.08 11.7819 484 65.0888 505.397 530.426
877 0 42.0845 10.6453 448 66.5022 505.221 527.873
878 0 43.0511 13.0078 560 64.5589 505.766 527.638
879 0 44.0411 12.0342 530 65.9453 504.964 528.417
880 0 45.103 11.3518 512 67.334 505.354 527.791
881 0 48.1598 12.6454 609 65.5254 504.629 527.181
882 0 50.0276 12.4731 624 65.3125 505.069 526.864
883 0 51.1531 13.4107 686 64.3586 504.921 524.932
884 0 52.0881 13.458 701 65.1569 504.897 523.087
885 0 53.095 12.9391 687 66.5357 505.441 521.745
886 0 57.0432 13.2531 756 64.8823 505.03 523.148
887 0 57.0925 12.4885 713 66.4418 505.095 521.672
888 0 61.1296 13.7577 841 64.2675 504.782 520.483
889 0 65.0573 14.5871 949 62.8767 505.168 517.822
890 0 63.0333 14.8017 933 63.1211 504.954 519.973
891 0 67.0881 12.8786 864 65.1134 505.166 517.507
892 0 69.0239 14.1545 977 63.1259 505.636 517.88
893 0 72.0382 14.6866 1058 63.1626 505.064 514.743
894 0 75.1773 13.6876 1029 63.7075 505.153 515.936
895 0 78.0802 13.4733 1052 64.5485 505.506 511.352
896 0 81.1109 13.0562 1059 64.7923 504.752 512.055
897 0 83.1484 12.5198 1041 66.2229 504.522 509.84
898 1 40.0581 11.5083 461 66.7462 505.23 530.811
899 0 44.0888 13.5862 599 64.99 505.142 528.426
900 0 46.0372 13.2719 611 65.5712 505.466 528.494
901 0 47.0311 13.2678 624 66.6362 505.505 525.252
902 0 48.0548 13.4222 645 65.9473 505.343 527.564
903 0 52.0883 14.2066 740 64.5689 506.322 525.966
904 0 53.2672 14.1363 753 64.8898 504.649 526.337
905 0 51.067 13.2375 676 67.3831 504.981 524.146
906 0 54.0837 13.9783 756 66.9153 505.418 521.61
907 0 58.0518 14.2459 827 65.7424 505.745 522.399
908 0 58.1034 12.8564 747 68.2329 506.269 520.157
909 0 62.0852 15.1727 942 65.259 506.533 521.206
910 0 63.0488 15.0835 951 65.6635 506.735 519.077
911 0 66.183 13.5684 898 67.2506 505.88 520.342
912 0 70.0448 13.3771 937 67.2946 507.115 518.711
913 0 69.1115 13.5144 934 68.1253 506.742 515.32
914 0 71.0496 12.1465 863 70.1414 506.234 512.761
915 0 76.0578 13.2794 1010 67.9614 506.402 513.489
916 0 77.193 14.6775 1133 66.0997 505.104 513.222
917 1 40.0435 12.0619 483 69.0476 505.803 531.056
918 0 39.1461 11.1888 438 70.4064 505.756 531.838
919 0 40.1096 13.3634 536 68.2985 506.177 530.642
920 0 42.1004 12.5652 529 68.1134 506.157 531.34
921 0 43.1536 12.5598 542 69.321 505.996 529.251
922 0 48.0955 13.6603 657 66.5251 505.367 529.408
923 0 50.0197 13.0349 652 67.5353 505.221 528.564
924 0 50.0743 14.5783 730 65.7493 505.333 528.381
925 0 51.1858 13.2263 677 67.3648 504.771 527.056
926 0 52.0934 13.8789 723 67.1895 505.362 524.378
927 0 52.0465 11.9893 624 69.8654 505.176 523.465
928 0 55.0244 13.5031 743 67.5801 504.987 524.145
929 0 57.0545 12.9701 740 67.9959 504.478 521.878
930 0 59.0786 14.6415 865 65.8393 504.021 520.546
931 0 59.0991 11.4384 676 70.8817 504.257 518.626
932 0 62.152 13.7083 852 68.0528 504.466 519.023
933 0 63.083 13.0463 823 68.87 504.71 519.049
934 0 63.0639 12.2257 771 71.0843 504.764 516.792
935 0 69.1002 13.6324 942 68.1635 504.625 516.584
936 0 70.0717 11.8165 828 70.7391 504.575 515.661
937 0 74.0993 13.347 989 69.3306 505.436 513.907
938 0 77.3278 13.488 1043 69.4056 505.405 513.71
939 1 40.0919 13.045 523 68.9388 505.629 530.168
940 0 42.1087 13.1327 553 69.1212 505.242 530.609
941 0 43.269 12.9885 562 68.9893 504.802 531.358
942 0 45.0716 12.9794 585 69.3761 505.231 531.019
943 0 47.0456 14.8367 698 68.0416 505.113 528.079
944 0 48.0415 14.0087 673 69.1233 505.348 526.978
945 0 47.0378 11.8415 557 73.6643 505.95 525.004
946 0 49.0782 12.5107 614 72.3013 505.231 525.715
947 0 52.0276 13.8196 719 69.6787 505.344 523.638
948 0 54.0272 15.085 815 68.092 505.487 524.276
949 0 54.0774 14.5532 787 69.7281 505.85 521.905
950 0 56.0179 15.1559 849 68.755 505.351 521.191
951 0 58.0725 13.7242 797 70.7189 505.389 521.951
952 0 59.1068 13.704 810 71.1074 506.475 518.799
953 0 62.1605 14.2212 884 70.25 506.072 519.791
954 0 64.0794 14.2948 916 69.9509 505.749 518.689
955 0 68.1205 14.5184 989 69.275 505.391 517.572
956 0 67.1215 14.1683 951 70.9611 505.871 517.473
957 0 71.0505 14.7501 1048 69.3893 505.645 516.49
958 0 70.1645 13.5681 952 72.4706 505.418 514.014
959 0 74.1076 15.0727 1117 70.2256 504.975 513.662
960 0 77.07 14.5452 1121 70.9527 505.416 512.788
961 0 77.1242 13.6274 1051 73.1865 504.92 510.267
962 0 83.1518 15.0808 1254 70.2727 504.966 510.049
963 1 42.051 11.8666 499 73.2966 506.002 528.463
964 0 44.1111 10.9043 481 74.2682 505.877 528.262
965 0 44.0292 12.5598 553 73.6058 505.479 527.468
966 0 47.0649 13.1521 619 72.37 506.013 526.89
967 0 47.1007 12.5476 591 74.0981 505.919 525.372
968 0 49.0376 11.8888 583 74.7307 506.051 524.741
969 0 51.1079 13.8139 706 71.9745 506.069 524.361
970 0 52.0419 12.6821 660 72.6197 505.605 525.247
971 0 55.1294 13.1327 724 71.8246 506.434 521.829
972 0 56.0968 13.4054 752 71.8723 506.443 520.557
973 0 58.0895 15.5622 904 68.5874 506.514 521.705
974 0 58.1467 14.6526 852 69.8955 506.383 522.149
975 0 60.1104 13.5584 815 72.9853 505.855 516.152
976 0 64.0721 13.5004 865 72.5202 505.888 518.654
977 0 65.1451 13.539 882 73.4819 505.907 517.813
978 0 68.2637 14.1217 964 72.4232 505.928 517.167
979 0 69.1728 14.0373 971 73.5252 506.343 515.867
980 0 72.1172 13.5058 974 73.8296 506.427 516.245
981 0 75.0717 12.9743 974 75.2177 505.521 513.566
982 0 77.1345 13.8719 1070 73.1084 506.056 514.682
983 0 80.0986 13.808 1106 73.6691 506.254 513.852
984 0 82.1971 14.0881 1158 73.7712 506.517 511.788
985 0 84.4071 14.0036 1182 75.1024 505.798 508.073
986 0 87.2126 13.6677 1192 75.9312 506.352 506.43
987 1 45.0659 12.6925 572 75.5909 506.205 527.269
988 0 47.1428 12.7061 599 75.803 506.447 526.995
989 0 47.0796 11.5337 543 78.547 506.238 525.534
990 0 49.1105 11.9323 586 77.1109 506.114 526.464
991 0 50.128 13.3259 668 76.6826 506.263 523.961
992 0 52.0857 14.4377 752 74.484 505.735 525.184
993 0 54.1063 12.383 670 77.8672 506.203 523.404
994 0 57.154 13.5249 773 75.379 505.988 523.056
995 0 58.1515 13.4648 783 76.2222 505.641 520.225
996 0 61.1296 14.2321 870 73.9977 505.91 521.326
997 0 60.0741 13.3169 800 76.3675 506.201 520.606
998 0 61.1915 13.564 830 76.959 505.5 517.413
999 0 63.1291 12.5774 794 78.0693 505.51 517.88
1000 0 66.0621 11.8222 781 78.3624 504.871 517.53
1001 0 70.2082 13.7876 968 74.907 505.623 517.201
1002 0 70.1581 12.985 911 76.4786 505.695 516.775
1003 0 72.1847 13.2576 957 76.4493 505.665 513.736
1004 0 76.2106 13.5545 1033 75.605 505.914 515.126
1005 0 77.1376 14.001 1080 76.162 505.355 511.848
1006 0 81.1609 13.8983 1128 75.6516 505.033 511.684
1007 0 83.1394 13.8803 1154 76.4289 505.104 509.308
1008 0 85.1197 14.3445 1221 75.6716 504.837 509.401
1009 0 88.2084 14.0123 1236 76.3252 505.223 508.347
1010 0 92.0992 13.9523 1285 76.4381 504.934 507.35
1011 0 91.238 13.3387 1217 78.1619 505.309 507.344
1012 0 94.1298 13.2264 1245 78.5799 505.994 503.759
1013 1 49.1173 14.1498 695 75.6101 505.712 524.823
1014 0 49.1814 13.623 670 76.3806 504.833 525.273
1015 0 51.0183 12.9757 662 77.1692 505.421 526.341
1016 0 53.1571 13.8646 737 75.9417 505.714 524.345
1017 0 54.1721 13.9186 754 76.4881 505.72 524.542
1018 0 57.0994 12.9774 741 76.8246 505.815 523.44
1019 0 58.1322 12.6436 735 77.6463 505.796 522.346
1020 0 60.1038 13.693 823 76.4872 505.68 520.646
1021 0 62.1049 14.7331 915 74.3956 505.437 519.969
1022 0 64.0695 13.2668 850 76.1459 505.124 521.534
1023 0 64.0491 13.1618 843 77.4021 505.236 518.313
1024 0 68.0641 13.8546 943 75.2078 505.682 518.065
1025 0 72.0835 15.3156 1104 72.8496 505.325 515.772
1026 0 73.0532 13.8119 1009 75.3489 505.376 516.491
1027 0 74.1602 12.8371 952 77.1155 505.05 515.913
1028 0 77.1523 14.4908 1118 74.6556 504.531 511.854
1029 0 80.1258 13.5537 1086 76.0221 504.609 512.438
1030 0 81.134 13.3976 1087 76.4738 504.927 511.674
1031 0 83.1278 12.7875 1063 77.5409 504.481 510.361
1032 0 87.1061 14.3733 1252 74.5096 504.798 507.815
1033 1 43.0408 12.9644 558 73.8925 504.701 531.032
1034 0 43.1598 11.1446 481 77.6175 503.896 529.393
1035 0 45.0943 13.1059 591 74.6684 504.492 529.819
1036 0 47.0407 11.9046 560 77.0107 504.421 528.918
1037 0 50.1016 13.2531 664 73.7575 504.423 526.19
1038 0 51.1194 13.3804 684 74.3246 504.801 526.83
1039 0 53.0689 14.0384 745 72.7383 503.766 525.356
1040 0 55.045 13.0802 720 74.2514 503.418 523.739
1041 0 55.1949 13.3527 737 74.0773 503.346 522.237
1042 0 58.116 13.6967 796 73.4008 503.534 521.588
1043 0 60.1129 14.5726 876 71.1632 503.434 523.179
1044 0 61.0684 11.9538 730 75.2356 502.87 521.055
1045 0 62.0771 14.8686 923 71.8386 503.596 518.933
1046 0 67.0968 15.4404 1036 69.832 503.542 519.872
1047 0 69.1206 12.5722 869 73.7284 503.708 519.255
1048 0 68.3384 12.9795 887 73.9774 504.063 516.818
1049 0 71.101 13.0941 931 73.5843 503.884 516.092
1050 0 74.1234 13.2617 983 73.0844 503.6 515.208
1051 0 77.1114 14.6671 1131 71.4598 503.833 512.775
1052 0 79.1213 13.8142 1093 72.8381 503.644 511.322
1053 0 79.1194 13.5744 1074 73.6127 503.719 511.251
1054 0 84.095 13.7226 1154 72.8475 503.334 510.942
1055 1 41.0967 11.2661 463 73.987 503.849 532.784
1056 0 41.0693 13.3189 547 72.872 503.91 530.155
1057 0 44.03 14.6264 644 70.691 503.784 529.398
1058 0 46.0107 13.1057 603 72.4925 503.232 528.272
1059 0 47.0739 13.7231 646 71.3266 503.663 528.435
1060 0 50.0537 12.9461 648 71.6605 503.505 529.043
1061 0 51.1284 13.2998 680 71.2838 502.987 527.766
1062 0 53.1214 13.8551 736 70.4769 503.181 526.962
1063 0 55.0356 13.5003 743 71.0094 503.681 527.315
1064 0 56.0847 14.6029 819 69.2015 504.136 526.911
1065 0 58.1377 12.6596 736 71.9103 504.075 526.387
1066 0 58.1271 13.7802 801 71.2297 504.307 524.473
1067 0 61.0691 13.7713 841 70.352 503.983 523.391
1068 0 64.0806 14.0604 901 70.0932 504.677 520.183
1069 0 65.2075 12.9126 842 72.2007 504.625 519.542
1070 0 69.2909 13.6814 948 70.308 504.179 519.714
1071 0 68.1647 12.3964 845 73.5112 503.072 516.508
1072 0 72.1372 13.1 945 71.9757 503.763 516.018
1073 0 75.0295 14.2611 1070 70.0636 504.297 515.332
1074 0 77.2431 14.8751 1149 69.4256 504.25 515.307
1075 0 78.1044 13.5716 1060 71.5226 504.085 513.63
1076 1 41.2218 12.8815 531 70.4652 505.171 532.665
1077 0 41.0372 13.1101 538 70.5428 505.34 534.314
1078 0 42.0678 11.5052 484 72.624 504.738 531.49
1079 0 43.0991 13.7358 592 70.2686 504.458 531.027
1080 0 45.0303 13.1023 590 71.4424 504.551 530.576
1081 0 46.0816 13.7582 634 70.0694 504.489 530.838
1082 0 48.0603 13.6911 658 69.7751 504.932 529.491
1083 0 48.063 11.8386 569 72.7522 505.404 529.974
1084 0 52.1071 13.5682 707 69.7596 505.474 528.423
1085 0 52.0812 12.9605 675 71.2711 505.394 527.231
1086 0 51.0602 12.8476 656 72.0549 505.419 523.643
1087 0 55.1656 13.1423 725 70.5145 504.686 523.513
1088 0 58.1088 13.6468 793 69.3392 505.179 524.237
1089 0 58.0605 12.7626 741 71.5736 505.428 522.254
1090 0 60.0823 13.6979 823 70.1191 505.05 520.994
1091 0 64.1139 14.1779 909 69.5258 505.13 520.752
1092 0 66.0922 12.6339 835 70.8012 505.046 521.329
1093 0 68.1508 13.6169 928 69.7683 505.041 517.185
1094 0 69.1929 13.7297 950 69.9958 505.273 518.434
1095 0 71.1513 13.6329 970 69.7464 505.509 516.754
1096 0 75.121 13.658 1026 69.7807 505.132 515.069
1097 0 75.1174 13.2193 993 71.3364 504.899 513.792
1098 0 79.0411 13.6511 1079 70.6923 505.155 511.074
1099 0 82.2151 14.2918 1175 68.9728 504.837 511.496
1100 1 42.0641 12.1957 513 71.2144 504.454 526.867
1101 0 45.0808 11.9341 538 70.9126 504.704 528.375
1102 0 46.0734 12.2413 564 70.8759 505.293 526.246
1103 0 48.0885 13.3296 641 69.415 505.345 524.883
1104 0 49.1783 12.8715 633 70.3523 505.607 525.822
1105 0 51.1274 13.0067 665 69.6406 505.472 524.804
1106 0 54.075 13.1854 713 68.6311 504.937 524.798
1107 0 54.0957 13.1988 714 68.9188 504.64 522.676
1108 0 57.2264 12.1622 696 70.046 505.047 521.216
1109 0 58.1341 12.8152 745 69.3799 505.652 520.145
1110 0 62.0538 12.2313 759 69.7391 505.559 520.35
1111 0 62.0426 13.6036 844 68.0355 505.352 520.283
1112 0 66.116 13.5066 893 67.8354 505.035 518.432
1113 0 68.1238 12.125 826 69.2264 505.579 517.584
1114 0 70.1169 13.4918 946 67.9567 505.125 514.5
1115 0 71.1223 13.0198 926 68.8542 504.954 515.04
1116 1 36.0342 11.8221 426 68.662 504.723 532.728
1117 0 39.0822 15.1476 592 64.8598 504.834 530.345
1118 0 39.1583 10.4959 411 71.2628 505.051 530.939
1119 0 39.0336 11.4261 446 70.1659 505.473 531.188
1120 0 43.1508 13.3022 574 67.216 505.655 529.857
1121 0 42.1744 12.7566 538 69.2454 505.147 527.524
1122 0 43.0316 12.6186 543 69.7109 504.68 526.4
1123 0 47.1112 11.8231 557 69.4201 505.695 527.609
1124 0 48.0793 12.5626 604 68.5762 505.884 526.53
1125 0 51.1143 14.9664 765 65.3569 506.231 524.44
1126 0 52.0825 14.5154 756 66.1429 506.291 524.943
1127 0 54.2074 13.0056 705 67.434 505.668 524.265
1128 0 57.0468 14.1463 807 65.6307 505.456 523.993
1129 0 57.1193 13.358 763 67.3539 506.071 523.127
1130 0 59.1249 13.6998 810 66.6988 505.905 522.579
1131 0 61.0775 13.3437 815 66.6061 505.244 521.169
1132 0 64.2109 13.4557 864 66.2106 505.294 522.566
1133 0 65.1923 13.4525 877 66.2235 505.263 519.568
1134 0 69.1592 15.7174 1087 63.127 505.532 517.258
1135 0 69.1305 14.3786 994 64.7374 504.757 518.314
1136 0 72.1349 14.2234 1026 65.0838 505.69 515.904
1137 0 73.042 12.8145 936 67.1271 505.6 512.041
1138 0 78.1274 14.4636 1130 64.0575 506.043 514.521
1139 0 78.2596 13.5191 1058 65.8894 505.8 511.135
1140 0 80.0979 12.1851 976 68.3125 505.736 510.72
1141 0 82.1652 11.8907 977 68.303 505.216 506.867
1142 1 45.0995 12.04 543 65.0718 505.127 529.775
1143 0 45.0323 13.8345 623 63.4751 504.331 528.278
1144 0 48.0703 13.6675 657 65.207 505.108 524.709
1145 0 49.0744 14.692 721 63.6574 506.04 526.816
1146 0 50.0177 14.075 704 64.7116 505.751 525.784
1147 0 53.13 11.5754 615 67.3707 505.743 524.167
1148 0 51.1223 11.0715 566 69.182 505.474 519.938
1149 0 54.0625 12.726 688 67.032 504.735 521.751
1150 0 56.0794 12.7141 713 66.993 504.794 520.114
1151 0 58.0866 14.7883 859 63.8196 505.162 523.4
1152 0 62.214 13.4536 837 64.7814 504.84 520.752
1153 0 62.248 12.5787 783 66.341 504.284 519.069
1154 0 65.0503 13.2052 859 65.6624 505.031 517.466
1155 0 66.1649 12.6804 839 66.0334 505.391 517.249
1156 0 70.3049 14.4513 1016 63.6152 505.405 513.941
1157 0 71.0618 12.1021 860 66.7942 504.986 514.519
1158 0 75.2869 13.3622 1006 65.0199 505.403 514.526
1159 0 76.1249 13.3859 1019 65.8292 505.134 512.692
1160 0 82.1076 13.2874 1091 65.539 505.11 511.378
1161 0 84.25 14.7181 1240 64.1081 505.503 509.27
1162 0 88.0773 14.3965 1268 64.2366 505.215 506.574
1163 0 90.1768 12.1761 1098 67.5783 505.722 503.152
1164 0 93.0585 12.7984 1191 66.3039 504.55 506.28
1165 1 51.1862 14.418 738 63.8171 504.743 526.088
1166 0 49.0962 13.056 641 67.0749 504.944 524.74
1167 0 51.1009 13.3657 683 66.328 504.978 524.704
1168 0 54.0182 13.9397 753 65.1753 505.089 523.737
1169 0 54.1148 12.7507 690 66.9391 505.425 521.333
1170 0 56.0212 12.8344 719 66.8359 505.338 522.128
1171 0 60.0972 13.4116 806 65.7097 505.386 519.996
1172 0 60.1751 12.6464 761 66.6675 504.953 519.079
1173 0 63.0406 14.4351 910 64.3253 505.347 519.308
1174 0 65.0504 13.8815 903 65.0066 505.657 517.936
1175 0 67.1294 12.2748 824 66.4187 505.358 513.788
1176 0 69.2064 15.1287 1047 63.2674 505.129 514.208
1177 0 70.1351 13.1033 919 65.8575 505.243 511.737
1178 0 73.2444 12.2057 894 67.1331 504.953 513.32
1179 0 76.1379 13.6857 1042 65.0806 504.842 510.739
1180 0 81.1019 14.1427 1147 64.0915 505.565 510.535
1181 0 82.0892 11.719 962 66.5748 504.705 511.268
1182 0 84.1312 13.7761 1159 65.0388 505.195 509.839
1183 0 88.1777 15.1059 1332 63.4024 505.881 507.243
1184 0 90.083 11.2674 1015 67.864 505.503 505.297
1185 1 46.0383 11.3384 522 66.0517 505.14 527.709
1186 0 49.1392 11.9864 589 65.7029 505.156 525.228
1187 0 52.0653 14.8467 773 62.2626 506.094 524.286
1188 0 52.0491 12.834 668 64.9476 505.82 525.811
1189 0 52.055 11.5263 600 67.265 504.792 522.678
1190 0 54.055 12.8758 696 65.7902 505.32 520.379
1191 0 56.0543 13.1301 736 65.4416 505.114 521.804
1192 0 60.0915 12.6307 759 65.6601 505.42 519.796
1193 0 60.0531 13.0052 781 65.7849 504.791 517.907
1194 0 61.0212 11.5861 707 67.5757 505.17 518.625
1195 0 66.0675 14.8938 984 62.8465 504.832 518.981
1196 0 67.1179 12.8878 865 66.2324 504.895 515.79
1197 0 70.1332 14.1588 993 64.5468 504.818 516.202
1198 0 73.1009 12.175 890 66.736 504.77 512.909
1199 0 73.1688 13.3117 974 66.6889 504.899 511.935
1200 0 77.165 12.4797 963 67.4372 504.759 510.846
1201 0 81.1162 14.7813 1199 64.7323 505.537 509.425
1202 0 81.0649 13.3967 1086 66.9549 505.64 511.359
1203 1 43.0182 12.1112 521 66.787 505.766 529.643
1204 0 41.095 11.9723 492 67.3537 505.539 530.484
1205 0 45.0241 12.5266 564 66.5762 505.255 529.484
1206 0 46.0848 13.7355 633 65.5103 505.529 528.327
1207 0 45.1118 12.9013 582 67.0034 505.246 528.201
1208 0 47.0359 14.4145 678 65.4852 505.605 525.35
1209 0 51.0736 14.0973 720 64.8653 505.726 525.951
1210 0 49.0841 13.8334 679 66.1812 505.947 524.524
1211 0 53.1003 14.5762 774 64.6744 505.083 521.447
1212 0 54.0288 11.6604 630 69.0016 505.311 521.24
1213 0 56.0615 13.4674 755 66.2556 505.391 520.913
1214 0 58.1807 12.3237 717 67.9665 505.718 518.675
1215 0 59.0612 15.2046 898 64.2094 505.689 517.908
1216 0 61.1351 13.0367 797 66.9774 505.408 517.616
1217 0 64.0678 14.8749 953 64.3652 505.924 516.941
1218 0 66.1306 13.9875 925 65.6 506.056 516.098
1219 0 69.0867 13.1574 909 66.8284 505.967 513.703
1220 0 72.0439 14.1858 1022 65.3601 505.06 513.212
1221 0 74.1058 13.7236 1017 66.0993 505.593 510.522
1222 0 77.0834 13.8422 1067 65.8604 505.355 508.888
1223 0 79.1094 13.2096 1045 66.9043 505.236 506.087
1224 0 83.0608 13.761 1143 66.2773 505.276 507.847
1225 0 87.1546 13.7572 1199 65.4687 505.591 508.308
1226 1 46.0339 11.6436 536 66.4384 505.81 527.778
1227 0 45.0345 12.2795 553 67.0542 505.322 526.817
1228 0 48.1397 13.0869 630 66.6619 505.629 524.198
1229 0 48.0843 11.7294 564 68.7819 505.658 522.794
1230 0 53.0644 14.1149 749 64.6903 506.085 524.274
1231 0 53.0651 14.3786 763 64.6841 506.379 522.908
1232 0 54.1209 13.0449 706 66.0014 506.203 521.596
1233 0 57.0288 14.7294 840 63.7595 506.031 519.861
1234 0 58.07 12.8293 745 66.2765 506.654 520.016
1235 0 59.2066 12.8871 763 66.6527 505.709 516.321
1236 0 62.1984 13.5856 845 65.284 505.462 515.944
1237 0 64.1766 13.3226 855 65.2398 505.917 514.795
1238 0 68.0571 12.9156 879 64.5165 506.367 514.909
1239 0 70.1935 13.3346 936 64.2799 506.07 512.112
1240 0 73.0944 13.6125 995 64.1176 505.81 511.754
1241 0 74.1601 13.4978 1001 64.2418 505.282 511.971
1242 0 78.0749 13.9225 1087 64.1518 505.896 510.413
1243 0 79.1606 13.1126 1038 65.79 505.513 507.12
1244 0 81.1123 12.8587 1043 66.7699 506.679 506.024
1245 1 40.0348 10.8655 435 66.1425 506.595 528.444
1246 0 41.0089 13.5824 557 63.8187 506.562 526.96
1247 0 45.0466 11.7878 531 64.9454 506.554 527.857
1248 0 42.1253 12.7477 537 66.6238 506.497 525.52
1249 0 46.0208 12.9289 595 66.0235 506.825 524.706
1250 0 48.1655 13.6612 658 65.152 506.43 523.465
1251 0 49.0729 13.0011 638 65.9075 506.408 524.24
1252 0 49.139 12.8615 632 66.3924 506.521 524.24
1253 0 49.1024 13.7061 673 66.0193 506.435 522.108
1254 0 53.1311 14.2101 755 63.9152 505.861 522.691
1255 0 57.1308 13.5479 774 65.314 506.211 520.739
1256 0 57.0458 13.6206 777 65.6988 506.218 519.598
1257 0 57.0646 11.9163 680 67.1279 506.078 520.857
1258 0 61.1905 14.4467 884 64.3801 506.613 519.259
1259 0 62.072 12.5016 776 67.1598 506.412 517.465
1260 0 65.3318 13.5462 885 65.6203 506.443 517.345
1261 0 67.1536 13.8488 930 65.1473 505.399 515.465
1262 0 70.123 13.4763 945 66.0095 505.644 513.675
1263 0 72.0565 14.2805 1029 65.1798 504.421 513.744
1264 0 74.0427 14.3701 1064 64.8778 505.329 513.504
1265 0 78.0633 13.4122 1047 66.1375 505.861 511.778
1266 0 77.0784 13.1035 1010 67.5178 505.747 509.656
1267 0 82.1463 13.269 1090 66.745 506.75 510.565
1268 1 40.2718 11.8197 476 67.2437 507.004 529.433
1269 0 40.085 12.6731 508 66.6791 506.555 529.559
1270 0 43.1223 12.8704 555 66.218 506.041 528.798
1271 0 46.0372 11.7514 541 66.8262 505.412 528.373
1272 0 44.1957 13.938 616 64.8766 505.713 528.718
1273 0 46.1756 13.2321 611 65.9493 505.822 525.563
1274 0 48.0535 12.7566 613 66.0049 505.84 526.883
1275 0 51.1284 13.0651 668 65.5584 506.129 526.166
1276 0 51.0722 13.569 693 66.075 506.193 524.537
1277 0 50.0462 11.929 597 68.3936 505.737 523.504
1278 0 53.0417 14.0079 743 66.0686 505.834 524.082
1279 0 56.1647 13.8343 777 65.26 505.946 524.771
1280 0 60.1722 12.9462 779 67.0796 505.288 520.834
1281 0 59.0573 13.4276 793 67.9357 505.296 518.696
1282 0 61.1237 14.6261 894 66.6063 505.767 517.73
1283 0 65.0637 13.5867 884 67.0962 505.351 516.574
1284 0 67.1019 14.3364 962 66.08 505.59 518.872
1285 0 69.0381 14.1226 975 67.642 505.804 515.072
1286 0 72.074 13.1809 950 68.3621 506.616 516.292
1287 0 71.1011 13.2065 939 69.2982 506.288 512.716
1288 0 76.1291 13.858 1055 68.6825 504.555 509.998
1289 0 78.1251 13.8624 1083 68.6778 505.11 511.493
1290 1 39.043 11.0391 431 71.0418 504.824 530.559
1291 0 39.071 13.2067 516 68.1298 505.467 531.8
1292 0 40.1012 12.643 507 69.0671 505.018 531.471
1293 0 44.0783 12.9542 571 67.9037 505.576 530.471
1294 0 44.0941 13.6299 601 67.7571 505.29 528.3
1295 0 47.1437 13.5119 637 67.3155 505.623 528.171
1296 0 47.0879 13.2306 623 67.8475 505.345 527.295
1297 0 46.0678 13.6538 629 67.7742 505.507 526.913
1298 0 51.044 13.9487 712 66.2753 505.593 525.417
1299 0 52.1495 12.2916 641 68.2699 506.19 524.52
1300 0 52.0564 12.0254 626 69.4233 506.133 523.54
1301 0 56.0897 15.6 875 64.1154 505.519 522.858
1302 0 58.2454 13.735 800 66.1788 506.151 521.922
1303 0 59.0745 11.3247 669 69.1151 506.115 522.629
1304 0 60.2435 13.3292 803 67.1818 505.334 517.357
1305 0 64.3808 13.327 858 66.4615 505.587 519.027
1306 0 67.3276 14.3626 967 65.2958 505.512 518.104
1307 0 67.2518 14.2896 961 66.334 506.677 515.234
1308 0 71.1886 15.0867 1074 64.6965 506.226 515.451
1309 0 73.061 13.5914 993 66.8812 506.11 512.646
1310 0 76.1538 13.1182 999 66.6857 505.64 512.982
1311 0 78.0822 14.331 1119 65.9535 505.89 512.139
1312 0 79.1116 14.1066 1116 66.44 505.958 509.567
1313 0 84.0506 13.0279 1095 67.4 505.916 509.903
1314 1 41.0809 12.9014 530 66.034 506.387 531.368
1315 0 43.0582 13.3308 574 67.2317 506.422 527.78
1316 0 46.0893 12.5192 577 67.3154 505.248 528.917
1317 0 47.0408 13.4989 635 66.0409 505.31 527.721
1318 0 49.1127 13.2349 650 66.1523 505.695 527.165
1319 0 50.0635 15.4804 775 63.5961 505.489 526.603
1320 0 51.0818 13.4686 688 65.9796 505.581 525.454
1321 0 53.0439 15.0064 796 63.9774 505.938 525.161
1322 0 52.071 14.0193 730 66.3274 505.212 521.766
1323 0 57.0328 14.2374 812 65.6884 505.86 520.294
1324 0 58.1087 13.6124 791 66.7168 505.982 521.858
1325 0 63.3379 14.5726 923 64.5937 505.315 520.674
1326 0 64.1974 12.8198 823 67.0377 505.507 520.385
1327 0 68.1424 15.2622 1040 63.7269 505.806 517.838
1328 0 68.2845 13.063 892 67.2298 505.68 517.085
1329 0 70.143 13.1446 922 66.6475 506.325 518.154
1330 0 73.0253 15.6795 1145 63.8856 506.101 515.249
1331 0 77.1944 13.9906 1080 65.9509 505.692 514.886
1332 0 76.0862 13.0641 994 68.5473 505.45 511.338
1333 0 83.2698 14.0867 1173 66.2106 505.053 513.821
1334 0 84.1133 13.8979 1169 67.7451 505.388 511.135
1335 0 84.1222 13.4328 1130 69.0947 505.393 510.373
1336 0 87.1339 14.1965 1237 68.2312 506.17 507.281
1337 1 46.0603 12.7225 586 69.628 506.529 526.485
1338 0 48.146 13.3552 643 68.8258 506.339 528.512
1339 0 49.1386 14.2861 702 67.8618 505.84 527.272
1340 0 52.0669 14.7502 768 66.5846 505.499 527.579
1341 0 54.0987 14.3442 776 66.9369 506.276 523.648
1342 0 55.1232 13.3519 736 68.1658 505.932 525.577
1343 0 56.1532 13.7303 771 68.4501 506.08 521.931
1344 0 59.1074 12.9595 766 68.3212 506.056 521.663
1345 0 61.0753 12.6729 774 68.6021 505.836 522.106
1346 0 66.2639 13.7632 912 66.3399 505.992 520.516
1347 0 68.2362 14.9334 1019 65.6752 506.107 518.309
1348 0 70.3335 15.0711 1060 65.4698 505.994 518.322
1349 0 73.1662 15.2666 1117 64.8953 506.294 517.809
1350 0 73.0755 13.6297 996 67.7108 506.552 514.425
1351 0 74.067 14.3249 1061 67.3289 506.722 515.234
1352 0 80.0445 14.342 1148 66.2152 506.215 514.415
1353 0 82.1673 13.862 1139 67.022 505.491 513.093
1354 0 84.1892 13.7072 1154 67.2114 505.627 511.765
1355 0 88.1267 13.7302 1210 67.043 505.702 508.888
1356 0 87.1477 13.7927 1202 68.0815 505.425 508.273
1357 1 42.0784 12.0252 506 68.1403 505.411 531.824
1358 0 45.0969 11.819 533 67.3996 506.036 532.128
1359 0 45.0161 13.995 630 67.046 506.186 529.09
1360 0 45.0196 13.5052 608 68.7105 505.227 526.604
1361 0 49.15 13.6114 669 67.6607 505.063 527.432
1362 0 48.0611 12.3593 594 70.3249 504.692 525.668
1363 0 53.0819 14.0726 747 66.2985 504.842 525.182
1364 0 51.1227 12.5189 640 69.4844 505.078 524.855
1365 0 55.1898 13.5713 749 67.3979 505.792 524.612
1366 0 55.0522 11.9705 659 69.5478 505.373 524.73
1367 0 58.1341 14.6214 850 65.7588 505.22 524.186
1368 0 60.0578 13.2039 793 67.947 504.419 519.9
1369 0 62.0941 14.4297 896 66.6618 504.6 519.638
1370 0 65.147 14.4136 939 66.3919 505.098 520.869
1371 0 65.1811 13.4855 879 68.2526 505.11 518.185
1372 0 69.1902 14.1205 977 67.4217 505.067 516.444
1373 0 71.0501 14.4546 1027 67.1314 505.509 515.116
1374 0 75.0438 13.9252 1045 67.2182 505.81 517.818
1375 0 77.2661 13.6282 1053 67.4131 505.04 514.615
1376 0 78.0931 13.5864 1061 67.5702 504.777 513.886
1377 1 37.4713 10.0877 378 70.9762 505.193 532.783
1378 0 39.1085 10.6882 418 68.5598 505.517 534.311
1379 0 40.1116 12.5649 504 67.0417 505.929 532.321
1380 0 40.3571 14.1239 570 66.6386 505.307 530.272
1381 0 41.169 13.6025 560 67.3089 505.48 530.938
1382 0 44.0414 14.9859 660 64.7136 504.861 531.112
1383 0 44.0475 13.9622 615 67.0667 503.774 529.535
1384 0 46.1783 13.7944 637 65.8148 504.08 530.579
1385 0 47.2379 12.9769 613 67.4747 505.181 527.292
1386 0 48.1665 13.0589 629 67.5803 504.483 524.75
1387 0 52.2486 15.943 833 63.6014 504.595 525.828
1388 0 52.2713 15.6874 820 64.0683 505.345 525.029
1389 0 56.2018 14.359 807 64.8451 505.218 524.483
1390 0 57.3038 14.4668 829 65.1604 505.031 523.363
1391 0 56.2639 12.5125 704 67.7642 504.151 524.267
1392 0 58.3116 12.8962 752 67.8497 504.19 522.931
1393 0 63.4076 14.0519 891 65.4983 504.621 523.132
1394 0 61.197 12.6477 774 68.9651 504.41 520.601
1395 0 66.2014 13.5949 900 67.2433 504.856 520.081
1396 0 67.1368 12.7054 853 68.6143 504.734 520.537
1397 0 69.1617 15.8614 1097 64.3929 504.237 519.088
1398 0 73.3986 14.3054 1050 66.119 503.867 516.728
1399 0 75.1627 13.5706 1020 66.8324 504.907 519.694
1400 0 76.3204 15.2122 1161 65.273 505.18 517.792
1401 0 79.1775 13.3498 1057 67.8912 505.142 515.208
1402 0 83.2075 14.4578 1203 66.6384 504.876 513.007
1403 0 85.1121 14.5925 1242 66.744 504.704 511.411
1404 0 88.37 14.2696 1261 66.927 504.424 509.972
1405 1 44.2186 14.27 631 66.4628 505.532 532.263
1406 0 43.305 11.4306 495 70.396 504.988 530.331
1407 0 47.1585 14.6103 689 66.2598 504.662 529.576
1408 0 49.3705 13.2873 656 68.1997 504.628 529.066
1409 0 50.2297 13.2989 668 68.1362 504.883 529.172
1410 0 50.2257 12.5036 628 69.6704 504.699 528.178
1411 0 52.1333 13.6573 712 67.7823 504.968 527.94
1412 0 55.0827 13.7611 758 68.0369 505.335 525.566
1413 0 57.1765 12.3302 705 69.1957 504.769 526.594
1414 0 57.3373 13.9525 800 68.1862 505.295 523.878
1415 0 61.1801 15.0212 919 66.2709 504.48 523.447
1416 0 62.1737 14.2826 888 67.5022 504.706 522.895
1417 0 64.1086 12.6348 810 70.3543 504.588 520.92
1418 0 65.2646 13.6368 890 68.8225 504.798 523.07
1419 0 69.3254 13.6891 949 69.3983 505.311 519.092
1420 0 70.3749 14.4654 1018 68.6149 505.732 518.362
1421 0 72.3305 14.4891 1048 69.1508 505.521 516.448
1422 0 75.2542 15.3081 1152 67.9236 505.071 517.847
1423 0 79.2807 14.0513 1114 69.4147 505.451 515.62
1424 0 79.2549 14.4849 1148 69.6707 505.442 514.603
1425 0 83.3546 13.5325 1128 71.4787 505.091 511.885
1426 0 86.2105 15.4969 1336 68.6355 505.291 514.346
1427 0 89.1888 16.1792 1443 67.876 505.825 512.141
1428 0 91.2114 14.7569 1346 70.162 505.715 510.366
1429 0 95.1053 14.6995 1398 70.2239 505.548 508.464
1430 0 96.1523 14.8514 1428 70.4202 505.196 505.373
1431 1 45.2003 13.6061 615 71.2439 504.969 529.525
1432 0 49.1158 13.4173 659 70.6995 505.442 530.926
1433 0 50.1268 13.027 653 72.6294 505.363 528.081
1434 0 52.1763 14.9685 781 69.21 505.275 528.479
1435 0 53.2687 13.8543 738 70.6924 505.146 528.879
1436 0 53.115 13.3296 708 71.8672 505.828 527.359
1437 0 58.1202 15.2098 884 68.4219 504.796 526.529
1438 0 57.3543 15.2735 876 69.5377 505.398 525.086
1439 0 58.1584 14.4433 840 70.3679 505.427 526.5
1440 0 61.161 15.5001 948 69.5886 504.639 523.371
1441 0 65.1625 14.625 953 70.1144 504.913 523.74
1442 0 66.0677 15.363 1015 69.4857 505.039 522.125
1443 0 66.0487 14.459 955 70.178 505.032 522.762
1444 0 70.1566 15.5509 1091 69.3208 505.28 518.902
1445 0 72.1706 14.4242 1041 70.926 505.697 518.953
1446 0 73.2376 13.8727 1016 71.5295 505.199 518.328
1447 0 78.1784 14.5437 1137 70.3026 505.597 518.653
1448 0 79.1538 14.0486 1112 71.9236 505.456 514.449
1449 0 80.194 14.2903 1146 71.7016 504.538 514.364
1450 0 84.2375 13.9724 1177 72.0858 505.223 513.562
1451 0 86.2213 13.6625 1178 72.4975 504.965 511.447
1452 0 89.1811 13.9379 1243 72.7989 504.994 506.377
1453 0 93.3363 13.3389 1245 72.8032 505.002 507.959
1454 1 46.104 10.9752 506 73.2154 504.66 532.081
1455 0 48.185 14.5896 703 69.4125 506.064 530.168
1456 0 49.148 13.1643 647 71.6847 505.615 529.746
1457 0 50.2102 14.5588 731 70.9576 506.085 527.784
1458 0 53.3718 14.8393 792 70.25 506.081 527.076
1459 0 54.5468 12.943 706 72.4618 505.829 528.962
1460 0 57.2291 13.6644 782 71.5703 505.637 528.275
1461 0 57.1232 13.5496 774 73.8088 505.417 523.988
1462 0 60.3542 13.5202 816 73.3542 505.638 525.46
1463 0 60.2476 14.2412 858 73.3298 505.189 524.847
1464 0 64.1657 13.8859 891 73.5993 505.156 523.136
1465 0 65.4543 13.857 907 74.1665 505.484 523.573
1466 0 67.2485 13.6062 915 74.2787 505.133 520.207
1467 0 69.2168 14.274 988 74.0688 504.321 519.116
1468 0 72.2617 15.4854 1119 71.6077 504.631 519.246
1469 0 75.287 14.199 1069 73.5042 504.907 517.94
1470 0 75.2892 13.2555 998 75.7425 505.209 515.163
1471 0 79.083 13.6565 1080 74.4787 504.556 516.131
1472 0 82.1046 14.5059 1191 72.8497 505.31 516.704
1473 0 85.2697 15.0346 1282 72.259 505.034 514.385
1474 0 87.3478 14.5625 1272 72.9576 504.581 513.276
1475 0 88.2061 14.9763 1321 73.1544 504.562 507.692
1476 0 92.5923 14.634 1355 72.8524 504.832 510.441
1477 0 93.1311 13.0139 1212 75.519 504.965 506.573
1478 0 98.1626 14.9853 1471 72.312 504.9 506.198
1479 1 48.2014 12.4478 600 72.6117 505.527 531.628
1480 0 49.1542 12.3082 605 75.5769 505.498 528.089
1481 0 50.0969 14.2524 714 73.0014 505.22 527.155
1482 0 52.3705 14.512 760 71.8303 504.739 528.893
1483 0 55.2797 13.893 768 72.5599 504.764 528.04
1484 0 55.186 14.9857 827 72.3349 505.22 525.91
1485 0 56.2188 15.1551 852 72.23 504.269 526.323
1486 0 56.277 11.6922 658 77.6307 505.315 525.023
1487 0 61.2129 14.3597 879 72.9636 505.593 521.87
1488 0 61.2605 13.3365 817 75.366 504.807 524.136
1489 0 65.1083 14.2532 928 72.6336 504.492 523.627
1490 0 66.186 14.7161 974 72.7731 504.586 520.977
1491 0 68.2133 14.7479 1006 72.7018 504.938 518.918
1492 0 72.0842 14.2611 1028 72.6508 505.454 520.164
1493 0 73.1201 14.6061 1068 73.0103 505.547 517.333
1494 0 76.4233 14.1972 1085 73.2654 505.42 516.133
1495 0 80.2197 14.9215 1197 71.4419 505.385 516.56
1496 0 82.1362 14.5855 1198 72.2671 504.613 514.086
1497 0 83.0577 15.1943 1262 71.4746 503.94 512.006
1498 0 84.2992 13.203 1113 74.8922 504.608 510.399
1499 0 87.1457 13.4373 1171 73.7096 503.958 509.558
1500 0 92.1838 15.2413 1405 70.4214 505.091 508.962
1501 0 93.3077 14.3825 1342 71.585 504.573 508.096
1502 0 98.1923 13.8707 1362 71.9442 505.072 506.165
1503 1 51.4395 13.1805 678 71.3496 505.717 528.507
1504 0 53.2232 13.5092 719 72.2434 504.615 524.57
1505 0 56.2569 15.1626 853 68.7515 504.877 526.101
1506 0 56.2178 14.7106 827 70.8537 504.284 523.79
1507 0 61.2008 13.9541 854 69.9895 504.635 524.899
1508 0 60.151 14.9457 899 70.4483 504.968 522.917
1509 0 61.3362 13.9396 855 71.4901 505.303 521.221
1510 0 66.2903 14.0745 933 70.403 504.878 520.902
1511 0 67.2542 12.4304 836 73.421 504.693 515.988
1512 0 68.2035 14.4421 985 70.6264 504.3 515.592
1513 0 72.3008 14.5918 1055 69.746 504.134 515.68
1514 0 75.4048 14.6277 1103 69.1469 504.283 516.539
1515 0 80.2079 14.7741 1185 68.2008 504.568 516.621
1516 0 81.1401 14.8262 1203 69.1205 504.927 509.725
1517 0 83.1048 14.5479 1209 69.7378 505.167 511.355
1518 0 87.2167 15.3067 1335 68.5453 504.996 510.178
1519 0 88.5555 14.5446 1288 69.6794 504.27 508.335
1520 0 90.1883 14.0595 1268 70.2768 504.595 506.593
1521 0 93.1904 13.467 1255 71.2988 504.418 502.769
1522 0 99.4173 15.0879 1500 68.49 504.607 503.781
1523 0 101.308 14.4608 1465 69.2751 504.679 502.504
1524 0 105.265 16.1783 1703 67.0464 504.942 501.18
1525 0 107.336 14.1611 1520 70.1013 505.366 496.961
1526 1 54.14 13.2804 719 69.1321 504.684 527.321
1527 0 57.3793 12.0775 693 70.1082 505.03 526.508
1528 0 58.3311 13.0291 760 70.0237 504.446 524.76
1529 0 59.1351 14.8474 878 69.0262 504.591 521.138
1530 0 60.3439 13.2573 800 71.7812 504.765 519.946
1531 0 65.103 14.6691 955 68.4199 504.763 520.947
1532 0 64.2774 14.0329 902 70.4036 504.06 518.858
1533 0 68.109 13.126 894 70.8423 504.261 519.484
1534 0 70.1952 15.6421 1098 67.5228 504.745 517.07
1535 0 73.3909 15.1926 1115 67.3632 504.751 517.387
1536 0 76.6035 14.8166 1135 67.4493 504.657 518.196
1537 0 80.1265 15.9997 1282 66.0359 504.805 515.493
1538 0 81.228 14.9333 1213 67.9687 505.025 513.389
1539 0 82.1557 13.6692 1123 70.52 504.86 510.519
1540 0 87.2932 14.1821 1238 69.172 504.149 507.124
1541 0 90.1392 14.3889 1297 68.6939 503.945 508.589
1542 0 91.2754 14.8781 1358 68.0236 504.018 508.881
1543 0 94.3485 14.1285 1333 69.1898 503.91 506.932
1544 0 97.2186 15.0486 1463 68.4306 503.898 504.102
1545 0 99.271 14.2035 1410 68.4447 504.538 506.746
1546 1 50.1344 12.0875 606 68.5099 504.553 529.596
1547 0 52.2982 14.0731 736 67.2717 504.404 526.219
1548 0 54.0765 15.4041 833 64.7947 504.202 527.359
1549 0 56.1755 13.9385 783 67.1341 504.129 525.512
1550 0 56.1415 14.7128 826 66.6707 503.92 524.071
1551 0 58.2265 14.2375 829 66.8806 504.362 522.169
1552 0 59.3669 15.4126 915 66.082 504.415 521.601
1553 0 63.2791 13.3535 845 67.2722 504.878 522.206
1554 0 62.1916 13.3941 833 68.3866 504.749 518.856
1555 0 66.1152 14.0512 929 66.5511 504.932 519.31
1556 0 68.2655 13.1106 895 68.076 505.486 517.348
1557 0 73.3686 15.647 1148 63.8484 504.393 518.625
1558 0 74.2164 13.5954 1009 66.7443 503.982 515.944
1559 0 76.1228 14.2927 1088 66.1259 504 514.63
1560 0 80.1265 14.3024 1146 66.0192 504.478 512.414
1561 0 82.3296 14.2962 1177 65.7842 505.085 513.8
1562 0 86.2132 14.1162 1217 65.9252 505.307 511.626
1563 0 88.2325 13.5891 1199 67.216 504.937 506.294
1564 0 92.1251 16.076 1481 63.9804 504.93 507.99
1565 1 47.0994 12.1021 570 66.2 504.972 530.354
1566 0 47.1306 12.5184 590 67.317 504.256 526.727
1567 0 47.127 12.3284 581 67.7418 504.196 526.337
1568 0 50.1319 11.8487 594 67.6768 504.552 525.185
1569 0 49.3221 11.8811 586 67.6399 504.739 527.609
1570 0 53.1646 14.0883 749 64.0507 503.969 526.405
1571 0 56.183 13.9722 785 64.4115 504.261 524.16
1572 0 57.0853 13.2959 759 65.3636 504.184 523.704
1573 0 59.2556 14.8172 878 63.7312 504.106 522.05
1574 0 59.0723 13.0179 769 66.0364 503.99 521.506
1575 0 61.203 12.0092 735 67.5605 504.712 519.573
1576 0 64.1384 13.8918 891 64.9372 504.093 520.169
1577 0 66.1575 13.2562 877 66 503.621 518.123
1578 0 68.0884 15.5239 1057 63.421 503.413 517.095
1579 0 69.3027 12.3083 853 68.1524 504.77 515.837
1580 0 70.2061 10.9677 770 69.4299 504.551 517.235
1581 0 75.2105 12.578 946 68.0402 504.911 512.983
1582 0 80.1113 13.7434 1101 66.357 503.918 512.252
1583 0 79.3329 13.6135 1080 66.9935 504.41 513.237
1584 0 83.3375 13.9193 1160 66.8284 504.441 511.459
1585 0 85.2244 14.6437 1248 67.0553 505.148 507.264
1586 0 88.2873 13.3088 1175 68.1481 504.804 506.786
1587 1 45.0919 11.8425 534 68.7584 504.434 527.697
1588 0 46.3047 11.6835 541 69.2976 504.115 526.444
1589 0 47.1324 12.4331 586 68.6655 504.213 525.447
1590 0 52.1036 14.1641 738 65.5948 503.514 526.272
1591 0 50.2869 12.2099 614 68.0896 504.049 526.041
1592 0 53.3477 12.934 690 67.5681 504.248 521.462
1593 0 52.112 12.0893 630 69.4476 503.814 521.743
1594 0 58.1098 12.8033 744 67.7984 504.227 521.146
1595 0 60.2361 13.6629 823 66.6185 504.74 519.618
1596 0 62.1218 14.1818 881 66.0863 503.862 519.049
1597 0 64.1264 13.0523 837 67.5615 504.014 516.759
1598 0 67.1786 13.7841 926 66.3834 504.134 517.459
1599 0 70.2994 13.6986 963 65.8764 504.07 517.235
1600 0 73.1327 13.1678 963 67.2181 504.299 515.334
1601 0 75.2034 13.1909 992 67.4829 503.943 511.283
1602 0 77.2278 13.1559 1016 67.6161 503.449 511.786
1603 0 77.2602 13.4222 1037 67.8573 503.461 510.412
1604 0 80.0992 13.1337 1052 68.1435 503.511 511.789
1605 0 83.1327 14.7234 1224 67.1724 503.929 508.712
1606 0 86.0784 12.2446 1054 70.5949 504.531 508.051
1607 1 45.1127 11.6154 524 69.5763 504.592 528.803
1608 0 46.2016 11.0819 512 70.7051 504.602 527.654
1609 0 48.0472 12.3004 591 69.0744 504.88 527.144
1610 0 49.1058 13.2774 652 68.3972 504.38 525.239
1611 0 52.1124 12.6841 661 68.5734 504.216 526.405
1612 0 51.213 12.7897 655 69.3603 503.933 525.714
1613 0 54.1683 12.6088 683 70.1376 504.936 520.444
1614 0 56.2351 14.386 809 67.1496 504.335 521.886
1615 0 58.1899 13.0435 759 68.7852 503.394 519.316
1616 0 62.2386 15.1032 940 65.5723 504.12 521.565
1617 0 65.2457 14.545 949 66.1981 504.745 520.392
1618 0 67.1136 13.9614 937 67.159 504.78 517.191
1619 0 68.1293 11.9479 814 70.5209 504.668 514.716
1620 0 70.2089 13.8159 970 67.4041 505.384 517.106
1621 0 74.2296 13.9567 1036 65.7963 504.647 516.918
1622 0 76.0716 14.4863 1102 66.6851 504.262 511.966
1623 0 77.2106 12.4076 958 69.4697 503.851 508.615
1624 0 82.0936 13.3384 1095 67.6858 504.509 507.716
1625 1 38.09 13.0743 498 67.3996 504.339 527.506
1626 0 39.2379 11.4685 450 68.4756 503.718 527.373
1627 0 41.1686 11.2707 464 68.7565 504.681 526.871
1628 0 46.3269 14.3329 664 63.8675 504.768 527.467
1629 0 46.0446 11.7495 541 67.2532 504.272 524.989
1630 0 46.1352 13.7856 636 65.1431 503.596 525.068
1631 0 47.1448 11.6238 548 67.5164 503.197 524.637
1632 0 51.0711 12.6099 644 65.6227 503.543 523.379
1633 0 50.1167 12.6106 632 66.5285 504.191 521.367
1634 0 53.0496 12.0265 638 67.4702 504.237 517.95
1635 0 53.1124 10.7131 569 68.652 504.128 520.757
1636 0 59.0623 14.8318 876 62.7591 503.788 519.505
1637 0 60.1391 14.932 898 63.1024 503.797 517.094
1638 0 63.1738 13.3758 845 64.9515 503.789 515.554
1639 0 63.1445 13.1445 830 66.041 504.364 516.575
1640 0 64.1133 12.8055 821 66.7674 504.67 515.389
1641 0 69.2682 15.0863 1045 63.2182 504.038 513.183
1642 0 70.183 12.8664 903 66.454 504.396 510.924
1643 0 71.1819 13.0511 929 66.9064 504.48 509.125
1644 0 74.1342 13.2463 982 66.4511 503.913 511.386
1645 0 79.1549 14.3642 1137 64.7265 504.049 509.85
1646 0 81.2555 14.3252 1164 64.7835 503.723 507.476
1647 0 82.2885 14.437 1188 65.5219 504.104 505.29
1648 0 85.0952 14.2076 1209 65.6212 504.383 505.632
1649 0 88.1729 11.829 1043 68.5657 504.059 505.283
1650 0 91.2018 14.1116 1287 65.9744 504.316 501.975
1651 1 51.1415 11.3606 581 67.7401 504.005 524.096
1652 0 50.09 12.9367 648 66.2068 504.006 524.878
1653 0 52.1408 13.1759 687 66.1965 504.546 522.031
1654 0 54.091 13.089 708 66.8658 504.58 520.499
1655 0 55.1354 11.8617 654 67.8807 503.7 519.794
1656 0 60.2755 14.1517 853 64.5135 504.829 518.682
1657 0 60.2761 12.7911 771 67.1167 504.66 516.76
1658 0 64.1592 13.8406 888 65.018 504.329 513.852
1659 0 63.1158 13.5941 858 65.7867 503.999 516.328
1660 0 66.1892 13.7334 909 65.4114 503.722 514.371
1661 0 70.2432 12.5706 883 66.2265 503.527 514.163
1662 0 71.1406 12.6229 898 66.8218 504.021 512.321
1663 0 76.3707 12.4524 951 66.673 504.188 512.259
1664 0 77.28 12.7329 984 66.6961 504.466 513.088
1665 0 80.1104 14.4051 1154 65.1525 504.612 506.336
1666 0 83.1576 14.5266 1208 65.0124 504.978 508.414
1667 0 83.2058 12.1386 1010 68.7762 505.047 507.361
1668 0 88.1784 13.2345 1167 67.1011 505.093 506.868
1669 0 92.3993 12.8139 1184 67.3522 504.569 505.334
1670 1 49.1274 11.7246 576 67.6024 504.45 524.878
1671 0 47.0272 11.4827 540 68.6741 504.38 524.92
1672 0 50.2765 14.7584 742 63.6671 504.511 523.792
1673 0 53.2503 13.1643 701 65.6633 504.563 523.97
1674 0 53.1338 12.9861 690 66.3 504.667 524.149
1675 0 56.2342 14.0662 791 65.1808 505.04 520.965
1676 0 57.2388 12.509 716 67.7318 504.689 520.345
1677 0 57.1006 12.8545 734 67.8134 504.875 520.049
1678 0 61.125 12.9898 794 66.9207 504.666 517.414
1679 0 62.0977 11.031 685 69.6496 503.994 517.705
1680 0 65.2627 14.1122 921 65.2736 504.383 517.27
1681 0 67.2364 12.7014 854 67.4684 504.104 514.199
1682 0 68.2342 13.7028 935 67.1005 503.552 512.745
1683 0 71.258 14.4405 1029 66.1749 504.326 512.9
1684 0 75.2071 14.5598 1095 65.6712 504.722 512.977
1685 0 78.085 14.1384 1104 66.4275 504.745 510.022
1686 0 81.3212 12.9733 1055 67.8057 504.868 509.14
1687 0 82.4824 13.7848 1137 67.1979 504.456 508.715
1688 0 86.1883 13.134 1132 67.6811 504.445 507.53
1689 0 88.2348 14.4048 1271 66.7522 504.609 506.111
1690 0 90.1568 13.9535 1258 68.039 504.211 502.112
1691 0 91.1523 12.5833 1147 69.6731 504.34 503.186
1692 1 46.181 12.2994 568 67.3856 504.447 525.183
1693 0 46.1082 10.3886 479 69.6848 504.253 524.704
1694 0 48.2752 11.3723 549 68.725 504.492 524.796
1695 0 52.3366 12.668 663 67.8084 504.118 521.261
1696 0 54.1497 14.0352 760 66.1197 503.611 519.463
1697 0 56.2139 12.8794 724 67.913 504.315 519.148
1698 0 57.1596 13.3486 763 67.1691 504.516 518.519
1699 0 59.1424 14.4059 852 65.6995 503.975 517.636
1700 0 60.2981 14.4946 874 65.889 503.797 516.868
1701 0 63.3474 13.9074 881 66.5585 504.182 516.132
1702 0 63.3202 13.2659 840 67.3762 504.348 515.558
1703 0 65.1545 12.7543 831 68.2539 504.148 513.764
1704 0 68.2204 14.4092 983 66.1353 504.661 511.197
1705 0 72.2979 13.4859 975 67.3713 504.591 511.397
1706 0 75.2459 13.9542 1050 66.9914 505.076 509.882
1707 0 75.3277 13.1691 992 68.1431 504.677 510.317
1708 0 79.2627 13.4489 1066 67.5854 504.507 508.698
1709 0 82.3314 13.1784 1085 68.2949 504.339 504.384
1710 0 82.23 12.6475 1040 68.9606 504.492 506.282
1711 0 87.2168 13.5754 1184 66.6334 503.512 507.054
1712 0 89.2918 14.951 1335 66.2674 504.298 500.843
1713 0 94.3186 14.2496 1344 66.6912 503.769 498.358
1714 1 46.1026 12.2987 567 68.3915 504.686 521.949
1715 0 47.1943 12.3956 585 68.2838 504.904 522.605
1716 0 48.2943 13.1278 634 67.5978 505.26 523.953
1717 0 53.1324 12.1583 646 68.3638 504.585 522.505
1718 0 52.1372 11.2779 588 70.381 504.088 518.718
1719 0 56.2135 12.5771 707 67.6506 503.877 519.151
1720 0 59.1103 13.2803 785 66.2968 504.666 519.074
1721 0 61.2892 14.4887 888 64.6948 504.316 518.217
1722 0 62.0605 12.4878 775 67.3264 504.47 517.191
1723 0 64.2203 12.535 805 67.5963 505.043 514.241
1724 0 70.1776 13.2378 929 65.4747 504.44 514.813
1725 0 71.2548 12.6869 904 66.3241 503.854 514.998
1726 0 73.1436 13.8495 1013 64.9674 503.573 511.251
1727 0 76.2489 12.5379 956 66.592 503.311 510.542
1728 0 79.1545 12.2924 973 67.0092 504.533 510.381
1729 0 80.1955 12.3199 988 67.337 504.96 504.771
1730 0 85.1863 13.3942 1141 65.3322 505.241 506.867
1731 0 91.1814 12.4806 1138 65.6933 505.133 505.68
1732 0 92.2132 12.7964 1180 65.8729 505.11 501.73
1733 0 93.4155 12.9957 1214 65.729 504.875 499.428
1734 0 96.4318 11.8426 1142 66.225 504.448 502.908
1735 1 52.2222 12.5043 653 64.513 504.802 522.83
1736 0 53.1638 12.0571 641 65.4852 504.813 519.119
1737 0 57.2017 12.8493 735 63.3088 504.785 520.483
1738 0 58.3384 14.0902 822 62.5608 504.532 518.909
1739 0 58.2219 12.315 717 64.6192 504.6 519.333
1740 0 61.2099 14.3114 876 63.4281 504.339 517.466
1741 0 63.1934 13.8464 875 63.496 504.739 517.626
1742 0 65.085 11.5388 751 66.0519 504.73 518.22
1743 0 67.0384 12.9329 867 64.6713 504.276 515.08
1744 0 72.2725 14.5145 1049 62.3708 504.531 514.466
1745 0 74.2002 13.504 1002 64.1297 504.715 511.334
1746 0 74.4934 12.283 915 65.7934 504.618 510.176
1747 0 76.094 12.8 974 64.8655 504.356 511.709
1748 0 81.1802 12.8356 1042 65.6363 503.913 507.481
1749 0 85.2639 13.6752 1166 63.9786 503.674 508.089
1750 0 86.2495 14.4928 1250 63.8376 504.313 504.746
1751 0 87.1306 12.7625 1112 65.9865 504.022 504.444
1752 0 93.2181 13.109 1222 65.7512 504.102 503.119
1753 1 47.1909 12.0786 570 64.1281 504.733 526.139
1754 0 45.1163 11.9912 541 65.5693 504.784 525.061
1755 0 48.2889 13.7092 662 62.8776 504.893 526.196
1756 0 49.054 11.2325 551 65.873 503.439 524.652
1757 0 52.1163 12.6832 661 63.7579 503.781 523.865
1758 0 53.1531 10.498 558 66.4677 503.889 523.504
1759 0 54.1602 13.8294 749 63.3752 503.969 521.274
1760 0 56.0857 13.1228 736 63.9158 504.471 519.293
1761 0 58.145 13.5007 785 63.2752 505.476 520.86
1762 0 59.1511 11.8848 703 65.6159 504.417 515.516
1763 0 62.0838 13.1758 818 63.8093 504.158 515.268
1764 0 64.0955 16.2414 1041 61.1566 504.593 516.108
1765 0 69.2585 12.9515 897 64.146 503.978 514.512
1766 0 69.2215 12.8573 890 64.7607 504.224 512.642
1767 0 73.1963 13.5253 990 64.0111 504.577 510.275
1768 0 75.0895 12.2654 921 65.7666 504.377 508.485
1769 0 80.0933 13.2346 1060 64.1283 504.391 512.192
1770 0 80.1719 13.5334 1085 64.1189 505.381 511.559
1771 0 81.1015 13.1687 1068 65.014 503.952 508.686
1772 0 85.3289 13.3718 1141 65.1008 504.5 506.86
1773 0 88.2586 13.3245 1176 65.0323 503.647 502.337
1774 0 94.3608 13.4908 1273 64.7298 504.107 503.573
1775 0 97.4245 13.3334 1299 65.2402 504.899 502.081
1776 0 101.347 12.8173 1299 65.6297 504.175 498.362
1777 0 102.23 15.2596 1560 63.7 504.88 496.472
1778 1 42.1253 10.5637 445 64.8404 504.953 528.497
1779 0 43.0928 12.0438 519 63.7206 505.333 527.144
1780 0 42.067 10.9349 460 66.2804 504.872 523.996
1781 0 45.0767 12.1349 547 64.2578 504.744 526.241
1782 0 48.1597 12.2717 591 63.7783 505.272 523.768
1783 0 49.1602 11.6965 575 64.7739 504.885 522.522
1784 0 51.3007 12.5339 643 63.7263 505.176 524.86
1785 0 53.1321 13.0994 696 63.7543 504.641 521.013
1786 0 56.1372 13.4848 757 62.8586 504.885 522.155
1787 0 58.0382 13.9563 810 62.1802 504.607 522.723
1788 0 58.0996 10.7746 626 66.0815 503.925 518.867
1789 0 61.2658 13.7271 841 62.6266 503.539 518.655
1790 0 62.2605 12.4638 776 64.1598 502.862 514.822
1791 0 68.2872 12.1985 833 64.4118 503.768 516.058
1792 0 64.1254 11.5087 738 66.1951 503.718 513.759
1793 0 71.1512 13.2535 943 62.649 502.89 515.485
1794 0 73.3389 14.0444 1030 62.6272 504.118 512.278
1795 0 72.0538 12.2131 880 65.2614 504.001 510.383
1796 0 77.154 12.3519 953 64.8174 503.953 511.14
1797 0 79.2131 13.2428 1049 63.6501 503.484 507.664
1798 0 82.1526 13.9375 1145 62.5162 503.03 507.748
1799 0 87.1424 14.5394 1267 61.8161 503.665 507.307
1800 0 89.2477 12.5718 1122 64.344 504.285 505.57
1801 0 93.2222 13.6555 1273 63.3079 504.61 503.84
1802 0 94.2411 13.5291 1275 63.5106 504.202 503.039
1803 1 44.1502 13.2502 585 62.2393 504.173 527.154
1804 0 46.218 13.9556 645 61.7116 504.994 527.07
1805 0 48.2621 13.2609 640 62.9 504.175 523.916
1806 0 50.2858 12.6676 637 63.394 503.425 522.827
1807 0 50.1493 13.2604 665 62.9173 503.604 523.689
1808 0 51.2432 13.3872 686 63.2653 503.78 521.561
1809 0 52.1576 11.5419 602 64.7392 503.412 522.575
1810 0 57.1859 12.7654 730 63.5493 504.285 521.964
1811 0 58.2389 14.7839 861 61.0523 503.367 520.448
1812 0 58.2234 12.8299 747 63.9277 503.657 518.909
1813 0 62.0523 13.4242 833 62.8788 503.783 519.164
1814 0 64.2284 12.5645 807 63.7869 503.221 517.835
1815 0 67.304 15.5266 1045 59.8641 503.911 518.071
1816 0 67.1007 13.7405 922 63.0531 503.85 512.302
1817 0 72.1211 14.3509 1035 61.6609 503.905 513.865
1818 0 75.1238 13.3114 1000 62.851 503.724 511.111
1819 0 75.107 13.1679 989 63.8969 504.496 509.849
1820 0 80.2223 13.5873 1090 62.8789 503.875 510.426
1821 0 80.0663 14.1882 1136 63.25 503.44 506.469
1822 0 82.2031 15.7415 1294 61.3246 502.692 506.501
1823 0 86.1167 14.5616 1254 62.2392 503.378 507.425
1824 0 89.0984 13.1877 1175 64.6426 503.829 504.654
1825 0 91.227 13.9432 1272 63.8648 503.775 503.148
1826 0 95.0576 14.2335 1353 63.19 504.088 503.359
1827 1 50.0375 11.1716 559 65.4955 503.986 522.394
1828 0 53.1711 12.1118 644 63.9876 503.599 522.96
1829 0 54.2149 11.7864 639 65.4335 503.715 521.363
1830 0 57.248 13.031 746 63.7855 503.576 520.227
1831 0 60.0902 12.1151 728 64.3915 502.951 519.034
1832 0 63.0837 14.0765 888 62.7421 504.367 517.159
1833 0 64.1783 12.6211 810 64.0321 503.725 517.281
1834 0 67.1424 13.732 922 62.2896 503.931 517.64
1835 0 68.202 13.6213 929 63.1722 503.375 515.101
1836 0 71.0668 13.0863 930 63.6226 503.544 510.202
1837 0 70.0707 12.9155 905 64.3436 504.211 511.526
1838 0 74.194 13.0873 971 64.8311 504.503 509.064
1839 0 80.182 13.3322 1069 63.3573 504.359 511.727
1840 0 80.2261 14.4716 1161 62.7149 504.04 510.02
1841 0 84.2642 15.3446 1293 61.8701 502.859 507.141
1842 0 86.1124 13.1805 1135 64.7612 503.649 503.279
1843 0 88.3537 13.0838 1156 64.9792 504.053 504.506
1844 0 92.209 12.9597 1195 65.3766 503.907 502.377
1845 0 94.138 13.7883 1298 64.3043 504.085 503.679
1846 0 99.2236 13.787 1368 64.2434 503.455 501.333
1847 1 52.0598 13.4461 700 63.66 503.673 522.423
1848 0 54.2174 13.7225 744 63.6411 503.286 522.565
1849 0 58.2244 14.1865 826 62.5605 503.564 522.548
1850 0 55.2753 12.4468 688 66.7733 503.519 517.346
1851 0 57.2728 12.8682 737 65.7815 503.514 518.403
1852 0 59.0808 14.6748 867 64.331 503.57 517.547
1853 0 65.2489 14.437 942 63.0234 503.054 518.343
1854 0 67.2228 12.1685 818 65.1858 503.163 517.604
1855 0 68.2885 12.7547 871 65.5729 503.305 514.206
1856 0 72.13 13.1984 952 64.6166 502.844 513.184
1857 0 74.4878 13.8278 1030 63.9884 503.316 512.743
1858 0 77.1138 14.5888 1125 63.3191 503.455 512.431
1859 0 79.1172 13.8402 1095 64.2977 503.069 510.344
1860 0 82.1474 13.7801 1132 65.091 502.983 507.489
1861 0 83.1986 11.6709 971 68.345 503.17 503.871
1862 0 87.3796 13.573 1186 65.8356 503.234 503.513
1863 0 89.1832 14.3861 1283 65.3905 503.586 505.419
1864 0 93.4722 12.8808 1204 67.1811 503.596 502.422
1865 1 46.3207 11.6363 539 67.4249 504.124 522.61
1866 0 47.3644 11.4432 542 67.0646 503.384 523.978
1867 0 52.2659 11.7094 612 65.8676 502.761 524.178
1868 0 55.2842 14.1632 783 62.88 503.796 522.625
1869 0 56.2394 11.7889 663 65.641 503.781 523.896
1870 0 54.3177 11.1014 603 68.67 503.643 520.411
1871 0 58.1716 14.2509 829 64.7298 503.469 520.573
1872 0 60.0555 12.8048 769 66.4746 503.589 519.707
1873 0 61.1045 14.6961 898 65.0546 503.107 518.305
1874 0 68.2222 13.9984 955 65.6764 504.071 517.496
1875 0 63.2349 12.841 812 68.9458 503.72 514.209
1876 0 69.1923 14.6693 1015 65.602 503.34 515.349
1877 0 71.2315 12.8735 917 68.892 503.401 514.394
1878 0 73.1785 15.797 1156 65.6419 503.655 512.047
1879 0 76.1421 14.0001 1066 68.181 503.337 509.401
1880 0 80.3057 15.055 1209 66.9189 502.917 509.454
1881 0 84.2517 14.3855 1212 67.8663 503.945 510.168
1882 0 84.1508 13.6303 1147 69.7489 504.16 506.374
1883 0 84.1955 14.1694 1193 69.8533 503.911 502.257
1884 1 48.2225 12.5875 607 68.3328 504.918 527.85
1885 0 51.1336 10.9713 561 70.8307 504.052 526.312
1886 0 48.0872 13.4755 648 69.966 504.082 523.935
1887 0 50.1185 11.9118 597 71.7722 503.394 524.437
1888 0 55.4021 13.2125 732 69.5219 503.362 521.877
1889 0 57.3874 12.2849 705 70.3433 503.787 521.006
1890 0 57.1725 13.6254 779 68.8036 503.398 521.529
1891 0 61.3682 13.3783 821 68.0901 503.935 522.253
1892 0 60.1144 14.306 860 68.1046 504.072 519.638
1893 0 64.471 15.061 971 66.7024 504.217 519.859
1894 0 63.4057 13.3742 848 70.3762 503.358 518.794
1895 0 67.0652 12.8681 863 71.2387 503.998 516.727
1896 0 67.1104 13.1127 880 72.0102 503.993 511.618
1897 0 68.1514 13.9395 950 70.9505 503.749 512.646
1898 0 72.2518 13.6329 985 71.1442 503.824 511.266
1899 0 75.4237 14.0407 1059 70.3484 503.847 509.576
1900 0 76.1273 15.08 1148 69.2152 504.025 511.264
1901 0 78.3232 14.3252 1122 70.5963 503.617 506.065
1902 0 81.1906 15.3589 1247 69.2334 504.144 506.681
1903 0 81.2021 13.7312 1115 72.1148 503.412 504.218
1904 0 86.3041 14.6343 1263 70.2051 503.424 503.769
1905 0 89.2108 14.6059 1303 70.0338 502.829 501.882
1906 0 92.2126 13.805 1273 70.8822 503.467 501.728
1907 1 48.0706 10.8798 523 72.6233 503.082 525.252
1908 0 51.2938 12.4771 640 70.4766 502.962 522.434
1909 0 54.2269 13.4251 728 70.081 503.757 520.228
1910 0 55.215 10.2508 566 74.3428 504.443 519.443
1911 0 57.2684 12.5025 716 70.9651 504.235 518.384
1912 0 61.2599 11.0513 677 71.8936 503.886 519.827
1913 0 61.1932 10.6875 654 73.4969 503.61 517.711
1914 0 64.2022 13.0837 840 69.744 504.67 517.719
1915 0 67.397 13.1311 885 70.1198 503.94 513.979
1916 0 68.1906 14.8848 1015 67.6946 503.749 512.751
1917 0 67.5495 12.4353 840 71.4155 503.15 512.13
1918 0 69.077 13.6225 941 70.2455 502.833 509.527
1919 0 76.3485 15.4031 1176 66.182 503.327 511.508
1920 0 77.4562 13.5302 1048 68.6183 503.632 511.799
1921 0 83.1303 14.4352 1200 67.0867 504.059 509.18
1922 0 85.1525 14.1393 1204 67.6296 503.698 508.267
1923 0 87.3118 15.3817 1343 66.6054 503.391 505.43
1924 0 87.3415 14.1055 1232 69.0576 503.751 501.509
1925 0 91.1499 12.9677 1182 70.5854 503.518 501.96
1926 0 96.3562 14.0416 1353 68.6334 503.692 502.384
1927 0 98.3375 14.6638 1442 67.932 504.24 499.426
1928 0 101.294 15.3909 1559 67.1386 504.513 498.518
1929 0 103.436 14.2891 1478 68.5927 503.691 497.308
1930 0 106.332 13.881 1476 68.9302 503.286 497.153
1931 1 53.1029 14.7073 781 66.4558 503.561 525.438
1932 0 53.0438 10.7081 568 72.2588 503.014 521.416
1933 0 55.159 14.848 819 67.4823 502.802 520.36
1934 0 55.0814 12.1457 669 71.7743 502.712 517.163
1935 0 58.1378 13.0036 756 70.0317 502.971 518.869
1936 0 63.1372 14.904 941 66.4251 503.054 520.948
1937 0 62.0939 13.0931 813 70.0529 503.487 517.601
1938 0 66.2308 13.5737 899 68.9778 503.314 517.87
1939 0 73.2021 11.8303 866 69.8464 502.425 517.57
1940 0 79.5567 14.5808 1160 65.2543 501.757 517.853
1941 0 76.2931 13.5399 1033 68.5499 501.358 513.769
1942 0 78.1204 14.1832 1108 67.9702 502.236 514.496
1943 0 80.145 11.4542 918 71.7854 502.301 510.676
1944 0 89.3875 13.4806 1205 67.6548 501.969 512.77
1945 0 92.622 13.6793 1267 67.3599 502.312 513.859
1946 0 95.7309 13.8618 1327 67.6632 501.953 510.724
1947 0 97.4723 14.9068 1453 66.4584 500.875 511.221
1948 0 99.3024 12.7288 1264 70.2144 500.756 503.702
1949 0 104.468 15.287 1597 66.3031 501.383 507.013
1950 0 100.343 13.8625 1391 143.104 501.365 502.853
1951 0 102.545 11.5363 1183 72.4945 501.248 502.62
1952 1 60.7807 13.9353 847 65.0779 500.632 527.425
1953 0 61.3961 12.8673 790 67.1962 500.69 525.814
1954 0 61.1624 9.71185 594 72.8148 500.271 521.148
1955 0 65.5573 11.5319 756 69.8492 500.552 520.765
1956 0 67.5126 13.5382 914 67.2199 500.619 518.756
1957 0 70.5275 13.711 967 66.6722 501.084 521.306
1958 0 73.3242 15.1519 1111 64.3798 500.896 520.401
1959 0 67.2962 12.6307 850 70.0965 501.209 517.396
1960 0 73.5725 13.0076 957 68.8339 501.676 515.796
1961 0 79.7048 13.6629 1089 66.6226 501.361 515.638
1962 0 80.3697 12.4798 1003 68.5065 501.774 513.302
1963 0 83.4101 12.8642 1073 68.1156 501.704 512.568
1964 0 80.1575 13.4735 1080 69.4074 501.531 507.047
1965 0 86.2527 11.5591 997 70.7914 501.319 504.623
1966 0 92.3904 14.1248 1305 67.1004 502.297 503.738
1967 0 96.538 12.3268 1190 69.4311 502.124 502.239
1968 0 97.6604 14.2125 1388 67.2219 502.844 501.24
1969 0 102.364 13.4813 1380 67.1094 502.63 502.519
1970 0 105.535 12.6498 1335 67.9348 502.798 502.474
1971 0 108.399 13.8839 1505 66.9522 502.879 499.156
1972 1 57.8401 11.307 654 67.5933 502.72 522.46
1973 0 59.3805 10.559 627 69.4131 502.321 518.12
1974 0 61.4763 12.9155 794 64.9534 502.664 522.911
1975 0 62.2123 12.1519 756 67.414 503.48 515.135
1976 0 66.6576 13.0818 872 64.6158 503.654 522.114
1977 0 67.857 12.5706 853 65.8664 503.632 521.172
1978 0 69.2999 11.1833 775 68.7187 503.267 511.892
1979 0 72.4506 11.884 861 67.5168 502.626 516.789
1980 0 73.373 11.6255 853 68.0668 502.894 512.565
1981 0 77.1002 11.8158 911 67.8288 502.8 511.392
1982 0 79.3524 11.8081 937 67.81 504.269 512.027
1983 0 80.4946 13.3922 1078 66.3043 504.452 509.482
1984 0 82.6093 11.8752 981 68.209 504.203 511.254
1985 0 85.3414 11.3544 969 69.581 503.824 504.734
1986 0 89.4316 15.0282 1344 64.4583 503.474 506.971
1987 0 91.3538 14.0552 1284 65.229 503.583 510.396
1988 0 94.4401 13.8077 1304 66.4571 503.571 501.479
1989 0 98.4511 13.4585 1325 66.7223 504.078 501.801
1990 0 101.815 13.7406 1399 66.6254 504.196 500.48
1991 0 105.266 14.6486 1542 65.4624 503.837 500.568
1992 1 59.3954 11.3813 676 68.0237 504.834 521.469
1993 0 61.655 11.9374 736 67.8071 505.398 521.046
1994 0 61.5695 9.95623 613 71.0065 504.237 517.336
1995 0 65.7238 12.9481 851 66.3032 503.955 518.995
1996 1 15.0529 11.6921 176 49.9886 505.744 543.273
1997 0 11.0076 6.35923 70 55.1571 506.157 544.3
1998 0 13.0017 9.38341 122 52.6639 505.959 544.541
1999 0 16.0074 8.1837 131 52.5954 505.58 545.572
2000 0 13.0323 9.36134 122 51.7295 505.828 545.156
2001 0 14.0164 10.4877 147 51.4422 505.442 544.748
2002 0 16.0179 9.61425 154 50.6494 505.864 545.708
2003 0 13.111 8.46615 111 52.955 505.369 544.847
2004 0 14.0033 8.85506 124 52.0806 505.161 544.863
2005 0 15.1939 8.55608 130 51.5154 505.469 543.269
2006 0 14.0588 9.7448 137 51.0292 505.117 543.547
2007 0 15.0061 10.729 161 51.6894 504.342 543.056
2008 0 12.0065 7.49595 90 54.9444 505.3 544.511
2009 0 13.0253 8.67543 113 53.7257 504.398 543.558
2010 0 15.2624 11.1384 170 52.0471 503.953 543.347
2011 0 16.0157 9.05362 145 51.9862 503.966 543.883
2012 0 15.1496 8.84511 134 52.9552 504.284 543.119
2013 0 14.0041 6.14104 86 55.4302 504.314 544.477
2014 0 17.0073 10.4661 178 52.4213 503.242 543.32
2015 0 15.0426 8.57563 129 54.7209 504.155 542.116
2016 0 15.0798 8.35553 126 54.4444 504.532 542.683
2017 0 17.0339 9.2756 158 53.6456 503.646 543.734
2018 0 16.0077 11.432 183 52.9344 503.546 543.005
2019 0 17.2341 7.77529 134 55.0373 504.858 544.828
2020 0 17.0844 9.59938 164 54.0488 504.079 544.622
2021 0 18.0218 8.32324 150 55.66 504.36 542.94
2022 0 19.0099 8.83748 168 54.0298 504.298 544.982
2023 0 18.0472 9.58599 173 54.948 503.988 543.029
2024 0 17.0324 8.63059 147 56.1156 503.503 542.395
2025 0 19.0189 13.8283 263 51.3156 503.122 542.935
2026 0 17.0774 10.8916 186 54.4032 503.656 543.07
2027 0 18.0202 10.9877 198 54.101 503.687 542.202
2028 0 20.0489 9.37709 188 54.6064 503.404 542.133
2029 0 20.1007 10.2982 207 53.5459 503.145 543.304
2030 0 17.1457 7.52373 129 56.7287 502.721 543.403
2031 0 18.0294 7.21045 130 57.8923 503.638 542.577
2032 0 19.0695 9.33428 178 55.4214 504.348 543.82
2033 1 0 0 1 55 503 533
2034 1 18.1505 8.8703 161 57.3851 503.944 540.981
2035 0 21.0454 11.1664 235 54.9489 504.243 539.792
2036 0 22.0602 10.29 227 56.022 504.132 540.445
2037 0 20.0143 7.49463 150 58.9467 503.947 541.64
2038 0 21.2478 9.08328 193 57.3316 503.912 542.782
2039 0 21.0415 11.0258 232 56.8922 503.147 540.22
2040 0 24.0644 11.7601 283 55.3004 503.664 539.353
2041 0 22.1226 9.44734 209 57.5694 503.732 542.177
2042 0 25.0582 10.8148 271 56.2362 504.362 538.218
2043 0 24.0255 9.53152 229 58.3231 503.419 538.983
2044 0 24.0284 9.07259 218 58.2385 504.303 538.119
2045 0 25.0259 11.8278 296 55.2399 503.939 538.125
2046 0 23.0663 12.1389 280 56.4321 503.682 538.918
2047 0 24.0741 9.96921 240 57.9208 503.471 537.671
2048 0 25.0665 9.29526 233 58.4592 503.202 540.871
2049 0 28.1723 12.743 359 54.8245 503.914 539.415
2050 0 27.0622 13.1179 355 55.5211 503.084 536.4
2051 0 29.1279 11.1233 324 56.9321 503.948 537.21
2052 0 26.076 9.66407 252 59.0635 503.373 539.897
2053 0 26.0115 8.7269 227 58.9031 503.52 539.806
2054 0 29.0968 10.2073 297 57.8148 502.96 537.33
2055 0 29.1992 10.4113 304 58.648 503.016 536.118
2056 0 31.1921 10.0987 315 57.9936 503.559 537.197
2057 0 32.2464 11.8463 382 56.9084 503.186 536.675
2058 0 32.0346 8.42838 270 58.5444 503.537 538.485
2059 0 33.2143 10.7785 358 57.0223 503.656 537.883
2060 0 34.0434 11.0447 376 59.2473 503.838 535.056
2061 0 36.2775 10.9985 399 58.2932 503.023 536.033
2062 0 38.144 11.8498 452 57.8385 503.248 536.102
2063 0 35.0367 9.81827 344 61.1512 503.366 536.419
2064 0 36.3685 12.2084 444 58.7297 502.793 534.606
2065 0 37.0224 10.5882 392 61.5051 503.778 533.837
2066 0 40.115 12.5389 503 57.7038 503.7 536.755
2067 0 38.2936 10.6806 409 60.9242 503.095 531.951
2068 0 40.1047 12.0185 482 59.7573 502.438 530.691
2069 0 41.0538 13.2509 544 58.3989 503.206 531.482
2070 0 40.2416 10.934 440 61.3409 502.927 530.932
2071 0 42.0421 11.0366 464 61.2888 502.332 529.981
2072 0 42.0972 10.8796 458 61.5284 502.817 530.491
2073 0 44.0639 11.5741 510 60.798 502.792 529.931
2074 0 45.1419 11.342 512 61.5762 503.08 528.814
2075 0 45.1521 11.273 509 61.613 502.642 528.843
2076 0 46.1116 10.9083 503 61.2843 502.934 529.672
2077 0 47.0616 12.7917 602 59.6329 502.467 529.92
2078 0 49.3171 13.2814 655 58.4275 503.169 528.366
2079 0 48.0683 12.3366 593 60.9309 502.499 524.351
2080 0 50.1184 11.4329 573 61.3962 503.353 527.977
2081 0 51.1876 11.3504 581 61.821 503.761 528.382
2082 0 50.169 10.9231 548 62.8777 503.746 526.038
2083 0 53.2992 12.4017 661 61.1634 502.752 523.272
2084 0 54.2795 10.6854 580 62.7914 503.122 524.097
2085 0 52.342 12.0744 632 61.0839 502.32 523.559
2086 0 53.2582 11.0218 587 62.4463 502.743 522.785
2087 0 55.1629 12.6172 696 60.4641 502.759 522.764
2088 0 56.2308 10.7592 605 63.6446 502.069 520.056
2089 0 56.2975 12.5228 705 63.3773 503.204 520.367
2090 0 56.2362 11.6117 653 64.6325 503.251 522.844
2091 0 58.7272 11.3576 667 65.3073 502.793 519.858
2092 0 59.323 11.5301 684 65.655 503.085 521.004
2093 0 61.2203 11.5158 705 65.9801 503.2 520.513
2094 0 61.1888 12.9435 792 64.8169 502.566 519.942
2095 0 62.3235 11.7933 735 65.7497 503.287 522.257
2096 0 64.2256 11.8489 761 65.8252 503.317 520.298
2097 0 64.376 11.8212 761 66.1419 502.644 519.82
2098 0 63.3456 11.903 754 69.0769 502.187 515.891
2099 0 65.3794 11.8692 776 69.4317 502.753 520.446
2100 0 65.1979 13.0986 854 69.178 502.039 516.998
2101 0 63.4212 11.1319 706 72.9263 502.83 519.031
2102 0 65.4312 12.2572 802 71.207 502.586 520.764
2103 0 63.443 9.78832 621 75.9066 503.018 520.055
2104 0 67.8002 13.171 893 74.299 502.778 520.441
2105 0 70.377 13.996 985 78.2711 502.923 522.415
2106 1 46.695 9.01595 421 97.81 502.152 527.055
2107 0 45.1692 9.29838 420 94.8143 503.821 527.06
2108 0 50.0375 10.612 531 88.3503 503.821 525.354
2109 1 83.1785 13.5732 1129 81.6271 502.9 509.919
2110 0 86.3215 13.5076 1166 77.3945 502.894 510.509
2111 0 85.4375 15.2977 1307 75.6113 502.004 510.614
2112 0 82.3424 12.7638 1051 81.4662 501.917 511.337
2113 0 84.3726 16.0123 1351 76.832 502.464 510.791
