time division length width area intensity CMx CMy
0 0 64.1097 12.8998 827 67.2854 968.478 438.827
1 1 33.0532 11.1033 367 70.2071 967.183 452.49
2 0 33.0161 11.1158 367 71.0054 967.177 451.896
3 0 36.0489 9.84774 355 71.1915 966.766 452.589
4 0 37.0428 11.0413 409 68.9853 967.2 453.188
5 0 39.0665 12.6451 494 67.4291 966.909 452.01
6 0 38.0166 11.1004 422 71.0308 967.133 452.227
7 0 40.0402 14.3106 573 65.4188 966.396 454.391
8 0 42.0286 12.8246 539 68.0816 966.716 452.866
9 0 41.0481 12.7412 523 68.8891 966.646 454.048
10 0 43.0581 13.2379 570 67.6509 966.293 454.082
11 0 44.0159 12.6318 556 68.9173 966.138 455.205
12 0 45.0278 13.9913 630 67.3524 966.633 454.527
13 0 47.0519 12.7094 598 68.4933 966.821 454.289
14 0 47.0568 12.538 590 68.3898 966.41 456.224
15 0 49.1258 13.7606 676 67.8121 966.749 453.586
16 0 50.0289 13.2124 661 68.4024 966.094 453.437
17 0 53.0608 13.1924 700 66.7114 965.846 456.564
18 0 52.1188 13.239 690 68.0768 965.875 453.888
19 0 55.0265 13.23 728 68.125 965.728 453.541
20 0 55.1226 13.3158 734 68.5272 966.542 452.444
21 0 56.0389 11.8846 666 70.1111 966.389 453.023
22 0 57.033 12.5366 715 69.2811 965.94 452.729
23 0 60.0607 13.5197 812 67.3473 965.66 452.49
24 0 62.023 14.5107 900 65.6544 965.733 453.147
25 0 64.0256 13.7757 882 66.6769 966.016 451.948
26 0 66.1293 13.398 886 67.5903 966.15 451.05
27 0 68.1242 14.1506 964 66.111 966.023 452.839
28 0 68.0553 12.9747 883 68.9773 966.031 449.904
29 0 71.0866 13.8001 981 67.4495 965.966 451.312
30 0 76.1372 12.136 924 68.5455 966.585 455.53
31 0 78.169 14.3023 1118 66.0394 966.785 456.035
32 0 79.1251 13.9273 1102 67.1588 965.858 455.079
33 0 79.1251 13.8515 1096 145.141 965.873 455.05
34 1 40.0238 11.5181 461 68.0499 966.952 481.043
35 0 41.043 13.4006 550 67.7545 967.415 480.087
36 0 43.0656 12.4694 537 67.9479 967.277 484.676
37 0 44.0539 11.8264 521 67.8388 967.071 491.234
38 0 44.043 12.1472 535 68.3514 967.895 492.776
39 0 49.0269 13.9311 683 63.7511 967.473 498.328
40 0 50.0551 12.3464 618 65.9094 967.519 501.337
41 0 49.0823 13.3042 653 65.5926 967.349 503.654
42 0 51.0701 12.571 642 66.0031 967.598 507.333
43 0 53.035 12.6143 669 65.9208 967.574 508.286
44 0 55.0515 13.2421 729 65.583 967.816 506.683
45 0 56.0869 13.6039 763 65.0275 967.938 507.988
46 0 53.0623 11.9482 634 68.9006 967.658 506.178
47 0 60.121 13.0071 782 67.0588 967.339 505.004
48 0 60.0299 13.5099 811 67.0666 967.529 504.763
49 0 63.0529 14.7178 928 65.3987 967.529 503.274
50 0 65.0562 12.8965 839 68.3039 967.21 503.197
51 0 67.0486 13.9749 937 68.1878 967.832 500.496
52 0 70.0819 14.4973 1016 66.3858 967.996 503.636
53 0 70.0959 11.9408 837 71.6105 968.436 499.898
54 0 73.1062 14.2806 1044 69.5086 968.49 496.309
55 0 75.0792 13.8254 1038 69.8362 968.412 497.435
56 0 78.1645 15.0068 1173 68.5243 968.637 496.241
57 1 42.0617 12.2915 517 70.7737 968.306 512.482
58 0 42.0196 11.3995 479 71.5971 968.43 513.342
59 0 45.0911 14.2378 642 69.5514 968.266 508.732
60 0 46.0332 11.861 546 71.5733 968.789 511.943
61 0 47.0539 13.5802 639 69.723 968.468 511.016
62 0 46.0366 11.4474 527 73.2694 968.074 511.175
63 0 48.0851 11.854 570 72.7386 968.421 510.056
64 0 49.0624 11.5363 566 73.4841 968.468 510.035
65 0 51.053 13.0453 666 72.1862 968.514 507.315
66 0 52.0659 13.867 722 71.8878 967.546 506.09
67 0 52.0209 12.3989 645 73.1984 968.352 507.555
68 0 54.0385 12.0099 649 73.8783 967.817 506.804
69 0 56.0714 10.7006 600 76 967.962 506.682
70 0 60.1015 13.2609 797 72.7691 967.797 503.152
71 0 61.0647 12.2493 748 74.1404 967.575 504.671
72 0 60.0613 11.5216 692 75.159 968.383 504.699
73 0 60.0238 11.6954 702 75.8632 967.972 503.104
74 0 62.1024 11.4971 714 74.3389 967.654 505
75 0 70.0976 12.397 869 74.7963 968.049 500.54
76 0 73.0735 12.8911 942 75.0329 968.345 498.524
77 0 73.1007 12.4349 909 76.0528 967.825 498.693
78 0 82.0584 12.4911 1025 74.8839 967.763 497.455
79 0 81.1116 10.5534 856 78.6355 967.282 498.146
80 0 83.0741 12.0976 1005 76.405 967.152 498.325
81 0 83.1689 13.0938 1089 76.4628 968.076 495.379
82 0 85.0832 12.1528 1034 77.6209 968.28 494.887
83 0 87.0908 12.3894 1079 78.1177 968.132 491.284
84 0 89.0974 12.7164 1133 77.3645 967.981 493.266
85 1 176.193 14.4273 2542 78.4634 968.198 452.921
86 0 181.141 15.6011 2826 77.3871 967.941 452.23
87 1 139.094 13.3363 1855 80.593 968.579 467.014
88 0 142.172 13.6454 1940 79.6015 968.187 468.491
89 0 147.149 13.347 1964 80.8096 968.58 462.206
90 0 150.098 13.4446 2018 80.7696 968.023 461.166
91 0 155.234 13.8436 2149 80.926 968.13 459.539
92 0 161.144 14.273 2300 80.2852 968.343 457.24
93 0 166.185 13.4187 2230 81.5413 968.178 453.783
94 0 171.24 13.9628 2391 80.9548 968.873 452.049
95 0 175.086 13.5077 2365 81.2161 968.478 453.312
96 0 181.25 13.0648 2368 82.2373 968.562 447.973
97 0 186.104 13.7611 2561 81.9844 968.348 442.754
98 0 191.225 12.2996 2352 83.8899 968.914 446.168
99 0 198.225 14.4684 2868 81.0349 968.617 440.551
100 0 203.309 13.7033 2786 83.4609 968.59 436.22
101 0 206.372 13.0735 2698 85.2546 968.738 434.374
102 0 212.267 13.582 2883 84.2733 968.59 433.777
103 0 217.16 13.0457 2833 86.4543 968.398 429.209
104 0 222.288 12.7942 2844 88.0946 968.412 420.814
105 0 227.176 12.1448 2759 88.6897 968.469 422.235
106 0 236.262 12.3718 2923 87.6736 968.287 418.379
107 0 243.302 13.6209 3314 87.2028 968.435 412.924
108 0 250.408 13.506 3382 87.0923 968.576 409.989
109 0 256.358 13.1496 3371 87.6867 968.408 408.217
110 0 264.371 12.3614 3268 88.9293 968.851 405.869
111 0 271.299 12.6023 3419 88.365 968.868 403.747
112 1 233.253 11.644 2716 87.5718 968.581 424.032
113 0 239.253 13.7177 3282 85.8924 968.888 416.789
114 0 248.232 11.8115 2932 87.0508 968.127 417.657
115 0 258.254 12.6465 3266 85.7569 968.827 413.061
116 0 266.354 12.4046 3304 86.7912 968.968 405.82
117 0 271.38 11.4858 3117 88.0452 968.44 408.215
118 1 283.325 11.898 3371 88.4287 968.474 397.664
119 1 178.155 12.5228 2231 84.6593 968.956 446.196
120 0 183.291 12.5211 2295 84.2444 968.722 445.436
121 0 190.29 14.1311 2689 82.0669 968.752 438.536
122 0 197.201 14.1784 2796 82.6323 968.002 435.975
123 1 207.228 10.7708 2232 85.9615 968.671 447.816
124 0 207.246 13.689 2837 84.6038 968.614 433.197
125 0 214.363 13.6451 2925 84.2263 968.131 433.014
126 0 222.357 13.0646 2905 86.2358 967.94 424.772
127 0 226.148 12.2972 2781 87.6239 968.072 425.127
128 0 236.463 14.0614 3325 85.3386 968.43 419.897
129 1 202.216 14.2274 2877 84.5749 968.03 434.656
130 0 205.273 14.7852 3035 84.3357 968.134 434.09
131 0 211.21 14.3743 3036 85.448 968.185 431.213
132 0 218.158 13.7515 3000 87.1243 968.475 423.604
133 0 225.33 13.2694 2990 86.3826 968.096 430.3
134 0 231.299 13.4285 3106 87.7382 967.882 415.234
135 0 237.382 12.8148 3042 88.906 968.672 413.46
136 1 146.117 11.7783 1721 85.5747 968.518 463.658
137 0 153.15 12.6935 1944 84.3688 968.125 458.737
138 0 158.261 13.2945 2104 83.4544 968.403 455.14
139 0 165.131 12.7293 2102 83.4034 968.711 456.494
140 0 167.215 11.847 1981 85.3927 968.385 453.919
141 0 174.186 12.0446 2098 84.9395 969.034 450.027
142 0 181.18 12.3192 2232 85.1362 968.874 444.598
143 0 187.192 13.0988 2452 84.2043 968.139 436.038
144 0 195.169 12.543 2448 83.4759 968.599 440.017
145 0 200.23 11.3769 2278 86.2024 968.136 434.401
146 1 63.0629 10.0217 632 79.4573 968.472 496.726
147 0 67.0895 11.8797 797 75.1167 967.95 498.398
148 0 70.0529 11.8625 831 75.6775 968.16 496.118
149 0 72.0623 10.8517 782 77.1394 968.237 496.012
150 1 35.0313 9.84833 345 76.6116 968.571 510.499
151 0 37.044 10.9599 406 74.101 968.291 509.355
152 0 41.0607 11.3004 464 73.7543 967.696 509.502
153 0 42.0514 10.6298 447 74.6197 968.058 508.83
154 0 42.0563 11.0804 466 75.2575 967.845 507.491
155 0 44.0444 10.444 460 75.1478 967.828 509.154
156 0 46.1116 11.689 539 73.7477 968.061 507.197
157 0 48.0272 11.5351 554 73.6516 967.821 505.67
158 0 51.0813 11.4523 585 72.7778 968.388 505.26
159 0 51.0567 12.4371 635 71.8063 967.942 505.11
160 0 53.0634 11.6841 620 72.4387 968.242 503.54
161 0 55.1035 11.4875 633 73.3444 967.886 501.507
162 0 55.0344 10.7387 591 74.0254 967.898 501.014
163 0 57.1514 10.8134 618 74.0129 967.752 499.277
164 0 60.0294 11.461 688 72.6424 967.991 498.647
165 0 64.0692 12.0807 774 71.5039 968.124 496.535
166 0 65.1224 12.0696 786 71.3639 968.38 494.247
167 0 68.0528 12.6813 863 70.168 967.978 496.629
168 0 69.0598 12.2792 848 71.8373 968.195 493.63
169 0 72.0858 12.5406 904 71.2301 968.446 491.591
170 0 73.0973 12.2166 893 72.1904 968.845 490.515
171 0 77.1178 11.8909 917 71.5987 968.665 489.249
172 0 79.1348 11.4109 903 72.7076 968.341 489.272
173 0 83.1096 12.0925 1005 72.0756 967.886 486.112
174 1 41.052 10.9373 449 70.7506 968.151 506.134
175 0 42.0674 12.266 516 68.1822 968.041 507.705
176 0 46.0355 11.426 526 68.8783 967.644 506.707
177 0 45.1501 10.742 485 70.9567 968.499 506.903
178 0 48.0238 12.4105 596 67.8389 968.636 506.102
179 0 49.0165 9.99664 490 71.2082 968.229 505.188
180 0 51.0419 9.40403 480 72.1625 968.371 505.54
181 0 54.0856 12.4802 675 66.9793 967.499 504.243
182 0 52.0525 11.7766 613 68.9592 967.057 502.039
183 0 53.0605 11.8921 631 69.374 966.48 501.805
184 0 57.0361 12.3255 703 67.6743 966.302 501.845
185 0 59.038 13.3473 788 66 966.382 500.841
186 0 61.0411 12.3196 752 67.4628 966.233 500.09
187 0 62.0407 11.8793 737 67.8874 966.564 499.708
188 0 65.0119 11.8747 772 67.8329 966.15 497.466
189 0 65.1541 11.3577 740 68.6473 965.246 497.869
190 0 70.1117 14.8192 1039 63.4889 965.149 496.009
191 0 71.0804 12.7602 907 66.129 964.92 496.266
192 0 72.0728 12.2376 882 67.5884 964.226 493.166
193 0 76.1144 12.6783 965 66.6798 964.794 493.064
194 0 78.0483 11.6338 908 68.1333 964.928 491.985
195 0 78.0937 11.2685 880 69.2841 964.709 490.955
196 0 82.1387 12.1015 994 67.7475 964.901 489.574
197 0 85.1113 11.3733 968 68.7738 965.025 489.65
198 0 90.0464 12.3603 1113 67.1339 964.52 487.677
199 1 45.1162 10.1072 456 65.5461 963.601 511.384
200 0 46.0093 9.54155 439 66.344 963.872 511.677
201 0 48.063 12.6917 610 62.4033 964.239 511.177
202 0 48.0276 9.57783 460 66.8022 963.511 509.304
203 0 51.0871 10.1983 521 65.7006 963.61 508.923
204 0 52.0531 10.4317 543 65.1492 963.413 509.064
205 0 54.0747 11.4101 617 63.8185 963.757 506.627
206 0 56.0967 11.4089 640 63.2469 963.617 508.08
207 0 58.1111 10.7036 622 64.1865 963.751 505.333
208 0 61.0383 11.1897 683 62.8272 963.751 506.338
209 0 62.0291 11.0593 686 63.0233 963.778 507.494
210 0 64.0474 11.4603 734 62.4973 962.916 504.977
211 0 67.065 12.9278 867 60.4198 962.716 502.706
212 0 68.0596 12.7388 867 61.0127 962.646 502.467
213 0 68.1194 10.9954 749 63.3885 962.806 499.239
214 0 72.0744 10.2255 737 63.6703 962.51 501.896
215 0 74.0233 10.902 807 63.2454 962.017 499.33
216 1 39.1157 8.87111 347 62.0029 962.7 517.859
217 0 39.0544 7.01586 274 64.3066 962.555 517.715
218 0 40.0573 9.61124 385 61.5532 962.683 516.826
219 0 40.0536 10.436 418 61.6603 962.239 515.684
220 0 42.0826 10.6695 449 60.0802 962.29 516.563
221 0 41.0863 8.12922 334 64.3772 962.018 514.117
222 0 43.0983 9.21151 397 62.0705 962.186 512.788
223 0 44.067 9.75786 430 62.2465 961.595 511.623
224 0 47.0174 10.5493 496 60.9435 961.458 509.51
225 0 48.0468 10.5106 505 61.3307 961.321 509.939
226 0 51.0464 10.3631 529 61.0926 961.359 510.433
227 0 49.0249 9.3422 458 63.2424 961.376 509.461
228 0 54.1715 10.8175 586 61.2952 962.027 507.036
229 0 55.0577 11.1883 616 61.1851 961.916 503.813
230 0 57.1438 10.5698 604 61.5927 961.579 504.932
231 0 59.1174 10.7921 638 61.2022 962.149 505.313
232 0 59.0534 9.83856 581 62.9312 962.16 504.053
233 0 62.1275 11.1384 692 61.3699 962.204 502.087
234 0 64.0923 12.3884 794 60.7267 962.17 498.798
235 0 65.0836 11.4161 743 61.6797 962.902 501.44
236 0 68.1224 10.7747 734 62.7561 962.35 498.17
237 0 70.0904 11.0857 777 61.5933 962.36 499.386
238 0 73.1725 10.7554 787 62.136 962.375 495.991
239 0 73.1114 9.75224 713 64.1262 962.076 494.46
240 0 76.0863 10.1464 772 63.5777 962.817 493.176
241 1 39.0519 8.16862 319 62.8088 963.122 510.843
242 0 42.0764 9.57781 403 61.268 962.779 508.685
243 0 41.0446 10.9637 450 60.3467 962.7 507.904
244 0 43.0253 11.4119 491 58.7149 962.951 510.857
245 0 44.0072 10.7255 472 60.3072 963.131 509.434
246 0 47.0862 11.4046 537 60.0372 963.957 508.153
247 0 44.0321 9.15242 403 63.9007 963.457 508.474
248 0 49.0228 10.7093 525 59.4076 963.09 511.044
249 0 50.0222 10.8152 541 60.5065 963.362 507.277
250 0 51.0954 8.16121 417 62.988 963.439 509.7
251 0 53.0321 10.8048 573 60.1518 962.949 506.71
252 0 51.0809 9.16194 468 63.6368 963.132 506.882
253 0 56.0114 10.6585 597 61.0017 963.524 505.178
254 0 59.0303 11.2823 666 59.3709 963.285 507.035
255 0 60.1634 12.732 766 58.3107 963.633 506.428
256 0 62.0953 12.4486 773 58.6947 963.895 504.229
257 0 62.0646 13.7115 851 57.4571 963.636 500.564
258 0 64.0432 12.0544 772 59.1386 963.834 502.655
259 0 65.1378 11.0381 719 60.5981 963.832 500.757
260 0 70.1239 11.0376 774 60.0853 964.291 501.448
261 0 69.0302 9.95217 687 62.3668 963.865 500.364
262 0 71.1498 10.6395 757 60.3593 964.015 499.892
263 0 75.1406 9.6885 728 61.1085 964.018 499.603
264 0 78.0447 11.3781 888 59.3716 963.822 496.667
265 0 79.0415 11.222 887 59.8286 963.443 496.216
266 0 81.0833 11.3587 921 60.3149 963.273 493.636
267 1 41.0268 10.0178 411 59.5937 962.745 514.389
268 0 42.0586 9.22522 388 60.7655 962.392 512.668
269 0 42.045 10.8455 456 59.3596 963.004 515.285
270 0 45.1236 10.1499 458 59.8231 963.138 514.347
271 0 45.0246 9.21718 415 60.9349 963.014 513.655
272 0 47.0942 8.91829 420 61.6976 963.183 509.967
273 0 49.0593 12.332 605 57.5174 962.393 512.119
274 0 52.0802 12.9224 673 55.9435 962.235 512.67
275 0 53.0612 11.515 611 58.7169 961.939 509.93
276 0 54.0259 12.9197 698 56.7221 962.054 510.602
277 0 55.0558 10.2442 564 59.3652 962.387 512.395
278 0 57.1146 12.0284 687 58.2751 961.875 506.198
279 0 58.0931 10.0528 584 60.6729 962.298 506.58
280 0 60.0676 10.6047 637 59.5086 962.063 505.739
281 0 62.0889 12.9008 801 57.3121 962.01 503.635
282 0 65.0694 11.7874 767 58.1004 962.244 505.975
283 0 67.0706 13.6125 913 56.6396 962.453 503.732
284 0 68.0487 12.4911 850 58.2165 962.055 501.759
285 0 69.1033 8.71159 602 61.9585 961.688 502.563
286 0 73.0978 12.025 879 58.4642 961.823 502.056
287 0 78.0752 13.154 1027 57.0224 962.071 502.38
288 0 79.0657 11.8635 938 59.3198 961.711 496.388
289 0 80.1202 11.7199 939 59.557 962.014 497.406
290 1 39.0213 8.27754 323 61.1084 961.161 514.359
291 0 41.0495 10.6457 437 57.4966 960.803 517.602
292 0 44.0831 10.2534 452 57.6327 960.9 517.646
293 0 47.0861 9.25964 436 59.5872 961.31 514.867
294 0 45.0466 9.90087 446 59.9955 961.379 514.018
295 0 48.0663 10.2151 491 59.3809 961.725 513
296 0 52.1457 10.9501 571 57.2329 961.849 514.002
297 0 51.0456 11.813 603 57.806 962.237 511.439
298 0 52.0709 11.542 601 58.4759 961.847 509.819
299 0 53.1055 11.4112 606 59.3432 962.03 507.889
300 0 54.0723 9.61675 520 61.0269 961.446 509.742
301 0 58.0999 11.4114 663 59.0694 960.958 505.59
302 0 59.0449 10.4835 619 60.2795 960.759 505.59
303 0 60.0506 11.407 685 59.2628 961.308 505.784
304 0 62.0732 11.712 727 59.5309 961.425 503.334
305 0 63.0486 10.0716 635 60.5827 961.31 506.62
306 0 66.1194 11.5549 764 58.9634 961.461 504.271
307 0 66.0556 10.4155 688 61.0218 961.057 501.451
308 0 69.061 12.7713 882 58.271 961.388 500.748
309 0 71.0667 12.1998 867 59.5179 961.243 498.313
310 0 75.0984 11.2785 847 60.1535 960.386 498.538
311 0 77.155 11.2112 865 59.8058 960.624 498.46
312 0 77.1899 10.7657 831 61.6799 960.289 493.532
313 1 39.0822 10.2604 401 58.2718 959.81 515.875
314 0 38.0665 9.43088 359 59.2089 959.908 516.524
315 0 45.1046 9.86596 445 58.2472 959.672 514.236
316 0 42.0516 9.7737 411 59.4428 960.898 512.929
317 0 44.0628 11.0524 487 58.2526 960.183 511.713
318 0 46.1277 9.95064 459 58.8889 960.078 513.405
319 0 48.0472 11.5303 554 57.704 960.726 510.966
320 0 48.031 9.76453 469 59.9574 960.951 514.166
321 0 50.0605 11.6259 582 57.3179 960.656 512.175
322 0 51.0459 11.7345 599 57.99 960.928 508.451
323 0 52.0711 11.3115 589 58.7284 961.484 507.168
324 0 54.0787 11.2983 611 58.365 962.041 507.678
325 0 55.0386 11.9734 659 57.519 961.416 506.537
326 0 59.0734 12.2898 726 57.2893 962.07 504.054
327 0 59.2036 12.9384 766 57.4765 962.116 502.623
328 0 61.0573 12.1034 739 57.0582 962.471 507.897
329 0 61.0262 10.4709 639 59.7872 961.172 505.171
330 0 65.0441 10.6082 690 59.942 961.007 501.786
331 0 66.1205 11.6454 770 58.3234 961.153 501.195
332 0 68.2365 10.8153 738 59.458 961.413 501.569
333 0 73.1013 12.0928 884 57.1335 961.363 500.923
334 0 72.0756 10.711 772 59.8109 961.271 495.093
335 0 76.177 12.8779 981 57.2375 962.261 495.318
336 0 77.1153 11.3337 874 59.0984 961.588 492.517
337 1 42.0173 9.80549 412 58.5388 961.454 511.539
338 0 42.139 9.23135 389 56.4704 961.378 515.298
339 0 44.0955 9.18461 405 57.4691 961.114 512.43
340 0 46.0173 10.4526 481 55.9459 961.243 513.522
341 0 45.0675 9.49686 428 57.9322 960.755 511.203
342 0 49.0952 12.0378 591 55.0626 961.298 509.809
343 0 50.0614 10.1276 507 58.6588 961.047 507.955
344 0 50.0354 10.3527 518 58.3378 961.643 505.921
345 0 50.0745 11.1035 556 57.7968 961.84 504.854
346 0 51.0559 9.71485 496 59.4395 961.438 504.615
347 0 56.0698 11.8424 664 56.622 961.855 503.426
348 0 57.1345 11.3767 650 56.8554 961.635 502.475
349 0 59.0424 10.1452 599 57.7613 960.736 502.978
350 0 58.0875 9.55455 555 58.6991 961.076 501.067
351 0 61.0591 10.8747 664 56.8193 961.021 501.498
352 0 64.1079 11.4339 733 56.1501 961.094 498.371
353 0 65.1165 10.4582 681 57.3363 961.176 500.181
354 0 69.1351 10.9351 756 56.7275 961.026 496.876
355 0 71.1842 10.522 749 56.9199 961.809 495.899
356 0 71.0342 8.5311 606 59.1469 961.81 495.731
357 0 74.0796 10.9612 812 57.5345 961.298 492.65
358 1 37.0464 9.8255 364 55.0852 961.725 512.302
359 0 36.0725 7.65126 276 56.442 961.688 515.899
360 0 37.0594 8.31098 308 56.6526 961.76 514.266
361 0 39.0319 8.32652 325 56.6954 961.529 512.689
362 0 41.0398 9.11311 374 57.2888 961.495 512.267
363 0 41.143 8.65275 356 58.1994 961.683 512.803
364 0 43.0599 9.82352 423 57.1442 961.191 508.333
365 0 46.2576 9.18768 425 57.6094 961.661 508.953
366 0 47.2924 10.1285 479 57.6848 961.355 506.129
367 0 48.0947 9.19019 442 59.1765 960.842 505.292
368 0 48.2509 9.2848 448 59.2031 961.489 505.757
369 0 50.039 10.232 512 58.2949 961.203 501.828
370 0 52.1911 9.23529 482 59.1037 961.317 501.409
371 0 54.1142 10.0159 542 58.6882 961.904 502.887
372 0 55.0729 7.55362 416 60.8149 961.337 498.284
373 0 57.0899 7.70714 440 61.1886 961.927 501.907
374 0 56.1891 8.91632 501 60.0719 961.509 500.715
375 0 60.1314 11.3751 684 58.0599 961.925 499.164
376 0 61.1525 8.3071 508 60.9016 962.041 500.571
377 0 64.1499 8.16836 524 61.208 961.382 497.763
378 0 61.1753 8.38573 513 61.9532 961.485 497.337
379 0 68.0302 8.46683 576 61.2535 961.408 492.832
380 0 71.1511 8.37654 596 61.3221 961.513 496.122
381 0 75.0919 10.8401 814 59 960.77 493.611
382 1 38.034 7.7825 296 59.6182 961.922 513.723
383 0 39.0444 7.63234 298 60.302 962.218 511.342
384 0 41.0629 11.6894 480 56.9896 961.856 512.619
385 0 43.0691 10.2161 440 58.1864 962.064 511.582
386 0 45.1183 10.5279 475 57.7011 961.979 511.175
387 0 46.0563 10.5957 488 58.248 962.219 508.598
388 0 44.0719 9.52987 420 61.6762 961.888 507.498
389 0 48.1004 10.7691 518 59.9421 961.94 510.174
390 0 49.152 11.5356 567 59.0335 961.439 507.268
391 0 52.0993 10.7487 560 59.5732 961.457 508.423
392 0 55.097 10.2546 565 60.7434 961.926 505.212
393 0 55.0821 11.9458 658 58.8328 961.207 505.4
394 0 59.1539 11.6814 691 58.7106 961.23 506.359
395 0 58.0935 10.5003 610 60.3475 961.418 507.649
396 0 61.1689 10.8552 664 60.6446 961.279 505.03
397 0 63.0987 10.5707 667 61.1499 961.735 502.666
398 0 65.1421 11.0067 717 60.8522 962.063 502.206
399 0 67.1501 9.99254 671 61.9985 961.556 502.703
400 1 34.1039 10.2334 349 59.6189 961.381 517.089
401 0 36.1066 9.05652 327 60.1101 961.388 519.046
402 0 38.1481 9.54175 364 60.5879 961.676 517.247
403 0 39.0157 11.3031 441 60.0136 961.948 515.916
404 0 38.0486 9.593 365 61.3973 961.537 516.655
405 0 41.0506 12.3506 507 59.0355 961.846 515.17
406 0 42.0768 10.1719 428 61.1285 961.843 515.388
407 0 43.0232 10.3665 446 60.3632 961.971 513.482
408 0 44.0596 10.3723 457 61.6346 961.425 513.473
409 0 45.1135 10.9502 494 61.1619 961.279 512.925
410 0 48.0563 10.4045 500 61.056 960.734 513.72
411 0 50.049 11.8884 595 59.5294 960.934 513.166
412 0 51.0964 11.312 578 60.5588 961.116 511.424
413 0 51.113 11.4844 587 60.6354 960.974 510.499
414 0 55.1088 11.8493 653 58.7519 961.184 512.861
415 0 54.0974 11.0172 596 60.9497 961.297 508.767
416 0 56.1087 11.0856 622 60.5145 961.36 510.098
417 0 59.0399 11.2974 667 59.5652 961.607 508.877
418 0 60.1513 11.1884 673 60.3492 961.554 507.212
419 0 61.0658 9.17043 560 62.2696 961.188 508.195
420 0 65.0878 11.2003 729 60.4952 960.87 505.266
421 0 66.1682 11.1232 736 60.8981 960.681 504.798
422 0 70.2372 12.2015 857 58.6371 960.475 506.347
423 0 71.1533 12.0163 855 59.7404 960.743 503.101
424 0 73.0925 12.3405 902 59.3359 961 503.657
425 1 38.2581 10.1417 388 60.1108 961.129 518.41
426 0 40.0438 10.7382 430 60.207 961.102 517.958
427 0 39.0185 9.66209 377 62.8992 961.244 516.186
428 0 40.055 11.1596 447 61.6644 961.391 515.454
429 0 43.0393 10.2929 443 62.2935 961.181 513.984
430 0 43.0614 11.4256 492 60.9146 960.947 514.254
431 0 43.0404 11.1523 480 61.8875 960.906 514.408
432 0 48.0479 12.1545 584 60.024 961.425 514.079
433 0 49.0503 11.6003 569 60.9842 961.053 512.949
434 0 48.0525 10.7175 515 63.1495 962.243 513.217
435 0 50.0372 11.2716 564 62.8103 961.525 510.778
436 0 54.0721 14.2033 768 58.7409 961.266 510.202
437 0 55.1008 12.3592 681 61.2379 961.498 511.179
438 0 57.1692 12.2793 702 61.6624 961.107 509.021
439 0 59.0591 11.9541 706 61.8824 960.959 507.901
440 0 58.0385 11.992 696 63.0862 961.224 507.652
441 0 61.089 12.9483 791 61.0822 960.862 508.075
442 0 61.0464 11.5158 703 63.8777 961.519 506.092
443 0 65.0533 12.5589 817 62.0233 961.225 505.226
444 0 64.0888 12.4359 797 62.9398 960.888 504.245
445 0 66.0809 11.0622 731 64.357 961.384 504.778
446 0 71.0853 12.8719 915 62.0098 961.301 501.56
447 0 72.1002 12.4549 898 63.0267 960.493 500.154
448 0 74.0832 12.1485 900 63.7533 961.256 500.106
449 0 76.1139 12.2974 936 63.3729 961.072 498.168
450 0 79.0787 11.8237 935 64.0128 961.359 497.794
451 0 81.0603 12.904 1046 63.6061 961.104 493.911
452 1 42.1064 12.4209 523 61.4474 961.023 515.583
453 0 42.032 10.2065 429 64.1725 961.538 516.403
454 0 45.0378 11.5459 520 62.8923 961.635 513.667
455 0 47.0486 11.3712 535 62.9477 961.041 513.045
456 0 46.1356 12.0081 554 63.0325 961.027 510.484
457 0 50.0349 12.911 646 60.9536 961.517 513.006
458 0 49.0453 10.7452 527 64.1613 961.047 509.77
459 0 49.1761 10.3506 509 65.6405 961.752 507.841
460 0 52.0342 10.4931 546 65.0092 961.52 509.507
461 0 54.0274 11.2721 609 64.0066 961.78 508.059
462 0 58.1415 13.5875 790 60.5051 961.203 508.528
463 0 57.0284 11.7836 672 63.3304 961.073 506.045
464 0 60.0516 12.8889 774 61.5904 961.222 506.317
465 0 59.1767 10.9841 650 63.7754 961.158 506.318
466 0 61.0333 11.7968 720 63.4653 961.688 503.019
467 0 64.03 11.7445 752 63.3497 961.629 503.787
468 0 69.1657 13.6484 944 60.7362 961.762 501.534
469 0 71.0477 12.8083 910 61.6857 961.396 500.582
470 0 71.1169 12.2896 874 62.9176 961.033 501.228
471 0 74.1303 12.5185 928 62.3384 961.423 497.684
472 0 77.0406 11.2019 863 64.4102 960.7 495.326
473 0 79.1542 12.2167 967 62.9928 961.235 493.793
474 1 40.0435 9.41476 377 62.6472 961.316 515.507
475 0 42.0454 12.7006 534 59.7846 961.112 514.762
476 0 42.033 10.0635 423 63.2553 961.163 513.331
477 0 46.0481 13.4642 620 58.2032 960.906 515.771
478 0 47.0307 11.7583 553 61.4213 961.738 511.383
479 0 48.0702 12.565 604 60.4371 961.361 511.957
480 0 47.1025 11.6554 549 62.0874 961.481 510.158
481 0 48.1397 10.241 493 63.5112 961.355 510.262
482 0 49.045 11.5812 568 62.2835 961.234 508.019
483 0 53.0884 12.5451 666 60.515 961.119 509.075
484 0 56.0492 12.0608 676 60.6538 960.985 506.636
485 0 56.0312 10.1729 570 62.7035 961.358 506.172
486 0 56.1038 10.3736 582 62.9656 961.203 503.162
487 0 60.0301 11.9273 716 61.3254 961.074 502.444
488 0 61.0772 11.9357 729 61.4609 961.453 503.79
489 0 64.1133 11.5577 741 61.5911 961.345 503.752
490 0 65.0349 10.7481 699 63.0358 961.356 501.236
491 0 67.0411 11.8286 793 62.0177 962.055 501.322
492 0 70.0715 11.5882 812 62.4138 961.091 497.344
493 0 74.0933 12.0254 891 61.7845 961.276 498.088
494 0 77.078 12.0657 930 61.4344 961.22 498.538
495 0 79.061 14.9505 1182 58.747 961.157 493.481
496 0 79.1087 10.5677 836 64.073 960.884 494.166
497 1 40.0711 10.0322 402 61.995 961.244 511.95
498 0 42.1628 9.98511 421 62.6508 961.128 511.665
499 0 44.1177 12.2853 542 60.0258 960.732 509.969
500 0 47.0272 9.24997 435 62.8391 961.143 510.407
501 0 49.0477 12.6815 622 58.8794 960.593 512.569
502 0 48.034 11.7209 563 61.1243 960.464 509.101
503 0 48.1608 10.0912 486 63.2119 960.909 508.368
504 0 51.1936 10.4701 536 61.7052 960.364 508.849
505 0 53.0534 11.1586 592 61.6655 960.649 507.049
506 0 54.1057 10.8861 589 61.4533 960.02 506.484
507 0 56.0828 11.804 662 61.2085 959.912 503.705
508 0 60.0627 12.2206 734 60.0109 960.79 504.755
509 0 60.0595 11.7717 707 60.8685 961.149 502.68
510 0 62.1471 12.9853 807 59.3779 961.124 504.133
511 0 65.1062 12.3644 805 60.3615 961.019 502.924
512 0 63.1229 9.33101 589 64.0577 960.431 499.978
513 0 70.0523 12.8333 899 59.3571 960.35 502.986
514 0 70.2048 11.2101 787 61.8475 960.615 500.113
515 0 72.1098 11.7876 850 61.4412 960.021 498.204
516 0 74.089 10.7978 800 62.6425 960.185 497.285
517 0 78.1428 12.0037 938 61.5991 960.505 495.514
518 0 79.1681 12.5682 995 61.2251 960.279 495.719
519 0 83.0961 12.8526 1068 60.5346 960.76 497.154
520 0 84.1397 11.3858 958 62.5021 960.626 494.214
521 1 47.0727 11.7903 555 58.4577 960.357 512.867
522 0 47.0996 8.91728 420 61.9833 960.638 510.507
523 0 48.098 8.56585 412 61.8762 960.49 511.881
524 0 50.155 10.9261 548 60.0693 960.785 509.571
525 0 49.1565 8.84929 435 62.3747 960.492 509.338
526 0 52.1858 10.0794 526 61.0057 960.042 508.848
527 0 55.1625 10.1156 558 60.3029 959.932 509.559
528 0 55.0546 11.4795 632 59.6946 959.475 507.489
529 0 58.1053 10.7563 625 59.584 959.979 509.11
530 0 59.1239 10.3004 609 61.4269 960.094 505.268
531 0 61.0585 10.6128 648 60.8302 960.34 503.974
532 0 64.1158 12.0719 774 59.2196 959.978 503.487
533 0 66.0938 11.8165 781 59.5557 960.041 500.977
534 0 66.1053 9.90843 655 61.7328 960.07 500.154
535 0 69.0427 12.3112 850 59.0106 960.346 501.669
536 0 71.1721 9.45595 673 62.3507 960.227 497.034
537 0 76.0961 12.8259 976 58.4652 960.341 495.1
538 0 77.1208 11.6441 898 60.0535 960.167 493.896
539 0 80.1061 11.4348 916 59.6376 960.091 495.927
540 0 80.0773 9.77805 783 61.9208 959.95 493.031
541 0 84.0675 12.2045 1026 59.2349 959.292 491.948
542 0 85.2009 10.4342 889 61.7042 959.708 487.616
543 0 89.1288 11.2197 1000 60.879 959.559 488.371
544 0 88.0897 7.85563 692 64.7717 960.658 485.149
545 1 48.0339 7.61963 366 60.347 960.344 510.139
546 0 51.0577 10.7525 549 57.1457 960 511.164
547 0 53.1022 8.77553 466 59.2468 960.247 509.094
548 0 54.0477 8.474 458 60.4017 960.09 506.718
549 0 56.099 12.3175 691 56.5557 960.245 505.847
550 0 54.0629 9.32248 504 59.6786 960.244 506.256
551 0 57.0307 10.2226 583 58.7547 959.48 504.333
552 0 57.0222 9.68044 552 59.1522 959.895 504.014
553 0 61.1205 12.0745 738 56.4336 960.543 502.282
554 0 63.1261 11.279 712 57.3469 959.916 500.565
555 0 63.1021 11.2991 713 57.7826 960.098 499.836
556 0 66.0304 11.9793 791 56.732 959.97 500.463
557 0 65.0934 12.2439 797 56.4743 960.139 498.819
558 0 68.1468 10.3893 708 58.2147 960.671 495.866
559 0 72.1888 12.1071 874 56.2334 960.332 497.104
560 0 74.0543 11.0865 821 57.5347 960.778 498.057
561 0 75.0586 12.4303 933 56.329 960.448 494.168
562 0 74.0806 8.12629 602 61.0133 960.726 493.123
563 0 79.0696 8.47355 670 60.6045 959.694 489.858
564 0 82.1017 11.3152 929 57.4123 960.21 494.693
565 0 83.1105 9.92655 825 58.8036 960.686 488.56
566 0 85.0682 11.6025 987 57.9078 960.266 488.681
567 1 44.1231 9.85879 435 57.2621 960.17 509.529
568 0 47.0251 8.80381 414 58.0097 960.21 507.568
569 0 44.0976 7.3927 326 60.2699 960.448 507.923
570 0 49.1403 10.0528 494 56.9474 960.065 508.725
571 0 49.0275 10.2596 503 57.3936 960.368 506.922
572 0 51.1605 9.46041 484 57.7335 959.5 508.219
573 0 51.0904 10.4521 534 57.1742 960.213 507.504
574 0 53.0253 10.0707 534 57.1404 960.403 508.251
575 0 51.0279 7.79965 398 60.0829 960.193 505.065
576 0 54.2033 11.4015 618 56.9693 960.126 505.511
577 0 52.1559 9.91259 517 58.6441 960.954 503.383
578 0 53.172 8.83924 470 58.8957 961.189 506.813
579 0 57.0493 12.0247 686 55.9198 962.717 505.3
580 0 55.0391 9.66585 532 58.6974 962.423 505.806
581 0 54.0246 9.56972 517 59.2592 961.584 504.207
582 0 57.067 8.93686 510 58.3412 962.171 506.751
583 0 57.0685 11.2847 644 57.5 962.087 504.882
584 0 56.0602 9.45413 530 59.6151 961.764 500.03
585 0 57.1019 11.6283 664 57.1732 961.786 503.419
586 0 57.097 10.5084 600 58.4733 961.438 503.13
587 0 57.0759 8.84786 505 59.8733 961.505 503.562
588 0 59.1031 10.7101 633 58.1817 960.782 500.19
589 0 57.0745 6.53532 373 61.8257 960.869 500.657
590 0 60.1568 8.91004 536 59.5299 960.733 500.034
591 0 58.0406 11.3713 660 57.5379 960.447 501.139
592 0 60.0406 11.8586 712 57.2921 960.579 500.358
593 0 60.104 11.946 718 56.8092 960.589 499.918
594 0 62.0292 9.10861 565 58.8708 960.931 498.412
595 0 60.0957 8.85254 532 58.7688 960.391 501.929
596 0 64.0479 8.07209 517 59.1644 960.88 500.321
597 0 62.0335 9.67219 600 57.9133 960.385 499.308
598 0 63.1733 10.7007 676 57.4083 961.222 496.95
599 0 64.0863 6.21037 398 60.3342 960.852 496.003
600 0 65.1273 9.59659 625 57.6256 960.936 496.728
601 0 67.0788 9.15341 614 57.5407 961.402 498.919
602 0 59.0712 7.95651 470 58.7872 960.951 495.294
603 0 61.083 9.086 555 57.4793 960.589 495.077
604 0 66.0806 8.3383 551 57.9546 961.174 490.191
605 0 65.1143 9.32207 607 58.3871 960.911 493.478
606 0 62.1335 7.30685 454 59.4824 961.068 495.606
607 0 58.0579 7.33751 426 59.662 961.385 494.955
608 0 67.0523 9.00789 604 57.053 960.997 497.507
609 0 60.098 10.5494 634 57.2918 961.129 491.598
610 0 59.0602 9.0247 533 59.0056 961.242 492.328
611 0 59.1031 7.83377 463 59.9525 961.583 489.363
612 0 58.0749 11.003 639 57.507 961.894 491.501
613 0 57.0736 9.95207 568 58.8257 960.565 490.151
