time division length width area intensity CMx CMy
0 0 41.033 12.9408 531 61.6855 1044.06 509.32
1 0 42.0511 12.675 533 61.3208 1042.6 509.705
2 0 43.0646 13.8165 595 60.1832 1042.71 508.845
3 0 44.0111 12.9967 572 61.1573 1042.1 509.552
4 0 45.1001 13.0155 587 60.9438 1042.54 509.506
5 0 45.0178 12.6839 571 62.9264 1042.47 507.802
6 0 47.1144 13.8174 651 61.3794 1042.49 507.508
7 0 48.0287 13.4711 647 62.0773 1042.15 508.767
8 0 49.0696 13.328 654 62.0795 1042.37 508.682
9 0 52.0517 13.16 685 62.1343 1042.19 507.861
10 0 53.0874 14.7493 783 59.9387 1041.8 506.457
11 0 54.0792 17.5298 948 56.3713 1041.91 509.138
12 0 56.0597 14.217 797 60.7867 1042.08 505.96
13 0 56.1607 13.6038 764 61.9319 1042.19 504.272
14 0 59.0448 16.8686 996 57.6476 1042.02 504.193
15 0 59.0543 13.8517 818 61.9707 1042.18 503.868
16 0 62.0753 15.6745 973 58.8397 1041.67 504.063
17 0 63.121 14.6227 923 60.8364 1041.25 500.389
18 0 64.026 14.3223 917 61.0131 1041.34 502.788
19 0 65.0306 13.7628 895 62.2291 1041.19 500.999
20 0 70.1029 14.0793 987 60.4802 1042.07 501.963
21 0 72.0399 15.4498 1113 59.5346 1042.09 497.221
22 0 74.0406 14.0328 1039 61.3831 1041.46 498.036
23 0 75.0439 13.7919 1035 61.9604 1041.26 497.792
24 0 77.1213 14.0558 1084 61.7269 1041.23 497.101
25 0 80.155 14.2224 1140 62.0561 1041.57 493.768
26 0 84.1584 13.6291 1147 62.6085 1041.65 493.517
27 0 83.0934 13.3585 1110 64.1279 1041.38 492.333
28 0 87.0789 13.6428 1188 63.835 1041.58 490.39
29 1 43.0506 10.8942 469 65.4733 1041.29 513.013
30 0 45.0899 14.3048 645 62.3752 1041.99 511.623
31 0 46.0558 11.4426 527 66.2391 1042.1 510.998
32 0 48.0642 11.8175 568 65.706 1041.21 510.398
33 0 48.0642 11.8175 568 168.424 1040.21 510.398
34 0 52.0727 11.8488 617 65.4765 1042.36 508.512
35 0 53.0846 14.5805 774 62.947 1042.9 505.419
36 0 54.0709 12.0212 650 65.7908 1042.68 506.886
37 0 58.1028 13.4245 780 63.9462 1042.72 505.663
38 0 59.0926 14.4688 855 62.2994 1043.5 505.984
39 0 60.0466 13.6394 819 63.9255 1042.82 503.238
40 0 64.1078 13.0405 836 63.9785 1043.09 504.163
41 0 64.0348 13.3209 853 64.6612 1042.72 500.381
42 0 67.0587 14.8228 994 62.6298 1043.24 500.665
43 0 66.0534 13.4739 890 64.6809 1043.13 500.11
44 0 71.083 11.5358 820 66.2085 1043.26 500.743
45 0 74.1156 13.8163 1024 63.0244 1043.54 499.737
46 0 75.1128 12.7808 960 64.7521 1043.01 497.847
47 0 77.037 14.3438 1105 62.8118 1042.92 497.251
48 0 78.0946 13.266 1036 64.5685 1043 495.046
49 0 84.1298 13.0394 1097 64.0191 1043.15 494.686
50 0 83.0704 11.8695 986 65.2434 1042.81 495.981
51 0 85.1524 12.4483 1060 66.1189 1043.39 489.181
52 0 89.1544 12.2708 1094 65.2386 1043.51 491.357
53 0 93.0979 11.7403 1093 65.8637 1043.98 490.055
54 1 48.1124 13.1983 635 62.4504 1043.91 509.406
55 0 48.0504 11.3214 544 65.1599 1043.84 508.132
56 0 51.0577 13.8079 705 61.1915 1044.13 508.187
57 0 52.0448 12.1434 632 63.1487 1043.8 508.09
58 0 52.0402 10.8762 566 64.4187 1044.05 506.663
59 0 55.1154 14.8779 820 59.8915 1043.81 505.695
60 0 57.0619 12.2323 698 62.6304 1044.44 505.527
61 0 59.057 11.6836 690 63.2667 1044.11 503.994
62 0 61.0526 12.4155 758 62.3892 1043.7 503.54
63 0 63.0838 11.778 743 63.0875 1043.99 500.725
64 0 66.0344 12.5541 829 62.193 1044.09 500.885
65 0 68.1529 11.4742 782 63.6202 1044.3 498.967
66 0 69.0964 12.0846 835 62.9557 1043.23 500.457
67 0 70.0885 11.8992 834 62.8273 1044 499.68
68 0 74.0806 13.7418 1018 61.5157 1043.26 497.255
69 0 75.0986 11.1454 837 64.1087 1043.53 498.503
70 0 76.0831 12.0132 914 63.023 1043.31 498.941
71 0 79.1612 11.2934 894 65.0336 1043.21 492.791
72 0 82.1513 13.0369 1071 63.3866 1043.98 488.655
73 0 86.1866 12.937 1115 63.1309 1043.62 489.791
74 0 88.2929 13.9082 1228 62.6368 1043.13 486.68
75 0 89.1679 12.897 1150 63.9148 1043.59 486.122
76 1 46.0207 11.4948 529 63.6786 1043.88 506.083
77 0 51.0639 10.5358 538 63.9926 1043.32 507.905
78 0 52.0524 12.6219 657 62.1096 1043.31 506.616
79 0 53.0417 11.1799 593 63.5261 1042.8 508.506
80 0 56.0924 11.9267 669 62.8042 1042.64 506.037
81 0 55.0854 10.5654 582 65.1254 1043.55 506.385
82 0 58.0305 12.4762 724 63.482 1043.88 503
83 0 59.0421 11.2293 663 64.6199 1043.47 503.596
84 0 62.1164 12.219 759 63.6904 1043.47 504.092
85 0 64.0276 12.3384 790 63.3443 1043.63 503.411
86 0 66.0826 11.3192 748 65.1471 1043.22 503.758
87 0 67.0657 11.4962 771 65.9403 1043.91 500.792
88 0 70.0582 11.9044 834 65.4652 1043.56 499.953
89 0 73.0824 11.7128 856 65.0409 1043.92 499.52
90 0 75.1296 12.4585 936 64.6592 1043.47 496.962
91 0 76.0414 11.4017 867 67.5133 1043.54 494.278
92 0 80.0999 9.81274 786 68.9682 1043.68 494.481
93 1 42.0237 10.9224 459 63.719 1043.46 515.538
94 0 41.0418 9.57561 393 66.9033 1043.98 514.412
95 0 42.1539 10.1296 427 66.8806 1043.68 513.424
96 0 43.0169 10.5307 453 67.0618 1043.82 512.031
97 0 45.0293 10.3044 464 68.4203 1043.69 508.899
98 0 49.0956 11.6507 572 66.2098 1044.16 509.407
99 0 49.127 11.6636 573 66.1466 1043.96 509.948
100 0 50.0241 11.4745 574 67.6533 1043.91 508.04
101 0 52.0746 11.0419 575 68.9026 1043.98 506.807
102 0 52.1833 10.9614 572 69.6154 1043.87 505.467
103 0 52.0446 11.5286 600 70.2267 1043.76 502.578
104 0 55.0272 10.3767 571 71.1103 1043.62 504.2
105 0 57.2501 11.703 670 69.3537 1043.75 501.785
106 0 60.0904 11.6325 699 69.1273 1043.53 500.575
107 0 61.0482 11.3189 691 69.9117 1043.74 498.978
108 0 64.036 11.0875 710 69.9859 1043.92 499.182
109 0 65.0998 12.2274 796 68.6394 1043.73 497.661
110 0 68.0364 10.5679 719 70.0612 1044.24 497.544
111 0 70.0724 9.74707 683 71.4422 1044.14 495.469
112 0 69.05 10.8907 752 71.3617 1043.87 492.757
113 1 33.0658 9.88936 327 69.7248 1044.02 511.101
114 0 35.013 9.28226 325 69.9292 1043.36 508.828
115 0 36.0124 9.80218 353 69.5609 1044.08 510.258
116 0 38.0139 9.49653 361 68.9003 1044.22 511.679
117 0 37.1104 9.40437 349 69.9542 1043.58 508.808
118 0 39.076 9.72465 380 69.4921 1043.71 506.826
119 0 43.0252 11.0865 477 66.8952 1044.21 508.44
120 0 43.0558 11.938 514 65.6829 1043.96 506.111
121 0 42.0349 10.182 428 67.9883 1043.82 507.841
122 0 48.1415 12.401 597 64.7471 1043.27 505.503
123 0 45.1028 11.0193 497 68.7586 1043.88 505.354
124 0 48.089 10.7509 517 67.8356 1043.79 506.447
125 0 48.0826 12.2082 587 65.8365 1043.32 505.555
126 0 51.0615 10.3209 527 67.5066 1042.98 506.287
127 0 54.0947 10.9992 595 65.9849 1043.04 504.575
128 0 54.1375 12.3574 669 64.8416 1043.57 502.498
129 0 56.0574 11.4526 642 65.3255 1043.14 501.83
130 0 56.099 10.1606 570 66.5737 1043.25 501.556
131 0 59.0858 11.7625 695 64.6014 1043.3 499.535
132 0 62.0849 10.1957 633 66.1201 1043.65 496.243
133 0 58.0798 9.31477 541 129.194 1044.58 497.353
134 0 64.1747 10.7986 693 64.961 1042.96 496.814
135 0 69.0606 11.251 777 63.6165 1043.88 494.407
136 0 71.0903 12.4068 882 61.737 1043.74 494.465
137 0 73.0619 10.5664 772 63.6282 1043.72 494.008
138 0 75.0903 11.0933 833 62.7575 1044.33 490.205
139 0 79.0978 11.0875 877 62.4344 1044.52 490.885
140 1 39.0343 7.53184 294 62.898 1044.15 512.075
141 0 40.0374 8.06746 323 62.7771 1044.64 509.765
142 0 41.0652 9.35098 384 61.4583 1044.65 505.758
143 0 42.0389 10.1097 425 60.1271 1044.16 506.725
144 0 43.0858 9.07492 391 61.0179 1044.59 506.345
145 0 44.0681 10.2115 450 59.5444 1044.14 505.031
146 0 46.0135 10.736 494 57.9656 1044.53 505.696
147 0 47.052 10.0952 475 59.6653 1043.57 503.747
148 0 48.0668 9.52841 458 60.2009 1043.52 503.419
149 0 50.205 10.238 514 58.9008 1043.69 501.582
150 0 50.0936 10.121 507 59.501 1043.95 503.465
151 0 53.0462 10.8962 578 57.5675 1043.71 502.168
152 0 55.0739 12.0747 665 56.7459 1043.25 500.215
153 0 56.0407 9.68939 543 58.7569 1043.53 501.436
154 0 59.0845 11.3058 668 57.271 1043.44 497.579
155 0 62.0319 12.5097 776 55.4008 1043.66 497.648
156 0 63.0962 10.3017 650 58.1369 1043.67 496.28
157 0 65.1624 10.8958 710 56.9042 1043.57 496.976
158 0 66.0676 10.9131 721 57.1997 1044.08 494.571
159 0 67.1059 11.3403 761 56.6544 1043.76 493.407
160 0 71.1232 11.7683 837 56.3572 1044.13 492.815
161 0 69.0942 10.9561 757 57.7437 1043.68 492.803
162 0 72.0591 11.6155 837 56.7431 1043.62 491.796
163 0 76.161 10.6091 808 57.5334 1043.47 488.25
164 0 78.1511 11.4522 895 56.8883 1043.67 485.994
165 1 39.0343 9.76066 381 57.3018 1043.76 507.522
166 0 42.0268 12.9917 546 54.3315 1043.81 506.046
167 0 43.0182 11.9252 513 56.3626 1043.51 504.846
168 0 42.021 9.11449 383 59.3681 1043.94 503.697
169 0 44.0765 10.1868 449 58.3742 1043.97 503.374
170 0 48.0608 10.4659 503 57.6501 1044.34 504.306
171 0 46.0343 9.90566 456 59.0154 1043.96 504.279
172 0 49.0626 10.6395 522 58.2854 1043.61 500.05
173 0 49.1205 8.87614 436 60.6606 1043.28 502.982
174 0 53.0477 12.4039 658 56.7629 1043.71 499.76
175 0 54.0592 13.3372 721 55.4882 1043.58 501.746
176 0 56.0723 13.982 784 54.9668 1043.11 499.026
177 0 55.0988 11.3977 628 58.5032 1044.08 498.739
178 0 56.1024 10.5521 592 59.9105 1044 498.733
179 0 59.084 12.203 721 57.7476 1043.62 499.43
180 0 62.1216 13.1677 818 56.7359 1043.84 496.852
181 0 63.2543 11.3826 720 59.0972 1042.8 496.679
182 0 66.1132 12.9475 856 57.2582 1042.33 495.029
183 0 69.0475 14.0338 969 56.5614 1041.91 491.873
184 0 72.1242 13.1024 945 57.5746 1041.71 490.86
185 0 73.0765 12.8495 939 58.4452 1041.77 489.55
186 0 76.0868 11.3555 864 60.0891 1041.62 491.706
187 0 78.1578 13.1529 1028 58.7607 1041.89 488.995
188 0 81.1427 12.4595 1011 59.821 1041.49 488.751
189 0 83.4327 11.6621 973 60.8407 1040.66 488.345
190 0 86.096 13.3223 1147 58.9547 1040.64 488.785
191 0 89.1096 12.6137 1124 60.403 1040.42 486.187
192 1 46.1267 11.9887 553 60.2025 1039.58 507.483
193 0 47.0775 11.0456 520 62.4904 1039.97 507.665
194 0 46.0181 10.8653 500 63.728 1040.28 505.602
195 0 51.0787 12.2948 628 61.414 1040 505.995
196 0 52.1535 11.0635 577 63.3189 1040.18 506.525
197 0 52.0429 12.0093 625 62.72 1040.37 505.386
198 0 53.0656 10.7603 571 64.1909 1039.81 505.692
199 0 56.1207 12.3306 692 62.3974 1039.15 503.871
200 0 60.1168 12.0432 724 62.1478 1039.39 504.724
201 0 62.0578 13.5841 843 60.0451 1039.85 502.218
202 0 64.2015 12.2583 787 61.3177 1039.01 504.835
203 0 65.0519 12.2056 794 61.3338 1039.03 503.267
204 0 66.0407 12.4014 819 61.7766 1038.98 501.709
205 0 69.1109 13.3409 922 60.654 1039.31 499.061
206 0 70.1732 11.4574 804 62.4179 1039.18 498.301
207 0 75.0424 12.1931 915 61.1169 1039.31 498.734
208 0 78.0638 12.272 958 60.9457 1039.35 499.55
209 0 77.1052 12.4246 958 61.7902 1039.28 496.3
210 0 81.0702 13.1614 1067 60.8351 1038.34 494.736
211 0 82.0681 11.7342 963 62.3946 1038.17 494.039
212 0 85.1002 11.3631 967 62.6484 1038.08 495.384
213 1 46.0259 10.9938 506 61.9901 1038.04 512.998
214 0 48.0249 11.1817 537 61.5549 1037.68 512.836
215 0 50.0755 10.3843 520 62.6692 1037.15 511.61
216 0 49.0641 10.578 519 63.3738 1037.61 510.942
217 0 52.0921 12.4779 650 60.1323 1037.39 511.492
218 0 51.0338 10.7184 547 64.1956 1037.58 508.128
219 0 56.1696 10.041 564 63.2801 1037.2 510.179
220 0 56.0592 11.4522 642 62.7461 1037.33 508.463
221 0 56.1196 10.834 608 63.9309 1037.04 505.12
222 0 56.0733 10.5398 591 65.225 1037.37 503.227
223 0 62.0795 12.2424 760 62.4447 1037.36 503.388
224 0 64.0503 11.5847 742 63.0593 1037.26 502.119
225 0 67.0823 12.7754 857 61.7106 1037.21 499.653
226 0 68.1541 12.1049 825 62.5721 1037.19 499.396
227 0 70.0667 12.5024 876 62.4737 1037.09 498.465
228 0 73.119 12.0762 883 62.6251 1037.81 498.216
229 0 74.0703 11.8266 876 63.3573 1037.44 495.661
230 0 76.1519 12.6458 963 62.2534 1037.32 493.757
231 0 78.0488 11.5953 905 64.0619 1037.81 493.275
232 0 80.1188 12.0571 966 63.589 1037.78 491.146
233 0 83.0882 11.9391 992 64.1966 1037.6 489.413
234 1 40.0962 9.00335 361 62.2216 1037.51 513.645
235 0 42.1875 11.8044 498 58.998 1038.23 512.114
236 0 42.0489 11.4153 480 60.4021 1037.82 510.952
237 0 43.0509 10.476 451 61.6585 1037.7 510.756
238 0 45.1475 10.6318 480 60.9688 1037.49 510.954
239 0 47.1538 12.2153 576 59.1875 1037.56 509.142
240 0 47.0739 11.2164 528 60.6098 1038.19 508.892
241 0 47.159 9.58461 452 62.9226 1038.57 507.283
242 0 50.0895 11.0602 554 61.1137 1038.12 504.836
243 0 53.0623 10.7798 572 60.2308 1038.07 506.014
244 0 52.2124 9.67203 505 62.3505 1038.47 501.012
245 0 55.0789 10.2035 562 60.5996 1038.43 506.299
246 0 56.0562 11.7561 659 59.8741 1039.34 502.437
247 0 58.0755 10.6758 620 60.4629 1038.72 503.126
248 0 60.2 10.8472 653 60.4426 1038.85 501.874
249 0 61.0778 9.80716 599 62.2371 1039.2 500.703
250 0 65.091 10.7542 700 60.5329 1039.42 500.657
251 0 64.1181 9.99718 641 61.6693 1038.89 498.885
252 0 68.1561 11.4443 780 60.4244 1038.91 496.865
253 0 69.1697 7.72014 534 63.8558 1039.27 498.805
254 0 71.1755 9.3712 667 62.4693 1038.93 498.075
255 0 73.1389 10.6236 777 61.6448 1039.35 498.233
256 0 77.1015 9.44209 728 63.0508 1039.61 494.445
257 1 38.0077 6.20927 236 61.6525 1039.17 519.03
258 0 40.0275 6.92024 277 63.1877 1039.17 516.383
259 0 41.1512 9.23424 380 61.2842 1039.12 514.711
260 0 41.0514 10.0362 412 61.1772 1039.44 513.813
261 0 43.0506 9.45399 407 61.8821 1039.22 513.521
262 0 45.0892 10.0689 454 60.8546 1039.22 513.121
263 0 46.0326 11.3181 521 61.0537 1040.24 511.507
264 0 46.078 10.6775 492 62.2033 1040.01 510.73
265 0 48.0632 10.5486 507 62.3886 1039.57 510.105
266 0 50.0634 10.0473 503 62.7177 1039.24 510.392
267 0 52.0828 10.1377 528 62.3409 1039.08 507.439
268 0 54.0848 10.7054 579 59.4888 1038.04 509.853
269 0 53.0991 11.5821 615 59.2049 1038.72 510.754
270 0 56.1381 10.4385 586 60.4778 1038.75 508.121
271 0 58.1126 8.99977 523 62.3977 1038.64 504.652
272 0 57.1699 10.0752 576 61.25 1038.9 505.549
273 0 61.0606 9.67891 591 61.1184 1038.12 506.063
274 0 61.1717 9.41612 576 61.283 1037.66 504.719
275 0 65.1078 10.1677 662 61.0725 1037.45 504.997
276 0 66.1875 9.72993 644 61.7857 1037.36 503.326
277 0 68.2116 9.27995 633 62.733 1037.8 504.246
278 0 70.2101 9.59976 674 62.362 1037.3 503.359
279 0 74.1256 10.2664 761 61.7188 1037.85 500.409
280 0 74.2337 8.93125 663 63.1312 1037.73 499.146
281 1 39.074 8.52228 333 60.1862 1037.96 518.102
282 0 38.1567 9.19892 351 59.8462 1038.09 516.407
283 0 41.1355 8.6057 354 59.3305 1038.37 515.836
284 0 43.0703 10.3784 447 56.8233 1038.04 513.291
285 0 42.0403 8.87243 373 58.9196 1037.67 516.273
286 0 45.105 9.1564 413 58 1037.86 512.985
287 0 48.0555 11.1954 538 56.2305 1037.86 510.805
288 0 46.1128 8.97799 414 58.7899 1037.49 511.362
289 0 49.0898 8.63723 424 59.1179 1037.67 511.627
290 0 51.2834 9.67175 496 58.256 1036.8 511.361
291 0 52.166 9.89151 516 58.4554 1036.68 509.562
292 0 54.0618 8.86024 479 60.5177 1036.53 510.042
293 0 56.1551 9.61622 540 60.1963 1036.77 507.974
294 0 56.0796 8.89806 499 60.992 1036.9 506.723
295 0 59.0769 9.15756 541 60.2477 1037.52 503.989
296 0 61.0947 10.0827 616 58.75 1037.65 505.12
297 0 64.1441 10.8194 694 57.6153 1037.36 504.347
298 0 64.0956 10.8744 697 58.2884 1037.02 502.08
299 0 63.1304 6.68458 422 62.6232 1037.26 500.32
300 0 69.3586 10.2943 714 58.3361 1036.66 499.504
301 0 72.1017 10.1801 734 56.7643 1036.04 500.155
302 0 74.1709 11.2443 834 56.0827 1035.82 497.543
303 0 74.1559 7.61908 565 59.3735 1036.48 495.163
304 0 79.17 10.4206 825 56.4206 1036.47 492.994
305 1 37.0718 8.60493 319 57.511 1036.65 516.006
306 0 42.1416 9.91894 418 55.5837 1036.83 514.754
307 0 42.1435 9.20664 388 56.3531 1036.37 514.601
308 0 44.173 9.21377 407 56.4152 1036.79 513.708
309 0 46.0937 10.5003 484 55.7521 1036.66 511.671
310 0 46.1821 9.41923 435 56.5034 1036.14 511.844
311 0 50.0695 9.88626 495 56.6141 1037.07 510.234
312 0 51.0595 8.6174 440 58.2091 1036.48 510.059
313 0 53.142 10.5002 558 56.0556 1036.42 508.254
314 0 54.0976 10.2777 556 56.3022 1036.17 508.561
315 0 56.1062 11.2822 633 54.8562 1036.13 507.275
316 0 58.0937 9.93223 577 56.9653 1036.89 504.225
317 0 60.0905 13.9955 841 52.3413 1036.19 505.792
318 0 61.1696 12.6043 771 53.7769 1035.72 506.196
319 0 59.0891 9.968 589 57.5399 1036.51 502.72
320 0 63.0808 10.9859 693 56.2799 1036.86 501.808
321 0 64.1048 11.7308 752 55.4894 1036.57 501.858
322 0 68.1284 13.0489 889 53.9246 1036.57 496.314
323 0 71.1226 12.9917 924 54.0281 1036.7 497.448
324 0 72.1234 12.2568 884 54.8812 1037.07 497.096
325 0 71.0836 11.5498 821 56.1121 1036.72 494.448
326 0 76.3271 12.1451 927 55.4563 1037.25 493.305
327 0 77.1456 11.07 854 57.0234 1037.41 491.992
328 1 41.0968 11.5337 474 54.3819 1037.65 513.741
329 0 38.0442 8.14842 310 59.4935 1037.02 512.939
330 0 43.0468 9.01344 388 57.5928 1036.59 512.242
331 0 43.1346 11.4757 495 56.0626 1036.5 510.206
332 0 45.054 11.7193 528 55.8826 1036.88 510.028
333 0 45.009 12.042 542 55.6993 1036.4 510.793
334 0 47.0083 12.5935 592 55.6301 1036.07 510.074
335 0 49.0526 11.2328 551 56.5499 1037.25 510.646
336 0 52.0596 12.332 642 55.2227 1036.74 509.452
337 0 52.0678 11.6195 605 57.0678 1036.29 507.182
338 0 52.0814 12.6341 658 56.2766 1036.57 506.454
339 0 55.1146 13.0274 718 55.5794 1036.28 505.908
340 0 56.2187 11.6865 657 56.6393 1036.3 508.638
341 0 59.0998 11.8782 702 56.5014 1035.9 507.088
342 0 58.0481 11.9901 696 57.8261 1036.34 500.967
343 0 59.1568 11.5963 686 57.8703 1035.87 501.424
344 0 62.2204 11.9414 743 57.1871 1036.48 499.015
345 0 64.3143 11.195 720 57.85 1036.7 501.158
346 0 67.2253 11.3648 764 57.9084 1036.37 497.376
347 0 69.2345 11.6705 808 57.7079 1036.71 499.021
348 0 71.1938 10.0571 716 59.2542 1036.69 494.272
349 0 74.1042 12.5364 929 56 1036.29 497.395
350 0 77.0534 12.4719 961 56.5817 1036.54 495.131
351 1 40.0797 10.6039 425 56.4329 1036.47 514.092
352 0 39.1676 10.3147 404 58.0941 1036.59 510.356
353 0 42.087 10.3595 436 57.1904 1036.44 512.415
354 0 43.0862 13.0436 562 54.9128 1036.49 510.253
355 0 44.2174 13.2527 586 55.1024 1037.27 509.282
356 0 44.0189 12.9717 571 56.1769 1036.94 508.963
357 0 46.0533 12.073 556 57.3759 1036.61 507.905
358 0 47.1873 11.0623 522 58.2586 1037.06 508.814
359 0 50.0702 10.4254 522 57.6494 1036.84 509.345
360 0 51.0486 11.4009 582 56.9485 1037.24 506.871
361 0 52.0398 11.0108 573 57.7208 1036.96 504.82
362 0 53.0906 12.1679 646 56.5944 1037.08 506.37
363 0 55.025 11.3948 627 57.5327 1037.29 503.691
364 0 56.0536 10.1153 567 58.8325 1036.88 503.256
365 0 58.0305 11.8903 690 56.7058 1037.38 503.571
366 0 61.1892 12.6656 775 56.3548 1037.09 500.791
367 0 60.1299 9.67905 582 59.5567 1036.64 500.713
368 0 64.0367 10.1973 653 58.6815 1037.47 501.187
369 0 67.1278 11.8133 793 57.2749 1037.13 497.701
370 0 68.0538 12.6371 860 56.2523 1037.38 499.748
371 0 68.0899 11.2205 764 58.2369 1037.78 497.559
372 0 71.2113 10.8691 774 59.1137 1037.28 496.499
373 0 73.1934 11.3671 832 58.6226 1037.83 496.713
374 1 39.0626 10.4704 409 57.8313 1037.74 513.966
375 0 38.0637 10.3511 394 59.1624 1038.08 512.929
376 0 39.0146 9.1248 356 60.3511 1038.17 513.725
377 0 41.0305 11.1868 459 58.3072 1037.52 513.549
378 0 42.0823 10.5032 442 59.9186 1037.91 512.536
379 0 43.0396 10.8969 469 58.5565 1037.46 513.644
380 0 45.1186 10.7716 486 59.2387 1037.22 512.422
381 0 46.0404 12.0112 553 58.991 1036.57 509.575
382 0 48.0552 11.5908 557 59.386 1036.84 509.158
383 0 48.0204 7.5801 364 63.2995 1036.92 504.28
384 0 51.0464 10.3827 530 60.6698 1036.83 508.623
385 0 51.0298 10.3077 526 61.038 1037.39 507.125
386 0 52.1082 11.764 613 59.5155 1037.21 504.511
387 0 54.0351 10.7523 581 59.9656 1037.49 505.133
388 0 57.0467 10.8683 620 60.329 1037.4 502.452
389 0 58.0412 10.3203 599 60.5843 1037.51 502.486
390 0 61.0663 9.90726 605 60.3074 1037.16 500.702
391 0 63.0639 10.7193 676 59.3787 1037.2 502.59
392 0 64.1177 11.167 716 59.4944 1037.69 498.527
393 0 66.1162 11.1017 734 58.9428 1036.96 500.123
394 0 70.0848 11.2293 787 58.7903 1036.9 499.248
395 0 71.1425 12.2009 868 57.9078 1037.09 495.998
396 1 36.0334 11.9056 429 57.2704 1037.14 513.096
397 0 38.0735 8.8513 337 59.4421 1037.74 511.418
398 0 40.0645 10.7826 432 57.1412 1037.63 514.093
399 0 43.0621 10.3571 446 57.648 1037.13 512.029
400 0 42.0863 9.31419 392 59.0128 1036.8 512.551
401 0 41.0169 9.19134 377 59.7613 1036.74 511.271
402 0 47.0631 10.1353 477 58.3459 1037.22 510.262
403 0 47.0606 11.9633 563 56.6377 1037.23 510.471
404 0 47.0596 10.3698 488 58.8463 1036.67 507.158
405 0 51.1011 11.1935 572 58.458 1037.07 507.545
406 0 53.032 12.0682 640 57.5625 1037.11 506.364
407 0 52.2279 11.2009 585 59.1795 1037.35 505.6
408 0 53.1308 11.3305 602 58.9136 1037.16 506.311
409 0 55.1524 11.7493 648 58.9429 1037.13 503.833
410 0 56.0837 10.1455 569 60.3445 1036.49 503.998
411 0 60.105 10.5815 636 60.1619 1036.69 504.011
412 0 60.1629 11.7514 707 59.4272 1036.95 503.134
413 0 62.2109 10.6894 665 60.4015 1036.89 499.738
414 0 65.1485 11.0824 722 60.1371 1036.77 502.114
415 0 66.1271 11.3569 751 59.9068 1037.08 499.394
416 0 69.1198 10.8797 752 60.3112 1037.05 498.287
417 0 69.084 10.9287 755 61.294 1037.51 497.007
418 0 70.1606 10.5187 738 61.977 1037.39 494.425
419 0 75.1138 12.4611 936 59.3889 1036.79 495.739
420 0 76.1932 10.749 819 61.79 1036.69 494.646
421 1 39.0689 11.1854 437 58.5126 1036.48 515.677
422 0 38.08 9.79518 373 61.1716 1036.41 513.051
423 0 41.0352 9.08977 373 61.0429 1036.78 513.737
424 0 43.0674 12.5849 542 57.5978 1037.12 511.675
425 0 42.1723 10.1489 428 60.3084 1036.88 512.474
426 0 46.0302 11.3404 522 59.295 1037.15 513.023
427 0 47.0227 11.101 522 59.6782 1036.85 512.094
428 0 47.0427 10.331 486 61.216 1036.81 509.453
429 0 49.0693 10.2304 502 61.4781 1036.77 510.042
430 0 50.05 9.79021 490 61.751 1036.45 510.461
431 0 51.0401 8.95374 457 63.3632 1036.8 509.532
432 0 54.031 10.9012 589 60.5297 1037.11 509.716
433 0 55.1009 11.0887 611 61.2291 1036.76 506.534
434 0 56.0785 13.2315 742 58.8491 1037.84 506.757
435 0 60.1411 11.8554 713 59.6662 1037.34 505.954
436 0 60.1152 12.7422 766 59.0405 1037.02 504.184
437 0 60.2275 11.3569 684 60.7705 1037.19 505.883
438 0 64.0898 11.4059 731 60.9535 1036.83 501.802
439 0 67.1644 10.8391 728 60.5508 1036.52 502.692
440 0 69.1362 11.8896 822 60.0779 1036.84 500.026
441 0 69.1403 11.8021 816 60.0797 1036.49 498.85
442 0 72.0937 10.6667 769 60.7828 1037.03 501.888
443 0 73.2921 11.7339 860 60.0523 1036.73 499.693
444 0 76.1967 11.3391 864 60.309 1036.46 494.541
445 1 38.1027 10.4192 397 59.7809 1036.92 514.809
446 0 39.0308 7.12258 278 61.536 1036.55 518.727
447 0 40.0576 9.26165 371 60.2372 1035.9 512.744
448 0 41.0419 9.52686 391 59.9923 1036.65 512.361
449 0 42.0369 9.15863 385 59.6078 1036.46 513.93
450 0 47.0199 9.379 441 58.8186 1036.27 511.701
451 0 47.0714 10.6647 502 58.257 1036.16 509.478
452 0 48.016 10.3924 499 58.7194 1036.06 510.244
453 0 48.1243 9.05988 436 61.8601 1036.22 508.688
454 0 51.056 11.6735 596 58.7919 1036.61 508.339
455 0 52.0599 9.79641 510 60.4216 1035.9 508.265
456 0 54.0385 9.36369 506 60.753 1035.73 507.006
457 0 57.0642 11.268 643 58.8351 1036.23 506.047
458 0 58.1646 12.1723 708 57.25 1036 506.417
459 0 58.0602 10.9714 637 59.1444 1036.58 503.763
460 0 60.0847 10.6183 638 59.4138 1036.46 502.326
461 0 63.0618 11.7187 739 58.0744 1036.71 504.133
462 0 64.092 12.8409 823 57.1118 1036.25 500.923
463 0 65.0517 10.9913 715 59.4755 1036.69 499.903
464 0 67.0314 11.7855 790 58.5633 1036.85 498.472
465 0 68.0562 9.21297 627 60.8533 1036.69 500.703
466 0 69.1457 9.89215 684 60.4079 1036.95 498.018
467 0 72.0573 10.0614 725 60.64 1037.04 497.99
468 0 73.0664 8.67703 634 61.8959 1037.26 496.331
469 0 78.0659 10.3887 811 60.0308 1037.06 494.683
470 1 41.0547 10.3277 424 57.5307 1036.38 514.552
471 0 41.1074 9.94955 409 58.22 1036.96 512.682
472 0 45.0974 9.9784 450 57.9867 1036.07 513.304
473 0 45.0783 9.60551 433 59.2517 1036.41 511.898
474 0 47.0876 12.6997 598 55.6338 1036.95 511.866
475 0 45.0888 8.73831 394 60.5431 1036.75 509.518
476 0 49.1193 11.2583 553 58.2839 1036.8 509.55
477 0 49.1435 10.1743 500 59.116 1036.6 511.318
478 0 53.1162 11.4466 608 57.4507 1037.14 510.041
479 0 54.0819 11.2792 610 58.3656 1036.77 508.743
480 0 54.1138 11.0138 596 59.1946 1036.92 508.037
481 0 57.1403 11.6905 668 58.5 1036.96 506.081
482 0 58.0837 10.7775 626 59.3323 1036.59 506.208
483 0 60.1247 12.6238 759 57.4862 1036.74 502.868
484 0 62.1194 10.7052 665 59.0571 1036.24 506.057
485 0 65.2201 12.8488 838 56.9606 1036.76 501.563
486 0 66.0923 11.0603 731 59.2394 1036.56 499.795
487 0 68.0542 11.7994 803 58.8879 1036.54 497.608
488 0 72.1454 13.3342 962 57.0447 1036.94 499.783
489 1 39.0559 10.933 427 57.4801 1036.9 518.192
490 0 36.0636 10.0101 361 60.3407 1036.37 515.341
491 0 38.0282 9.67703 368 60.4592 1037.31 516.465
492 0 40.0362 8.89196 356 61.5281 1036.21 514.216
493 0 42.0967 10.5709 445 59.5551 1036.25 514.315
494 0 41.0284 10.6755 438 60.4703 1036.33 513.833
495 0 44.0183 13.608 599 57.2788 1036.95 510.866
496 0 45.0376 12.4341 560 58.2982 1036.66 511.962
497 0 45.0728 10.7604 485 60.8392 1037.12 512.033
498 0 48.0692 11.7331 564 59.8032 1037.09 509.521
499 0 48.0683 10.5059 505 61.6693 1036.66 511.297
500 0 49.0306 11.9109 584 59.5428 1036.82 512.461
501 0 50.0343 10.273 514 61.5175 1036.52 511.119
502 0 52.0176 12.2074 635 59.9811 1036.24 508.816
503 0 54.057 13.2453 716 58.6494 1036.68 507.307
504 0 54.0758 11.2805 610 61.077 1036.01 506.536
505 0 55.074 11.2939 622 61.2299 1036.27 505.246
506 0 58.0625 13.8127 802 58.2631 1035.68 505.373
507 0 59.0876 12.913 763 60.1114 1035.37 503.633
508 0 62.0308 14.122 876 58.1393 1036.56 500.451
509 0 64.145 11.6923 750 61.38 1036.91 501.62
510 0 62.0855 11.5003 714 62.1176 1036.74 501.328
511 0 67.0793 12.6269 847 60.6305 1036.68 501.174
512 0 69.0544 12.0919 835 61.5114 1036.06 499.187
513 0 71.1155 12.7961 910 60.7901 1035.96 500.207
514 0 72.0746 10.6695 769 63.6437 1036.18 501.38
515 0 73.1184 11.8985 870 62.7402 1035.55 498.96
516 1 38.0521 10.2228 389 64.5296 1035.66 514.527
517 0 41.0171 10.7272 440 63.5455 1035.78 514.305
518 0 43.0194 11.0648 476 63.3214 1035.62 513.286
519 0 44.0267 11.493 506 62.7253 1036.12 516.354
520 0 46.0177 10.8654 500 64.434 1035.89 513.466
521 0 48.0619 12.1926 586 62.186 1035.87 513.863
522 0 48.0758 10.0674 484 65.5496 1036.1 510.353
523 0 49.0622 13.7173 673 61.3016 1035.75 508.844
524 0 51.0735 12.0806 617 63.0729 1036.22 509.478
525 0 52.0852 11.4812 598 63.7241 1036.03 508.834
526 0 53.0796 12.0385 639 63.482 1035.58 508.091
527 0 55.07 11.3855 627 64.1579 1035.53 507.933
528 0 57.2194 12.0588 690 63.2406 1035.11 504.655
529 0 58.067 13.2778 771 61.8042 1035.53 503.681
530 0 60.0231 11.2623 676 63.966 1035.7 503.444
531 0 61.0631 11.5618 706 63.2564 1035.97 505.946
532 0 65.1705 12.9046 841 61.5042 1035.72 502.018
533 0 67.0894 12.4908 838 62.08 1035.78 498.054
534 0 69.0604 11.2655 778 62.8972 1035.81 502.699
535 0 70.0549 12.5901 882 62.2948 1036.08 499.44
536 0 71.0621 10.0616 715 64.4308 1035.87 500.31
537 0 76.0946 13.6015 1035 60.3005 1036.06 495.305
538 0 77.1615 12.4026 957 61.7356 1035.94 497.359
539 1 40.0446 11.0377 442 62.8643 1035.93 513.74
540 0 42.1744 10.3143 435 63.8989 1035.7 514.228
541 0 43.1868 12.8975 557 61.2316 1034.97 512.303
542 0 43.098 13.5737 585 60.147 1035.41 512.884
543 0 46.0388 10.7952 497 62.7767 1035.38 512.272
544 0 49.103 12.932 635 60.0394 1036.35 512.047
545 0 49.059 11.0683 543 63.2707 1036.05 509.348
546 0 51.0232 12.8765 657 60.2283 1035.73 511.671
547 0 53.1395 11.291 600 61.77 1035.9 510.452
548 0 54.0779 13.573 734 59.4714 1035.97 509.493
549 0 56.1884 11.3903 640 61.9016 1036.13 507.366
550 0 57.07 12.581 718 61.0752 1036.19 506.102
551 0 58.0639 11.7112 680 62.8412 1035.46 504.147
552 0 59.0987 12.7922 756 61.9339 1035.46 503.86
553 0 62.095 12.191 757 62.2602 1036.3 503.289
554 0 62.1555 11.3103 703 63.3542 1035.51 504.159
555 0 68.0452 11.5658 787 62.1919 1035.68 503.011
556 0 71.0855 12.7874 909 61.1265 1035.48 500.293
557 0 72.114 11.565 834 62.476 1035.65 498.891
558 0 74.1233 11.8181 876 62.1142 1036.12 498.04
559 0 75.1588 11.2828 848 63.0059 1035.79 495.489
560 1 40.0993 9.8256 394 62.0609 1036.56 513.987
561 0 40.0298 9.81769 393 62.313 1036.1 514.272
562 0 41.1422 11.3509 467 60.6981 1036.5 515.552
563 0 42.0461 11.1544 469 61.0746 1035.17 514.028
564 0 45.0926 14.9914 676 57.1642 1035.87 512.325
565 0 45.0368 11.213 505 60.8337 1036.19 514.352
566 0 48.0555 12.2359 588 59.7619 1035.75 511.019
567 0 47.1254 9.37924 442 62.8416 1035.79 511.265
568 0 48.0721 10.6091 510 61.9765 1035.77 510.376
569 0 52.0392 12.5098 651 59.9524 1035.9 508.914
570 0 53.1017 10.9036 579 61.2988 1035.67 508.283
571 0 54.1245 10.5128 569 61.7135 1035.91 506.796
572 0 55.0782 11.1296 613 61.447 1035.08 507.057
573 0 59.0558 11.2605 665 60.7248 1035.78 503.765
574 0 60.0248 11.7451 705 61.0383 1036 501.295
575 0 61.0692 11.4297 698 61.712 1035.78 500.769
576 0 63.0729 11.7642 742 61.0539 1035.84 500.007
577 0 65.0615 13.0185 847 59.5962 1036.58 500.897
578 0 67.099 10.4025 698 62.1734 1036.71 499.175
579 0 66.0206 10.4513 690 62.6261 1038.34 498.935
580 0 70.0315 10.3239 723 61.9765 1037.97 500.093
581 0 73.1046 10.4918 767 62.1173 1037.2 497.239
582 0 77.0788 10.7552 829 61.4753 1037.73 496.462
583 0 81.1027 11.8738 963 60.1308 1037.67 495.03
584 0 83.1676 9.61913 800 62.6912 1037.29 490.365
585 0 87.0851 12.6198 1099 59.9045 1037.55 489.765
586 0 86.2353 8.32606 718 64.7646 1037.19 488.188
587 1 45.0996 10.8648 490 60.6612 1037.17 509.843
588 0 47.1268 12.4982 589 58.7963 1036.28 508.138
589 0 50.0605 12.4449 623 58.7865 1036.42 507.047
590 0 48.1311 10.783 519 61.106 1036.16 505.744
591 0 50.0626 10.2272 512 61.8496 1035.99 505.355
592 0 53.141 10.0299 533 61.7186 1036 504.15
593 0 55.2792 10.1304 560 60.7929 1036.16 504.157
594 0 58.1075 10.6527 619 59.5945 1036.58 504.598
595 0 59.0333 10.096 596 60.6426 1035.94 501.232
596 0 60.0877 10.2683 617 60.718 1036.56 500.465
597 0 61.0313 9.02816 551 61.6733 1035.98 501.987
598 0 64.1127 9.92002 636 60.9041 1036.74 499.55
599 0 68.2325 10.6401 726 59.6625 1036.29 496.405
600 0 69.0772 9.87301 682 60.3372 1036.41 494.884
601 0 75.2023 11.4757 863 58.6211 1036.84 496.33
602 0 77.2433 12.7001 981 57.6259 1036.49 494.163
603 0 78.1326 10.5974 828 59.9384 1035.96 493.585
604 0 81.202 10.6894 868 59.4574 1036.57 487.487
605 0 84.0775 11.537 970 58.8701 1036.38 488.094
606 1 45.132 9.35035 422 58.628 1036.42 510.41
607 0 46.0587 11.5288 531 57.8343 1036.68 507.991
608 0 48.0754 9.96352 479 59.0397 1036.33 508.889
609 0 49.079 10.1265 497 58.8048 1036.51 507.111
610 0 50.074 9.86539 494 59.0445 1036.68 506.049
611 0 51.03 9.77856 499 59.4068 1036.91 504.523
612 0 54.197 9.50237 515 60.1029 1037.11 504.012
613 0 53.0686 8.40421 446 61.574 1035.43 501.762
614 0 58.2021 10.6525 620 58.9242 1035.91 498.64
615 0 59.055 10.0923 596 59.3591 1036.37 498.017
616 0 63.0414 11.9763 755 56.7669 1035.91 499.15
617 0 66.1702 11.1077 735 57.3701 1036.94 497.891
618 0 67.0991 10.5217 706 57.8031 1036.3 496.409
619 0 69.192 10.348 716 58.2444 1037.03 497.147
620 0 72.2029 11.1353 804 57.4104 1036.91 493.33
621 0 73.0992 9.82227 718 58.4791 1036.23 491.358
622 1 35.0515 7.76002 272 58.5699 1036.47 512.772
623 0 37.0147 8.99642 333 57.5045 1036.24 512.685
624 0 39.1069 10.0749 394 55.9492 1036.22 512.178
625 0 39.0796 9.80052 383 57.1358 1036.04 511.864
626 0 41.0435 8.47881 348 58.5172 1036.17 508.716
627 0 42.013 11.9011 500 56.574 1036.11 508.324
628 0 44.0175 10.4504 460 57.7935 1036.69 508.309
629 0 47.0615 12.3668 582 55.6684 1035.61 508.591
630 0 49.0595 11.0682 543 57.0129 1037.18 507.913
631 0 52.0896 11.5954 604 55.7318 1036.56 508.874
632 0 52.0528 10.2588 534 58.3745 1036.26 507.345
633 0 51.1182 10.1529 519 58.7688 1037.28 504.958
634 0 56.1237 11.9914 673 56.523 1036.51 504.1
635 0 58.154 12.8452 747 55.423 1036.8 504.882
636 0 58.34 10.2331 597 58.0017 1036.81 501.003
637 0 60.1488 11.6212 699 56.2346 1036.19 501.793
638 0 62.1572 9.26683 576 59.2622 1036.92 499.585
639 0 63.2102 11.5804 732 56.1585 1036.95 502.046
640 0 67.1035 12.2348 821 55.8587 1036.81 497.827
641 0 66.1461 10.4012 688 58.5262 1036.67 494.235
642 0 73.2002 11.5437 845 56.9728 1036.77 494.488
643 1 35.0221 8.76588 307 57.2932 1036.91 513.961
644 0 38.0378 8.57043 326 57.1748 1036.53 514.518
645 0 38.058 9.6169 366 57.153 1036.53 512.694
646 0 39.0411 8.58069 335 58.7015 1036.45 511.531
647 0 39.2145 10.8633 426 56.608 1036.58 512.279
648 0 43.0069 10.7657 463 56.6523 1036.04 509.441
649 0 44.0305 10.6971 471 57.5053 1036.99 509.034
650 0 45.0576 10.8084 487 57.7187 1037.3 508.62
651 0 45.1074 11.0625 499 58.2365 1037.32 506.984
652 0 49.0497 10.2753 504 58.2222 1036.88 509.133
653 0 48.1123 11.0783 533 58.167 1036.93 507.636
654 0 50.042 11.4504 573 58.4346 1036.58 507.583
655 0 51.0486 11.3813 581 60.3046 1036.61 504.625
656 0 54.0818 11.3347 613 58.7064 1037.23 506.532
657 0 54.0843 10.4651 566 60.9541 1036.85 505.882
658 0 56.0634 12.2718 688 59.4913 1036.86 505.65
659 0 57.0398 9.73006 555 62.2414 1036.35 503.903
660 0 58.0345 12.0446 699 60.0844 1037.39 504.313
661 0 60.0465 12.0074 721 60.2427 1037.39 503.649
662 0 61.0867 11.0662 676 61.7041 1037.13 501.178
663 0 66.1097 11.8742 785 60.7045 1036.61 499.603
664 0 65.1202 11.425 744 61.9167 1036.35 499.094
665 0 67.0919 11.5662 776 61.5284 1036.95 500.339
666 0 70.0739 11.545 809 61.9308 1036.51 497.068
667 1 35.0329 11.5035 403 61.6203 1037.2 513.476
668 0 37.0539 11.3079 419 61.716 1036.33 514.305
669 0 39.0766 10.3898 406 62.1404 1036.34 515.039
670 0 40.0104 11.672 467 61.1049 1037.36 513.36
671 0 42.031 11.3963 479 61.4134 1037.1 513.177
672 0 45.0569 11.6741 526 60.8403 1037.15 510.013
673 0 45.0459 12.8314 578 59.8841 1037.5 510.46
674 0 46.0219 10.3212 475 62.6674 1037.49 511.735
675 0 50.084 12.0997 606 59.929 1037.4 510.475
676 0 49.0564 11.2524 552 62.4493 1037.19 507.239
677 0 53.0439 12.8761 683 59.5022 1037.6 507.89
678 0 52.0983 12.0349 627 61.2057 1037.33 507.013
679 0 52.0415 10.8951 567 62.6384 1036.92 506.407
680 0 57.0243 12.3105 702 60.0598 1037.5 504.45
681 0 58.0837 11.208 651 61.1536 1037.27 507.034
682 0 60.0898 13.8959 835 58.5006 1037.63 502.456
683 0 62.0867 12.0316 747 60.676 1037.73 499.404
684 0 63.1131 13.8323 873 58.8225 1037.68 500.545
685 0 66.2467 11.8496 785 60.8854 1037.47 500.436
686 0 66.1403 12.4432 823 61.3512 1037.79 497.645
687 0 70.1663 12.3278 865 60.941 1037.56 498.586
688 0 71.1069 11.8132 840 62.0548 1037.93 497.939
689 0 74.1487 13.1627 976 60.5543 1037.95 495.183
690 0 74.0454 11.3849 843 63.1317 1038.5 494.407
691 0 78.0882 12.2298 955 61.3948 1037.85 496.94
692 0 80.1564 12.775 1024 61.6943 1038.3 493.125
693 1 41.0156 10.4107 427 63.9344 1037.43 511.796
694 0 42.0327 9.77811 411 65.2092 1037.66 510.895
695 0 42.1011 10.1898 429 65.4103 1037.77 511.133
696 0 45.1055 11.462 517 63.5145 1038.01 509.58
697 0 46.0237 11.6462 536 63.5728 1037.91 509.562
698 0 49.039 12.4391 610 62.1082 1037.47 510.308
699 0 49.0681 11.3516 557 64.2154 1037.62 507.515
700 0 52.0424 11.6443 606 63.3498 1037.62 506.483
701 0 53.0294 10.5036 557 64.6679 1037.77 506.867
702 0 54.1493 10.6742 578 64.3356 1037.85 505.388
703 0 56.0912 11.2139 629 63.9221 1037.83 504.486
704 0 58.0949 11.3951 662 63.5574 1038.1 502.965
705 0 59.1728 10.613 628 64.9427 1037.56 500.083
706 0 60.1025 10.5986 637 64.8226 1038.13 499.835
707 0 62.1119 11.6564 724 63.2818 1037.69 501.2
708 0 66.1202 12.5831 832 61.8846 1037.44 499.388
709 0 69.1076 12.3431 853 61.4009 1037.1 498.382
710 0 70.1706 11.7713 826 62.5484 1037.14 498.259
711 0 75.0725 11.682 877 62.431 1036.69 495.583
712 0 77.1543 12.4556 961 61.7482 1037.23 494.07
713 0 78.1565 11.6305 909 62.956 1037.44 492.496
714 0 82.1005 12.5578 1031 61.0824 1037.2 493.766
715 1 40.0388 10.6397 426 62.4085 1037.34 512.383
716 0 42.0661 10.4359 439 61.7995 1037.45 514.164
717 0 43.0613 10.009 431 62.9188 1037.49 511.944
718 0 44.1298 9.90261 437 62.5858 1038.11 511.007
719 0 48.0722 11.1707 537 59.9516 1038.06 511.134
720 0 49.0943 11.3659 558 60.1344 1037.47 510.272
721 0 49.2262 10.9901 541 60.7893 1037.68 509.915
722 0 53.0969 12.5808 668 58.1078 1037.52 507.796
723 0 56.0592 11.7554 659 58.2458 1037.44 507.302
724 0 57.2691 12.7294 729 57.0027 1037.19 505.695
725 0 59.1886 12.2828 727 57.5502 1037.53 503.68
726 0 59.1264 13.0399 771 56.773 1037.58 506.104
727 0 62.0306 12.1069 751 57.1185 1036.79 504.142
728 0 64.0787 12.6407 810 56.8296 1036.72 500.049
729 0 67.0722 12.5685 843 56.3642 1037.12 500.684
730 0 70.0942 13.6388 956 54.8923 1037.12 500.953
731 0 72.1346 13.1282 947 55.547 1036.41 500.988
732 0 74.1385 11.2897 837 58.0048 1036.37 498.44
733 0 77.1281 13.2766 1024 55.542 1036.5 495.748
734 0 78.1167 10.8812 850 57.6271 1037.17 495.325
735 0 81.0779 11.6925 948 56.7025 1036.71 492.945
736 0 84.1957 12.079 1017 55.8623 1037.53 491.523
737 1 43.0611 10.2645 442 56.5995 1037.32 513.756
738 0 46.0517 11.1397 513 56.0565 1036.71 511.91
739 0 47.05 11.1158 523 56.3977 1036.62 511.367
740 0 48.0889 12.3729 595 55.0454 1036.65 511.546
741 0 52.1155 10.1121 527 56.4611 1036.98 508.178
742 0 56.081 10.7345 602 55.51 1036.74 509.357
743 0 56.0969 13.0667 733 53.4229 1037.01 506.66
744 0 56.0495 13.0956 734 54.0817 1036.92 506.159
745 0 59.109 10.1338 599 56.4424 1036.94 505.711
746 0 61.1095 11.6185 710 54.7592 1037.21 505.241
747 0 65.0749 11.0642 720 55.3208 1036.6 505.157
748 0 66.0545 13.5343 894 53.1253 1036.49 501.968
749 0 69.2975 11.4723 795 54.3836 1036.3 498.551
750 0 68.1166 9.67459 659 56.3748 1036.62 498.217
751 0 73.1999 10.7104 784 54.8074 1036.37 496.732
752 0 76.295 13.1201 1001 52.3986 1036.79 497.581
753 0 78.102 11.1009 867 54.3253 1037.18 496.278
754 0 79.1014 11.1376 881 54.7219 1036.7 494.467
755 0 83.3358 11.8077 984 53.6108 1036.53 497.351
756 1 41.0326 12.7703 524 52.4027 1036.19 514.321
757 0 47.1875 11.147 526 53.5951 1036.34 512.876
758 0 48.0613 9.82078 472 54.1504 1037.11 514.807
759 0 49.0945 12.6287 620 51.8516 1036.5 512.582
760 0 50.0806 12.9991 651 51.5146 1036.66 512.906
761 0 52.1882 12.6082 658 51.8009 1037.2 511.953
762 0 53.0621 10.8741 577 53.3102 1036.68 510.778
763 0 53.0376 11.1807 593 53.7976 1036.55 507.914
764 0 56.0956 12.3717 694 52.5317 1036.57 508.18
765 0 57.0289 11.6958 667 53.2114 1036.51 504.444
766 0 60.0673 11.0543 664 53.8419 1037.12 505.965
767 0 64.1139 13.3356 855 51.4994 1036.94 504.833
768 0 65.0691 13.0323 848 52.0991 1036.89 502.572
769 0 65.0834 13.2446 862 52.6056 1036.56 500.237
770 0 66.1125 10.9057 721 54.9404 1036.33 499.985
771 0 71.0826 13.9134 989 52.1213 1036.97 499.268
772 0 76.3087 12.9867 991 52.2008 1036.79 500.678
773 0 76.1154 13.0854 996 53.5341 1036.78 495.682
774 1 39.0319 11.3497 443 55.4176 1036.95 515.871
775 0 40.082 10.0793 404 56.8069 1036.69 516.532
776 0 41.0859 11.9993 493 55.7748 1036.57 514.657
777 0 43.0387 13.4298 578 54.7232 1036.33 513.498
778 0 45.0414 12.9658 584 54.9075 1036.46 512.591
779 0 47.0235 13.9717 657 54.3455 1036.53 511.314
780 0 48.0285 12.5967 605 55.2149 1036.06 514.502
781 0 47.0259 10.4623 492 58.4715 1036.9 511.701
782 0 51.1184 12.4417 636 56.0597 1036.7 509.711
783 0 53.077 14.7145 781 54.096 1035.77 509.192
784 0 54.0385 12.2875 664 56.3645 1036.62 509.375
785 0 57.0557 13.2853 758 55.4578 1036.61 506.966
786 0 57.042 12.9028 736 56.0285 1036.39 508.416
787 0 59.1057 14.381 850 54.8918 1036.6 506.142
788 0 59.1019 12.5546 742 57.6105 1036.3 504.218
789 0 62.2945 14.592 909 54.615 1036.52 506.811
790 0 63.1907 15.0338 950 54.6663 1036.63 502.482
791 0 65.2756 12.3323 805 57.4559 1037.17 503.993
792 0 68.1179 12.6398 861 56.5459 1036.84 501.453
793 0 70.1093 12.6517 887 57.31 1037.31 501.304
794 0 72.1065 12.7728 921 57.1325 1036.7 502.115
795 0 73.1094 12.7617 933 57.8274 1037.33 498.625
796 0 77.0891 13.5687 1046 56.6405 1036.55 497.808
797 1 40.0728 13.75 551 57.5808 1036.5 515.958
798 0 38.0815 10.5563 402 61.3706 1036.66 515.878
799 0 42.0418 11.4648 482 59.9315 1037.49 515.618
800 0 45.1763 13.1928 596 58.4346 1036.92 513.78
801 0 43.0575 12.7039 547 60.1664 1036.79 515.102
802 0 45.1909 12.9229 584 59.9435 1036.39 513.577
803 0 46.0941 11.2596 519 62.4489 1036.96 510.299
804 0 52.0511 14.7163 766 57.4713 1036.62 510.487
805 0 55.2048 13.4046 740 58.2041 1036.89 511.432
806 0 54.0668 13.4648 728 58.7486 1036.72 509.445
807 0 55.1046 13.302 733 59.0259 1036.32 510.431
808 0 57.1361 13.7916 788 58.6129 1036.91 509.053
809 0 58.1599 12.4656 725 59.8124 1037.52 508.138
810 0 63.0661 15.6819 989 55.7017 1036.85 505.707
811 0 63.1451 14.3637 907 57.5888 1036.88 506.018
812 0 64.2292 13.7788 885 58.6068 1037.25 502.702
813 0 67.0848 13.5649 910 58.1791 1036.71 503.159
814 0 70.0635 14.1443 991 57.5348 1037.14 503.712
815 0 69.187 13.0949 906 59.5408 1036.7 503.742
816 0 73.0587 14.2214 1039 58.5313 1037.04 499.402
817 0 73.0669 13.3303 974 59.6499 1036.64 499.671
818 0 77.1369 14.403 1111 58.4869 1037.02 498.349
819 0 79.1747 15.5479 1231 57.6556 1036.94 495.881
820 0 82.1629 13.8384 1137 59.3017 1036.95 495.776
821 0 87.1426 17.0181 1483 55.4558 1036.23 496.481
822 0 88.09 13.997 1233 59.3925 1036.1 492.276
823 0 91.1436 14.7899 1348 58.523 1036.16 492.824
824 0 95.1549 14.8705 1415 58.3491 1036.35 491.285
825 0 94.0868 14.5929 1373 59.2513 1036.94 491.288
826 0 99.0948 14.693 1456 59.2953 1037.31 487.698
827 0 102.172 13.4088 1370 60.3015 1036.78 489.565
828 0 105.215 13.8478 1457 59.9492 1036.76 488.804
829 0 109.284 15.4003 1683 58.5847 1036.85 486.418
830 1 55.0449 11.2454 619 62.7334 1036.56 512.126
831 0 57.0627 12.495 713 62.8794 1036.58 506.398
832 0 60.1027 12.4787 750 61.9747 1037.11 507.943
833 0 61.0285 15.2388 930 59.9419 1037.08 505.273
834 0 63.0789 11.3667 717 63.7601 1036.79 506.187
835 0 66.1131 12.161 804 63.3371 1036.75 504.755
836 0 68.2467 13.5098 922 61.8221 1036.65 501.181
837 0 72.135 13.3777 965 61.5409 1036.21 502.375
838 0 70.0963 12.811 898 63.1325 1036.19 501.354
839 0 76.1053 12.6535 963 62.9315 1036.03 499.282
840 0 77.1146 12.5009 964 63.7282 1036.54 497.971
841 0 82.1584 14.2043 1167 61.7584 1036.99 497.327
842 0 80.1874 12.371 992 64.4708 1037.05 497.354
843 0 86.1607 13.5909 1171 63.222 1036.54 494.431
844 0 90.1456 13.212 1191 63.5088 1036.45 494.578
845 0 91.1436 13.0015 1185 64.0945 1036.56 492.512
846 0 94.136 13.4061 1262 64.37 1036.99 489.896
847 0 96.1045 13.8183 1328 64.5218 1036.94 487.873
848 0 100.17 13.5369 1356 64.5229 1037.19 488.897
849 1 49.0863 14.668 720 62.7167 1036.59 511.701
850 0 50.0933 13.5148 677 63.935 1036.46 510.945
851 0 51.1155 11.9142 609 66.2972 1036.6 508.995
852 0 52.0742 12.5206 652 66.0491 1036.35 507.529
853 0 56.0537 14.2542 799 63.9337 1036.39 508.329
854 0 59.0694 14.0343 829 63.7129 1036.35 507.35
855 0 61.044 13.351 815 64.2147 1036.56 509.567
856 0 63.1745 13.6922 865 64.6578 1036.86 507.12
857 0 63.1879 12.9772 820 66.1024 1036.44 504.778
858 0 65.106 13.3935 872 65.9232 1036.34 504.607
859 0 67.0729 13.8357 928 65.6078 1036.78 504.362
860 0 71.2036 13.0752 931 66.2105 1035.76 502.272
861 0 74.2052 13.301 987 67.8541 1036.01 502.043
862 0 76.2033 13.9233 1061 66.737 1036.48 503.008
863 0 77.174 12.9448 999 68.5506 1035.97 499.744
864 0 78.1072 13.8784 1084 67.8755 1036.93 497.992
865 0 82.0799 14.4006 1182 67.0144 1037.11 496.582
866 0 84.1293 13.8596 1166 67.6338 1036.8 498.24
867 0 86.1825 13.367 1152 68.6007 1036.24 495.706
868 0 90.0876 13.2427 1193 68.8743 1037.01 494.058
869 0 89.1911 12.1425 1083 70.3693 1036.52 493.659
870 0 96.1177 15.1793 1459 66.3461 1036.85 490.629
871 1 47.0372 11.3102 532 70.0714 1036.16 513.286
872 0 50.0492 11.5686 579 69.1554 1036.35 513.72
873 0 52.1177 12.6828 661 68.1589 1036.05 512.572
874 0 51.2153 14.4293 739 66.9026 1036.67 511.713
875 0 51.0297 13.0904 668 68.9551 1036.23 511.975
876 0 55.058 10.498 578 70.6246 1035.78 513.178
877 0 56.0427 14.1678 794 66.8564 1036.46 510.025
878 0 58.098 13.1846 766 67.3982 1036.29 511.389
879 0 59.082 13.3036 786 67.5382 1036.11 509.841
880 0 62.0377 14.1205 876 67.0947 1036.24 507.244
881 0 65.1188 13.1759 858 68.19 1036.44 506.726
882 0 66.1539 13.4384 889 67.5298 1036.29 505.054
883 0 69.1247 13.8011 954 67.2966 1036.33 505.13
884 0 70.0588 12.6037 883 69.0125 1036.36 504.677
885 0 75.2387 14.4208 1085 54.2433 1035.89 506.136
886 0 75.0915 13.7699 1034 68.412 1036.89 500.11
887 0 78.105 13.5331 1057 68.2233 1036.8 500.18
888 0 79.2456 13.2373 1049 68.7941 1036.77 499.403
889 0 82.0491 12.2244 1003 69.7757 1036.79 497.195
890 0 85.0524 13.6622 1162 67.9923 1036.8 495.7
891 1 45.0504 13.1408 592 68.1791 1036.64 514.421
892 0 46.0573 13.2227 609 67.7455 1036.9 515.251
893 0 47.0579 11.454 539 70.3284 1037.02 513.599
894 0 46.0212 10.7559 495 71.9071 1036.68 514.044
895 0 51.0616 12.2009 623 69.4687 1036.73 512.067
896 0 51.0102 12.1348 619 70.0048 1036.58 512.187
897 0 53.0617 12.5891 668 69.1287 1037.05 511.615
898 0 55.0921 13.1779 726 69.1873 1037.25 509.617
899 0 54.0633 12.6148 682 71.0513 1037.09 508.367
900 0 58.1313 12.9018 750 69.536 1036.91 510.307
901 0 61.1656 12.3762 757 70.2272 1036.78 508.997
902 0 62.0974 12.3355 766 70.5927 1037.36 504.3
903 0 65.27 12.9156 843 69.7544 1037.49 505.446
904 0 67.1184 13.0218 874 70.0561 1037.77 505.259
905 0 67.1476 12.3608 830 71.1072 1037.4 504.47
906 0 72.2989 12.9739 938 69.484 1037.46 504.437
907 0 73.2103 12.4982 915 70.6153 1036.64 502.238
908 0 75.1276 13.3506 1003 69.8185 1037.8 502.511
909 0 78.0753 13.9096 1086 69.4788 1037.33 499.049
910 0 80.2528 12.6102 1012 70.6798 1037.62 500.928
911 0 83.0858 14.154 1176 68.7474 1038.28 498.821
912 1 41.0695 10.9814 451 73.3282 1038.41 516.922
913 0 43.119 13.6831 590 69.5186 1037.68 516.068
914 0 43.1231 13.4035 578 70.4394 1037.45 515.313
915 0 46.1418 12.3315 569 70.2917 1037.35 516.998
916 0 46.2068 11.2754 521 71.7716 1037.13 517.52
917 0 50.4166 13.3289 672 68.4926 1037.77 515.603
918 0 51.0628 13.924 711 67.9958 1036.72 513.785
919 0 52.1905 12.646 660 68.8 1036.16 515.948
920 0 52.0681 11.7538 612 71.6029 1036.72 513.386
921 0 55.094 12.9234 712 69.0506 1036.93 513.809
922 0 58.061 13.3136 773 67.9431 1036.47 512.643
923 0 62.1651 15.1693 943 64.3849 1036.17 512.777
924 0 62.0691 14.8061 919 65.9053 1036.51 510.47
925 0 65.1488 14.536 947 65.5776 1036.7 510.742
926 0 64.0708 12.6423 810 68.8469 1036.36 508.16
927 0 67.1382 12.1093 813 69.7565 1035.68 507.332
928 0 68.0522 13.5925 925 67.8541 1035.99 507.474
929 0 71.1752 13.7548 979 67.4168 1036.06 505.932
930 0 73.1507 13.6704 1000 67.903 1036.2 500.783
931 0 74.1089 12.3062 912 70.636 1037.02 500.958
932 0 76.1429 12.9625 987 69.5005 1036.78 501.379
933 0 78.155 13.2685 1037 69.4118 1037.21 497.131
934 1 42.0381 11.7037 492 71.3638 1036.57 515.047
935 0 42.0573 11.7697 495 71.7152 1037.06 514.095
936 0 45.0284 14.0134 631 68.1553 1036.74 514.116
937 0 44.0937 12.8136 565 69.8531 1035.9 516.278
938 0 47.3411 11.998 568 70.4137 1036.05 514.798
939 0 51.0615 12.6906 648 69.4707 1036.29 514.193
940 0 50.0316 13.3116 666 69.4955 1036.46 513.652
941 0 52.1313 12.9673 676 69.855 1036.62 512.657
942 0 55.1493 11.9675 660 70.5106 1036.92 512.615
943 0 56.1037 12.1561 682 70.2889 1036.26 510.387
944 0 58.0649 13.2094 767 68.8449 1037.43 510.698
945 0 59.1154 13.5498 801 68.9189 1036.95 505.916
946 0 59.1311 13.6815 809 69.0655 1037.64 505.666
947 0 64.3892 13.5426 872 68.2683 1037 504.861
948 0 65.0882 13.6891 891 68.5724 1036.9 504.283
949 0 66.1737 13.3437 883 68.6727 1037.2 504.678
950 0 71.1171 13.9629 993 67.5468 1036.89 501.483
951 0 74.0522 12.9368 958 69.0146 1036.96 500.193
952 0 76.1089 13.0208 991 68.5318 1037.18 498.558
953 0 78.0669 12.2971 960 69.8333 1037.32 495.311
954 0 79.1255 13.9146 1101 67.7748 1036.97 496.472
955 0 81.2355 13.7255 1115 67.8377 1036.88 497.31
956 0 84.0743 14.0709 1183 67.8343 1036.52 494.836
957 1 40.0665 11.8553 475 70.1495 1036.73 515.608
958 0 41.049 11.8152 485 70.4206 1036.55 514.862
959 0 42.0526 11.8899 500 70.476 1036.9 515.024
960 0 41.0287 11.2117 460 71.287 1037.67 515.1
961 0 44.0178 12.813 564 69.5479 1037.57 512.133
962 0 46.0683 12.9156 595 68.5479 1037.75 514.635
963 0 46.0497 13.3117 613 68.6949 1037.58 513.682
964 0 50.0816 14.1569 709 66.8068 1037.15 510.544
965 0 49.1072 14.5192 713 67.2805 1037.67 509.971
966 0 52.0752 14.0182 730 67.0699 1036.95 510.595
967 0 53.3776 14.6878 784 66.4617 1037.03 510.304
968 0 53.0595 14.3424 761 67.3167 1037.63 509.167
969 0 58.0721 13.311 773 67.674 1037.43 508.599
970 0 61.0425 13.9247 850 66.5553 1037.44 506.518
971 0 61.1608 14.2411 871 65.9116 1036.92 507.602
972 0 63.0368 13.7063 864 67.2824 1037.24 504.28
973 0 65.1255 13.3127 867 67.6505 1036.72 503.183
974 0 68.0632 14.3102 974 66.2628 1037.62 501.608
975 0 70.146 12.9729 910 67.489 1037.62 503.054
976 0 74.0568 14.3268 1061 65.8313 1037.29 500.391
977 0 75.1322 13.6692 1027 67.2814 1037.28 497.32
978 0 76.0367 14.4404 1098 66.5719 1036.85 496.608
979 0 78.0533 14.5285 1134 66.3439 1037.43 498.097
980 0 81.0691 15.2216 1234 65.4044 1038.14 495.596
981 0 85.0927 16.2059 1379 63.9732 1037.87 492.976
982 0 87.1103 13.6494 1189 66.5904 1037.29 494.644
983 1 44.0722 11.4585 505 67.2891 1037.4 516.376
984 0 43.0352 13.3844 576 66.8333 1037.23 514.16
985 0 46.1668 14.6642 677 65.0384 1037.69 511.678
986 0 48.0656 13.44 646 66.1053 1037.78 511.878
987 0 48.0647 14.3348 689 65.447 1037.5 512.251
988 0 50.0987 13.0343 653 66.611 1037.68 509.155
989 0 52.1776 11.9975 626 66.4936 1038.03 511.891
990 0 54.074 14.6836 794 63.7985 1038.07 509.198
991 0 57.1337 13.9847 799 63.9887 1037.75 508.605
992 0 58.0832 13.8594 805 64.5081 1037.65 507.922
993 0 60.0746 14.4487 868 64.2558 1037.68 504.908
994 0 61.1201 13.8089 844 65.1765 1037.77 506.136
995 0 64.1176 13.1789 845 65.6272 1037.57 503.714
996 0 66.0722 13.4701 890 66.0933 1037.74 502.727
997 0 69.1396 13.885 960 65.5146 1037.76 500.855
998 0 70.1053 12.0248 843 67.6963 1037.62 501.412
999 0 72.1013 12.746 919 66.8955 1037.57 501.579
1000 0 75.1542 12.5475 943 67.2322 1037.82 498.597
1001 0 78.0896 12.793 999 67.031 1038.05 496.69
1002 0 78.1498 11.9386 933 68.0204 1038.06 498.271
1003 0 83.1329 12.3898 1030 67.5515 1037.62 493.27
1004 0 86.1783 12.0912 1042 67.3004 1037.58 495.927
1005 0 89.136 12.9016 1150 66.7835 1037.4 490.05
1006 1 46.0553 12.029 554 65.6498 1037.58 513.31
1007 0 45.0875 11.2226 506 67.1957 1038.02 511.609
1008 0 48.0791 11.3979 548 67.4964 1037.43 510.641
1009 0 51.0825 13.2139 675 64.8681 1037.8 509.121
1010 0 52.0524 12.7948 666 65.5556 1038.41 507.884
1011 0 56.0861 13.8002 774 63.3075 1037.65 507.336
1012 0 54.0487 11.6191 628 66.6465 1037.66 506.538
1013 0 58.0544 12.4022 720 64.5417 1037.5 506.282
1014 0 60.0308 13.2599 796 63.5603 1037.11 503.143
1015 0 65.1355 14.324 933 61.2433 1037.56 506.12
1016 0 65.121 12.3002 801 63.7391 1037.21 505.698
1017 0 67.0619 12.3319 827 64.4099 1037.63 500.901
1018 0 68.0888 12.7187 866 63.9584 1037.3 500.906
1019 0 72.0772 12.2369 882 63.6281 1036.96 500.136
1020 0 74.0946 12.8484 952 63.7983 1037.21 498.361
1021 0 77.172 12.9192 997 63.8646 1037 496.661
1022 0 80.0904 12.2112 978 64.5665 1036.97 495.993
1023 0 81.1887 14.571 1183 62.0575 1036.92 496.003
1024 0 87.1226 13.1539 1146 63.2295 1036.93 493.523
1025 0 87.1925 12.2832 1071 64.2876 1036.75 491.068
1026 0 90.0761 12.9224 1164 63.7405 1036.48 492.329
1027 1 47.0828 11.0444 520 64.2154 1036.36 513.129
1028 0 49.0762 11.8795 583 63.3122 1036.27 513.449
1029 0 51.0312 12.8745 657 62.3455 1035.96 511.886
1030 0 51.0505 12.3995 633 63.9589 1035.82 507.864
1031 0 56.0618 11.737 658 64.0152 1035.76 509.995
1032 0 57.0854 12.7528 728 62.4602 1035.75 509.931
1033 0 58.0771 12.5179 727 62.9326 1035.75 507.037
1034 0 61.0886 12.9484 791 61.8774 1035.83 508.004
1035 0 64.075 12.4229 796 62.4736 1035.76 506.539
1036 0 64.1191 12.8355 823 62.6804 1035.86 504.656
1037 0 69.1215 13.6137 941 60.8087 1035.07 503.798
1038 0 71.0894 12.3506 878 63.3064 1035.22 500.56
1039 0 70.1225 11.6368 816 64.1091 1035.03 500.087
1040 0 75.1043 12.5825 945 62.4847 1035.1 499.982
1041 0 78.0846 12.4096 969 62.8648 1035.13 496.234
1042 0 79.1171 12.3109 974 62.8542 1035.2 498.499
1043 0 82.128 11.9691 983 63.3489 1035.79 496.602
1044 0 82.0955 12.7047 1043 62.9108 1035.69 494.151
1045 0 86.1067 12.4497 1072 62.9142 1035.63 493.601
1046 1 44.0579 9.85068 434 62.6889 1035.07 514.203
1047 0 46.0206 11.5818 533 61.9043 1035.79 513.411
1048 0 48.045 11.9888 576 61.2639 1035.42 511.28
1049 0 49.0866 11.0417 542 62.1624 1035.58 513
1050 0 52.0945 12.2854 640 60.5031 1034.99 509.953
1051 0 52.135 11.6045 605 61.2579 1035.07 511.448
1052 0 55.0314 13.247 729 60.0562 1035.22 509.123
1053 0 55.0339 10.8842 599 62.8464 1035.35 506.77
1054 0 58.0304 11.8214 686 61.0437 1035.33 506.873
1055 0 59.1228 11.7214 693 61.3983 1035.35 507.165
1056 0 62.0763 11.8886 738 60.9268 1034.81 502.676
1057 0 63.1427 11.4661 724 61.5304 1034.92 503.552
1058 0 65.0607 11.912 775 61.1406 1035.52 502.151
1059 0 68.1567 11.1801 762 61.1811 1035.47 500.499
1060 0 70.1 11.8688 832 60.8918 1035.28 497.204
1061 0 74.0651 11.6249 861 60.2276 1035.23 502.589
1062 0 76.0724 13.3688 1017 59.0639 1034.79 497.641
1063 0 78.2512 12.5365 981 59.9694 1036.02 495.812
1064 0 81.2832 11.5645 940 60.7 1035.58 495.913
1065 0 84.0919 9.87015 830 62.9518 1035.35 493.767
1066 1 44.1554 10.2819 454 59.2687 1035.83 516.39
1067 0 47.0394 10.842 510 58.3549 1035.6 514.586
1068 0 49.0435 12.0709 592 57.3615 1035.68 511.855
1069 0 49.0336 11.4411 561 58.8396 1036.16 513.093
1070 0 52.045 12.1818 634 57.4858 1035.56 512.792
1071 0 52.0707 10.9467 570 59.4053 1036.12 508.604
1072 0 53.0899 10.2656 545 59.3101 1036.59 509.839
1073 0 55.0237 10.7772 593 58.258 1036.12 510.02
1074 0 57.0636 10.1991 582 59.0584 1036.29 507.46
1075 0 59.0416 10.7382 634 57.4606 1035.96 506.808
1076 0 64.0886 10.7975 692 57.9046 1035.37 504.792
1077 0 63.0998 12.2504 773 56.4567 1035.44 505.587
1078 0 67.1175 11.1893 751 57.5313 1035.88 501.832
1079 0 69.1855 12.1702 842 56.4109 1035.82 498.702
1080 0 71.1509 13.0005 925 55.5676 1036.49 498.205
1081 0 74.1017 10.0807 747 57.6225 1036.24 500.992
1082 0 75.0777 11.4148 857 56.6138 1036.93 499.616
1083 0 80.0829 11.7378 940 55.8872 1036.68 499.152
1084 0 81.0653 10.7814 874 56.881 1036 495.446
1085 1 39.0924 10.8717 425 54.5718 1035.94 517.304
1086 0 41.0546 11.302 464 53.7823 1035.53 516.319
1087 0 44.0288 10.4931 462 54.0476 1035.34 516.292
1088 0 44.2305 12.5253 554 53.2726 1036 513.116
1089 0 48.0774 10.7743 518 53.9421 1036.31 515.776
1090 0 49.1057 10.2432 503 55.1213 1036.33 511.06
1091 0 48.2318 8.50061 410 57.4927 1036.71 512.559
1092 0 52.0766 10.6958 557 55.3591 1036.39 510.928
1093 0 53.0737 10.9282 580 55.2966 1036.95 511.445
1094 0 55.1774 12.6501 698 53.5043 1036.77 510.9
1095 0 56.0423 11.7054 656 54.3887 1036.96 506.279
1096 0 58.2713 10.9488 638 55.2241 1036.82 504.936
1097 0 61.0718 10.3157 630 55.4524 1036.53 503.325
1098 0 62.2242 11.4264 711 54.7075 1036.93 503.165
1099 0 62.0574 10.2808 638 55.4342 1036.1 503.718
1100 0 64.0808 10.9705 703 55.037 1037.41 500.43
1101 0 68.128 9.26198 631 56.0301 1037.1 497.721
1102 0 71.1353 10.2481 729 55.4458 1036.74 499.056
1103 0 72.1607 10.1856 735 55.7279 1036.37 496.863
1104 0 74.1352 11.8702 880 54.0261 1036.55 497.842
1105 1 37.0245 10.8847 403 52.3325 1036.44 518.337
1106 0 39.1128 11.2751 441 52.8345 1036.09 514.406
1107 0 37.035 10.9896 407 53.5823 1036.02 515.066
1108 0 41.096 9.78197 402 54.7537 1036.96 513.572
1109 0 43.0617 11.4022 491 53.0509 1036.89 513.029
1110 0 45.0714 11.5594 521 53.1804 1037.28 512.077
1111 0 46.2544 11.0692 512 53.6953 1037.17 510.838
1112 0 47.0812 12.7652 601 51.0383 1035.98 511.16
1113 0 46.0751 9.67986 446 55.4036 1036.37 511.5
1114 0 50.0305 10.8934 545 53.8752 1036.89 510.91
1115 0 52.1048 11.2274 585 53.8991 1036.79 509.227
1116 0 53.1166 11.5218 612 53.8382 1037.41 506.603
1117 0 54.104 11.94 646 53.3251 1036.94 508.376
1118 0 58.0593 12.005 697 53.5079 1037.48 503.584
1119 0 58.0837 11.9139 692 53.5867 1037.63 505.301
1120 0 62.1694 10.4231 648 54.3225 1037.67 506.63
1121 0 61.2024 10.7185 656 54.7851 1037.83 506.072
1122 0 63.1052 12.8357 810 52.9222 1037.29 502.853
1123 0 66.0831 11.5158 761 54.088 1036.95 500.806
1124 0 71.1371 12.989 924 52.5087 1037.37 501.482
1125 0 70.1427 11.3911 799 54.3054 1037.03 501.931
1126 0 71.0696 10.0324 713 56.4755 1036.71 499.008
1127 0 75.1308 12.2719 922 53.7028 1036.95 501.437
1128 0 77.0666 13.0017 1002 54.1178 1037 493.352
1129 1 39.0517 9.78191 382 56.2723 1036.62 514.317
1130 0 39.2006 11.4794 450 54.2111 1036.22 513.351
1131 0 41.0442 10.5496 433 55.06 1036.17 512.958
1132 0 42.0409 10.799 454 55.2709 1036.25 512.749
1133 0 47.2121 12.9628 612 51.7582 1036.58 515.376
1134 0 45.1505 10.1438 458 56.0655 1035.92 512.389
1135 0 46.0996 10.0652 464 56.4418 1035.94 509.134
1136 0 53.1439 12.7954 680 52.8765 1036.21 509.968
1137 0 52.1883 11.8226 617 54.6143 1036.34 509.851
1138 0 55.0518 10.9715 604 55.0199 1036.61 512.136
1139 0 53.0315 11.3329 601 55.5208 1037.02 510.717
1140 0 57.0283 11.9239 680 55.2794 1037 506.909
1141 0 58.1907 13.4729 784 53.9413 1037.29 506.69
1142 0 62.215 11.1709 695 55.6273 1037.81 506.082
1143 0 60.0943 11.6317 699 55.7997 1037.37 505.835
1144 0 64.0828 12.4682 799 55.1189 1036.27 502.174
1145 0 63.1027 12.1231 765 55.7072 1036.83 505.357
1146 0 66.078 12.8939 852 54.8392 1037.15 501.17
1147 0 65.0897 11.1385 725 57.5517 1037.05 499.719
1148 0 71.1413 13.1007 932 55.1588 1037.29 498.124
1149 0 71.1404 13.8037 982 55.2576 1037.92 497.423
1150 0 74.3192 12.0023 892 57.1267 1037.73 495.89
1151 0 75.0899 12.4251 933 56.7663 1037.55 498.121
1152 0 80.2537 14.18 1138 54.3902 1037.07 492.286
1153 0 79.2657 12.6032 999 56.6426 1037.53 497.385
1154 0 84.0806 12.2383 1029 56.9427 1037.21 492.532
1155 1 40.081 9.30616 373 59.0751 1036.83 513.965
1156 0 44.0373 11.1723 492 58.0325 1036.99 513.939
1157 0 45.0477 11.2769 508 57.9016 1037.24 513.343
1158 0 47.0346 11.8211 556 57.4712 1037.02 511.408
1159 0 49.0578 12.842 630 56.3381 1037.03 509.695
1160 0 50.0613 10.607 531 59.0207 1036.78 508.443
1161 0 53.1893 12.5025 665 56.9699 1036.85 507.078
1162 0 54.0927 11.2954 611 58.4681 1036.85 504.504
1163 0 58.1268 13.591 790 55.1696 1036.82 506.409
1164 0 59.1133 12.2477 724 56.7887 1036.8 506.884
1165 0 63.0358 13.6272 859 54.9162 1037.09 504.718
1166 0 61.134 11.6138 710 57.7986 1036.77 504.39
1167 0 67.0639 11.586 777 56.3784 1036.45 503.735
1168 0 68.0499 13.0639 889 55.6625 1037.27 500.422
1169 0 68.0966 13.5396 922 55.3959 1037.4 499.623
1170 0 71.0544 13.1026 931 55.4919 1037.29 501.345
1171 0 72.1958 14.1421 1021 54.3438 1037.58 497.566
1172 0 76.104 13.4159 1021 54.617 1037.13 497.528
1173 0 76.1614 12.8937 982 55.2699 1037.4 497.522
1174 0 80.1607 10.7409 861 57.2834 1037.34 495.672
1175 0 84.1576 14.8055 1246 53.3868 1037.69 493.527
1176 0 84.1106 12.9353 1088 55.3079 1037.02 496.051
1177 0 88.1561 13.2265 1166 55.1509 1037.67 491.534
1178 0 90.1556 11.0365 995 57.3548 1037.95 492.121
1179 0 94.3588 11.1807 1055 56.8654 1037.01 493.918
1180 1 49.0695 12.1257 595 56.0723 1036.78 511.582
1181 0 49.039 11.5622 567 58.2116 1036.53 506.522
1182 0 54.0849 14.7176 796 54.2123 1036.5 509.373
1183 0 53.1018 12.316 654 57.0902 1036.56 510.011
1184 0 56.1318 12.1678 683 57.2665 1036.72 506.807
1185 0 58.1472 13.1047 762 56.2927 1037 504.816
1186 0 59.0853 12.4904 738 56.9729 1036.81 505.515
1187 0 61.0541 12.7756 780 56.1103 1036.83 505.817
1188 0 65.1475 15.0274 979 53.6925 1036.75 503.379
1189 0 66.1355 12.4442 823 55.9939 1037.65 501.584
1190 0 67.1983 12.2771 825 56.1697 1037.15 502.998
1191 0 72.1541 12.6812 915 55.271 1036.93 501.645
1192 0 73.275 14.2477 1044 54.0967 1037.33 497.289
1193 0 75.1583 12.9992 977 55.1249 1037.45 498.507
1194 0 80.1274 14.115 1131 53.4562 1036.87 498.873
1195 0 82.1001 13.5932 1116 54.0896 1037.27 494.474
1196 0 85.1294 14.3311 1220 52.9639 1037.8 495.761
1197 0 86.1212 12.4824 1075 54.7926 1037.11 494.962
1198 0 86.1212 12.5056 1077 119.914 1036.11 494.973
1199 0 92.2245 11.4937 1060 55.9651 1037.1 491.642
1200 1 46.05 12.1173 558 55.0233 1037.32 513.145
1201 0 48.1052 11.5164 554 55.7671 1037.46 510.859
1202 0 47.0253 9.54805 449 58.2517 1037.39 509.098
1203 0 52.1103 10.2283 533 56.349 1037.56 510.139
1204 0 54.0637 11.246 608 55.8947 1037.47 507.271
1205 0 54.0712 12.539 678 54.7212 1037.73 508.308
1206 0 59.2327 13.3372 790 53.5797 1037.6 505.519
1207 0 58.1741 12.7204 740 54.173 1037.39 506.115
1208 0 64.1243 12.0859 775 54.4206 1037.38 504.083
1209 0 65.1874 12.6098 822 53.59 1037.41 505.564
1210 0 67.088 12.7445 855 54.1029 1037.63 499.363
1211 0 70.1667 13.3682 938 53.4574 1037.64 499.037
1212 0 72.1161 12.3967 894 54.3512 1037.8 499.174
1213 0 73.0774 14.0125 1024 53.041 1037.46 496.655
1214 0 77.0967 13.3339 1028 53.7101 1038.14 496.064
1215 0 79.1441 14.1893 1123 52.6794 1037.83 496.011
1216 0 83.1429 13.2663 1103 53.3191 1037.95 495.475
1217 0 84.3118 11.2084 945 55.2011 1037.57 492.601
1218 0 87.2661 11.379 993 55.0655 1037.97 495.105
1219 1 44.1428 11.0324 487 54.538 1037.91 513.107
1220 0 45.0706 10.1397 457 55.4114 1037.71 511.241
1221 0 47.1608 11.1321 525 55.0419 1037.68 511.88
1222 0 51.0751 9.02592 461 56.5705 1037.79 511.306
1223 0 51.0614 10.1642 519 56.2177 1037.87 505.669
1224 0 53.2289 11.7981 628 54.9745 1038.2 505.252
1225 0 56.0448 11.8477 664 54.7636 1038.17 504.602
1226 0 58.1114 12.2179 710 54.3563 1038.27 502.683
1227 0 59.2001 11.6216 688 55.1017 1038.75 501.424
1228 0 63.1619 10.6393 672 55.5521 1038.2 500.652
1229 0 63.1804 12.5988 796 54.2462 1038.04 500.504
1230 0 66.1453 10.4165 689 55.6952 1037.75 501.553
1231 0 68.2639 12.5982 860 54.1477 1038.1 499.186
1232 0 72.2521 10.671 771 55.1492 1038.05 498.479
1233 0 73.1272 12.7996 936 54.078 1038.26 491.272
1234 0 74.2723 9.19589 683 57.4143 1037.9 492.966
1235 0 80.1115 10.8848 872 56.1479 1038.8 491.267
1236 0 82.1406 10.2751 844 56.3697 1038.48 492.281
1237 0 85.0733 10.6849 909 56.1243 1037.75 486.614
1238 0 87.1077 10.7338 935 56.0824 1038.02 488.892
1239 1 46.0892 10.6099 489 55.6585 1038.36 508.129
1240 0 47.1041 10.3388 487 55.9487 1038.19 509.306
1241 0 47.1974 9.32254 440 57.0364 1038.14 508.739
1242 0 49.0789 12.6123 619 54.7787 1038.14 506.548
1243 0 51.062 12.5142 639 55.0876 1038.27 504.485
1244 0 54.1498 12.9086 699 54.5393 1038.1 505.828
1245 0 54.2282 11.009 597 56.0452 1037.62 503.901
1246 0 58.1979 13.7462 800 54.0312 1038.43 500.941
1247 0 60.1211 10.1795 612 56.531 1038.47 499.778
1248 0 60.0761 11.9682 719 55.8818 1038.06 500.623
1249 0 62.07 13.0981 813 54.6236 1037.57 501.125
1250 0 66.2104 11.8713 786 55.8626 1037.69 499.833
1251 0 68.2193 12.6504 863 54.905 1038.11 496.368
1252 0 71.1752 11.5209 820 56.5037 1037.84 495.571
1253 0 74.0523 10.344 766 57.3303 1038.16 495.151
1254 0 76.1078 10.6559 811 57.6658 1037.91 493.587
1255 0 77.1494 8.04932 621 59.7987 1038.23 494.573
1256 0 82.1974 13.1513 1081 55.2451 1038.57 494.049
1257 0 84.3333 12.7352 1074 56.4153 1037.86 487.492
1258 1 45.0187 10.5067 473 57.9006 1037.28 508.328
1259 0 45.0378 11.3682 512 57.7715 1037.13 509.219
1260 0 49.1009 15.0303 738 54.4336 1037.33 508.278
1261 0 51.0776 15.3492 784 54.2398 1037.34 505.204
1262 0 51.0607 11.8486 605 57.7455 1037.47 504.612
1263 0 54.1222 13.5804 735 56.3782 1037.19 502.974
1264 0 56.253 13.8304 778 55.6517 1037.79 503.814
1265 0 57.0925 14.3802 821 55.7467 1037.83 501.981
1266 0 60.1982 13.0403 785 56.9656 1037.42 501.595
1267 0 60.1589 12.2176 735 58.0626 1037.68 500.086
1268 0 64.088 12.0303 771 58.1102 1037.67 499.637
1269 0 66.0782 12.3187 814 57.8686 1037.63 496.475
1270 0 71.0883 12.0976 860 57.8837 1037.32 497.222
1271 0 70.0501 12.02 842 57.9228 1037.6 497.923
1272 0 75.2213 13.4935 1015 56.265 1037.53 493.861
1273 0 77.1114 12.4625 961 56.9657 1037.25 495.337
1274 0 79.1013 11.2261 888 58.7421 1036.88 491.061
1275 0 82.1661 12.1096 995 58.1397 1036.95 487.907
1276 0 86.1973 12.425 1071 57.5752 1037.15 488.664
1277 0 90.1284 11.4392 1031 57.5141 1037.66 493.531
1278 0 90.1124 12.1626 1096 58.2026 1037.98 485.761
1279 1 46.1188 11.0584 510 58.8706 1037.4 508.72
1280 0 46.0612 10.8334 499 59.2565 1037.52 509.459
1281 0 51.0497 12.2234 624 58.141 1037.44 507.141
1282 0 51.0268 13.2871 678 57.7758 1038.22 504.826
1283 0 52.0451 11.5285 600 58.8633 1037.85 506.14
1284 0 55.0157 12.1056 666 58.4369 1037.59 503.155
1285 0 57.0812 13.9275 795 56.4314 1037.89 503.364
1286 0 60.0999 15.6739 942 54.4416 1037.96 502.55
1287 0 61.0864 13.7347 839 56.3242 1037.93 500.501
1288 0 63.0519 11.546 728 58.5508 1037.62 495.712
1289 0 66.3358 12.5121 830 57.6819 1037.23 497.587
1290 0 67.0888 12.7145 853 57.4959 1038.16 496.665
1291 0 70.1257 11.4509 803 58.406 1038.49 493.721
1292 0 74.0967 11.7009 867 57.7797 1037.66 492.708
1293 0 74.1407 11.5186 854 59.041 1037.64 492.156
1294 0 77.1212 11.1513 860 58.714 1036.84 493.65
1295 0 81.1236 11.3654 922 58.4729 1037.31 492.178
1296 0 85.151 12.7068 1082 57.0499 1037.73 489.004
1297 0 89.1419 14.1796 1264 55.5665 1038.35 488.2
1298 0 85.1955 12.3833 1055 58.0047 1036.89 486.654
1299 0 93.225 13.4621 1255 56.4725 1036.89 484.039
1300 0 94.1683 13.3378 1256 56.8925 1037.38 483.443
1301 0 97.1908 11.781 1145 58.276 1037 478.306
1302 0 104.162 11.2421 1171 58.4876 1037.6 479.056
1303 0 106.221 10.4781 1113 59.0656 1037.48 481.722
1304 0 110.193 13.1496 1449 56.4845 1037.97 476.436
1305 0 113.142 13.3107 1506 56.0618 1037.95 471.701
1306 0 116.069 11.5621 1342 57.9449 1038.05 474.73
1307 1 58.0448 7.83877 455 59.8286 1036.88 502.71
1308 0 60.0661 10.4385 627 57.6172 1037.31 500.322
1309 0 61.1775 10.6575 652 57.638 1038.19 497.736
1310 0 64.1131 12.3844 794 55.6965 1038.16 495.36
1311 0 69.1232 11.6603 806 55.9107 1038.13 496.303
1312 0 66.0535 11.4301 755 56.9364 1038.15 493.35
1313 0 69.1142 10.895 753 57.0943 1038.36 492.942
1314 0 73.1406 11.2386 822 56.5779 1037.73 488.191
1315 0 79.1788 11.6445 922 55.4696 1038 491.625
1316 0 81.073 12.5813 1020 54.8294 1037.95 489.679
1317 0 83.2019 12.1872 1014 55.0049 1038.32 490.55
1318 0 87.0634 14.0358 1222 53.1154 1038.13 487.454
1319 0 91.2097 11.9505 1090 54.9697 1037.6 485.347
1320 0 94.1893 13.0907 1233 53.9148 1037.59 485.058
1321 0 94.1225 11.0813 1043 55.7689 1037.94 482.79
1322 0 100.109 12.4465 1246 54.2343 1037.44 483.266
1323 0 103.235 14.065 1452 53.3113 1037.26 480.47
1324 0 105.171 13.1881 1387 54.5955 1038.54 475.723
1325 0 116.087 11.2071 1301 55.4189 1038.08 477.266
1326 0 114.08 12.053 1375 55.392 1037.75 470.847
1327 0 117.068 12.5397 1468 54.6233 1037.69 474.655
1328 1 64.0564 9.71019 622 55.7685 1037.73 496.326
1329 0 66.0386 11.2661 744 54.0726 1038.09 498.519
1330 0 68.0521 11.5647 787 54.7713 1038.42 495.95
1331 0 72.0685 10.5871 763 54.9161 1038.2 497.689
1332 0 75.1295 11.8329 889 54.0799 1038.25 496.246
1333 0 77.1045 10.168 784 55.8533 1038.48 494.833
1334 0 79.0945 12.8454 1016 53.9488 1038.29 491.447
1335 0 80.113 14.4047 1154 53.0035 1038.25 490.476
1336 0 85.0858 12.0349 1024 54.5986 1037.95 487.889
1337 0 90.1226 13.2042 1190 52.8588 1038.23 489.971
1338 0 89.0964 12.4135 1106 54.5425 1038.09 487.029
1339 0 95.2025 11.7959 1123 54.4105 1038.52 487.347
1340 0 97.2579 12.5543 1221 53.7002 1038.29 488.056
1341 0 99.0602 11.4577 1135 55.0396 1038.18 482.693
1342 0 102.129 11.652 1190 54.9866 1037.97 482.299
1343 0 107.113 11.9127 1276 54.587 1037.24 479.38
1344 0 111.165 12.9987 1445 53.0048 1037.77 482.806
1345 0 113.119 11.3332 1282 55.2449 1037.85 477.37
1346 1 62.1065 12.543 779 52.1592 1036.8 503.381
1347 0 64.0938 12.9342 829 51.7431 1037.48 502.51
1348 0 68.041 13.0804 890 51.3933 1037.76 500.572
1349 0 68.1486 12.5901 858 52.451 1038.62 497.275
1350 0 67.0616 11.1241 746 53.3633 1037.97 497.217
1351 0 71.1402 10.2614 730 54.2041 1038 495.142
1352 0 73.07 11.5506 844 53.1445 1037.78 494.716
1353 0 76.2536 12.7994 976 51.4662 1037.99 496.66
1354 0 80.0726 11.1024 889 52.4544 1037.4 493.216
1355 0 81.0673 11.1389 903 52.804 1037.3 489.145
1356 0 84.1344 10.9349 920 52.4185 1036.96 493.573
1357 0 82.0731 10.5516 866 53.7113 1037.6 489.218
1358 0 87.0589 12.1757 1060 52.0434 1037.37 489.315
1359 0 90.1681 11.168 1007 52.577 1037.39 487.495
1360 0 92.1075 10.2272 942 53.1783 1037.36 491.412
1361 0 97.1079 12.6251 1226 51.6949 1037.74 485.139
1362 0 96.1239 11.3603 1092 53.1786 1037.52 485.638
1363 0 101.19 10.0702 1019 53.473 1037.57 482.775
1364 0 103.114 9.41676 971 54.5386 1036.8 476.589
1365 1 51.0708 10.9064 557 51.7002 1036.98 505.774
1366 0 54.0727 10.8742 588 51.7602 1036.88 504.25
1367 0 55.0516 9.13688 503 53.0398 1036.71 504.378
1368 0 59.1252 10.2663 607 51.9341 1037.39 502.328
1369 0 58.1567 11.8817 691 51.2041 1037.84 500.713
1370 0 60.0676 10.6047 637 52.2308 1037.81 498.443
1371 0 64.3091 11.6935 752 50.5612 1037.37 502.746
1372 0 64.1218 11.1039 712 51.6643 1036.6 498.091
1373 0 64.2228 10.0276 644 52.514 1037.08 497.767
1374 0 70.2969 12.9166 908 49.6971 1037.1 496.847
1375 0 71.0928 10.3808 738 52.019 1037.16 496.262
1376 0 75.1509 11.4969 864 50.5579 1037.3 491.8
1377 0 76.0474 13.8861 1056 49.0473 1037.02 492.206
1378 0 79.0872 11.4304 904 50.8728 1036.85 491.472
1379 0 80.2209 12.665 1016 50.0443 1036.73 489.994
1380 0 85.187 12.5606 1070 50.0944 1037.13 489.296
1381 1 44.0704 9.25791 408 53.9461 1036.98 511.186
1382 0 46.0773 10.3305 476 52.7857 1037.15 510.565
1383 0 47.1053 9.70166 457 53.6346 1037.26 507.155
1384 0 51.0405 11.0109 562 52.3541 1037.06 507.258
1385 0 51.0918 10.0016 511 53.6321 1037.53 507.131
1386 0 53.0847 10.1159 537 53.3203 1037.98 506.702
1387 0 56.0839 11.1797 627 52.4609 1036.51 503.656
1388 0 59.0393 11.9412 705 51.956 1036.62 501.201
1389 0 57.027 7.06683 403 55.9305 1037.18 505.65
1390 0 63.0803 12.9676 818 51.5807 1036.97 505.202
1391 0 64.0496 12.2405 784 52.5778 1037.2 501.739
1392 0 67.1184 11.8 792 52.8662 1037.38 500.167
1393 0 68.0875 12.763 869 52.7146 1037.77 496.567
1394 0 67.0711 8.33444 559 56.449 1037.51 500.657
1395 0 71.1291 10.0521 715 55.8 1037.21 497.206
1396 0 75.0783 13.719 1030 53.1107 1037.64 496.248
1397 0 78.1582 13.1272 1026 53.5156 1037.84 495.793
1398 0 80.0954 12.0606 966 54.9327 1037.13 496.566
1399 0 83.154 11.7854 980 55.5908 1036.8 494.127
1400 0 88.2696 12.3599 1091 55.1366 1036.08 493.059
1401 0 88.1318 12.3678 1090 55.4982 1037.2 494.06
1402 0 92.1124 12.463 1148 55.6742 1037.07 491.474
1403 0 95.1177 12.4372 1183 56.1124 1037.34 488.322
1404 0 99.3611 13.617 1353 55.0613 1036.87 487.829
1405 1 45.0661 10.6288 479 57.6994 1037.18 512.887
1406 0 46.0386 13.4018 617 55.9352 1036.96 511.288
1407 0 47.0575 14.7267 693 55.2121 1037.44 513.283
1408 0 51.0652 11.0643 565 57.8938 1037.31 514.526
1409 0 51.0374 14.558 743 55.4872 1036.58 510.934
1410 0 55.1823 12.4134 685 57.1664 1037.31 509.472
1411 0 53.103 12.0709 641 58.064 1037.66 508.797
1412 0 57.0547 13.5133 771 56.7056 1036.85 507.327
1413 0 57.0544 10.8318 618 59.1036 1037.04 507.544
1414 0 61.1595 14.2414 871 55.9059 1037.17 506.166
1415 0 63.3193 12.3027 779 57.7214 1037.16 504.911
1416 0 64.1868 12.6506 812 57.5012 1037.24 505.298
1417 0 67.1813 12.4886 839 57.4851 1037.8 502.685
1418 0 70.1404 14.1573 993 56.1712 1037.69 501.485
1419 0 72.1762 12.8297 926 57.1695 1037.24 503.387
1420 0 75.2214 15.3813 1157 55.3328 1037.61 498.463
1421 0 75.1094 13.1941 991 57.8295 1037.78 498.938
1422 0 81.122 14.2132 1153 56.673 1037.46 499.342
1423 0 81.0856 14.9595 1213 56.1764 1037.91 498.674
1424 0 84.2296 13.6413 1149 57.3168 1037.52 496.466
1425 0 88.1906 15.0356 1326 56.1056 1037.95 495.196
1426 0 89.2735 14.8644 1327 56.3708 1037.76 494.255
1427 0 92.1389 13.4254 1237 58.0606 1037.74 492.314
1428 0 96.1372 13.0335 1253 58.4246 1037.7 488.628
1429 1 51.1207 12.6563 647 59.1391 1037.68 508.895
1430 0 56.2908 14.6205 823 55.904 1037.54 512.807
1431 0 56.1374 13.4135 753 57.9588 1037.56 508.276
1432 0 58.1254 13.5741 789 58.3701 1037.79 509.068
1433 0 61.0912 14.1919 867 58.0957 1038.19 507.46
1434 0 62.2188 12.1185 754 59.7255 1037.92 506.034
1435 0 63.041 11.5163 726 60.814 1037.81 503.515
1436 0 64.0618 12.0665 773 60.5744 1037.83 504.062
1437 0 66.1433 12.2461 810 60.6864 1037.87 502.767
1438 0 69.2853 11.7918 817 60.8715 1037.89 500.94
1439 0 74.4679 15.1072 1125 57.0418 1037.92 501.402
1440 0 78.4046 13.1497 1031 59.0407 1037.64 501.248
1441 0 77.2035 11.8388 914 61.209 1037.93 499.421
1442 0 78.1959 12.6221 987 60.6018 1037.73 496.732
1443 0 82.4581 13.8616 1143 59.4392 1037.3 493.343
1444 0 84.228 13.6653 1151 59.5369 1038.06 496.215
1445 0 89.2731 13.6099 1215 59.2617 1037.56 495.371
1446 0 89.4177 12.9616 1159 60.7593 1037.51 493.911
1447 0 96.4887 13.3798 1291 60.2177 1037.9 490.52
1448 1 47.1898 11.3796 537 61.5382 1037.56 513.464
1449 0 47.099 9.23587 435 64.623 1037.59 511.405
1450 0 49.1679 11.0641 544 63.068 1037.36 511.243
1451 0 53.3156 12.5479 669 61.3976 1037.89 508.646
1452 0 56.1896 10.8383 609 62.913 1037.27 508.79
1453 0 57.2486 13.4676 771 59.8807 1037.55 508.877
1454 0 59.2849 12.4652 739 60.2476 1037.67 507.816
1455 0 63.3714 13.9337 883 58.231 1036.75 507.121
1456 0 64.3145 13.1697 847 58.4793 1037.73 506.793
1457 0 67.1978 13.9439 937 57.5048 1037.59 505.097
1458 0 69.0946 13.2572 916 58.0218 1037.18 502.322
1459 0 68.1406 10.2876 701 61.4165 1037.41 500.262
1460 0 73.1665 13.1481 962 58.1071 1037.84 502.015
1461 0 71.3335 12.0841 862 59.8503 1037.7 495.904
1462 0 77.0757 14.2587 1099 57.2147 1037.57 498.03
1463 0 80.4601 13.7335 1105 57.8842 1037.39 493.505
1464 0 84.1476 11.7294 987 59.7275 1037.64 495.932
1465 0 87.103 12.9846 1131 58.3563 1036.96 493.358
1466 0 88.0801 12.341 1087 59.0718 1036.98 489.83
1467 0 91.0898 11.7357 1069 59.6464 1037.4 488.493
1468 1 47.1047 12.6739 597 58.9564 1037.31 510.092
1469 0 48.0557 12.3398 593 59.7218 1037.2 509.599
1470 0 49.0426 12.3158 604 60.0712 1036.53 508.762
1471 0 48.0263 9.80712 471 62.5648 1037.31 507.928
1472 0 53.0687 12.9078 685 59.1562 1037.65 507.343
1473 0 56.0816 11.9647 671 59.3696 1037.61 508.122
1474 0 59.08 11.8314 699 59.6881 1037.22 506.18
1475 0 55.1061 10.7792 594 61.7744 1037.27 505.318
1476 0 60.1385 11.8227 711 59.9522 1037.36 501.693
1477 0 60.0378 9.61061 577 62.6205 1037.31 501.237
1478 0 65.1129 12.4246 809 59.2237 1036.97 501.487
1479 0 68.1672 13.8923 947 58.4013 1037.43 497.405
1480 0 68.0874 11.9846 816 60.598 1037.07 499.499
1481 0 72.2611 14.0324 1014 58.4813 1037.98 499.199
1482 0 77.1217 12.8628 992 58.4708 1037.76 500.7
1483 0 79.3529 13.4967 1071 58.9337 1037.27 495.35
1484 0 79.1112 11.5913 917 61.4198 1037.17 493.919
1485 0 81.1978 12.3279 1001 60.4695 1037.19 494.562
1486 0 87.2252 13.0582 1139 59.5768 1037.53 492.838
1487 1 43.2123 12.6816 548 59.4836 1037.14 513.577
1488 0 43.1819 12.9684 560 58.7054 1037.45 515.38
1489 0 46.2855 12.4013 574 59.446 1037.82 514.439
1490 0 48.1527 15.1186 728 56.9437 1038.13 512.522
1491 0 48.0684 12.0869 581 61.0585 1037.2 509.621
1492 0 49.1096 13.0524 641 59.8066 1037.22 509.693
1493 0 51.0685 13.9812 714 58.5238 1037.15 509.368
1494 0 52.0374 13.7593 716 58.9539 1037.19 509.325
1495 0 54.0502 14.024 758 58.9314 1036.83 507.016
1496 0 57.1028 14.4651 826 57.9346 1037.15 507.992
1497 0 58.1145 13.4046 779 58.9525 1037.66 507.478
1498 0 60.1392 11.7394 706 60.2309 1037.22 505.678
1499 0 60.0906 12.8805 774 59.6085 1037.62 505.182
1500 0 63.0548 13.2107 833 59.4118 1036.73 504.39
1501 0 67.2522 16.6983 1123 46.2297 1037.47 503.316
1502 0 68.259 14.9138 1018 57.444 1037 500.899
1503 0 70.0832 13.3841 938 58.9286 1037.11 499.912
1504 0 70.1299 13.6176 955 58.6628 1037.21 499.27
1505 0 73.1711 12.3956 907 59.5303 1037.28 497.302
1506 0 76.2206 12.6344 963 59.3967 1037.71 496.486
1507 0 77.1195 13.2781 1024 58.8721 1037.93 496.295
1508 0 82.3092 12.6353 1040 58.5337 1037.06 495.763
1509 0 83.152 12.2186 1016 59 1036.58 494.947
1510 0 87.1459 13.8274 1205 57.849 1037.47 492.057
1511 0 88.1596 13.2033 1164 58.2586 1037.05 492.253
1512 0 90.1436 15.1536 1366 56.6779 1037.29 486.56
1513 0 92.1128 9.81405 904 61.1648 1037.53 486.773
1514 0 97.2267 12.836 1248 58.2644 1037.44 487.285
1515 0 100.107 13.1259 1314 58.5084 1037.65 481.648
1516 1 50.0767 13.1997 661 57.7171 1037.83 508.008
1517 0 51.1853 11.9761 613 58.2398 1037.3 507.651
1518 0 53.0915 12.3749 657 58.6606 1037.49 506.534
1519 0 55.0788 12.7454 702 58.9886 1037.11 505.071
1520 0 58.0514 13.2813 771 58.07 1036.92 503.104
1521 0 60.0559 14.3699 863 56.9641 1037.78 505.059
1522 0 62.1527 11.3913 708 59.8093 1037.4 500.116
1523 0 65.0494 12.6827 825 58.1273 1037.96 500.664
1524 0 67.1087 11.8912 798 59.2243 1037.38 499.951
1525 0 68.0858 12.7633 869 58.5132 1037.42 500.953
1526 0 68.0336 12.4203 845 59.1751 1037.79 496.607
1527 0 75.1591 13.5047 1015 56.7813 1037.94 497.651
1528 0 78.2032 11.0098 861 58.6771 1037.03 497.87
1529 0 80.0966 12.5723 1007 57.8272 1037.2 494.599
1530 0 83.1763 12.191 1014 58.1884 1037.41 496.765
1531 0 87.1174 13.4646 1173 57.1066 1037.4 492.228
1532 0 87.0888 14.7206 1282 56.0328 1037.18 489.024
1533 0 89.0525 11.409 1016 58.7825 1037.21 490.389
1534 1 45.0527 12.785 576 57.5538 1037.7 512.243
1535 0 46.0456 12.2705 565 57.9487 1037.48 512.016
1536 0 47.0809 11.3634 535 59.4187 1038.2 509.843
1537 0 52.2878 12.6607 662 57.0317 1037.34 509.905
1538 0 53.1587 10.4969 558 58.8333 1037.49 508.453
1539 0 52.1195 12.644 659 57.7951 1037.11 506.319
1540 0 56.1229 13.1141 736 56.6997 1037.13 503.548
1541 0 59.0715 12.7303 752 57.3112 1037.57 501.528
1542 0 59.0902 12.9802 767 56.9361 1037.61 503.807
1543 0 64.2081 13.8145 887 55.1747 1037.61 506.085
1544 0 63.0656 12.3522 779 57.6585 1037.38 498.976
1545 0 66.1926 14.3823 952 55.5998 1037.59 499.664
1546 0 68.0819 14.5119 988 55.6953 1038.38 498.722
1547 0 69.0757 13.0581 902 56.7849 1037.53 498.214
1548 0 72.0466 11.1317 802 57.9277 1037.86 499.344
1549 0 76.186 13.5064 1029 56.0865 1038.28 496.542
1550 0 75.139 12.1641 914 57.8862 1038.14 495.332
1551 0 80.1422 14.5367 1165 55.5185 1037.75 493.468
1552 0 83.0487 13.0646 1085 56.6221 1038.07 490.555
1553 0 84.0789 13.7014 1152 56.1832 1037.49 489.576
1554 0 86.2165 13.2225 1140 56.8202 1037.77 489.467
1555 0 89.344 14.8303 1325 55.2309 1037.09 483.084
1556 0 90.0861 11.8664 1069 58.4144 1038.1 487.031
1557 0 95.1803 12.6287 1202 57.0008 1037.76 488.141
1558 0 98.1597 13.5086 1326 56.2179 1037.89 488.103
1559 0 100.138 12.6525 1267 57.2463 1038.32 487.767
1560 0 101.156 12.288 1243 58.1175 1037.26 482.74
1561 0 107.434 11.7653 1264 58.4984 1037.43 483.966
1562 1 60.2283 13.5485 816 58.0797 1037.14 502.797
1563 0 62.1447 13.9513 867 58.5963 1036.91 501.42
1564 0 65.0279 12.3024 800 60.065 1036.65 501.916
1565 0 68.1161 11.084 755 60.7007 1037.26 503.626
1566 0 71.1429 16.2349 1155 56.3706 1037.58 497.983
1567 0 72.0981 12.9407 933 59.7063 1037.09 495.417
1568 0 75.2054 14.1213 1062 58.7731 1037.04 498.125
1569 0 78.1297 13.772 1076 59.5037 1036.8 495.814
1570 0 80.0481 13.8167 1106 60.2839 1036.9 492.55
1571 0 82.2185 14.1817 1166 59.9048 1036.8 494.371
1572 0 85.1374 12.1803 1037 62.2189 1037.67 489.518
1573 0 86.063 13.3042 1145 61.2576 1037.62 489.155
1574 0 92.1806 13.2891 1225 61.0686 1037.72 488.437
1575 0 96.051 12.2227 1174 62.4284 1037.65 487.411
1576 0 98.2245 14.3345 1408 60.4226 1037.68 486.956
1577 0 100.099 12.0381 1205 63.9095 1036.88 482.373
1578 0 102.209 13.5702 1387 62.6496 1037.72 484.221
1579 0 107.14 14.4297 1546 61.4411 1037.23 482.232
1580 0 109.127 12.8658 1404 63.4031 1037.12 481.52
1581 1 52.0594 11.8134 615 64.9431 1037.53 507.772
1582 0 53.0281 11.8616 629 65.3529 1037.22 504.843
1583 0 55.2047 11.9374 659 65.1775 1037.24 505.754
1584 0 58.0406 13.2149 767 63.6467 1037.45 505.958
1585 0 62.0804 11.7912 732 64.2514 1037.11 507.613
1586 0 62.1032 13.9445 866 62.6443 1037.01 504.512
1587 0 66.0276 14.5848 963 61.7934 1037.37 502.532
1588 0 68.0372 16.638 1132 59.0539 1036.75 503.144
1589 0 69.0602 14.4367 997 62.1605 1036.81 500.985
1590 0 72.0595 14.3354 1033 61.91 1037.27 499.335
1591 0 73.1754 14.4721 1059 62.5061 1036.68 496.047
1592 0 72.0536 12.4213 895 65.1698 1037.18 495.246
1593 0 76.0988 12.6283 961 64.9011 1037.2 494.687
1594 0 77.1488 13.4934 1041 63.8223 1036.63 495.489
1595 0 81.1071 14.4624 1173 62.526 1037.07 492.185
1596 0 85.1186 13.6163 1159 63.0828 1036.98 492.952
1597 0 85.0449 14.0867 1198 62.904 1036.66 491.573
1598 0 89.1424 15.4921 1381 61.3157 1036.92 489.133
1599 0 93.1688 13.8566 1291 62.9202 1036.63 489.474
1600 0 95.2729 14.4322 1375 61.9076 1036.79 490.537
1601 0 97.0567 15.0324 1459 61.8958 1037.12 484.642
1602 0 102.143 13.5986 1389 62.4579 1036.96 487.862
1603 0 104.236 14.7838 1541 61.7034 1037.43 479.766
1604 0 105.138 13.858 1457 63.059 1037.94 482.683
1605 0 110.164 15.023 1655 61.864 1036.96 478.741
1606 0 114.106 14.8108 1690 61.9107 1037.36 481.166
1607 0 116.196 14.5961 1696 62.5436 1036.85 480.128
1608 0 121.094 14.0056 1696 62.7158 1036.3 479.89
1609 0 124.165 14.4485 1794 62.1589 1037.22 479.415
1610 1 70.0558 13.0467 914 63.7735 1037.53 503.4
1611 0 72.0959 13.274 957 63.7837 1037.38 502.65
1612 0 74.1098 12.5489 930 64.8978 1036.84 498.484
1613 0 77.0577 14.0025 1079 63.0185 1036.43 499.551
1614 0 79.2162 14.8202 1174 62.1499 1036.39 496.71
1615 0 78.2314 13.2428 1036 64.5936 1036.99 497.011
1616 0 84.1136 14.1 1186 63.3094 1036.61 495.553
1617 0 85.2716 14.7998 1262 62.7179 1036.63 492.803
1618 0 89.2416 14.2534 1272 63.0668 1037.06 491.419
1619 0 93.2088 13.8399 1290 63.0233 1037.02 491.455
1620 0 91.1805 12.9852 1184 65.2796 1037.32 487.209
1621 0 96.0914 14.122 1357 63.2343 1037.36 487.158
1622 0 99.2124 15.0989 1498 62.5594 1037.25 485.854
1623 0 102.119 14.16 1446 63.0332 1037.07 486.674
1624 0 105.128 14.021 1474 63.9498 1037.65 482.404
1625 0 108.195 14.3074 1548 62.989 1037.77 483.863
1626 0 114.131 14.6236 1669 51.2217 1036.95 486.756
1627 1 53.0331 11.7097 621 65.6361 1036.93 509.469
1628 0 59.0774 13.1522 777 64.5405 1037.55 506.037
1629 0 59.0266 12.3334 728 64.8462 1037.5 507.305
1630 0 59.1081 14.2789 844 64.346 1036.89 505.231
1631 0 62.1632 13.9954 870 64.369 1037.25 504.443
1632 0 62.1014 12.8177 796 66.7098 1037.67 503.857
1633 0 63.0759 12.3344 778 67.9177 1036.78 501.952
1634 0 66.0916 14.3135 946 65.1765 1037.45 500.948
1635 0 64.0959 12.4189 796 68.4121 1037.1 499.122
1636 0 68.093 14.1865 966 65.7743 1037.01 500.108
1637 0 72.3891 11.7145 848 68.5708 1036.91 497.662
1638 0 75.1465 14.3985 1082 65.2569 1037.45 495.346
1639 0 76.0698 14.513 1104 65.6993 1037.04 497.651
1640 0 78.0555 15.015 1172 65.0205 1036.66 493.62
1641 0 81.0907 14.9586 1213 64.9604 1037.42 492.927
1642 0 82.085 14.3997 1182 66.2437 1036.65 491.666
1643 0 84.1613 14.5791 1227 66.11 1036.89 491.236
1644 0 87.1761 14.2929 1246 66.6043 1037.07 490.455
1645 0 91.0605 14.7704 1345 65.4914 1037.32 490.547
1646 0 92.1606 13.4005 1235 67.281 1037.09 491.3
1647 0 93.1459 13.656 1272 67.6069 1037.49 486.909
1648 0 94.1121 12.8039 1205 68.6183 1037.98 487.018
1649 0 99.1011 13.6225 1350 67.3593 1037.02 488.168
1650 0 100.078 13.0199 1303 68.8342 1037.19 482.503
1651 0 106.187 12.7134 1350 68.8933 1037.65 483.073
1652 0 108.111 16.2426 1756 65.2574 1037.45 480.704
1653 1 57.1006 14.1855 810 68.058 1036.83 505.122
1654 0 61.066 12.7567 779 69.6804 1037.37 503.805
1655 0 64.0762 13.5932 871 68.4868 1037.36 504.031
1656 0 62.0841 13.53 840 69.6952 1037.39 499.425
1657 0 68.2039 13.7969 941 67.9245 1037.12 502.247
1658 0 66.0782 12.9998 859 69.7497 1037.14 501.536
1659 0 67.0585 13.9878 938 68.5213 1036.82 501.869
1660 0 71.0852 15.6432 1112 66.598 1037.5 498.857
1661 0 74.1322 14.5011 1075 67.2772 1037.85 498.839
1662 0 77.0735 11.8848 916 69.9924 1037.78 499.553
1663 0 79.1765 13.9056 1101 67.7112 1037.71 498.563
1664 0 81.4247 12.8462 1046 69.1673 1037.57 496.33
1665 0 82.1421 15.0836 1239 67.1195 1037.39 492.462
1666 0 83.1342 14.6751 1220 67.5975 1037.84 492.211
1667 0 86.5058 14.3112 1238 67.1414 1037.46 492.515
1668 0 85.1119 13.6409 1161 68.3282 1037.55 492.72
1669 0 89.0889 14.0983 1256 67.3901 1037.5 491.197
1670 0 92.2129 14.2279 1312 67.8201 1036.85 485.145
1671 0 92.2159 13.0129 1200 69.4867 1037.66 486.728
1672 0 97.0818 12.9787 1260 68.5325 1037.37 487.634
1673 0 99.0677 13.9601 1383 68.0853 1037.6 483.472
1674 0 101.204 13.4382 1360 68.9772 1037.87 484.832
1675 0 103.074 14.4945 1494 68.6801 1037.2 478.122
1676 0 108.509 13.1417 1426 69.3773 1036.96 479.332
1677 0 109.102 13.2628 1447 70.1196 1036.93 475.737
1678 0 112.085 13.2311 1483 70.4956 1036.66 476.105
1679 0 117.259 13.5683 1591 70.3476 1036.88 478.943
1680 0 118.115 11.7513 1388 71.7745 1037.45 481.302
1681 0 123.368 14.1042 1740 69.3282 1037.59 476.755
1682 0 127.205 14.6771 1867 69.4403 1037.81 472.916
1683 0 127.282 12.5548 1598 72.2009 1037.77 474.885
1684 0 132.113 14.2075 1877 70.9963 1036.86 466.572
1685 1 75.1444 12.975 975 71.5138 1036.87 498.018
1686 0 76.2313 13.6952 1044 71.9856 1037.25 495.902
1687 0 74.1667 12.5933 934 74.576 1037.09 495.725
1688 0 80.2708 13.4295 1078 72.3145 1036.88 493.901
1689 0 81.3778 14.4265 1174 71.9847 1037.29 493.619
1690 0 84.1294 14.0379 1181 72.9492 1037.72 490.647
1691 0 84.2085 13.3241 1122 73.9537 1036.62 491.099
1692 0 79.1541 9.22252 730 79.6082 1037.14 484.014
1693 0 84.0723 10.0152 842 77.9002 1037.13 478.967
1694 0 86.1106 11.3227 975 76.9528 1036.81 480.572
1695 0 86.1094 9.82471 846 78.3345 1037.37 476.831
1696 0 87.0744 7.86683 685 79.6248 1037.68 471.209
1697 0 93.0657 9.88549 920 79.3696 1037.6 474.899
1698 0 93.0934 10.28 957 79.0585 1037.88 473.219
1699 0 99.0993 8.9708 889 80.1699 1037.35 474.501
1700 0 103.194 10.4269 1076 77.6422 1037.23 468.193
1701 1 44.0342 7.83482 345 82.3333 1036.74 499.806
1702 0 49.0436 9.97072 489 78.6237 1037.2 499.123
1703 0 49.0588 11.6595 572 76.8811 1037.29 498.24
1704 0 51.0201 10.6233 542 77.6494 1037.3 497.673
1705 0 52.021 9.63072 501 78.8443 1037.24 494.966
1706 0 54.0306 9.42059 509 78.0334 1037.56 493.029
1707 0 60.0704 10.4877 630 76.5444 1036.46 493.852
1708 0 62.1146 11.4305 710 74.8141 1037.53 495.832
1709 0 62.0678 10.2146 634 76.2382 1036.76 493.571
1710 0 66.1072 11.8898 786 73.4338 1037.31 494.987
1711 0 69.0526 10.6151 733 74.5771 1037.24 487.772
1712 0 71.1665 9.82204 699 75.824 1036.81 486.99
1713 0 72.0859 7.69915 555 77.4829 1036.54 487.589
1714 0 77.0631 10.9521 844 73.3057 1036.42 489.445
1715 0 78.046 9.94285 776 74.9381 1036.48 489.612
1716 1 43.0676 10.054 433 75.7575 1037.01 469.827
1717 1 29.0156 7.23748 210 77.5714 1036.7 510.157
1718 0 33.0218 10.5082 347 74.3372 1037.26 510.951
1719 0 33.0318 11.7463 388 72.933 1037.01 509.119
1720 0 32.0061 8.99829 288 76.0069 1037.41 510.038
1721 0 32.0185 6.68363 214 77.271 1036.87 509.107
1722 0 34.0254 6.90662 235 75.8979 1037.2 505.179
1723 0 44.4032 12.9045 573 68.6719 1037.27 511.504
1724 0 44.117 12.2628 541 68.6987 1037.08 513.133
1725 0 47.0746 12.0659 568 68.868 1037.7 511.178
1726 0 47.145 11.1783 527 69.4364 1038.27 510.839
1727 0 48.2132 13.2536 639 67.3912 1038.05 510.462
1728 0 51.0555 15.2971 781 64.5403 1037.26 509.179
1729 0 55.4424 12.3371 684 67.114 1037.09 508.532
1730 0 54.1012 13.8999 752 65.6343 1037.08 506.294
1731 0 56.059 14.2172 797 65.054 1036.95 506.632
1732 0 59.1783 13.1467 778 65.5488 1037.32 506.395
1733 0 59.0914 12.1337 717 66.47 1037.24 507.014
1734 0 60.2071 11.7926 710 67.1901 1037.39 502.828
1735 0 62.2169 12.3921 771 65.5525 1036.96 505.092
1736 0 65.2569 11.8455 773 66.2406 1037.07 501.739
1737 0 66.1429 12.3974 820 65.722 1037.51 497.655
1738 0 70.1442 13.6861 960 63.9656 1037.3 499.972
1739 0 69.1348 10.9786 759 67.1937 1038.14 496.391
1740 0 71.2132 12.9189 920 65.2207 1038.02 497.767
1741 0 75.2248 11.7116 881 65.5153 1037.67 498.342
1742 0 77.2734 13.6269 1053 63.9373 1037.52 495.938
1743 0 80.1924 12.869 1032 64.8391 1036.96 493.484
1744 0 84.4059 13.0086 1098 63.9281 1037.54 494.597
1745 1 44.1148 13.5329 597 62.4657 1037.55 512.308
1746 0 42.1449 14.1417 596 63.1091 1037.55 511.463
1747 0 46.0921 12.9957 599 63.7295 1037.62 510.88
1748 0 46.1205 12.2071 563 64.8845 1037.59 508.584
1749 0 49.3604 13.1482 649 62.49 1037.81 512.04
1750 0 50.2345 12.6009 633 63.2464 1037.33 508.812
1751 0 51.0808 14.4085 736 62.2459 1037.98 506.644
1752 0 53.1616 13.111 697 63.2209 1037.23 505.905
1753 0 55.0527 15.5306 855 60.7567 1036.97 506.455
1754 0 54.1833 13.4174 727 63.2558 1037.26 504.04
1755 0 57.0518 14.145 807 61.6592 1038.14 503.201
1756 0 59.0977 11.4218 675 64.1807 1038.4 501.339
1757 0 62.1152 12.4768 775 63.1071 1037.94 500.382
1758 0 62.2108 12.5059 778 62.8059 1037.77 499.937
1759 0 62.2145 11.1871 696 63.9842 1037.83 502.977
1760 0 65.0944 12.044 784 63.7296 1037.08 497.406
1761 0 69.1571 12.1173 838 63.4499 1038.13 495.957
1762 0 73.0495 11.9645 874 62.5755 1037.62 498.465
1763 0 70.1006 11.4835 805 64.2062 1037.82 495.32
1764 0 76.1843 11.4722 874 63.9062 1037.49 489.836
1765 0 78.1646 14.0473 1098 62.0783 1037.91 492.029
1766 1 34.2034 11.3147 387 63.9483 1037.87 515.328
1767 0 35.0307 11.7897 413 63.9153 1037.53 515.327
1768 0 35.0708 11.8047 414 64.6498 1037.67 514.205
1769 0 36.029 10.9079 393 65.9389 1037.88 514.672
1770 0 37.1034 12.6404 469 65.0085 1038.22 513.192
1771 0 39.0899 11.6142 454 66.2489 1037.41 510.826
1772 0 40.0393 11.0891 444 67.2973 1037.96 509.545
1773 0 39.0679 11.4928 449 66.0713 1037.8 512.35
1774 0 42.0839 12.0949 509 65.7348 1036.89 511.222
1775 0 45.0791 12.4448 561 65.1747 1037.04 508.979
1776 0 48.1335 12.2368 589 65.0492 1037.51 507.9
1777 0 48.0354 11.9287 573 65.5881 1037.13 505.791
1778 0 51.1086 12.5615 642 64.3551 1036.87 505.408
1779 0 52.0462 12.6618 659 64.475 1037.11 505.612
1780 0 54.1611 11.1519 604 65.6639 1037.2 505.091
1781 0 53.0363 11.709 621 65.7729 1037.71 503.673
1782 0 58.0556 13.7454 798 63.7193 1036.57 502.714
1783 0 61.3169 10.5191 645 66.1767 1037.15 506.425
1784 0 62.0533 13.7462 853 63.9168 1037.45 504.005
1785 0 65.1246 12.0845 787 66.0368 1037.3 499.781
1786 0 68.0985 12.3204 839 65.6412 1037.03 500.088
1787 0 68.0592 10.1529 691 68.0116 1036.84 500.305
1788 0 70.0636 12.0462 844 66.6742 1036.14 494.149
1789 0 73.175 12.1353 888 66.7894 1036.85 494.149
1790 0 79.0729 12.8742 1018 65.6395 1037.43 496.196
1791 0 83.1705 14.5725 1212 64.1188 1037.85 496.687
1792 0 84.1684 13.7463 1157 65.0916 1037.41 494.871
1793 0 86.15 15.9373 1373 63.1886 1037.07 492.615
1794 0 90.2431 11.9566 1079 66.8211 1036.61 494.977
1795 0 91.155 11.4969 1048 67.5821 1036.86 491.388
1796 1 47.0666 13.534 637 64.7818 1037.05 513.782
1797 0 49.2786 13.1903 650 65.1615 1037.21 512.423
1798 0 49.1244 12.7025 624 66.5032 1036.89 510.452
1799 0 52.1531 12.8851 672 65.4762 1036.72 511.286
1800 0 54.1504 12.8715 697 66.4692 1036.7 509.693
1801 0 54.2189 14.2755 774 66.0956 1036.59 505.592
1802 0 57.0967 13.9938 799 65.9036 1036.67 507.388
1803 0 57.0795 11.0197 629 68.7138 1036.81 509.126
1804 0 61.1459 14.1792 867 65.9677 1036.86 503.747
1805 0 63.0671 13.8107 871 66.6912 1036.95 503.192
1806 0 64.1118 11.7607 754 68.6764 1037.31 503.141
1807 0 66.0811 12.4544 823 67.8153 1036.78 503.012
1808 0 68.1294 13.3276 908 67.3425 1036.65 502.035
1809 0 72.2895 16.0189 1158 64.6494 1036.81 499.057
1810 0 73.1542 13.0819 957 68.2299 1036.9 497.056
1811 0 75.113 13.0071 977 68.7851 1036.46 493.765
1812 0 79.1229 14.7492 1167 66.629 1036.75 496.191
1813 0 82.1832 15.0639 1238 66.4023 1037.51 494.252
1814 0 84.2583 14.1114 1189 67.5198 1037.17 494.646
1815 0 89.1101 14.3418 1278 66.7371 1037.07 494.109
1816 1 40.0705 14.1001 565 65.6283 1036.91 516.904
1817 0 42.0622 13.8129 581 67.6764 1036.81 513.446
1818 0 40.1069 12.2921 493 69.8256 1036.48 513.467
1819 0 42.1098 14.7472 621 67.2625 1036.66 513.942
1820 0 45.171 14.9432 675 66.5141 1037.67 512.841
1821 0 45.3411 13.7182 622 67.5595 1037.02 513.944
1822 0 46.1002 14.9023 687 67.0932 1037.22 513.079
1823 0 49.0464 13.2935 652 68.3436 1036.33 511.732
1824 0 51.0931 12.9763 663 69.6531 1036.62 510.214
1825 0 54.2571 14.3576 779 67.7227 1036.8 508.561
1826 0 54.0711 15.1467 819 67.6081 1036.35 508.1
1827 0 56.2049 17.4006 978 64.7464 1036.37 507.176
1828 0 60.2487 14.6227 881 67.4257 1036 507.18
1829 0 57.0418 13.604 776 70.7062 1036.19 506.053
1830 0 61.1971 13.5464 829 69.7201 1036.53 506.455
1831 0 64.3668 14.5261 935 68.5241 1036.39 504.663
1832 0 66.2397 14.0701 932 69.5247 1036.22 503.622
1833 0 66.1296 13.8818 918 70.2571 1036.31 500.548
1834 0 71.2122 13.8038 983 69.1984 1036.23 501.871
1835 0 72.0865 12.9012 930 70.9946 1036.13 500.728
1836 0 74.2028 10.9565 813 73.0467 1036.17 500.02
1837 0 79.0837 15.1738 1200 67.9767 1036.27 494.39
1838 0 80.0782 15.822 1267 68.2123 1036.55 491.966
1839 0 85.2971 14.1623 1208 69.3924 1036.4 490.353
1840 0 87.2956 12.83 1120 70.3652 1036.61 491.844
1841 0 91.1421 13.9782 1274 68.6986 1036.73 490.994
1842 1 40.0485 11.3612 455 71.6176 1036.34 511.007
1843 0 42.1287 13.8148 582 68.433 1036.07 511.151
1844 0 45.0558 13.4722 607 67.6804 1036.07 512.137
1845 0 46.1373 13.2431 611 68.27 1036.69 509.975
1846 0 49.2067 14.8963 733 65.573 1036.5 510.533
1847 0 50.0449 13.328 667 67.5307 1035.86 511.024
1848 0 52.1025 14.3563 748 66.3717 1036.15 508.9
1849 0 54.0821 13.0172 704 67.3835 1035.72 510.125
1850 0 56.0861 14.2638 800 66.2138 1035.86 506.678
1851 0 57.131 12.4626 712 68.7711 1036.31 504.284
1852 0 57.1153 12.9913 742 67.9124 1035.82 504.775
1853 0 61.0712 14.3275 875 66.3451 1036.05 502.443
1854 0 63.2172 12.7339 805 67.7776 1036.28 498.97
1855 0 65.1947 15.354 1001 64.6194 1035.18 497.991
1856 0 68.1329 13.4883 919 66.0805 1035.55 496.507
1857 0 70.1424 14.8983 1045 64.1636 1036.25 499.846
1858 0 70.0597 13.1459 921 66.721 1036.69 494.287
1859 0 76.1471 14.8397 1130 64.277 1035.92 492.666
1860 0 79.1725 14.159 1121 64.8091 1036.14 492.256
1861 0 81.177 13.3289 1082 65.3041 1035.67 492.744
1862 0 82.1839 15.6357 1285 63.1767 1035.75 490.847
1863 0 88.2246 13.4883 1190 64.7126 1036.65 491.193
1864 0 89.09 13.2114 1177 65.4936 1036.4 489.835
1865 0 92.2325 15.1682 1399 63.5032 1036.42 485.635
1866 0 93.0637 11.7876 1097 66.9772 1036.6 484.432
1867 0 99.2574 13.9536 1385 63.9682 1036.35 483.539
1868 0 101.102 12.1858 1232 65.5519 1036.24 479.227
1869 0 107.149 15.1378 1622 62.1609 1036.88 479.021
1870 1 51.1202 11.8544 606 66.7558 1036.3 505.637
1871 0 52.0211 10.8033 562 67.7295 1036.21 504.829
1872 0 56.0794 13.6592 766 64.4164 1036.64 503.346
1873 0 58.0823 13.808 802 64.0112 1036.79 503.857
1874 0 61.2191 14.2766 874 62.9336 1036.14 501.99
1875 0 62.0548 12.7951 794 64.2771 1036.12 502.069
1876 0 63.1376 14.0962 890 63.1596 1035.98 497.612
1877 0 65.337 14.2951 934 63.2152 1035.71 497.958
1878 0 69.1176 13.3685 924 63.5617 1035.75 496.089
1879 0 72.125 13.227 954 63.2998 1036.52 496.17
1880 0 72.1395 13.6541 985 63.1959 1036.6 495.681
1881 0 77.076 14.103 1087 61.7332 1035.97 492.042
1882 0 82.1922 13.6509 1122 61.7228 1035.77 492.301
1883 0 85.2551 13.6766 1166 61.2084 1035.94 489.54
1884 0 89.088 12.5045 1114 61.8214 1036.08 491.758
1885 0 91.0578 13.8923 1265 60.8648 1036.22 483.953
1886 0 93.2196 13.1303 1224 61.5245 1036.11 488.81
1887 0 99.2221 14.6338 1452 59.7362 1036.79 483.167
1888 0 102.086 13.0087 1328 61.1883 1036.06 483.481
1889 1 45.0703 13.1129 591 62.2081 1035.91 509.35
1890 0 46.0801 15.9722 736 59.1902 1035.5 508.935
1891 0 47.0776 14.2318 670 60.6119 1035.58 509.139
1892 0 50.3252 13.9095 700 60.6129 1035.63 507.399
1893 0 52.3604 13.2925 696 61.171 1035.71 507.014
1894 0 53.2073 13.7763 733 61.5553 1035.97 506.613
1895 0 57.1334 15.4201 881 59.2667 1036.13 505.255
1896 0 58.1908 13.9025 809 60.6712 1036.33 503.032
1897 0 58.1976 12.4747 726 62.5317 1037.14 502.318
1898 0 61.3827 16.0143 983 58.2747 1036.54 504.266
1899 0 61.2767 13.2187 810 62.1679 1036.42 501.368
1900 0 68.1591 15.5959 1063 58.9868 1036 497.843
1901 0 66.1069 14.885 984 60.2409 1036.17 499.286
1902 0 69.108 14.2241 983 60.9318 1036.36 497.322
1903 0 72.1856 15.0445 1086 59.9392 1037.11 495.203
1904 0 75.2358 12.2282 920 62.0174 1037 498.862
1905 0 79.2021 13.3456 1057 60.2829 1036.54 496.85
1906 0 83.2125 16.6081 1382 57.4313 1036.39 491.875
1907 0 84.157 13.2372 1114 60.7199 1036.77 491.486
1908 0 87.3382 12.9268 1129 60.2489 1036.64 491.021
1909 0 89.1974 13.5542 1209 59.4268 1036.95 490.78
1910 0 93.1605 12.9669 1208 60.2359 1037.14 486.595
1911 0 98.5552 15.3518 1513 57.5169 1036.86 484.153
1912 0 100.092 14.247 1426 58.4698 1036.87 485.209
1913 1 51.1882 14.1634 725 58.3655 1035.88 504.552
1914 0 51.3073 12.9806 666 59.2583 1036.46 507.12
1915 0 54.1817 12.8087 694 59 1036.3 507.504
1916 0 55.1711 12.6516 698 59.659 1036.72 505.607
1917 0 57.0563 14.3017 816 58.0956 1036.82 503.446
1918 0 56.1181 14.4873 813 58.4084 1036.99 501.991
1919 0 60.109 13.7417 826 58.7385 1036.42 502.625
1920 0 60.1959 14.7685 889 57.8695 1036.44 501.105
1921 0 63.0895 13.9643 881 58.5675 1036.65 499.967
1922 0 66.1667 14.0856 932 57.8584 1036.24 501.388
1923 0 68.5421 14.2102 974 58.1283 1036.83 499.304
1924 0 70.5346 14.9572 1055 57.4825 1036.69 497.519
1925 0 69.0865 14.2864 987 58.7092 1036.76 495.399
1926 0 76.5428 15.1027 1156 57.0649 1036.87 496.714
1927 0 76.2266 17.0806 1302 55.5776 1036.74 494.575
1928 0 78.067 12.0409 940 59.8851 1037 493.572
1929 0 81.1897 15.0512 1222 57.1187 1035.96 490.456
1930 0 84.071 15.3799 1293 57.2243 1036.44 490.741
1931 0 85.1786 14.8394 1264 57.7508 1036.51 492.313
1932 0 94.3539 11.8066 1114 59.6741 1036.27 488.996
1933 0 94.3698 12.5676 1186 59.6046 1036.4 485.006
1934 1 42.1007 13.8715 584 58.8099 1035.87 510.606
1935 0 44.1407 14.6577 647 58.6739 1036.23 507.886
1936 0 47.1832 15.4292 728 57.2047 1035.61 510.729
1937 0 48.0695 13.7509 661 59.2284 1034.72 508.784
1938 0 50.0615 14.3823 720 58.6875 1035.15 509.465
1939 0 51.1104 13.148 672 60.3006 1035.41 505.609
1940 0 54.0415 11.6577 630 61.7492 1035.65 507.584
1941 0 57.2209 14.2605 816 59.1863 1035.35 506.299
1942 0 56.1535 11.522 647 62.323 1034.55 504.308
1943 0 63.0488 15.3532 968 57.7913 1034.96 506.499
1944 0 63.1092 12.8824 813 60.428 1035.42 502.884
1945 0 66.1117 13.9007 919 58.9347 1034.02 506.998
1946 0 68.154 14.746 1005 58.4736 1034.19 504.676
1947 0 69.0706 14.7675 1020 59.4608 1034.37 498.989
1948 0 73.1259 14.3451 1049 59.184 1033.97 499.112
1949 0 75.1577 16.7914 1262 57.1101 1034.61 497.474
1950 0 79.2203 15.438 1223 58.3696 1034.54 495.775
1951 0 83.2849 13.0396 1086 60.0829 1034.21 495.148
1952 0 82.1594 14.9831 1231 59.1673 1033.16 491.511
1953 0 86.1281 13.3638 1151 59.7897 1033.84 495.078
1954 0 88.1201 11.1779 985 61.7533 1033.54 493.49
1955 0 93.2018 13.916 1297 59.2914 1033.93 489.683
1956 0 95.3946 14.4138 1375 59.0749 1034.32 488.241
1957 1 44.1364 14.4325 637 58.5196 1034.82 512.13
1958 0 47.0505 15.1114 711 58.3699 1034.91 509.887
1959 0 44.1268 13.8465 611 60.761 1034.96 509.637
1960 0 49.2711 10.838 534 62.4813 1034.5 511.228
1961 0 50.1127 11.9331 598 61.6087 1034.4 508.813
1962 0 52.2292 13.8045 721 59.7781 1034.73 509.879
1963 0 55.0713 13.9274 767 59.6389 1035.44 508.05
1964 0 54.1281 12.8399 695 61.8863 1035.42 503.309
1965 0 55.1489 14.1254 779 60.9859 1035.04 501.77
1966 0 57.1138 14.3223 818 60.8044 1035.86 501.213
1967 0 58.1943 13.0941 762 61.836 1035.72 501.612
1968 0 61.0971 13.3885 818 61.7213 1035.2 500.773
1969 0 63.1778 15.765 996 59.3514 1036.16 497.803
1970 0 66.2318 13.9661 925 60.7092 1035.59 499.942
1971 0 68.169 13.7306 936 61.1645 1035.53 498.261
1972 0 71.0815 14.6733 1043 60.0556 1036 498.499
1973 0 73.3831 14.7854 1085 60.2866 1035.61 494.186
1974 0 74.3069 15.9608 1186 59.2352 1035.83 492.019
1975 0 76.1579 12.0802 920 62.8022 1036.11 491.521
1976 0 79.4246 12.6661 1006 61.9871 1036.31 491.519
1977 0 83.5302 14.8449 1240 59.4516 1036.47 489.173
1978 0 88.3002 16.1948 1430 58.1406 1036.31 486.555
1979 0 88.2477 14.244 1257 60.066 1037.18 488.817
1980 0 92.8583 14.2044 1319 60.398 1036.75 484.614
1981 0 93.4002 13.03 1217 62.198 1036.47 482.145
1982 0 95.1659 12.473 1187 62.604 1036.68 483.141
1983 0 99.1746 13.7636 1365 61.2125 1037.01 481.884
1984 0 103.174 16.3025 1682 59.6813 1036.99 478.02
1985 0 107.156 13.1957 1414 62.6584 1036.79 476.431
1986 0 110.688 11.8712 1314 64.0982 1036.86 477.222
1987 0 114.196 12.9865 1483 63.563 1037.83 472.889
1988 0 117.484 14.8786 1748 62.0154 1037.43 470.24
1989 0 122.267 13.8877 1698 63.3115 1037.29 468.956
1990 0 127.525 13.4641 1717 64.4444 1037.27 466.076
1991 0 131.341 14.9991 1970 62.6817 1036.85 467.109
1992 0 132.363 13.4101 1775 65.8062 1037.02 459.89
1993 0 139.442 14.1779 1977 64.7764 1037.62 461.299
1994 0 144.356 14.4019 2079 64.5767 1037.38 459.734
1995 0 147.32 15.4834 2281 64.1048 1038.51 456.139
1996 0 153.56 12.1256 1862 67.572 1036.64 456.908
1997 0 157.364 13.688 2154 66.8617 1036.99 450.545
1998 0 163.677 15.4023 2521 65.1253 1037.06 449.867
1999 0 167.412 14.6345 2450 65.7437 1037.29 451.696
2000 0 174.217 14.6542 2553 65.9734 1036.98 447.558
2001 1 91.4147 15.5117 1418 64.4189 1036.93 485.901
2002 0 93.3621 15.5524 1452 64.5062 1036.58 485.96
2003 0 98.3694 14.8522 1461 65.4538 1036.38 482.346
2004 0 101.17 14.362 1453 65.8617 1036.96 484.391
2005 0 102.113 12.8583 1313 67.3389 1036.55 483.473
2006 0 108.304 15.909 1723 64.8613 1036.3 475.901
2007 0 114.239 13.927 1591 66.6254 1036.25 476.98
2008 0 117.186 13.6705 1602 67.8115 1036.41 473.099
2009 1 54.3555 13.7061 745 66.9718 1036.58 502.718
2010 0 56.3611 15.2942 862 65.8341 1036.34 501.745
2011 0 59.0931 13.8764 820 67.6744 1036.2 501.124
2012 0 61.413 14.4106 885 67.3514 1036.09 501.682
2013 0 63.1663 15.4038 973 66.8684 1035.97 499.46
2014 0 63.5807 14.4698 920 68.1533 1035.43 498.418
2015 0 65.177 15.0667 982 67.6385 1035.68 498.469
2016 0 67.2425 13.6372 917 68.2912 1035.55 497.362
2017 0 69.2082 14.6948 1017 67.2842 1036 496.281
2018 0 70.0852 13.4122 940 68.3468 1036.46 498.394
2019 0 72.1317 15.6242 1127 66.2937 1036.08 496.166
2020 0 73.3796 13.2871 975 70.2574 1035.9 492.896
2021 0 78.3621 14.5989 1144 68.2177 1035.57 493.753
2022 0 78.0789 13.9859 1092 70.3288 1036.63 492.772
2023 0 84.2621 14.2532 1201 69.3755 1035.77 490.14
2024 0 82.121 15.5259 1275 68.8353 1036.37 489.263
2025 0 87.5047 15.862 1388 68.6405 1035.85 489.491
2026 0 88.1705 13.9502 1230 70.8797 1035.97 487.193
2027 0 93.1039 15.7136 1463 68.272 1035.96 485.01
2028 0 96.3402 14.646 1411 69.686 1035.79 481.158
2029 0 99.163 14.1383 1402 70.6248 1035.64 478.726
2030 0 104.181 14.8684 1549 69.0116 1035.65 478.868
2031 0 108.193 15.5555 1683 68.6554 1035.66 476.969
2032 0 110.127 14.8374 1634 69.582 1035.71 476.744
2033 0 114.094 14.8212 1691 69.4358 1035.37 472.176
2034 0 116.124 12.8053 1487 72.0834 1035.49 470.234
2035 0 121.173 13.8398 1677 70.2946 1035.9 468.959
2036 0 130.338 14.8076 1930 68.2845 1035.56 470.335
2037 0 132.217 13.6443 1804 70.3259 1035.63 467.839
2038 0 137.107 12.4574 1708 71.5463 1035.89 466.361
2039 1 72.1468 10.742 775 73.2581 1036.02 494.563
2040 0 75.3007 13.5855 1023 69.4164 1036.08 497.076
2041 0 78.1294 12.4025 969 72.2301 1035.48 490.015
2042 0 82.4325 13.9508 1150 70.3061 1035.55 490.609
2043 0 82.0986 12.1074 994 72.7676 1035 491.81
2044 0 87.1777 13.96 1217 69.9581 1034.77 486.493
2045 0 90.3201 14.1829 1281 69.5488 1035.39 483.902
2046 0 93.1333 13.5612 1263 70.1156 1035.33 486.036
2047 0 97.2885 13.9893 1361 69.4519 1035.19 479.927
2048 0 99.3305 13.4098 1332 70.545 1035.03 481.929
2049 0 104.367 12.5806 1313 70.8401 1035.3 477.728
2050 0 107.167 14.0435 1505 69.3322 1034.71 474.528
2051 0 111.123 14.5514 1617 68.1818 1034.18 475.486
2052 0 117.683 14.607 1719 67.4572 1035.22 477.373
2053 0 120.297 14.6471 1762 67.773 1034.94 470.522
2054 0 123.206 13.4085 1652 69.1229 1034.76 470.395
2055 0 130.255 15.1549 1974 67.2508 1034.68 466.702
2056 0 134.18 14.5253 1949 67.8568 1034.48 464.091
2057 0 138.422 13.5238 1872 68.7147 1034.25 465.252
2058 0 144.158 15.3859 2218 66.138 1034.32 466.111
2059 0 147.085 13.8899 2043 69.2976 1034.75 456.42
2060 0 154.408 13.0757 2019 71.7088 1034.88 456.116
2061 0 163.554 14.992 2452 69.0359 1035.09 453.737
2062 0 165.35 15.5368 2569 68.5064 1035.33 451.272
2063 0 175.467 14.8746 2610 69.3552 1034.51 444.314
2064 0 182.24 16.6594 3036 66.6367 1035.13 445.644
2065 0 187.234 14.068 2634 70.333 1035.2 439.09
2066 0 195.39 14.2177 2778 69.8611 1034.98 435.438
2067 0 201.395 13.9477 2809 69.8042 1034.89 436.188
2068 0 205.425 14.0392 2884 69.8662 1034.86 431.298
2069 0 214.349 13.2075 2831 70.8601 1035.2 424.639
2070 1 157.268 10.8286 1703 73.0916 1034.62 455.547
2071 0 164.188 13.7221 2253 69.7603 1034.65 452.412
2072 0 170.503 14.7916 2522 68.5634 1034.51 451.443
2073 0 174.225 14.7912 2577 68.9802 1034.94 447.081
2074 0 181.652 14.7645 2682 68.72 1034.66 441.463
2075 0 186.78 13.3847 2500 70.6736 1034.69 438.755
2076 0 197.185 13.9007 2741 68.9639 1034.78 437.263
2077 0 202.459 13.8497 2804 69.1712 1034.58 433.357
2078 0 210.217 13.7287 2886 69.7443 1034.34 426.342
2079 0 218.442 14.9696 3270 68.2807 1034.47 423.753
2080 0 344.945 25.7056 8867 54.0824 1033.96 344.908
2081 0 341.869 23.2223 7939 56.947 1034.45 337.728
2082 1 245.779 15.5058 3811 67.9396 1035.04 413.78
2083 0 250.759 14.2248 3567 70.0404 1034.72 408.795
2084 1 183.408 12.8293 2353 70.8776 1034.32 446.189
2085 0 188.601 14.0508 2650 69.6283 1034.82 441.714
2086 1 56.2805 13.2195 744 66.0444 1034.93 505.965
2087 0 57.3698 14.1189 810 65.8296 1034.27 504.291
2088 0 56.219 12.5047 703 68.8464 1034.44 501.512
2089 0 56.2245 15.0468 846 66.1797 1034.45 501.061
2090 0 59.089 14.5035 857 66.3139 1034.68 501.97
2091 0 60.197 13.8877 836 67.5359 1034.55 501.167
2092 0 62.5201 14.7153 920 65.8 1034.85 500.909
2093 0 68.1647 12.7339 868 66.5818 1034.56 500.482
2094 0 65.2092 12.5596 819 67.7094 1035.06 497.624
2095 0 71.5033 14.8525 1062 64.4529 1034.65 497.213
2096 0 75.4907 15.1939 1147 63.1064 1034.64 497.402
2097 0 77.2595 15.3509 1186 63.1501 1035.12 495.27
2098 0 78.5026 15.9995 1256 62.1083 1034.79 494.978
2099 0 79.3583 12.9791 1030 65.9456 1034.72 493.82
2100 0 82.4316 13.5992 1121 64.8403 1034.93 492.234
2101 0 86.4831 14.0606 1216 64.1521 1035.17 490.22
2102 0 89.2837 15.2435 1361 62.4688 1034.62 490.193
2103 0 90.0976 14.7951 1333 63.6707 1035.17 487.992
2104 0 98.2404 13.7316 1349 63.636 1035.31 488.274
2105 0 98.415 13.7581 1354 64.6241 1035.21 484.158
2106 1 45.2424 10.0569 455 67.6066 1034.7 507.492
2107 0 49.5568 14.6499 726 62.686 1034.55 508.295
2108 0 51.1506 14.6039 747 63.6975 1034.89 505.897
2109 0 51.1816 13.5596 694 65.9741 1034.67 506.271
2110 0 54.5044 12.9164 704 66.5398 1034.08 504.072
2111 0 55.147 12.7296 702 67.0057 1033.89 500.775
2112 0 58.4521 15.4999 906 63.5375 1034.63 501.511
2113 0 58.2872 15.1834 885 64.5412 1034.12 500.323
2114 0 61.2077 12.5148 766 66.9621 1034.63 499.456
2115 0 62.1595 12.5323 779 67.6213 1034.35 497.374
2116 0 66.5444 15.1177 1006 64.0865 1035 498.685
2117 0 68.5148 14.0116 960 65.6333 1034.18 498.368
2118 0 66.1568 14.4354 955 66.1539 1034.42 495.98
2119 0 66.1148 12.6144 834 68.3225 1034.51 488.083
2120 0 65.0742 8.34432 543 71.2099 1033.74 480.915
2121 0 67.1924 11.1322 748 70.3997 1033.88 484.211
2122 0 64.0884 11.2657 722 68.4571 1034.54 478.265
2123 1 162.108 6.00218 973 73.9733 1034.84 401.947
2124 1 203.083 1.93024 392 83.7015 1035.07 385.207
2125 1 25.0283 8.39052 210 69.1476 1035.21 456.705
2126 1 0 0 0 -nan -nan -nan
2127 1 25.0151 7.03575 176 69.5852 1034.49 449.722
2128 0 24.0212 8.65901 208 65.6923 1034.57 442.923
2129 1 186.186 7.55695 1407 78.2864 1034.45 394.665
2130 1 160.187 7.27899 1166 80.175 1034.9 362.221
2131 1 127.199 8.27836 1053 75.6838 1034.52 413.581
2132 0 131.108 9.57224 1255 73.8884 1034.98 411.247
2133 1 43.0963 7.8197 337 69.9199 1034.87 431.43
2134 0 38.0302 9.36098 356 70.7219 1034.51 457.087
2135 0 36.0365 6.63216 239 73.0293 1034.81 454.452
2136 0 39.009 8.1776 319 71.6865 1034.5 450.436
2137 1 52.0044 1.17298 61 78.4754 1035.64 450.23
2138 0 63.0564 8.65892 546 71.8223 1035.44 436.998
2139 0 59.0646 8.75312 517 69.9555 1034.89 442.058
2140 0 63.0953 14.0739 888 67.2568 1035.12 499.343
2141 0 63.215 15.1705 959 66.2117 1034.31 497.866
2142 0 67.0912 16.2167 1088 64.7812 1034.8 496.141
2143 0 69.1599 14.0544 972 66.8344 1034.09 492.591
2144 0 70.2064 16.5512 1162 63.9148 1034.36 493.62
2145 0 73.2463 14.6082 1070 65.6888 1034.66 493.548
2146 0 78.1721 15.1205 1182 63.8646 1034.45 495.566
2147 0 78.0704 14.5894 1139 65.3731 1034.23 491.407
2148 0 80.1377 16.1347 1293 63.85 1034.49 487.82
2149 0 82.1632 15.1041 1241 65.054 1034.1 487.355
2150 0 87.1499 16.6724 1453 62.4852 1034.74 486.263
2151 0 86.4846 13.3781 1157 66.5264 1033.91 484.462
2152 0 92.3581 14.996 1385 64.1307 1034.17 484.842
2153 0 94.2005 15.5095 1461 64.7002 1034.73 482.196
2154 0 98.0838 15.0891 1480 64.0885 1034.44 482.322
2155 0 100.093 13.997 1401 65.1884 1034.75 481.151
2156 0 103.189 14.1682 1462 65.7989 1033.94 475.586
2157 0 109.157 16.4168 1792 62.9754 1033.84 473.366
2158 0 112.148 15.8362 1776 64.0439 1034.4 471.602
2159 0 116.267 16.4105 1908 63.5576 1034.33 470.601
2160 0 119.4 14.4975 1731 66.4229 1034.43 468.488
2161 0 124.191 16.2975 2024 64.5252 1033.74 462.57
2162 0 127.357 15.2799 1946 65.4337 1034.57 470.443
2163 0 135.287 17.1043 2314 63.6322 1034.96 466.047
2164 0 136.418 14.976 2043 66.9716 1034.53 462.397
2165 0 142.661 15.9188 2271 65.9546 1034.51 463.508
2166 0 145.347 13.3886 1946 69.2528 1034.84 463.221
2167 0 152.647 14.8054 2260 68.2088 1033.98 456.356
2168 0 157.522 16.1375 2542 66.6412 1034.81 458.711
2169 1 83.8802 14.1869 1190 69.3706 1034.26 491.153
2170 0 82.1521 15.0453 1236 69.1206 1034.59 490.029
2171 0 85.4042 16.3692 1398 67.829 1034.46 486.782
2172 0 89.4093 16.7991 1502 67.1684 1034.61 487.466
2173 0 90.3787 15.0921 1364 69.4223 1034.44 487.243
2174 0 94.2648 15.8384 1493 68.5646 1034.62 485.615
2175 0 99.8313 15.3559 1533 69.2205 1034.27 480.013
2176 0 103.194 16.9002 1744 67.5103 1034.68 480.032
2177 0 105.671 15.0466 1590 69.0786 1034.52 482.969
2178 0 109.417 14.5407 1591 69.6524 1034.91 481.799
2179 0 115.517 15.2618 1763 69.1685 1034.76 476.277
2180 0 118.319 14.4356 1708 71.113 1034.85 472.777
2181 1 54.1564 14.0334 760 71.4882 1034.11 503.208
2182 0 57.6126 14.7016 847 70.7934 1034.55 502.387
2183 0 59.5009 15.0082 893 71.0101 1034.3 500.997
2184 0 61.6203 15.1411 933 70.0375 1034.34 503.337
2185 0 62.2489 14.683 914 71.4639 1033.75 500.352
2186 0 67.5182 14.796 999 70.3734 1034.69 499.633
2187 0 65.2647 15.5674 1016 71.3465 1034.84 496.572
2188 0 68.4897 15.0972 1034 70.7244 1034.53 496.847
2189 0 69.2578 14.872 1030 70.9466 1034.08 496.832
2190 0 72.2608 17.0494 1232 68.7784 1034.34 494.705
2191 0 75.182 16.7593 1260 69.1651 1033.93 493.718
2192 0 77.0686 13.728 1058 72.4669 1034 491.416
2193 0 79.07 13.8991 1099 72.5441 1034.51 490.626
2194 0 83.0741 14.7098 1222 71.73 1034.55 489.794
2195 0 87.3392 15.7547 1376 70.0342 1034.9 487.922
2196 0 86.219 14.3936 1241 71.855 1035.38 488.28
2197 0 91.7554 13.7758 1264 72.5127 1034.28 485.218
2198 0 94.1643 14.942 1407 71.2971 1034.27 484.619
2199 0 96.2389 15.0251 1446 71.5602 1034.69 482.938
2200 0 100.185 15.122 1515 71.5663 1034.52 480.72
2201 0 102.254 13.7697 1408 72.7763 1034.27 480.193
2202 0 107.31 13.2607 1423 73.0675 1034.75 478.664
2203 0 113.188 14.3389 1623 71.7726 1035.47 473.848
2204 0 118.255 13.826 1635 72.3156 1035.08 473.808
2205 0 120.125 14.1852 1704 71.8392 1033.95 474.765
2206 1 62.2073 13.7604 856 72.6963 1033.58 499.122
2207 0 64.0962 16.4284 1053 69.6325 1034.05 497.938
2208 0 68.1599 16.0945 1097 69.392 1033.95 497.016
2209 0 68.0588 15.4425 1051 70.9372 1034.42 497.485
2210 0 70.0714 14.1713 993 72.5428 1034.49 496.107
2211 0 73.2231 12.9058 945 74.1016 1034.14 496.504
2212 0 74.1674 14.5751 1081 72.6392 1034.08 495.109
2213 0 76.0978 14.9282 1136 72.1831 1034.65 492.825
2214 0 79.23 15.272 1210 71.276 1034.44 493.272
2215 0 83.0851 14.8041 1230 71.5301 1033.84 489.146
2216 0 85.2032 15.2342 1298 69.725 1033.64 492.121
2217 0 88.2339 14.2236 1255 72.0614 1033.31 484.704
2218 0 92.1227 16.5649 1526 68.6638 1034.08 485.976
2219 0 93.107 13.9839 1302 71.4316 1033.72 488.193
2220 0 99.0676 15.3834 1524 69.0315 1033.85 484.854
2221 0 101.139 14.9794 1515 69.2165 1034.98 486.462
2222 0 103.18 13.9271 1437 71.405 1034.12 478.362
2223 0 106.3 14.1862 1508 70.3786 1033.84 479.549
2224 0 112.159 14.3278 1607 69.748 1034.3 476.334
2225 0 114.198 14.291 1632 69.864 1034.84 473.757
2226 0 119.398 15.0672 1799 68.0089 1034.36 473.869
2227 0 125.324 14.0994 1767 69.5976 1035.1 469.985
2228 0 128.304 14.1539 1816 69.2434 1034.87 468.863
2229 0 133.2 14.8048 1972 68.607 1035.69 467.547
2230 0 138.244 16.0585 2220 66.8914 1035.44 465.747
2231 0 141.4 15.0142 2123 67.9812 1034.9 464.732
2232 0 148.249 14.0169 2078 69.602 1034.73 461.06
2233 0 151.154 14.6474 2214 69.4761 1034.87 457.609
2234 0 157.358 13.8919 2186 70.5906 1035.11 454.994
2235 0 161.195 15.261 2460 69.0618 1034.85 453.348
2236 1 85.223 12.3676 1054 72.1936 1034.72 488.794
2237 0 91.1147 13.258 1208 69.6821 1034.78 489.409
2238 0 89.1584 13.2685 1183 71.4818 1035.25 487.139
2239 0 93.1524 13.1827 1228 71.5228 1034.82 488.004
2240 0 97.2152 14.1747 1378 69.9376 1035.11 485.593
2241 0 99.1419 15.0088 1488 68.7668 1035.24 485.595
2242 0 105.142 15.3316 1612 68.6328 1035.12 480.501
2243 0 108.22 14.5352 1573 69.4196 1035.02 477.928
2244 0 111.187 14.3273 1593 69.7715 1035.55 476.011
2245 0 116.641 14.1546 1651 69.3586 1035.75 475.947
2246 0 119.281 13.6317 1626 70.2583 1035.3 473.04
2247 0 125.361 14.1431 1773 69.3525 1034.79 472.578
2248 1 60.1139 13.8737 834 69.9388 1034.98 501.6
2249 0 63.4394 14.439 916 69.8461 1034.72 500.45
2250 0 68.1173 13.1978 899 71.3826 1035.28 499.449
2251 0 68.301 12.8402 877 72.2805 1035.32 499.698
2252 0 68.1867 14.6949 1002 70.7395 1035.43 496.485
2253 0 73.3104 13.5724 995 71.6613 1035.4 493.817
2254 0 76.096 14.784 1125 69.4356 1035.15 497.312
2255 0 78.2427 14.9023 1166 69.9142 1034.64 494.624
2256 0 80.141 14.3497 1150 71.387 1035.22 490.856
2257 0 85.1532 15.067 1283 69.6298 1036.3 493.02
2258 0 89.2311 15.3646 1371 68.6783 1035.67 491.689
2259 0 91.5583 14.3406 1313 70.473 1035.75 488.401
2260 0 94.1207 16.532 1556 67.7609 1035.95 484.145
2261 0 99.1711 15.5388 1541 68.048 1034.83 483.051
2262 0 103.381 15.7959 1633 67.703 1035.05 481.478
2263 0 104.186 15.0596 1569 69.2135 1035.41 478.946
2264 0 109.229 15.5728 1701 68.7566 1035.36 479.616
2265 0 112.266 15.0624 1691 69.4778 1036.78 474.864
2266 1 53.2612 14.4383 769 70.4798 1036.51 506.466
2267 0 56.2132 14.2138 799 71.2791 1036.01 503.259
2268 0 57.2009 14.1431 809 71.0494 1036.01 503.305
2269 0 58.1646 13.8228 804 71.6629 1035.84 501.522
2270 0 62.1515 14.529 903 69.8904 1035.51 503.465
2271 0 61.1882 14.6106 894 72.0392 1036.02 497.733
2272 0 65.1534 15.333 999 69.7347 1035.64 499.336
2273 0 64.1677 14.4777 929 71.5425 1035.51 500.507
2274 0 66.4137 15.1475 1006 70.503 1036.23 500.64
2275 0 68.0603 14.781 1006 71.3748 1035.32 498.257
2276 0 72.0805 14.678 1058 70.8308 1035.06 498.053
2277 0 74.2238 14.618 1085 70.8811 1035.49 495.471
2278 0 76.2827 15.3901 1174 69.8697 1035.73 495.976
2279 0 80.1332 14.8128 1187 70.6748 1035.76 494.024
2280 0 82.199 13.662 1123 72.0953 1036.21 490.062
2281 0 84.2685 15.4744 1304 69.7738 1036.21 490.376
2282 0 87.188 16.3211 1423 68.8264 1036.03 487.018
2283 0 90.1234 14.8685 1340 70.1478 1035.94 483.906
2284 0 95.1395 15.9765 1520 68.227 1036.76 484.435
2285 0 98.1321 14.0525 1379 70.5888 1036.62 479.342
2286 0 101.246 14.8845 1507 69.142 1035.69 478.149
2287 0 105.289 16.279 1714 67.1529 1035.66 480.264
2288 0 111.127 15.8557 1762 67.0692 1035.96 476.688
2289 0 116.185 15.9573 1854 66.5113 1036.25 475.805
2290 0 118.107 14.8763 1757 68.1679 1035.96 470.767
2291 0 123.183 14.2958 1761 68.5656 1035.54 473.001
2292 0 127.187 16.3224 2076 66.3646 1036.01 469.733
2293 1 66.3789 14.6583 973 69.4419 1035.28 499.971
2294 0 68.2507 12.7471 870 71.2241 1035.81 498.991
2295 0 70.3151 13.5248 951 71.3249 1035.51 495.034
2296 0 71.2027 13.3422 950 71.4105 1035.67 496.14
2297 0 75.2075 13.629 1025 71.2702 1036 493.282
2298 0 79.0681 14.5697 1152 70.0026 1036.5 490.638
2299 0 82.0625 14.5133 1191 68.173 1036.43 489.898
2300 0 82.2831 17.0144 1400 66.0664 1035.97 489.819
2301 0 85.2831 14.8564 1267 68.749 1035.93 485.901
2302 0 87.268 14.8508 1296 68.3071 1036.63 484.691
2303 0 94.0799 15.7101 1478 66.2124 1036.68 484.554
2304 0 95.1631 15.1529 1442 67.1436 1037.42 483.556
2305 0 98.2451 15.2069 1494 67.1319 1036.37 479.226
2306 0 100.205 14.9794 1501 67.2911 1036.07 479.828
2307 0 106.119 15.3413 1628 66.1658 1036.86 479.989
2308 0 112.539 16.0122 1802 65.1915 1036.37 477.025
2309 0 114.258 15.4913 1770 65.8367 1036.39 474.294
2310 0 119.765 14.612 1750 66.5891 1036.16 470.895
2311 1 50.152 13.0404 654 69.7813 1036.09 503.032
2312 0 55.1635 13.034 719 69.9291 1035.55 502.306
2313 0 57.0496 13.7424 784 69.1696 1035.71 500.61
2314 0 56.0681 13.2874 745 70.1557 1035.51 501.338
2315 0 62.0476 16.1489 1002 65.6248 1035.79 501.143
2316 0 61.1198 13.8417 846 69.753 1035.66 500.087
2317 0 65.1374 14.8763 969 68.5077 1035.38 497.857
2318 0 67.129 14.42 968 68.9029 1035.64 496.017
2319 0 69.053 17.2187 1189 65.7536 1035.65 494.788
2320 0 72.1599 14.9945 1082 68.586 1035.02 495.542
2321 0 74.5984 15.7644 1176 67.46 1035.09 493.193
2322 0 73.0659 13.2346 967 71.1448 1035.54 492.192
2323 0 79.0895 17.2969 1368 65.2719 1036.27 495.446
2324 0 80.0953 15.6938 1257 67.5998 1035.9 494.542
2325 0 82.1587 16.2856 1338 67.1607 1035.25 487.732
2326 0 86.1758 15.1435 1305 68.2138 1035.57 489.195
2327 0 90.1742 14.4498 1303 68.5388 1035.64 486.711
2328 0 93.3824 16.0737 1501 66.4357 1035.83 484.983
2329 0 97.2746 17.137 1667 65.201 1035.77 482.071
2330 0 101.484 15.4605 1569 66.608 1035.37 481.861
2331 0 100.187 14.2134 1424 69.0098 1035.68 480.69
2332 0 104.148 14.3833 1498 68.3104 1035.3 480.092
2333 0 106.211 14.0287 1490 69.4081 1035.93 475.361
2334 0 108.114 14.2443 1540 69.2461 1036.04 471.333
2335 1 53.0268 12.5597 666 69.6231 1036.1 502.381
2336 0 58.1539 13.4299 781 67.9757 1035.65 502.366
2337 0 61.4481 14.0932 866 67.261 1035.54 501.447
2338 0 61.2378 14.1089 864 68.1782 1036.3 499.811
2339 0 63.0786 13.9033 877 68.48 1036.47 500.662
2340 0 61.0649 13.8541 846 70.5177 1036.02 495.066
2341 0 66.2806 13.9407 924 69.118 1035.87 498.337
2342 0 68.1292 13.5037 920 69.2022 1035.82 498.595
2343 0 71.1211 14.9463 1063 67.412 1035.76 497.819
2344 0 72.0382 15.0476 1084 68.572 1036.01 496.259
2345 0 73.1005 13.9808 1022 69.9814 1036.16 493.105
2346 0 77.1269 13.9381 1075 69.5181 1036.21 491.975
2347 0 80.195 15.6743 1257 67.2689 1036.26 490.858
2348 0 84.0614 14.5251 1221 67.3718 1036.24 492.793
2349 0 85.1713 13.5492 1154 63.3631 1036.42 487.799
2350 0 87.123 15.2772 1331 60.3877 1035.92 487.832
2351 0 89.079 14.7397 1313 60.5765 1036.2 484.927
2352 0 90.1252 14.5353 1310 60.7649 1035.95 482.408
2353 0 93.0786 13.3865 1246 62.0305 1036.2 482.563
2354 0 100.129 15.7497 1577 58.5365 1036.59 481.416
2355 0 101.179 15.5171 1570 59.2026 1036.65 477.713
2356 0 103.263 12.7344 1315 61.6692 1036.53 479.018
2357 0 109.147 12.1579 1327 61.3459 1036.37 480.842
2358 0 110.168 14.9408 1646 60.0407 1036.48 471.897
2359 0 117.168 13.1265 1538 61.169 1036.21 472.038
2360 0 120.241 15.5853 1874 58.8063 1036.31 469.184
2361 0 128.178 14.1053 1808 59.5138 1036.8 471.081
2362 1 61.2354 13.6522 836 61.2225 1035.65 496.249
2363 0 65.0676 13.1402 855 60.5801 1035.72 498.476
2364 0 66.4451 14.6888 976 59.7715 1035.95 497.733
2365 0 63.1319 13.1154 828 63.2742 1036.53 494.721
2366 0 66.0226 12.632 834 62.7338 1035.44 496.591
2367 0 72.0934 15.5077 1118 59.7317 1035.7 492.775
2368 0 76.5017 14.7317 1127 59.3523 1036.86 495.865
2369 0 75.1576 15.4209 1159 60.478 1036.96 490.438
2370 0 77.1717 13.1784 1017 62.5388 1036.35 491.665
2371 0 76.1873 12.548 956 63.8902 1035.66 487.598
2372 0 82.1445 13.671 1123 62.049 1036.31 489.771
2373 0 84.1084 15.2184 1280 61.1539 1036.29 484.275
2374 0 89.2104 13.9894 1248 61.7147 1036.44 486.453
2375 0 89.0801 14.2793 1272 61.8396 1035.99 485.043
2376 0 95.1808 15.9801 1521 59.6739 1036.24 482.817
2377 0 95.1066 11.8604 1128 64.4379 1036.32 481.298
2378 0 100.103 17.0524 1707 59.0023 1036.78 478.008
2379 0 106.127 13.7383 1458 62.4424 1036.59 476.396
2380 0 110.225 15.7769 1739 59.0592 1037.16 476.949
2381 0 110.178 13.2604 1461 62.9569 1036.34 472.651
2382 1 53.2463 13.5784 723 62.2393 1036.76 503.465
2383 0 56.1471 14.4264 810 61.4494 1036.51 501.638
2384 0 54.065 13.5577 733 63.2265 1036 502.486
2385 0 59.0418 13.7191 810 62.7864 1036.25 498.922
2386 0 60.2197 13.9821 842 62.7268 1036.51 498.442
2387 0 61.2017 14.7218 901 61.7458 1036.05 499.286
2388 0 63.3198 14.9084 944 62.3061 1036.62 496.052
2389 0 66.1541 14.6023 966 61.9389 1036.41 496.508
2390 0 68.4718 13.553 928 63.1541 1036.79 496.023
2391 0 67.1666 14.0248 942 63.7325 1037.82 493.401
2392 0 71.0946 13.8266 983 63.5158 1037.85 493.68
2393 0 71.3275 12.9543 924 64.961 1037.9 492.274
2394 0 70.0598 13.7026 960 65.6375 1038.51 487.661
2395 0 78.2667 15.3961 1205 62.0598 1038.25 487.628
2396 0 79.1854 16.0257 1269 61.6454 1038.63 487.699
2397 0 80.0921 13.5719 1087 64.276 1038.36 487.239
2398 0 85.0795 15.0095 1277 62.433 1038.71 483.732
2399 0 86.1614 13.8113 1190 63.7353 1039.27 483.67
2400 0 90.207 16.4289 1482 60.9055 1038.62 479.85
2401 0 90.05 13.1483 1184 64.4443 1039.39 481.315
2402 0 96.1557 13.6029 1308 62.8945 1038.83 480.852
2403 0 100.321 14.7327 1478 61.8248 1038.62 476.003
2404 0 103.183 14.8086 1528 61.4804 1038.62 477.469
2405 0 108.102 15.4577 1671 60.1616 1038.45 473.995
2406 0 113.326 15.654 1774 59.6595 1039.09 473.445
2407 0 115.462 14.914 1722 60.7369 1038.77 469.547
2408 0 118.28 14.1022 1668 61.5402 1038.25 469.715
2409 0 125.364 15.0043 1881 60.0617 1038.65 464.486
2410 1 65.1147 10.9806 715 62.6825 1038.44 496.317
2411 0 66.0959 14.0251 927 61.1284 1038.32 491.533
2412 0 70.1718 13.5952 954 61.2652 1038.26 491.389
2413 0 71.1748 14.4995 1032 61.0116 1038.21 490.633
2414 0 77.2474 14.7189 1137 59.6957 1038.85 489.894
2415 0 81.431 14.7241 1199 59.5913 1038.85 490.511
2416 0 83.6331 14.3364 1199 59.5755 1038.87 488.443
2417 0 84.1046 13.5546 1140 60.8228 1038.78 485.236
2418 0 85.0605 13.9665 1188 61.0286 1037.96 483.751
2419 0 88.1755 14.1763 1250 60.7624 1038.87 480.47
2420 0 94.2686 15.2755 1440 59.2375 1038.12 481.353
2421 0 96.2147 13.3867 1288 60.8059 1038.26 481.072
2422 0 101.278 16.0845 1629 57.9804 1037.94 475.773
2423 0 102.394 14.2293 1457 60.604 1037.86 477.513
2424 0 110.344 14.8898 1643 58.8746 1037.56 477.107
2425 0 110.309 14.695 1621 58.9389 1038.08 474.032
2426 0 114.445 14.1902 1624 59.0899 1038.8 478.211
2427 0 115.274 14.3397 1653 60.1379 1038.44 468.489
2428 0 121.152 15.4021 1866 58.7958 1037.93 467.152
2429 0 125.112 7.53727 943 68.2619 1037.8 397.428
2430 0 129.157 14.4708 1869 59.5548 1038.19 465.643
2431 1 65.1527 13.1537 857 60.3606 1038.21 495.84
2432 0 69.1355 14.392 995 59.7759 1037.7 492.936
2433 0 67.105 14.0526 943 61.0604 1038.34 493.751
2434 0 72.118 15.017 1083 59.4331 1037.79 493.418
2435 0 69.1505 15.3578 1062 60.3371 1037.31 489.884
2436 0 67.1019 12.9505 869 63.6858 1037.87 489.686
2437 0 70.0866 14.5534 1020 61.2255 1037.84 489.174
2438 0 74.1462 14.2152 1054 61.149 1037.36 492.878
2439 0 70.0879 14.7244 1032 62.9186 1037.69 489.777
2440 0 75.1145 13.6725 1027 58.8393 1037.64 489.661
2441 0 73.3138 13.2444 971 63.8826 1037.49 491.756
2442 0 70.077 13.6421 956 64.6883 1037.93 491.062
2443 0 71.4147 13.9887 999 64.8879 1037.52 491.401
2444 0 76.2635 14.8826 1135 62.3577 1037.17 490.365
2445 0 70.1833 15.26 1071 65.127 1036.93 489.339
2446 0 68.1237 14.4003 981 67.3547 1037.14 493.496
2447 0 67.2025 13.8239 929 68.6663 1037.12 491.165
2448 0 71.1155 13.7382 977 67.0768 1037.08 492.748
2449 0 72.2701 14.086 1018 66.5688 1037.23 493.86
2450 0 69.1832 13.6738 946 68.3784 1037.15 490.494
2451 0 76.0845 13.7347 1045 66.5761 1037 491.996
2452 0 75.0352 14.8464 1114 65.6544 1037.41 492.408
2453 0 77.1825 14.3297 1106 65.8915 1037.56 490.712
2454 0 74.0703 14.4187 1068 66.2444 1037.72 490.706
2455 0 78.2969 14.4067 1128 65.8768 1037.03 489.903
2456 0 78.1303 14.3862 1124 65.8683 1036.73 491.27
2457 0 79.1457 14.4417 1143 66.923 1036.8 487.491
2458 0 81.1668 15.5359 1261 64.6043 1037.09 489.816
2459 0 85.0838 16.5836 1411 63.2962 1036.99 485.128
2460 0 81.2061 13.9398 1132 68.492 1036.97 487.513
2461 0 84.1471 15.3659 1293 67.4478 1036.41 484.258
2462 0 82.1785 13.0691 1074 70.8706 1037.53 483.418
2463 0 86.0808 15.9966 1377 66.7545 1037.07 481.181
2464 0 87.0782 13.7692 1199 69.5404 1036.9 481.715
2465 0 89.102 14.4217 1285 69.649 1037.42 481.391
2466 0 89.1622 14.7708 1317 69.3766 1036.99 478.321
2467 0 98.0966 16.5653 1625 65.0234 1036.36 480.997
2468 0 96.128 16.27 1564 67.1841 1037.07 477.674
2469 0 102.392 17.0424 1745 65.3461 1037.23 477.507
2470 0 102.191 16.3908 1675 67.0066 1037.93 475.624
2471 0 105.249 16.0476 1689 68.1557 1037.73 473.988
2472 0 110.175 16.501 1818 65.8922 1037.65 478.224
2473 0 115.109 17.7832 2047 64.1749 1036.77 479.098
2474 0 113.137 16.6348 1882 67.1578 1037.16 474.123
2475 0 117.287 15.8586 1860 68.3844 1037.11 469.335
2476 0 122.415 18.1187 2218 65.3922 1036.95 468.359
2477 0 128.884 19.3351 2492 63.2809 1036.75 469.502
2478 0 133.248 17.8539 2379 65.6011 1037.73 469.349
2479 0 134.422 16.0986 2164 68.0915 1036.87 467.947
2480 0 135.23 16.1872 2189 68.9374 1037.71 466.696
2481 0 136.159 15.4525 2104 71.0095 1036.89 460.249
2482 0 140.202 17.5247 2457 67.7912 1037.18 461.157
2483 0 146.916 17.1799 2524 67.7437 1037.17 459.477
2484 0 147.145 15.8279 2329 70.6368 1037.28 456.388
2485 0 148.381 14.894 2210 72.9154 1037.52 452.172
2486 0 158.61 17.9813 2852 67.6823 1037.29 454.648
2487 0 160.49 17.889 2871 68.0791 1037.52 453.596
2488 0 163.577 17.1724 2809 69.8992 1037.21 449.934
2489 0 167.219 15.698 2625 72.6053 1037.27 442.82
2490 0 174.402 17.6432 3077 69.5486 1037.21 443.251
2491 0 169.385 21.7433 3683 40.2935 1036.82 445.237
2492 1 50.0584 11.9461 598 70.3311 1036.59 335.219
2493 0 52.1095 12.6273 658 69.3131 1037.17 336.783
2494 0 52.034 11.3772 592 70.1233 1036.95 339.495
