time division length width area intensity CMx CMy
0 0 80.0729 13.1505 1053 65.528 895.519 358.477
1 0 83.0897 13.5396 1125 65.1876 895.124 355.282
2 0 83.122 11.6696 970 67.8763 895.305 355.156
3 0 87.1846 12.2499 1068 66.9504 895.405 354.499
4 0 88.2737 11.6116 1025 68.0634 894.955 352.237
5 0 95.0942 12.7558 1213 65.7304 894.424 354.83
6 0 99.164 13.3819 1327 65.15 894.751 350.044
7 1 41.0813 10.6131 436 63.9725 894.048 378.344
8 0 42.1165 11.9905 505 63.1406 894.147 378.067
9 0 42.0637 10.1513 427 64.7143 894.066 379.08
10 0 44.061 13.3224 587 62.5826 893.716 374.756
11 0 50.0579 11.9062 596 62.6393 892.978 374.674
12 0 49.1783 13.0545 642 61.3614 893.089 375.075
13 0 51.0806 11.4721 586 63.099 893.007 375.299
14 0 53.0402 13.3672 709 61.0042 892.757 372.196
15 0 53.1641 13.0351 693 61.6133 892.791 372.915
16 0 55.036 12.5918 693 62.1356 892.426 372.152
17 0 58.1562 14.5126 844 60.4289 892.559 370.03
18 0 60.0482 14.5716 875 60.1577 892.725 369.841
19 0 61.0861 11.8358 723 63.2006 892.934 369.909
20 0 62.0633 13.2284 821 62.24 893.158 366.744
21 0 67.1241 13.2739 891 61.8889 893.404 364.605
22 0 66.0869 13.3915 885 62.1797 893.026 364.844
23 0 70.0948 12.8112 898 62.5189 892.726 365.32
24 0 72.0757 13.1945 951 62.1041 892.343 363.252
25 0 71.0383 9.85383 700 66.1271 892.693 364.4
26 0 75.0672 11.563 868 64.2742 892.514 362.947
27 0 78.0532 12.2865 959 63.6246 891.88 361.356
28 0 81.1442 13.4945 1095 62.221 892.495 360.149
29 0 85.1285 12.8629 1095 62.1205 892.832 360.402
30 0 88.2425 12.409 1095 63.305 892.21 355.288
31 0 88.1732 13.2013 1164 62.3754 892.036 355.777
32 1 45.0473 9.67871 436 64.3578 891.644 377
33 0 49.0562 11.7824 578 60.9031 891.543 377.457
34 0 51.2235 12.2014 625 60.336 892.122 375.459
35 0 53.0391 13.3109 706 59.6898 891.508 373.163
36 0 52.048 12.2964 640 61.4875 891.806 372.663
37 0 54.1109 11.3656 615 61.9593 891.811 373.072
38 0 58.0777 13.1548 764 60.288 892.384 371.217
39 0 58.0634 11.2463 653 61.7443 892.397 373.338
40 0 61.0714 12.2971 751 61.8842 892.021 368.353
41 0 64.0654 13.3613 856 60.4206 892.272 368.481
42 0 65.0853 13.2134 860 60.9081 892.16 365.251
43 0 68.1202 12.8596 876 60.9977 892.279 366.171
44 0 67.1181 11.5766 777 63.6847 892.25 363.782
45 0 67.0619 10.0653 675 65.757 892.135 361.569
46 0 73.1905 11.6135 850 63.5188 892.326 359.679
47 0 75.0822 12.6528 950 62.5421 892.004 360.221
48 0 79.0946 12.3649 978 62.544 892.033 358.119
49 0 80.0494 11.4429 916 63.7052 891.951 357.323
50 0 83.0726 11.508 956 63.569 892.001 356.883
51 1 47.1015 9.99968 471 63.431 892.174 372.174
52 0 49.0324 12.2572 601 61.2213 892.266 371.203
53 0 53.0379 11.6898 620 61.3532 892.171 370.584
54 0 53.0258 11.617 616 62.0097 891.737 369.321
55 0 54.0605 12.634 683 60.5534 891.971 370.672
56 0 57.1472 12.2316 699 60.6738 891.702 369.894
57 0 56.2161 11.7048 658 62.9347 891.729 365.997
58 0 58.0575 11.1269 646 63.0418 891.729 367.741
59 0 61.0434 12.9908 793 60.6381 891.757 368.033
60 0 64.0845 12.5615 805 61.2422 891.908 366.18
61 0 66.1608 13.5276 895 60.1173 892.003 366.409
62 0 68.0838 12.8665 876 61.4201 892.495 363.392
63 0 70.0487 13.6619 957 60.6698 891.747 363.351
64 0 73.1933 13.075 957 61.7461 892.259 362.924
65 0 74.123 12.5602 931 62.0107 892.04 363.899
66 0 75.1462 15.4765 1163 59.816 892.398 358.525
67 0 79.1397 13.6088 1077 61.3937 891.014 361.246
68 0 81.109 13.1428 1066 62.469 890.923 358.798
69 0 84.1705 11.9282 1004 63.6902 891.058 359.903
70 0 84.1536 12.4059 1044 64.5096 891.486 354.978
71 1 48.0568 11.8193 568 62.8539 891.609 375.685
72 0 47.0546 10.3072 485 65.4928 891.107 376.08
73 0 50.0781 13.2393 663 62.4042 891.32 374.072
74 0 51.0788 12.9408 661 62.7201 891.132 375.725
75 0 54.1205 12.583 681 63.185 891.918 373.922
76 0 56.1213 12.2592 688 63.2078 891.246 373.808
77 0 57.1982 12.5528 718 63.8914 891.05 371.348
78 0 57.1178 11.345 648 65.8009 891.193 370.719
79 0 61.2306 12.6244 773 63.5265 891.323 369.59
80 0 60.0693 13.1015 787 64.2414 891.3 366.173
81 0 63.1232 11.3904 719 65.6106 891.736 366.449
82 0 66.0826 14.3457 948 61.4209 891.399 367.934
83 0 70.1767 13.3805 939 62.6624 891.004 365.276
84 0 73.1058 13.4599 984 62.6311 890.871 364.811
85 0 73.181 14.0337 1027 62.7488 891.135 362.671
86 0 76.0924 12.59 958 63.9697 891.24 363.74
87 0 80.1571 11.0907 889 65.4803 891.372 362.361
88 0 81.1451 12.2373 993 64.569 891.432 361.503
89 0 86.1248 13.5617 1168 63.3699 891.608 360.392
90 0 88.1879 13.2444 1168 64.0608 891.973 357.968
91 0 91.1547 12.8024 1167 65.4927 891.698 354.871
92 1 50.1091 11.9938 601 64.4775 891.824 374.488
93 0 53.2876 12.4044 661 64.0182 891.33 374.59
94 0 53.1031 12.4851 663 64.9653 891.965 374.854
95 0 56.0849 11.7144 657 65.6743 891.845 373.91
96 0 58.0939 12.9962 755 64.1735 891.457 373.53
97 0 56.1617 11.3957 640 67.5875 891.356 371.175
98 0 59.0634 13.3077 786 64.8969 891.571 372.095
99 0 63.0386 12.9286 815 64.919 891.692 371.087
100 0 65.0559 14.9871 975 63.0031 891.946 367.623
101 0 64.1302 13.3478 856 66.5327 891.826 365.453
102 0 65.1082 13.132 855 66.3696 891.959 367.922
103 0 69.1203 13.7441 950 65.7211 891.879 364.863
104 0 68.0637 11.5627 787 69.1537 891.977 365.186
105 0 73.152 13.6838 1001 65.951 891.996 363.824
106 0 76.1512 14.747 1123 64.756 891.762 363.829
107 0 77.0424 13.1486 1013 66.9398 891.885 364.102
108 0 79.0723 14.4931 1146 65.5759 891.02 361.54
109 0 83.097 14.5493 1209 65.2399 891.481 359.206
110 0 86.0576 12.4684 1073 66.6253 891.715 362.836
111 0 86.0954 13.5083 1163 66.9269 891.91 358.396
112 0 92.06 13.2957 1224 66.3015 891.959 358.346
113 0 92.0996 12.9425 1192 67.6779 891.716 356.076
114 0 97.0594 13.5896 1319 66.5284 891.972 354.406
115 1 52.02 12.1492 632 67.462 892.009 373.883
116 0 52.0493 12.2576 638 67.7618 892.197 371.824
117 0 54.0419 12.5458 678 67.3746 891.892 370.901
118 0 56.0261 13.0118 729 66.4595 891.925 371.126
119 0 57.058 11.9527 682 67.5425 891.903 371.082
120 0 58.0433 13.1626 764 66.4607 892.264 370.2
121 0 62.1223 12.7651 793 65.9168 892.488 371.409
122 0 63.1866 13.0091 822 65.9672 891.82 368.022
123 0 64.0377 14.3041 916 64.3308 891.913 367.429
124 0 65.1045 11.2435 732 67.6475 892.288 367.919
125 0 70.1087 14.7628 1035 62.8454 892.313 367.146
126 0 72.0316 13.272 956 65.0429 892.65 365.676
127 0 73.1029 13.2006 965 64.9627 892.113 365.399
128 0 75.0327 14.6203 1097 63.9535 891.959 363.532
129 0 77.0703 14.5581 1122 63.9938 891.775 361.324
130 0 81.1984 14.2983 1161 64.0603 891.995 359.203
131 0 82.0687 13.8421 1136 64.6426 892.021 360.24
132 0 87.1643 13.7327 1197 64.5054 892.111 359.381
133 0 90.1191 13.9704 1259 64.3264 892.515 358.6
134 1 51.0852 12.5085 639 64.6385 892.784 376.527
135 0 54.1058 11.995 649 64.4176 892.337 377.043
136 0 55.0648 13.7111 755 63.2596 892.377 375.264
137 0 56.1173 11.672 655 65.4198 892.208 375.037
138 0 57.0637 13.1958 753 64.6853 892.234 374.308
139 0 61.0306 12.3545 754 64.569 891.76 375.141
140 0 59.0539 10.7021 632 66.9668 891.464 375.052
141 0 64.0892 14.3082 917 62.6718 891.281 372.314
142 0 67.0573 14.3459 962 62.0166 892.132 373.925
143 0 68.102 13.7 933 63.6517 891.308 372.308
144 0 69.0467 14.8595 1026 62.5634 891.812 371.824
145 0 72.0385 15.3945 1109 62.0225 892.244 369.85
146 0 75.0661 14.8935 1118 62.8122 892.393 368.271
147 0 77.0641 12.2755 946 65.7431 892.571 370.479
148 0 82.2317 14.5199 1194 62.4447 892.14 370.224
149 0 82.0959 14.9338 1226 62.3361 891.95 370.608
150 0 87.0717 15.6997 1367 62.0644 891.904 366.51
151 0 89.1714 13.0199 1161 65.4014 892.031 366.046
152 1 48.0404 13.7593 661 62.4478 892.256 384.888
153 0 52.0793 12.5002 651 62.9739 893.194 386.404
154 0 51.0822 12.5876 643 63.9471 892.874 384.232
155 0 53.0558 11.1958 594 66.1061 892.911 383.783
156 0 55.0749 14.1625 780 63.35 892.94 382.835
157 0 56.1491 13.4285 754 64.1021 892.643 382.541
158 0 56.0559 12.7195 713 65.6704 892.558 381.317
159 0 58.0535 12.6263 733 65.5675 892.943 382.667
160 0 61.1108 14.6946 898 62.6514 892.569 379.009
161 0 63.039 12.8809 812 64.1466 892.266 381.751
162 0 66.105 14.7039 972 62.0401 892.642 379.204
163 0 69.1055 14.6877 1015 61.8394 892.585 378.916
164 0 72.0804 15.9128 1147 60.3461 892.795 379.001
165 0 73.1163 12.7468 932 64.4753 892.529 376.222
166 0 75.0438 12.4327 933 64.4587 892.178 376.988
167 0 75.0645 13.4018 1006 64.7147 892.997 371.768
168 0 79.0762 11.5205 911 65.9748 892.849 374.43
169 1 44.046 12.2372 539 61.3321 892.521 392.683
170 0 44.0165 12.6544 557 62.7199 892.959 390.061
171 0 45.0241 11.3273 510 64.3078 892.949 388.235
172 0 47.1024 13.2053 622 61.7524 892.559 388.624
173 0 47.0691 12.6197 594 62.5724 892.242 388.286
174 0 49.0821 13.345 655 61.9435 892.725 387.221
175 0 49.0304 11.6662 572 64.1521 892.788 386.486
176 0 52.0366 11.8763 618 63.8447 893.105 385.864
177 0 54.1513 13.2961 720 62.425 893.367 382.276
178 0 56.1065 14.9002 836 60.4856 893.566 381.683
179 0 56.0325 14.6879 823 60.9429 892.978 381.51
180 0 60.1584 14.894 896 59.769 892.069 381.036
181 0 60.0228 11.3957 684 64.5775 892.064 380.614
182 0 62.2911 12.7145 792 63.3447 892.39 379.098
183 0 64.0461 13.5527 868 62.7408 892.139 378.153
184 0 64.1362 12.0681 774 65.4005 892.532 374.886
185 0 69.1102 12.169 841 64.654 891.841 376.677
186 0 71.0376 13.3591 949 64.3909 891.368 371.179
187 0 74.0801 12.3515 915 64.9825 891.819 374.024
188 1 40.017 12.5197 501 62.523 892.407 388.285
189 0 41.0895 10.83 445 63.0854 892.362 389.989
190 0 42.1782 10.669 450 64.8667 892.024 387.156
191 0 43.0626 12.6792 546 63.2088 891.832 385.513
192 0 44.0506 12.1451 535 64.6766 891.957 384.667
193 0 46.0813 11.5448 532 64.7519 892.303 385.312
194 0 49.1032 12.0562 592 64.4882 892.208 383.546
195 0 50.2168 11.988 602 64.0748 892.346 383.548
196 0 51.1661 10.9838 562 66.0907 892.589 381.644
197 0 53.0727 11.9836 636 65.1053 892.858 379.833
198 0 55.1211 12.409 684 64.6184 893.168 380.219
199 0 56.0517 12.1495 681 65.1424 892.88 379.623
200 0 60.2264 13.167 793 63.6784 892.864 378.779
201 0 60.2141 12.0238 724 65.7597 892.021 376.653
202 0 63.0696 13.0966 826 64.5738 892.255 374.88
203 0 65.157 13.2756 865 64.3156 892.188 373.287
204 0 65.1678 12.2453 798 65.8371 892.103 373.11
205 0 66.133 12.369 818 66.2445 892.099 370.927
206 0 69.1472 11.8298 818 66.4731 891.983 370.911
207 0 72.2254 13.5825 981 62.8981 892.127 370.218
208 0 74.269 10.7043 795 65.7673 892.308 370.819
209 0 76.1121 11.5882 882 65.0782 891.883 369.661
210 0 79.2359 11.1944 887 65.1567 891.607 367.874
211 0 84.2209 12.5147 1054 63.9402 892.197 363.556
212 0 85.086 12.0466 1025 64.1785 892.356 366.064
213 0 88.1684 13.7011 1208 62.6184 892.591 361.661
214 0 91.1251 13.2236 1205 63.3461 892.338 361.422
215 1 49.1121 10.0383 493 65.3205 892.434 381.892
216 0 52.0911 11.9214 621 62.9002 892.163 381.341
217 0 54.0859 11.944 646 63.6362 891.443 378.805
218 0 56.0678 13.0556 732 61.2596 891.898 379.284
219 0 59.1039 12.5203 740 62.1689 891.599 377.851
220 0 58.3101 12.6222 736 62.1128 891.594 377.777
221 0 59.0758 11.646 688 63.7035 891.618 376.356
222 0 62.0666 12.9699 805 61.9255 891.988 374.527
223 0 63.1215 14.274 901 60.3507 891.675 373.891
224 0 67.191 14.6299 983 59.9512 891.247 371.16
225 0 67.0717 11.7486 788 62.5774 891.588 374.193
226 0 71.2399 13.5037 962 60.3919 892.065 372.61
227 0 72.0408 13.0343 939 61.7657 891.925 370.116
228 0 74.0953 15.9929 1185 58.6143 892.271 368.235
229 0 75.1111 13.8062 1037 61.5458 892.324 364.614
230 0 78.1202 12.0455 941 63.5122 892.219 362.783
231 0 82.1393 13.1119 1077 62.0854 892.082 360.637
232 0 83.074 13.8431 1150 61.8922 892.094 359.296
233 0 84.0538 13.0868 1100 63.0045 891.915 357.69
234 0 92.0713 13.5004 1243 61.8375 892.871 357.487
235 1 48.2101 11.5329 556 63.259 892.986 378.079
236 0 49.0384 13.2549 650 62.8662 892.311 375.857
237 0 51.1628 12.9 660 63.1773 892.677 374.162
238 0 53.1633 9.83762 523 66.2046 892.499 375.358
239 0 55.0768 12.8185 706 63.8215 891.989 373.398
240 0 56.1371 13.3245 748 63.9519 892.341 371.787
241 0 60.0238 14.6109 877 61.5747 892.14 371.716
242 0 59.128 11.01 651 66.8694 892.002 368.673
243 0 65.1106 12.4404 810 63.7988 891.595 369.631
244 0 64.1555 14.5895 936 62.2724 891.847 367.585
245 0 67.1243 14.2273 955 61.9969 891.346 367.055
246 0 69.0807 13.8678 958 63.2088 891.377 364.508
247 0 71.0481 12.7097 903 64.6999 891.864 363.922
248 0 74.061 13.7724 1020 62.5559 891.075 364.382
249 0 75.1328 12.631 949 64.6797 891.308 362.114
250 0 77.0729 13.5716 1046 64.1367 891.314 359.261
251 0 80.1161 12.6442 1013 65.309 891.467 358.494
252 0 82.2754 12.4217 1022 65.6341 891.949 357.402
253 1 47.082 12.0216 566 63.2898 891.723 375.906
254 0 47.0473 11.8179 556 64.3831 891.75 376.025
255 0 50.0243 12.5739 629 63.1685 891.625 374.533
256 0 52.1502 11.2559 587 65.2641 891.242 374.037
257 0 52.1582 12.8647 671 63.851 891.367 372.882
258 0 55.1585 13.5791 749 62.3391 892.064 374.398
259 0 57.0702 11.8976 679 64.6465 891.872 373.442
260 0 57.0813 13.4545 768 64.2487 892.134 370.682
261 0 62.1858 13.0737 813 63.3407 892 371.221
262 0 62.0445 13.1196 814 64.1818 892.405 367.629
263 0 66.0503 14.489 957 61.3386 892.308 369.48
264 0 64.0831 11.1418 714 66.9132 891.164 365.27
265 0 68.0961 12.6733 863 64.8273 891.806 363.768
266 0 70.1203 13.648 957 63.1599 891.79 365.089
267 0 71.0773 12.3387 877 65.4709 891.428 361.716
268 0 75.0549 15.0956 1133 61.4616 891.376 361.589
269 0 76.0449 14.1495 1076 63.277 891.623 359.405
270 0 80.061 12.428 995 64.5146 891.62 358.742
271 0 83.0825 14.5277 1207 61.9089 891.657 356.171
272 0 85.0627 12.2615 1043 64.7699 891.879 355.679
273 0 89.3006 15.1063 1349 61.4107 891.878 354.137
274 1 47.0681 11.5577 544 61.4816 891.89 376.033
275 0 48.0935 11.2073 539 62.8998 891.532 374.23
276 0 51.0712 12.7273 650 61.6231 891.378 372.925
277 0 51.1552 12.6673 648 61.5463 891.915 372.85
278 0 53.0713 11.5505 613 61.9821 891.375 372.447
279 0 55.0405 11.755 647 61.3369 890.921 372.43
280 0 55.0904 13.0694 720 61.1806 891.376 369.688
281 0 58.0722 13.4488 781 60.2983 891.374 369.42
282 0 62.0918 11.7568 730 60.7945 891.462 370.696
283 0 60.0669 12.869 773 60.881 890.862 367.088
284 0 67.2724 16.5149 1111 54.8119 890.626 371.15
285 0 65.0939 12.6894 826 60.5521 890.648 368.921
286 0 68.1169 15.2972 1042 57.8916 890.76 366.224
287 0 72.1813 13.8124 997 59.4223 891.116 366.838
288 0 72.1586 13.2763 958 61.1754 891.639 363.606
289 0 75.1154 12.7404 957 62.5152 891.63 361.22
290 0 73.1287 13.0592 955 62.9937 891.551 358.469
291 0 76.1846 11.3277 863 64.9757 891.904 360.124
292 0 81.1442 13.9382 1131 61.0875 891.518 361.056
293 0 85.1607 13.0812 1114 61.6804 891.359 359.882
294 0 84.1367 11.4338 962 64.9023 891.656 356.783
295 0 92.216 13.0563 1204 61.5116 891.453 358.462
296 0 92.0965 12.02 1107 63.2403 891.506 355.051
297 1 47.0487 11.2224 528 63.161 891.225 374.991
298 0 50.1576 10.168 510 64.0569 891.565 372.998
299 0 54.0338 12.1776 658 60.8131 891.242 374.702
300 0 56.0872 10.8046 606 62.5281 891.198 373.183
301 0 58.0482 14.4535 839 59.23 891.774 368.182
302 0 60.1412 12.5538 755 61.1497 891.615 369.801
303 0 62.1818 12.7529 793 61.0328 891.733 369.678
304 0 64.0846 13.9815 896 60.1462 891.462 367.58
305 0 67.0655 12.5698 843 61.4282 891.612 367.974
306 0 66.1868 13.9605 924 60.9968 891.613 365.661
307 0 71.2201 13.5636 966 60.0963 891.332 367.788
308 0 73.1 12.5718 919 61.5745 891.54 366.551
309 0 74.1645 10.8812 807 63.43 891.152 366.503
310 0 74.1521 10.9909 815 65.1117 890.88 361.391
311 0 80.1808 12.7462 1022 61.5802 891.276 364.08
312 1 40.0817 11.8757 476 61.6576 891.389 379.17
313 0 40.0775 11.5526 463 62.1058 891.816 380.13
314 0 41.0337 11.5027 472 62.4089 891.239 380.612
315 0 41.1039 9.34219 384 65.6875 891.203 377.466
316 0 45.0586 9.74287 439 64.3781 890.645 375.708
317 0 48.0559 11.882 571 62.0053 890.475 374.128
318 0 49.1665 12.5899 619 62.0065 890.473 372.191
319 0 48.0891 11.7698 566 62.9152 890.281 373.62
320 0 51.1088 13.3245 681 61.8267 890.977 370.549
321 0 51.0493 10.676 545 64.8844 890.987 372.473
322 0 54.0349 11.1225 601 63.8153 891.13 371.762
323 0 58.0951 12.6172 733 61.3261 890.891 373.042
324 0 59.0623 12.2752 725 62.7131 890.514 369.326
325 0 62.0777 14.353 891 59.3378 890.724 369.147
326 0 64.127 12.5376 804 61.6405 890.699 368.983
327 0 66.2986 15.5358 1030 57.9117 891.144 368.428
328 0 67.1281 11.8579 796 62.7563 890.765 365.369
329 1 36.0447 11.7632 424 62.4599 891.024 378.394
330 0 39.1202 11.3496 444 61.7703 890.883 378.14
331 0 39.0788 10.1334 396 64.0025 891.096 378.326
332 0 42.0499 13.1748 554 59.9675 891.329 376.982
333 0 44.078 11.2528 496 61.7339 890.438 377.653
334 0 44.0474 13.372 589 59.5195 890.426 377.669
335 0 45.0842 10.3806 468 63.7521 890.504 375.335
336 0 49.0573 13.9633 685 59.7124 891.311 374.709
337 0 49.0231 11.1172 545 63.0606 891.417 373.58
338 0 52.1256 11.0502 576 62.941 891.21 373.24
339 0 52.0893 12.1714 634 61.9732 891.107 371.842
340 0 55.0834 12.7443 702 60.7493 891.389 371.249
341 0 58.13 13.2462 770 59.7312 891.683 371.094
342 0 59.0954 14.062 831 59.2876 891.319 369.247
343 0 62.0337 14.3309 889 58.4488 891.85 368.713
344 0 62.1206 11.6226 722 61.4252 891.648 368.943
345 0 62.1182 11.0113 684 62.7251 891.31 367.23
346 0 66.1464 11.4141 755 61.6278 891.274 366.636
347 0 68.0826 12.7345 867 60.5433 890.886 362.08
348 0 71.0871 11.4648 815 61.4331 890.293 363.69
349 0 73.1916 12.6654 927 60.3215 890.285 359.674
350 0 73.1783 11.0552 809 62.0618 890.213 362.951
351 0 76.1541 13.1313 1000 59.665 890.15 361.866
352 0 80.1494 11.5409 925 61.5005 890.223 356.144
353 0 80.1494 11.6408 933 138.956 890.22 356.121
354 1 41.0612 10.8131 444 59.6532 890.761 376.559
355 0 44.0866 11.5908 511 59.6791 890.834 373.859
356 0 42.1459 11.1043 468 61.0128 891.645 375.479
357 0 45.031 11.059 498 59.9799 890.369 376.08
358 0 51.0816 12.2353 625 57.8624 889.638 374.786
359 0 49.0352 12.1341 595 58.3294 890.859 374.955
360 0 51.0769 11.884 607 58.6096 890.817 373.326
361 0 56.0896 14.2451 799 56.2003 890.34 370.782
362 0 52.1941 10.825 565 60.7115 890.819 368.129
363 0 58.0503 12.7476 740 58.0946 891.023 369.992
364 0 61.0727 11.167 682 59.3167 890.738 368.55
365 0 60.1342 11.9067 716 58.4818 890.36 367.679
366 0 63.2013 11.9301 754 58.6167 891.064 365.589
367 0 64.1325 11.8193 758 58.6385 891.22 366.573
368 0 66.096 12.5575 830 58.0518 891.38 364.382
369 0 70.1643 12.2142 857 58.2077 891.532 363.677
370 0 74.1123 12.1437 900 57.9822 891.118 361.583
371 0 78.2149 13.1816 1031 56.5684 890.992 358.58
372 0 80.1183 12.8185 1027 56.9873 891.074 357.784
373 0 82.2244 12.4051 1020 57.849 891.256 354.756
374 0 84.1695 14.1619 1192 56.2651 891.284 353.94
375 0 87.1328 12.6359 1101 57.624 891.582 353.38
376 0 90.1671 12.2883 1108 58.3818 891.499 348.093
377 1 48.107 11.5991 558 57.2885 891.79 368.989
378 0 48.0949 9.75155 469 58.629 890.527 368.851
379 0 50.1701 11.5806 581 57.3873 890.518 367.976
380 0 54.0849 10.7978 584 57.0942 890.856 370.163
381 0 56.1422 13.448 755 54.9669 891.048 367.287
382 0 57.0736 11.8794 678 56.7345 889.923 364.795
383 0 59.0379 11.3995 673 57.3373 890.269 366.083
384 0 61.0851 11.0829 677 57.5968 890.66 361.742
385 0 63.0497 13.0215 821 56.1267 890.622 359.62
386 0 66.077 11.6682 771 56.7069 890.817 360.772
387 0 70.0625 11.975 839 56.5018 890.675 361.453
388 0 73.1474 15.0655 1102 52.8739 890.926 364.324
389 0 76.1365 11.6633 888 56.3232 890.725 361.056
390 0 76.0676 13.8298 1052 54.576 890.369 356.909
391 0 80.1386 14.6746 1176 53.5799 890.823 356.271
392 0 82.1827 12.5452 1031 55.3792 890.903 357.756
393 0 84.1536 13.5585 1141 55.4978 890.215 351.19
394 0 87.0719 13.4601 1172 55.7398 890.655 350.09
395 0 90.1446 10.8825 981 57.8247 890.332 352.102
396 1 46.1406 9.88284 456 57.3465 890.121 373.029
397 0 49.0492 11.7229 575 56.047 890.558 370.645
398 0 52.0635 12.4463 648 55.6528 889.833 370.39
399 0 51.1117 12.1499 621 56.4444 890.581 368.217
400 0 55.0649 12.1675 670 56.5418 890.63 370.49
401 0 57.1196 12.5701 718 56.2145 890.951 368.553
402 0 59.1326 11.8716 702 56.4687 890.672 370.066
403 0 62.0939 13.0286 809 56.2002 890.473 366.566
404 0 60.1746 11.7159 705 58.5404 890.716 363.348
405 0 67.1644 12.1195 814 57.3857 890.969 364.095
406 0 67.06 12.6901 851 56.8966 890.368 363.888
407 0 68.0661 14.2068 967 55.9307 890.659 362.003
408 0 69.2294 11.498 796 58.9523 890.381 362.361
409 0 73.0544 12.4975 913 57.839 890.901 360.425
410 0 74.0885 12.863 953 57.5635 890.461 359.924
411 1 39.0766 10.3899 406 58.6847 890.911 376.884
412 0 41.0457 11.5237 473 58.0677 890.696 375.67
413 0 42.0101 12.735 535 56.7981 890.914 375.695
414 0 44.1016 10.3851 458 59.9061 890.871 373.764
415 0 47.0394 12.1813 573 57.5113 891.237 374.736
416 0 49.0968 12.1597 597 57.7588 891.42 372.69
417 0 50.0432 11.4701 574 58.7143 891.416 372.314
418 0 50.0127 12.7568 638 58.1614 890.998 370.237
419 0 54.0388 12.9537 700 57.4414 890.996 369.73
420 0 55.0773 12.1647 670 58.3955 890.596 367.848
421 0 59.1698 13.1655 779 56.9204 890.44 368.268
422 0 57.0545 11.0421 630 59.6698 890.673 366.457
423 0 61.1606 10.5624 646 59.8514 890.729 367.368
424 0 62.0729 11.8409 735 58.8027 891.053 366.819
425 0 65.1122 10.4742 682 59.346 890.858 367.698
426 0 66.0898 12.1955 806 58.237 890.545 365.22
427 0 70.0775 16.5246 1158 54.2219 890.652 362.904
428 0 71.176 11.6191 827 59.1149 890.768 363.596
429 0 73.2545 13.6647 1001 57.5055 890.973 361.934
430 0 77.1155 12.9805 1001 58.3107 891.029 358.564
431 0 81.2008 13.4235 1090 57.7752 890.883 357.5
432 0 84.1792 12.8654 1083 58.0665 890.799 358.741
433 0 88.1111 14.4023 1269 56.9693 890.962 354.66
434 0 90.2105 14.9096 1345 56.2528 890.738 355.155
435 1 45.1506 10.7861 487 59.4641 891.341 375.012
436 0 48.142 11.5076 554 59.2094 891.339 373.354
437 0 51.0761 11.5122 588 59.2823 891.024 372.236
438 0 50.0574 10.8875 545 61.3688 891.097 370.04
439 0 55.1873 13.7169 757 57.5588 891.098 370.783
440 0 55.0709 11.2037 617 60.4522 890.746 370.389
441 0 59.1094 13.1451 777 58.1493 890.856 369.254
442 0 62.0718 12.55 779 58.7908 891.23 369.403
443 0 59.0574 10.4305 616 62.7971 890.852 365.657
444 0 64.0361 13.6017 871 58.9059 890.696 362.999
445 0 65.2216 12.2812 801 60.1436 891.009 362.429
446 0 66.1735 13.9482 923 58.7151 891.431 363.283
447 0 70.0562 13.8032 967 59.0538 890.852 361.93
448 0 70.0849 11.7714 825 61.7576 890.912 360.269
449 0 75.1541 13.3326 1002 59.49 891.027 360.1
450 0 78.2023 12.4293 972 60.7109 890.584 358.16
451 0 79.136 12.0299 952 61.0525 890.673 359.436
452 0 84.213 14.3921 1212 58.297 891.208 357.95
453 0 84.2634 11.7726 992 61.7651 891.079 355.655
454 0 89.1741 12.997 1159 59.7575 891.197 357.129
455 1 45.1178 10.3729 468 62.4509 890.801 371.951
456 0 50.0779 11.1826 560 60.7 891.2 374.071
457 0 52.2351 12.8649 672 59.3914 891.844 373.673
458 0 52.0888 12.1907 635 59.9134 891.575 374.831
459 0 54.1131 13.5272 732 59.0902 891.564 372.596
460 0 56.0491 11.9895 672 61.0744 891.445 369.728
461 0 58.0647 13.02 756 59.5529 891.538 370.206
462 0 60.0697 13.5509 814 58.6499 891.344 370.012
463 0 61.0464 12.8754 786 60.4949 891.527 366.536
464 0 66.1448 14.3927 952 57.0872 891.096 368.513
465 0 68.0757 13.0296 887 58.6584 891.315 368.363
466 0 69.1635 13.6344 943 58.7593 891.715 364.125
467 0 74.1191 13.6267 1010 58.5881 891.054 361.039
468 0 76.1791 12.6019 960 59.5479 890.959 363.03
469 0 77.0798 12.9606 999 59.5065 891.008 360.833
470 0 80.0662 12.7145 1018 59.7485 890.325 360.675
471 0 85.1455 16.5599 1410 55.3801 890.268 360.275
472 0 85.1414 12.6026 1073 60.6785 890.078 357.614
473 1 41.0701 9.90988 407 62.6265 890.305 375.032
474 0 49.7244 11.7246 583 58.1286 890.686 377.935
475 0 48.1498 13.0634 629 59.3196 890.388 375.067
476 0 50.1345 14.0023 702 58.839 890.577 372.613
477 0 52.1062 11.2271 585 61.7265 890.875 373.638
478 0 54.2244 14.7351 799 57.3767 891.617 373.732
479 0 52.084 11.9806 624 62.6843 891.293 371.361
480 0 56.0421 13.2579 743 60.7833 891.546 368.904
481 0 59.1492 12.1726 720 61.4472 891.614 368.85
482 0 57.2213 13.3342 763 60.7916 891.655 371.727
483 0 60.0983 12.6792 762 61.6667 891.793 369.269
484 0 61.0825 12.5404 766 62.2441 891.678 367.531
485 0 63.0664 12.8595 811 62.0025 891.57 367.178
486 0 68.1659 13.5258 922 61.1659 891.388 364.636
487 0 69.1528 12.6531 875 62.8811 891.566 363.253
488 0 72.0359 14.0486 1012 61.0731 891.474 363.018
489 0 73.0837 13.6966 1001 61.7652 891.586 361.679
490 0 75.0575 12.3239 925 63.5384 891.347 360.896
491 0 79.1342 12.523 991 63.1382 890.656 360.378
492 0 83.0414 14.2339 1182 61.319 890.612 357.467
493 0 85.152 13.059 1112 63.0845 890.533 356.423
494 0 86.138 12.6541 1090 64.0119 891.141 354.794
495 1 44.1348 10.9211 482 63.9668 891.598 375.844
496 0 45.1171 11.3261 511 64.0059 890.943 374.339
497 0 49.2449 12.9353 637 61.4898 890.538 373.95
498 0 47.0428 11.9253 561 63.5847 890.811 371.873
499 0 51.0995 12.4072 634 62.2208 890.869 373.008
500 0 50.062 10.8665 544 64.0496 890.822 372.498
501 0 53.0554 12.6472 671 62.237 890.881 369.805
502 0 54.0759 11.9462 646 63.3994 891.433 370.844
503 0 56.0277 12.3332 691 63.5948 891.336 367.871
504 0 57.1527 14.3475 820 60.5098 891.122 370.146
505 0 59.1238 12.736 753 62.6972 890.997 365.189
506 0 62.1659 11.3889 708 64.1158 890.782 367.263
507 0 62.111 11.4472 711 63.9508 891.113 367.733
508 0 65.1032 10.5525 687 64.2591 890.884 367.559
509 0 68.0579 12.078 822 63.4793 891.56 363.19
510 0 72.0711 11.225 809 64.7454 891.208 360.913
511 0 72.0834 11.1399 803 63.7198 891.564 363.492
512 0 75.1203 10.5165 790 65.5519 891.924 359.491
513 1 40.0278 10.7925 432 62.8079 892.243 376.153
514 0 43.0353 10.503 452 62.6283 891.841 377.265
515 0 44.0352 11.1275 490 62.2959 891.606 376.355
516 0 45.0454 10.1231 456 64.5066 891.553 375.555
517 0 48.0406 11.8025 567 62.5838 890.774 374.386
518 0 48.1422 12.1307 584 63.149 890.63 371.488
519 0 49.0536 11.7015 574 63.8519 890.826 370.702
520 0 54.0872 12.2765 664 62.4066 890.727 370.688
521 0 55.2295 12.1312 670 62.297 890.542 371.339
522 0 54.0477 11.7674 636 63.8396 890.008 368.428
523 0 56.1015 12.21 685 62.4292 890.126 371.28
524 0 60.0818 12.5995 757 61.7688 890.44 369.786
525 0 60.111 13.9908 841 61.1653 890.732 367.509
526 0 62.1025 14.2828 887 60.372 890.959 365.722
527 0 64.0512 11.6625 747 62.9799 890.809 367.896
528 0 68.0276 13.3916 911 61.1175 890.606 364.853
529 0 68.2342 10.9623 748 63.7326 891.132 365.468
530 0 70.0876 13.3262 934 61.545 890.804 362.858
531 1 34.0459 9.86903 336 63.8095 890.824 379.473
532 0 39.0685 12.2605 479 60.2359 890.595 378.263
533 0 40.011 14.2461 570 58.3421 891.246 378.856
534 0 40.0623 13.2044 529 60.017 890.448 377.306
535 0 41.1005 11.2164 461 61.449 890.872 378.605
536 0 41.1061 11.1176 457 62.6171 890.357 377.921
537 0 46.0689 13.4147 618 59.157 890.578 375.688
538 0 46.2144 13.6321 630 59.3349 891.871 374.646
539 0 49.0582 13.7999 677 59.387 892.106 373.499
540 0 48.1296 11.3028 544 62.8548 891.954 373.279
541 0 51.055 11.3603 580 62.4 891.643 372.588
542 0 52.1129 13.298 693 60.2006 891.465 371.974
543 0 52.1766 12.5919 657 61.5342 891.588 370.758
544 0 57.1074 13.5184 772 59.478 891.535 370.601
545 0 57.1023 12.1186 692 62.0925 891.016 368.139
546 0 61.0555 13.4304 820 60.1268 890.907 367.702
547 0 57.0302 12.2216 697 63.5294 891.372 364.056
548 0 64.0758 14.7794 947 58.9419 891.476 363.005
549 0 66.1104 13.6438 902 59.8004 891.552 366.379
550 0 66.0508 13.8833 917 60.5583 891.63 361.948
551 0 65.0788 11.5091 749 63.3765 891.936 362.896
552 0 69.1261 11.8913 822 62.9805 891.883 360.825
553 0 73.0334 12.816 936 62.0983 891.503 359.532
554 0 74.0833 11.3926 844 63.8614 891.019 359.846
555 0 76.1009 12.4966 951 62.4185 891.204 358.064
556 0 82.0631 14.2208 1167 60.371 891.741 358.279
557 1 42.0224 10.899 458 63.0284 891.258 374.784
558 0 43.1317 12.4502 537 62.797 891.464 373.086
559 0 45.0575 12.1622 548 62.9544 891.531 373.093
560 0 46.0745 10.5481 486 65.3827 891.601 371.827
561 0 46.0847 11.9129 549 63.8907 891.066 371.86
562 0 48.0483 10.5935 509 65.2672 891.438 370.992
563 0 51.0432 11.2454 574 64.2944 890.901 371.195
564 0 50.1247 13.6859 686 62.1953 890.362 368.663
565 0 54.0433 12.5455 678 63.115 890.827 369.037
566 0 55.0301 11.103 611 64.7365 890.594 368.478
567 0 58.1366 13.5027 785 61.9529 890.466 365.587
568 0 59.0692 12.2568 724 63.8218 890.822 366.616
569 0 61.0432 13.9737 853 61.803 890.973 365.333
570 0 63.0849 14.5201 916 60.9487 891.39 365.947
571 0 64.1193 13.1942 846 63.4173 891.421 363.746
572 0 66.087 14.602 965 61.7865 891.489 362.759
573 0 67.1155 14.557 977 61.9171 891.226 364.607
574 0 71.06 15.3673 1092 61.1383 891.343 360.724
575 0 71.0769 13.3799 951 64.1409 891.202 360.945
576 0 76.2042 13.5032 1029 63.6686 891.036 361.457
577 0 79.1835 14.0433 1112 63.0719 891.348 359.552
578 1 41.0516 11.7657 483 63.8012 891.4 379.824
579 0 42.0566 13.6483 574 61.4199 891.589 379.625
580 0 45.1655 12.6202 570 62.4895 892.044 378.763
581 0 46.1204 12.0771 557 62.3501 891.923 380.7
582 0 45.0539 11.6527 525 65.1695 892.097 377.154
583 0 46.071 11.9815 552 64.8478 891.696 378.067
584 0 47.0352 12.0548 567 64.8765 891.892 377.898
585 0 50.0263 15.4919 775 60.5419 891.541 377.671
586 0 53.0478 14.1193 749 61.1856 891.457 377.814
587 0 52.0683 11.5617 602 65.0897 891.636 374.606
588 0 55.0646 13.5659 747 62.5395 891.486 375.618
589 0 54.0922 13.5325 732 62.9344 891.627 376.917
590 0 56.1938 13.3111 748 62.6684 891.869 377.041
591 0 57.0663 13.5457 773 62.7193 891.928 378.096
592 0 63.0639 12.9868 819 62.5055 892.258 375.287
593 0 60.1478 11.4052 686 64.9213 891.98 375.883
594 0 64.1012 13.1511 843 62.4306 892.109 374.378
595 0 68.1093 11.6577 794 63.6851 891.768 375.879
596 1 35.0938 10.6572 374 62.5 891.628 391.123
597 0 38.0668 12.373 471 60.2123 891.535 391.616
598 0 38.0813 11.6067 442 61.2285 891.161 392.215
599 0 36.0551 12.0094 433 61.3788 891.016 392.561
600 0 42.0214 11.8273 497 60.8209 891.286 390.39
601 0 43.1776 12.2286 528 60.1288 891.627 389.398
602 0 43.1441 13.0957 565 59.8796 891.294 387.517
603 0 46.1101 13.5545 625 58.6656 891.466 388.011
604 0 48.0176 12.8494 617 58.0778 891.457 388.985
605 0 48.0417 11.3651 546 61.1154 891.183 383.722
606 0 50.0671 12.683 635 59.5795 891.742 383.857
607 0 52.043 11.2984 588 60.8622 891.335 383.002
608 0 52.0624 13.6951 713 58.4727 891.626 381.926
609 0 56.0897 11.1964 628 60.8901 891.874 380.408
610 0 58.0501 13.6434 792 57.9419 891.875 381.441
611 0 59.0746 11.6124 686 60.5496 891.437 379.536
612 0 59.0704 13.4755 796 59.4271 891.579 378.954
613 0 63.0597 13.2097 833 59.3625 891.515 380.405
614 0 64.1607 11.5803 743 61.1736 891.287 378.346
615 0 66.0401 13.4918 891 59.615 891.392 376.574
616 0 66.1785 12.2396 810 62.2543 891.856 375.095
617 0 70.0415 12.4355 871 61.6039 891.067 374.587
618 0 73.0524 12.4568 910 61.2242 891.333 375.896
619 0 78.0667 14.4108 1125 59.1431 891.088 375.083
620 0 81.2391 12.4078 1008 61.2371 890.796 373.731
621 0 80.1897 14.3784 1153 60.6696 891.104 371.493
622 0 83.0874 10.7477 893 64.7951 891.059 368.948
623 1 44.0838 10.9791 484 61.6591 891.426 389.988
624 0 46.0789 11.1114 512 62.0898 891.232 389.496
625 0 47.0303 11.6095 546 61.8095 890.916 389.623
626 0 48.0377 11.6991 562 61.5854 890.847 388.525
627 0 50.1008 12.0557 604 61.4421 890.982 387.778
628 0 52.0839 12.7679 665 60.7489 890.967 387.027
629 0 54.0978 13.8268 748 59.3556 891.079 385.452
630 0 57.1057 12.293 702 60.6439 890.996 385.605
631 0 55.0727 13.4186 739 60.6022 890.636 382.537
632 0 57.0796 10.8445 619 63.0582 891.168 382.504
633 0 61.0994 13.1753 805 60.1975 891.692 382.143
634 0 62.0284 12.591 781 61.2843 891.483 380.402
635 0 62.1035 10.4664 650 63.6692 891.922 380.711
636 0 69.0781 14.6501 1012 58.1285 891.895 380.084
637 0 70.1665 14.3088 1004 59.257 891.832 376.298
638 0 71.0861 9.93162 706 63.6105 891.673 378.807
639 0 74.107 13.1566 975 60.6923 892.083 375.887
640 0 75.0843 13.1852 990 61.5505 891.959 372.229
641 0 81.0355 12.402 1005 61.7124 891.878 372.77
642 0 82.06 12.698 1042 61.7831 890.964 372.052
643 0 85.2389 13.3976 1142 60.8354 891.914 370.76
644 1 47.1474 11.7716 555 60.3856 891.333 390.859
645 0 47.1917 14.0491 663 58.3514 891.273 388.217
646 0 49.1345 12.2317 601 60.5907 891.795 388.145
647 0 51.193 12.3454 632 60.3339 891.329 387.133
648 0 52.3086 11.7763 616 61.2695 891.218 385.029
649 0 54.1782 12.4589 675 60.5733 890.898 386.098
650 0 58.0492 13.0579 758 58.8483 890.608 386.152
651 0 57.0741 12.7904 730 60.2548 890.685 384.971
652 0 59.0966 10.6267 628 62.6688 890.239 383.451
653 0 60.1015 10.7984 649 62.5116 890.379 383.228
654 0 66.2296 12.97 859 59.3225 890.219 382.785
655 0 65.1074 13.6083 886 59.8521 891.099 381.103
656 0 67.1283 13.4965 906 60.0055 890.504 379.865
657 0 69.0942 13.3441 922 59.744 890.941 380.572
658 1 37.08 10.5717 392 59.5638 890.283 395.587
659 0 40.2808 10.7247 432 59.3032 890.139 394.194
660 0 36.0722 10.2849 371 61.5013 890.666 393.493
661 0 36.0782 12.2789 443 59.9932 890.395 392.361
662 0 38.0583 13.5319 515 58.6718 890.503 389.92
663 0 41.1376 11.9599 492 60.4776 891.268 389.848
664 0 42.0444 12.8911 542 59.4022 890.873 390.273
665 0 43.073 11.7707 507 61.7692 891.219 388.069
666 0 44.025 10.7666 474 62.2975 891.304 389.589
667 0 46.0807 11.4582 528 61.0568 891.972 391.309
668 0 48.141 11.674 562 61.3345 891.457 387.621
669 0 48.0858 10.9804 528 62.678 891.439 387.621
670 0 50.1449 12.9026 647 60.4281 891.516 383.481
671 0 52.1903 12.9526 676 60.5207 891.321 382.608
672 0 54.051 14.6528 792 58.7412 891.418 383.716
673 0 56.2248 14.2286 800 59.1512 890.844 379.095
674 0 56.1083 12.761 716 61.3841 890.966 381.754
675 0 63.0381 13.1666 830 59.2867 890.505 381.034
676 0 62.2074 12.7638 794 60.5 890.431 380.471
677 0 63.0666 11.3531 716 63.0154 890.219 378.286
678 0 67.2346 14.903 1002 58.5449 889.973 377.286
679 1 33.0334 11.443 378 60.7143 890.614 392.357
680 0 35.1059 8.8589 311 63.0289 890.441 392.18
681 0 35.0681 11.9197 418 60.6077 890.316 391.61
682 0 40.1206 10.7675 432 59.8565 889.785 393.056
683 0 39.0557 11.4964 449 60.3318 890.022 390.996
684 0 41.076 12.6108 518 60.1776 889.983 388.988
685 0 44.0664 13.3435 588 58.8878 889.835 388.1
686 0 46.1874 13.2937 614 58.3909 889.728 388.363
687 0 49.2106 12.7818 629 58.2099 890.258 390.203
688 0 52.1308 13.1017 683 58.287 890.199 386.245
689 0 49.0923 12.6293 620 59.9694 890.411 385.613
690 0 50.1115 11.654 584 61.5257 890.149 383.57
691 0 51.1289 13.2801 679 60.0162 890.088 381.697
692 0 57.1591 13.3662 764 58.305 890.127 383.496
693 0 57.1651 13.9771 799 58.6433 889.77 379.616
694 0 59.0455 12.6005 744 59.9099 890.065 380.633
695 0 61.2907 12.4815 765 60.5516 890.516 378.974
696 0 63.1511 11.037 697 61.6141 890.41 379.086
697 0 68.185 13.0087 887 58.8343 890.161 379.07
698 0 66.2578 13.7946 914 58.8687 890.516 377.826
699 0 68.3676 12.4767 853 60.5909 890.624 376.529
700 0 69.2811 13.1349 910 60.6319 890.441 370.973
701 1 37.1986 9.167 341 62.9824 890.83 390.531
702 0 38.2305 9.93971 380 62.7789 891.021 391.076
703 0 41.1006 11.9706 492 60.1443 890.992 390.331
704 0 42.1369 12.4831 526 60.8137 890.781 387.049
705 0 45.142 11.3863 514 55.7257 890.652 390.712
706 0 43.0843 11.4891 495 62.0727 891.491 387.497
707 0 44.1062 10.4521 461 63.436 890.373 385.911
708 0 47.1384 13.6407 643 59.2613 890.199 385.084
709 0 48.2292 11.0929 535 62.5028 890.776 382.432
710 0 50.1421 11.3677 570 62.1211 890.432 381.007
711 0 54.0482 13.9505 754 56.8594 890.744 382.668
712 0 56.0235 11.3702 637 59.0628 890.936 383.144
713 0 57.0211 12.1534 693 58.7287 890.723 380.326
714 0 57.0942 13.0311 744 58.3172 890.491 378.12
715 0 68.0936 16.3011 1110 46.9649 890.457 381.807
716 0 64.1816 12.1842 782 58.991 891.055 375.798
717 0 65.1061 11.9958 781 59.265 890.877 373.485
718 0 67.188 13.1422 883 58.3431 891.388 372.672
719 0 69.1141 13.1811 911 58.5225 891.29 371.769
720 0 73.1169 11.8714 868 59.553 891.41 369.355
721 0 76.1904 12.4556 949 59.0875 891.492 367.652
722 0 78.0924 13.3432 1042 58.237 891.539 367.604
723 1 41.1055 10.8258 445 60.1775 891.025 384.789
724 0 43.0303 12.8747 554 57.5487 890.774 384.547
725 0 45.0489 11.1435 502 59.8227 890.181 383.39
726 0 45.0602 12.9604 584 58.0925 890.449 383.719
727 0 49.0644 13.1867 647 57.5394 890.765 382.44
728 0 49.1139 11.565 568 60.1831 890.271 380.387
729 0 50.2953 10.9155 549 60.3188 890.506 378.552
730 0 54.1775 11.9976 650 58.7523 890.558 379.825
731 0 54.1435 12.1898 660 59.0818 891.168 379.295
732 0 59.2187 13.391 793 56.6381 891.251 378.837
733 0 60.1145 14.2395 856 56.1379 891.222 376.356
734 0 63.0837 11.5719 730 58.5822 890.681 375.581
735 0 65.0865 12.3989 807 57.1797 890.669 377.341
736 0 66.3132 11.2195 744 59.3952 891.358 372.145
737 0 66.0633 11.05 730 59.7534 891.162 371.959
738 0 70.1237 12.1785 854 58.2611 891.069 369.548
739 0 74.1971 14.448 1072 55.7481 891.271 368.65
740 0 73.1246 12.0479 881 58.9796 890.587 369.292
741 0 76.0577 12.53 953 58.4061 890.85 368.091
742 0 79.1896 12.1607 963 59.0966 890.969 364.146
743 0 81.2064 12.7946 1039 58.2964 890.833 363.808
744 0 86.3185 13.0795 1129 57.2941 891.164 364.411
745 0 89.1565 13.1679 1174 57.6627 890.98 362.223
746 0 93.0908 11.4619 1067 59.717 890.952 360.003
747 1 51.0953 11.1752 571 58.394 891.905 380.112
748 0 52.0602 13.0426 679 57.0854 892.018 380.39
749 0 54.183 12.6977 688 58.1235 891.407 377.093
750 0 59.2231 11.7522 696 58.2874 891.606 376.818
751 0 59.1669 11.8647 702 58.8732 891.558 374.835
752 0 60.1669 13.18 793 57.3291 891.011 376.058
753 0 64.1206 10.7922 692 59.9754 891.012 371.11
754 0 68.1313 11.6246 792 57.9848 891.077 372.47
755 0 71.1709 12.4208 884 56.7817 891.255 371.497
756 0 72.1508 11.476 828 57.9976 890.999 370.448
757 0 77.2052 12.3049 950 56.8611 891.168 369.227
758 0 81.1774 12.2571 995 56.8171 890.598 369.16
759 0 80.2549 10.4293 837 59.3477 890.926 366.515
760 0 83.0906 11.6499 968 57.8781 890.722 365.5
761 0 87.148 11.0846 966 58.4037 891.22 364.999
762 1 43.0866 11.651 502 55.8625 891 384.55
763 0 46.0311 13.0781 602 53.6179 891.055 382.85
764 0 51.0909 11.5872 592 54.1943 890.956 385.024
765 0 50.1639 11.5621 580 54.581 891.374 383.498
766 0 49.1578 10.9647 539 56.0965 891.421 381.757
767 0 52.0856 11.2507 586 56.0085 891.401 381.087
768 0 56.0692 13.305 746 53.8512 891.206 379.885
769 0 55.0663 13.0207 717 54.5063 890.524 378.709
770 0 56.1249 10.3163 579 57.7306 890.344 375.793
771 0 61.072 12.1332 741 55.3144 890.534 376.97
772 0 65.1404 10.6693 695 55.9194 890.161 376.813
773 0 66.1974 11.1485 738 55.7547 890.394 377.535
774 0 66.0857 11.243 743 56.3405 890.921 375.295
775 0 70.0978 12.9248 906 54.4614 890.799 372.528
776 0 71.3425 12.5732 897 55.3188 890.046 370.032
777 0 74.1689 10.6379 789 56.1432 890.172 372.698
778 0 78.1743 11.9605 935 55.1701 890.271 371.159
779 0 80.3341 11.3775 914 55.0361 890.204 372.922
780 0 81.133 13.5457 1099 53.0773 890.065 371.578
781 1 47.1992 10.8264 511 55.5793 890.808 383.249
782 0 47.1087 10.6987 504 55.3552 890.651 384.246
783 0 50.0649 9.7074 486 56.8107 891.169 382.971
784 0 50.057 11.0274 552 56.2446 890.815 381.355
785 0 51.061 11.8486 605 55.4893 890.669 378.084
786 0 55.0796 13.6167 750 52.3693 890.673 382.255
787 0 58.1263 12.6277 734 53.3951 890.939 381.49
788 0 61.0837 13.9317 851 52.3396 890.6 377.747
789 0 61.0841 12.9657 792 53.3157 890.499 377.319
790 0 62.1064 15.248 947 51.3495 890.128 374.621
791 0 70.1338 14.8858 1044 49.6149 890.26 378.948
792 0 69.2037 13.9877 968 51.7407 890.294 375.046
793 0 71.0594 12.7781 908 52.8249 890.392 373.349
794 0 73.1808 13.0909 958 51.9468 890.781 373.923
795 0 71.0498 12.1183 861 53.935 890.744 371.355
796 0 78.1491 11.9899 937 53.2305 890.931 370.539
797 0 77.0719 11.8591 914 54.2221 890.73 366.206
798 0 80.1076 11.7842 944 53.4364 890.056 370.859
799 1 43.0721 13.1175 565 52.0779 890.411 385.099
800 0 42.1499 11.3879 480 54.2167 890.344 383.735
801 0 46.0693 13.827 637 51.9105 891.155 384.121
802 0 51.1261 12.8115 655 52.087 891.235 384.397
803 0 52.093 12.9192 673 52.6478 891.159 382.684
804 0 52.1629 11.9434 623 54.313 890.925 380.567
805 0 53.1551 14.2037 755 52.1709 891.115 379.665
806 0 58.1188 10.513 611 55.1702 891.283 380.625
807 0 57.0911 14.0828 804 52.8159 891.394 378.418
808 0 61.1523 11.0053 673 54.8113 891.08 379.792
809 0 63.1238 14.6221 923 52.0758 890.956 379.102
810 0 61.0919 11.5072 703 56.3883 891.381 375.99
811 0 67.1219 11.9633 803 55.7248 891.113 374.43
812 0 68.1123 10.8057 736 57.1698 891.13 373.355
813 0 72.1226 11.7994 851 55.6733 891.308 373.803
814 0 75.0699 13.8804 1042 53.7169 890.945 373.616
815 0 74.0507 11.9513 885 56.5819 890.858 366.867
816 0 78.107 10.9209 853 56.5487 891.118 371.121
817 0 84.1833 13.9576 1175 53.8562 891.46 367.096
818 0 87.1128 13.8326 1205 54.2456 891.49 364.89
819 0 90.1971 14.7455 1330 53.5902 891.519 365.226
820 0 91.0972 13.3594 1217 54.7847 891.761 365.26
821 1 46.0434 11.0114 507 56.2268 891.219 384.103
822 0 48.03 11.9092 572 55.5437 891.138 382.734
823 0 49.1206 12.8052 629 54.8235 891.014 382.512
824 0 51.0837 13.0766 668 54.2784 890.719 382.275
825 0 52.128 13.1599 686 54.1283 890.459 383.366
826 0 55.0964 12.3239 679 55.296 890.772 379.483
827 0 54.0702 12.4468 673 55.3715 890.324 380.579
828 0 57.094 12.9436 739 55.5345 890.551 375.528
829 0 58.0433 11.5087 668 57.0374 890.398 376.313
830 0 63.0658 12.257 773 56.2755 890.975 375.784
831 0 63.2819 12.31 779 56.8575 891.16 375.006
832 0 64.0809 13.5922 871 56.1022 891.33 374.195
833 0 67.122 14.7493 990 55.0293 891.115 372.594
834 0 72.1443 12.2809 886 57.0576 890.979 373.061
835 0 72.1885 12.8829 930 57.5452 891.666 368.038
836 0 77.05 13.2382 1020 56.6216 891.081 372.015
837 0 78.0915 11.4865 897 59.0134 891.449 367.804
838 0 79.0675 12.3818 979 59.142 891.281 364.978
839 1 45.0966 10.0229 452 59.1659 891.394 386.024
840 0 47.1135 10.4641 493 59.1501 891.197 383.185
841 0 48.0519 13.3605 642 56.2928 891.044 384.055
842 0 50.0336 11.5722 579 58.4767 891.135 385.04
843 0 52.0931 12.6888 661 57.9924 891.082 381.56
844 0 56.0624 13.1104 735 56.9605 890.824 380.756
845 0 56.0809 13.1774 739 57.1935 891.539 382.911
846 0 59.0846 13.2353 782 57.4872 891.483 380.24
847 0 61.1948 14.2169 870 56.5885 891.356 379.046
848 0 63.1519 13.2221 835 57.9868 891.347 378.17
849 0 64.0818 13.6232 873 57.6598 890.964 378.45
850 0 65.1912 14.0663 917 57.3599 891.253 378.879
851 0 70.123 12.6492 887 59.062 890.8 376.521
852 0 73.0861 13.532 989 58.2224 890.907 377.024
853 0 73.0978 12.0523 881 59.5528 891.152 375.417
854 0 75.1858 13.4866 1014 59.1943 891.233 373.051
855 1 41.0261 11.2124 460 59.3478 891.22 390.252
856 0 41.0746 11.2235 461 58.7289 890.761 391.72
857 0 44.032 13.8536 610 55.8344 890.949 391.284
858 0 48.1178 12.6357 608 57.6579 891.084 388.229
859 0 48.062 13.9195 669 56.7877 891.178 388.405
860 0 47.0352 12.9265 608 58.773 891.533 386.956
861 0 52.0869 11.4616 597 59.3384 891.35 384.246
862 0 52.071 12.771 665 58.8211 891.212 384.49
863 0 53.1268 11.9902 637 59.8053 890.672 381.466
864 0 54.1615 11.7427 636 60.3884 890.814 380.525
865 0 57.2274 11.4456 655 60.0885 891.33 381.673
866 0 57.0961 13.0307 744 59.1694 891.402 378.618
867 0 60.2051 12.4574 750 59.6027 890.976 378.689
868 0 62.3953 13.751 858 58.1981 890.549 377.675
869 0 64.114 12.9301 829 59.2051 892.059 379.92
870 0 67.052 13.84 928 58.3276 891.514 376.693
871 0 67.1862 11.8923 799 60.5307 890.997 376.451
872 0 74.1062 14.1149 1046 57.3614 891.318 376.593
873 0 73.1587 15.5416 1137 57.1047 892.065 373.98
874 0 75.1266 12.8184 963 60.758 891.963 370.67
875 0 79.0867 13.7697 1089 59.6024 892.041 370.077
876 0 78.3894 11.8128 926 61.3359 891.792 372.171
877 0 84.3607 13.1934 1113 60.2561 892.113 366.622
878 0 82.0945 14.1301 1160 60.2897 891.455 365.108
879 0 90.282 12.4166 1121 60.8278 891.867 366.783
880 1 47.0692 9.56038 450 62.2 892.451 383.744
881 0 51.0719 9.84886 503 62.5944 892.024 382.869
882 0 53.1298 13.9846 743 57.6958 892.299 382.919
883 0 52.0348 11.7614 612 60.4918 891.752 382.211
884 0 54.0548 13.4678 728 58.4437 892.205 383.643
885 0 58.0727 13.242 769 58.2198 891.785 382.233
886 0 58.1343 12.1787 708 60.2331 891.921 380.887
887 0 60.1977 11.7446 707 60.604 891.854 380.311
888 0 57.1924 14.2676 816 59.3039 891.325 375.634
889 0 63.3625 12.105 767 60.7523 891.25 373.79
890 0 67.2631 13.4546 905 59.326 891.228 373.692
891 0 64.0657 12.7213 815 61.0945 891.445 373.812
892 0 66.1053 11.7691 778 61.7545 890.861 370.429
893 0 69.0255 11.4306 789 61.7719 890.892 372.141
894 0 73.1181 14.6202 1069 58.5051 891.095 372.056
895 0 74.1214 12.1827 903 61.7497 890.671 364.957
896 0 78.1019 12.5477 980 61.4806 891.227 367.181
897 0 84.3461 12.3183 1039 60.9105 891.137 366.25
898 1 41.1846 12.3104 507 60.4004 891.002 383.779
899 0 49.3222 10.6443 525 60.3219 890.712 384.756
900 0 51.1667 11.7655 602 59.1744 890.902 385.532
901 0 49.3094 12.1478 599 60.1836 891.79 384.82
902 0 53.1859 11.5256 613 60.5057 891.737 382.488
903 0 49.152 12.5122 615 60.587 891.556 381.984
904 0 56.3105 12.6264 711 59.4698 891.45 380.447
905 0 60.227 11.7057 705 59.3844 891.217 382.084
906 0 61.3001 14.013 859 57.8475 891.619 379.068
907 0 64.1948 13.7239 881 58.3961 891.574 377.827
908 0 67.1098 13.0979 879 59.2162 891.85 378.432
909 0 69.0844 11.7393 811 59.2626 891.762 380.046
910 0 73.098 13.8034 1009 57.4083 891.517 376.621
911 0 74.2228 12.5298 930 59.5387 891.108 375.144
912 0 76.1855 13.4671 1026 58.2524 891.445 374.321
913 1 41.0824 11.4161 469 57.322 891.774 391.324
914 0 41.1133 10.1427 417 59.2062 891.667 390.18
915 0 43.145 10.7081 462 59.2381 891.846 387.165
916 0 38.1656 12.9174 493 58.2617 891.919 387.349
917 0 47.1548 10.6458 502 59.1394 891.558 387.263
918 0 46.1333 9.90608 457 60.9519 893.072 383.646
919 0 50.0878 10.5016 526 59.2129 892.625 386.019
920 0 52.2169 13.6929 715 56.2713 892.34 384.241
921 0 52.1674 10.0638 525 61.4343 893.118 380.558
922 0 54.0939 11.3137 612 59.549 892.879 382.314
923 0 58.1292 13.47 783 56.5504 892.792 384.837
924 0 60.2393 12.2179 736 57.9144 893.13 382.936
925 0 62.0946 13.6244 846 56.5674 892.277 383.143
926 0 60.2389 10.475 631 61.0856 892.407 377.552
927 0 65.1929 11.9952 782 58.2289 891.962 381.841
928 0 66.21 11.9468 791 59.1896 892.009 379.374
929 0 70.1558 12.3867 869 58.015 891.713 379.534
930 0 72.191 14.143 1021 56.0108 891.745 378.497
931 0 71.1845 12.8961 918 58.5283 891.637 371.916
932 0 78.1528 15.1626 1185 55.4532 891.381 375.232
933 0 77.1794 11.8944 918 59.5022 891.105 370.042
934 0 79.1785 12.3897 981 58.2487 891.401 375.123
935 0 77.2289 12.1328 937 60.3757 891.582 368.417
936 0 84.1386 11.9683 1007 60.5204 891.445 362.718
937 1 49.2818 9.71961 479 58.9729 891.772 386.96
938 0 50.2666 9.60876 483 59.7516 890.828 383.054
939 0 49.167 11.1253 547 58.4954 891.936 385.923
940 0 54.1858 10.5932 574 58.8415 891.599 382.812
941 0 57.1506 11.111 635 57.3732 891.528 385.05
942 0 59.3228 11.8504 703 58.0085 891.253 378.538
943 0 59.3883 12.9655 770 56.7779 891.747 379.952
944 0 62.0853 10.2762 638 58.5329 891.464 383.022
945 0 63.315 10.124 641 59.5647 891.431 377.282
946 0 67.1883 12.1896 819 57.1392 890.889 377.129
947 0 67.1495 12.3009 826 58.092 890.155 374.16
948 0 68.2946 12.3729 845 57.7183 891.112 374.705
949 0 73.1251 10.3521 757 59.675 891.347 373.749
950 0 69.2106 13.2928 920 57.687 890.897 371.036
951 0 72.1634 12.9013 931 57.7691 890.899 369.589
952 0 80.196 12.0205 964 58.1535 890.879 369.272
953 0 82.2334 13.5468 1114 56.6732 890.889 371.576
954 0 88.1966 11.5991 1023 58.1095 890.451 370.125
955 0 89.165 12.0787 1077 58.0566 890.573 366.196
956 1 49.1157 12.725 625 56.2496 890.83 385.478
957 0 51.2394 11.9244 611 57.144 891 385.529
