time division length width area intensity CMx CMy
0 0 43.2021 11.2495 486 56.4342 1115.97 513.449
1 0 44.0485 10.4657 461 57.2625 1115.29 513.816
2 0 47.0439 11.3723 535 57.4505 1115.89 513.764
3 0 47.1904 11.1463 526 57.5856 1115.34 513.471
4 0 47.1476 10.8807 513 57.3606 1115.18 514.955
5 0 49.2704 10.2699 506 57.9486 1114.86 513.251
6 0 49.2847 10.4698 516 58.064 1114.49 512.657
7 0 49.2217 10.1987 502 58.6514 1114.5 513.092
8 0 52.2264 10.9523 572 56.9091 1113.38 514.442
9 0 55.1868 11.597 640 55.9891 1113.85 512.995
10 0 56.138 12.7365 715 54.9301 1114.02 510.569
11 0 55.073 11.403 628 56.7548 1114.55 511.457
12 0 56.1431 10.0814 566 58.0035 1113.71 510.005
13 0 60.1551 11.0049 662 56.2341 1113.66 508.995
14 0 61.1632 11.1832 684 56.2325 1113.86 508.434
15 0 63.0787 12.4606 786 54.86 1114.02 506.466
16 0 63.1608 11.2411 710 55.962 1114.28 510.275
17 0 63.1613 9.42033 595 58.595 1114.02 506.605
18 0 65.1341 9.58024 624 58.1058 1113.73 504.936
19 0 68.1311 10.4358 711 57.6709 1113.72 504.139
20 0 70.0825 10.4734 734 57.0681 1113.36 507.49
21 0 71.2147 10.3911 740 57.8162 1113.81 505.132
22 0 73.1681 10.2367 749 58.1415 1113.34 500.768
23 0 75.1212 9.21178 692 59.3382 1112.88 500.986
24 0 78.1137 10.0623 786 59.299 1113.67 498.847
25 1 38.0527 7.85753 299 61.3779 1112.56 520.147
26 0 41.0315 8.31068 341 61.0176 1112.65 519.499
27 0 45.0725 10.6273 479 58.6764 1113.43 519.964
28 0 44.0365 11.4905 506 59.1146 1112.62 517.71
29 0 45.0563 10.3426 466 60.8498 1113.74 518.06
30 0 46.1549 10.9414 505 60.8614 1113.16 516.784
31 0 50.0403 11.131 557 59.7253 1113.4 517.253
32 0 49.0499 10.2752 504 61.8869 1113.72 515.921
33 0 51.0288 10.4255 532 61.9774 1113.89 514.882
34 0 52.031 11.4739 597 60.8526 1113.89 516.739
35 0 53.0757 12.8496 682 60.3196 1114.05 513.157
36 0 53.0754 11.38 604 62.2781 1114.74 514.707
37 0 57.0762 12.0365 687 61.0058 1114.1 513.917
38 0 59.0376 13.4152 792 59.9394 1114.87 511.347
39 0 61.0527 12.3008 751 60.7923 1115.34 512.039
40 0 61.0914 12.866 786 60.9771 1114.78 508.569
41 0 65.0746 12.8314 835 61.2551 1115.09 508.249
42 0 64.0922 11.7019 750 63.1427 1114.95 509.787
43 0 67.132 13.2277 888 61.9403 1115.08 507.037
44 0 71.0927 12.8283 912 61.4605 1115.15 508.89
45 0 72.0627 10.921 787 64.1817 1114.79 506.907
46 0 74.0313 11.6842 865 63.9052 1115.6 503.302
47 0 77.1093 13.1631 1015 62.9557 1116.08 502.287
48 0 76.1138 11.6142 884 65.5566 1115.52 502.742
49 0 81.1042 12.1942 989 64.8605 1115.93 501.966
50 0 83.1125 11.4664 953 65.8709 1116.29 499.944
51 1 40.0228 10.9688 439 63.8542 1115.96 522.098
52 0 39.0148 10.0218 391 66.4655 1116.24 520.668
53 0 44.1151 12.082 533 64.227 1115.86 518.03
54 0 42.0177 11.519 484 64.8058 1116.11 518.994
55 0 46.0249 10.7333 494 65.5769 1115.92 518.316
56 0 46.0589 9.90037 456 67.0899 1116.13 517.64
57 0 46.034 10.4705 482 67.2822 1117.15 517.027
58 0 49.0564 11.8027 579 65.5009 1115.98 515.675
59 0 46.0602 9.24876 426 69.4976 1116.42 516.43
60 0 51.1664 10.3193 528 67.6799 1115.93 513.922
61 0 52.0245 11.8598 617 66 1115.5 515.248
62 0 53.0228 11.3536 602 66.588 1115.19 514.552
63 0 54.0556 9.93422 537 68.4898 1115.79 511.084
64 0 53.0555 10.0838 535 69.3794 1115.61 510.761
65 0 55.0503 9.80922 540 69.5944 1115.94 507.604
66 0 55.1181 7.14829 394 72.4543 1115.98 508.046
67 0 61.0275 10.1266 618 69.0049 1115.36 507.076
68 0 61.1054 10.2773 628 69.6131 1115.53 506.287
69 0 64.0316 8.88624 569 70.3726 1115.62 507.634
70 0 68.1069 11.1883 762 66.9291 1115.2 507.759
71 0 71.1504 10.3864 739 68.7713 1114.22 502.679
72 0 77.038 13.2272 1019 63.8312 1114.76 502.593
73 0 80.0349 13.0318 1043 63.8581 1114.88 502.177
74 0 83.1497 13.614 1132 63.0053 1115.75 501.66
75 1 40.0221 8.4953 340 66.7794 1115.16 520.771
76 0 45.08 11.0249 497 64.0966 1115.37 518.567
77 0 45.0283 9.37188 422 66.654 1115.52 519.258
78 0 46.0323 10.3188 475 66.0674 1115.13 517.362
79 0 48.0345 11.5542 555 64.1351 1115.03 516.737
80 0 50.1236 10.534 528 65.5038 1115.88 516.597
81 0 49.0567 9.98844 490 66.5592 1116.11 515.635
82 0 51.0538 11.3606 580 65.1655 1115.94 514.966
83 0 56.0653 13.5734 761 61.201 1116.44 515.778
84 0 56.0926 12.2476 687 63.805 1116.37 513.859
85 0 58.1706 11.2428 654 64.7875 1115.72 512.222
86 0 58.1176 10.9777 638 65.2837 1116.59 512.743
87 0 62.1501 11.4883 714 64.6765 1116.61 510.756
88 0 64.1196 12.3363 791 63.6182 1116.49 510.482
89 0 62.073 10.3104 640 67.1094 1116 509.388
90 0 66.068 9.61131 635 67.7024 1116.34 508.542
91 0 71.0992 13.5304 962 62.7412 1116.67 505.063
92 0 71.09 11.7035 832 65.6286 1117.03 506.332
93 0 74.0606 11.3961 844 65.4728 1117.06 505.84
94 0 76.0904 11.5915 882 65.9218 1117.41 503.114
95 0 77.0497 10.5646 814 67.5909 1116.33 502.13
96 0 79.0418 12.4997 988 65.7146 1115.91 498.185
97 1 42.0536 9.96347 419 63.8043 1116.11 520.783
98 0 41.0388 10.3317 424 64.1745 1115.79 520.941
99 0 43.0085 9.81201 422 64.8318 1116.22 519.391
100 0 46.0656 12.6559 583 61.3002 1116.08 517.628
101 0 46.1022 11.8433 546 63.4377 1115.9 516.526
102 0 44.0183 10.2912 453 66.7263 1116.81 516.095
103 0 48.1117 9.8105 472 65.8453 1116.64 517.242
104 0 50.1906 10.9582 550 65.6927 1116.48 513.873
105 0 51.0326 11.4633 585 64.4667 1116.29 513.398
106 0 53.1161 10.4865 557 64.9102 1116.58 512.851
107 0 56.0833 11.4473 642 63.1137 1115.88 514.835
108 0 56.0705 11.9493 670 63.0448 1116.2 512.828
109 0 57.1334 10.4317 596 65.5017 1115.5 510.144
110 0 58.1828 11.7904 686 63.7362 1114.16 509.778
111 0 61.0405 10.5995 647 64.8315 1115.35 510.295
112 0 64.0894 12.5606 805 61.9317 1115.5 507.728
113 0 64.121 10.9325 701 65.2482 1115.71 504.883
114 0 65.0928 8.94108 582 66.7577 1115.71 507.722
115 0 68.0901 11.1176 757 64.9432 1115.56 503.071
116 0 70.3108 12.4874 878 63.4282 1116.05 501.999
117 0 73.163 11.4129 835 64.3401 1115.89 502.898
118 0 76.1044 12.8639 979 63.2911 1116.12 498.585
119 0 76.0614 10.9122 830 66.5265 1116.62 499.551
120 0 79.1948 11.6169 920 65.4033 1116.22 495.86
121 1 41.0462 10.4029 427 63.8946 1115.64 518.101
122 0 40.025 8.99438 360 66.8833 1115.76 516.225
123 0 43.0499 9.66321 416 65.3702 1116.17 517.32
124 0 45.0343 10.8806 490 64.2857 1115.84 516.382
125 0 46.0444 11.2717 519 65.0308 1114.99 514.842
126 0 47.031 9.80204 461 67.6269 1115.4 513.822
127 0 49.0088 13.8546 679 61.6274 1115.93 513.946
128 0 51.0821 11.2564 575 66.0087 1117.51 512.071
129 0 52.063 11.2748 587 66.1141 1116.23 513.238
130 0 53.1587 10.5345 560 67.4571 1115.73 512.602
131 0 57.0841 13.5765 775 62.6542 1115.94 510.717
132 0 55.1011 10.6713 588 67.8946 1115.26 510.277
133 0 57.1373 10.9736 627 67.2265 1116.04 508.405
134 0 60.1012 11.3642 683 66.0351 1115.08 507.483
135 0 60.1482 10.0086 602 68.4917 1116.05 507.056
136 0 61.1056 10.2937 629 68.0938 1116.54 503.58
137 0 65.1237 10.4417 680 66.6059 1115.71 507.453
138 0 66.1606 10.6105 702 66.7479 1115.92 504.943
139 0 70.2423 12.6135 886 62.7302 1115.56 505.906
140 0 72.0973 11.0268 795 66.1082 1115.72 499.791
141 0 75.1483 12.2558 921 63.6417 1116.4 501.083
142 0 76.0669 11.4636 872 64.5929 1115.98 501.131
143 0 79.1352 11.3856 901 65.0078 1116.25 496.377
144 1 40.056 9.76133 391 65.4194 1115.9 514.731
145 0 43.0276 9.4358 406 65.399 1115.39 516.409
146 0 46.0572 11.3989 525 61.9048 1115.3 515.453
147 0 46.0805 12.1092 558 61.3459 1115.78 513.733
148 0 49.1274 10.9715 539 62.115 1115.43 513.184
149 0 50.0321 10.873 544 62.7996 1115.7 512.71
150 0 51.0697 11.2004 572 62.9073 1115.7 512.538
151 0 52.0455 9.70304 505 64.0277 1117.08 513.026
152 0 55.0645 10.9871 605 62.6215 1116.68 511.349
153 0 55.0364 12.3373 679 61.6657 1116.59 510.43
154 0 56.1219 10.9048 612 62.8627 1116.74 510.758
155 0 57.0675 10.9695 626 63.0495 1118.35 509.95
156 0 60.0473 10.2919 618 63.8625 1117.91 508.979
157 0 61.0634 10.9067 666 63.0616 1117.1 505.971
158 0 65.0739 13.4001 872 58.9289 1117.52 506.46
159 0 67.077 12.0459 808 60.5903 1116.59 505.735
160 0 68.1208 11.3768 775 62.0761 1116.91 503.417
161 0 71.038 10.2762 730 62.2589 1116.96 506.086
162 0 73.1002 10.9028 797 61.4065 1117.24 503.44
163 0 74.0767 10.7726 798 61.9624 1117.31 503.1
164 0 76.1151 11.4563 872 61.3337 1116.75 498.378
165 0 79.0998 12.6802 1003 60.3838 1116.03 497.219
166 0 82.1322 11.8589 974 60.7803 1117.36 498.304
167 1 40.02 8.24589 330 64.5273 1116.76 517.958
168 0 42.0325 8.73134 367 62.7057 1116.75 517.76
169 0 43.1678 8.9187 385 63.3974 1117.09 515.486
170 0 45.0572 12.0292 542 60.31 1116.75 512.983
171 0 46.0655 10.9192 503 61.4175 1116.3 512.829
172 0 47.2183 11.1609 527 61.5104 1117.35 510.594
173 0 47.0875 9.62039 453 63.106 1116.65 512.488
174 0 51.1569 11.4549 586 61.9778 1116.53 510.758
175 0 53.1274 12.2536 651 60.6375 1116.36 510.444
176 0 54.0378 11.4364 618 61.7104 1115.95 508.375
177 0 58.0884 12.481 725 59.3034 1116.33 510.446
178 0 57.0332 13.3782 763 59.287 1116.08 507.628
179 0 58.2053 12.0092 699 60.8755 1116.07 508.014
180 0 60.1621 11.9677 720 61.3722 1116.17 506.349
181 0 60.1521 10.4735 630 63.1746 1115.7 506.075
182 0 64.1632 13.1539 844 59.1114 1115.82 504.505
183 0 64.1208 11.6655 748 61.7487 1115.59 505.463
184 0 66.1132 11.5711 765 61.919 1114.67 506.09
185 0 66.1648 10.0658 666 63.6592 1114.49 503.821
186 0 71.1853 13.5983 968 59.4484 1114.95 500.158
187 0 71.2457 11.4252 814 62.1388 1114.61 499.542
188 0 76.0915 13.1815 1003 60.1954 1114.37 500.229
189 0 77.3292 11.5222 891 62.2357 1113.96 499.799
190 0 80.3117 12.439 999 61.3764 1113.22 496.149
191 0 84.1802 14.6115 1230 58.1179 1112.79 496.025
192 0 85.1687 11.7766 1003 62.6082 1113.45 495.933
193 0 86.3661 12.887 1113 61.6325 1113.38 495.704
194 1 46.1357 9.32032 430 63.214 1113.03 518.244
195 0 46.1797 10.1127 467 63.9272 1113.22 516.722
196 0 48.0762 12.709 611 60.9902 1112.96 516.031
197 0 48.0858 10.7516 517 64.4545 1112.54 517.865
198 0 51.0594 11.6335 594 63.367 1111.94 516.769
199 0 53.0984 11.7518 624 62.9119 1113.01 516.596
200 0 52.0661 11.0437 575 64.6087 1112.86 516.984
201 0 52.0847 11.2509 586 64.3805 1112.18 516.473
202 0 58.2068 11.2702 656 63.3125 1111.69 516.268
203 0 60.1425 12.354 743 62.0296 1111.82 515.114
204 0 60.2265 12.6356 761 61.9488 1111.45 514.46
205 0 62.2648 13.0411 812 60.9791 1112 514.517
206 0 63.105 11.4888 725 63.1283 1112.63 513.138
207 0 63.0728 11.5581 729 63.716 1112.11 509.16
208 0 65.1602 11.4487 746 64.3512 1112.34 508.287
209 0 69.1469 11.5117 796 64.1344 1112.45 508.85
210 0 70.2838 12.4211 873 62.9106 1111.89 507.118
211 0 74.0701 13.4467 996 61.4468 1111.82 507.522
212 0 76.2423 12.5783 959 62.8165 1110.69 505.128
213 0 78.1424 12.0549 942 64.1231 1110.19 506.824
214 0 80.2388 12.7619 1024 63.4053 1110.92 504.575
215 1 40.0855 11.3008 453 64.3466 1110.23 523.6
216 0 45.1539 11.9148 538 63.0074 1110.08 522.513
217 0 45.109 12.0375 543 63.3738 1109.17 522.65
218 0 45.1209 11.4138 515 64.9922 1110.19 521.979
219 0 47.2253 12.0486 569 64.7627 1110.13 518.94
220 0 49.0394 11.0931 544 65.5552 1110.07 520.726
221 0 50.1313 12.6468 634 64.1325 1110.16 518.732
222 0 52.0713 13.2895 692 63.3237 1109.9 518.736
223 0 51.0706 11.024 563 67.0551 1109.86 518.202
224 0 51.0706 10.9652 560 146.371 1108.85 518.232
225 0 56.0876 12.8727 722 64.4432 1110.32 516.931
226 0 57.0782 11.4229 652 66.7132 1110.11 514.351
227 0 60.2072 12.5732 757 64.7926 1110.14 511.787
228 0 63.0462 14.6559 924 61.7652 1109.95 510.728
229 0 64.1757 13.6968 879 63.1217 1110.43 510.421
230 0 64.212 11.3997 732 66.2582 1110.89 510.716
231 0 67.1147 13.3503 896 64.0938 1111.14 507.079
232 0 68.0421 12.4923 850 65.4576 1110.92 506.887
233 0 71.1316 12.2168 869 65.6755 1110.22 505.733
234 0 74.1453 12.1653 902 65.7794 1109.85 505.027
235 0 78.108 13.9422 1089 63.7172 1110.92 501.988
236 0 81.0736 13.3459 1082 64.0111 1110.52 501.379
237 1 38.0421 10.2255 389 66.6272 1111.12 522.008
238 0 40.0375 11.9138 477 65.8029 1111.14 519.623
239 0 41.0972 11.339 466 67.0558 1111.5 518.994
240 0 42.0557 11.3421 477 66.7065 1111.62 519.212
241 0 44.0271 11.1749 492 67.7988 1110.92 516.754
242 0 44.0347 12.7854 563 65.7282 1111.88 517.256
243 0 46.0494 11.0099 507 68.2189 1111.57 515.024
244 0 49.0984 13.9923 687 63.5546 1111.69 514.633
245 0 49.0164 11.6288 570 67.6281 1110.94 514.402
246 0 54.091 13.5697 734 63.4346 1111.53 515.313
247 0 53.0586 11.9868 636 66.6572 1111.52 513.984
248 0 54.0551 12.6168 682 66.5865 1111.99 512.648
249 0 55.1501 11.9492 659 67.4082 1111.9 513.194
250 0 58.0557 12.4191 721 66.7503 1111.99 513.098
251 0 59.0537 12.5987 744 66.7446 1112.8 511.938
252 0 61.2239 12.9525 793 66.6343 1111.92 510.738
253 0 62.2076 11.333 705 69.5929 1112.51 511.081
254 0 64.0565 12.2548 785 67.5287 1113.26 512.411
255 0 66.0322 11.4944 759 69.1976 1112.72 510.592
256 0 69.2244 13.5068 935 66.3946 1113.17 506.61
257 0 73.068 13.289 971 66.6643 1112.79 505.522
258 0 73.1286 13.36 977 66.9857 1112.32 507.098
259 0 75.0919 12.1318 911 68.5598 1112.58 507.138
260 0 79.2127 14.4295 1143 65.4532 1113.18 503.166
261 1 41.0711 10.5183 432 67.7106 1112.52 522.572
262 0 42.0352 9.63478 405 68.5383 1111.88 524.659
263 0 42.0468 11.9153 501 67.3733 1112.76 521.208
264 0 44.0501 10.7605 474 68.5844 1112.65 521.654
265 0 43.0107 9.57901 412 70.9005 1112.28 522.636
266 0 46.1013 10.4552 482 68.9668 1111.85 522.579
267 0 47.065 12.6633 596 66.5336 1111.84 520.174
268 0 47.0143 10.6776 502 68.3904 1112.54 522.414
269 0 49.1511 11.251 553 67.7884 1111.41 522.405
270 0 52.0517 11.892 619 66.5299 1111.19 519.866
271 0 49.0345 10.0338 492 70.5589 1111.94 518.965
272 0 54.1022 12.0328 651 66.7942 1111.38 519.515
273 0 55.0272 11.8487 652 67.408 1110.97 516.994
274 0 57.049 11.7443 670 66.8851 1109.71 518.355
275 0 57.0976 11.6642 666 67.3003 1110.53 516.177
276 0 61.0941 11.8015 721 66.8932 1111.26 516.976
277 0 60.1038 12.8112 770 66.3286 1110.39 513.709
278 0 62.1334 11.7811 732 67.5382 1111.05 515.531
279 0 63.0782 11.5729 730 68.3082 1110.96 515.177
280 0 66.1011 13.0406 862 65.3817 1110.96 513.731
281 0 68.0448 10.934 744 69.0202 1111.44 512.146
282 0 71.0546 12.3989 881 66.8218 1111.09 511.678
283 0 74.0905 12.0663 894 67.3166 1110.69 509.29
284 0 75.0788 12.5468 942 66.9788 1109.75 507.821
285 1 35.014 9.68184 339 68.7817 1109.94 526.776
286 0 40.0172 9.9707 399 67.0476 1110.31 526.619
287 0 40.0583 10.4847 420 67.419 1110.03 525.433
288 0 44.0371 11.4903 506 65.2549 1110.06 524.889
289 0 43.0861 10.8388 467 67.2334 1109.78 524.332
290 0 44.0402 10.3996 458 68.0568 1109.9 522.821
291 0 47.0804 11.4697 540 66.6926 1109.65 523.365
292 0 49.0497 13.4354 659 63.7633 1110.2 523.721
293 0 47.018 10.8044 508 68.3287 1110.79 524.146
294 0 49.0438 11.2756 553 68.1248 1110.68 523.036
295 0 50.0465 11.6092 581 68.7625 1110.46 519.842
296 0 51.056 10.9879 561 69.5223 1109.81 519.091
297 0 54.0637 11.283 610 68.3049 1109.77 520.582
298 0 55.0201 11.9229 656 68.7515 1108.99 518.43
299 0 55.0212 11.432 629 69.2576 1109.46 518.631
300 0 56.0823 11.6436 653 70.0965 1109.01 515.453
301 0 56.0904 10.3939 583 72.0069 1108.77 516.799
302 0 60.1095 11.5955 697 70.3687 1109.5 515.164
303 0 63.0734 11.4945 725 69.309 1109.55 514.447
304 0 64.1242 11.4309 733 70.7681 1109.37 511.241
305 0 66.1096 12.3734 818 69.4976 1109.38 512.786
306 0 67.0775 11.7774 790 70.6051 1109.31 509.653
307 0 72.1149 12.078 871 68.8083 1109.38 511.295
308 0 70.1462 11.0626 776 72.3724 1109.5 508.742
309 0 75.1666 11.4546 861 70.8223 1109.55 509.656
310 0 77.1109 11.9827 924 70.71 1109.15 507.067
311 1 41.0172 11.8487 486 67.3724 1109.03 524.737
312 0 41.0153 10.8008 443 69.4808 1108.93 523.727
313 0 44.0259 10.1758 448 69.5826 1109.18 524.658
314 0 44.0347 10.9232 481 69.0665 1108.72 523.397
315 0 45.0374 12.5229 564 67.3245 1108.77 523.346
316 0 46.0438 10.4249 480 71.2708 1109.09 521.8
317 0 47.0229 10.5268 495 71.6707 1109.37 520.828
318 0 48.1224 10.411 501 71.9162 1109.57 519.705
319 0 52.0243 11.7637 612 69.2255 1109.45 519.917
320 0 50.0428 10.5709 529 72.397 1109.36 518.527
321 0 54.0835 12.5177 677 68.39 1110.27 517.904
322 0 55.0699 12.0029 661 69.7504 1109.91 516.702
323 0 56.131 11.6513 654 70.9633 1109.77 516.124
324 0 58.0667 11.7968 685 70.8131 1109.61 514.453
325 0 58.0995 11.945 694 71.5879 1109.71 514.111
326 0 61.0781 12.6232 771 69.8716 1109.8 514.092
327 0 60.2065 12.0585 726 71.27 1109.91 515.028
328 0 62.0968 11.3371 704 72.6108 1109.72 514.236
329 0 63.1739 13.0275 823 71.3937 1109.77 510.927
330 0 65.0712 12.2174 795 72.4767 1110.75 510.135
331 0 67.1366 12.5863 845 71.7538 1110.48 509.737
332 0 70.0581 12.4611 873 71.756 1109.94 509.696
333 0 71.0599 11.3425 806 74.0769 1109.99 507.707
334 0 74.1084 11.6451 863 73.0707 1109.17 505.767
335 0 77.0591 12.2893 947 72.8015 1109.79 505.408
336 0 78.1207 12.0839 944 73.7394 1109.72 503.944
337 0 80.0299 12.5703 1006 73.328 1109.76 503.111
338 1 42.1134 11.5165 485 73.767 1109.82 522.107
339 0 41.162 10.8838 448 76.029 1110.06 523.953
340 0 44.1139 11.561 510 73.7863 1109.18 524.976
341 0 45.1453 13.0025 587 73.0307 1109.38 522.63
342 0 50.0901 13.1563 659 69.5068 1109.76 519.09
343 0 51.187 13.9684 715 67.8797 1109.82 517.011
344 0 51.1081 13.99 715 68.5427 1108.36 517.576
345 0 52.0411 15.2764 795 66.7572 1109.08 517.269
346 0 56.1332 15.4632 868 65.5058 1110.09 514.687
347 0 55.0241 16.1384 888 66.2004 1110.55 516.162
348 0 56.0406 17.3267 971 64.6292 1109.51 513.565
349 0 58.0821 14.8583 863 68.1576 1109.8 513.926
350 0 59.0481 19.5942 1157 61.5411 1110.35 510.36
351 0 60.1981 17.1766 1034 65.4468 1110.31 513.753
352 0 61.0449 15.2183 929 69.141 1109.7 511.581
353 0 63.0378 15.9111 1003 68.0598 1109.84 512.486
354 0 65.0296 14.4088 937 70.8132 1109.91 511.394
355 0 67.069 16.237 1089 67.7971 1109 510.309
356 0 68.0719 16.9233 1152 67.5521 1109.73 507.124
357 0 71.0959 16.6536 1184 67.5895 1110.15 506.845
358 0 71.0361 15.2739 1085 70.4654 1110.43 508.124
359 0 73.1229 15.6449 1144 69.9685 1110.73 507.673
360 1 35.023 12.5061 438 76.4772 1109.14 524.619
361 0 38.0354 12.4095 472 75.9894 1108.84 524.193
362 0 39.0341 11.6821 456 78.3158 1108.82 524.638
363 0 40.0362 12.4387 498 78.5141 1109.67 523.297
364 0 40.0499 12.7091 509 79.3752 1110.25 521.633
365 0 41.0229 11.652 478 80.7678 1109.78 521.81
366 0 43.0667 11.6099 500 79.52 1110.8 521.738
367 0 41.034 10.8934 447 82.1051 1110.68 521.166
368 0 46.0617 13.6339 628 76.9968 1110.14 518.989
369 0 46.0915 11.4989 530 79.9057 1109.76 519.755
370 0 50.0787 13.6186 682 75.3226 1109.89 517.535
371 0 49.0118 13.2009 647 77.4436 1109.81 515.672
372 0 50.0351 12.791 640 77.8453 1109.83 517.564
373 0 51.0356 12.7362 650 78.1015 1109.91 517.64
374 0 54.0589 12.5049 676 77.4956 1110.12 517.084
375 0 54.0171 11.5889 626 79.5032 1110.09 516.19
376 0 54.0909 11.074 599 81.0684 1109.74 512.95
377 0 54.0489 9.15837 495 84.1515 1110.22 510.875
378 0 54.0581 9.3233 504 85.123 1109.69 509.732
379 0 57.0275 9.99517 570 83.7158 1109.41 508.554
380 0 62.1004 11.4009 708 80.322 1108.47 509.316
381 0 62.0713 10.9229 678 81.3319 1109.2 510.08
382 0 65.0383 10.4861 682 82.4604 1108.45 506.727
383 0 67.164 9.55869 642 83.3536 1109.33 506.784
384 0 69.1595 9.71667 672 83.1652 1109.4 506.5
385 1 37.014 9.94217 368 83.3641 1109.82 522.943
386 0 40.0469 10.5626 423 79.6927 1108.57 523.371
387 0 43.0298 11.0389 475 79.7158 1109.05 520.602
388 0 40.0961 10.8489 435 81.6736 1110.04 519.752
389 0 43.0354 12.4316 535 78.828 1109.27 521.622
390 0 43.0097 12.3461 531 79.2561 1108.94 521.782
391 0 45.0927 11.7758 531 80.6723 1109.85 518.723
392 0 47.0161 11.613 546 81.0146 1109.93 517.476
393 0 48.0232 11.4736 551 81.0744 1109.38 518.96
394 0 51.1251 11.599 593 80.661 1109.52 516.201
395 0 53.029 11.654 618 80.0906 1109.26 516.576
396 0 53.0441 10.8589 576 81.276 1109.72 515.868
397 1 111.123 10.1599 1129 71.3428 1109.17 463.888
398 1 233.723 8.26619 1932 104.739 1110.14 356.914
399 0 230.69 9.08144 2095 101.561 1109.63 360.117
400 0 228.565 7.80084 1783 105.517 1110.12 355.204
401 0 229.01 4.80765 1101 112.431 1110.26 353.972
402 0 266.703 7.85517 2095 98.9284 1109.3 344.082
403 0 318.276 4.63435 1475 106.311 1110.15 310.113
404 0 118.466 2.8278 335 95 1111.18 428.281
405 0 111.395 0.897708 100 108.33 1112.91 411.47
406 1 40.0315 10.0921 404 79.453 1109.95 486.99
407 0 40.0474 9.63858 386 80.2927 1109.88 484.876
408 0 41.0086 9.68089 397 79.66 1109.58 481.033
409 0 44.0256 9.51719 419 79.9451 1109.76 480.406
410 0 45.121 12.0786 545 76.1505 1109.75 477.418
411 0 45.0391 10.0579 453 79.6534 1109.64 475.022
412 0 48.0513 10.0726 484 79.093 1109.78 473.566
413 0 48.0363 11.179 537 77.4134 1109.18 470.631
414 0 51.0726 11.5718 591 76.6836 1109.55 471.443
415 0 52.0346 11.3002 588 77.4201 1109.13 468.349
416 0 53.0302 10.1074 536 79.0224 1109.69 462.981
417 0 54.0344 10.4748 566 78.4523 1109.74 460.258
418 0 58.0576 9.47336 550 79.1491 1109.51 457.482
419 0 59.0255 11.5035 679 76.9175 1109.56 457.037
420 0 59.029 10.6897 631 78.1822 1109.39 456.23
421 0 65.0566 10.145 660 78.5455 1109.48 449.333
422 0 67.0705 8.73707 586 81.099 1109.51 445.98
423 0 67.0935 11.5659 776 77.3415 1108.86 446.415
424 0 70.0165 9.82626 688 79.5174 1108.8 440.571
425 1 35.0221 9.45118 331 73.8308 1109.02 489.486
426 0 34.132 7.82256 267 77.4494 1109.78 490.105
427 0 35.0445 9.07418 318 73.3836 1109.17 524.082
428 0 34.0164 8.78989 299 74.6221 1109.21 522.485
429 0 38.0249 10.1512 386 71.8679 1109.71 522.588
430 0 38.0398 9.80553 373 72.2601 1109.35 522.844
431 0 41.083 9.46864 389 72.162 1109.67 522.686
432 0 41.0521 8.57447 352 73.9886 1109.53 522.73
433 0 44.0582 10.3045 454 71.9648 1109.08 520.432
434 0 46.1161 9.95315 459 72.6231 1108.57 518.24
435 0 46.057 10.4436 481 71.9709 1108.5 518.071
436 0 49.1432 9.25866 455 73.5253 1109.57 516.53
437 0 50.0559 10.2685 514 72.5195 1108.9 518.173
438 0 52.0524 12.0263 626 70.0799 1109.08 517.061
439 0 51.0282 8.75985 447 74.83 1108.74 515.141
440 0 52.034 10.6853 556 73.313 1108.74 514.847
441 0 55.02 10.578 582 73.0601 1109.36 514.754
442 0 57.0502 10.1665 580 73.3155 1109.86 513.253
443 0 59.0685 8.97263 530 74.4509 1109.12 515.709
444 0 60.0414 8.44418 507 76.0769 1109.05 508.355
445 0 64.0332 8.26134 529 76.034 1109.47 508.512
446 0 66.1322 9.26931 613 74.2316 1109.37 509.757
447 0 66.0376 10.7363 709 72.3893 1109.51 507.958
448 0 68.0232 12.4222 845 70.5041 1109.58 506.837
449 0 70.0804 9.10383 638 74.0094 1109.84 505.563
450 0 74.1408 11.1679 828 71.0821 1108.63 505.957
451 0 75.0465 8.00837 601 75.3644 1108.81 503.461
452 0 81.0679 13.3838 1085 68.223 1109.32 502.783
453 0 83.1432 10.5 873 71.8247 1109.18 500.3
454 1 65.0204 4.06026 264 79.8561 1109.14 479.004
455 1 45.0244 9.50595 428 70.8925 1109.15 522.175
456 0 46.0284 10.3632 477 70.2054 1108.75 520.786
457 0 48.1848 10.1692 490 70.5 1108.83 519.794
458 0 48.0176 10.9127 524 69.5878 1109.08 517.588
459 0 49.0294 9.19856 451 71.5632 1108.67 519.237
460 0 50.0501 9.91007 496 71.5222 1109.19 514.637
461 0 53.0244 9.84452 522 71.6188 1109.89 512.755
462 0 54.0988 8.85418 479 72.3445 1109.35 513.81
463 0 58.0634 10.2646 596 69.8624 1109.24 513.973
464 0 60.1079 12.6606 761 66.7056 1108.56 513.148
465 0 62.123 9.9963 621 70.2013 1108.55 510.39
466 0 62.0758 10.0361 623 69.8523 1108.75 513.008
467 0 67.0661 11.5707 776 67.8802 1109.27 510.457
468 0 67.0998 11.0432 741 68.9366 1108.39 509.148
469 0 73.1013 12.941 946 65.4165 1108.72 509.768
470 0 74.0791 11.7442 870 66.7805 1109.01 510.929
471 0 77.108 10.9457 844 67.8827 1108.88 509.396
472 0 81.1069 12.6993 1030 66.0379 1109.04 505.884
473 0 84.1145 12.7683 1074 65.3259 1109.61 505.83
474 0 83.2023 10.8651 904 68.8949 1109.43 504.445
475 0 86.0782 11.5244 992 68.2964 1108.8 502.141
476 1 44.0267 11.4249 503 65.9105 1109.26 522.481
477 0 45.0333 11.2361 506 66.251 1108.84 524.482
478 0 47.0674 11.1117 523 66.1664 1108.55 524.748
479 0 47.0249 10.3775 488 67.6516 1109.34 522.576
480 0 50.0386 12.0707 604 66.0281 1108.4 521.272
481 0 50.0999 10.7785 540 67.9556 1108.53 521.128
482 0 50.0246 11.3544 568 68.0387 1108.59 520.438
483 0 53.0468 13.818 733 64.7681 1109.5 519.262
484 0 54.0723 11.7435 635 68.0488 1108.77 517.203
485 0 56.0196 9.80014 549 70.1275 1109.01 516.342
486 0 58.0255 11.7535 682 67.198 1109.56 515.837
487 0 60.0293 12.3107 739 66.6644 1109.15 514.238
488 0 62.0406 12.1372 753 66.6374 1108.62 515.915
489 0 62.0889 10.8876 676 68.4704 1108.64 514.441
490 0 66.077 11.8498 783 67.1596 1108.65 513.66
491 0 68.1168 11.4216 778 68.0231 1109.26 511.979
492 0 70.0622 13.1883 924 65.2879 1108.68 509.556
493 0 73.0808 13.5603 991 64.4511 1108.28 510.69
494 0 76.0895 12.3144 937 66.46 1108.62 508.397
495 0 77.1057 12.3856 955 66.9487 1108.43 506.174
496 0 80.0782 11.7635 942 66.9363 1108.25 507.875
497 0 81.1311 11.5492 937 68.0939 1109.15 504.012
498 0 84.1346 12.3374 1038 67.4778 1108.99 501.21
499 0 85.1272 12.2757 1045 67.5722 1108.62 501.157
500 0 89.0739 13.0341 1161 65.8639 1108.38 500.975
501 1 46.0291 10.7758 496 67.3669 1108.82 521.663
502 0 47.1258 11.1616 526 66.3555 1108.78 522.167
503 0 50.0121 12.0571 603 64.9668 1108.3 519.27
504 0 50.0223 10.7952 540 66.2685 1108.94 520.722
505 0 51.0664 12.3956 633 64.7488 1108.72 518.45
506 0 54.0448 12.6377 683 63.5461 1108.47 517.811
507 0 55.0806 12.0914 666 64.1982 1108.73 516.686
508 0 57.0623 12.6528 722 63.1163 1108.64 515.742
509 0 57.1285 11.903 680 64.1912 1108.26 515.659
510 0 60.0488 12.6897 762 62.7598 1108.22 514.235
511 0 61.0801 12.2462 748 63.1778 1108.7 512.894
512 0 62.0664 10.6821 663 65.2715 1108.35 513.056
513 0 65.047 11.0382 718 64.5474 1108.57 511.299
514 0 67.1196 11.6955 785 63.056 1108.15 513.15
515 0 70.0904 12.3412 865 62.1595 1108.89 509.991
516 0 71.0264 12.1786 865 62.5098 1108.87 507.978
517 0 76.1484 11.4382 871 62.6039 1107.61 506.204
518 0 75.1198 10.9292 821 63.7284 1108.42 506.105
519 0 79.1378 10.5386 834 63.6331 1108.09 506.85
520 0 82.1248 12.2496 1006 61.5825 1107.8 500.503
521 0 84.0959 10.5237 885 63.522 1109.2 502.341
522 0 89.0822 12.8533 1145 60.6358 1108.41 500.612
523 0 92.1136 12.1915 1123 61.569 1108.57 497.091
524 0 93.2142 12.7556 1189 61.0606 1109.02 495.029
525 0 95.0723 12.0329 1144 62.2133 1108.77 494.447
526 0 100.162 12.7993 1282 61.0312 1108.39 493.755
527 0 101.118 12.2629 1240 62.1508 1108.97 492.41
528 1 53.0411 9.33239 495 62.3636 1109.26 517.261
529 0 55.0785 10.7301 591 61.0812 1108.7 518.606
530 0 55.0312 9.81261 540 62.587 1109.06 517.648
531 0 59.1062 11.3186 669 60.6592 1108.62 515.72
532 0 60.1235 10.5117 632 61.4937 1108.06 515.953
533 0 62.1567 10.9079 678 61.205 1107.98 510.847
534 0 63.125 11.7228 740 60.1527 1108.19 511.497
535 0 67.0505 11.0663 742 60.7412 1108.72 511.19
536 0 65.0219 11.1347 724 62.0318 1108.64 509.395
537 0 68.0984 10.0737 686 62.8207 1108.22 510.012
538 0 73.0511 11.2798 824 61.1347 1108.3 507.65
539 0 74.08 10.3672 768 62.03 1108.16 506.323
540 0 79.074 12.1405 960 59.7729 1108.85 507.234
541 0 80.0654 12.3649 990 60.2909 1108.33 503.22
542 0 83.0917 11.6738 970 61.0443 1108.62 500.431
543 0 85.1954 10.9043 929 61.5802 1108.53 501.395
544 0 87.0678 10.578 921 62.1596 1108.7 498.207
545 0 93.0962 11.1283 1036 60.7172 1108.27 500.878
546 1 51.0493 9.85322 503 60.1988 1107.93 522.845
547 0 51.1353 10.5407 539 61.0946 1108.64 520.738
548 0 54.0779 12.408 671 59.3055 1108.53 518.505
549 0 53.0644 9.61096 510 62.8529 1107.84 517.273
550 0 56.0865 12.7125 713 56.8555 1107.13 518.781
551 0 57.0791 12.2287 698 58.7092 1108.18 516.522
552 0 58.051 12.5752 730 58.8315 1108.25 513.825
553 0 58.1057 10.653 619 60.9015 1108.3 515.197
554 0 64.0612 13.05 836 57.5347 1108.4 514.889
555 0 63.0741 11.9225 752 59.8457 1107.97 512.507
556 0 65.1682 12.322 803 58.9938 1107.66 510.464
557 0 67.1065 12.1598 816 59.7647 1108.14 508.887
558 0 70.1317 12.9898 911 58.3809 1108.08 510.203
559 0 72.0513 12.269 884 59.3394 1108.27 509.511
560 0 75.1585 12.946 973 58.2045 1108.35 508.414
561 0 78.1353 11.5057 899 59.5617 1108.53 508.571
562 0 81.1206 14.0778 1142 56.9641 1108.75 505.458
563 0 83.1126 13.3072 1106 58.1103 1108.1 504.664
564 1 44.0729 9.62042 424 60.8679 1107.88 522.734
565 0 44.1293 9.22289 407 61 1107.75 522.757
566 0 47.063 10.5603 497 60.5171 1107.8 520.537
567 0 49.0194 11.1588 547 59.7879 1107.79 520.079
568 0 52.1188 12.5674 655 57.4214 1107.42 519.934
569 0 51.1749 9.9072 507 61.071 1107.88 520.866
570 0 52.1065 10.9199 569 59.8664 1108.4 520.181
571 0 55.033 11.902 655 58.8046 1108.4 518.638
572 0 56.1715 13.1027 736 57.6033 1108.9 518.448
573 0 57.0652 12.477 712 59.4143 1108.06 514.195
574 0 59.1459 11.9873 709 59.2934 1108.56 515.203
575 0 60.0567 13.6538 820 57.9817 1108.38 514.465
576 0 64.1344 12.7857 820 58.8549 1108.26 512.171
577 0 63.1561 12.002 758 60.1016 1108.95 511.164
578 0 66.1354 13.4724 891 58.1437 1109.12 511.022
579 0 67.1213 11.8442 795 60.1887 1109.17 512.496
580 0 66.0805 12.3637 817 60.5104 1110.19 508.857
581 0 70.0998 10.8845 763 61.7523 1110.13 508.071
582 0 72.1754 12.6636 914 59.6335 1110.22 506.142
583 0 73.2209 11.718 858 60.3042 1109.62 506.675
584 0 77.1814 11.4665 885 60.6836 1109.68 505.24
585 0 80.1216 13.2673 1063 58.6538 1109.32 504.3
586 0 84.2076 12.1485 1023 59.7234 1109.55 502.819
587 1 41.1118 10.2404 421 60.5202 1109.51 522.057
588 0 42.1058 9.26238 390 61.218 1108.85 521.149
589 0 46.0384 10.5998 488 58.8893 1109.32 521.416
590 0 47.0771 12.3202 580 57.5138 1108.54 519.788
591 0 50.0277 12.1932 610 57.1836 1108.85 520.248
592 0 49.0932 12.4457 611 58.0016 1108.94 518.985
593 0 51.1499 11.828 605 58.9107 1108.36 517.289
594 0 52.1142 11.6667 608 59.2812 1108.16 517.836
595 0 55.1277 12.462 687 58.4061 1108.18 516.266
596 0 55.1053 11.7412 647 59.6569 1108.7 514.308
597 0 57.054 9.93795 567 61.5168 1108.32 515.048
598 0 57.048 11.3063 645 60.2915 1108.67 513.536
599 0 56.0454 11.0089 617 61.3501 1108.15 510.35
600 0 61.0703 11.7242 716 59.7067 1108.88 511.744
601 0 62.1009 10.5796 657 61.379 1108.46 508.566
602 0 65.0446 10.3775 675 61.3467 1108.68 507.825
603 0 67.0787 11.7474 788 59.6345 1108.99 508.717
604 0 70.0799 12.0434 844 59.4028 1108.71 507.339
605 0 70.0544 11.434 801 61.0836 1109.45 505.024
606 0 74.0466 11.4252 846 60.6064 1109.59 503.59
607 0 75.1207 12.8194 963 59.6636 1109.72 502.254
608 0 80.1116 12.3827 992 59.4718 1109.52 502.009
609 1 42.0163 10.2817 432 60.8472 1109.25 520.13
610 0 45.0317 10.5481 475 59.9284 1109.14 520.8
611 0 44.0356 10.7413 473 61.1755 1109.27 519.484
612 0 47.0378 11.5439 543 58.9834 1109.27 518.18
613 0 49.0576 11.7209 575 57.7826 1109.09 519.93
614 0 50.0342 11.7719 589 58.3905 1109.35 518.042
615 0 51.1051 11.6035 593 58.9376 1108.67 516.437
616 0 52.1385 10.8941 568 59.6972 1109.61 516.166
617 0 54.0506 9.80563 530 61.2679 1109.35 515.764
618 0 56.1028 13.4931 757 57.0211 1109.32 513.797
619 0 56.0737 9.64802 541 62.2144 1109.18 513.1
620 0 59.0625 11.5302 681 59.6711 1109.31 510.573
621 0 62.1486 11.6817 726 58.8154 1109.04 511.705
622 0 64.0873 11.3439 727 59.0426 1109.02 510.014
623 0 65.1747 12.781 833 57.545 1109.17 509.514
624 0 65.0723 11.7408 764 59.161 1109.17 509.276
625 0 67.0749 14.372 964 56.2292 1109.45 508.199
626 0 69.0852 13.7077 947 56.7392 1109.04 507.923
627 0 70.0986 11.3412 795 58.5736 1107.63 510.132
628 0 73.1486 11.8116 864 58.25 1108.44 504.663
629 0 75.1613 12.2936 924 58.2435 1109.2 502.083
630 1 42.0478 11.0588 465 57.4602 1109.07 520.858
631 0 40.046 9.78873 392 59.4617 1108.8 521.643
632 0 42.0241 10.1608 427 59.0351 1108.97 521.48
633 0 45.0347 10.6362 479 59.785 1109.14 519.006
634 0 45.0958 11.9523 539 58.7681 1108.47 518.499
635 0 46.0261 12.2539 564 58.7695 1109.21 516.028
636 0 48.0261 12.7847 614 57.6857 1109.7 517.151
637 0 50.0767 11.9617 599 58.8364 1109.59 515.896
638 0 51.0241 10.3285 527 60.7818 1109.31 515.472
639 0 51.0966 10.4508 534 61.5768 1109 515.015
640 0 52.0432 12.4128 646 59.9954 1109.13 513.011
641 0 54.0705 10.6528 576 62.4792 1109.38 513.255
642 0 56.0718 11.7171 657 61.0685 1109.38 513.505
643 0 59.0955 13.1313 776 59.5271 1108.47 512.264
644 0 59.0688 12.6971 750 60.2613 1108.32 512.561
645 0 60.0455 12.8736 773 61.0104 1109.84 509.895
646 0 62.1235 12.4752 775 61.4916 1109.07 508.52
647 0 64.0512 12.7086 814 61.226 1109.48 508.625
648 0 66.0423 12.1135 800 61.61 1108.93 507.848
649 0 68.1234 11.8168 805 61.8 1108.78 507.724
650 0 70.0754 12.2297 857 60.9557 1109.57 505.587
651 0 69.0542 10.89 752 63.0652 1109.88 506.797
652 0 77.0941 13.2825 1024 59.4092 1109.81 504.525
653 0 77.1264 12.6545 976 60.7951 1109.72 502.653
654 0 79.1111 13.1334 1039 60.3648 1109.85 500.871
655 1 46.019 11.7777 542 59.4244 1109.6 519.304
656 0 45.0406 9.03629 407 62.8059 1110.57 520.194
657 0 46.0314 11.0359 508 62.0945 1110.02 517.494
658 0 50.0741 10.8639 544 61.8971 1109.71 516.774
659 0 51.0387 11.5011 587 60.9182 1109.64 516.629
660 0 51.0406 11.4811 586 62.3038 1110.07 515.411
661 0 53.0853 11.717 622 61.9453 1109.75 514.436
662 0 56.0688 12.2528 687 60.8894 1109.74 515.058
663 0 55.1266 9.57796 528 65.322 1109.99 513.131
664 0 58.1751 11.1732 650 63 1109.39 511.528
665 0 60.0754 11.652 700 62.7486 1109.7 510.411
666 0 61.0326 12.1738 743 62.3876 1110.02 506.935
667 0 63.06 13.2096 833 60.449 1110.23 509.443
668 0 64.0259 10.7613 689 63.7954 1110.04 506.57
669 0 67.0789 12.448 835 61.6264 1109.64 506.605
670 0 72.0614 13.2526 955 59.9843 1109.96 504.601
671 0 71.1126 9.7873 696 64.5144 1111.02 505.249
672 0 75.1183 11.4752 862 62.7935 1110.77 502.234
673 0 78.0789 10.7327 838 63.4057 1110.08 502.06
674 0 80.2061 11.6949 938 62.1141 1109.36 499.856
675 1 44.0735 9.59761 423 62.4634 1109.83 518.35
676 0 47.125 10.3554 488 61.7848 1110.37 516.846
677 0 47.1008 10.4881 494 61.8745 1110.71 518.219
678 0 51.1329 11.4408 585 60.9658 1110.26 516.383
679 0 52.0122 12.6893 660 59.5485 1109.52 515.938
680 0 50.0482 9.29105 465 64.6989 1110.09 513.684
681 0 55.0395 11.5553 636 61.5723 1110.77 514.635
682 0 57.1696 10.9499 626 62.2684 1110.28 514.776
683 0 56.0425 11.4734 643 62.4634 1109.77 513.473
684 0 58.037 11.4582 665 62.809 1110.5 512.821
685 0 59.1381 13.1218 776 60.9356 1109.73 510.202
686 0 61.1104 10.931 668 63.8817 1110.33 511.225
687 0 64.0892 12.3578 792 61.995 1109.9 509.936
688 0 64.0844 11.4536 734 63.9155 1109.87 508.674
689 0 66.0896 10.4101 688 65.0015 1110.23 508.81
690 0 69.1626 12.8682 890 62.2629 1110.62 505.719
691 0 69.1547 11.8141 817 63.4051 1110.77 506.202
692 0 72.1038 11.9273 860 63.1756 1109.74 506.53
693 0 76.131 12.4128 945 61.8762 1109.75 507.405
694 0 74.174 11.8775 881 63.7083 1109.54 503.54
695 0 78.1419 10.8009 844 64.3282 1109.63 503.816
696 0 79.0889 11.544 913 63.8784 1109.41 503.154
697 0 84.2476 12.8194 1080 62.1306 1109.88 499.968
698 0 87.1314 13.1525 1146 62.1981 1109.8 500.417
699 0 86.0576 11.3529 977 64.3337 1110.02 501.12
700 1 45.0878 9.86963 445 62.4831 1110.86 521.038
701 0 49.0595 10.7013 525 60.4933 1110.14 522.173
702 0 47.0432 10.2884 484 63.5558 1109.73 517.977
703 0 49.0867 11.7547 577 61.539 1109.8 518.204
704 0 49.0354 10.7065 525 63.341 1109.52 517.402
705 0 53.0259 11.5038 610 61.423 1109.61 519.6
706 0 55.1243 12.9525 714 60.2017 1109.79 516.549
707 0 55.2078 11.9005 657 61.5997 1109.39 517.297
708 0 56.0254 10.5666 592 63.4713 1109.32 516.331
709 0 57.0432 11.0443 630 62.9397 1109.64 516.241
710 0 60.0293 12.1441 729 62.118 1109.59 514.248
711 0 64.0468 11.9756 767 62.0926 1109.62 513.544
712 0 62.208 12.5225 779 62.8049 1110.07 510.979
713 0 66.0928 12.6489 836 62.0598 1109.77 512.315
714 0 68.0894 12.6011 858 62.2319 1109.18 511.538
715 0 69.108 10.9683 758 63.5726 1109.61 512.393
716 0 71.128 12.9626 922 61.9534 1109.59 508.175
717 0 72.1468 9.68858 699 65.5665 1109.84 509.399
718 0 76.0849 11.3426 863 62.9942 1110.05 509.509
719 0 76.0698 11.0293 839 63.683 1110.29 509.609
720 0 80.1139 12.1702 975 62.6 1109.72 504.048
721 0 82.0823 12.7799 1049 61.9276 1109.49 504.052
722 0 84.2551 11.2515 948 63.7247 1109.7 501.96
723 1 43.0131 9.97371 429 63.2914 1109.11 522.301
724 0 45.0646 11.4058 514 61.3716 1109.15 521.632
725 0 46.0746 10.266 473 63.0169 1109.45 521.541
726 0 48.0875 10.8968 524 62.2786 1110.1 520.836
727 0 48.1067 10.3936 500 63.35 1109.77 518.272
728 0 49.0581 11.0889 544 62.8438 1109.65 519.91
729 0 51.0393 9.09103 464 65.0366 1109.42 518.972
730 0 52.1281 13.3517 696 60.8894 1108.77 517.032
731 0 53.0703 10.9854 583 63.6021 1109.36 518.249
732 0 56.0876 10.8937 611 64.0131 1110.08 516.193
733 0 59.0412 11.6529 688 62.5131 1109.07 515.327
734 0 59.0468 10.4832 619 63.2698 1108.94 516.26
735 0 62.0515 12.4091 770 61.5442 1109.55 514.025
736 0 61.0592 10.2032 623 63.9502 1109.82 513.968
737 0 65.0901 10.3395 673 64.2868 1109.64 512.423
738 0 65.0738 10.9414 712 63.6601 1109.79 510.89
739 0 70.0408 11.3934 798 62.8935 1109.96 510.055
740 0 72.0972 12.2196 881 61.3371 1110.43 508.553
741 0 74.1475 11.7334 870 62.7448 1109.82 507.095
742 0 75.0846 12.0131 902 62.4922 1109.86 505.823
743 0 77.0978 11.868 915 62.4415 1109.21 504.055
744 0 81.097 10.9992 892 63.2634 1109.27 501.331
745 0 83.1063 11.5635 961 61.9136 1108.79 502.735
746 0 86.2574 11.5237 994 62.2716 1109.06 501.044
747 1 43.0086 9.43997 406 61.1823 1109.45 522.458
748 0 43.0086 9.46322 407 126.005 1110.47 522.445
749 0 45.0425 9.28012 418 61.4737 1109.5 522.526
750 0 45.1969 11.7707 532 59.2387 1108.96 519.679
751 0 50.1179 10.1361 508 60.1555 1109.11 521.071
752 0 48.0796 10.5242 506 60.9743 1108.72 519.903
753 0 51.1238 10.5821 541 60.024 1109.49 519.512
754 0 52.0836 12.2495 638 58.8182 1109.93 517.585
755 0 54.0812 11.6676 631 58.9398 1109.96 516.227
756 0 55.1899 10.328 570 60.2579 1109.62 516.611
757 0 58.0441 10.4403 606 59.5908 1109.66 517.041
758 0 59.1406 10.4328 617 59.4457 1109.74 514.645
759 0 61.1999 11.9118 729 57.3141 1109.42 513.118
760 0 63.1363 9.94673 628 59.0382 1109.36 514.151
761 0 63.3051 9.82543 622 59.672 1109.81 509.73
762 0 63.1458 9.48598 599 59.9366 1108.92 509.399
763 0 70.1056 12.0532 845 56.0379 1109.83 510.509
764 0 72.3139 12.501 904 56.1195 1109.15 507.676
765 0 75.236 11.0718 833 57.2605 1109.41 507.591
766 0 78.3256 11.7458 920 56.338 1109.82 507.415
767 1 40.1254 10.5918 425 55.8259 1109.1 525.296
768 0 43.0768 10.5625 455 55.3209 1109.28 525.578
769 0 43.1179 9.60158 414 56.4976 1109.38 525.406
770 0 45.1241 9.75088 440 56.4091 1108.88 524.75
771 0 45.0585 7.90084 356 60.8539 1108.9 522.447
772 0 48.1607 10.548 508 56.9803 1110.13 524.108
773 0 47.0738 11.2164 528 57.9148 1109.54 519.479
774 0 48.0271 12.2639 589 57 1108.81 520.978
775 0 50.0664 9.72708 487 60.5914 1108.93 520.639
776 0 53.0959 13.3532 709 56.0677 1109.18 517.47
777 0 56.109 11.0677 621 58.8406 1109.06 519.169
778 0 56.0549 11.5958 650 57.2554 1110.49 519.748
779 0 57.1098 12.117 692 57.2052 1110.03 517.928
780 0 58.0758 11.5539 671 58.3174 1110.24 517.435
781 0 58.0386 12.0782 701 58.3652 1109.49 515.583
782 0 61.2283 12.8045 784 57.4031 1109.47 514.714
783 0 62.0927 11.1124 690 58.6014 1109.64 516.907
784 0 65.1207 12.7763 832 57.1178 1109.31 515.432
785 0 66.0915 14.2984 945 55.7238 1110.64 512.45
786 0 68.1628 12.2941 838 58.1169 1109.83 512.868
787 0 69.0564 12.8446 887 57.2142 1109.37 512.814
788 0 73.1138 13.5542 991 56.3512 1109.11 511.02
789 0 73.0942 10.206 746 61.5724 1108.93 505.436
790 0 73.1004 11.6415 851 59.9612 1108.44 506.251
791 0 78.1207 11.6742 912 59.7796 1108.35 505.719
792 0 78.1078 10.8696 849 60.7032 1109.31 507.459
793 1 42.1303 9.42314 397 59.9673 1109.73 525.118
794 0 45.0958 11.0432 498 58.243 1109.78 522.753
795 0 46.1748 10.5469 487 59.0164 1109.54 522.86
796 0 48.0375 11.4494 550 58.7091 1109.91 520.398
797 0 48.2032 10.5802 510 60.098 1109.39 522.341
798 0 51.0337 11.8549 605 58.3273 1109.11 518.997
799 0 53.0979 11.4882 610 58.4377 1109.19 520.867
800 0 53.0891 12.1682 646 58.6517 1109.7 518.765
801 0 52.0808 10.8869 567 61.2487 1110.07 518.744
802 0 56.0221 12.2809 688 58.9738 1109.5 517.43
803 0 57.1243 12.7441 728 58.7459 1109.55 517.479
804 0 60.0751 12.1182 728 58.9712 1109.62 516.941
805 0 61.0651 10.497 641 60.9251 1108.89 516.359
806 0 61.0699 11.3968 696 60.9052 1108.63 513.918
807 0 63.0275 11.3443 715 60.9329 1108.74 513.007
808 0 67.2209 12.0349 809 59.4302 1108.8 513.108
809 0 69.2148 12.3528 855 59.4912 1108.86 512.036
810 0 70.0949 12.0694 846 60.0024 1109.24 510.969
811 0 72.1158 11.7173 845 60.1136 1108.94 511.912
812 0 75.1333 11.8456 890 59.8225 1109 510.217
813 0 77.1125 13.0329 1005 58.4189 1109.92 508.476
814 0 80.087 11.3876 912 61.3805 1109.89 506.22
815 0 84.111 12.3646 1040 60.1269 1109.18 507.336
816 0 84.0769 11.8344 995 61.4352 1109.25 507.505
817 0 89.172 12.3694 1103 61.0145 1109.6 504.102
818 1 42.0383 10.7997 454 60.9405 1109.93 523.511
819 0 43.0385 11.6407 501 59.9501 1109.48 524.393
820 0 45.0712 11.4264 515 60.7534 1109.51 522.629
821 0 47.0261 11.9508 562 59.2206 1109.5 523.301
822 0 47.0158 12.3788 582 60.067 1109.14 519.952
823 0 49.0635 10.0278 492 62.0203 1109.04 522.722
824 0 50.019 12.7152 636 59.7123 1109.34 519.862
825 0 54.0942 12.6631 685 58.3635 1109.86 521.542
826 0 53.1223 11.1629 593 61.4266 1109.65 518.476
827 0 54.0467 11.7491 635 61.2142 1109.33 518.866
828 0 57.0555 11.6203 663 61.2971 1109.46 518.012
829 0 58.0464 12.0421 699 61.1688 1109.37 516.149
830 0 60.062 11.6213 698 61.5358 1110.05 517.934
831 0 61.071 13.5252 826 59.3366 1108.64 514.881
832 0 62.0645 11.2302 697 62.1951 1109.05 513.879
833 0 64.0848 12.1402 778 61.41 1109.66 512.238
834 0 67.0485 12.2896 824 60.8714 1109.8 512.585
835 0 66.0679 11.019 728 63.1415 1108.88 511.106
836 0 72.116 12.2719 885 61.1661 1108.62 511.24
837 0 72.0822 12.347 890 61.918 1109.57 508.885
838 0 78.0265 13.5723 1059 59.3588 1109.08 508.364
839 0 79.0517 11.0561 874 62.6602 1109.31 507.857
840 0 82.0739 12.9274 1061 60.7295 1109.28 507.111
841 0 82.1152 11.764 966 62.4358 1108.8 502.909
842 1 43.0854 12.6957 547 59.4278 1109.13 525.932
843 0 44.0219 9.97232 439 63.8633 1109.33 524.191
844 0 48.0386 10.9704 527 61.2049 1108.99 525.209
845 0 46.0367 10.1224 466 134.614 1108.09 524.472
846 0 49.0763 12.7149 624 60.7404 1108.91 520.675
847 0 50.0987 11.0582 554 63.0686 1109.19 521.094
848 0 51.1749 10.2785 526 63.8118 1109.05 520.806
849 0 52.0585 12.678 660 61.3167 1108.88 518.636
850 0 57.1047 11.3126 646 61.5449 1108.43 519.166
851 0 57.0741 12.1772 695 61.0777 1109.14 518.727
852 0 58.1468 11.5742 673 62.2303 1109.21 517.184
853 0 61.0907 11.4093 697 62.1076 1108.94 515.412
854 0 61.0575 11.481 701 62.5991 1109.09 515.081
855 0 65.0406 12.0079 781 61.4686 1108.73 512.04
856 0 66.0914 12.3163 814 61.285 1108.51 513.633
857 0 67.0873 10.5534 708 63.404 1108.46 513.709
858 0 71.0891 11.8162 840 62.4071 1108.2 510.982
859 0 73.0629 13.0299 952 61.5893 1108.7 510.482
860 0 75.2182 12.6166 949 63.8398 1109.02 509.768
861 0 76.135 11.8474 902 64.9424 1108.53 511.501
862 0 77.0713 11.6645 899 66.8443 1108.94 507.161
863 1 41.0135 11.2646 462 63.5 1108.77 527.82
864 0 42.0299 10.207 429 66.1049 1109.89 526.548
865 0 44.0235 11.2213 494 64.4514 1109.01 527.37
866 0 43.0516 11.6604 502 66.1474 1109.29 524.695
867 0 44.0277 10.3571 456 67.796 1108.98 524.893
868 0 47.0348 11.821 556 65.9676 1109.92 523.531
869 0 48.0971 11.2273 540 67.0426 1108.69 522.117
870 0 49.0163 12.3428 605 65.7818 1109.46 520.42
871 0 52.0534 12.0261 626 64.8466 1108.91 523.661
872 0 53.0882 12.7712 678 64.6268 1108.75 521.558
873 0 54.0595 12.2828 664 66.0211 1108.83 519.19
874 0 54.0559 10.7481 581 68.3322 1108.36 519.614
875 0 57.0418 10.2732 586 68.6314 1108.69 520.84
876 0 58.0743 11.8641 689 67.2888 1108.4 518.023
877 0 59.0515 11.4646 677 67.6086 1108.02 517.845
878 0 62.093 12.9966 807 65.2094 1107.61 516.808
879 0 63.0587 12.4011 782 66.835 1107.85 514.774
880 0 65.0551 11.375 740 67.5743 1108.18 517.18
881 0 66.0484 12.8694 850 66.3176 1108.2 513.418
882 0 68.1271 11.7721 802 67.5249 1108.71 513.903
883 0 73.2716 12.2421 897 66.4504 1108.54 512.882
884 0 73.252 11.6447 853 68.1958 1108.33 512.156
885 1 38.0475 11.8273 450 66.42 1109.17 528.033
886 0 37.1365 10.5018 390 69.5128 1107.97 527.823
887 0 43.0794 10.144 437 68.5172 1108.42 527.288
888 0 42.0713 10.815 455 68.2286 1108.52 526.771
889 0 42.0398 11.0847 466 69.6996 1108.44 525.762
890 0 45.0694 11.6709 526 68.9639 1109.05 524.5
891 0 47.0763 11.5345 543 68.4328 1109.15 524.144
892 0 47.0313 11.9707 563 68.7176 1109.17 522.002
893 0 49.0489 13.2113 648 66.25 1109.04 523.679
894 0 51.0396 13.3818 683 66.6354 1108.93 522.259
895 0 50.0453 12.189 610 69.0639 1108.78 520.398
896 0 52.0154 11.4581 596 70.2366 1109.03 519.557
897 0 56.0281 12.7436 714 67.1667 1108.82 521.751
898 0 56.0397 11.4562 642 70.3863 1109.39 520.335
899 0 56.084 13.0162 730 68.9247 1109.2 518.526
900 0 58.0327 13.0099 755 68.6927 1109.57 519.424
901 0 60.0345 14.0586 844 66.7879 1109.23 516.261
902 0 61.0264 13.9776 853 66.5686 1108.5 516.23
903 0 63.029 14.2633 899 66.8254 1108.45 514.677
904 0 64.1162 13.5223 867 67.3276 1108.77 517.888
905 0 65.0824 12.4611 811 69.0641 1108.32 516.074
906 0 67.1198 13.8707 931 66.8604 1108.53 515.762
907 0 69.0506 12.976 896 68.3002 1107.98 512.48
908 0 69.0688 12.1183 837 70.3644 1109.23 513.916
909 0 73.0517 12.0463 880 70.7182 1109.49 510.773
910 0 74.1621 12.5266 929 70.0764 1109.4 508.622
911 0 78.1614 12.8708 1006 68.7018 1110.09 510.844
912 0 79.0594 13.18 1042 68.9654 1109.4 508.236
913 0 80.1208 10.8586 870 72.1586 1109.37 507.556
914 0 84.059 12.6459 1063 69.6632 1109.02 505.143
915 0 86.0615 12.7467 1097 69.5661 1108.16 505.322
916 0 91.0523 12.5862 1146 69.0995 1108.71 505.101
917 1 44.0318 11.6052 511 71.5029 1108.83 522.462
918 0 48.0464 11.8635 570 70.107 1108.26 522.861
919 0 48.0837 12.4574 599 69.177 1108.7 525.421
920 0 52.0297 12.9157 672 67.6726 1108.29 525.219
921 0 50.0577 11.0273 552 72.9022 1108.57 520.38
922 0 51.0337 11.9137 608 70.4326 1108.24 522.132
923 0 52.0509 12.4109 646 70.257 1107.95 519.108
924 0 54.0942 11.5354 624 70.4968 1108.5 520.516
925 0 57.0841 11.4743 655 70.4107 1108.11 518.904
926 0 62.0836 12.7731 793 66.8159 1108.2 519.474
927 0 62.09 13.4482 835 66.7653 1107.79 517.434
928 0 63.0566 11.6403 734 69.1349 1108 517.144
929 0 67.056 14.4506 969 64.968 1108.63 513.91
930 0 68.1084 11.746 800 68.3912 1108.7 514.295
931 0 70.1358 13.3741 938 67.016 1108.68 511.488
932 0 72.0825 11.9724 863 67.7729 1108.31 514.213
933 0 75.1198 13.3254 1001 67 1108.53 509.477
934 0 76.1394 11.5183 877 69.3854 1109.04 510.044
935 0 79.1697 12.3027 974 68.0965 1108.97 507.221
936 0 83.1337 13.5324 1125 66.4676 1108.92 504.257
937 1 41.0641 10.8854 447 68.5414 1109.01 524.275
938 0 44.0626 11.8922 524 67.2977 1108.83 522.092
939 0 45.0421 10.9453 493 68.8763 1108.38 524.162
940 0 45.0684 11.8043 532 67.8759 1107.67 522.611
941 0 47.0248 10.3137 485 70.0289 1108.48 522.534
942 0 47.0475 9.71359 457 70.2845 1109.35 524.033
943 0 50.1145 12.232 613 67.3263 1108.64 520.204
944 0 51.047 10.696 546 69.4982 1107.97 519.183
945 0 54.0639 11.5419 624 67.984 1109.63 518.224
946 0 55.1075 10.7608 593 69.4924 1109.27 515.99
947 0 56.027 10.2808 576 69.4531 1109.12 518.865
948 0 59.135 10.4845 620 69.3452 1108.56 518.353
949 0 60.1051 12.0456 724 67.6851 1109.26 514.094
950 0 62.078 10.2291 635 70.4425 1109.49 511.661
951 0 66.0365 11.5997 766 67.7807 1108.87 512.325
952 0 65.082 11.7237 763 68.6343 1109.17 510.048
953 0 69.181 12.648 875 67.2606 1109.21 510.673
954 0 70.1299 10.3665 727 70.0578 1109 509.894
955 0 74.1315 11.1289 825 69.8436 1107.86 507.021
956 0 76.0924 11.2101 853 70.2181 1108.73 506.054
957 0 80.0552 11.1423 892 69.5628 1109.14 505.398
958 0 81.2224 10.736 872 71.1892 1108.73 504.705
959 1 40.0772 10.8541 435 69.269 1108.74 522.938
960 0 42.066 10.9114 459 69.6144 1108.59 521.991
961 0 45.0256 11.6378 524 68.4084 1108.79 522.418
962 0 44.0162 11.1096 489 69.9039 1108.97 521.166
963 0 48.0692 11.4002 548 68.7792 1108.8 522.274
964 0 48.0725 12.0027 577 67.896 1108.86 521.312
965 0 51.0897 10.8045 552 69.0236 1108.83 520.886
966 0 52.1477 11.6592 608 68.0938 1109.32 521.393
967 0 52.0325 11.8195 615 69.5642 1108.92 518.036
968 0 53.0645 11.5897 615 69.1415 1109.22 520.01
969 0 55.0268 12.6666 697 68.2956 1109.28 517.201
970 0 56.0658 11.326 635 70.0094 1109.25 516.775
971 0 58.0383 11.5096 668 69.5808 1109.59 515.798
972 0 61.1472 11.7912 721 69.1581 1109.59 515.057
973 0 63.121 12.0879 763 68.6553 1109.92 515.206
974 0 64.2203 12.644 812 68.1121 1109.53 513.754
975 0 65.0481 10.4538 680 71.2029 1109.07 513.471
976 0 67.064 11.3772 763 69.6134 1109.36 512.688
977 0 70.0757 12.2582 859 68.9546 1109.06 510.12
978 0 73.0781 12.4387 909 68.9703 1109.3 509.106
979 0 74.1713 11.2173 832 70.9363 1108.56 508.499
980 0 77.1761 12.763 985 68.8 1108.3 508.325
981 1 38.0769 10.0849 384 68.7057 1108.96 524.206
982 0 39.044 10.0399 392 68.6097 1109.07 524.11
983 0 42.044 9.8706 415 68.6771 1109.05 524.477
984 0 41.0544 10.7419 441 67.5397 1109.29 524.485
985 0 44.0503 9.60266 423 67.9645 1109.36 523.34
986 0 46.0208 11.5383 531 66.1695 1108.88 523.153
987 0 45.0756 10.3382 466 68.3841 1108.98 522.91
988 0 48.0286 11.8679 570 65.7544 1109.15 521.646
989 0 48.0412 10.1163 486 68.6914 1109.17 520.204
990 0 49.0682 10.0269 492 69.0386 1109.12 521.717
991 0 53.0378 10.747 570 67.5333 1109.43 518.702
992 0 55.0824 11.3648 626 66.4409 1110.09 516.476
993 0 56.0698 9.7557 547 68.4424 1109.5 517.718
994 0 56.1 11.2834 633 66.8863 1109.47 516.61
995 0 58.1077 10.4805 609 67.7783 1110.07 515.86
996 0 60.1172 11.2946 679 66.3918 1110.45 516.579
997 0 61.1292 10.0116 612 68.5637 1109.85 513.145
998 0 64.1339 9.72964 624 68.8013 1109.35 511.038
999 0 67.0581 12.0194 806 65.3846 1109.81 512.364
1000 0 67.2887 9.10999 613 67.9543 1109.4 513.662
1001 0 72.1646 11.3629 820 64.9232 1110.05 511.663
1002 0 73.1402 10.7055 783 65.3665 1110.23 511.447
1003 0 74.1459 11.2346 833 65.3818 1109.63 506.744
1004 0 77.1191 11.7481 906 64.4846 1109.92 507.518
1005 0 79.0866 11.127 880 65.2648 1109.61 506.633
1006 0 81.0542 10.3634 840 65.6762 1109.42 506.929
1007 0 85.1923 12.2429 1043 63.8581 1109.46 505.769
1008 0 89.1282 11.9379 1064 63.8872 1109.02 503.086
1009 0 89.2273 11.9022 1062 64.3766 1109.5 503.001
1010 1 47.03 9.39826 442 65.3009 1109.6 522.061
1011 0 47.0302 10.8441 510 64.2196 1109.94 523.333
1012 0 49.025 11.6471 571 62.9737 1109.63 521.01
1013 0 50.0642 10.5664 529 64.1682 1109.1 521.493
1014 0 52.0668 10.7746 561 64.369 1108.73 517.264
1015 0 54.071 11.263 609 62.665 1108.34 521.309
1016 0 55.0246 10.1773 560 64.4 1109.05 520.502
1017 0 55.0733 9.75064 537 65.959 1108.3 516.885
1018 0 59.0794 11.5776 684 63.1988 1108.72 516.101
1019 0 59.0832 9.86745 583 64.5232 1108.59 517.412
1020 0 61.1266 11.2063 685 63.8453 1108.3 515.848
1021 0 62.0656 10.9723 681 64.2673 1107.67 513.527
1022 0 66.089 11.5602 764 62.6531 1108.2 516.198
1023 0 67.1962 10.6851 718 63.4513 1108.69 516.22
1024 0 69.1213 10.8216 748 63.7019 1108.45 513.442
1025 0 71.2613 10.7351 765 63.281 1108.4 513.326
1026 0 74.0773 12.2845 910 61.556 1107.78 511.562
1027 0 74.1607 11.2324 833 63.5402 1107.58 506.681
1028 0 79.1136 11.3887 901 63.172 1107.95 508.648
1029 0 81.1854 12.2559 995 61.9096 1107.91 508.493
1030 0 84.153 11.5266 970 62.9577 1108.1 504.825
1031 1 49.0776 9.96381 489 63.2822 1108.01 524.867
1032 0 49.0921 9.59422 471 63.8917 1107.96 523.981
1033 0 52.0569 9.60487 500 62.772 1108.24 525.59
1034 0 54.1531 10.1195 548 63.0712 1108.65 523.69
1035 0 53.0727 10.5327 559 63.4866 1108.75 522.603
1036 0 56.0688 11.2362 630 62.3016 1108.33 521.741
1037 0 58.021 12.4782 724 60.6809 1108.33 520.724
1038 0 62.0766 12.5168 777 60.5006 1107.57 517.348
1039 0 63.0579 11.4974 725 61.6841 1107.69 519.634
1040 0 65.0627 12.096 787 60.5032 1108.15 519.311
1041 0 66.0784 10.8205 715 62.8392 1108.25 517.448
1042 0 68.1282 12.3003 838 61.2148 1108.25 516.891
1043 0 70.1587 11.8446 831 62.0902 1108.4 516.054
1044 0 70.116 11.9944 841 61.3353 1108.03 516.867
1045 0 75.1203 13.1123 985 59.6487 1107.38 513.975
1046 0 77.0654 12.8592 991 60.561 1107.23 512.681
1047 0 80.1265 12.655 1014 61.1805 1107.75 510.49
1048 0 81.1278 12.2399 993 62.0816 1107.87 509.232
1049 1 42.0783 9.41103 396 63.3333 1107.3 530.3
1050 0 43.1526 10.1037 436 62.6835 1107.23 529.126
1051 0 45.0391 10.4132 469 63.0469 1107.03 527.823
1052 0 47.0724 11.4717 540 62.1352 1106.96 525.915
1053 0 48.0844 11.4798 552 62.5417 1106.33 525.437
1054 0 48.0988 11.1022 534 63.4644 1107.62 524.624
1055 0 51.0903 11.5677 591 62.8393 1107.58 524.135
1056 0 52.062 9.35423 487 65.1951 1107.45 525.236
1057 0 55.1195 11.2483 620 63.6516 1107.37 523.434
1058 0 55.0981 11.8879 655 62.7405 1107.24 523.678
1059 0 57.1348 12.3392 705 62.2624 1107.13 520.593
1060 0 60.171 12.9132 777 61.5856 1107.47 520.089
1061 0 60.1032 10.3489 622 65.7138 1107.59 518.236
1062 0 62.1446 12.7927 795 62.4792 1107.5 518.029
1063 0 64.1138 12.2595 786 63.2405 1107.82 516.097
1064 0 69.1547 13.9253 963 59.9117 1107.83 516.934
1065 0 71.0691 11.9602 850 62.0953 1107.55 516.54
1066 0 71.0681 12.4247 883 61.3341 1107.74 516.951
1067 0 74.0776 13.3914 992 59.6129 1107.55 512.812
1068 0 74.0742 11.4885 851 61.7955 1107.04 511.609
1069 0 79.0645 12.2432 968 60.3037 1106.96 512.139
1070 0 81.1505 12.1256 984 60.5955 1108.69 509.115
1071 0 86.0703 13.2334 1139 58.8586 1108.59 506.726
1072 0 88.1556 13.0111 1147 58.4525 1108.31 505.706
1073 0 89.1554 10.3527 923 61.9913 1107.98 505.634
1074 0 94.1543 12.0122 1131 59.1989 1108.31 505.375
1075 1 49.0311 9.95287 488 59.4447 1108.02 528.041
1076 0 49.1166 10.0984 496 59.7177 1108.4 526.268
1077 0 52.0984 10.5378 549 60.1148 1108.53 523.618
1078 0 51.0464 9.42279 481 62.183 1108.36 522.732
1079 0 55.1266 12.2627 676 58.503 1108.47 520.713
1080 0 56.1581 10.6841 600 60.4217 1108.34 521.727
1081 0 58.0665 10.0574 584 60.4161 1108.15 521.286
1082 0 61.028 12.2403 747 58.3507 1108.33 518.617
1083 0 62.0832 11.2591 699 59.2275 1108.23 519.353
1084 0 62.0868 10.888 676 59.4556 1107.78 519.342
1085 0 63.149 9.89723 625 60.9952 1107.55 517.475
1086 0 65.1224 11.179 728 59.3681 1107.61 515.036
1087 0 69.0834 12.0868 835 58.1258 1108.56 514.564
1088 0 68.0651 10.6369 724 60.0138 1108.34 511.446
1089 0 72.171 12.0547 870 58.092 1107.77 510.615
1090 0 72.0807 10.627 766 59.795 1108.5 512.594
1091 0 76.0467 11.9532 909 58.3553 1108.46 511.53
1092 0 78.0638 11.3241 884 58.8201 1108.85 507.135
1093 0 80.1248 11.6318 932 58.1137 1107.92 509.771
1094 0 82.0789 12.025 987 57.3607 1108.18 510.459
1095 0 86.082 12.4997 1076 56.9303 1109.54 505.138
1096 0 88.1128 12.2116 1076 57.7639 1108.73 504.453
1097 0 92.1112 12.3872 1141 57.0368 1107.75 501.687
1098 1 53.0755 10.9467 581 55.7866 1108.08 525.127
1099 0 52.0397 10.4343 543 56.5488 1108.06 523.921
1100 0 54.0273 11.8829 642 55.4782 1108.26 522.885
1101 0 53.0632 12.2872 652 56.3804 1108.39 520.477
1102 0 55.1154 11.739 647 56.6584 1108.09 518.131
1103 0 58.0737 12.7941 743 55.3069 1108.66 518.19
1104 0 60.0785 11.8012 709 56.1721 1107.75 517.85
1105 0 61.1945 12.975 794 54.738 1108.22 518.855
1106 0 63.1374 13.5419 855 54.1474 1108.72 516.428
1107 0 64.0941 15.446 990 52.6313 1108.69 514.136
1108 0 66.1526 12.7281 842 55.348 1108.48 514.363
1109 0 67.1052 13.1436 882 55.585 1108.42 510.884
1110 0 69.1142 12.5155 865 55.985 1108.85 512.218
1111 0 72.1286 12.7966 923 55.1203 1108.85 511.973
1112 0 73.0826 11.9043 870 56.6276 1109.36 508.752
1113 0 75.0659 11.6831 877 57.0604 1109.26 506.794
1114 0 77.1509 11.7173 904 57.5055 1108.82 504.034
1115 0 80.1241 9.93459 796 58.7575 1109.31 507.48
1116 0 84.051 11.9689 1006 57.0795 1109.72 503.1
1117 0 88.1232 12.6074 1111 56.6931 1109.62 501.783
1118 0 89.1533 12.787 1140 56.7868 1108.69 503.011
1119 0 92.1393 12.7524 1175 57.257 1108.64 499.827
1120 1 49.0273 10.7695 528 58.1174 1108.35 523.142
1121 0 51.1694 12.1362 621 57.256 1108.74 521.454
1122 0 51.0367 11.6583 595 58.7143 1109.31 520.834
1123 0 53.0255 10.4478 554 59.9224 1108.99 519.254
1124 0 56.0792 14.4082 808 55.9505 1109.06 518.502
1125 0 55.0435 10.7188 590 59.8966 1109.15 519.717
1126 0 55.0371 11.1924 616 60.2224 1109.89 516.831
1127 0 60.1103 12.4105 746 58.3003 1109.07 516.995
1128 0 60.0796 11.0021 661 60.8593 1109.25 514.071
1129 0 62.1372 11.1688 694 60.036 1109.32 515.133
1130 0 65.0608 12.2347 796 59.8304 1108.58 511.822
1131 0 65.1338 10.9774 715 60.993 1108.53 512.373
1132 0 68.0866 12.3079 838 59.8174 1108.33 509.604
1133 0 73.1397 12.0318 880 59.567 1108.38 510.872
1134 0 75.0431 11.4867 862 60.7274 1108.73 507.891
1135 0 78.0799 12.8714 1005 59.2746 1109.17 508.242
1136 0 79.1459 10.9165 864 61.919 1108.53 505.515
1137 1 38.0364 9.20171 350 62.7114 1108.57 526.751
1138 0 42.0429 10.0136 421 61.3468 1108.34 526.283
1139 0 42.0168 9.9246 417 62.7146 1109.23 525.134
1140 0 46.1191 10.8632 501 61.0898 1109.23 527.17
1141 0 48.0895 12.6223 607 59.7315 1109.6 524.944
1142 0 47.023 12.6746 596 60.7332 1109.12 522.418
1143 0 49.0884 12.6506 621 60.6602 1108.83 523.634
1144 0 53.055 13.7216 728 59.9602 1109.09 519.875
1145 0 50.0662 8.92819 447 66.3378 1108.53 520.944
1146 0 53.0716 11.7577 624 62.3702 1108.5 524.954
1147 0 54.0586 11.8205 639 64.0188 1108.78 522.116
1148 0 57.1619 11.6861 668 65.0404 1109.25 520.838
1149 0 59.0484 11.3805 672 65.381 1109.36 520.543
1150 0 60.0276 12.4443 747 65.1098 1109.23 518.478
1151 0 62.1036 12.608 783 65.3793 1108.93 518.152
1152 0 62.0512 11.7 726 67.2879 1108.82 518.326
1153 0 67.0564 12.9443 868 64.8353 1109.33 518.267
1154 0 68.19 12.0399 821 67.4945 1109.94 515.826
1155 0 71.1418 12.707 904 66.8706 1109.18 512.906
1156 0 74.0774 12.8784 954 67.0262 1108.85 511.668
1157 0 75.1014 11.7441 882 68.7392 1108.89 512.74
1158 1 37.0624 12.6813 470 66.1851 1108.48 528.943
1159 0 39.0217 14.3766 561 64.7558 1108.84 528.034
1160 0 41.0209 11.677 479 67.6701 1108.98 528.261
1161 0 42.0452 11.4639 482 68.973 1109.27 528.45
1162 0 41.0816 12.9255 531 67.6912 1109.1 526.627
1163 0 42.0187 11.3521 477 71.8365 1109.52 526.828
1164 0 42.0212 11.4228 480 71.525 1109.26 527.452
1165 0 46.0563 12.3327 568 69.3627 1108.97 527.819
1166 0 47.0376 12.5006 588 69.9354 1109.04 524.638
1167 0 50.0931 12.5766 630 69.6968 1109.48 524.825
1168 0 50.0511 11.5682 579 70.9655 1109.37 524.832
1169 0 53.0379 12.0668 640 70.0766 1109.32 522.916
1170 0 53.1312 12.4974 664 69.9247 1108.79 521.72
1171 0 56.0692 11.9317 669 69.7653 1108.96 523.401
1172 0 57.0306 12.2741 700 70.0714 1108.94 520.077
1173 0 59.0352 12.213 721 70.6269 1108.94 518.25
1174 0 60.1539 14.8286 892 67.0392 1109.18 518.158
1175 0 61.0628 11.873 725 71.2828 1108.95 515.956
1176 0 64.1398 11.9582 767 70.7119 1108.96 516.773
1177 0 65.0815 12.0464 784 70.5115 1109.96 516.934
1178 0 68.056 11.5934 789 71.2015 1109.2 515.754
1179 0 70.0588 12.4467 872 69.7362 1109.14 514.969
1180 0 72.079 12.8193 924 69.6948 1108.6 512.336
1181 1 40.0243 12.0177 481 69.1684 1108.83 528.27
1182 0 41.0214 11.0187 452 71.2301 1108.97 528.409
1183 0 43.0875 11.2562 485 71.0515 1109.14 527.66
1184 0 42.0176 10.5194 442 72.8688 1109.25 525.778
1185 0 46.054 12.0294 554 69.0271 1109.25 526.466
1186 0 43.0439 11.1979 482 72.6639 1108.83 524.865
1187 0 46.0887 9.89396 456 72.5899 1109.03 526.713
1188 0 48.0469 10.7603 517 72.3598 1109.27 524.414
1189 0 51.0773 12.8237 655 69.0321 1108.94 524.159
1190 0 51.0827 12.1763 622 70.5659 1109.36 522.725
1191 0 53.078 11.4548 608 71.9227 1109.55 519.956
1192 0 53.0756 11.4177 606 71.9521 1109.44 521.129
1193 0 55.0223 11.2318 618 72.0227 1109.55 520.047
1194 0 58.0424 12.5253 727 69.4608 1109.81 519.267
1195 0 59.0754 11.3414 670 70.8731 1109.22 519.702
1196 0 61.1053 11.8811 726 70.4366 1109.01 516.493
1197 0 64.0557 12.9575 830 69.4687 1109.18 514.871
1198 0 66.1898 12.7059 841 68.6052 1108.78 517.112
1199 0 67.0513 11.9759 803 70.1395 1108.95 516.198
1200 0 70.0829 13.2272 927 68.2837 1109.02 515.088
1201 0 71.0521 11.386 809 70.8826 1109.08 514.318
1202 0 73.0925 13.5855 993 68.2417 1109.64 512.349
1203 0 76.0466 12.2425 931 70.5585 1109.29 510.813
1204 0 79.1355 12.586 996 69.6556 1109.35 510.408
1205 0 82.0918 12.3277 1012 70.5099 1109.88 508.725
1206 0 84.1074 12.9953 1093 69.4565 1108.6 508.109
1207 0 86.0762 12.5238 1078 71.256 1109.03 504.788
1208 1 41.0135 11.2158 460 73.2391 1109.88 526.613
1209 0 44.0245 11.0847 488 72.1045 1109.84 527.117
1210 0 47.0243 11.1432 524 70.8569 1109.29 527.842
1211 0 47.0352 12.0761 568 71.4842 1108.93 523.773
1212 0 49.0197 10.7916 529 73.5406 1109.85 523.786
1213 0 50.0709 13.7405 688 69.8605 1109 521.677
1214 0 50.0259 12.3536 618 72.1408 1109.28 520.966
1215 0 54.0367 12.51 676 71.0207 1109.99 521.544
1216 0 54.0886 12.8863 697 70.2037 1109.88 521.925
1217 0 59.0682 12.9511 765 69.4889 1110.09 520.89
1218 0 58.0706 12.192 708 71.5254 1109.97 518.516
1219 0 60.0396 13.1746 791 70.4918 1109.85 517.626
1220 0 63.1224 13.2124 834 69.0755 1109.96 518.067
1221 0 64.0779 12.438 797 70.5182 1110.24 517.221
1222 0 65.0416 12.2691 798 71.1942 1109.19 516.143
1223 0 66.0907 11.802 780 71.8885 1109.88 514.731
1224 0 69.0594 11.9897 828 71.0157 1110.62 513.566
1225 0 70.163 13.3974 940 69.6734 1110.19 509.77
1226 0 74.1097 13.4126 994 68.7958 1109.91 510.234
1227 0 74.0483 12.6404 936 70.7575 1109.96 509.631
1228 0 77.0849 11.7533 906 71.3366 1109.29 508.392
1229 0 80.1006 12.2346 980 70.7847 1108.94 507.019
1230 0 84.1465 13.3339 1122 69.2638 1109.95 505.531
1231 0 86.0478 13.0393 1122 69.2772 1109.84 506.803
1232 0 87.2017 12.9241 1127 69.9246 1109.58 504.772
1233 0 88.1151 11.3147 997 72.6981 1109.35 502.627
1234 0 93.1285 11.7902 1098 72.0938 1109.61 502.589
1235 0 96.1778 13.1007 1260 70.6064 1109.49 500
1236 1 49.0683 11.7387 576 71.25 1109.62 518.74
1237 0 51.068 12.1994 623 70.7705 1110.15 519.334
1238 0 53.0833 10.4553 555 71.8 1109.45 520.189
1239 0 51.0608 10.3406 528 72.089 1109.53 521.53
1240 0 56.062 11.5943 650 70.0538 1109.15 518.618
1241 0 56.0908 12.5867 706 68.83 1109.1 518.023
1242 0 55.1169 8.74505 482 74.7137 1109.66 514.927
1243 0 62.1182 11.1079 690 70.958 1110 514.178
1244 0 63.1238 10.8358 684 71.8304 1109.29 513.887
1245 0 64.0662 10.8169 693 70.9307 1109.3 513.734
1246 0 69.0869 11.5072 795 69.2918 1109.23 512.786
1247 0 70.0324 12.5942 882 67.9864 1109.88 510.797
1248 0 70.081 10.1882 714 71.486 1109.54 509.751
1249 0 74.1362 11.4114 846 70.1135 1109.61 506.648
1250 0 76.1376 11.2559 857 70.1307 1109.75 508.89
1251 0 79.0834 11.7724 931 69.8131 1109.81 504.644
1252 0 80.1063 10.9355 876 71.1552 1110.13 504.91
1253 0 85.057 11.1102 945 70.1873 1109.95 504.431
1254 1 42.0199 10.0667 423 68.6738 1109.06 524.168
1255 0 45.0787 12.334 556 64.054 1109.17 526.685
1256 0 46.1445 11.5723 534 65.809 1109.68 525
1257 0 45.0319 9.94851 448 68.0938 1109.24 523.348
1258 0 47.0262 11.0364 519 66.2466 1109.17 522.709
1259 0 50.0805 10.9823 550 65.7618 1108.9 522.404
1260 0 51.072 9.73136 497 67.5795 1109.08 520.761
1261 0 54.1149 12.1593 658 64.3192 1109.36 517.869
1262 0 52.0434 9.54973 497 67.9799 1109.34 518.01
1263 0 56.0614 11.3447 636 64.8129 1109.44 518.539
1264 0 58.0851 11.2593 654 64.6208 1108.86 517
1265 0 60.0732 11.5526 694 64.0807 1109.49 518.246
1266 0 63.0486 11.7211 739 63.6414 1109.37 517.617
1267 0 63.0643 11.0046 694 65.4784 1109.56 512.421
1268 0 65.13 11.6536 759 64.3373 1109.51 514.877
1269 0 69.1135 11.633 804 64.1343 1108.98 512.97
1270 0 71.0632 11.1309 791 64.8812 1108.34 512.078
1271 0 74.0901 10.4332 773 64.6119 1108.24 512.991
1272 0 72.0267 10.8571 782 66.1534 1108.74 508.96
1273 0 76.0898 12.3275 938 63.9104 1109.37 505.638
1274 0 78.1309 10.7896 843 66.0237 1108.89 505.968
1275 0 82.1835 10.5861 870 66.3115 1109.57 506.667
1276 0 85.2582 11.3537 968 65.3905 1109.6 503.476
1277 1 45.0186 8.57423 386 67.1917 1110.35 521.42
1278 0 47.0701 8.60419 405 66.484 1109.16 524.217
1279 0 50.0249 11.0745 554 63.7274 1109.33 521.736
1280 0 51.0819 9.94481 508 65.9468 1109.76 519.894
1281 0 54.039 10.4924 567 64.9453 1109.37 519.023
1282 0 54.1015 10.0737 545 65.9651 1108.74 516.45
1283 0 58.1671 11.4842 668 62.9536 1109.48 518.046
1284 0 57.1176 9.52421 544 66.1176 1109.86 518.09
1285 0 60.1078 10.4146 626 65.1965 1109.22 514.021
1286 0 60.0804 11.3015 679 64.43 1109.23 514.345
1287 0 63.114 10.7425 678 64.326 1110.31 514.678
1288 0 62.0573 10.5548 655 65.8687 1110.17 512.237
1289 0 67.0505 10.4101 698 65.2507 1109.82 511.158
1290 0 70.0415 13.749 963 60.621 1109.57 512.251
1291 0 72.103 12.0661 870 63.092 1109.52 509.115
1292 0 73.0673 11.8247 864 63.8611 1109.48 507.309
1293 0 74.1862 11.525 855 63.9415 1108.79 507.247
1294 0 79.138 12.0423 953 63.063 1109.56 503.312
1295 0 81.1554 11.1268 903 63.8749 1108.3 501.833
1296 0 85.0775 12.8353 1092 61.6767 1109.16 504.492
1297 0 87.0396 12.1439 1057 62.2886 1109.28 505.528
1298 0 87.1228 11.0189 960 64.2677 1109.51 501.988
1299 0 93.0797 12.9029 1201 61.607 1109.56 500.625
1300 1 49.024 10.3623 508 62.3091 1109.88 524.028
1301 0 53.0876 12.3758 657 60.6651 1109.48 521.096
1302 0 52.0437 12.4126 646 62.0418 1109.79 520.121
1303 0 56.1324 12.613 708 61.5099 1109.56 520.076
1304 0 55.0736 10.604 584 65.1079 1109.42 518.115
1305 0 57.0331 12.4314 709 62.1354 1109.93 521.164
1306 0 58.1315 10.5967 616 65.6006 1109.36 518.536
1307 0 58.1169 10.8402 630 65.6968 1109.4 516.684
1308 0 62.1022 11.8192 734 63.1308 1109.46 518.967
1309 0 64.0319 12.4782 799 62.4756 1109.59 514.717
1310 0 65.0533 12.1131 788 63.0228 1109.59 514.961
1311 0 65.0672 10.8657 707 65.4922 1109.66 513.44
1312 0 69.1528 13.2171 914 61.9114 1110.1 513.568
1313 0 71.0589 12.7922 909 62.5468 1110.01 513.163
1314 0 72.084 12.638 911 62.618 1109.05 511.986
1315 0 75.0504 11.5522 867 63.797 1109.5 512.062
1316 0 77.1103 14.5117 1119 60.5952 1108.94 509.811
1317 0 79.1617 11.6091 919 64.0696 1109.01 510.137
1318 0 82.0876 13.3638 1097 61.8323 1109.26 507.497
1319 0 83.1279 13.3289 1108 62.5451 1109.77 506.538
1320 0 86.077 12.1984 1050 63.6638 1109.27 504.597
1321 1 44.0584 11.167 492 63.4228 1109.61 524.957
1322 0 46.0514 11.3569 523 63.0994 1108.87 525.468
1323 0 49.0833 12.3871 608 62.5181 1109.16 523.806
1324 0 52.0407 12.2788 639 61.9593 1109.37 522.721
1325 0 51.0404 11.0109 562 64.3381 1109.38 521.174
1326 0 55.026 10.8676 598 63.7174 1109.06 523.722
1327 0 53.0716 11.72 622 63.7685 1110.05 520.651
1328 0 56.0951 9.9474 558 64.4892 1109.8 520.808
1329 0 56.0682 12.8772 722 61.4834 1110.4 517.526
1330 0 60.0874 11.5498 694 62.8501 1109.62 517.666
1331 0 61.1425 11.1379 681 62.8106 1108.98 516.294
1332 0 65.052 12.5131 814 60.731 1109.83 517.254
1333 0 65.0931 12.3054 801 61.1473 1110.02 517.985
1334 0 69.098 13.8644 958 59.7276 1109.9 515.722
1335 0 69.0697 12.1182 837 62.2139 1109 513.294
1336 0 69.0873 10.7979 746 63.6166 1109.59 512.064
1337 0 73.1239 10.9403 800 62.8762 1109.36 512.706
1338 0 77.1508 11.7303 905 61.5271 1108.77 510.415
1339 0 79.1132 12.4505 985 61.1188 1108.73 507.797
1340 0 80.045 11.3686 910 62.4615 1109.45 509.341
1341 1 42.0276 9.35099 393 61.8804 1109.06 526.387
1342 0 44.0256 9.42634 415 61.5976 1109.27 526.764
1343 0 45.0319 10.7257 483 61.0145 1109.33 526.977
1344 0 45.0728 9.45137 426 62.284 1109.48 526.556
1345 0 48.0639 10.9646 527 61.2524 1108.44 525.626
1346 0 50.0539 10.8883 545 61.9101 1108.6 522.787
1347 0 49.0763 9.80106 481 63.7713 1109.12 523.019
1348 0 52.0252 10.6871 556 61.9946 1109.64 524.191
1349 0 53.0553 11.5728 614 61.943 1109.24 521.127
1350 0 54.0534 9.78661 529 64.1474 1109.18 518.9
1351 0 53.0163 11.9775 635 62.2803 1108.55 520.162
1352 0 55.0434 10.7733 593 63.1771 1109.63 517.514
1353 0 57.0545 12.6896 724 60.9116 1108.48 517.106
1354 0 61.0762 12.1651 743 60.9919 1109.23 517.623
1355 0 63.0814 12.9832 819 60.1954 1109.24 513.368
1356 0 65.0475 12.5754 818 60.8888 1108.63 514.318
1357 0 68.0796 12.4119 845 60.3834 1108.72 513.62
1358 0 67.0989 13.4577 903 60.0144 1109.17 513.874
1359 0 70.0817 10.9729 769 62.5032 1109.38 510.802
1360 0 74.0443 10.7098 793 62.1652 1109.82 511.966
1361 0 76.0593 12.1747 926 61.1469 1109.42 510.849
1362 0 79.1239 11.1218 880 62.1636 1108.68 509.747
1363 0 79.0651 11.4083 902 62.0765 1108.42 506.959
1364 0 84.13 11.6368 979 61.6834 1108.85 507.469
1365 1 44.031 11.015 485 60.9196 1108.68 525.893
1366 0 48.0163 10.3923 499 60.8938 1108.52 524.134
1367 0 48.0697 11.6706 561 61.0232 1109.29 522.339
1368 0 49.0982 9.2875 456 64.1404 1108.88 523.564
1369 0 52.0975 12.7069 662 60.8822 1108.88 519.527
1370 0 54.0596 11.0249 596 63.3909 1109.08 520.827
1371 0 55.0612 11.6234 640 63.1078 1108.85 518.609
1372 0 56.1208 11.9742 672 63.4256 1109.13 517.958
1373 0 59.0509 12.2437 723 62.6418 1108.36 519.433
1374 0 61.068 11.4135 697 63.3286 1107.87 518.186
1375 0 63.0424 12.4043 782 62.7558 1108.33 516.303
1376 0 64.0675 12.6117 808 63.3416 1108.03 514.921
1377 0 66.0368 12.0387 795 63.7635 1108.26 513.999
1378 0 68.0404 12.3309 839 62.9928 1108.78 515.315
1379 0 69.0541 13.1636 909 61.7459 1108.66 513.835
1380 0 73.043 12.0203 878 62.8895 1108.62 512.085
1381 0 75.3612 13.2827 1001 61.2488 1109.02 510.49
1382 0 75.0695 12.0688 906 63.1987 1108.72 507.636
1383 0 80.0618 14.0267 1123 60.2288 1108.83 509.316
1384 0 82.1618 11.9399 981 62.895 1108.98 508.147
1385 0 86.1099 13.0066 1120 61.4161 1109.28 508.737
1386 1 45.0099 9.86451 444 64.5135 1109.48 525.989
1387 0 46.0152 10.3009 474 64.0021 1109.19 524.979
1388 0 46.0701 11.6127 535 62.7364 1110 525.632
1389 0 49.03 12.013 589 62.4992 1109.66 523.307
1390 0 50.0677 11.7441 588 62.7687 1109.7 523.293
1391 0 51.0441 11.0101 562 63.8256 1108.37 521.429
1392 0 51.0357 10.6592 544 65.2022 1108.32 519.724
1393 0 53.0836 11.7927 626 63.5607 1109.14 519.486
1394 0 55.0531 10.9531 603 63.9818 1108.87 521
1395 0 56.0703 11.4677 643 63.5226 1108.93 518.361
1396 0 60.0893 12.9807 780 60.5897 1108.28 516.349
1397 0 61.035 12.0095 733 61.6958 1109.19 518.694
1398 0 62.0923 12.2881 763 61.3237 1108.67 517.518
1399 0 65.0595 11.989 780 61.659 1108.64 516.455
1400 0 67.1052 12.7263 854 60.3466 1108.77 514.439
1401 0 67.0295 11.7113 785 62.2 1108.9 514.028
1402 0 69.0686 11.8288 817 62.0098 1109.06 513.794
1403 0 73.0763 13.438 982 59.5978 1108.5 513.298
1404 0 77.0781 13.3371 1028 59.7383 1108.88 509.879
1405 0 78.1423 13.1811 1030 59.8961 1108.54 511.666
1406 0 81.2031 11.933 969 61.7183 1108.29 508.258
1407 0 84.153 12.0138 1011 61.9525 1107.82 505.09
1408 0 86.1235 12.0525 1038 62.0116 1108.06 504.034
1409 1 43.1184 10.274 443 63.4334 1108.95 526.336
1410 0 45.0235 9.8393 443 62.851 1108.99 527.93
1411 0 48.0414 11.4276 549 61.2477 1109.29 525.594
1412 0 48.0817 10.3574 498 62.8775 1108.67 526.141
1413 0 51.0586 11.9471 610 61.841 1108.84 522.116
1414 0 53.056 10.9507 581 62.895 1108.72 523.065
1415 0 54.1388 11.4336 619 62.7512 1108.63 522.258
1416 0 55.03 11.6119 639 62.5962 1109.65 522.077
1417 0 56.0633 11.5405 647 62.8516 1108.96 521.558
1418 0 59.0498 11.6512 688 62.1105 1108.59 519.923
1419 0 61.2066 12.417 760 60.9342 1108.62 520.157
1420 0 61.0525 10.45 638 63.9185 1108.8 518.561
1421 0 62.0405 11.8149 733 62.925 1109.41 514.909
1422 0 65.0685 10.5427 686 64.0598 1109.42 516.978
1423 0 68.142 11.5934 790 63.1658 1108.7 514.729
1424 0 72.0919 12.4702 899 61.7086 1109.9 514.301
1425 0 73.0664 11.1679 816 64.2684 1109.88 513.165
1426 0 75.139 11.5652 869 64.0967 1109.39 508.948
1427 0 76.1592 12.2244 931 63.464 1109.2 507.799
1428 0 78.1821 11.2302 878 65.1595 1109.76 505.732
1429 0 82.1012 12.0218 987 63.7315 1109.51 505.384
1430 0 85.1043 10.7398 914 65.4497 1109.83 505.625
1431 1 44.0168 10.4051 458 64.1987 1109.85 526.485
1432 0 45.1046 10.3981 469 64.5586 1110 524.437
1433 0 48.06 9.82106 472 65.4979 1109.68 524.08
1434 0 49.0504 10.8664 533 64.0657 1109.74 523.212
1435 0 51.0286 11.6601 595 63.2672 1110.07 522.738
1436 0 51.0828 9.82718 502 65.5259 1109.97 522.53
1437 0 53.0894 10.4164 553 65.3128 1109.29 521.942
1438 0 54.055 10.7298 580 65.1741 1109.97 519.674
1439 0 56.0228 10.8527 608 64.4655 1109.78 516.812
1440 0 60.1351 11.9065 716 62.7304 1109.3 517.765
1441 0 59.0882 9.73121 575 65.56 1109 518.252
1442 0 61.1809 10.7877 660 64.053 1108.48 517.185
1443 0 65.1364 10.9309 712 62.9396 1108.98 516.074
1444 0 66.0819 12.6661 837 60.8626 1108.98 514.239
1445 0 67.0868 11.9845 804 61.5298 1108.91 515.77
1446 0 69.0629 9.97641 689 63.7808 1108.9 514.775
1447 0 74.0832 13.2149 979 59.5904 1109.53 511.865
1448 0 75.1335 11.1002 834 61.8753 1109.23 511.988
1449 0 76.276 10.0687 768 63.4219 1108.66 512.301
1450 0 79.0873 12.4925 988 60.4393 1109.6 511.758
1451 0 81.129 11.9809 972 61.7706 1108.78 507.112
1452 0 84.1353 10.8753 915 62.3093 1109.37 505.454
1453 0 86.1184 10.2185 880 62.7511 1108.51 507.451
1454 1 48.0772 10.9199 525 60.5219 1108.8 524.469
1455 0 46.0161 9.08377 418 63.3923 1109.41 521.352
1456 0 51.0452 10.0891 515 60.6893 1109.59 523.216
1457 0 53.0411 10.1619 539 60.8924 1109.18 521.473
1458 0 52.0372 10.7039 557 60.8187 1109.29 520.246
1459 0 56.0981 11.7295 658 58.9119 1109.54 520.611
1460 0 57.0397 9.81772 560 61.2286 1110.08 518.4
1461 0 60.0982 11.0486 664 59.6054 1109.71 516.577
1462 0 62.0194 11.7544 729 59.2277 1110.01 515.202
1463 0 63.0346 11.0574 697 60.2956 1109.96 513.496
1464 0 65.0241 11.0113 716 59.8548 1109.63 514.743
1465 0 69.0475 11.5283 796 59.3932 1110.18 512.143
1466 0 70.0655 12.5739 881 57.6493 1109.42 512.343
1467 0 73.1272 12.7449 932 57.5676 1109.23 509.469
1468 0 75.0822 11.0679 831 59.2623 1109.32 509.29
1469 0 77.1008 12.0232 927 57.9601 1109.38 510.159
1470 0 78.0942 10.9355 854 59.3009 1109.54 507.429
1471 0 80.0862 11.1255 891 59.3558 1109.19 507.244
1472 0 85.0898 10.9414 931 59.2288 1109.56 506.172
1473 0 86.1702 10.6649 919 59.8988 1108.9 502.813
1474 1 49.0685 9.47654 465 58.9699 1108.98 525.284
1475 0 49.0324 8.8105 432 60.1181 1109.6 524.729
1476 0 51.0633 9.08676 464 59.5884 1109.53 524.75
1477 0 52.0896 9.54125 497 60.2515 1109.36 521.04
1478 0 53.0414 11.1234 590 59.1559 1108.91 518.43
1479 0 55.0264 11.9397 657 58.376 1108.9 518.516
1480 0 57.0515 13.444 767 56.8657 1109.85 518.904
1481 0 57.0374 10.5545 602 60.5266 1108.9 518.344
1482 0 59.078 10.5962 626 60.7396 1109.71 517.351
1483 0 61.0771 12.0667 737 59.2795 1109.65 515.811
1484 0 64.0782 11.2987 724 59.7735 1109.2 515.043
1485 0 65.0474 11.9144 775 59.4336 1108.96 513.859
1486 0 67.0504 12.1849 817 59.3807 1109.09 513.027
1487 0 73.0834 12.9168 944 57.8792 1109.06 514.564
1488 0 72.0629 12.1977 879 59.7236 1108.93 511.238
1489 0 73.1952 12.1183 887 60.0417 1109.35 511.161
1490 0 77.161 11.7935 910 59.8516 1109.3 511.197
1491 0 77.0444 12.7329 981 59.4128 1109.12 511.61
1492 0 80.0864 12.7113 1018 59.835 1108.75 509.881
1493 0 84.2443 11.8346 997 61.0842 1108.72 505.138
1494 0 89.2063 12.118 1081 60.6568 1108.54 505.769
1495 0 87.1298 10.8 941 63.5186 1109.01 503.968
1496 0 95.2368 12.5267 1193 60.3428 1108.56 502.928
1497 1 51.0317 9.5039 485 61.3505 1108.85 523.654
1498 0 53.0135 9.29951 493 59.4199 1108.74 527.718
1499 0 55.0731 10.2954 567 60.2681 1108.87 523.099
1500 0 56.0672 10.862 609 60.0016 1108.83 520.268
1501 0 58.0762 11.02 640 59.3156 1108.38 519.655
1502 0 62.0542 12.5535 779 57.611 1109.23 519.087
1503 0 59.0378 10.705 632 60.0744 1108.65 517.489
1504 0 65.0937 11.7216 763 58.405 1108.53 516.222
1505 0 65.0616 9.89831 644 60.1739 1108.91 516.39
1506 0 69.1946 11.7928 816 57.4865 1109.02 514.949
1507 0 69.1027 11.2441 777 58.7181 1109.07 513.8
1508 0 71.1434 12.2991 875 57.4697 1109.19 512.701
1509 0 75.1595 11.4157 858 58.4394 1109.09 508.915
1510 0 76.1798 12.6543 964 57.1286 1108.07 509.295
1511 0 78.0542 11.9276 931 57.7594 1109.29 510.583
1512 0 81.2836 11.4906 934 57.9679 1108.81 509.07
1513 0 83.1632 12.1328 1009 57.9276 1108.82 504.962
1514 0 84.1735 11.1793 941 58.9958 1108.79 505.968
1515 0 91.1344 12.0481 1098 57.7122 1108.6 506.134
1516 0 89.0641 10.9921 979 60.189 1108.97 501.128
1517 0 97.0338 14.9432 1450 55.2779 1109.44 501.919
1518 0 97.1064 11.8736 1153 59.667 1109.26 498.184
1519 1 52.1308 10.6271 554 59.0668 1108.75 522.246
1520 0 54.0696 11.2818 610 59.9312 1108.44 518.448
1521 0 56.0438 11.5445 647 59.2488 1108.6 520.674
1522 0 56.0335 11.7073 656 59.6357 1109.88 519.976
1523 0 57.0546 11.6029 662 60.0755 1109.42 519.039
1524 0 61.124 12.172 744 59.2312 1109.03 517.543
1525 0 62.104 12.157 755 59.5576 1109.56 515.656
1526 0 61.1084 10.3914 635 61.7244 1109.15 516.26
1527 0 66.2311 13.0905 867 57.9089 1109.17 516.223
1528 0 67.0597 11.8402 794 59.9257 1109.23 513.429
1529 0 68.0921 11.8222 805 59.6683 1108.98 514.653
1530 0 70.1805 11.6699 819 60.5873 1109.16 512.243
1531 0 72.1332 10.8688 784 61.5625 1109.08 510.63
1532 0 75.2745 12.5275 943 59.018 1108.92 512.363
1533 0 79.0789 15.1115 1195 56.0008 1109.57 510.195
1534 0 79.0745 12.3681 978 59.2434 1109.12 507.354
1535 0 83.0724 11.508 956 59.6883 1108.85 509.544
1536 0 83.1428 12.5808 1046 59.8556 1109.31 505.175
1537 0 87.158 11.5996 1011 60.3383 1109.72 504.802
1538 0 91.1491 11.9584 1090 59.755 1109.36 504.041
1539 1 50.1282 11.9494 599 58.2888 1109.17 523.811
1540 0 52.1157 11.5512 602 58.7542 1108.88 522.454
1541 0 53.0585 10.1398 538 60.2175 1108.59 522.093
1542 0 53.068 10.7975 573 60.2722 1108.78 520.538
1543 0 56.0563 12.0415 675 58.8696 1109.23 519.479
1544 0 55.0143 11.4879 632 60.4557 1109.38 518.964
1545 0 57.0869 10.3001 588 61.4405 1109.35 518.338
1546 0 60.1017 10.7817 648 60.9012 1109.06 517.025
1547 0 63.0717 11.7802 743 59.6797 1109.13 515.999
1548 0 64.0742 11.7832 755 59.8384 1108.86 513.762
1549 0 66.056 12.9587 856 58.9194 1109.03 512.954
1550 0 69.1415 11.5271 797 59.9661 1109.37 515.287
1551 0 70.1096 12.8941 904 59.0885 1109.32 513.021
1552 0 71.0934 11.3091 804 60.9689 1109.61 510.387
1553 0 73.1101 11.4348 836 60.9605 1109.65 510.722
1554 0 76.1011 11.8921 905 60.0265 1108.66 509.417
1555 0 80.2173 11.6683 936 60.4893 1108.58 508.125
1556 0 82.2634 13.0313 1072 58.9599 1108.38 508.421
1557 0 83.2085 12.1742 1013 59.693 1108.32 509.261
1558 0 87.0858 12.8494 1119 59.6104 1108.95 503.723
1559 0 88.1161 11.8707 1046 61.066 1109.1 502.1
1560 0 91.1329 10.2268 932 62.4603 1108.56 503.614
1561 1 49.09 10.1854 500 61.67 1109.36 524.168
1562 0 51.09 11.8223 604 60.1474 1108.36 521.535
1563 0 51.0771 10.9442 559 61.6977 1108.57 519.776
1564 0 54.0872 10.1873 551 61.4084 1108.58 522.368
1565 0 56.0392 10.4927 588 61.7194 1108.99 519.08
1566 0 54.0375 11.3625 614 62.4234 1108.21 516.621
1567 0 57.0859 12.9454 739 59.9202 1108.42 519.846
1568 0 61.0907 11.5075 703 61.8777 1108.41 516.908
1569 0 63.0929 10.651 672 62.4509 1108.19 517.51
1570 0 62.0299 10.9947 682 62.563 1108.59 515.15
1571 0 66.0898 11.5298 762 61.752 1108.73 512.352
1572 0 67.0968 11.9678 803 61.076 1109.14 513.763
1573 0 67.1549 10.6917 718 62.6922 1108.44 513.013
1574 0 73.1105 11.5031 841 60.7027 1108.09 510.692
1575 0 73.189 10.8623 795 62.3686 1108.23 509.643
1576 0 76.2608 11.8803 906 61.298 1108.3 508.816
1577 0 79.0813 11.6336 920 61.7163 1108.37 508.227
1578 0 82.0611 11.3574 932 62.1953 1108.41 507.712
1579 0 84.1093 10.9738 923 63.1246 1108.58 503.459
1580 1 42.0734 10.6243 447 60.8367 1108.61 527.492
1581 0 45.0305 10.2597 462 61.7554 1108.49 524.851
1582 0 46.0724 9.2029 424 62.9269 1108.21 524.965
1583 0 47.0261 10.441 491 62.4786 1109.09 522.415
1584 0 50.042 10.3313 517 62.5029 1108.61 521.992
1585 0 52.0769 10.6765 556 62.1331 1108.87 519.829
1586 0 54.0852 11.3894 616 60.6688 1108.65 521.302
1587 0 54.0347 9.82702 531 63.162 1108.48 520.26
1588 0 56.0878 9.1642 514 64.465 1108.35 517.698
1589 0 59.1468 11.2939 668 62.0389 1108.51 515.28
1590 0 61.0768 9.20153 562 63.8043 1109.01 517.496
1591 0 64.098 11.5916 743 61.3674 1108.81 514.036
1592 0 66.026 12.3436 815 61.2515 1109.04 512.826
1593 0 67.121 11.0845 744 62.9073 1108.47 512.821
1594 0 70.199 12.3079 864 61.0718 1108.58 511.206
1595 0 70.051 11.5487 809 62.0383 1108.24 511.49
1596 0 75.1824 12.5029 940 60.2351 1107.95 511.87
1597 0 75.0737 11.2023 841 62.3032 1107.31 510.428
1598 0 78.0524 11.6332 908 61.6355 1107.33 509.749
1599 0 82.1713 12.5713 1033 61.0387 1107.99 507.762
1600 0 82.0492 12.7241 1044 61.5987 1108.78 504.858
1601 0 87.0718 12.5529 1093 61.1125 1109.36 506.01
1602 0 87.1048 11.6297 1013 63.0573 1108.43 503.974
1603 0 90.1755 10.7346 968 64.3337 1108.29 499.713
1604 0 96.128 12.036 1157 62.8548 1108.55 500.188
1605 1 49.0483 11.4377 561 62.8182 1108.78 522.086
1606 0 50.0599 10.4075 521 63.8388 1107.86 522.587
1607 0 54.0617 10.562 571 64.2592 1109.16 521.284
1608 0 51.0799 9.98436 510 66.0078 1108.16 520.706
1609 0 56.1098 12.2082 685 62.3854 1108.86 518.834
1610 0 58.1102 11.8396 688 62.2616 1109.06 519.805
1611 0 61.0898 12.5225 765 61.4784 1109.11 516.756
1612 0 61.049 11.8429 723 62.1978 1108.84 517.842
1613 0 62.1087 12.0595 749 62.3191 1108.69 515.919
1614 0 64.0849 12.187 781 62.1997 1109.54 517.369
1615 0 65.0502 11.7909 767 62.7731 1108.64 513.945
1616 0 67.0358 11.3074 758 63.5198 1109.29 513.67
1617 0 71.1276 13.2016 939 61.4058 1109.5 511.971
1618 0 74.1787 12.0924 897 62.2854 1108.9 510.983
1619 0 75.1063 10.9179 820 64.0366 1109.39 510.093
1620 0 80.0512 12.3046 985 62.2162 1109.01 510.439
1621 0 79.0872 11.8477 937 63.5464 1108.98 505.132
1622 0 81.1123 12.4272 1008 63.1161 1109.2 504.891
1623 0 87.0974 12.0555 1050 63.0238 1108.7 504.329
1624 1 47.0458 10.2666 483 64.2712 1109.14 522.014
1625 0 47.0681 10.7079 504 64.3353 1109.51 522.938
1626 0 50.1069 10.8169 542 63.4852 1109.54 522.943
1627 0 49.0337 10.1563 498 65.7831 1109.11 521.167
1628 0 54.0625 10.7283 580 63.8862 1108.76 522.384
1629 0 52.0365 12.0108 625 63.6352 1108.59 520.629
1630 0 55.0144 13.7964 759 61.8142 1108.55 519.686
1631 0 56.0468 12.8643 721 63.2566 1108.19 517.799
1632 0 59.0573 11.9884 708 63.7161 1108.52 517.891
1633 0 58.1318 11.3019 657 65.277 1109.39 517.212
1634 0 62.1241 12.6038 783 63.2542 1109.42 516.238
1635 0 63.0777 11.8584 748 64.5201 1109.51 514.698
1636 0 65.0954 12.9349 842 62.6318 1108.75 516.496
1637 0 66.0402 12.2652 810 65.1074 1109.2 511.114
1638 0 71.0978 13.1509 935 62.815 1109.58 514.66
1639 0 71.062 12.5665 893 64.6338 1109.41 512.008
1640 0 72.0681 12.1829 878 65.5797 1108.97 510.038
1641 0 74.0738 11.691 866 66.0427 1109.23 512.196
1642 0 77.1485 13.2601 1023 63.4516 1109.67 512.728
1643 0 76.0481 11.9793 911 67.213 1108.18 505.885
1644 0 83.0688 12.7124 1056 65.7169 1108.94 507.498
1645 0 83.061 12.9423 1075 66.254 1108.76 505.766
1646 0 87.1165 14.3256 1248 63.9223 1108.63 505.765
1647 1 47.1133 11.6315 548 65.2646 1108.23 526.36
1648 0 49.0668 13.0434 640 63.7422 1108.5 525.734
1649 0 49.0385 12.1537 596 64.9295 1108.88 525.144
1650 0 52.0981 11.3824 593 65.7723 1109.15 524.309
1651 0 53.0951 13.0897 695 64.5065 1108.43 522.052
1652 0 55.0937 11.5077 634 65.4511 1108.18 521.593
1653 0 55.159 11.2402 620 67.0161 1107.87 519.098
1654 0 59.1411 10.6187 628 67.0207 1108.18 520.666
1655 0 59.1053 11.2173 663 66.1855 1108 519.231
1656 0 60.0534 11.7395 705 65.4695 1108.28 517.894
1657 0 62.1436 11.7631 731 65.948 1108.2 515.144
1658 0 65.1222 11.4861 748 65.8596 1108.7 513.492
1659 0 66.0701 10.8218 715 66.421 1108.61 513.73
1660 0 69.0666 12.3938 856 64.7196 1108.41 510.924
1661 0 70.086 10.2874 721 66.6935 1108.35 512.222
1662 0 74.0556 11.6939 866 65.3199 1108.44 510.837
1663 0 77.0832 11.8833 916 65.0993 1109.17 509.183
1664 0 78.135 11.8769 928 65.4871 1108.08 507.412
1665 0 79.0961 12.9842 1027 65.1042 1107.94 505.378
1666 0 83.1709 13.5143 1124 64.4404 1108.44 503.213
1667 0 86.1131 12.6113 1086 65.4641 1108.29 503.471
1668 0 90.1813 12.6634 1142 65.0289 1108.42 503.588
1669 1 46.1887 11.5613 534 65.1198 1108.48 521.313
1670 0 49.0305 10.1977 500 66.136 1108.52 522.574
1671 0 48.05 10.3226 496 66.6512 1108.91 522.044
1672 0 49.084 9.2902 456 67.3421 1108.85 522.217
1673 0 54.0422 11.2505 608 64.7615 1109.03 521.918
1674 0 54.0813 11.3533 614 65.1792 1108.77 520.995
1675 0 54.0739 11.9651 647 64.7264 1108.79 517.747
1676 0 59.0295 11.4519 676 64.3106 1108.7 518.842
1677 0 59.062 11.1916 661 65.407 1108.67 518.74
1678 0 61.0583 13.2824 811 63.1159 1108.51 514.845
1679 0 63.0286 12.4071 782 64.3542 1108.32 515.593
1680 0 63.1331 10.8343 684 66.3246 1108.32 515.124
1681 0 65.1516 9.47022 617 68.3825 1108.44 512.238
1682 0 70.1402 11.6623 818 65.3949 1108.14 513.143
1683 0 73.1968 12.4186 909 64.3135 1108.46 510.25
1684 0 76.1678 12.6956 967 63.667 1107.96 508.455
1685 0 77.0435 11.6947 901 65.3596 1107.98 509.2
1686 0 80.0953 11.4988 921 66.2454 1108.71 505.962
1687 0 82.1233 11.5801 951 66.164 1108.11 506.146
1688 0 87.2184 11.4655 1000 65.692 1107.84 503.814
1689 1 44.0754 11.798 520 64.6192 1107.57 523.171
1690 0 48.0652 11.4844 552 64.7808 1108.16 522.357
1691 0 51.0754 11.1796 571 64.718 1108.73 523.611
1692 0 51.0333 9.9347 507 66.7239 1108.65 522.556
1693 0 52.041 11.0874 577 65.4991 1108.93 520.7
1694 0 55.0749 12.6918 699 63.6595 1108.58 520.621
1695 0 55.0528 11.044 608 65.926 1108.09 518.018
1696 0 57.0692 10.3909 593 66.2496 1108.32 519.621
1697 0 61.0131 11.0632 675 65.003 1108.1 518.733
1698 0 62.0654 12.1163 752 63.2394 1108.8 515.098
1699 0 63.1004 11.0934 700 64.2471 1108.56 515.747
1700 0 65.1517 9.85393 642 66.1324 1108.14 513.419
1701 0 66.028 10.4955 693 65.5007 1109.11 512.779
1702 0 68.0765 11.0023 749 64.777 1108.19 513.499
1703 0 72.0718 9.57379 690 66.3623 1108.24 508.828
1704 0 74.0728 11.3807 843 64.0439 1108.59 510.95
1705 0 77.0495 12.5244 965 62.8518 1107.68 506.718
1706 0 77.0458 11.3569 875 65.0777 1108.72 505.505
1707 0 83.0862 12.1801 1012 63.083 1108.22 502.183
1708 0 85.1825 10.9999 937 64.2529 1108.49 499.661
1709 0 90.0691 12.9567 1167 61.2819 1107.69 503.72
1710 0 93.219 11.178 1042 63.1401 1106.96 502.774
1711 0 94.0659 12.9484 1218 61.9475 1107.49 498.278
1712 0 99.1674 13.3108 1320 60.6394 1106.7 500.786
1713 1 57.0526 12.3044 702 60.8348 1107.34 520.641
1714 0 57.0619 10.7427 613 63.0245 1108.27 520.62
1715 0 59.2379 12.492 740 61.1514 1108.34 519.797
1716 0 62.0829 12.3545 767 60.4837 1108.58 521.123
1717 0 62.056 11.9569 742 62.3706 1108.8 516.144
1718 0 65.057 12.881 838 60.7542 1108.36 516.282
1719 0 66.0595 11.2172 741 62.112 1108.67 517.277
1720 0 68.0768 13.6317 928 59.5129 1108.96 511.901
1721 0 71.039 11.9652 850 60.7435 1109.19 514.876
1722 0 72.0868 12.9427 933 60.6024 1109.02 511.27
1723 0 73.109 11.2161 820 61.7585 1108.82 512.81
1724 0 75.0834 11.96 898 61.1114 1108.29 511.607
1725 0 79.1234 13.1946 1044 59.6485 1108.82 510.144
1726 0 80.1002 11.7728 943 61.1951 1108.9 507.882
1727 0 82.0883 10.2329 840 62.8298 1108.99 504.132
1728 0 86.0772 12.2216 1052 60.4952 1108.05 505.668
1729 1 44.0561 10.6455 469 60.8657 1109.03 526.104
1730 0 47.0679 10.8779 512 60.0625 1108.73 526.146
1731 0 47.1865 9.32469 440 61.6545 1108.33 526.448
1732 0 49.0153 11.323 555 60.4883 1108.46 522.822
1733 0 50.0515 12.9267 647 59.3802 1109.13 521.519
1734 0 51.078 11.179 571 60.5919 1109.02 521.525
1735 0 55.0629 12.3132 678 59.1136 1109.05 520.633
1736 0 54.0768 10.8919 589 61.2852 1108.92 518.131
1737 0 58.1087 11.4269 664 60.5437 1109.17 518.033
1738 0 58.0794 11.777 684 60.5848 1107.93 517.289
1739 0 61.0644 11.1522 681 61.116 1109.3 517.347
1740 0 61.0841 11.0995 678 61.7035 1109.52 512.857
1741 0 63.1157 12.5484 792 60.524 1108.49 513.388
1742 0 66.0402 11.9018 786 60.7048 1108.25 513.415
1743 0 67.0459 11.6935 784 61.1952 1108.7 510.634
1744 0 69.0943 12.1428 839 61.1323 1108.57 512.057
1745 0 71.0578 12.2858 873 61.0619 1108.39 509.837
1746 0 74.0877 12.6742 939 59.9979 1109.25 508.956
1747 0 76.0458 10.9802 835 61.5796 1108.52 510.842
1748 0 79.0621 12.0412 952 60.7279 1108.22 507.179
1749 0 83.2047 14.4343 1201 57.9892 1108.62 508.532
1750 0 85.1284 12.0641 1027 60.1334 1109.03 508.676
1751 0 85.0669 11.203 953 61.4764 1109.05 507.165
1752 0 88.1478 12.7853 1127 60.378 1109.36 505.037
1753 0 93.2049 13.2396 1234 59.97 1108.92 500.911
1754 0 94.1176 11.1563 1050 62.1333 1108.78 502.225
1755 0 99.1685 12.7863 1268 60.0402 1109.23 503.429
1756 0 103.185 14.8763 1535 58.4143 1108.74 498.34
1757 0 104.159 12.7017 1323 60.8511 1108.99 501.121
1758 1 49.0224 12.9533 635 60.4898 1109.05 524.77
1759 0 54.06 13.3555 722 59.7036 1108.41 523.291
1760 0 55.0697 13.7099 755 59.5205 1108.24 522.568
1761 0 55.1478 11.2062 618 62.3155 1108.02 522.828
1762 0 59.038 13.2965 785 60.3032 1108.62 521.02
1763 0 59.0826 11.5939 685 62.7547 1108.9 521.418
1764 0 62.1318 12.554 780 61.5795 1108.74 519.947
1765 0 63.1017 13.1058 827 61.4426 1107.88 518.161
1766 0 68.1392 14.4264 983 60.3062 1108.79 516.889
1767 0 65.1239 12.6682 825 63.4667 1108.62 515.616
1768 0 70.0828 14.9537 1048 60.7481 1108.34 513.464
1769 0 69.0467 12.7884 883 63.7656 1108.4 515.024
1770 0 75.0766 14.9847 1125 60.8978 1108.23 513.932
1771 0 76.1831 12.2862 936 64.4647 1107.8 514.126
1772 0 79.1005 12.3134 974 64.7957 1108.17 508.281
1773 0 81.1362 13.0891 1062 64.451 1108.47 510.144
1774 0 83.0854 13.4199 1115 64.0332 1107.67 509.874
1775 0 86.1537 13.5223 1165 64.5185 1108.52 509.12
1776 0 90.0764 14.6764 1322 63.0983 1108.18 506.723
1777 0 92.0941 13.2147 1217 64.9367 1108.61 504.809
1778 1 44.0303 11.0606 487 67.8686 1108.93 529.842
1779 0 45.1682 12.0881 546 66.9158 1108.1 528.189
1780 0 48.1086 13.5942 654 64.8609 1108.09 528.223
1781 0 49.0973 14.6444 719 64.4576 1108.12 527.246
1782 0 51.0645 12.5528 641 67.2886 1108.42 525.14
1783 0 52.0703 14.4804 754 65.1578 1108.75 523.96
1784 0 54.0891 14.3282 775 65.0723 1108.25 524.586
1785 0 58.0668 15.7921 917 62.9171 1107.82 521.998
1786 0 57.052 12.4623 711 67.1055 1107.62 523.143
1787 0 61.0541 12.6281 771 66.8184 1107.97 521.659
1788 0 60.0601 11.988 720 67.9653 1107.75 521.417
1789 0 65.0387 13.2844 864 66.2373 1108.02 519.101
1790 0 67.1206 14.3771 965 65.5109 1108.1 516.556
1791 0 69.0491 13.3528 922 66.6215 1108.51 519.02
1792 0 71.0662 12.8331 912 67.0702 1108.13 516.986
1793 0 73.066 12.6735 926 67.7754 1108.08 515.651
1794 0 77.0485 15.2761 1177 64.2702 1108.43 515.083
1795 0 78.0391 12.9551 1011 68.2176 1107.68 510.557
1796 1 41.0873 13.8729 570 65.6579 1107.98 530.553
1797 0 42.2093 13.2909 561 66.5704 1108.46 531.037
1798 0 42.1288 12.9602 546 68.663 1108.24 527.899
1799 0 45.0512 13.5624 611 67.3404 1107.89 528.977
1800 0 45.0378 12.9891 585 68.2086 1107.61 529.099
1801 0 49.0362 13.5818 666 67.1306 1107.94 527.036
1802 0 49.0641 14.1448 694 67.1037 1108.5 526.36
1803 0 48.0398 12.4272 597 69.8878 1107.81 525.844
1804 0 51.0446 13.2433 676 68.5399 1108.09 524.802
1805 0 52.1461 15.2648 796 66.2563 1107.7 522.687
1806 0 53.0926 14.2016 754 67.821 1107.61 523.837
1807 0 56.0456 11.4193 640 70.6359 1107.77 522.544
1808 0 58.0607 13.417 779 68.294 1108.12 520.601
1809 0 60.0731 13.9663 839 67.8558 1108.48 520.482
1810 0 60.0384 13.9411 837 68.7646 1108.38 518.375
1811 0 64.0347 14.3047 916 67.5666 1108.07 516.91
1812 0 66.0932 14.4644 956 67.3745 1107.72 516.292
1813 0 69.0262 14.0671 971 67.6117 1108 515.019
1814 0 71.074 15.2095 1081 66.0305 1108.38 516.052
1815 0 72.0552 14.2807 1029 67.895 1107.9 513.551
1816 0 75.0618 14.4548 1085 67.5373 1107.8 513.053
1817 0 75.093 13.8229 1038 68.8304 1107.24 513.75
1818 0 78.1071 12.8029 1000 70.329 1108.05 511.859
1819 0 79.1312 13.7114 1085 69.6618 1108.41 510.867
1820 0 83.1421 15.9847 1329 66.5862 1107.56 509.36
1821 0 86.1044 14.0875 1213 69.0791 1107.69 509.547
1822 1 43.0802 12.3491 532 72.1278 1107.48 528.741
1823 0 45.0362 12.6121 568 71.7254 1107.63 526.29
1824 0 47.1861 14.3263 676 69.6154 1107.36 526.407
1825 0 48.0744 13.0631 628 70.8328 1107.6 527.051
1826 0 50.0339 13.351 668 70.9386 1108.24 524.436
1827 0 51.0408 14.1456 722 69.849 1108.08 523.913
1828 0 52.0288 13.3196 693 71.0592 1107.87 524.146
1829 0 54.1211 13.6176 737 70.8005 1108.42 522.807
1830 0 58.0548 13.315 773 70.3092 1108.18 522.276
1831 0 60.1912 15.2514 918 67.2386 1108.12 522.17
1832 0 61.2054 13.4956 826 70.4479 1108.47 520.454
1833 0 62.0974 13.1245 815 71.0577 1108.28 520.27
1834 0 63.0599 14.7796 932 69.1073 1108.02 516.908
1835 0 66.0333 12.7057 839 71.8701 1106.59 517.017
1836 0 70.0714 14.7849 1036 68.4208 1107.85 516.808
1837 0 70.1271 13.7322 963 70.0758 1108.07 514.843
1838 0 72.2597 13.4238 970 70.6753 1107.46 514.552
1839 0 74.1153 12.4806 925 71.6627 1108.18 513.417
1840 0 76.0806 13.7749 1048 70.8263 1108.03 510.412
1841 0 80.1814 14.6792 1177 68.9796 1107.62 509.782
1842 1 40.0664 12.1299 486 71.0165 1107.76 528.2
1843 0 42.0527 12.6746 533 70.1614 1107.35 527.291
1844 0 45.0539 13.7613 620 67.2484 1107.62 527.794
1845 0 45.0308 13.4353 605 69.324 1107.06 524.489
1846 0 47.045 12.3924 583 70.3465 1107.58 523.825
1847 0 48.0785 10.9613 527 71.3814 1108.2 526.507
1848 0 50.036 13.0306 652 69.7469 1107.62 523.706
1849 0 51.054 12.3007 628 70.1003 1107.82 525.438
1850 0 51.0828 13.1355 671 70.4456 1107.55 521.376
1851 0 53.1367 14.0016 744 69.2245 1107.48 519.664
1852 0 56.1947 14.0938 792 68.4823 1107.77 519.967
1853 0 58.0741 13.7583 799 68.4018 1107.2 520.715
1854 0 60.0386 13.6412 819 68.6288 1107.52 519.794
1855 0 60.0818 12.5329 753 71.1368 1108.47 517.622
1856 0 63.1046 14.373 907 68.4487 1107.63 515.678
1857 0 63.0426 10.945 690 72.8246 1107.29 517.938
1858 0 68.1356 14.8968 1015 67.5961 1107.76 512.788
1859 0 71.0752 13.8586 985 68.3147 1107.94 515.588
1860 0 72.0418 12.465 898 69.9065 1107.59 516.561
1861 0 74.2864 13.0845 972 70.2058 1107.94 512.639
1862 0 77.0743 13.0264 1004 69.8606 1107.74 514.175
1863 1 42.0462 12.1771 512 70.8789 1108.42 529.139
1864 0 42.0858 12.1894 513 71.6628 1108.57 528.031
1865 0 46.0766 12.0452 555 70.5009 1108.31 527.831
1866 0 47.0432 11.2662 530 72.0113 1108.1 526.585
1867 0 46.0392 12.2722 565 71.8336 1108.08 523.887
1868 0 49.0641 12.6977 623 70.5024 1107.42 523.011
1869 0 49.0347 11.6244 570 72.1123 1107.37 524.37
1870 0 53.0759 12.7742 678 70.2168 1107.51 523.068
1871 0 55.0721 12.9648 714 69.7745 1107.5 521.898
1872 0 56.0511 12.6313 708 69.8234 1107.84 523.403
1873 0 57.0436 13.3056 759 69.1937 1107.12 522.078
1874 0 58.0573 13.9001 807 69.1264 1107.58 516.372
1875 0 62.0833 14.0779 874 68.2815 1106.96 516.541
1876 0 64.0478 14.8483 951 66.7592 1107.01 517.407
1877 0 64.0988 13.1828 845 69.4071 1106.79 517.092
1878 0 66.0839 12.8473 849 70.8351 1107.1 514.669
1879 0 68.1258 13.431 915 69.918 1106.51 512.901
1880 0 72.0411 12.2985 886 70.6422 1107.34 514.283
1881 0 74.0541 11.6941 866 71.627 1107.53 510.278
1882 0 78.3561 14.1406 1108 68.1273 1106.79 509.117
1883 0 78.1253 12.3648 966 71.1667 1106.83 508.885
1884 0 82.0406 13.3714 1097 69.3902 1107.01 508.052
1885 0 84.0651 13.4182 1128 69.7482 1107.23 504.982
1886 0 88.131 13.1963 1163 69.4316 1106.66 506.592
1887 1 44.044 13.6909 603 67.4411 1107.7 525.36
1888 0 44.0593 11.7796 519 70.0655 1107.21 527.224
1889 0 46.0282 13.1876 607 68.3723 1107.41 524.25
1890 0 47.0419 13.9875 658 66.576 1106.59 525.292
1891 0 48.0544 11.7367 564 69.7518 1107.04 523.472
1892 0 49.1321 13.4128 659 68.1138 1107.78 523.126
1893 0 50.0657 13.6221 682 67.5176 1107.92 522.394
1894 0 52.0919 13.4378 700 68.4486 1107.62 521.466
1895 0 54.0732 13.1673 712 68.7978 1107.49 519.712
1896 0 54.0646 12.3741 669 70.1315 1107.28 519.079
1897 0 56.094 12.7999 718 69.3802 1107.94 518.585
1898 0 57.0885 12.3492 705 70.1376 1108.09 517.854
1899 0 60.0586 12.2214 734 70.6621 1108.21 517.083
1900 0 62.0771 12.9355 803 69.2154 1107.64 516.509
1901 0 63.0546 12.846 810 69.9988 1108.14 513.631
1902 0 62.0798 12.6611 786 71.3015 1108.46 514.243
1903 0 67.1032 13.5016 906 69.6711 1108.23 514.117
1904 0 69.1139 13.7599 951 69.8665 1108.22 511.696
1905 0 71.0557 13.412 953 70.8447 1108.33 512.452
1906 0 76.0671 14.4083 1096 68.6159 1108.1 512.328
1907 0 76.046 13.8074 1050 71.279 1108.26 507.804
1908 0 79.0585 13.7367 1086 71.4319 1108.57 508.281
1909 1 41.0203 13.1642 540 72.3278 1108.93 526.561
1910 0 44.0157 12.2456 539 72.7161 1109.1 527.681
1911 0 45.1599 12.3782 559 74.2755 1108.37 523.928
1912 0 44.0595 12.3469 544 75.5 1108.42 525.033
1913 0 47.069 12.4073 584 74.8562 1108.19 524.108
1914 0 47.0518 12.8157 603 75.1559 1108.87 521.874
1915 0 50.0674 11.844 593 75.2782 1108.27 523.275
1916 0 51.0795 12.4903 638 74.8668 1108.74 521.857
1917 0 52.1043 11.88 619 76.2068 1108.75 521.599
1918 0 55.0415 13.4262 739 73.2165 1108.58 520.429
1919 0 57.0858 12.1571 694 74.7003 1108.8 520.127
1920 0 58.0594 13.7618 799 72.4894 1108.98 520.16
1921 0 61.1194 12.9582 792 72.7248 1108.77 521.146
1922 0 62.0643 11.472 712 75.7135 1108.83 519.563
1923 0 65.082 13.2602 863 73.591 1108.48 516.902
1924 0 69.0766 12.6961 877 73.8506 1109.24 516.763
1925 0 70.0471 13.8193 968 72.3554 1108.6 515.937
1926 0 71.0424 12.7389 905 73.9713 1108.72 515.789
1927 0 76.1398 15.1563 1154 69.9549 1108.64 512.994
1928 0 76.2069 13.8701 1057 73.7294 1109.46 511.95
1929 1 40.0502 11.6853 468 75.1987 1108.79 530.581
1930 0 38.0476 10.4606 398 78.49 1109.24 529.892
1931 0 42.0232 11.6602 490 76.149 1108.96 530.29
1932 0 42.1058 10.5449 444 78.6914 1109.01 529.282
1933 0 44.0454 11.5563 509 77.387 1108.6 528.09
1934 0 46.1302 13.3102 614 74.6547 1108.31 527.321
1935 0 47.1206 12.7757 602 75.3804 1108.02 527.196
1936 0 48.0172 13.6409 655 74.7603 1107.76 525.669
1937 0 50.1141 13.4892 676 75.466 1107.43 524.342
1938 0 50.0753 13.1203 657 76.4688 1107.4 524.734
1939 0 53.1046 13.0686 694 75.6239 1107.71 524.442
1940 0 54.0473 12.5261 677 75.2939 1107.74 526.836
1941 0 57.1651 15.1841 868 71.8502 1107.67 523.176
1942 0 58.0821 12.9472 752 75.7021 1107.42 522.491
1943 0 61.0877 13.2105 807 75.1475 1107.23 522.798
1944 0 61.1442 13.6726 836 74.4773 1106.42 520.232
1945 0 61.0754 12.8366 784 76.19 1106.4 520.605
1946 0 65.0941 13.5189 880 74.8307 1106.37 519.73
1947 0 65.0626 12.0499 784 77.5982 1105.91 518.276
1948 0 71.1866 12.9097 919 74.2046 1106.55 518.218
1949 0 72.256 13.1062 947 74.3611 1106.54 516.342
1950 0 72.1904 12.4255 897 75.8317 1106.22 513.033
1951 0 79.1382 14.1777 1122 71.8512 1106.25 511.676
1952 0 79.1792 13.5642 1074 73.2598 1105.4 510.256
1953 0 82.2084 12.4318 1022 74.1566 1105.37 510.423
1954 0 86.0705 13.5587 1167 71.4687 1105.63 509.637
1955 0 89.135 12.7896 1140 72.586 1105.77 508.468
1956 0 91.1286 13.3986 1221 72.3595 1105.61 504.545
1957 0 92.1615 12.9447 1193 72.9313 1105.94 504.903
1958 1 47.0686 12.1312 571 70.2032 1106.25 525.672
1959 0 49.0899 12.4669 612 70.018 1106.41 524.892
1960 0 52.0671 11.3123 589 70.3022 1106.9 525.871
1961 0 54.0289 12.5303 677 68.1064 1107.41 524.177
1962 0 52.1681 12.2105 637 69.6531 1107.46 521.782
1963 0 58.054 12.0061 697 68.3529 1106.97 521.941
1964 0 58.0837 12.1549 706 68.8584 1107.25 518.436
1965 0 63.0671 12.669 799 66.3617 1107.35 519.578
1966 0 61.2195 12.1693 745 68.2456 1107.54 515.365
1967 0 65.0507 12.4518 810 66.8049 1107.53 516.856
1968 0 65.1987 11.9328 778 68.3548 1107.7 513.913
1969 0 67.098 13.3685 897 66.0736 1106.94 511.893
1970 0 68.1366 11.6971 797 67.5947 1107.55 512.724
1971 0 71.1026 11.617 826 67.3789 1108.62 514.242
1972 0 75.2612 12.6493 952 65.9097 1107.94 508.126
1973 0 79.1763 13.7541 1089 64.2782 1108.12 508.162
1974 0 81.2236 12.681 1030 65.2126 1108.01 507.767
1975 0 84.1443 11.4565 964 66.5208 1108.44 507.43
1976 0 86.1706 12.7074 1095 65.6575 1108.02 503.547
1977 0 90.2011 11.5963 1046 67.0574 1107.68 499.859
1978 0 91.2051 11.3481 1035 66.9469 1108.23 502.031
1979 1 52.0689 9.12253 475 68.1558 1108.86 521.036
1980 0 52.072 9.96698 519 68.4701 1108.79 518.457
1981 0 54.0746 11.3917 616 66.2143 1108 517.344
1982 0 57.0279 12.3799 706 64.3612 1108.56 515.926
1983 0 58.0512 10.129 588 67.3299 1108.19 517.498
1984 0 58.0736 10.5556 613 67.8842 1108.09 515.021
1985 0 61.0465 11.3356 692 66.4017 1107.66 514.592
1986 0 64.0557 10.4753 671 67.7154 1108.76 512.048
1987 0 67.0842 11.2694 756 65.4048 1108.31 512.701
1988 0 67.0462 10.7389 720 66.4722 1108.85 511.546
1989 0 70.0844 11.372 797 65.4843 1108.67 509.911
1990 0 71.0784 10.6643 758 66.8892 1108.37 508.021
1991 0 73.1515 10.9089 798 66.7218 1107.85 506.241
1992 0 77.1357 10.838 836 66.421 1108.33 505.024
1993 0 79.1286 11.9679 947 65.0919 1108.49 501.899
1994 0 83.1761 12.696 1056 64.3248 1108.22 502.949
1995 0 87.2599 11.0016 960 65.8156 1108.73 504.78
1996 0 89.2265 13.0118 1161 63.7786 1108.29 500.952
1997 0 91.2118 11.4349 1043 66.0949 1108.61 498.713
1998 0 96.1531 11.9393 1148 65.1455 1108.65 499.285
1999 1 50.0564 11.0675 554 63.8845 1108.58 521.753
2000 0 52.0693 11.139 580 63.9672 1108.2 519.726
2001 0 54.0919 11.3141 612 64.1193 1108.22 519.547
2002 0 54.0966 10.13 548 65.4489 1108.36 520.024
2003 0 56.11 10.3368 580 65.8931 1108.52 517.478
2004 0 58.0557 12.488 725 63.1407 1108.88 514.505
2005 0 61.0803 11.2475 687 64.2722 1108.77 514.808
2006 0 61.1216 11.2072 685 64.7007 1108.77 513.044
2007 0 63.0849 10.5889 668 65.6078 1108.97 512.313
2008 0 63.0541 9.73768 614 67.2818 1108.53 509.809
2009 0 68.0908 11.5581 787 63.6569 1108.49 512.108
2010 0 69.1666 11.653 806 64.469 1108.32 506.883
2011 0 70.0815 10.3451 725 65.8786 1107.9 509.294
2012 0 74.1034 12.685 940 62.7043 1108.47 506.505
2013 0 76.0969 12.0636 918 63.476 1108.44 505.592
2014 0 78.0938 11.2173 876 64.6621 1108.26 505.205
2015 0 81.1282 9.79931 795 66.1296 1108.4 504.442
2016 1 40.0632 9.98422 400 61.955 1107.12 524.3
2017 0 43.1772 9.91264 428 62.6729 1107.75 523.65
2018 0 44.0269 10.6526 469 61.9574 1107.5 522.742
2019 0 46.104 8.45913 390 64.0282 1107.59 525.059
2020 0 47.0666 10.7082 504 62.1647 1107.67 521.183
2021 0 49.0567 11.4969 564 61.4078 1107.66 522.943
2022 0 49.0967 11.1209 546 62.6007 1107.91 522.225
2023 0 53.1092 11.7117 622 61.3987 1107.69 522.476
2024 0 54.1121 11.7349 635 62.1732 1107.61 520.945
2025 0 54.125 11.1593 604 64.2235 1107.9 519.434
2026 0 57.0681 11.7228 669 62.997 1107.81 519.854
2027 0 58.1854 11.4462 666 63.8333 1107.19 518.075
2028 0 61.1294 11.7129 716 62.8757 1107.61 517.027
2029 0 62.2229 11.5231 717 63.5509 1107.9 516.816
2030 0 61.1966 10.981 672 64.994 1107.86 515.845
2031 0 64.2154 11.259 723 63.935 1107.14 515.877
2032 0 66.222 11.1745 740 63.8622 1107.22 514.138
2033 0 68.1392 11.271 768 63.5755 1107.76 513.529
2034 0 73.1272 11.1176 813 63.5277 1107.68 509.626
2035 0 73.1774 12.0666 883 62.4111 1106.57 508.495
2036 0 75.2244 11.3261 852 63.5916 1106.44 508.407
2037 0 79.1931 11.352 899 63.5061 1107.54 508.385
2038 0 82.1464 11.9421 981 62.1865 1107.5 510.445
2039 0 82.2226 10.9216 898 64.6993 1107.45 506.087
2040 0 84.1075 11.0929 933 64.4887 1107.24 504.048
2041 0 88.1877 10.6477 939 64.5985 1107.36 503.543
2042 1 46.1032 12.0599 556 60.9964 1106.7 523.754
2043 0 48.1414 9.80445 472 63.8898 1106.69 521.875
2044 0 49.0519 10.4583 513 62.384 1106.49 523.663
2045 0 52.1041 11.6306 606 61.0941 1106.82 521.744
2046 0 52.034 9.41692 490 63.9816 1106.78 523.184
2047 0 54.1124 11.4022 617 62.0843 1106.93 519.149
2048 0 56.0676 10.8619 609 62.8358 1106.53 516.857
2049 0 58.0712 10.6421 618 62.466 1106.93 517.311
2050 0 59.1242 12.1778 720 60.7236 1106.65 516.053
2051 0 62.1595 11.5027 715 63.3441 1107.07 513.81
2052 0 64.1139 12.9301 829 61.2449 1106.82 515.878
2053 0 65.1579 12.017 783 63.2171 1107.29 511.862
2054 0 68.0676 11.136 758 63.7995 1107.26 514.214
2055 0 70.0867 11.5856 812 63.8436 1106.39 512.637
2056 0 72.0633 11.2817 813 64.075 1106.35 511.165
2057 0 72.0567 9.99213 720 65.5903 1106.11 511.256
2058 0 77.096 12.5428 967 62.1489 1106.9 508.031
2059 0 78.112 12.0852 944 64.1769 1107.07 508.411
2060 0 78.2051 10.9712 858 67.2925 1106.73 505.66
2061 0 82.3278 10.8833 896 67.0882 1106.45 504.93
2062 1 41.0877 10.076 414 67.8406 1106.19 522.645
2063 0 43.0154 9.22926 397 67.9824 1106.04 525.35
2064 0 45.0276 9.99386 450 66.8578 1107.25 523.656
2065 0 44.0566 9.26082 408 68.7672 1107.6 523.694
2066 0 49.1078 13.0733 642 62.3629 1106.93 524.55
2067 0 50.0263 10.2546 513 66.3821 1107.23 524.807
2068 0 51.0682 9.98664 510 66.4078 1106.68 522.918
2069 0 52.1464 11.3718 593 64.5143 1106.78 520.754
2070 0 53.068 10.4206 553 67.1266 1106.97 519.958
2071 0 58.153 11.7105 681 64.4919 1107.4 520.427
2072 0 59.1542 10.8361 641 65.7098 1107.25 520.732
2073 0 60.1482 12.4858 751 64.1811 1107.06 518.044
2074 0 60.0908 10.7338 645 67.1907 1106.96 516.747
2075 0 63.1318 11.3097 714 66.1288 1106.38 515.403
2076 0 64.0656 11.0356 707 66.8967 1106.51 515.127
2077 0 66.1894 11.5729 766 66.1775 1106.69 513.568
2078 0 69.1121 13.7024 947 63.0317 1106.88 512.244
2079 0 71.1127 12.5435 892 65.0908 1107.12 508.898
2080 0 73.1506 12.1393 888 65.3953 1107.25 510.087
2081 0 76.2429 13.1422 1002 63.5439 1107.26 509.543
2082 0 78.1122 11.5731 904 65.9746 1107.24 510.263
2083 0 79.0377 12.0449 952 65.5137 1107.3 507.064
2084 0 82.1781 11.5846 952 65.4948 1106.98 507.576
2085 0 84.1568 10.4091 876 66.831 1106.47 508.656
2086 0 87.1442 11.9228 1039 65.1627 1106.87 499.984
2087 0 91.1662 11.6929 1066 65.273 1107.03 498.93
2088 1 45.0339 9.12645 411 66.7591 1107.24 522.007
2089 0 47.074 9.96304 469 66.3838 1107.06 521.928
2090 0 48.0339 10.326 496 66.6895 1106.21 520.974
2091 0 50.0338 10.4529 523 65.9025 1107.57 522.446
2092 0 52.1829 11.2106 585 64.6581 1107.35 521.325
2093 0 52.0584 12.2362 637 63.7928 1106.98 521.232
2094 0 55.104 12.2496 675 63.643 1107.59 520.356
2095 0 56.0568 10.4359 585 66.2906 1107.61 519.003
2096 0 58.029 12.3904 719 63.6801 1106.94 516.49
2097 0 59.1041 11.6912 691 65.233 1106.94 516.852
2098 0 59.0547 12.0566 712 65.3315 1107.05 514.077
2099 0 62.034 11.3486 704 65.8168 1107.28 516.395
2100 0 65.0342 13.5775 883 62.325 1106.8 515.934
2101 0 66.0525 12.5809 831 63.9519 1106.44 514.339
2102 0 69.1239 12.5138 865 62.8798 1106.84 515.203
2103 0 70.0584 12.1898 854 63.9204 1107.5 512.272
2104 0 72.0969 12.3722 892 63.6031 1107.29 512.568
2105 0 72.1306 11.9783 864 63.8993 1106.9 511.24
2106 0 74.19 11.7401 871 65.8473 1106.74 508.78
2107 0 77.0898 12.44 959 64.4838 1106.56 507.332
2108 0 81.1054 13.5256 1097 62.5606 1106.85 506.215
2109 1 46.0805 11.0242 508 62.8602 1106.98 523.941
2110 0 45.0319 9.21568 415 65.4699 1106.99 524.048
2111 0 45.0853 9.80363 442 64.9299 1106.56 524.269
2112 0 47.0395 10.4806 493 64.4158 1106.56 525.16
2113 0 49.0239 10.3011 505 65.5446 1106.81 521.329
2114 0 49.0399 11.6436 571 64.4413 1106.75 521.35
2115 0 51.0788 11.1788 571 64.0018 1106.19 522.187
2116 0 53.0416 11.1422 591 64.758 1106.49 520.621
2117 0 56.1807 11.9792 673 63.2496 1106.65 519.14
2118 0 57.1272 11.5357 659 64.5645 1106.13 517.847
2119 0 58.0403 12.4052 720 63.7736 1105.78 515.722
2120 0 60.1052 12.2452 736 63.9402 1105.94 513.88
2121 0 62.0886 11.3708 706 64.5397 1106.76 516.511
2122 0 63.1214 11.9769 756 64.7024 1106.42 514.3
2123 0 64.0962 11.8884 762 65.0774 1106.24 513.661
2124 0 66.0824 11.1679 738 65.7141 1106.39 515.028
2125 0 69.0707 12.9577 895 63.6257 1106.86 514.257
2126 0 71.037 12.7117 903 64.3976 1106.88 509.282
2127 0 72.1216 10.4823 756 66.7328 1107.02 512.515
2128 0 75.0673 10.6305 798 66.8434 1106.84 511.221
2129 0 79.0867 13.3777 1058 62.966 1106.57 507.739
2130 0 79.145 10.1965 807 67.7757 1106.07 505.742
2131 0 83.1783 12.9601 1078 64.0826 1105.6 504.575
2132 1 42.0279 9.61266 404 65.4901 1106.53 523.691
2133 0 43.0498 10.4995 452 64.7234 1107.11 523.608
2134 0 45.076 10.4934 473 63.9514 1106.58 524.14
2135 0 44.0291 9.38017 413 66.6005 1106.94 523.259
2136 0 47.0397 9.07744 427 66.9016 1106.78 523.377
2137 0 49.085 10.655 523 65.369 1106.97 523.094
2138 0 48.1806 10.7305 517 67.0561 1107.37 520.828
2139 0 52.079 11.1945 583 65.3293 1107.27 521.237
2140 0 51.0447 10.579 540 65.1889 1106.75 521.976
2141 0 52.0883 10.8854 567 66.8765 1106.69 518.739
2142 0 54.0638 11.2645 609 66.4483 1106.51 517.332
2143 0 55.076 11.6748 643 65.7481 1106.49 516.463
2144 0 56.0855 11.3933 639 65.8153 1106.47 519.823
2145 0 57.0407 11.3428 647 65.3122 1106.08 520.34
2146 0 61.0473 10.582 646 66.7601 1105.7 517.941
2147 0 62.0678 11.4713 712 65.8371 1105.65 515.433
2148 0 64.0581 10.6934 685 66.6234 1105.01 515.244
2149 0 66.045 11.0531 730 66.1699 1105.5 511.853
2150 0 68.0524 11.4324 778 64.7969 1105.52 509.824
2151 0 71.0594 11.8492 842 63.8266 1105.46 511.887
2152 0 72.0998 11.7199 845 63.7964 1105.22 512.568
2153 0 75.1812 11.6785 878 64.4692 1105.9 509.072
2154 0 77.1515 10.9006 841 65.1677 1105.98 509.385
2155 0 78.1287 11.8778 928 64.2241 1105.6 507.305
2156 0 82.0641 9.83377 807 66.7373 1105.78 504.239
2157 1 40.0442 9.41459 377 67.0424 1105.78 522.966
2158 0 43.0401 10.316 444 65.5563 1106.08 522.962
2159 0 46.084 10.5026 484 64.9298 1106.4 522.506
2160 0 45.0514 9.45586 426 65.6174 1106.01 524.951
2161 0 46.1098 10.54 486 65.4342 1105.54 521.652
2162 0 48.0159 11.517 553 64.5208 1106.21 520.186
2163 0 50.0211 10.9354 547 65.7276 1106.24 519.42
2164 0 51.1609 11.9623 612 64.0735 1105.49 518.691
2165 0 53.0459 11.3675 603 64.927 1106.46 519.653
2166 0 55.1194 11.974 660 63.8742 1106.27 519.842
2167 0 54.0538 10.508 568 67.4137 1106.81 519.694
2168 0 55.0504 11.2442 619 65.643 1105.87 520.523
2169 0 58.2024 11.8208 688 64.6919 1106.4 518.977
2170 0 58.1196 11.7688 684 64.5804 1106.19 517.933
2171 0 59.1071 9.10212 538 67.394 1106.4 514.541
2172 0 62.1244 11.6218 722 65.0679 1106.22 512.186
2173 0 66.0751 11.3053 747 64.2918 1106.22 513.419
2174 0 66.0525 9.90122 654 65.7905 1106.88 514.407
2175 0 68.0532 11.1824 761 65.5282 1105.84 506.849
2176 0 71.0344 10.868 772 65.8756 1106.25 509.965
2177 0 72.0669 11.2951 814 66.0319 1106.06 507.792
2178 0 75.1186 9.27866 697 67.8522 1105.75 509.468
2179 0 77.1021 12.5159 965 64.5845 1106.71 505.555
2180 1 40.0615 10.8084 433 65.7852 1107.02 523.39
2181 0 42.0892 10.1451 427 66.808 1106.2 522.717
2182 0 41.034 10.8203 444 67.1509 1107.12 523.061
2183 0 45.0898 12.464 562 64.0908 1106.68 522.032
2184 0 47.0221 11.3776 535 66 1106.77 522.778
2185 0 46.038 10.2307 471 67.7261 1106.73 523.783
2186 0 48.0483 10.5311 506 67.9229 1106.77 520.352
2187 0 52.0209 12.2643 638 65.373 1106.74 519.48
2188 0 52.0631 11.3324 590 67.2746 1107.39 517.349
2189 0 53.1289 11.6697 620 66.6436 1106.74 517.805
2190 0 54.0683 10.8381 586 68.0717 1106.68 518.679
2191 0 56.0914 12.747 715 65.5217 1106.68 515.677
2192 0 57.1062 11.5049 657 67.3851 1106.52 514.721
2193 0 59.055 11.5147 680 67.0574 1106.28 515.721
2194 0 61.0657 12.4129 758 65.6781 1106.25 514.116
2195 0 62.043 10.4283 647 68.5255 1106.12 514.7
2196 0 64.1572 11.1913 718 67.3774 1106.04 513.142
2197 0 69.1116 13.2973 919 63.9391 1106.3 511.369
2198 0 67.2233 11.0676 744 67.7755 1106.76 514.118
2199 0 70.0794 12.6428 886 65.509 1106.39 511.268
2200 0 73.062 12.2499 895 65.9564 1106.15 508.372
2201 0 74.0447 12.506 926 65.8402 1106.31 508.292
2202 0 79.0916 13.6551 1080 63.9491 1107.07 507.668
2203 0 80.1697 12.7355 1021 65.1714 1106.74 507.081
2204 0 83.05 12.643 1050 65.4457 1105.88 502.829
2205 0 86.0716 13.6631 1176 64.1361 1106.44 504.458
2206 0 88.0655 12.979 1143 65.2887 1106.19 500.717
2207 0 91.1765 12.3935 1130 66.0611 1105.96 500.33
2208 0 95.1705 12.8821 1226 65.6068 1105.97 497.24
2209 1 48.0777 10.9198 525 67.9048 1106.71 520.109
2210 0 51.0542 11.9089 608 66.7336 1105.88 519.801
2211 0 52.0274 10.9942 572 67.715 1105.46 519.379
2212 0 53.0726 11.7386 623 66.7849 1105.35 520.681
2213 0 57.0486 12.9363 738 64.729 1105.9 519.791
2214 0 56.1063 12.8684 722 66.4875 1106.21 516.168
2215 0 60.0514 11.4402 687 65.6157 1105.65 520.56
2216 0 62.0705 13.388 831 64.1637 1105.54 514.348
2217 0 64.0351 11.9153 763 66.2084 1105.1 516.33
2218 0 65.1094 13.27 864 65.0683 1105.63 513.731
2219 0 67.0201 13.4139 899 64.9255 1105.84 514.994
2220 0 68.2354 12.0905 825 66.5503 1105.49 513.216
2221 0 71.0781 12.9435 920 65.0413 1106.06 513.838
2222 0 75.0432 12.4995 938 65.3006 1106.42 512.464
2223 0 77.0603 13.6517 1052 64.1036 1106.14 510.871
2224 0 80.0702 13.1634 1054 64.7685 1106.13 507.144
2225 0 82.0866 12.6817 1041 65.5696 1106.49 504.515
2226 0 86.1019 12.7639 1099 65.1092 1106.57 504.211
2227 1 49.0985 9.55223 469 65.209 1106.98 526.461
2228 0 47.0331 10.8647 511 66.3679 1106.23 523.331
2229 0 50.1019 10.6782 535 65.757 1106.7 522.645
2230 0 50.0277 10.1344 507 67.2012 1107.1 522.166
2231 0 52.093 10.8652 566 65.4346 1106.72 523.106
2232 0 56.0486 11.7576 659 64.2838 1106.74 521.178
2233 0 55.0758 11.0212 607 66.1713 1106.62 520.532
2234 0 57.0342 11.1337 635 65.8819 1106.32 520.595
2235 0 60.0266 12.2779 737 64.1221 1106.98 516.22
2236 0 60.0502 11.4238 686 65.535 1107.15 516.518
2237 0 65.0671 12.1106 788 63.7995 1107.21 514.74
2238 0 66.1518 12.2143 808 63.5891 1107.15 514.632
2239 0 67.1197 10.6377 714 65.93 1107.75 512.713
2240 0 68.0154 11.8208 804 64.6978 1107.21 510.759
2241 0 71.087 11.0569 786 65.2061 1107.93 513.108
2242 0 75.0729 13.4269 1008 62.1121 1107.64 509.818
2243 0 77.0995 11.5565 891 64.3827 1107.18 507.55
2244 0 80.0919 11.6491 933 64.3248 1107.31 507.775
2245 0 84.1041 11.7949 992 64.004 1107.46 506.597
2246 1 42.0157 9.61544 404 62.3441 1107.47 527.832
2247 0 43.0452 10.0592 433 62.2864 1106.77 526.263
2248 0 43.0313 10.8293 466 62.3734 1107.09 526.635
2249 0 45.2059 11.4587 518 62.1467 1107.76 524.776
2250 0 47.1016 9.57504 451 65.082 1107.4 525.153
2251 0 48.0955 11.3732 547 63.2413 1107.25 525.501
2252 0 48.0252 11.494 552 64.4656 1107.73 522.538
2253 0 51.1566 11.3964 583 63.7273 1107.09 522.293
2254 0 51.0263 11.2687 575 64.833 1107.55 522.289
2255 0 52.0232 10.38 540 66.3426 1107.54 522.048
2256 0 55.0565 12.0785 665 64.0827 1107.69 521.28
2257 0 56.0691 12.0209 674 64.2611 1107.41 522.168
2258 0 58.0847 11.8448 688 64.2122 1106.85 519.368
2259 0 60.1319 12.8717 774 63.1046 1106.67 520.351
2260 0 60.057 11.1228 668 66.2066 1107.44 517.347
2261 0 62.1054 10.5788 657 65.6271 1107.7 519.79
2262 0 64.0653 11.301 724 65.8025 1108.29 515.811
2263 0 67.1597 12.299 826 63.9298 1107.27 514.883
2264 0 67.161 10.8843 731 66.3146 1107.71 514.254
2265 0 71.3034 11.7666 839 64.789 1107.3 513.962
2266 0 73.1479 11.88 869 64.9448 1107.87 511.573
2267 0 76.1336 11.112 846 65.9444 1107.63 510.695
2268 0 78.1981 12.0335 941 64.5165 1107.93 509.194
2269 0 82.2826 12.846 1057 63.3548 1107.4 507.068
2270 0 84.1591 12.3219 1037 64.1678 1107.78 507.524
2271 1 44.1091 9.77123 431 65.6659 1107.3 527.93
2272 0 47.07 9.96388 469 65.2026 1107.41 526.237
2273 0 49.2953 10.8327 534 64.6442 1108.02 525.758
2274 0 51.0829 11.2562 575 64.4904 1107.33 525.875
2275 0 52.0612 11.2368 585 64.5914 1107.67 523.874
2276 0 52.061 11.8323 616 63.9594 1107.39 523.64
2277 0 52.1836 11.1721 583 64.7479 1106.8 525.115
2278 0 55.2311 10.0306 554 65.3899 1107.76 526.269
2279 0 53.1189 11.0695 588 65.7381 1108.41 520.522
2280 0 58.0686 12.5197 727 63.1857 1107.64 520.684
2281 0 59.1689 11.7798 697 64.3271 1107.73 520.967
2282 0 59.0599 10.3285 610 66.3049 1107.14 521.3
2283 0 61.0808 12.2952 751 64.0093 1106.95 516.9
2284 0 64.0658 13.2052 846 62.5508 1108.11 515.785
2285 0 64.1188 13.0071 834 63.7302 1107.76 514.923
2286 0 66.1533 11.8362 783 64.8378 1107.91 514.742
2287 0 68.1741 12.4681 850 64.1388 1108.12 513.271
2288 0 70.1484 13.557 951 62.8602 1107.81 511.081
2289 0 73.1217 13.1835 964 62.361 1107.75 513.859
2290 0 74.0574 14.0162 1038 62.6541 1108.19 508.685
2291 0 76.1797 12.6543 964 64.1722 1108.07 510.413
2292 0 77.1317 12.6018 972 64.178 1107.52 509.416
2293 0 79.1625 12.5438 993 64.7976 1108.23 508.351
2294 0 82.051 12.7969 1050 64.2381 1108.34 508.044
2295 1 42.003 11.3563 477 65.1048 1108.45 525.52
2296 0 43.0751 11.329 488 64.6414 1108.18 526.012
2297 0 45.0676 10.6285 479 65.1294 1108 527.883
2298 0 46.0213 12.7984 589 63.4363 1107.9 524.932
2299 0 47.0281 11.2699 530 65.0528 1108.42 522
2300 0 49.0597 10.6605 523 64.9598 1108.46 523.881
2301 0 50.0841 13.6171 682 62.0147 1108.38 522.409
2302 0 50.0659 10.3264 517 66.352 1108.35 520.669
2303 0 53.0571 12.5337 665 62.6887 1108.21 519.212
2304 0 54.0295 13.6962 740 61.45 1108.03 519.536
2305 0 57.0907 12.594 719 63.0014 1108.18 518.908
2306 0 59.0587 11.751 694 63.9352 1107.98 518.51
2307 0 59.0403 13.2452 782 62.1803 1108.04 518.335
2308 0 62.07 13.9842 868 61.5461 1108.16 516.118
2309 0 63.0735 13.4922 851 62.396 1107.8 515.257
2310 0 64.0204 12.7459 816 63.4375 1107.31 517.08
2311 0 66.0605 13.639 901 62.707 1107.51 514.741
2312 0 68.0694 12.8251 873 63.5968 1106.98 515.362
2313 0 70.0459 13.02 912 63.7785 1107.23 513.236
2314 0 72.0693 12.8626 927 64.1122 1107.7 511.272
2315 0 75.0772 12.9733 974 64.0873 1107.48 510.008
2316 0 77.0404 13.4345 1035 64.1314 1106.99 507.889
2317 0 79.1662 14.1601 1121 63.3229 1106.96 507.463
2318 1 38.0084 9.44527 359 67.2674 1107.05 528.212
2319 0 40.027 11.3423 454 64.1586 1106.89 528.819
2320 0 42.0151 12.3765 520 64.5 1107.98 525.006
2321 0 42.0225 9.5425 401 67.7681 1107.41 525.716
2322 0 44.0297 11.1061 489 66.0552 1107.66 524.72
2323 0 43.0171 10.2982 443 68.2348 1107.6 523.824
2324 0 46.0351 11.3174 521 66.8177 1107.95 524.434
2325 0 47.0451 10.9682 516 67.938 1107.21 522.581
2326 0 47.0538 11.8375 557 67.6715 1107.62 521.287
2327 0 51.034 11.9332 609 66.6535 1107.05 522.25
2328 0 52.0644 11.7547 612 66.6193 1107.25 520.824
2329 0 55.1163 11.9928 661 66.6959 1107.18 519.374
2330 0 56.0374 11.9742 671 67.0238 1108.17 519.294
2331 0 58.0941 11.7052 680 66.9956 1107.87 519.684
2332 0 60.0967 12.3301 741 66.7557 1107.95 516.656
2333 0 60.0341 10.2775 617 70.4182 1107.57 516.361
2334 0 64.0308 11.9942 768 67.3346 1107.37 516.81
2335 0 65.0717 11.2799 734 68.7125 1107.94 515.32
2336 0 66.1421 9.91804 656 70.5686 1107.74 515.881
2337 0 69.096 12.0267 831 69 1108.14 512.798
2338 0 73.0852 12.0681 882 68.6077 1107.95 511.243
2339 0 76.1442 13.435 1023 67.6383 1107.96 510.756
2340 1 38.0196 11.31 430 69.0628 1108.07 529.244
2341 0 38.0094 9.97122 379 70.6332 1107.58 530.264
2342 0 39.0546 10.0628 393 71.7761 1107.55 528.997
2343 0 42.0339 11.6335 489 69.5419 1107.73 527.444
2344 0 46.0329 12.1 557 67.9426 1108.15 529.258
2345 0 46.0463 11.6622 537 69.3948 1107.88 527.931
2346 0 46.1279 12.5087 577 69.2062 1107.6 525.922
2347 0 49.0775 13.3055 653 66.487 1107.97 527.147
2348 0 48.0503 12.6742 609 69.243 1108.4 524.194
2349 0 49.0262 11.9732 587 64.4259 1108.09 523.497
2350 0 51.0613 12.0248 614 63.1303 1108.66 523.814
2351 0 51.0502 12.713 649 61.9753 1107.71 522.508
2352 0 55.0337 13.5735 747 60.2945 1107.85 522.979
2353 0 57.0622 12.8982 736 61.2269 1108.14 521.582
2354 0 58.0396 12.6982 737 61.8087 1107.64 519.556
2355 0 58.0798 12.7411 740 62.2797 1108.45 519.089
2356 0 59.0917 11.5414 682 64.3387 1108.62 518.312
2357 0 63.0586 13.2417 835 61.4479 1108.1 516.966
2358 1 33.0326 12.7147 420 61.2595 1107.66 532.01
2359 0 33.1139 9.24084 306 65.2582 1107.75 533.569
2360 0 33.046 9.92555 328 65.6006 1107.82 531.832
2361 0 37.0538 11.065 410 63.4415 1107.81 531.668
2362 0 39.0537 11.4458 447 63.0134 1108.43 530.412
2363 0 39.0328 11.8106 461 63.7202 1108.59 529.469
2364 0 41.048 11.3282 465 63.9892 1108.46 529.323
2365 0 42.0216 13.0647 549 62.6302 1108.66 527.415
2366 0 42.0475 11.8675 499 64.6493 1108.17 527.762
2367 0 45.0613 11.7174 528 64.3939 1108.54 525.983
2368 0 45.0352 11.5687 521 65.6545 1108.59 525.536
2369 0 46.0984 13.3844 617 63.5413 1108.79 524.138
2370 0 46.0509 11.0747 510 66.3706 1108.11 524.971
2371 0 47.0998 11.0616 521 66.858 1108.33 525.374
2372 0 50.0356 13.6103 681 63.8297 1107.72 524.338
2373 0 50.044 12.2492 613 65.7651 1108.31 522.759
2374 0 54.0522 13.2465 716 64.1369 1107.7 521.274
2375 0 55.0492 13.4788 742 63.3208 1107.84 522.358
2376 0 57.0885 12.7872 730 64.8315 1107.8 520.967
2377 0 60.0852 14.1799 852 62.527 1107.87 521.093
2378 0 60.0414 12.5913 756 64.5701 1108.06 520.738
2379 0 60.0647 13.1025 787 65.418 1109.33 518.152
2380 0 64.0675 13.158 843 63.5172 1108.82 520.116
2381 0 68.0232 12.9662 882 63.6599 1108.65 516.976
2382 0 66.0861 11.9238 788 66.0698 1108.19 515.915
2383 0 69.0621 14.3784 993 63.1118 1107.93 513.368
2384 0 72.1247 13.9065 1003 62.9611 1108.81 513.756
2385 1 38.0524 13.1398 500 65.474 1108.66 529.33
2386 0 38.0621 11.56 440 67.2636 1108.3 530.316
2387 0 39.0161 12.5333 489 65.4724 1108.18 530.951
2388 0 39.0423 13.7543 537 64.73 1109 530.4
2389 0 40.0245 13.5417 542 66.1365 1109.49 528.384
2390 0 43.0213 13.9466 600 64.925 1108.56 527.508
2391 0 42.0329 13.7987 580 66.0017 1110 527.417
2392 0 45.0402 13.2326 596 65.9178 1109.37 526.267
2393 0 46.0222 13.45 619 66.1276 1109.72 524.913
2394 0 48.0694 13.5013 649 66.3143 1110.55 523.211
2395 0 50.0632 14.7613 739 64.5413 1110.49 521.367
2396 0 51.0404 14.8706 759 63.921 1110.18 523.149
2397 0 50.0938 13.9139 697 66.3745 1109.55 519.607
2398 0 54.0727 14.9613 809 63.1026 1109.63 522.295
2399 0 56.0388 14.026 786 64.7226 1109.82 519.802
2400 0 58.0245 14.2871 829 64.6393 1110.18 519.627
2401 0 59.0368 14.1098 833 65.1861 1110.45 518.468
2402 0 60.0516 13.5217 812 65.4963 1109.8 520.452
2403 0 63.0571 14.5107 915 64.1301 1110.12 518.144
2404 0 66.1241 15.0021 992 63.5111 1110.71 517.36
2405 0 65.098 13.1801 858 65.9242 1109.59 516.718
2406 0 70.0597 15.7865 1106 62.3716 1109.37 513.379
2407 0 73.0637 15.028 1098 63.2505 1109.68 513.908
2408 1 37.1193 13.9011 516 65.6279 1110.01 530.605
2409 0 36.0144 12.134 437 68.1213 1109.42 530.975
2410 0 39.0701 14.0773 550 65.1073 1108.93 530.949
2411 0 40.0192 14.2681 571 65.4553 1109.69 529.452
2412 0 40.0973 14.0907 565 67.1876 1110.23 529.196
2413 0 43.0589 13.1215 565 68.6071 1109.47 528.205
2414 0 41.0454 12.0598 495 70.2606 1109.63 529.483
2415 0 44.0202 13.1985 581 69.1721 1109.14 527.277
2416 0 47.0846 15.6527 737 66.1072 1109.92 523.68
2417 0 48.1213 14.9206 718 66.5822 1110.14 524.905
2418 0 51.0493 14.5154 741 66.9123 1109.51 524.889
2419 0 52.0784 14.3822 749 67.3899 1109.86 523.736
2420 0 52.0804 14.4584 753 67.7809 1109.88 523.66
2421 0 53.1285 14.0979 749 68.5581 1110.2 523.304
2422 0 56.0627 14.68 823 67.5942 1109.87 521.704
2423 0 57.0955 14.2043 811 68.0025 1109.6 521.758
2424 0 60.0689 14.6998 883 66.8573 1108.77 520.744
2425 0 61.0476 14.8572 907 66.215 1108.92 521.587
2426 0 65.0749 15.8894 1034 64.8201 1109.47 519.849
2427 0 64.0675 14.2818 915 68.1563 1109.52 519.091
2428 0 67.0522 15.1822 1018 66.8802 1109.87 515.213
2429 0 73.0339 17.6493 1289 61.7207 1109.41 513.253
2430 0 72.0914 14.759 1064 66.4962 1109.58 514.178
2431 0 74.1085 15.2884 1133 65.8614 1109.5 514.583
2432 0 77.0248 15.5534 1198 65.394 1109.31 513.296
2433 0 77.1223 15.3522 1184 66.3319 1108.85 510.541
2434 1 39.0593 13.2619 518 68.944 1109.47 529.328
2435 0 40.1066 12.9904 521 67.977 1109.14 530.246
2436 0 42.0235 13.0879 550 68.1945 1109.63 529.776
2437 0 43.1162 14.1014 608 66.1809 1109.59 529.941
2438 0 43.1089 16.0756 693 65.0188 1109.38 528.664
2439 0 45.0661 13.225 596 69.7869 1109.1 526.705
2440 0 48.0422 13.7171 659 67.3005 1108.87 526.954
2441 0 50.1928 15.6397 785 64.6459 1109.2 525.763
2442 0 52.0266 13.5315 704 66.7642 1108.93 526.061
2443 0 52.1086 13.2032 688 68.2602 1108.76 526.379
2444 0 54.0277 15.1219 817 66.0012 1108.93 523.916
2445 0 56.078 16.3344 916 63.9138 1108.46 523.064
2446 0 57.1364 14.6667 838 66.8413 1108.23 521.797
2447 0 59.0585 14.5618 860 67.0209 1108.71 518.177
2448 0 62.1447 15.5444 966 65.2774 1107.87 518.878
2449 0 63.0928 14.4074 909 67.2222 1108.17 517.686
2450 0 66.0731 14.6958 971 66.4614 1108.73 519.313
2451 0 68.0911 14.554 991 65.5954 1108.46 521.365
2452 0 72.062 17.9151 1291 62.5105 1108.77 515.765
2453 0 72.0392 16.0607 1157 65.8185 1108.66 512.957
2454 0 74.1278 14.8527 1101 67.0018 1109.78 516.146
2455 0 78.0292 14.6868 1146 67.3761 1109.29 513.205
2456 0 79.0526 14.5852 1153 67.8578 1109.56 511.36
2457 0 82.1026 14.8351 1218 67.3079 1108.18 510.796
2458 0 83.1951 15.0369 1251 67.8177 1108.96 507.403
2459 0 89.1845 19.241 1716 61.1777 1108.86 510.17
2460 0 90.059 14.9013 1342 68.5887 1108.31 503.76
2461 1 43.024 12.9695 558 71.0466 1108.76 527.054
2462 0 47.0261 14.7152 692 69.0882 1108.65 524.464
2463 0 48.0524 14.4009 692 69.5723 1108.5 522.876
2464 0 49.082 15.5454 763 68.3394 1108.84 522.315
2465 0 50.0218 15.3133 766 68.8786 1108.36 522.004
2466 0 53.0368 14.1977 753 69.4502 1108.09 520.186
2467 0 54.0389 15.1002 816 68.5037 1109.68 518.676
2468 0 57.034 17.8139 1016 64.0827 1108.46 521.78
2469 0 59.082 16.4686 973 50.6855 1108.84 524.965
2470 0 60.0584 14.6691 881 68.1033 1108.86 520.473
2471 0 61.1227 14.7081 899 68.7786 1108.92 518.082
2472 0 66.0308 16.0683 1061 65.9453 1108.74 517.023
2473 0 67.0562 15.7331 1055 67.1043 1109.61 518.158
2474 0 70.1362 14.8568 1042 67.7159 1109.5 516.117
2475 0 71.1797 15.8051 1125 66.7387 1109.64 516.424
2476 0 71.1071 13.3461 949 70.2814 1109.1 514.575
2477 0 76.0549 15.7518 1198 67.6477 1109.34 511.679
2478 0 79.0732 14.8976 1178 67.7649 1108.76 512.833
2479 0 81.0772 15.1954 1232 67.6567 1109.01 511.266
2480 0 82.0937 14.4956 1190 69.1639 1108.91 508.079
2481 0 86.0381 15.5396 1337 67.6208 1109.54 508.804
2482 1 38.149 12.4774 476 71.4139 1108.48 531.544
2483 0 40.0337 14.5877 584 68.7603 1109.27 529.99
2484 0 40.074 15.122 606 69.2937 1108.67 529.868
2485 0 39.0405 12.6791 495 74.6889 1108.94 527.711
2486 0 43.0239 14.829 638 70.2602 1108.93 527.857
2487 0 43.0251 15.6653 674 70.092 1108.74 526.871
2488 0 46.0654 14.7616 680 70.5868 1108.88 525.904
2489 0 46.0374 14.7054 677 71.4638 1108.13 524.919
2490 0 48.0706 13.8962 668 72.5644 1109.42 524.859
2491 0 50.0682 15.379 770 69.9779 1109.38 523.814
2492 0 51.0648 14.8439 758 72.4169 1108.71 520.672
2493 0 53.0231 14.5974 774 72.345 1108.24 521.134
2494 0 55.0817 15.9037 876 69.8961 1108.73 521.231
2495 0 55.1129 13.0278 718 74.5585 1108.62 521.149
2496 0 61.0729 15.4242 942 70.2728 1109.29 519.13
2497 0 60.0881 14.2624 857 72.6476 1108.64 517.106
2498 0 62.0558 15.4377 958 71.119 1108.5 515.841
2499 0 64.1266 14.7989 949 71.8672 1109.17 514.631
2500 0 66.0392 15.8845 1049 69.9094 1109.15 515.006
2501 0 69.0426 15.3384 1059 70.9415 1109.1 512.608
2502 0 70.0635 14.4012 1009 73.1239 1109.56 510.506
2503 0 73.1144 15.4552 1130 70.7637 1108.78 511.363
2504 0 74.0758 15.8756 1176 69.8682 1109.04 509.668
2505 0 78.1597 16.671 1303 68.9862 1109.46 505.89
2506 0 81.0579 17.5553 1423 67.3549 1109.83 509.037
2507 0 83.1098 15.4013 1280 70.9406 1108.75 506.293
2508 0 86.1155 15.5024 1335 70.2757 1109.5 507.781
2509 0 87.0437 15.2107 1324 71.1299 1108.88 503.489
2510 0 90.0937 14.0742 1268 73.0647 1108.61 502.976
2511 0 91.067 13.5724 1236 74.3277 1109.1 501.602
2512 0 96.0751 15.6128 1500 71.132 1109.41 499.542
2513 0 101.138 16.3637 1655 69.4091 1109.35 497.967
2514 1 41.0352 12.2334 502 78.1175 1109.39 526.319
2515 0 44.0177 14.0398 618 75.6812 1108.49 523.474
2516 0 45.0186 13.1723 593 77.9174 1108.19 522.555
2517 0 45.0421 14.764 665 75.9594 1108.73 523.914
2518 0 47.0842 16.3537 770 72.7584 1108.32 523.925
2519 0 49.0665 14.9389 733 76.3997 1109.03 519.877
2520 0 50.022 14.9534 748 77.3436 1109.05 518.503
2521 0 52.0794 15.3804 801 75.8564 1109.03 519.62
2522 0 53.0328 15.2547 809 77.3152 1109.51 518.216
2523 0 54.1129 14.6176 791 78.4842 1109.39 517.699
2524 0 55.029 15.1557 834 77.8321 1109.3 517.046
2525 0 59.0513 16.4772 973 75.0041 1110.28 517.297
2526 0 59.1001 15.8375 936 76.968 1110.05 516.037
2527 0 60.0248 13.9276 836 79.9522 1110.21 515.799
2528 0 62.1531 15.5101 964 77.3766 1109.78 514.568
2529 0 65.0519 15.895 1034 76.1441 1109.83 512.65
2530 0 67.0572 15.882 1065 76.0648 1109.58 511.441
2531 0 70.044 16.1327 1130 75.4053 1109.82 511.751
2532 0 72.0426 15.9489 1149 74.8329 1110.1 511.284
2533 0 74.0584 16.1359 1195 75.892 1110.74 508.273
2534 0 78.2196 16.7094 1307 74.0765 1110.85 505.663
2535 0 79.0406 15.6881 1240 75.9395 1110.41 507.427
2536 0 83.0576 16.1334 1340 74.4537 1110.54 505.266
2537 0 86.0704 17.0558 1468 72.4925 1110.15 505.214
2538 1 44.0207 13.6299 600 76.8633 1109.58 524.25
2539 0 44.1726 12.9266 571 78.8354 1110.02 523.13
2540 0 45.0136 14.2402 641 76.6412 1109.9 523.973
2541 0 46.0494 14.3759 662 78.0906 1109.38 522.224
2542 0 51.0148 14.6036 745 75.7369 1109.54 523.466
2543 0 50.0654 14.9205 747 77.0549 1110.14 522.297
2544 0 53.029 15.0107 796 76.4384 1110.32 521.896
2545 0 54.0775 15.6442 846 76.5012 1109.58 518.889
2546 0 57.0526 14.548 830 78.0349 1110.41 518.654
2547 0 57.0725 15.2963 873 77.9794 1109.96 515.922
2548 0 58.0879 15.6315 908 78.0044 1108.44 514.947
2549 0 59.0498 16.5962 980 76.9194 1109.93 513.991
2550 0 60.0624 14.6681 881 80.7548 1108.92 513.921
2551 0 63.0981 14.4061 909 80.6645 1109.24 514.678
2552 0 66.0816 14.7242 973 80.0473 1109.35 515.126
2553 0 66.0551 13.6553 902 82.1375 1109.5 514.59
2554 0 69.1689 14.8766 1029 80.1778 1109.71 514.946
2555 0 72.0798 15.3164 1104 79.2663 1109.7 511.666
2556 0 75.0366 16.3254 1225 77.9649 1110.15 509.811
2557 0 75.1063 12.9683 974 83.4004 1109.82 510.33
2558 0 81.0443 15.8308 1283 77.5799 1109.11 507.805
2559 0 82.1127 14.4923 1190 79.7101 1109.9 506.335
2560 0 85.0826 14.9384 1271 78.7592 1110.46 503.79
2561 0 86.1675 14.6923 1266 78.94 1109.3 506.284
2562 0 90.0583 14.6683 1321 78.6177 1109.48 503.674
2563 1 42.0275 13.3008 559 80.9141 1109.3 526.093
2564 0 40.0455 12.2111 489 83.8078 1109.31 527.033
2565 0 43.1643 13.8772 599 79.8581 1110 526.578
2566 0 44.063 15.0012 661 77.177 1109.63 526.431
2567 0 45.0945 14.2811 644 79.0373 1109.69 524.916
2568 0 48.0312 14.0742 676 79.6716 1109.48 522.518
2569 0 47.066 13.7679 648 80.7577 1109.21 522.877
2570 0 52.0503 15.1008 786 76.5051 1109.32 520.925
2571 0 52.0786 13.9021 724 79.3702 1109.46 520.758
2572 0 55.0423 14.0438 773 77.6559 1109.31 522.167
2573 0 54.0477 13.8766 750 79.2747 1109.33 519.403
2574 0 57.065 15.789 901 75.8424 1109.11 520.627
2575 0 59.0265 15.4338 911 76.4116 1108.9 518.599
2576 0 61.1285 15.2138 930 77.3806 1109.32 516.829
2577 0 62.1177 14.1345 878 79.1162 1109.37 517.602
2578 0 64.0251 13.0574 836 79.6232 1108.6 515.365
2579 0 67.0395 14.8718 997 76.341 1108.66 514.962
2580 0 70.1414 15.2834 1072 76.0737 1108.99 513.549
2581 0 72.0382 14.8949 1073 77.3476 1109.59 511.272
2582 0 75.1442 14.399 1082 77.2616 1109.26 511.886
2583 0 76.0793 14.9449 1137 76.9208 1108.87 509.042
2584 0 79.0999 15.3477 1214 75.7265 1109.31 508.762
2585 0 82.0772 14.3158 1175 77.4085 1108.76 506.046
2586 0 84.0824 14.7118 1237 75.9297 1108.56 506.93
2587 0 88.1063 14.4371 1272 76.1171 1108.41 506.167
2588 0 89.0991 13.7824 1228 76.3901 1108.88 506.679
2589 0 93.1846 14.8308 1382 75.4117 1108.28 501.308
2590 0 97.035 14.4381 1401 75.2498 1108.82 502.415
2591 1 49.0411 14.233 698 76.2722 1108.35 523.181
2592 0 49.0748 12.2262 600 78.9417 1109.14 524.248
2593 0 50.028 14.9716 749 77.3632 1109.11 519.469
2594 0 53.0424 13.6872 726 78.3499 1108.48 521.804
2595 0 56.1293 14.8229 832 75.4279 1108.12 521.65
2596 0 57.1074 14.3064 817 76.9278 1108.47 517.486
2597 0 61.0333 14.7952 903 75.0764 1110.04 519.257
2598 0 60.0147 14.5631 874 75.8101 1110.64 516.534
2599 0 63.0413 14.895 939 76.7604 1110.09 516.901
2600 0 62.0475 13.7798 855 79.3134 1109.99 518.02
2601 0 63.0684 14.1117 890 78.8034 1109.46 515.176
2602 0 67.0769 14.6399 982 77.9756 1109.45 513.538
2603 0 71.0426 15.4414 1097 74.9699 1109.79 514.462
2604 0 72.0739 15.5535 1121 75.5263 1109.61 512.73
2605 0 77.1143 16.0281 1236 73.7233 1109.85 510.847
2606 0 78.1273 14.6556 1145 76.2934 1109.6 509.91
2607 0 79.0422 14.2076 1123 78.0062 1108.83 508.456
2608 0 81.0522 14.4105 1168 77.8433 1108.74 507.008
2609 1 38.0598 12.2176 465 81.8667 1109.29 526.252
2610 0 38.0452 14.4039 548 78.4982 1109 526.88
2611 0 40.0852 14.4193 578 77.8616 1109.99 526.754
2612 0 40.072 14.1495 567 79.9735 1109.14 526.085
2613 0 43.0342 14.3142 616 78.7289 1108.94 525.417
2614 0 43.0906 14.9685 645 79.1364 1108.44 522.682
2615 0 43.0361 14.1741 610 79.7623 1108.27 524.479
2616 0 46.0894 15.1445 698 77.914 1108.61 523.706
2617 0 46.1095 14.3137 660 79.5818 1109.14 522.879
2618 0 48.0376 15.363 738 78.7385 1109.02 519.434
2619 0 49.0328 15.3774 754 79.3462 1110.24 520.359
2620 0 51.0541 14.9645 764 79.534 1110.17 522.055
2621 0 51.0545 15.5324 793 80.1564 1109.71 520.743
2622 0 56.1618 16.3812 920 76.2261 1109.31 520.823
2623 0 55.0139 14.5599 801 80.8889 1109.76 521.265
2624 0 58.0266 16.1478 937 78.5059 1110.43 519.054
2625 0 58.1139 16.1063 936 79.7586 1109.54 518.349
2626 0 61.0597 16.5739 1012 78.0899 1108.74 516.627
2627 0 64.185 16.0629 1031 78.7352 1108.91 516.562
2628 0 65.1052 15.5902 1015 79.9783 1108.04 515.284
2629 0 66.1032 15.0371 994 82.508 1108.07 514.816
2630 0 69.065 14.8556 1026 82.8762 1107.97 513.625
2631 0 71.054 15.8612 1127 81.858 1109.37 513
2632 0 72.037 14.7841 1065 83.247 1109.3 513.714
2633 0 75.0493 14.3106 1074 83.1732 1109.62 514.283
2634 0 77.0705 15.7259 1212 82.0726 1109.02 509.217
2635 0 79.0473 14.2573 1127 84.2919 1108.93 509.49
2636 0 83.1518 17.1133 1423 78.4167 1109.12 508.846
2637 0 83.0988 15.6079 1297 82.303 1109.03 508.237
2638 0 87.2706 14.7816 1290 83.062 1109.22 506.066
2639 1 39.0229 14.043 548 84.2263 1109.06 529.303
2640 0 41.0417 13.7178 563 84.4512 1108.62 528.844
2641 0 43.0481 14.3793 619 84.105 1109.53 527.305
2642 0 43.0293 15.7102 676 82.8254 1109.16 526.723
2643 0 43.0588 14.3525 618 85.1133 1108.74 527.35
2644 0 45.0371 14.3659 647 84.4065 1108.3 526.756
2645 0 46.1248 15.5881 719 83.5786 1109.68 526.348
2646 0 46.0747 14.2377 656 86.2241 1110.11 526.335
2647 0 48.0361 15.2594 733 84.5703 1109.82 524.9
2648 0 50.1718 15.5067 778 83.2674 1109.55 523.512
2649 0 50.0161 14.8352 742 84.7183 1109.51 523.388
2650 0 53.0234 14.8048 785 85.0637 1109.34 523.943
2651 0 55.0478 15.8771 874 82.2391 1109.7 523.674
2652 0 55.019 16.7397 921 82.7796 1109.36 521.472
2653 0 57.1519 13.8753 793 86.2863 1110.07 522.685
2654 0 58.0549 15.4509 897 83.6945 1110.04 520.982
2655 0 60.0428 13.7735 827 85.4377 1109.53 521.729
2656 0 62.0949 15.4441 959 84.1877 1109.47 519.546
2657 0 64.1657 15.273 980 83.4949 1108.77 519.601
2658 0 65.0793 15.4734 1007 83.8769 1109.98 518.516
2659 0 66.0972 13.9946 925 86.0173 1110.19 519.316
2660 0 70.0575 16.4722 1154 81.0945 1109.6 516.333
2661 0 72.0851 16.2169 1169 81.7896 1109.37 515.172
2662 0 74.05 15.7461 1166 82.9382 1109.31 513.567
2663 0 75.024 15.3018 1148 84.3659 1108.9 513.862
2664 0 77.223 15.1639 1171 83.6763 1109.19 512.426
2665 0 82.0726 15.2548 1252 82.7396 1109.41 510.739
2666 0 83.0592 15.0134 1247 83.437 1110.09 512.787
2667 1 39.1429 13.5657 531 86.1563 1110.17 531.412
2668 0 38.0138 14.7578 561 85.3316 1109.33 530.398
2669 0 41.0327 14.2569 585 85.159 1109.33 530.128
2670 0 41.0432 14.4482 593 85.3002 1108.76 531.838
2671 0 43.0812 13.8575 597 87.7102 1108.54 530.422
2672 0 43.0321 14.1755 610 88.3902 1108.57 529.207
2673 0 43.0327 14.245 613 88.7732 1107.97 530.232
2674 0 45.0321 14.5674 656 89.1463 1109.13 528.979
2675 0 46.0813 14.6263 674 89.2789 1109.67 529.116
2676 0 47.0424 15.0715 709 89.1636 1108.64 528.594
2677 0 48.0143 16.0577 771 87.406 1109 528.004
2678 0 51.0338 16.2245 828 87.6667 1108.52 526.527
2679 0 51.0464 15.0843 770 89.748 1108.28 526.717
2680 0 54.082 14.2376 770 91.7948 1108.45 527.304
2681 0 57.0456 14.8478 847 89.2243 1108.92 526.215
2682 0 55.0541 15.1669 835 90.2671 1109.06 524.608
2683 0 59.0613 14.1717 837 91.6714 1109.06 524.265
2684 0 60.0626 15.5172 932 90.2082 1108.27 521.969
2685 0 61.0523 15.1837 927 91.2287 1108.2 521.305
2686 0 65.1013 14.2086 925 91.9189 1108.65 521.646
2687 0 65.1143 14.1751 923 91.532 1108.67 520.994
2688 0 68.0914 14.8771 1013 90.9339 1109.32 518.95
2689 0 70.0273 14.58 1021 89.4388 1109.06 518.554
2690 0 72.0424 15.6297 1126 88.675 1108.55 515.996
2691 0 73.0858 14.4761 1058 90.0047 1108.29 517.103
2692 0 77.1785 15.1078 1166 87.2196 1108.44 517.228
2693 0 79.0643 15.5443 1229 87.0212 1108.77 514.156
2694 1 37.0397 13.0401 483 90.9627 1108.92 532.696
2695 0 38.0371 13.9601 531 90.0301 1108.57 532.378
2696 0 42.0955 13.1843 555 89.9009 1108.98 532.879
2697 0 40.0411 13.1864 528 91.0909 1108.83 531.422
2698 0 42.0265 14.6574 616 89.2825 1109.14 531.021
2699 0 41.0598 15.0025 616 90.7451 1108.7 529.382
2700 0 41.0159 14.6529 601 92.4459 1108.81 530.053
2701 0 42.0447 13.9851 588 93.2551 1109.54 529.592
2702 0 44.0585 15.4113 679 91.4566 1109.27 528.663
2703 0 46.0545 14.5046 668 92.5524 1108.81 527.663
2704 0 49.0247 14.5233 712 91.0744 1109.68 526.951
2705 0 50.0299 16.1903 810 88.3395 1108.75 526.467
2706 0 50.0156 14.3755 719 92.0125 1108.32 526.551
2707 0 52.0691 15.9212 829 88.1399 1109.04 525.87
2708 0 54.071 14.9803 810 91.6716 1109.73 523.047
2709 0 55.0134 14.5056 798 92.5915 1109.43 524.757
2710 0 57.1057 15.6552 894 90.198 1108.69 525.106
2711 0 57.0925 13.8372 790 94.5127 1109.63 524.962
2712 0 60.0769 16.096 967 88.9866 1110.3 524.745
2713 0 60.0472 14.0723 845 94.6686 1110.02 520.705
2714 0 66.0187 15.9803 1055 88.3573 1109.51 521.171
2715 0 65.0395 14.9755 974 92.3183 1109.95 519.782
2716 0 67.0185 16.1299 1081 89.6864 1109.41 518.266
2717 0 70.0696 15.242 1068 91.5609 1109.61 518.254
2718 0 71.0406 15.47 1099 90.6415 1109.67 516.112
2719 0 73.1252 15.6444 1144 89.7281 1110.41 515.479
2720 0 76.1604 15.2047 1158 89.4309 1110.07 516.067
2721 0 77.0953 15.2279 1174 90.0988 1110.04 513.493
2722 0 81.0697 15.0858 1223 88.65 1110.2 514.399
2723 0 83.0732 15.1673 1260 88.5032 1110.23 511.822
2724 1 37.0635 12.7619 473 94.8457 1109.45 531.154
2725 0 38.0261 13.78 524 92.855 1109.32 530.695
2726 0 40.0113 14.8458 594 90.2003 1109.25 531.111
2727 0 40.041 13.8608 555 93.4991 1108.94 530.755
2728 0 41.0523 14.9078 612 90.964 1109.88 531.023
2729 0 43.1142 15.5633 671 89.0686 1109.82 529.566
2730 0 44.0743 14.7705 651 90.8587 1109.29 529.293
2731 0 44.112 15.3473 677 89.8464 1109.66 527.378
2732 0 47.099 15.754 742 88.1361 1108.24 525.761
2733 0 48.1216 14.7959 712 90.1236 1109.39 524.643
2734 0 49.0547 15.7783 774 88.2028 1109.52 525.521
2735 0 49.052 14.9841 735 89.0231 1108.93 525.973
2736 0 52.0871 15.2053 792 88.1124 1109.1 524.593
2737 0 54.0533 16.8537 911 83.7212 1108.98 524.894
2738 0 54.0294 16.4725 890 85.9719 1109.19 522.683
2739 0 55.1055 15.6246 861 86.5842 1108.96 523.509
2740 0 60.0642 16.5822 996 83.2189 1109.17 522.739
2741 0 60.0401 16.1892 972 85.6636 1109.74 521.091
2742 0 61.0576 15.2315 930 87.114 1110.05 520.448
2743 0 64.0313 15.2894 979 86.0817 1109.94 518.47
2744 0 65.0474 15.3273 997 86.1675 1110.01 518.067
2745 0 67.0673 14.8657 997 86.9508 1110.39 516.779
2746 0 70.065 14.2296 997 87 1110.37 517.875
2747 0 72.0658 15.2083 1096 85.7774 1110 515.786
2748 0 73.1049 15.6898 1147 84.7262 1110.2 514.41
2749 0 75.0894 15.1553 1138 85.8128 1110.21 513.185
2750 0 78.0326 15.0963 1178 84.8608 1109.43 511.884
2751 0 81.0692 14.5801 1182 85.5702 1109.61 509.764
2752 1 36.0797 14.4957 523 87.2887 1109.54 529.891
2753 0 36.0464 13.1775 475 88.7874 1109.55 531.76
2754 0 39.0471 13.4709 526 86.4867 1109.98 531.148
2755 0 41.0568 14.4191 592 84.549 1109.64 529.943
2756 0 41.0576 15.7096 645 83.9659 1109.87 528.769
2757 0 42.023 14.6349 615 86.4943 1110.15 530.057
2758 0 42.0104 14.2584 599 87.4591 1110.15 529.122
2759 0 44.0302 14.2175 626 86.5064 1110.09 527.954
2760 0 45.0684 14.1562 638 86.2712 1109.95 528.785
2761 0 45.0295 12.9027 581 89.3356 1110.29 527.885
2762 0 48.0496 14.1729 681 86.7327 1110.07 527.228
2763 0 49.0475 14.2719 700 86.6114 1110.15 525.167
2764 0 52.1122 15.908 829 83.0277 1110.1 523.707
2765 0 55.0308 15.2642 840 83.025 1110.29 523.864
2766 0 54.0645 14.9266 807 85.1809 1109.93 522.978
2767 0 57.1339 15.3674 878 83.6652 1109.78 522.523
2768 0 57.0772 15.225 869 84.8608 1110.64 522.855
2769 0 61.0265 15.5834 951 83.3249 1110.84 522.836
2770 0 61.0265 15.8128 965 83.8218 1110.57 520.96
2771 0 62.0405 15.4738 960 84.2906 1110.42 520.056
2772 0 65.0635 14.97 974 84.3183 1110.89 520.632
2773 0 66.0264 14.6305 966 85.6118 1111.8 519.885
2774 0 69.0555 15.4079 1064 83.4972 1110.89 518.258
2775 0 71.1352 15.9415 1134 82.6164 1110.79 518.22
2776 0 72.1003 14.785 1066 84.8677 1110.71 516.58
2777 0 73.0798 14.7647 1079 85.2651 1110.88 515.833
2778 0 76.1053 15.1369 1152 84.2422 1110.98 515.492
2779 0 78.071 15.883 1240 82.5073 1110.97 513.244
2780 0 81.1827 17.4052 1413 79.6928 1110.36 511.126
2781 0 80.1017 14.7188 1179 85.6344 1110.21 511.201
2782 0 83.067 15.2889 1270 84.2094 1110.95 509.209
2783 0 88.0732 15.5439 1369 82.2732 1110.69 510.047
2784 0 90.0786 16.1304 1453 81.7839 1110.46 507.872
2785 1 40.0326 14.0635 563 89.2167 1110.15 527.133
2786 0 43.2561 13.7322 594 88.5657 1110.44 527.407
2787 0 45.0882 14.6602 661 87.7685 1110.3 527.94
2788 0 43.0798 13.8348 596 91.2399 1111.18 528.778
2789 0 47.0866 14.0804 663 88.9502 1110.76 528.047
2790 0 45.0351 14.8107 667 90.1934 1110.76 527.038
2791 0 50.0698 14.2401 713 87.9888 1110.56 527.676
2792 0 49.0193 15.2593 748 90.2714 1111.03 525.032
2793 0 51.0836 15.1125 772 88.0712 1110.86 526.876
2794 0 54.0525 15.8735 858 86.4266 1111.02 525.617
2795 0 53.0892 13.8635 736 92.3179 1110.75 525.624
2796 0 55.0713 15.0169 827 90.1294 1110.07 525.115
2797 0 58.0289 16.7675 973 86.4039 1110.61 523.894
2798 0 57.0456 15.4788 883 90.0906 1110.23 523.502
2799 0 59.0563 14.3253 846 91.5686 1111.25 521.897
2800 0 63.0601 15.4139 972 89.7541 1111.67 519.997
2801 0 61.0471 14.9884 915 92.1257 1110.44 518.958
2802 0 65.1277 15.7076 1023 89.6686 1110.87 518.175
2803 0 67.029 14.5161 973 91.3309 1111.02 516.711
2804 0 70.0513 16.3737 1147 87.2589 1111.4 515.745
2805 0 70.0354 14.7354 1032 90.7093 1111.66 517.817
2806 0 73.1029 15.6629 1145 89.3572 1110.47 512.59
2807 0 74.0686 16.0932 1192 88.5512 1111.66 512.68
2808 0 77.0692 15.7391 1213 88.6859 1110.69 513.306
2809 0 78.0388 14.9156 1164 89.5825 1111.24 513.407
2810 0 83.1785 15.1722 1262 87.9081 1110.9 511.777
2811 0 84.0784 15.2715 1284 87.4252 1110.5 511.157
2812 0 84.1254 14.1693 1192 90.2701 1110.73 510.039
2813 1 44.0383 12.3529 544 91.8327 1110.98 530.906
2814 0 44.0365 13.6024 599 91.6678 1111.43 527.866
2815 0 47.0274 13.3965 630 90.3873 1111.44 528.538
2816 0 47.1839 14.4329 681 88.2952 1111.25 528.056
2817 0 47.035 14.7762 695 88.9266 1111.49 527.026
2818 0 48.0547 13.2349 636 91.8223 1110.97 527.509
2819 0 50.0364 13.1504 658 91.035 1111.05 527.884
2820 0 52.1003 15.7389 820 86.9988 1111.12 525.957
2821 0 53.0165 14.5804 773 88.9922 1110.46 525.427
2822 0 56.0294 14.6887 823 87.0863 1110.9 525.892
2823 0 57.0693 14.8416 847 88.9646 1110.6 522.547
2824 0 59.1573 15.0277 889 87.6985 1111.27 520.651
2825 0 62.0843 14.9635 929 87.2196 1111.24 521.64
2826 0 63.0413 13.1343 828 89.8261 1110.85 522.72
2827 0 63.0356 13.7224 865 89.9572 1111.34 521.476
2828 0 67.131 14.9707 1005 86.9841 1111.13 520.275
2829 0 68.0436 14.5201 988 87.7743 1110.55 518.627
2830 0 70.0285 14.1799 993 88.5821 1110.45 516.956
2831 0 72.0497 14.3928 1037 87.8312 1110.62 518.042
2832 0 75.0728 14.6258 1098 87.0729 1110.25 516.608
2833 0 78.1158 14.7473 1152 86.2804 1110.24 515.256
2834 0 78.0481 13.0176 1016 89.249 1110.54 513.777
2835 0 80.0323 13.3696 1070 88.3617 1110.91 513.41
2836 0 84.0528 14.3719 1208 86.7326 1111.19 510.832
2837 1 42.021 13.2791 558 88.009 1110.4 530.849
2838 0 43.0142 13.7396 591 86.714 1111.26 530.127
2839 0 43.0139 14.042 604 87.2682 1110.92 529.869
2840 0 46.0604 13.6126 627 87.9506 1110.93 527.826
2841 0 48.0497 13.4652 647 86.3818 1110.79 527.266
2842 0 47.0314 14.7348 693 85.4964 1111.06 526.03
2843 0 50.1557 13.2388 664 85.5632 1110.56 526.593
2844 0 53.1258 13.948 741 84.4224 1111.47 524.982
2845 0 53.0648 13.7568 730 85.8452 1111.13 521.481
2846 0 54.0414 13.8412 748 84.5334 1111.27 521.86
2847 0 55.0156 14.305 787 84.8628 1111.68 519.64
2848 0 57.0737 14.6302 835 82.4826 1112.03 520.713
2849 0 60.0649 15.117 908 81.5716 1112.28 518.352
2850 0 61.0402 13.6467 833 83.2461 1111.53 520.54
2851 0 62.1005 14.7664 917 81.9716 1111.46 518.143
2852 0 64.1949 14.3781 923 82.9252 1112.06 515.969
2853 0 67.0609 16.0451 1076 79.5688 1111.8 513.867
2854 0 67.0615 13.0775 877 84.5678 1111.54 515.714
2855 0 70.0773 14.8836 1043 81.3365 1112.1 512.964
2856 0 73.0901 14.5711 1065 81.4535 1112.28 512.616
2857 0 73.1045 13.8295 1011 83.3333 1111.99 511.462
2858 0 77.1377 15.2714 1178 79.4143 1111.64 511.924
2859 1 38.1318 11.3291 432 86.9144 1111.9 529.838
2860 0 38.0815 12.5783 479 85.8351 1111.07 529.319
2861 0 39.0897 13.6609 534 82.7809 1110.5 527.897
2862 0 41.008 13.0462 535 84.914 1110.93 526.163
2863 0 42.0224 12.9217 543 84.4438 1111.69 528.109
2864 0 44.0234 13.9244 613 81.7798 1111.67 527.736
2865 0 45.0741 14.7757 666 80.2658 1111.29 525.637
2866 0 46.1583 14.277 659 81.3217 1112.16 526.35
2867 0 48.0651 13.8354 665 82.782 1111.82 522.992
2868 0 49.026 15.196 745 80.0094 1111.81 523.511
2869 0 51.0325 14.7945 755 80.2384 1111.72 523.784
2870 0 51.0304 13.7369 701 82.4137 1111.87 522.579
2871 0 53.0274 15.1431 803 80.3064 1111.79 522.248
2872 0 56.0231 14.9403 837 79.1039 1111.4 520.794
2873 0 57.0662 14.4043 822 80.0535 1112.25 521.982
2874 0 58.1083 14.6279 850 80.1894 1111.83 520.188
2875 0 61.0855 16.1577 987 76.073 1112.05 519.936
2876 0 62.1471 14.4335 897 79.2977 1111.73 518.575
2877 0 63.0309 13.7869 869 81.4672 1111.21 517.446
2878 0 65.0398 14.1606 921 80.6091 1111.73 515.203
2879 0 68.0967 14.4207 982 79.4878 1111.76 516.379
2880 0 69.0224 14.5605 1005 79.6289 1111.81 515.784
2881 0 72.0814 14.9137 1075 78.3879 1111.79 514.358
2882 0 74.0959 15.0886 1118 78.1467 1111.6 513.414
2883 0 76.0862 15.0882 1148 77.8223 1111.45 513.5
2884 0 78.0834 13.8314 1080 80.2537 1111.95 508.8
2885 0 79.1525 15.1606 1200 77.6992 1112.02 507.854
2886 0 82.0908 14.0576 1154 79.2149 1111.84 509.296
2887 0 85.1228 13.7096 1167 79.7472 1111.45 506.348
2888 0 88.1684 14.9373 1317 77.1458 1112.07 505.405
2889 0 91.0687 14.5714 1327 77.4793 1112.05 503.99
2890 1 43.2073 11.9887 518 80.029 1111.77 527.792
2891 0 45.0707 12.3584 557 79.2998 1112.25 527.329
2892 0 45.1569 12.8441 580 79.3569 1112.23 526.783
2893 0 48.155 13.3527 643 77.7792 1112.71 524.468
2894 0 48.0732 12.5642 604 78.7334 1111.72 525.598
2895 0 50.1512 13.898 697 75.3472 1112.28 525.504
2896 0 52.0222 13.7826 717 75.6708 1111.61 522.653
2897 0 54.0423 12.6752 685 76.673 1112.09 523.126
2898 0 56.0759 13.9097 780 74.3744 1112.33 522.42
2899 0 56.1482 13.4822 757 75.173 1111.23 520.828
2900 0 59.0469 13.2776 784 74.9936 1111.82 520.709
2901 0 60.0304 13.0767 785 76.3299 1111.58 517.941
2902 0 59.1354 12.1924 721 77.7753 1111.7 517.562
2903 0 63.0528 12.7512 804 76.3147 1111.54 518.234
2904 0 64.0967 12.1067 776 75.8969 1110.59 518.175
2905 0 68.0623 12.7971 871 75.4443 1111.71 514.311
2906 0 68.1404 12.8998 879 75.8896 1111.43 514.837
2907 0 73.0332 14.0895 1029 73.4237 1111.43 514.043
2908 0 74.066 12.6239 935 76.1583 1111.84 512.512
2909 1 40.0599 10.1848 408 78.1838 1110.79 527.564
2910 0 41.0506 10.5723 434 77.5899 1110.95 527.869
2911 0 41.0624 11.1294 457 76.5646 1111.01 529.066
2912 0 42.0255 11.8262 497 75.6318 1111.57 527.652
2913 0 43.0421 11.5004 495 75.4748 1111.29 528.133
2914 0 45.0318 12.5467 565 73.2354 1111.07 527.761
2915 0 48.0757 13.3331 641 72.1482 1111.58 525.836
2916 0 48.1125 12.3876 596 73.2584 1111.32 525.666
2917 0 52.0722 12.7707 665 72.6105 1111.54 523.738
2918 0 52.0481 11.8929 619 74.4604 1111.61 523.864
2919 0 54.1052 13.5662 734 72.0286 1110.92 521.693
2920 0 55.1409 13.0393 719 72.0932 1111.54 521.264
2921 0 55.0856 12.2718 676 74.6538 1111.84 519.038
2922 0 57.0868 12.4197 709 74.1918 1111.66 517.822
2923 0 59.2005 13.4458 796 71.7776 1111.74 517.381
2924 0 63.0776 13.8084 871 70.6739 1111.91 517.013
2925 0 65.1294 12.9588 844 72.2701 1111.33 515.124
2926 0 65.0802 12.8457 836 72.7943 1110.57 513.928
2927 0 68.0853 13.6593 930 71.0731 1111.03 512.906
2928 0 70.1412 14.428 1012 69.9931 1111.75 512.874
2929 0 72.157 13.3182 961 70.948 1110.41 511.924
2930 0 73.108 11.7224 857 73.9813 1111.34 512.903
2931 1 38.1108 9.94468 379 73.314 1110.46 529.446
2932 0 40.1127 11.6422 467 71.4218 1110.62 527.647
2933 0 42.0495 11.1297 468 72.4188 1110.77 527.517
2934 0 42.0667 11.9572 503 72.0437 1110.81 526.064
2935 0 44.0594 10.9171 481 73.3389 1110.42 525.734
2936 0 45.1008 12.6605 571 70.331 1111.06 525.688
2937 0 46.0687 11.4177 526 72.5418 1110.89 524.483
2938 0 47.1904 11.5066 543 72.0921 1110.97 522.221
2939 0 48.055 11.5076 553 71.613 1110.29 524.441
2940 0 52.0816 12.25 638 69.7414 1110.54 522.871
2941 0 51.0946 11.4689 586 71.7679 1110.29 522.35
2942 0 53.0873 11.1703 593 72.2428 1111.45 519.946
2943 0 54.0935 12.1826 659 70.9712 1111.1 517.625
2944 0 55.0888 11.0004 606 71.8746 1110.73 518.38
2945 0 58.0565 11.9366 693 69.8615 1111.18 518.945
2946 0 61.1754 11.9329 730 69.0616 1111.19 518.61
2947 0 63.1781 12.441 786 68.1959 1110.92 515.709
2948 0 64.1138 12.8054 821 68.0292 1111.03 513.817
2949 0 64.0409 11.7737 754 69.1671 1110.35 513.763
2950 0 69.1605 13.1433 909 66.1397 1110.69 509.964
2951 0 71.178 12.7006 904 66.6847 1111.02 509.846
2952 0 71.2097 12.2315 871 68.2342 1110.87 507.419
2953 0 75.1627 11.3221 851 68.3502 1110.89 510.946
2954 0 76.1149 12.087 920 67.4435 1110.65 507.148
2955 0 81.149 12.5448 1018 66.3556 1110.52 506.582
2956 0 81.0863 11.124 902 68.7561 1110.5 505.69
2957 0 83.2351 12.6269 1051 66.3682 1110.85 506.399
2958 0 85.0631 11.7207 997 67.9408 1111.09 501.69
2959 1 44.0737 8.37234 369 68.4146 1110.55 525.032
2960 0 46.0943 10.7822 497 64.0926 1109.9 525.825
2961 0 47.2824 10.8708 514 65.3755 1110.62 522.309
2962 0 48.1604 9.46836 456 66.3224 1110.17 523.618
2963 0 49.0507 10.112 496 66.0827 1110.9 521.026
2964 0 50.0308 11.373 569 64.3656 1110.42 521.04
2965 0 51.1777 10.5319 539 64.9462 1110.34 521.51
2966 0 53.0384 10.6715 566 64.295 1110.05 521.746
2967 0 55.0742 11.0397 608 64.097 1109.83 518.082
2968 0 56.051 10.4012 583 64.9262 1109.54 517.082
2969 0 57.1164 11.853 677 63.0251 1109.79 517.854
2970 0 59.0828 11.4923 679 63.1708 1109.97 517.423
2971 0 61.1037 12.4379 760 62.3526 1110.53 514.753
2972 0 64.1084 12.6661 812 61.6798 1111.02 517.266
2973 0 65.0222 12.1958 793 62.7667 1111.03 515.465
2974 0 65.0583 10.5137 684 64.6652 1110.66 512.307
2975 0 70.0527 12.5477 879 61.2685 1110.34 512.931
2976 0 70.0805 11.0159 772 63.8834 1110.87 512.591
2977 0 73.1222 11.3919 833 63.5738 1110.73 509.188
2978 0 76.1235 11.7703 896 62.1931 1110.73 511.28
2979 0 77.0639 10.9649 845 63.8533 1110.57 509.438
2980 1 39.012 9.25357 361 62.2438 1110.08 528.078
2981 0 40.0339 7.4437 298 64.8188 1110.05 526.242
2982 0 41.042 8.50348 349 62.7794 1110.46 526.352
2983 0 43.0224 9.94831 428 61.2617 1109.96 526.063
2984 0 44.1023 9.84075 434 61.3042 1109.91 527.569
2985 0 42.0623 8.55873 360 64.4861 1109.59 521.667
2986 0 47.0222 8.48536 399 63.0251 1110.03 521.925
2987 0 47.0976 8.89641 419 62.6921 1110.58 521.265
2988 0 49.0502 10.7237 526 60.8688 1110.04 518.593
2989 0 51.1225 11.3453 580 59.9224 1110.04 518.184
2990 0 52.0806 10.4838 546 60.7088 1109.95 517.822
2991 0 53.1313 10.2576 545 60.2734 1109.84 520.389
2992 0 55.1128 13.2637 731 57.078 1110.11 516.012
2993 0 56.0379 10.7784 604 61.1159 1110.98 518.929
2994 0 58.0899 9.57137 556 62.3165 1111.1 517.806
2995 0 61.0261 11.8638 724 59.5373 1110.22 517.837
2996 0 62.0602 10.5059 652 62.3696 1110.7 517.19
2997 0 62.0971 10.854 674 61.7878 1110.97 515.522
2998 0 65.0877 11.5075 749 60.5714 1110.41 515.741
2999 0 67.1154 11.1897 751 61.2583 1111.21 514.185
3000 0 68.1106 11.2024 763 61.595 1110.83 514.18
3001 0 71.0975 10.9287 777 61.4736 1110.28 513.743
3002 0 74.0817 10.9744 813 61.6556 1110.96 512.627
3003 0 75.1258 10.702 804 62.4092 1111.16 512.316
3004 0 75.1287 11.1143 835 61.9533 1111.17 508.713
3005 1 39.0714 9.39305 367 61.7357 1110.77 527.411
3006 0 40.072 10.0319 402 61.4527 1110.76 526.791
3007 0 41.07 10.1777 418 61.2464 1110.76 525.971
3008 0 44.0392 10.15 447 61.4094 1110.51 527.394
3009 0 45.0293 12.0366 542 59.2712 1109.59 524.53
3010 0 46.0588 10.2695 473 60.9366 1109.87 524.824
3011 0 46.0316 9.53693 439 62.8588 1110.47 525.948
3012 0 48.0472 11.5095 553 60.4521 1110.58 523.996
3013 0 49.0479 11.1931 549 61.3552 1111.07 523.45
3014 0 49.0215 9.89363 485 63.4639 1111.06 523.984
3015 0 51.0302 10.1313 517 63.5687 1110.76 521.534
3016 0 53.0442 11.2925 599 61.2354 1110.59 524.15
3017 0 54.1209 10.107 547 63.1006 1111.49 521.89
3018 0 55.0214 10.7049 589 63.2937 1111.02 520.3
3019 0 58.0547 11.1274 646 62.079 1110.23 519.625
3020 0 60.1167 11.5609 695 61.0604 1111.04 518.663
3021 0 58.0826 10.4679 608 61.7253 1111.17 521.163
3022 0 60.1788 10.2694 618 63.0113 1111.07 517.917
3023 0 61.0983 11.5061 703 61.8634 1111.25 516.898
3024 0 63.0682 12.4151 783 60.4687 1111.69 516.494
3025 0 64.0856 11.5783 742 61.2345 1111.77 518.186
3026 0 66.1604 10.9431 724 62.5691 1111.91 513.569
3027 0 67.2245 11.0674 744 61.9328 1111.8 513.543
3028 0 72.1738 10.9874 793 61.9912 1111.59 513.952
3029 1 36.0188 10.8554 391 61.2174 1111.24 530.708
3030 0 36.0287 8.65976 312 64.1827 1110.64 530.497
3031 0 36.0167 8.55158 308 64.2273 1110.94 531.584
3032 0 39.0248 11.6849 456 60.4496 1111 529.776
3033 0 40.0348 9.64162 386 63.1425 1110.67 530.591
3034 0 42.1955 11.9207 503 59.9722 1111.53 528.851
3035 0 40.0586 10.3099 413 63.0823 1111.38 528.247
3036 0 42.2227 12.1262 512 60.7109 1110.92 527.27
3037 0 45.0616 11.1403 502 61.9542 1110.73 526.779
3038 0 45.1144 11.6371 525 61.4362 1110.65 525.507
3039 0 47.1194 12.0545 568 60.9384 1112.03 526.166
3040 0 46.1263 11.9455 551 62.0109 1110.9 526.604
3041 0 48.1136 10.9117 525 64.2762 1111.34 523.51
3042 0 51.144 12.3964 634 60.7224 1111.41 525.404
3043 0 53.1539 14.4298 767 58.7914 1110.98 523.036
3044 0 52.0562 11.2379 585 64.2325 1110.92 521.725
3045 0 54.0834 11.8336 640 63.0594 1111.16 523.369
3046 0 55.1883 13.2818 733 62.3452 1111.54 519.739
3047 0 58.1319 12.3684 719 62.7691 1111.86 521.693
3048 0 61.1161 15.6751 958 58.1795 1112.19 518.765
3049 0 61.1701 12.6696 775 62.9136 1112.13 517.764
3050 0 61.1297 13.2669 811 62.2861 1111.6 515.355
3051 0 63.1063 14.1349 892 61.1547 1111.14 516.592
3052 0 66.1238 12.7791 845 62.7089 1111.86 513.492
3053 1 34.0055 10.0278 341 64.7185 1111.11 531.516
3054 0 33.012 11.723 387 63.4961 1111.2 529.662
3055 0 36.0362 10.656 384 63.9661 1110.81 530.375
3056 0 36.0452 11.874 428 64.6192 1111.25 528.161
3057 0 37.0248 11.4248 423 64.5957 1111 528.518
3058 0 37.0383 11.3396 420 65.9286 1111.09 527.519
3059 0 38.0942 10.1328 386 66.9197 1110.96 527.316
3060 0 39.1214 10.8892 426 65.4272 1110.73 529.242
3061 0 42.0519 11.7474 494 64.5425 1111.46 523.717
3062 0 43.1302 11.6624 503 65.5726 1111.88 522.183
3063 0 45.0897 11.6213 524 64.0725 1111.6 526.845
3064 0 45.1091 12.7025 573 63.8883 1111.9 525.949
3065 0 47.117 11.0364 520 66.2885 1111.89 523.969
3066 0 46.0752 12.1975 562 65.7064 1111.95 524.091
3067 0 48.0999 11.4137 549 66.5009 1112.02 524.823
3068 0 50.0558 11.3473 568 66.0053 1111.34 523.854
3069 0 51.0776 12.8041 654 64.9373 1111.75 521.587
3070 0 54.0448 11.435 618 66.1165 1111.52 520.905
3071 0 55.0669 13.7832 759 63.498 1110.65 518.61
3072 0 54.0406 12.7682 690 65.3159 1111.04 519.719
3073 0 56.2191 13.2873 747 64.2021 1111.3 519.454
3074 0 57.1167 12.7283 727 65.5502 1111.52 516.791
3075 0 60.0981 12.646 760 65.2842 1110.75 515.882
3076 0 61.1116 12.9763 793 64.8134 1111.01 515.435
3077 0 64.0704 13.2198 847 64.5773 1111.17 514.691
3078 0 65.0606 14.402 937 62.1526 1110.73 514.948
3079 0 66.218 14.4372 956 62.7646 1111.65 513.148
3080 0 68.0483 11.58 788 66.7805 1111.18 513.864
3081 0 69.1205 12.9918 898 64.9599 1111.27 509.139
3082 1 35.0944 11.1414 391 66.6803 1111.42 528.087
3083 0 34.0712 11.564 394 65.8934 1110.72 528.749
3084 0 37.0333 10.7201 397 66.6675 1111.05 527.519
3085 0 36.0277 9.90904 357 68.1793 1111.39 527.989
3086 0 37.0695 12.3552 458 65.6463 1111.06 526.552
3087 0 40.1565 11.4552 460 66.3044 1111.19 525.046
3088 0 42.1308 13.4106 565 63.8761 1111.26 523.088
3089 0 42.0676 12.9316 544 64.9191 1111.57 522.419
3090 0 43.1937 13.1732 569 63.9086 1111.08 523.162
3091 0 43.1495 12.1902 526 66.3441 1111.93 521.124
3092 0 46.0814 12.8685 593 64.5666 1111.51 522.304
3093 0 47.0529 13.1342 618 64.0631 1111.5 522.938
3094 0 49.1734 12.7915 629 65.0159 1111.09 520.17
3095 0 49.2505 12.7511 628 65.4379 1111.01 520.866
3096 0 50.1334 12.4468 624 66.7804 1111.27 518.282
3097 0 52.1822 14.756 770 62.752 1111.88 518.73
3098 0 53.1255 12.1599 646 66.3529 1111.5 518.515
3099 0 56.0379 13.937 781 63.8873 1111.57 517.14
3100 0 56.1578 13.1416 738 65.5854 1111.64 515.745
3101 0 59.242 12.4743 739 65.8809 1111.93 515.993
3102 0 60.1149 14.0564 845 64.3219 1112.01 513.174
3103 0 61.0368 14.2865 872 64.258 1111.14 513.206
3104 0 63.1074 14.8636 938 63.2303 1111.59 513.499
3105 0 65.0448 12.4068 807 66.6791 1111.88 513.76
3106 0 65.0597 11.6355 757 68.4306 1112.33 510.827
3107 0 67.0946 12.5643 843 67.0581 1112.36 510.874
3108 0 70.1462 13.2438 929 66.3057 1112.1 508.405
3109 0 73.0987 13.9127 1017 65.238 1112.7 508.693
3110 0 75.0868 14.2102 1067 65.238 1112.8 507.625
3111 0 77.132 13.5741 1047 66.3906 1112.96 508.001
3112 0 78.1151 13.4417 1050 66.8086 1112.05 506.993
3113 0 79.0661 11.99 948 69.576 1111.42 504.878
3114 0 84.1324 13.1697 1108 67.1715 1111.92 504.513
3115 1 42.0513 12.6274 531 65.7589 1111.95 522.785
3116 0 43.0311 11.573 498 67.4578 1111.76 523.677
3117 0 46.0321 12.4695 574 66.3171 1111.75 520.528
3118 0 45.0246 11.4604 516 68.8798 1112.23 519.915
3119 0 46.0917 12.2365 564 68.5532 1112.26 519.745
3120 0 48.0362 12.095 581 67.6816 1111.7 521.052
3121 0 46.0448 10.6635 491 71.2342 1113.54 521.232
3122 0 48.059 11.257 541 69.9963 1112.35 520.372
3123 0 50.0215 10.3556 518 69.8301 1112.05 520.741
3124 0 53.0671 10.2889 546 70.4725 1112.48 516.819
3125 0 52.0606 10.0652 524 70.3053 1112.2 516.8
3126 0 55.0924 12.3066 678 68.1091 1112.32 514.106
3127 0 57.0489 11.8845 678 68.2994 1112.57 513.264
3128 0 57.0318 11.3972 650 69.8323 1112.53 511.212
3129 0 58.0236 11.6332 675 70.4193 1112.92 509.693
3130 0 60.0487 10.9411 657 71.2998 1112.59 509.295
3131 0 63.0434 10.8179 682 70.1642 1112.53 510.254
3132 1 33.0093 8.51274 281 69.6334 1112.44 522.512
3133 0 36.0758 9.09197 328 66.8598 1112.34 524.887
3134 0 35.0588 8.8708 311 67.7974 1113.21 524.363
3135 0 35.0154 8.85325 310 68.5194 1112.75 523.432
3136 0 35.0168 9.22415 323 67.6842 1112.77 524.372
3137 0 36.0302 9.04796 326 68.7362 1112.46 524.831
3138 0 36.0384 9.01815 325 68.5138 1112.69 522.969
3139 0 39.0153 11.0213 430 64.8884 1112.05 522.36
3140 0 40.0232 10.1691 407 65.5676 1112.22 522.349
3141 0 39.0375 9.2219 360 67.4889 1112.11 521.2
3142 0 44.0437 12.2832 541 62.8318 1112.3 520.804
3143 0 43.024 12.5279 539 63.436 1111.81 519.267
3144 0 45.082 10.6251 479 65.3027 1111.54 520.09
3145 0 45.0663 10.2959 464 66.1099 1111.06 519.948
3146 0 47.0561 9.6268 453 65.2892 1110.88 522.234
3147 0 48.0831 9.37959 451 66.929 1111.09 519.14
3148 0 50.1312 10.8715 545 64.0716 1110.66 517.941
3149 0 53.0681 12.0223 638 62.3793 1111.01 518.436
3150 0 54.0952 9.81604 531 64.8493 1111.36 518.36
3151 0 54.053 10.2677 555 64.6991 1110.47 518.73
3152 0 56.0979 10.3747 582 47.1186 1110 519.459
3153 0 58.0978 10.6372 618 62.1974 1110.77 519.293
3154 0 59.0302 10.9774 648 63.2639 1110.62 515.935
3155 0 60.1558 11.2209 675 63.0148 1109.68 514.059
3156 0 63.12 10.6622 673 63.3848 1109.7 512.354
3157 0 65.0817 11.3703 740 62.3365 1109.94 511.772
3158 0 67.0945 11.8043 792 61.6591 1110.29 512.096
3159 0 70.0517 10.4066 729 63.5158 1110.46 511.202
3160 1 38.0296 10.6233 404 61.5495 1110.28 527.463
3161 0 38.0387 11.7249 446 61.1435 1109.89 525.24
3162 0 38.0298 9.09814 346 64.1532 1109.75 526.344
3163 0 39.0141 9.48375 370 63.6378 1110.23 526.254
3164 0 40.0392 9.59061 384 63.4245 1110.32 523.94
3165 0 44.0193 10.2455 451 61.6408 1110.4 523.991
3166 0 42.0385 9.22964 388 63.2629 1110.42 522.711
3167 0 46.0792 10.3083 475 61.9558 1110.23 522.794
3168 0 46.0743 9.54978 440 65.3773 1110.6 520.948
3169 0 50.1046 11.7155 587 62.1261 1111.46 520.445
3170 0 52.0732 11.1766 582 62.134 1111.06 518.498
3171 0 54.0404 11.1768 604 62.2699 1111.16 516.82
3172 0 54.1016 12.6983 687 60.0932 1111.04 518.678
3173 0 56.0329 12.3856 694 60.781 1110.59 518.535
3174 0 57.0827 10.6687 609 63.3974 1111.04 518.637
3175 0 59.1258 12.4988 739 60.3396 1110.98 515.264
3176 0 59.0913 10.8307 640 62.7156 1111.16 517.331
3177 0 61.1694 10.6426 651 63.2965 1111.45 514.55
3178 0 63.0868 11.397 719 62.6286 1111.31 512.789
3179 0 66.1797 10.955 725 61.8124 1111.69 515.72
3180 0 66.0818 10.5173 695 63.3309 1111 514.692
3181 0 68.0638 11.1513 759 62.1146 1110.5 512.671
3182 0 71.0832 11.0575 786 62.1743 1111.03 512.055
3183 0 73.0716 11.9061 870 59.3 1110.7 510.059
3184 0 76.1443 10.3094 785 60.5427 1110.87 510.2
3185 0 77.0798 9.97667 769 61.5345 1110.7 508.043
3186 0 80.1158 10.1603 814 60.8575 1110.92 508.424
3187 0 82.0384 10.0806 827 60.7594 1111.06 502.683
3188 0 83.1422 10.019 833 60.1849 1111 506.203
3189 1 44.0306 9.24356 407 59.9459 1110.14 525.961
3190 0 43.1237 10.5047 453 59.7483 1110.36 522.011
3191 0 44.0157 9.63292 424 59.5354 1110.31 523.257
3192 0 45.0404 11.1456 502 58.3386 1110.61 521.972
3193 0 49.0816 10.9817 539 57.9499 1110.62 521.883
3194 0 47.0616 10.5606 497 58.9638 1110.02 522.125
3195 0 49.1105 10.4866 515 59.4757 1110.37 520.421
3196 0 51.0662 13.4531 687 55.7511 1110.84 520.683
3197 0 54.1149 10.0896 546 58.9542 1110.1 520.463
3198 0 55.0552 10.1898 561 59.9447 1110.67 519.034
3199 0 56.2027 11.7788 662 58.1118 1110.44 516.814
3200 0 57.1391 11.3057 646 58.8297 1109.67 517.635
3201 0 56.0685 10.8974 611 60.1097 1109.77 516.481
3202 0 59.0635 11.53 681 58.8223 1110.44 518.292
3203 0 61.2367 11.872 727 58.5585 1109.92 515.34
3204 0 62.1706 10.8894 677 60.2969 1109.43 512.659
3205 0 64.1331 10.9772 704 59.5582 1109.42 514.935
3206 0 66.1371 11.5215 762 59.2297 1110.03 511.231
3207 0 69.1231 11.7616 813 58.5523 1110.17 514.337
3208 0 70.1554 12.6291 886 57.7224 1109.78 509.755
3209 0 71.208 10.687 761 59.6202 1110.16 509.406
3210 1 37.1814 9.89742 368 59.9701 1109.6 527.041
3211 0 37.0605 9.09323 337 61.0445 1110.35 528.878
3212 0 39.0249 8.99426 351 60.4046 1110.07 525.997
3213 0 40.0322 11.8654 475 56.9432 1110.24 524.779
3214 0 42.0255 11.9927 504 56.498 1109.36 523.835
3215 0 41.0182 9.87367 405 59.6889 1111.13 522.79
3216 0 44.0217 9.13186 402 59.597 1110.58 524.853
3217 0 45.0334 10.4367 470 58.1404 1110.5 521.364
3218 0 45.0401 9.74686 439 59.2574 1110.56 521.091
3219 0 48.0908 9.04539 435 59.5609 1110.74 519.209
3220 0 48.0148 10.7675 517 57.8104 1110.69 520.346
3221 0 51.0272 10.1711 519 58.2408 1110.41 521.407
3222 0 52.0238 9.91853 516 58.1395 1110.2 519.672
3223 0 51.1088 10.8005 552 57.3714 1110.57 517.931
3224 0 54.0377 11.603 627 55.8581 1111.03 516.59
3225 0 55.0322 11.3025 622 56.2508 1110.86 516.397
3226 0 57.0196 11.3294 646 56.2786 1110.89 516.711
3227 0 58.1182 11.7347 682 55.8152 1110.87 515.396
3228 0 59.0282 12.4178 733 55.5416 1111.39 512.187
3229 0 61.0454 10.7461 656 57.3643 1111.18 515.591
3230 0 60.0514 10.6908 642 57.6464 1110.92 512.427
3231 0 64.101 11.2011 718 56.5947 1111.3 514.811
3232 0 66.0562 12.1109 800 56.1525 1111.18 510.825
3233 0 66.0154 11.1338 735 56.7633 1110.23 511.619
3234 0 70.0885 11.4427 802 56.1409 1111.04 510.157
3235 0 72.0613 12.6281 910 54.6264 1110.85 511.402
3236 0 73.0762 11.4538 837 56.3811 1111.1 509.348
3237 1 35.0662 8.3271 292 61.2534 1109.99 526.627
3238 0 38.0788 10.9772 418 58.0239 1110.54 526.699
3239 0 41.064 11.5917 476 55.8445 1110.8 527.357
3240 0 42.0778 10.8846 458 57.8231 1111.03 528.321
3241 0 43.0785 11.8388 510 56.0549 1111.14 525.947
3242 0 44.0676 11.4597 505 56.4931 1110.79 524.937
3243 0 44.0796 10.7987 476 58.9013 1110.81 526.523
3244 0 47.062 12.3454 581 56.9105 1110.83 523.9
3245 0 47.0249 11.1005 522 59.4942 1111.12 523.879
3246 0 48.0336 11.6169 558 58.6864 1110.47 523.269
3247 0 51.0326 13.4228 685 56.7693 1111.02 521.645
3248 0 52.0333 11.0698 576 59.2222 1109.97 523.457
3249 0 53.0535 13.0246 691 57.4443 1109.45 523.411
3250 0 53.0525 11.5734 614 60.4283 1110.27 522.542
3251 0 55.056 11.4792 632 60.7168 1110.57 520.911
3252 0 57.1038 12.5035 714 59.0168 1110.54 519.274
3253 0 57.0365 11.6767 666 61.1396 1110.41 518.949
3254 0 59.0663 11.7664 695 61.1683 1110.54 519.119
3255 0 60.0238 13.4946 810 59.416 1110.83 518.9
3256 0 62.0784 12.7903 794 60.2985 1110.83 518.955
3257 0 62.1052 13.3322 828 60.6341 1110.35 515.577
3258 0 66.0954 12.0281 795 61.7686 1109.8 516.59
3259 0 67.1099 13.7685 924 59.8896 1110.57 514.995
3260 0 69.0581 12.9311 893 61.1008 1110.22 515.686
3261 0 71.054 13.4686 957 60.628 1109.94 514.695
3262 0 71.0153 12.9972 923 62.1593 1109.75 512.585
3263 0 73.0622 11.7845 861 63.7863 1109.33 514.483
3264 0 74.0601 12.5979 933 63.2572 1109.72 513.92
3265 0 79.1203 13.9029 1100 60.5991 1110.01 512.491
3266 0 78.0481 11.9157 930 64.0538 1110.34 512.291
3267 0 80.0864 12.936 1036 63.2577 1109.99 508.718
3268 0 84.0778 13.095 1101 62.4405 1109.69 505.974
3269 0 86.1515 13.6272 1174 62.1405 1109.26 505.089
3270 1 42.0116 10.3543 435 65.4161 1109.86 527.738
3271 0 42.0404 10.4185 438 65.1119 1109.67 530.014
3272 0 45.0852 11.3563 512 65.4961 1109.35 525.715
3273 0 48.0404 12.7809 614 62.5537 1109.65 524.459
3274 0 48.0247 12.202 586 63.3959 1109.83 526.623
3275 0 47.033 11.46 539 65.2597 1108.64 524.161
3276 0 49.0327 12.6854 622 63.5788 1108.59 523.375
3277 0 49.0922 11.4275 561 66.1765 1108.8 522.317
3278 0 52.0175 11.6307 605 64.7422 1109.39 522.14
3279 0 54.0482 12.4889 675 64.2474 1108.99 521.071
3280 0 56.0356 13.5271 758 62.3153 1107.97 519.074
3281 0 56.0525 12.4526 698 63.9542 1108.23 518.384
3282 0 57.0822 12.6309 721 64.9168 1108.66 515.141
3283 0 57.1006 12.0839 690 66.3029 1107.98 515.607
3284 0 62.0808 13.1925 819 63.5922 1108.99 516.878
3285 0 62.1216 12.0409 748 65.9251 1109.01 515.37
3286 0 62.0762 12.388 769 65.9532 1108.5 515.274
3287 1 118.779 25.156 2988 43.005 1107.6 418.466
3288 0 124.434 10.9215 1359 58.5386 1108.89 439.024
3289 0 127.716 17.0848 2182 49.0023 1108.38 420.94
