time division length width area intensity CMx CMy
0 0 62.2678 12.3178 767 62.824 1321.66 347.532
1 0 60.286 12.9051 778 62.9923 1321.34 345.995
2 0 62.1212 13.1517 817 62.6793 1321.51 347.8
3 0 65.1114 14.5597 948 61.2827 1320.69 345.641
4 0 67.3694 15.081 1016 60.2096 1320.48 346.341
5 0 69.1515 14.7792 1022 61.0597 1320.23 343.131
6 0 71.344 13.7223 979 62.0174 1319.71 346.046
7 0 73.1667 14.2824 1045 62.1952 1319.7 341.366
8 0 72.7542 10.1712 740 26.2905 1316.94 540.539
9 0 77.1435 13.274 1024 63.1904 1319.95 341.753
10 0 78.1735 14.0841 1101 63.069 1320.16 339.435
11 0 78.1735 14.1352 1105 165.92 1320.16 339.461
12 0 78.1735 14.2248 1112 164.933 1320.16 339.573
13 1 46.065 12.3955 571 64.1681 1319.46 355.898
14 0 49.1103 12.9097 634 64.1798 1319.42 352.749
15 0 51.2107 13.8252 708 62.3856 1318.8 353.27
16 0 52.0449 13.6036 708 62.3729 1319.07 352.986
17 0 54.0504 12.7104 687 63.2314 1319.45 353.424
18 0 55.1142 12.2836 677 64.5554 1319.52 351.815
19 0 54.0157 11.9595 646 65.9628 1319.6 350.746
20 0 57.0729 12.7031 725 64.6566 1318.98 349.55
21 0 58.2822 14.5327 847 62.3117 1319.3 350.652
22 0 60.2131 13.037 785 64.6318 1318.38 347.499
23 0 64.1984 14.0346 901 62.4273 1318.78 348.345
24 0 64.1984 14.019 900 157.404 1318.79 348.336
25 0 65.1219 14.0045 912 63.7884 1319.03 344.729
26 0 67.0336 15.2312 1021 62.3467 1319.4 344.481
27 0 69.049 12.788 883 64.9264 1318.69 344.73
28 0 71.1629 12.7595 908 65.3205 1318.39 343.322
29 0 72.1016 13.6474 984 65.2266 1318.73 339.78
30 0 74.1431 13.9325 1033 64.7812 1318.92 342.423
31 0 79.2027 14.5071 1149 63.228 1318.81 341.493
32 0 83.4608 14.3301 1196 62.3737 1318.8 343.712
33 0 82.1105 12.8607 1056 65.5691 1318.4 340.516
34 1 45.122 11.7238 529 65.3346 1318.59 357.669
35 0 49.3608 11.1222 549 65.2568 1318.79 357.035
36 0 49.1156 12.0328 591 65.3756 1318.17 355.132
37 0 52.0698 13.2707 691 63.7192 1318.44 353.156
38 0 51.0654 12.435 635 65.7748 1318.06 351.863
39 0 54.1892 13.8958 753 63.3639 1317.95 352.25
40 0 56.0874 12.3914 695 65.446 1317.64 350.282
41 0 55.0833 11.6006 639 163.848 1317.68 352.765
42 0 60.0988 13.3281 801 63.7878 1318.41 350.924
43 0 61.2624 13.3361 817 63.9131 1318.4 350.497
44 0 64.2938 14.5893 938 61.161 1318.74 351.436
45 0 63.2718 13.0864 828 64.8551 1318.46 347.588
46 0 64.0659 13.4861 864 65.0197 1318.3 346.27
47 0 64.0706 11.5498 740 67.5108 1318.7 346.451
48 0 64.0706 11.5029 737 169.123 1318.72 346.491
49 0 68.0362 12.4199 845 66.3728 1318.17 342.438
50 0 72.1008 12.2467 883 66.308 1317.94 341.935
51 1 39.1387 11.9319 467 62.2377 1318.36 361.719
52 0 42.2442 13.2799 561 61.3066 1318.25 358.973
53 0 40.0853 10.777 432 65.4167 1318.83 358.014
54 0 42.0617 11.9824 504 63.9841 1318.16 356.982
55 0 45.1255 11.1467 503 63.8549 1318.56 357.746
56 0 47.0865 13.7407 647 60.9073 1318.46 356.172
57 0 48.2182 12.4434 600 62.5283 1318.15 355.945
58 0 50.2214 13.8387 695 60.7885 1318.57 354.44
59 0 51.4472 12.9647 667 61.7916 1318.71 353.685
60 0 54.2039 12.3054 667 62.1229 1318.65 354.261
61 0 52.124 12.1825 635 63.1701 1318.77 352.972
62 0 52.124 12.2592 639 139.455 1319.77 352.84
63 0 56.0818 12.981 728 61.9464 1318.93 351.647
64 0 56.0818 12.874 722 145.454 1317.95 351.619
65 0 59.2967 11.1811 663 64.1991 1318.62 350.499
66 0 63.144 13.1762 832 61.4279 1318.57 348.439
67 0 64.0917 13.075 838 61.9487 1318.25 348.271
68 0 66.045 13.1123 866 61.9573 1318.21 347.89
69 0 68.1212 14.0338 956 60.7709 1318.19 347.593
70 0 70.1549 13.8123 969 60.9463 1317.73 346.588
71 0 73.1239 14.537 1063 59.4111 1318.04 346.848
72 0 74.162 15.0212 1114 58.8303 1317.73 346.039
73 0 74.1101 13.7228 1017 61.3559 1317.99 341.513
74 0 78.1707 13.3682 1045 61.2373 1318.09 341.997
75 0 84.5445 15.1873 1284 57.3699 1318.29 344.531
76 0 84.1308 14.6439 1232 59.3661 1317.78 341.05
77 1 48.311 11.9434 577 60.7175 1317.46 356.199
78 0 51.2603 14.085 722 58.5374 1317.87 354.932
79 0 52.1487 13.6149 710 59.9423 1317.74 353.439
80 0 53.2735 12.22 651 62.1275 1318.37 352.014
81 0 53.2735 12.1637 648 148.023 1319.36 352.062
82 0 59.4169 13.5147 803 59.3462 1318.06 352.869
83 0 59.086 12.5749 743 61.6528 1317.88 349.545
84 0 60.0382 12.7252 764 60.6335 1318.34 350.632
85 0 64.3254 13.0586 840 60.1107 1318.27 348.323
86 0 62.1319 13.3909 832 60.2668 1318.29 348.743
87 0 67.1967 12.0393 809 61.4339 1318.39 347.303
88 0 68.19 11.9226 813 61.8155 1317.94 344.765
89 0 71.1807 13.9083 990 59.0949 1318.11 344.965
90 0 75.4623 14.5105 1095 58.084 1317.48 342.057
91 0 75.3568 12.129 914 60.7626 1317.26 343.986
92 0 79.3607 14.8814 1181 57.4513 1317.29 341.239
93 0 82.1137 13.7492 1129 58.2967 1317.22 340.705
94 0 83.3399 12.755 1063 60.2869 1317.86 337.911
95 0 84.1609 14.2703 1201 58.5346 1317.92 338.172
96 1 42.1457 12.3856 522 58.7452 1317.88 356.866
97 0 46.1712 11.479 530 58.3566 1318.24 357.534
98 0 47.1167 11.0576 521 58.3474 1318.06 358.207
99 0 49.1644 12.6311 621 56.4702 1318.5 356.346
100 0 47.0517 12.7519 600 58.755 1317.73 354.032
101 0 51.107 12.4054 634 58.418 1317.81 353.938
102 0 54.0915 13.5326 732 56.668 1318 353.154
103 0 53.1364 13.7382 730 57.4726 1318.22 353.305
104 0 54.0722 11.836 640 59.5672 1318.75 351.875
105 0 54.167 10.6153 575 61.7617 1317.47 350.837
106 0 57.0955 11.5596 660 60.9409 1317.79 349.909
107 0 59.0968 12.4711 737 60.3026 1317.77 348.026
108 0 62.1505 12.3088 765 60.0105 1317.87 347.328
109 0 66.3613 15.5964 1035 54.9952 1318.5 350.612
110 0 63.0607 12.147 766 60.8616 1318.51 346.449
111 0 66.0696 11.3063 747 61.8353 1318.19 346.625
112 0 68.0716 14.3672 978 58.7802 1318.11 342.619
113 0 68.0716 14.3525 977 137.651 1318.11 342.557
114 0 68.0716 14.2644 971 137.464 1318.13 342.588
115 0 74.1217 14.5706 1080 58.6602 1318.09 341.317
116 0 80.2188 16.2555 1304 56.1403 1318.21 340.505
117 0 79.2204 12.1181 960 61.7021 1318.73 340.358
118 0 83.0655 13.6037 1130 60.154 1318.7 337.619
119 0 86.1319 15.0467 1296 58.375 1318.72 338.367
120 0 89.1592 15.1078 1347 58.412 1318.97 337.806
121 1 52.0263 13.9353 725 58.5269 1318.6 354.006
122 0 52.1829 12.6861 662 61.5574 1318.13 351.5
123 0 53.1301 13.2317 703 61.34 1318.01 349.098
124 0 56.025 12.7622 715 60.2769 1318.35 350.627
125 0 59.0959 13.2666 784 59.6097 1318.38 350.17
126 0 59.0959 13.2666 784 160.633 1318.38 350.17
127 0 60.0848 13.4643 809 60.1644 1318.27 347.874
128 0 62.0854 13.7553 854 60.0246 1317.89 346.253
129 0 63.1329 13.8121 872 59.586 1318.31 347.216
130 0 65.1754 13.7475 896 59.0982 1318.6 349.114
131 0 67.2865 11.4733 772 62.8122 1318.46 343.738
132 0 70.2576 13.5359 951 59.8707 1319.04 345.705
133 0 72.0655 14.2926 1030 59.5117 1319.57 343.148
134 0 72.1089 12.5505 905 62.1094 1319.04 342.699
135 0 75.0724 13.3738 1004 61.5478 1319.02 339.293
136 0 79.0952 13.1993 1044 61.2625 1318.56 341.166
137 1 45.1277 11.545 521 61.0384 1318.91 358.891
138 0 41.0505 11.1326 457 64.523 1318.86 355.602
139 0 47.2114 12.2428 578 62.0363 1318.94 356.078
140 0 47.2328 11.6868 552 63.6793 1319.04 355.252
141 0 46.0496 12.9426 596 63.6342 1319.13 353.091
142 0 49.0847 12.4682 612 63.7157 1319.1 353.748
143 0 52.1079 12.1863 635 62.6126 1318.66 355.02
144 0 53.0709 14.3582 762 60.5459 1318.67 354.983
145 0 53.1393 12.8907 685 63.7591 1318.67 352.715
146 0 57.1487 14.3485 820 60.7085 1318.37 352.494
147 0 57.2017 13.3213 762 62.4173 1317.65 352.08
148 0 59.2556 13.7709 816 61.7953 1317.88 350.96
149 0 60.0594 13.137 789 63.0849 1317.39 349.544
150 0 61.0533 12.5792 768 63.9948 1317.92 347.615
151 0 63.3247 12.4596 789 63.3245 1318.76 349.673
152 0 65.2144 13.7393 896 61.5346 1318.69 348.942
153 0 67.3148 15.2567 1027 59.7916 1318.01 347.753
154 0 69.0508 13.1497 908 62.7093 1318.12 346.366
155 0 71.1319 14.2693 1015 61.4463 1318.68 344.874
156 0 73.0834 14.2714 1043 61.4075 1318.87 343.84
157 0 74.1157 14.8417 1100 61.3 1318.74 343.247
158 0 79.307 14.6645 1163 60.423 1318.93 343.47
159 0 80.3078 14.1705 1138 61.7944 1319.26 339.53
160 0 79.1284 12.8399 1016 64.562 1318.63 337.207
161 0 82.2065 12.0307 989 65.9039 1318.44 336.123
162 1 45.1326 11.8318 534 63.9663 1319.14 356.131
163 0 48.3074 13.4348 649 62.4114 1320.45 356.122
164 0 49.0426 14.9666 734 60.1553 1319.67 356.693
165 0 49.0843 12.8351 630 63.9032 1319.46 354.176
166 0 52.0945 14.7424 768 61.4453 1319.2 353.772
167 0 53.4173 13.2354 707 63.413 1319.06 352.661
168 0 54.0974 13.3648 723 63.6819 1318.9 352.719
169 0 54.0915 12.2755 664 65.238 1319.45 351.697
170 0 57.0948 13.6965 782 63.679 1318.81 350.468
171 0 59.073 13.3056 786 63.7952 1318.46 350.193
172 0 61.082 12.5242 765 64.0497 1319 351.366
173 0 65.2549 15.2326 994 61.0433 1318.63 347.209
174 0 67.3635 13.7908 929 62.4779 1319.09 346.781
175 0 67.3635 13.8948 936 155.678 1319.09 346.837
176 0 71.1432 14.6746 1044 61.8142 1319.16 344.086
177 0 70.0751 12.2155 856 65.6215 1319.23 343.118
178 0 71.1223 12.6683 901 65.8957 1318.69 338.43
179 0 77.0819 13.2327 1020 63.9922 1317.99 340.081
180 1 40.0632 13.3539 535 62.6523 1318.16 356.574
181 0 41.068 10.6409 437 66.1465 1317.39 356.693
182 0 45.0843 11.4452 516 64.4438 1318.18 356.692
183 0 43.0576 11.5891 499 65.7976 1318.28 355.439
184 0 46.1748 12.8642 594 63.7778 1318.62 354.838
185 0 48.058 12.5473 603 62.5721 1318.21 356.784
186 0 48.0896 12.7054 611 63.874 1318.55 354.075
187 0 48.0896 12.7678 614 153.039 1319.58 354.114
188 0 54.0878 13.2932 719 62.6982 1318.82 351.787
189 0 53.1078 13.1242 697 63.2999 1318.61 350.983
190 0 55.0691 12.2029 672 64.4658 1318.4 350.491
191 0 55.0691 12.2573 675 159.741 1317.42 350.521
192 0 59.13 13.9185 823 61.7776 1318.57 348.957
193 0 59.0402 13.5332 799 62.0751 1318.44 349.418
194 0 62.0594 12.4397 772 63.8497 1318.66 347.492
195 0 65.0482 13.2671 863 62.7289 1318.5 344.7
196 0 66.0856 12.2114 807 63.938 1319 345.114
197 0 67.0344 12.501 838 64.0072 1318.83 343.704
198 0 70.1316 13.1752 924 62.3117 1318.98 344.742
199 0 73.1353 13.8374 1012 61.6176 1319 342.151
200 1 40.0363 11.3147 453 63.362 1318.34 356.79
201 0 41.1143 11.918 490 63.1163 1318.29 356.018
202 0 43.0715 11.7247 505 62.1802 1318.49 356.877
203 0 42.0179 11.4475 481 64.632 1318.59 353.844
204 0 47.0848 11.6598 549 62.2295 1318.21 354.475
205 0 47.0296 12.0775 568 62.8873 1318.05 352.271
206 0 48.0794 13.3529 642 59.8364 1318.53 354.787
207 0 50.0889 11.6593 584 61.4897 1318.3 352.724
208 0 52.2285 12.3496 645 60.3209 1318.24 351.915
209 0 53.1787 11.734 624 61.617 1318.2 352.312
210 0 55.093 11.0359 608 61.8832 1317.8 351.212
211 0 55.093 11.0722 610 143.598 1317.79 351.379
212 0 58.1086 12.1497 706 60.432 1318.4 350.394
213 0 59.0524 15.3931 909 57.242 1318.13 347.831
214 0 62.1241 14.2135 883 58.3284 1318.12 347.058
215 0 62.0791 12.2263 759 61.4783 1318.27 344.966
216 0 65.079 12.6001 820 60.5707 1318.38 345.094
217 0 68.0873 12.1609 828 61.0145 1318.29 343.546
218 0 70.1161 12.8644 902 60.2306 1318.33 343.228
219 0 70.1987 12.4361 873 61.4857 1317.86 339.703
220 0 73.1549 12.9315 946 60.8658 1318.03 340.017
221 0 74.0979 12.7804 947 61.2999 1318.24 338.023
222 0 81.1888 14.1645 1150 57.6991 1318.17 339.623
223 1 44.1359 10.1731 449 61.461 1318.42 355.062
224 0 42.0226 11.2083 471 61.3843 1318.02 353.469
225 0 46.0877 12.6281 582 59.9553 1317.64 351.27
226 0 47.0672 10.963 516 61.0368 1317.33 354.64
227 0 49.0283 12.0543 591 60.0863 1317.42 352.188
228 0 50.0242 11.8942 595 59.9815 1317.62 351.832
229 0 54.0805 14.238 770 56.8403 1318 350.862
230 0 55.1365 13.784 760 58.2882 1317.22 348.907
231 0 56.0704 14.6958 824 57.2354 1317.92 348.016
232 0 58.0522 11.4552 665 60.797 1316.64 349.749
233 0 62.0557 14.2936 887 56.4059 1317.8 349.583
234 0 64.0219 12.3239 789 59.3701 1317.69 346.166
235 0 65.085 16.1788 1053 54.5214 1317.63 347.521
236 0 66.1889 13.7485 910 57.7978 1317.69 345.354
237 0 68.15 12.9274 881 59.101 1317.43 342.713
238 0 70.2413 12.1011 850 59.3 1317.63 344.631
239 0 70.0865 12.6415 886 59.4977 1317.7 341.363
240 0 73.0251 12.037 879 60.1889 1317.89 339.273
241 0 76.0781 12.4346 946 59.0359 1318.05 339.741
242 0 79.1456 11.0935 878 60.8144 1318.02 336.935
243 0 81.2214 14.6513 1190 56.3445 1318.36 338.214
244 0 85.2367 11.6968 997 59.8766 1317.58 335.452
245 1 42.0983 12.5421 528 58.9508 1317.2 353.589
246 0 44.07 12.2986 542 57.9871 1317.73 354.764
247 0 46.0699 11.6562 537 59.432 1317.7 353.777
248 0 48.0813 10.5862 509 60.9116 1317.37 352.053
249 0 48.0854 12.2906 591 60.1371 1317.71 349.323
250 0 52.0422 13.3738 696 58.4282 1317.44 349.178
251 0 53.2169 12.045 641 59.9797 1317.78 351.178
252 0 54.1697 12.5716 681 59.8003 1318.01 349.94
253 0 57.0541 11.7257 669 61.3109 1317.57 347.608
254 0 57.0736 13.1935 753 59.7981 1317.92 344.963
255 0 59.056 13.5803 802 59.4027 1317.53 347.239
256 0 60.0872 14.4956 871 58.5029 1316.74 346.893
257 0 63.1234 12.3251 778 60.4036 1316.97 345.888
258 0 64.0777 12.7345 816 60.4877 1317.28 342.806
259 0 67.0829 13.0436 875 59.9166 1317.68 341.946
260 0 67.1367 13.4204 901 59.6249 1317.9 341.645
261 0 68.0709 11.87 808 61.4641 1317.89 341.908
262 0 75.343 14.5866 1099 57.2475 1317.98 340.462
263 0 74.0658 14.2711 1057 58.2829 1317.63 338.417
264 0 77.1566 12.7403 983 59.762 1317.39 338.337
265 0 80.1604 16.5294 1325 55.1826 1317.69 338.288
266 0 80.1604 16.4171 1316 136.463 1317.71 338.356
267 0 82.1109 13.2382 1087 58.8703 1318.22 337.007
268 0 85.0553 15.002 1276 57.105 1317.82 335.673
269 1 47.0292 10.6742 502 59.6952 1317.49 352.727
270 0 50.0412 13.8086 691 55.5803 1318.41 353.136
271 0 49.1255 11.949 587 59.339 1318.46 349.988
272 0 51.1003 10.6653 545 60.3376 1318.17 351.572
273 0 51.0186 10.7216 547 61.2907 1317.62 349.086
274 0 54.0516 11.785 637 59.1931 1317.05 349.757
275 0 56.075 12.8399 720 58.7444 1317.32 345.967
276 0 58.0334 14.9914 870 55.8184 1317.77 346.607
277 0 60.0987 12.8788 774 58.3256 1317.33 345.183
278 0 62.1305 14.212 883 57.0951 1317.25 344.106
279 0 63.0977 14.5806 920 56.0739 1316.98 345.14
280 0 66.0955 12.5727 831 57.6835 1317.81 345.987
281 0 68.0976 13.7303 935 56.754 1318.04 343.214
282 0 71.0391 14.6961 1044 55.0862 1318.01 342.943
283 0 73.0481 12.4165 907 57.5193 1317.66 341.698
284 0 75.3445 14.0952 1062 55.2928 1317.87 340.667
285 0 76.1442 11.754 895 58.2447 1317.39 339.287
286 0 76.1203 12.9138 983 56.9929 1317.75 338.134
287 0 79.1893 12.931 1024 57.1162 1317.7 337.124
288 0 82.1655 16.6615 1369 52.6501 1317.16 335.075
289 0 85.3217 12.8689 1098 56.4472 1317.15 335.461
290 1 49.1324 13.6366 670 54.6224 1316.89 352.47
291 0 48.0887 12.8097 616 55.4886 1317.73 352.789
292 0 49.144 12.0462 592 57.0203 1317.49 351.061
293 0 53.3342 13.2748 708 54.2302 1317.48 352.422
294 0 52.121 12.2791 640 56.4922 1317 349.975
295 0 56.1598 13.7643 773 53.978 1316.89 351.123
296 0 57.0737 12.5627 717 55.7127 1316.75 349.378
297 0 55.0591 12.3685 681 57.6784 1317.31 344.812
298 0 59.1116 13.1616 778 55.0591 1317.74 349.281
299 0 61.095 13.0944 800 56.0038 1318.12 342.224
300 0 61.095 13.0944 800 164.038 1319.12 342.224
301 0 69.2033 15.5484 1076 51.9916 1318.1 344.548
302 0 68.1185 14.1665 965 54.1078 1317.53 343.726
303 0 72.0861 14.3301 1033 53.8064 1317.61 338.816
304 0 75.1049 12.7688 959 55.3535 1317.33 338.158
305 0 76.2008 13.0576 995 55.2935 1317.09 337.969
306 0 78.1122 13.4934 1054 55.1385 1317.26 335.876
307 0 81.0546 15.1873 1231 53.2738 1317.07 334.873
308 0 85.1888 14.7789 1259 53.1668 1318.02 336.969
309 0 88.1703 13.3151 1174 54.2743 1317.91 335.935
310 0 87.0941 12.986 1131 56.008 1317.46 330.974
311 1 51.0254 11.4061 582 55.3076 1317.35 349.957
312 0 52.0839 11.2319 585 54.3197 1317.73 353.325
313 0 54.1335 11.6564 631 54.8368 1317.5 350.588
314 0 56.0429 13.4361 753 52.9522 1317.37 352.629
315 0 57.1013 13.2046 754 54.3077 1317.06 349.785
316 0 58.078 13.7401 798 54.6817 1317.13 345.202
317 0 60.0973 13.1453 790 55.3228 1317.2 344.784
318 0 64.0317 13.8837 889 54.0484 1316.6 342.573
319 0 62.0553 14.4065 894 54.7282 1317 340.341
320 0 65.0898 11.0002 716 57.9679 1317.94 342.356
321 0 65.0898 11.0309 718 164.127 1318.94 342.216
322 0 67.069 13.5383 908 55.707 1317.62 341.08
323 0 72.1447 12.4056 895 56.7877 1317.21 338.178
324 0 76.2904 12.8063 977 55.3685 1317.8 340.363
325 0 78.1356 15.3451 1199 52.749 1317.06 338.783
326 0 80.1496 14.0737 1128 54.2296 1317.4 336.435
327 0 81.1714 11.6543 946 57.2304 1316.96 334.59
328 0 83.095 12.6 1047 56.0755 1317.25 333.375
329 0 86.1378 11.5977 999 57.0871 1317.56 332.71
330 0 89.166 13.4356 1198 55.2471 1317.75 330.035
331 1 47.0903 9.06768 427 57.2436 1317.16 351.663
332 0 47.125 10.695 504 56.0417 1317.64 349.609
333 0 49.1097 11.7696 578 54.8201 1317.75 348.651
334 0 51.0694 10.1235 517 55.528 1317.37 352.244
335 0 51.0324 12.639 645 54.2217 1317.68 349.605
336 0 54.148 9.6033 520 57.1346 1317.61 348.433
337 0 57.2157 10.941 626 55.3578 1317.58 347.206
338 0 57.1474 12.7215 727 53.6768 1316.87 346.963
339 0 59.1542 12.9323 765 53.4641 1316.88 345.093
340 0 61.1115 13.909 850 52.84 1316.91 344.764
341 0 62.1951 11.6569 725 55.1628 1316.98 343.469
342 0 62.1103 12.3007 764 54.4882 1317.26 344.186
343 0 66.163 12.575 832 53.7151 1317.03 343.839
344 0 69.1366 11.3688 786 54.7824 1317.74 341.305
345 0 71.1836 13.2896 946 53.2537 1316.66 338.292
346 0 72.1303 12.3249 889 54.4297 1316.54 338.634
347 0 73.0703 11.1673 816 56.2108 1317.15 336.896
348 0 77.1594 11.4438 883 54.7826 1316.72 338.565
349 0 77.067 11.211 864 56.4988 1316.93 333.141
350 0 82.2158 13.1727 1083 53.5328 1316.98 338.344
351 0 84.0994 10.6303 894 56.2729 1316.82 333.548
352 0 85.1032 10.5871 901 57.3052 1316.26 330.23
353 0 91.0691 13.0999 1193 54.3604 1316.8 331.077
354 1 47.0479 9.28841 437 56.3593 1316.94 349.444
355 0 52.0603 9.71951 506 56.6759 1316.91 347.53
356 0 56.2303 12.2532 689 53.6168 1316.89 348.048
357 0 56.2303 12.271 690 155.79 1317.89 348.01
358 0 59.0839 10.1889 602 55.7326 1317.16 347.281
359 0 58.1317 10.2182 594 56.3586 1317.56 347.007
360 0 63.2269 11.4508 724 55.1091 1316.93 343.311
361 0 65.1408 14.1847 924 52.3084 1317.19 343.361
362 0 66.0571 10.0216 662 56.9366 1317.45 340.888
363 0 68.081 12.9698 883 53.9139 1317.36 340.58
364 0 71.0649 11.6513 828 54.8019 1317.01 342.755
365 0 72.0658 13.3073 959 53.5881 1316.99 340.968
366 0 72.0658 13.3073 959 159.765 1316.99 340.968
367 0 77.0907 12.6734 977 54.2886 1317.19 338.401
368 0 80.1869 12.7577 1023 54.1183 1317.62 338.839
369 0 82.2042 13.7827 1133 53.4413 1318.21 336.816
370 0 84.2869 12.3863 1044 54.3084 1318.45 337.728
371 0 86.2163 11.7147 1010 55.6416 1318.37 331.43
372 0 86.1982 11.1371 960 56.3833 1318.09 329.546
373 0 89.2876 10.4046 929 57.4349 1317.73 327.191
374 0 93.2143 12.6912 1183 55.0254 1318.33 326.472
375 0 96.1006 11.592 1114 56.4838 1317.82 324.297
376 1 54.2537 10.9117 592 54.7956 1317.51 348.63
377 0 56.1186 12.3667 694 53.5879 1317.58 348.683
378 0 55.3071 9.58286 530 58.2264 1317.14 344.587
379 0 58.11 12.0978 703 54.7895 1317.32 344.07
380 0 61.0692 12.1829 744 55.0309 1317.66 342.321
381 0 63.0509 12.3234 777 54.3848 1317.18 344.646
382 0 67.1554 12.3743 831 53.8797 1317.32 343.886
383 0 67.0202 12.3396 827 55.8888 1317.1 339.156
384 0 70.124 12.7916 897 54.223 1316.75 339.639
385 0 71.1081 15.4413 1098 52.2277 1317.03 336.219
386 0 73.1366 11.7451 859 55.9546 1316.35 335.98
387 0 75.1125 12.6743 952 55.0347 1316.3 336.652
388 0 76.0979 11.0647 842 56.4537 1316.75 335.178
389 0 84.3497 13.361 1127 53.567 1316.57 335.421
390 0 85.2564 14.6734 1251 52.7866 1316.53 330.289
391 0 87.0853 12.6772 1104 54.4529 1316.21 330.234
392 0 91.1483 13.9662 1273 53.1163 1316.45 329.852
393 1 49.126 10.524 517 54.058 1316.66 349.455
394 0 49.0855 10.0437 493 55.6775 1316.5 346.931
395 0 52.0589 11.3525 591 54.4332 1316.67 344.367
396 0 52.0584 9.75827 508 56.2441 1316.66 345.136
397 0 52.0584 9.75827 508 132.768 1317.66 345.136
398 0 58.1274 11.8877 691 53.6831 1317.4 344.35
399 0 59.0158 11.4037 673 53.9688 1317.24 342.242
400 0 63.097 16.1656 1020 49.0794 1317.46 342.987
401 0 65.075 11.8325 770 52.9091 1316.77 343.052
402 0 66.0534 12.172 804 52.7301 1317.12 342.583
403 0 67.1477 11.5417 775 53.9071 1316.81 339.192
404 0 70.1352 11.82 829 53.421 1316.53 337.131
405 0 74.0458 12.8704 953 51.8206 1316.54 337.918
406 0 74.2578 11.7429 872 53.3257 1316.29 335.163
407 0 75.1176 12.0345 904 53.1847 1316.66 335.129
408 0 80.1266 12.0809 968 52.6436 1316.21 334.512
409 0 81.1034 15.9549 1294 48.6893 1316.58 335.922
410 0 84.1549 13.7247 1155 50.619 1317.44 335.311
411 0 87.1824 14.9801 1306 48.2198 1317.09 338.982
412 0 91.2734 13.4322 1226 50.5808 1317.13 330.693
413 1 53.0337 11.389 604 50.2053 1317.31 350.545
414 0 53.0337 11.389 604 142.502 1316.31 350.545
415 0 51.042 12.0097 613 51.9918 1317.38 344.375
416 0 55.0567 13.8403 762 48.8845 1317.52 349.123
417 0 57.0519 12.9707 740 49.7676 1317.43 345.514
418 0 58.0629 12.1076 703 51.3357 1317.99 341.358
419 0 62.1434 13.5815 844 49.404 1317.64 344.514
420 0 62.0683 12.0673 749 51.5234 1317.87 342.503
421 0 64.0294 13.3376 854 50.2424 1317.78 339.828
422 0 66.1317 12.0215 795 51.5723 1317.44 339.66
423 0 66.0362 11.9934 792 52.3283 1317.38 338.086
424 0 72.2881 13.0312 942 50.5212 1317.49 339.05
425 0 73.2064 11.8023 864 51.6979 1317.58 340.807
426 0 75.1008 11.5179 865 52.2231 1317.65 339.486
427 0 78.1362 17.5719 1373 47.4086 1317.57 335.687
428 0 80.1306 11.3814 912 52.9156 1317.24 333.239
429 0 83.1105 14.5469 1209 49.8726 1317.76 332.731
430 0 86.2285 13.3367 1150 51.3704 1318.01 330.002
431 0 87.188 12.8802 1123 51.984 1318.06 328.822
432 1 141.367 9.07569 1283 53.6142 1317.68 313.73
433 0 143.186 8.49946 1217 53.2473 1317.77 322.554
434 0 143.934 13.3047 1915 45.9342 1317.03 319.52
435 0 140.655 12.9679 1824 46.5329 1316.8 311.235
436 0 143.683 17.4064 2501 43.4398 1316.12 306.269
437 0 135.726 26.6714 3620 39.2177 1316.45 300.388
438 0 138.739 24.9533 3462 40.2516 1316.34 300.244
439 0 132.222 19.921 2634 44.6409 1316.85 313.683
440 0 133.171 22.2572 2964 43.6515 1316.76 304.737
441 0 132.326 19.0816 2525 46.9402 1316.8 308.278
442 1 70.1166 14.4188 1011 48.7695 1317.57 347.178
443 0 69.1186 13.7734 952 51.2363 1317.2 341.709
444 0 70.1316 12.6191 885 52.3119 1317.05 342.527
445 0 70.3197 10.0399 706 55.5992 1317.09 338.344
446 0 76.1758 13.3638 1018 51.2721 1316.98 340.273
447 0 81.2022 15.0981 1226 50.1338 1317.15 339.184
448 0 85.0491 12.628 1074 53.1732 1316.5 333.722
449 0 85.0491 12.628 1074 148.257 1316.5 333.722
450 0 90.1613 12.8769 1161 53.0336 1316.75 332.765
451 0 95.1449 13.7475 1308 52.2408 1317.3 329.421
452 0 97.3075 12.7945 1245 52.91 1316.63 331.682
453 0 100.089 12.1093 1212 54.288 1316.77 325.445
454 0 105.344 14.6188 1540 50.6422 1317.17 329.443
455 0 111.129 10.3753 1153 55.327 1316.99 322.052
456 1 57.2423 11.6347 666 52.7943 1316.87 347.249
457 0 66.1912 12.9624 858 51.0315 1317.49 345.146
458 0 62.078 10.664 662 55.4048 1317.07 341.453
459 0 64.1369 11.3195 726 53.9256 1316.95 344.474
460 0 64.1369 11.4287 733 150.487 1316.96 344.297
461 0 69.0394 14.0934 973 51.3433 1317.39 340.781
462 0 74.0808 12.1489 900 52.63 1317.63 338.862
463 0 76.0911 14.1015 1073 50.8229 1317.57 336.37
464 0 75.1275 10.9547 823 54.8056 1317.7 333.158
465 0 86.0905 12.6727 1091 50.8323 1317.66 335.625
466 0 88.0874 13.1801 1161 50.6133 1317.57 333.366
467 0 89.1619 11.6081 1035 52.6184 1317.23 330.548
468 0 90.1889 12.5514 1132 51.9276 1316.85 331.714
469 0 93.1324 11.0058 1025 53.7132 1317.17 323.722
470 0 95.1055 12.0393 1145 52.8585 1316.68 325.255
471 1 52.043 9.91488 516 52.9961 1316.96 347.767
472 0 55.1962 9.67457 534 52.1948 1317.12 350.013
473 0 54.1011 10.3695 561 53.1515 1316.43 347.242
474 0 56.0559 10.7214 601 53.2047 1316.43 346.404
475 0 59.1013 12.1655 719 52.3463 1316.46 344.38
476 0 62.0325 11.8164 733 52.3588 1317.04 344.547
477 0 61.0919 12.5876 769 52.1847 1317.2 344.233
478 0 65.0501 13.897 904 50.7777 1316.62 342.125
479 0 66.1041 12.0416 796 52.8643 1316.83 342.597
480 0 66.0754 12.289 812 53.5542 1316.68 337.839
481 0 71.1296 11.472 816 54.3015 1315.71 337.619
482 0 73.1317 13.0997 958 52.5355 1316.98 338.522
483 0 73.1317 13.0586 955 152.373 1317.98 338.56
484 0 77.1079 11.3866 878 54.1651 1316.66 338.252
485 0 79.0973 10.9106 863 54.8343 1316.57 336.673
486 0 83.0865 11.0608 919 54.7911 1316.93 335.854
487 1 45.0625 11.1179 501 53.1637 1316.71 351.2
488 0 48.0514 11.1131 534 52.9045 1316.85 350.208
489 0 48.0705 11.2751 542 52.6697 1317.21 351.054
490 0 49.157 10.619 522 54.751 1317.11 347.9
491 0 53.1199 12.3682 657 51.2938 1317.18 350.588
492 0 52.1158 11.7047 610 53.318 1317.65 347.562
493 0 55.0796 10.8025 595 54 1317.68 346.321
494 0 58.0509 11.5588 671 52.7377 1317.56 346.362
495 0 56.0585 12.0588 676 144.967 1316.55 346.322
496 0 61.0798 12.3772 756 52.541 1317.11 344.175
497 0 63.0894 12.8389 810 52.2333 1316.88 340.747
498 0 63.0316 10.1219 638 54.7006 1317.39 343.746
499 0 64.1188 11.1668 716 52.7961 1317.18 343.335
500 0 68.1249 11.1266 758 53.0303 1316.69 338.736
501 0 68.1695 10.9433 746 53.6716 1316.8 338.716
502 0 71.1346 10.698 761 54.1038 1317.06 338.695
503 0 72.1541 10.9765 792 54.5114 1317.37 334.49
504 0 76.1008 11.0906 844 54.1789 1316.79 335.012
505 1 40.0881 8.80561 353 52.1756 1317.08 354.972
506 0 40.0491 10.9615 439 50.3075 1317.12 354.968
507 0 40.0709 10.3816 416 52.4591 1316.6 351.74
508 0 43.0948 12.0896 521 49.3781 1317.48 355.05
509 0 42.0356 9.92015 417 52.8393 1317.47 350.134
510 0 45.0179 11.1289 501 51.2894 1317.19 350.551
511 0 47.0395 10.7356 505 51.5663 1317.36 348.796
512 0 48.0332 13.5739 652 49.0322 1317.56 350.365
513 0 49.1493 11.1904 550 51.2782 1317.19 350.073
514 0 53.0842 11.6796 620 51.0194 1317.3 348.171
515 0 51.0716 13.6083 695 50.0878 1316.68 344.937
516 0 57.2569 13.9896 801 49.7978 1317.09 346.913
517 0 56.0683 10.8439 608 53.3174 1316.96 346.155
518 0 60.0692 13.6842 822 47.5122 1316.3 342.356
519 0 60.1248 14.3036 860 49.7465 1317.18 344.479
520 0 62.1304 12.522 778 52.0257 1317.12 341.387
521 0 63.1416 11.783 744 52.8495 1316.93 342.765
522 0 65.1076 14.3608 935 50.7989 1316.59 341.497
523 0 69.2307 13.7656 953 51.0944 1316.5 338.812
524 0 71.0969 11.9555 850 52.8576 1316.22 339.207
525 0 72.1297 9.9543 718 54.4095 1316.18 340.021
526 1 39.0571 9.16606 358 52.0028 1315.77 355.796
527 0 38.028 8.65153 329 53.2675 1316.54 354.41
528 0 40.0341 11.2154 449 51.0356 1316.92 353.967
529 0 41.0459 9.16047 376 52.1037 1316.18 355.654
530 0 41.0459 9.16047 376 137.191 1315.18 355.654
531 0 46.1343 9.29893 429 52.1841 1317.1 351.897
532 0 47.079 12.4472 586 49.7099 1317.11 350.727
533 0 49.0781 10.0656 494 51.6053 1317.85 351.049
534 0 48.0918 12.0811 581 49.8434 1317.2 351.692
535 0 48.1272 11.4904 553 51.2242 1317.56 348.579
536 0 50.0419 13.9283 697 48.878 1317.38 348.753
537 0 51.0457 11.8913 607 50.8435 1317.59 347.236
538 0 51.0256 11.0729 565 52.4531 1317.21 343.26
539 0 55.0282 12.5572 691 50.3719 1317.12 343.025
540 0 56.0687 12.4668 699 50.711 1317.37 344.155
541 0 53.0703 9.6099 510 53.9235 1317.25 340.894
542 0 54.2213 9.31368 505 54.2653 1316.67 340.964
543 0 56.1235 9.14055 513 54.2846 1316.83 339.491
544 0 58.0591 9.50755 552 53.7482 1316.82 335.525
545 0 61.0964 11.4737 701 51.796 1316.89 337.934
546 0 63.0942 12.6319 797 96.8821 1316.9 335.783
547 0 66.053 10.2493 677 52.966 1316.82 334.691
548 0 72.2931 12.145 878 49.8109 1317.07 339.407
549 1 36.0101 11.0802 399 49.0401 1316.25 353.404
550 0 36.0293 8.6041 310 51.1355 1316.82 354.155
551 0 38.0228 10.0992 384 49.737 1316.57 354.253
552 0 40.0388 14.5858 584 46.5719 1316.51 352.01
553 0 45.0758 10.3603 467 49.0535 1316.95 351.002
554 0 45.177 11.0897 501 49.3792 1317.26 349.082
555 0 46.042 12.7927 589 48.0119 1316.58 349.615
556 0 47.0127 11.7628 553 49.1826 1316.29 347.74
557 0 48.0974 10.3956 500 49.472 1316.22 349.902
558 0 49.0912 10.6333 522 50.0977 1316.6 347.661
559 0 49.0707 11.4732 563 49.5595 1316.69 347.847
560 0 52.0878 11.231 585 50.1128 1317.2 345.489
561 0 50.202 9.50162 477 52 1317.2 344.784
562 0 53.1081 10.2809 546 51.5568 1317.23 343.282
563 0 56.1736 10.8414 609 51.2841 1316.83 344.535
564 0 60.1513 11.8701 714 50.1779 1316.62 344.845
565 0 61.0362 11.8291 722 49.9307 1317.28 345.501
566 0 62.346 10.9069 680 50.8559 1316.66 345.981
567 0 61.0634 10.8412 662 52.3369 1316.78 340.804
568 0 66.1356 11.1287 736 51.1495 1316.65 343.395
569 0 63.0477 11.0075 694 52.9914 1316.37 336.82
570 0 69.1668 11.5807 801 51.6729 1315.74 339.075
571 0 71.0903 13.0116 925 51.0746 1315.76 335.326
572 0 70.0439 10.9788 769 53.3082 1315.36 334.428
573 0 74.0969 13.4553 997 50.7974 1315.1 336.555
574 0 77.148 11.9251 920 52.1293 1315.48 334.489
575 1 40.1043 10.1735 408 53.0466 1315.54 352.377
576 0 42.1368 12.6493 533 51.2758 1314.98 351.06
577 0 42.1403 11.5804 488 52.9406 1315.62 350.475
578 0 45.1724 11.0244 498 52.7088 1316.2 351.62
579 0 45.1724 11.0908 501 141.222 1316.19 351.497
580 0 48.0719 12.0445 579 51.9706 1316.38 350.204
581 0 48.0949 12.6417 608 51.5855 1315.8 348.171
582 0 48.1343 11.177 538 53.6636 1316.3 345.232
583 0 50.0781 10.7033 536 53.709 1315.95 347.7
584 0 53.169 12.8458 683 51.5666 1316.01 345.328
585 0 54.1302 11.6756 632 52.6978 1316.58 345.097
586 0 55.0971 12.1603 670 52.4075 1316.42 344.863
587 0 58.1483 14.6006 849 49.5689 1316.25 344.455
588 0 60.1679 13.0468 785 51.1478 1316.78 342.265
589 0 63.0592 12.2107 770 51.5948 1316.3 340.413
590 0 65.0442 12.5914 819 51.2723 1316.51 337.747
591 0 65.1974 13.16 858 50.007 1316.56 343.96
592 0 64.0935 12.4818 800 52.0138 1316.38 338.19
593 0 65.074 11.1719 727 53.8666 1315.99 333.992
594 0 71.2802 11.9669 853 52.7034 1316.2 335.043
595 0 75.1616 10.7502 808 53.63 1316.33 334.88
596 1 36.1503 10.4563 378 53.3545 1316.05 351.124
597 0 41.078 12.1963 501 50.8523 1315.99 350.461
598 0 39.1309 10.9376 428 52.6308 1316.13 352.864
599 0 40.039 9.09114 364 55.4505 1315.92 350.519
600 0 38.0373 9.51698 362 135.68 1315.92 350.412
601 0 41.0455 8.91694 366 56.0601 1316.17 348.295
602 0 41.0668 11.2743 463 54.6069 1315.76 344.879
603 0 44.0206 9.63186 424 55.875 1315.96 346.047
604 0 46.0793 13.5202 623 52.4141 1316.3 344.746
605 0 48.0164 11.6627 560 54.3679 1316.12 344.979
606 0 53.1192 11.879 631 53.6593 1316.4 344.813
607 0 56.0526 12.2207 685 52.9635 1316.84 342.898
608 0 56.1464 12.3605 694 53.4741 1315.99 342.383
609 0 58.0524 11.2657 654 54.6376 1315.67 341.843
610 0 60.1699 11.3512 683 54.5198 1316.13 340.833
611 0 61.0375 11.1898 683 55.1274 1316.41 339.511
612 0 64.0427 12.804 820 53.7451 1315.59 338.383
613 0 65.1291 12.3447 804 54.347 1316.18 336.659
614 0 68.0712 12.9423 881 53.4404 1315.78 336.087
615 0 67.2263 11.1861 752 55.5426 1315.74 336.105
616 0 77.2112 12.4075 958 52.9958 1315.54 338.039
617 0 75.0579 11.6843 877 55.0604 1315.6 331.933
618 1 39.0835 8.59698 336 55.3304 1315.84 351.598
619 0 41.0403 9.33229 383 55.6136 1315.61 349.099
620 0 44.0592 12.1201 534 52.2884 1315.78 350.356
621 0 44.0869 11.6588 514 52.0681 1315.99 351.28
622 0 47.1113 11.9929 565 51.908 1315.84 350.503
623 0 43.0316 8.85395 381 56.7533 1316.14 348.016
624 0 48.0594 14.0243 674 50.7003 1316.22 348.466
625 0 49.0126 12.0785 592 53.1858 1316.34 347.204
626 0 54.1647 12.1481 658 52.2964 1315.88 346.179
627 0 54.1647 12.2774 665 144.889 1315.87 346
628 0 56.1068 12.1732 683 53.0088 1315.82 345.061
629 0 57.0574 13.8282 789 51.962 1316.04 341.833
630 0 57.1058 12.293 702 53.1396 1316.07 345.318
631 0 61.1298 12.269 750 53.2547 1315.88 343.167
632 0 61.3005 13.8335 848 52.092 1316.1 340.948
633 0 66.2282 12.6532 838 52.6909 1316.06 342.516
634 0 65.0436 11.7921 767 53.9322 1315.69 342.142
635 0 69.1443 13.5658 938 52.5586 1316.08 337.609
636 0 72.0666 14.0981 1016 51.7264 1316 338.383
637 0 72.0666 14.1952 1023 146.043 1316.98 338.382
638 0 76.0478 14.7144 1119 51.353 1315.59 335.264
639 0 80.1658 13.1103 1051 52.6879 1315.63 334.365
640 0 81.2527 11.4458 930 54.2108 1315.62 334.07
641 0 85.1732 12.9266 1101 52.8165 1315.85 333.034
642 0 85.1732 13.2319 1127 136.541 1316.87 332.952
643 1 48.0675 11.3174 544 53.5625 1315.33 346.478
644 0 50.0865 10.3022 516 53.6705 1315.55 349.597
645 0 50.1112 12.4323 623 52.5265 1315.19 347.562
646 0 55.2599 12.3779 684 51.0102 1315.69 349.673
647 0 55.1241 12.4991 689 51.3541 1315.64 346.927
648 0 57.0731 12.3351 704 51.4545 1315.77 346.473
649 0 60.0725 11.7358 705 51.1418 1315.86 346.918
650 0 61.0258 14.9773 914 49.1619 1315.4 344.405
651 0 65.1612 14.1342 921 49.3431 1315.81 344.585
652 0 64.1638 12.5772 807 51.4672 1316.14 340.933
653 0 65.0488 10.6382 692 53.1142 1315.56 343.194
654 0 68.0732 12.3984 844 51.3981 1315.97 340.284
655 0 70.1686 13.4248 942 50.4427 1315.96 338.781
656 0 71.1127 11.1935 796 52.5867 1316.22 335.95
657 0 74.1262 12.5731 932 50.8991 1316.8 336.643
658 0 77.1549 12.7406 983 50.3032 1316.93 336.891
659 0 79.1341 11.8407 937 50.6094 1316.48 337.393
660 0 82.1759 13.0452 1072 50.4021 1316.62 332.373
661 1 45.0992 10.7541 485 51.5711 1316.1 348.39
662 0 49.119 11.1769 549 50.7286 1316.22 348.645
663 0 50.1154 12.571 630 50.219 1316.07 345.663
664 0 48.025 12.1603 584 51.4281 1315.37 346.885
665 0 53.05 10.4995 557 52.3645 1316.32 345.998
666 0 53.1855 10.8864 579 52.3851 1316.52 347.088
667 0 54.0556 10.6742 577 53.4853 1315.87 344.513
668 0 58.1226 12.2844 714 51.0308 1316.14 347.207
669 0 59.1766 13.0795 774 51.124 1316.03 342.814
670 0 60.0842 11.384 684 53.2193 1315.49 340.096
671 0 60.1068 11.1468 670 54.2985 1315.53 339.546
672 0 68.0546 13.0483 888 51.4032 1315.31 337.98
673 0 68.1684 12.1464 828 52.4577 1315.16 337.785
674 0 69.1161 12.0956 836 52.8589 1314.89 337.206
675 0 72.0921 12.4702 899 52.4727 1314.99 335.938
676 0 76.2838 18.772 1432 46.8638 1315.46 333.653
677 0 75.2479 12.4522 937 52.5539 1315.52 333.936
678 0 78.0781 10.7072 836 54.4964 1315.18 333.129
679 0 83.1817 13.6088 1132 51.97 1315.49 329.764
680 1 47.156 9.64883 455 53.2527 1315.26 348.853
681 0 46.0492 10.7711 496 53.3851 1314.95 347.812
682 0 50.05 11.9281 597 52.4791 1315.09 345.454
683 0 51.0458 10.6571 544 53.6967 1314.63 346.785
684 0 52.0834 12.3072 641 52.663 1315.06 344.14
685 0 54.1061 12.1243 656 52.6052 1315.31 343.835
686 0 57.1229 14.7576 843 50.019 1315.08 342.726
687 0 59.0478 13.0572 771 51.2179 1315.33 344.472
688 0 61.124 14.5769 891 48.3502 1315.53 347.478
689 0 62.0882 11.1454 692 53.6012 1315.31 341.71
690 0 63.1137 13.341 842 51.5463 1314.77 337.384
691 0 61.0857 12.0978 739 53.9215 1314.88 337
692 0 65.0648 10.0361 653 55.317 1314.42 331.089
693 0 71.0986 13.2211 940 51.4064 1314.83 338.372
694 0 70.0715 13.1723 923 52.4984 1315.16 333.073
695 0 74.1132 14.6668 1087 50.058 1315.46 336.934
696 0 78.0462 13.0564 1019 51.4289 1315.74 334.359
697 0 81.1575 13.3198 1081 50.7549 1315.64 335.117
698 0 81.1415 12.2872 997 52.7693 1315.9 329.455
699 1 42.056 12.9113 543 51.1252 1315.52 349.838
700 0 41.0954 12.6048 518 52.7896 1315.39 347.131
701 0 46.0933 12.4964 576 52.2517 1316.01 348.96
702 0 47.0116 11.1462 524 54.1489 1315.16 346.92
703 0 47.0116 11.1462 524 138.45 1314.16 346.92
704 0 51.0679 14.9213 762 50.2415 1315.22 347.65
705 0 51.0271 11.9936 612 52.6601 1315.63 348.729
706 0 56.1139 13.9894 785 50.9299 1316.13 344.254
707 0 58.1305 13.5041 785 51.4586 1316.24 343.484
708 0 57.1791 13.5539 775 51.5832 1315.85 344.751
709 0 60.0727 12.8178 770 52.3013 1315.6 341.982
710 0 63.0742 14.8397 936 50.0256 1315.83 342.204
711 0 65.1315 12.421 809 51.0457 1315.85 341.066
712 0 65.0879 13.5663 883 51.3194 1315.97 337.749
713 0 72.1599 15.826 1142 48.1068 1316.39 339.406
714 0 73.1362 22.8341 1670 43.2263 1315.64 340.275
715 0 76.1242 15.1726 1155 48.8225 1316.96 336.544
716 0 78.2059 14.8071 1158 49.5743 1316.9 334.339
717 0 76.1023 13.9812 1064 51.0367 1316.48 331.891
718 0 81.2622 14.767 1200 50.1025 1316.78 331.993
719 0 83.1006 14.3441 1192 50.6367 1316.6 330.109
720 0 87.2399 13.824 1206 50.772 1316.36 330.956
721 0 89.0927 13.3793 1192 51.0839 1316.69 330.944
722 0 90.0965 14.1515 1275 147.613 1317.8 329.976
723 1 47.0653 12.0046 565 51.8991 1316.56 348.242
724 0 49.0689 14.4898 711 49.9789 1316.59 347.748
725 0 50.2596 17.0913 859 47.2328 1316.17 349.561
726 0 53.0478 13.1957 700 51.1414 1316.4 346.417
727 0 53.0329 13.9348 739 50.2341 1316.51 347.599
728 0 56.0871 14.9945 841 50.201 1316.2 343.005
729 0 56.0321 13.0818 733 52.5457 1316.1 342.873
730 0 60.0838 15.1788 912 49.9496 1315.86 343.066
731 0 61.0912 14.3392 876 50.8014 1315.55 344.041
732 0 61.0177 13.5862 829 52.1677 1316.15 340.166
733 0 66.106 16.0197 1059 48.8763 1316.36 343.644
734 0 68.2086 13.664 932 51.7361 1316.59 339.29
735 0 69.138 12.8728 890 51.5528 1316.66 342.664
736 0 69.1031 12.3294 852 53.2359 1316.64 339.453
737 0 74.1264 13.504 1001 52.3736 1316.84 336.084
738 0 74.1264 13.4905 1000 165.394 1315.83 336.079
739 1 42.0437 12.8676 541 50.1682 1316.17 353.76
740 0 42.0151 12.9001 542 53.3137 1316.22 347.843
741 0 44.125 13.4391 593 52.5211 1316.5 347.688
742 0 46.0518 11.3351 522 53.4847 1316.65 349.906
743 0 48.0584 12.901 620 52.6032 1316.68 347.429
744 0 47.0787 13.3181 627 53.0383 1316.99 345.885
745 0 51.1324 12.9468 662 52.8746 1317.18 346.31
746 0 49.095 12.4656 612 54.2042 1316.72 345.16
747 0 53.0421 10.897 578 54.5346 1316.73 345.685
748 0 53.0144 24.6914 1309 23.673 1314.92 523.999
749 0 57.1326 13.2149 755 52.7338 1316.18 341.865
750 0 58.0242 15.3557 891 51.2346 1316.02 341.804
751 0 62.0679 13.4208 833 52.0744 1316.71 342.804
752 0 64.0862 10.954 702 54.386 1316.38 342.657
753 0 65.1346 12.9731 845 53.1811 1316.42 337.467
754 0 69.1151 13.3256 921 52.2009 1316.14 336.624
755 0 65.0262 10.2113 664 56.491 1315.83 333.634
756 0 72.0881 12.776 921 53.392 1315.93 332.445
757 0 73.0601 10.2518 749 55.8371 1316.48 335.295
758 0 76.1016 11.3532 864 54.9329 1315.85 331.053
759 0 84.0966 14.4477 1215 51.2708 1315.82 332.172
760 1 42.048 12.129 510 52.2843 1316.08 351.18
761 0 43.1655 10.564 456 54.4934 1316.25 349.033
762 0 50.1822 14.9256 749 49.3445 1315.95 348.869
763 0 50.1349 10.9505 549 52.9308 1315.54 345.829
764 0 53.0999 11.356 603 52.4279 1315.17 346.025
765 0 53.0561 13.6836 726 50.6928 1315.87 345.234
766 0 54.0812 10.4657 566 54.2049 1316.18 342.663
767 0 57.0279 12.5903 718 51.9053 1316.14 341.733
768 0 56.0379 11.2781 632 54.1234 1315.72 340.334
769 0 61.0315 11.961 730 52.6233 1315.29 341.971
770 0 62.0464 11.2658 699 53.3219 1316.06 342.991
771 0 64.1162 13.3508 856 51.472 1315.64 339.223
772 0 66.0996 12.7384 842 52.234 1315.4 339.221
773 0 68.1052 12.9652 883 52.3182 1315.92 339.168
774 0 69.1864 12.5747 870 53.3828 1316.15 334.08
775 0 75.233 14.5548 1095 50.9187 1316.67 335.63
776 0 77.0459 12.551 967 53.2947 1316.64 335.613
777 0 78.1843 11.1787 874 55.159 1315.98 333.027
778 0 82.097 13.1308 1078 53.0074 1316.26 332.755
779 0 85.1068 13.2774 1130 53.0345 1316.48 330.696
780 0 89.1303 13.3176 1187 52.5383 1315.95 329.535
781 0 92.2598 12.519 1155 53.8978 1316.2 327.535
782 1 48.0299 13.1793 633 51.6888 1316.37 350.036
783 0 49.1229 12.3161 605 52.6579 1316.42 350.74
784 0 49.1229 12.5196 615 152.769 1315.44 350.78
785 0 52.0263 11.9747 623 54.9775 1315.88 344.96
786 0 55.1453 12.4217 685 54.2832 1315.72 344.736
787 0 56.0608 11.7551 659 55.1942 1315.69 343.443
788 0 59.0684 11.6814 690 55.2406 1315.58 341.958
789 0 59.0904 12.574 743 54.8304 1315.23 339.704
790 0 61.0498 11.2859 689 55.8099 1315.91 339.852
791 0 65.0583 12.1891 793 54.8487 1315.89 337.779
792 0 65.0862 13.7817 897 53.5151 1315.93 337.994
793 0 68.2422 13.9064 949 52.3625 1315.75 342.438
794 0 72.26 12.455 900 54.6567 1315.86 336.722
795 0 70.1484 12.1457 852 56.5364 1315.76 334.167
796 0 73.1355 12.4153 908 56.1784 1316.07 334.327
797 0 74.0602 12.8949 955 56.088 1315.9 333.232
798 0 80.3876 14.5669 1171 53.1349 1315.59 335.663
799 0 81.2528 14.0795 1144 54.3068 1316.34 332.321
800 0 82.156 13.8517 1138 54.7355 1315.73 332.464
801 0 83.174 13.2734 1104 56.8306 1315.97 326.861
802 0 86.1463 15.2067 1310 54.0305 1316.14 331.02
803 0 87.1331 16.8822 1471 53.0503 1315.75 330.852
804 0 87.1386 13.2203 1152 58.5634 1315.87 326.668
805 0 89.1051 12.0644 1075 60.173 1315.95 327.408
806 0 93.2786 13.5294 1262 58.7258 1316.14 326.076
807 0 93.1872 12.4159 1157 61.0017 1316.14 325.402
808 0 97.1508 14.9561 1453 57.9876 1316.28 322.926
809 0 97.175 16.4137 1595 58.0915 1316.53 324.323
810 0 100.283 15.1272 1517 60.8293 1316.46 319.334
811 0 100.283 15.1371 1518 160.444 1316.46 319.348
812 0 102.324 14.9134 1526 61.9954 1316.65 321.155
813 0 104.102 13.9671 1454 63.1094 1316.7 322.506
814 0 105.217 12.3174 1296 67.2778 1316.93 318.521
815 0 107.173 12.7271 1364 67.3138 1316.83 315.29
816 0 110.209 13.9735 1540 65.7214 1316.9 316.118
817 0 110.106 12.9148 1422 68.4311 1316.86 311.378
818 0 111.149 13.7653 1530 67.7052 1316.62 313.273
819 0 112.108 14.6376 1641 67.5375 1316.58 309.707
820 0 114.302 13.9892 1599 68.9681 1316.87 310.602
821 0 115.134 14.2617 1642 70.4988 1316.35 310.691
822 0 115.142 13.4963 1554 72.8591 1316.33 310.794
823 0 117.168 14.5346 1703 71.4316 1315.93 308.815
824 0 118.131 15.7283 1858 69.5883 1316.45 307.621
825 0 118.101 15.9102 1879 71.0005 1316.09 305.646
826 0 121.14 16.452 1993 69.843 1315.93 308.14
827 1 55.1261 10.5395 581 81.4303 1316.18 343.141
828 0 58.1094 12.2011 709 78.4795 1316.21 340.963
829 0 59.0291 13.0275 769 77.1313 1316.24 340.815
830 0 55.0552 10.771 593 83.4115 1316.8 340.418
831 0 55.0552 10.7892 594 166.433 1317.81 340.391
832 0 57.0722 11.0562 631 163.7 1318.85 339.398
833 0 59.2133 12.7674 756 81.3135 1317.22 337.783
834 0 54.1053 11.9212 645 82.5566 1316.35 341.722
835 0 54.042 11.0285 596 86.5285 1315.72 342.45
836 0 56.0562 11.3814 638 86.8339 1315.71 341.155
837 0 60.064 12.2703 737 85.9959 1315.8 338.685
