time division length width area intensity CMx CMy
0 0 62.0494 12.9252 802 72.919 134.963 502.445
1 0 65.0936 13.8877 904 71.0221 134.324 501.195
2 0 67.0976 12.8619 863 72.2433 134.298 502.554
3 0 69.0537 14.4091 995 69.5628 133.736 499.387
4 0 71.0835 13.5475 963 70.731 133.673 499.97
5 0 72.0768 13.0139 938 72.0874 133.467 499.201
6 0 75.024 14.0622 1055 70.1403 133.115 498.571
7 0 77.0725 13.883 1070 71.043 133.123 497.921
8 0 80.0617 14.2515 1141 70.1245 132.223 498.306
9 0 81.0633 14.0014 1135 71.1366 132.531 497.418
10 0 83.0912 13.1061 1089 72.3453 132.664 496.032
11 0 85.0747 14.3168 1218 70.6995 133.177 495.204
12 1 44.0264 10.7208 472 72.9661 132.479 517.875
13 0 43.0146 11.531 496 74.0867 132.254 514.994
14 0 45.0158 12.3956 558 73.147 132.443 515.688
15 0 48.0087 11.8937 571 73.8091 132.543 515.422
16 0 47.0377 12.2668 577 74.0901 133.054 514.579
17 0 49.0088 12.0183 589 74.6112 132.657 515.497
18 0 51.0794 13.3518 682 72.9062 132.4 512.935
19 0 52.0437 13.1812 686 73.8717 132.321 512.59
20 0 53.0452 12.8947 684 74.5833 132.07 513.513
21 0 55.0594 12.659 697 75.0918 132.512 510.607
22 0 57.0225 13.8542 790 72.3367 131.944 512.705
23 0 58.0518 13.7808 800 73.5975 131.522 510.869
24 0 61.06 14.5431 888 71.7736 132.319 511.243
25 0 61.1439 13.3292 815 75.1755 131.601 508.575
26 0 61.0913 13.0297 796 76.9749 131.597 509.118
27 0 60.0304 12.8268 770 78.6351 132.474 508.11
28 0 66.1347 13.8808 918 75.9444 131.581 506.434
29 0 69.1067 14.7019 1016 73.998 132.61 508.486
30 0 69.0731 12.9283 893 78.0011 132.019 507.265
31 0 71.0823 13.5899 966 77.5228 132.295 506.664
32 0 72.0701 13.9725 1007 77.577 132.605 504.513
33 0 74.0354 15.4116 1141 75.8685 132.534 503.749
34 0 79.113 15.0923 1194 75.4832 132.514 502.312
35 0 80.0927 12.9725 1039 79.8566 132.734 502.167
36 0 80.0619 13.2772 1063 79.6613 133.262 502.738
37 0 84.0488 15.5386 1306 75.5008 132.518 500.748
38 0 86.0641 13.6178 1172 78.9608 133.331 499.696
39 0 87.1188 13.4873 1175 79.697 133.911 498.157
40 0 91.3142 13.3276 1217 79.6697 133.432 496.503
41 0 92.056 13.8611 1276 79.3064 133.798 494.266
42 1 51.0199 12.2305 624 78.2516 133.49 517.213
43 0 51.0473 13.0859 668 77.9611 133.645 516.293
44 0 51.0309 11.4244 583 80.4974 133.66 517.022
45 0 54.0519 12.155 657 79.1431 133.454 515.361
46 0 56.0289 12.083 677 79.6809 134.211 513.737
47 0 56.028 13.1898 739 78.1137 134.64 512.936
48 0 60.0243 13.3113 799 77.9712 134.048 512.482
49 0 62.0537 14.2941 887 76.4938 134.605 509.851
50 0 65.0886 14.0424 914 75.6433 134.788 510.739
51 0 67.0507 13.5122 906 76.3896 134.407 510.565
52 0 66.0493 12.415 820 80.3451 134.768 506.265
53 0 71.0436 12.4994 888 79.5968 134.493 506.217
54 0 74.0708 12.8256 950 78.9326 134.64 503.471
55 0 77.0537 14.0941 1086 77.0792 134.481 502.481
56 0 78.1056 12.9952 1015 78.6532 134.678 503.733
57 0 81.1289 12.6342 1025 79.8712 135.672 500.756
58 0 85.0859 13.0104 1107 79.0063 134.465 500.161
59 1 44.028 10.4479 460 78.6652 134.667 520.2
60 0 46.0421 11.6415 536 76.9813 134.362 519.076
61 0 46.0859 11.7823 543 78.4475 133.788 518.608
62 0 50.0724 13.5604 679 73.8174 133.589 518.184
63 0 48.101 10.478 504 80.0972 134.179 516.635
64 0 49.0499 11.4985 564 79.3528 133.91 516.106
65 0 52.2325 13.0953 684 76.25 134.186 514.273
66 0 56.0929 11.5166 646 77.5294 134.214 514.932
67 0 56.0709 12.0027 673 77.0238 133.755 514.395
68 0 57.0608 10.4275 595 80.0336 133.872 513.413
69 0 60.0685 11.8198 710 78.0324 134.042 511.277
70 0 60.1395 10.9246 657 79.6134 133.644 512.097
71 0 63.1133 12.8974 814 76.6658 132.796 509.369
72 0 66.1133 11.5559 764 78.7474 133.165 507.437
73 0 68.1195 12.3753 843 76.312 133.355 506.349
74 0 69.068 12.6687 875 76.6606 134.387 504.126
75 0 71.1233 12.4994 889 76.7762 133.875 504.322
76 0 76.094 11.7223 892 76.7937 133.935 503.855
77 0 78.2108 11.6224 909 76.7899 134.176 504.172
78 1 40.0518 10.6612 427 75.3068 133.489 520.382
79 0 41.0854 12.1698 500 72.08 133.704 519.66
80 0 40.0476 10.7122 429 74.6923 134.555 520.394
81 0 43.0109 10.137 436 73.789 134.711 521.25
82 0 43.0664 10.1007 435 75.6828 134.602 519.225
83 0 45.0217 11.4389 515 74.4447 135.025 516.584
84 0 47.0592 11.1137 523 75.2983 135.105 516.256
85 0 47.0492 11.3073 532 74.7481 134.515 515.868
86 0 49.0275 10.7083 525 76.0495 135.333 515.185
87 0 51.0644 11.6519 595 73.6504 135.366 515.109
88 0 53.1694 12.3379 656 72.3247 135.224 513.922
89 0 53.131 12.1775 647 73.4297 134.841 513.74
90 0 54.0631 11.727 634 74.795 135.028 512.076
91 0 56.0852 11.4825 644 73.7189 135.351 513.618
92 0 58.0501 11.5418 670 74.494 135.752 511.164
93 0 61.1953 12.4193 760 72.7526 135.726 510.704
94 0 63.1844 11.1103 702 74.3134 136.031 510.114
95 0 64.0695 11.8465 759 73.5468 134.933 510.476
96 0 65.1118 10.935 712 74.5843 134.487 508.968
97 0 68.1548 11.4005 777 73.3719 134.874 507.804
98 0 71.2962 12.6234 900 72.8289 134.622 503.62
99 0 72.1381 12.684 915 72.6754 134.798 504.072
100 0 75.1701 12.944 973 73.9342 134.45 501.486
101 1 41.0586 11.6175 477 72.7945 134.166 518.857
102 0 40.1425 10.936 439 75.7654 135.034 517.292
103 0 42.0932 9.90658 417 76.1511 135.106 515.966
104 0 44.093 11.2263 495 74.1434 134.366 514.669
105 0 44.0241 10.1535 447 75.7517 133.942 514.957
106 0 44.0653 11.0518 487 74.9815 134.903 514.887
107 0 47.0197 10.9528 515 75.1301 134.864 514.082
108 0 48.0103 10.102 485 76.9113 135.268 513.231
109 0 49.1543 11.8403 582 74.6443 134.49 512.881
110 0 50.0484 11.2092 561 75.8253 133.164 513.128
111 0 52.0406 11.9714 623 75.427 134.462 510.665
112 0 52.0877 11.4614 597 76.9112 134.387 509.667
113 0 54.04 11.9911 648 75.8164 134.606 509.341
114 0 57.0537 12.6898 724 74.2307 134.793 507.49
115 0 57.0493 11.5339 658 77.2234 134.578 507.755
116 0 61.0367 13.4673 822 72.6569 134.773 508.052
117 0 61.1407 10.7294 656 77.5899 134.465 508.073
118 0 63.1273 10.4709 661 78.531 134.628 504.84
119 0 66.0897 12.2863 812 75.3744 135.302 504.68
120 0 66.0487 12.0669 797 75.7541 134.877 503.918
121 0 71.0788 13.4077 953 72.9895 134.675 501.483
122 0 72.1683 13.0667 943 74.0382 134.953 500.158
123 0 73.0927 11.848 866 76.0947 135.244 499.44
124 0 77.1778 12.2963 949 74.1391 134.987 499.124
125 0 79.1178 13.0691 1034 73.4188 134.177 497.5
126 1 38.049 10.066 383 76.5849 134.679 516.864
127 0 37.1666 8.7175 324 77.8642 135.019 516.052
128 0 38.0863 8.58576 327 79.6942 135.979 514.817
129 0 41.0714 11.6139 477 74.0545 135.042 513.497
130 0 44.1641 10.5063 464 75.7888 134.588 513.179
131 0 44.0177 11.8589 522 73.4751 134.86 512.78
132 0 44.0923 10.4327 460 76.0022 134.507 511.611
133 0 47.0159 9.74138 458 75.5393 135.002 513.675
134 0 49.0269 11.6875 573 71.6126 133.574 512.513
135 0 48.0137 10.7261 515 74.3146 134.441 512.233
136 0 48.0192 11.1414 535 74.2131 134.877 510.245
137 0 50.0719 11.4635 574 73.054 134.213 510.192
138 0 52.1639 10.5245 549 74.7505 134.377 507.705
139 0 53.0422 12.1413 644 72.118 134.059 510.436
140 0 53.0447 11.0284 585 75.0274 134.224 507.347
141 0 56.1206 11.5466 648 73.4244 134.949 506.836
142 0 58.0361 11.7341 681 73.2159 134.725 505.135
143 0 61.2158 12.7908 783 71.4138 135.011 504.672
144 0 60.0544 12.2389 735 73.0544 135.189 503.331
145 0 63.2046 11.1068 702 74.7094 134.701 503.707
146 0 65.1728 11.8608 773 72.8564 134.495 503.494
147 0 70.2163 12.8318 901 70.7214 134.597 502.627
148 0 70.1076 12.0386 844 73.2014 134.161 500.276
149 0 72.1213 12.3819 893 72.5767 134.641 499.42
150 0 73.1888 10.999 805 74.9776 134.01 500.763
151 0 75.2209 10.9677 825 74.4715 135.341 499.57
152 0 79.0973 11.7956 933 73.687 135.013 497.167
153 1 39.0749 9.23866 361 75.2327 135.382 518.393
154 0 41.0407 10.4287 428 74.8715 135.287 515.107
155 0 40.0751 10.4803 420 75.0667 136.552 516.005
156 0 42.0405 10.2996 433 74.7321 135.815 515.42
157 0 44.0709 11.7084 516 73.0213 135.186 513.099
158 0 46.0378 10.7737 496 74.3589 135.526 512.472
159 0 47.0973 9.17251 432 78.25 134.725 511.197
160 0 48.0757 12.1267 583 73.3842 135.029 511.218
161 0 48.1337 11.6135 559 74.9553 135.211 509.864
162 0 52.0542 10.8157 563 75.1599 135.281 510.73
163 0 53.0595 11.2138 595 73.4588 135.474 510.788
164 0 55.0949 11.9612 659 72.7527 134.876 508.27
165 0 56.049 11.4186 640 74.4078 134.278 508.38
166 0 55.1417 11.5883 639 74.2598 135.746 509.355
167 0 59.0908 12.6077 745 72.498 134.973 507.609
168 0 61.0936 12.2271 747 72.0054 134.924 507.201
169 0 63.0928 11.2216 708 73.6356 135.237 505.888
170 0 64.1123 12.2909 788 72.5254 134.997 503.123
171 0 67.0562 12.5119 839 71.9976 134.762 503.086
172 0 69.0614 13.698 946 70.3763 135.678 500.739
173 0 71.1074 12.0663 858 73.2564 135.071 500.924
174 0 73.1401 13.2075 966 71.1708 134.935 501.976
175 0 75.0467 12.1658 913 73.7996 134.951 499.337
176 1 38.0078 10.2874 391 73.2685 135.008 516.54
177 0 40.0135 11.3212 453 71.8521 135.355 516.433
178 0 39.0134 10.663 416 74.3894 135.05 516.209
179 0 42.0887 13.1152 552 70.4891 135.134 513.935
180 0 44.0616 11.5066 507 73.6154 135.483 514.783
181 0 44.0065 10.9302 481 74.9314 134.83 515.141
182 0 47.083 12.1063 570 72.7456 134.337 513.449
183 0 49.0412 11.6637 572 73.7098 134.037 513.472
184 0 48.0424 11.7813 566 74.318 133.224 512.806
185 0 49.0319 11.5027 564 75.2908 133.057 511.973
186 0 51.0638 12.0242 614 74.4479 133.863 511.138
187 0 53.0283 11.673 619 73.8756 133.399 511.582
188 0 54.0981 12.311 666 74.9354 133.059 508.107
189 0 57.1195 13.3755 764 72.5144 132.607 510.182
190 0 57.074 11.8968 679 75.9823 131.971 509.526
191 0 59.1582 12.5088 740 75.4378 131.693 508.872
192 0 61.1661 12.981 794 74.8715 132.49 507.707
193 0 63.0814 13.4747 850 73.66 132.414 507.058
194 0 64.2048 12.8339 824 74.6117 132.4 508.727
195 0 68.1186 12.992 885 73.713 132.331 508.279
196 0 69.141 11.802 816 76.0453 131.767 505.359
197 0 71.0524 12.0615 857 75.5543 131.476 506.786
198 1 37.1018 10.1343 376 77.133 131.045 522.588
199 0 40.0502 10.8614 435 73.7747 132.322 522.915
200 0 37.0279 9.77641 362 77.7735 132.285 522.713
201 0 42.0278 12.3728 520 71.9135 131.425 522.304
202 0 41.1373 12.0329 495 74.2869 130.988 521.352
203 0 43.0532 12.8214 552 72.2373 131.313 521.342
204 0 43.0353 13.1985 568 71.6637 130.958 522.072
205 0 46.0895 11.8682 547 73.2779 131.49 520.532
206 0 49.0131 11.8948 583 71.6055 132.178 520.94
207 0 49.017 12.7711 626 70.5879 131.583 518.155
208 0 50.0231 12.0544 603 72.3682 131.62 517.39
209 0 51.033 12.1294 619 71.4459 131.727 519
210 0 51.0454 11.4604 585 72.5795 131.138 517.456
211 0 55.0601 12.0414 663 70.2851 131.179 517.041
212 0 57.1602 13.4359 768 67.5807 129.892 515.872
213 0 57.1138 11.0306 630 71.9429 129.4 516.66
214 0 60.0946 12.7799 768 69.4115 129.961 513.915
215 0 60.0992 11.7805 708 71.4576 129.403 511.531
216 0 63.0424 13.4195 846 68.0461 129.18 511.382
217 0 65.0374 11.6702 759 70 128.507 512.26
218 0 67.0992 11.6991 785 69.1605 129.252 511.6
219 0 70.0258 12.9095 904 67.0243 129.304 507.678
220 0 70.1347 11.4494 803 69.6588 129.036 506.94
221 0 75.0463 10.86 815 69.6049 129.131 506.62
222 0 77.1188 12.2927 948 67.9072 128.972 504.245
223 0 77.2824 11.4903 888 69.2917 128.756 501.525
224 0 84.1291 13.194 1110 51.0225 128.396 505.266
225 0 84.1677 12.0355 1013 67.6802 129.266 501.136
226 0 86.0796 11.954 1029 68.4257 129.018 495.813
227 0 89.0425 12.0167 1070 68.3215 129.23 495.007
228 0 92.1956 12.3976 1143 67.2948 128.964 494.577
229 1 46.0901 11.087 511 68.7162 129.027 516.751
230 0 49.144 12.7584 627 65.5279 129.581 516.7
231 0 52.0673 11.3699 592 67.5203 129.637 515.005
232 0 52.048 12.2963 640 66.7969 129.445 514.028
233 0 53.0797 12.7356 676 65.2751 128.973 513.698
234 0 54.0582 12.2461 662 66.6435 128.579 513.23
235 0 56.0471 11.8115 662 67.0393 129.455 512.119
236 0 56.0602 11.4698 643 67.8585 129.159 509.683
237 0 60.0779 11.8846 714 67.1821 129.69 508.762
238 0 60.0742 11.4692 689 67.8462 129.75 508.685
239 0 62.1581 11.1329 692 68.4118 130.118 508.035
240 0 65.0817 11.1706 727 68.3549 130.276 507.066
241 0 66.1654 11.834 783 67.3793 129.57 505.759
242 0 67.0246 11.3988 764 68.017 130.53 503.524
243 0 70.1695 12.2988 863 66.9444 130.053 503.29
244 0 73.1995 13.4427 984 65.1829 130.145 501.731
245 0 73.1018 11.8739 868 68.1256 129.43 500.801
246 0 76.2212 12.0833 921 67.6938 130.123 499.232
247 0 80.327 11.6399 935 67.5701 129.978 499.109
248 0 82.1376 12.3086 1011 66.9703 130.512 498.175
249 1 43.0438 12.4989 538 65.7286 130.065 517.243
250 0 44.0894 10.1158 446 68.8857 130.132 518.549
251 0 44.0432 10.467 461 68.8351 131.169 518.701
252 0 47.0415 11.8831 559 67.7549 130.254 516.699
253 0 45.0429 11.2781 508 69.3327 130.888 517.396
254 0 51.0814 11.0999 567 68.0529 131.626 517.817
255 0 50.0463 11.8091 591 68.1591 131.117 518.355
256 0 53.04 12.8017 679 66.5596 131.595 515.228
257 0 51.0425 11.2063 572 70.3741 131.292 513.145
258 0 56.0281 13.5289 758 65.8641 130.735 515.529
259 0 57.0632 12.1269 692 68.4118 130.926 513.958
260 0 58.0467 12.7656 741 67.8745 131.385 512.92
261 0 60.0734 11.1031 667 70.4408 130.7 510.87
262 0 65.0978 12.8883 839 66.4875 129.902 513.069
263 0 64.0982 11.7008 750 69.6053 130.768 509.975
264 0 67.1 12.7422 855 68.1579 130.651 509.526
265 0 67.0562 11.8706 796 69.6231 130.343 511.02
266 0 69.1197 12.6303 873 68.6403 129.718 510.002
267 0 72.0294 12.0506 868 69.5184 129.907 506.002
268 0 77.087 12.687 978 68.2791 130.829 505.906
269 0 78.153 13.4864 1054 67.9488 129.53 505.449
270 0 78.1004 11.8053 922 70.9913 129.278 503.003
271 0 85.0506 12.4749 1061 69.099 130.037 502.972
272 0 85.1269 11.7354 999 71.0821 129.649 501.367
273 0 88.1835 12.9163 1139 69.5347 129.191 499.269
274 1 48.0304 10.7432 516 70.3876 127.862 520.994
275 0 50.0299 11.9928 600 68.6867 128.638 519.228
276 0 52.2002 12.203 637 69.2512 129.776 518.989
277 0 54.0913 12.2386 662 68.6178 128.751 520.255
278 0 54.0377 12.3617 668 69.3069 129.807 518.434
279 0 57.1445 12.3197 704 69.0909 129.443 517.094
280 0 59.0725 12.1546 718 68.2423 129.331 517.327
281 0 58.1707 10.9333 636 71.1431 130 515.176
282 0 62.1538 12.5173 778 68.2712 129.802 513.031
283 0 64.1035 12.901 827 67.6747 129.239 512.237
284 0 64.1403 11.927 765 69.3268 128.267 510.346
285 0 69.1428 12.4814 863 67.6014 128.65 510.862
286 0 67.0452 11.3953 764 70.2565 128.94 510.166
287 0 72.0864 12.596 908 68.7412 128.626 506.925
288 0 76.1208 13.2158 1006 66.8777 128.641 507.663
289 0 78.2918 12.5684 984 68.8425 128.376 505.186
290 0 82.4011 12.5605 1035 68.2928 128.367 504.556
291 0 80.2443 10.468 840 72.6 128.119 503.63
292 0 85.2453 12.7162 1084 69.0572 128.792 502.166
293 0 89.2047 12.7796 1140 69.0728 129.335 501.178
294 1 46.2023 10.2376 473 70.1501 129.34 521.195
295 0 45.2305 9.46264 428 71.8879 129.318 520.89
296 0 49.1306 11.0929 545 69.8294 128.629 518.703
297 0 53.0785 11.5301 612 68.0637 128.848 520.119
298 0 53.0917 10.4348 554 70.9567 127.875 519.552
299 0 55.0957 11.7795 649 68.9153 128.441 516.06
300 0 54.1131 10.4226 564 71.172 128.039 516.631
301 0 56.0285 10.9409 613 71.8467 127.68 513.157
302 0 59.0311 11.2822 666 70.6006 128.324 512.995
303 0 61.0891 11.164 682 69.2551 128.397 513.811
304 0 61.2489 10.6451 652 71.2439 127.998 510.745
305 0 65.1148 11.211 730 69.8644 128.119 511.079
306 0 64.1813 10.9222 701 70.9986 128.138 508.622
307 0 67.0234 12.0853 810 68.6667 128.257 508.486
308 0 68.0366 10.509 715 71.5385 128.366 509.448
309 0 70.0822 12.0858 847 70.2881 128.449 505.752
310 0 74.0592 12.22 905 68.8983 127.952 504.886
311 0 75.0715 12.0285 903 68.8339 128.158 503.963
312 0 79.1475 13.1147 1038 66.6724 128.183 504.075
313 0 80.0823 13.0741 1047 67.5091 128.327 502.689
314 0 83.1532 12.9159 1074 67.527 127.772 500.353
315 0 88.0919 13.1908 1162 66.4088 127.849 501.515
316 0 88.1052 11.6792 1029 69.6327 127.832 498.854
317 0 90.1128 11.2082 1010 70.497 128.308 496.868
318 0 94.1532 12.6921 1195 68.1305 128.579 495.251
319 1 46.03 12.3832 570 64.1491 127.851 521.068
320 0 46.1172 9.73607 449 69.5212 127.606 520.889
321 0 48.0493 9.98973 480 68.0583 128.594 519.64
322 0 49.0793 12.001 589 65.5976 128.363 516.564
323 0 51.1486 12.3366 631 66.1854 127.797 515.559
324 0 51.0341 11.0906 566 68.3039 127.534 514.133
325 0 54.1018 10.776 583 67.9726 127.595 514.58
326 0 57.0749 11.9843 684 65.8596 127.823 513.709
327 0 57.02 11.8204 674 66.7003 128.549 510.737
328 0 59.1363 12.1922 721 65.0264 128.512 513.674
329 0 61.0641 12.3149 752 65.6809 128.688 509.863
330 0 64.0947 13.168 844 64.1611 129.517 510.297
331 0 64.0636 12.7373 816 65.3186 129.325 509.347
332 0 67.098 11.6844 784 66.1033 128.705 507.496
333 0 66.1446 10.9004 721 67.6006 128.68 506.259
334 0 72.1334 11.354 819 65.5507 127.842 506.888
335 0 72.0781 12.3893 893 65.2912 128.28 505.467
336 0 73.047 11.2257 820 68.1695 128.293 502.584
337 0 77.1962 12.1379 937 65.6606 128.552 504.377
338 0 81.1692 12.5417 1018 65.4686 128.568 501.71
339 0 82.314 12.3308 1015 66.736 128.862 499.25
340 1 42.0156 9.80589 412 67.0024 128.352 521.876
341 0 44.0471 10.0574 443 67.9391 128.786 519.451
342 0 45.0421 10.5013 473 68.7907 128.533 516.471
343 0 47.0412 11.5856 545 66.1431 128.705 515.846
344 0 48.1242 11.9067 573 65.9075 127.288 515.148
345 0 51.0349 11.3452 579 66.0501 127.886 516.725
346 0 51.0855 10.825 553 67.3508 128.429 513.995
347 0 53.1773 11.1702 594 67.298 129.03 512.724
348 0 56.0696 12.645 709 64.2285 127.635 511.608
349 0 58.1042 12.0645 701 65.1412 128.354 511.456
350 0 60.0639 12.1038 727 64.9711 128.77 511.498
351 0 61.0341 11.7967 720 64.5139 128.942 509.749
352 0 62.0488 11.4265 709 65.4302 128.735 507.982
353 0 65.0681 12.2026 794 63.9169 128.86 507.373
354 0 65.0862 12.4758 812 63.2906 128.743 506.574
355 0 68.1662 12.5135 853 63.041 127.625 504.998
356 0 69.1623 11.1477 771 64.8029 127.936 505.588
357 0 74.1818 12.4828 926 62.4298 128.498 504.972
358 0 74.1212 10.4559 775 65.191 128.988 503.098
359 0 78.144 12.4258 971 62.2451 129.263 500.772
360 1 39.0688 10.3919 406 61.5172 127.798 520.958
361 0 39.1772 10.9758 430 61.3674 127.667 520.472
362 0 42.0548 10.6765 449 62.8463 127.846 519.276
363 0 43.0373 11.1531 480 63.2458 128.798 518.094
364 0 42.0212 12.9934 546 61.5495 129.445 516.159
365 0 46.0236 11.2768 519 62.42 128.979 515.276
366 0 46.0634 12.0052 553 61.1519 129.492 515.051
367 0 46.0716 11.1783 515 62.9553 129.388 514.509
368 0 47.0603 12.0484 567 62.3845 128.711 513.492
369 0 48.0463 10.0736 484 64.5558 128.281 514.508
370 0 53.0436 11.8582 629 61.2798 128.668 512.863
371 0 54.0261 12.568 679 61.4315 128.638 510.875
372 0 56.038 12.6521 709 61.2525 128.676 511.865
373 0 54.072 13.63 737 61.6336 128.615 511.166
374 0 57.0927 11.5777 661 63.3041 128.619 511.182
375 0 59.1316 11.1446 659 64.0197 128.744 510.487
376 0 61.1096 12.9112 789 61.6692 128.142 509.101
377 0 60.0816 11.5842 696 64.283 128.72 508.779
378 0 64.1298 12.9581 831 62.148 128.214 505.674
379 0 67.1675 11.181 751 64.4194 128.037 508.056
380 0 68.1273 12.4913 851 63.4383 127.16 506.23
381 0 71.0726 11.9455 849 64.4535 127.734 503.073
382 0 73.2252 12.6186 924 63.7251 126.754 502.892
383 0 74.0571 12.7739 946 63.9915 127.658 502.418
384 0 76.1306 12.5968 959 64.5245 127.713 499.801
385 0 79.2311 12.5456 994 64.667 127.944 501.348
386 0 82.2007 11.9342 981 65.5117 126.989 498.127
387 0 86.0725 12.7451 1097 64.3528 127.395 498.074
388 1 43.0219 10.2273 440 66.225 128.323 514.37
389 0 46.1118 10.1709 469 65.1983 127.759 517.687
390 0 47.0527 10.3714 488 65.4631 127.545 516.211
391 0 50.0915 11.5788 580 64.2793 128.164 515.488
392 0 51.0736 11.1995 572 65.4528 128.297 514.325
393 0 51.0816 11.648 595 65.1563 127.753 514.368
394 0 49.1027 9.40885 462 69.6017 127.991 511.606
395 0 54.0668 11.3748 615 65.7333 127.933 513.024
396 0 55.07 11.44 630 65.4175 128.316 514.348
397 0 55.1246 12.0454 664 65.7244 128.187 510.113
398 0 57.1374 10.886 622 67.2395 128.442 511.201
399 0 60.1361 10.892 655 66.2779 127.933 511.504
400 0 60.0614 11.8712 713 65.5273 128.398 510.853
401 0 63.0826 12.1428 766 65.2115 128.338 506.903
402 0 66.1532 11.5338 763 65.4233 127.619 509.121
403 0 67.0393 11.1129 745 65.7181 128.362 508.125
404 0 72.0987 12.2748 885 64.0542 128.373 506.918
405 0 71.0581 11.6102 825 65.4764 128.303 505.724
406 0 74.0933 12.0794 895 64.6436 128.35 504.213
407 0 76.2573 13.4545 1026 63.0838 128.372 504.514
408 0 77.0828 11.6239 896 65.4933 128.025 501.018
409 0 80.0588 11.554 925 65.5351 128.256 502.27
410 0 84.0735 12.727 1070 63.9318 128.139 502.091
411 0 86.1451 12.2236 1053 65.2659 128.079 497.79
412 1 45.0355 11.8795 535 63.5813 128.228 519.157
413 0 47.054 11.2424 529 65.0605 127.733 516.541
414 0 49.0371 12.1133 594 63.6919 128.212 517.33
415 0 48.1071 12.0356 579 65.0518 127.698 518.136
416 0 53.0462 13.4034 711 62.2152 128.541 516.741
417 0 53.0624 11.5147 611 64.5532 128.399 515.848
418 0 54.0263 12.9937 702 63.2094 128.208 514.645
419 0 54.0439 9.93636 537 67.7467 128.274 513.348
420 0 58.0547 10.9724 637 65.157 127.981 513.228
421 0 57.0555 11.3749 649 65.4453 128.116 513.581
422 0 61.1634 13.7501 841 61.8882 127.95 510.817
423 0 61.1456 11.5135 704 65.3338 127.445 509.23
424 0 65.0453 12.3452 803 63.7696 127.341 509.462
425 0 66.0819 11.6976 773 64.1979 127.451 509.449
426 0 68.0654 12.1941 830 64.8349 128.123 505.798
427 0 69.0727 12.4217 858 65.0653 127.793 504.353
428 0 72.1296 13.2678 957 63.8736 127.583 506.062
429 0 74.0489 9.97989 739 67.9973 128.043 506.046
430 0 78.0734 12.5139 977 65.4289 127.802 503.141
431 0 79.1517 11.5727 916 67.4531 128.027 503.416
432 1 41.1376 11.2306 462 65.5022 127.591 521.994
433 0 43.0325 11.3403 488 66.5922 127.16 520.551
434 0 44.0192 11.1769 492 66.9614 126.876 522.555
435 0 43.0633 11.2625 485 69.3093 126.922 518.571
436 0 47.025 12.3977 583 66.3894 128.046 519.407
437 0 45.0281 11.082 499 70.5551 127.319 517.15
438 0 49.0422 11.7654 577 68.338 127.492 518.783
439 0 51.0492 14.2412 727 65.2407 127.154 516.812
440 0 51.1229 11.7169 599 69.9733 127.249 516.264
441 0 53.052 12.9873 689 67.2525 127.971 517.242
442 0 52.0899 10.4243 543 71.9705 128.249 515.192
443 0 56.0246 12.0661 676 69.2663 127.648 514.191
444 0 58.0838 13.1706 765 67.0758 127.609 516.342
445 0 59.0121 10.4216 615 71.7691 127.915 514.189
446 0 59.0453 11.0424 652 71.3482 127.945 513.986
447 0 62.0226 11.8183 733 70.6207 128.236 513.554
448 0 61.0843 11.345 693 72.1429 128.253 510.576
449 0 64.0458 11.2732 722 72.2645 128.458 508.271
450 0 67.0584 12.7203 853 69.8359 127.423 508.293
451 0 69.0459 11.3403 783 72.2503 127.45 506.608
452 0 75.2152 14.0131 1054 67.3795 127.966 508.262
453 0 75.065 13.1753 989 70.0779 127.766 505.119
454 0 77.0834 12.5449 967 71.4498 127.556 502.857
455 1 40.0989 9.35188 375 72.7467 128.04 522.181
456 0 42.1243 11.0388 465 70.5226 127.669 520.809
457 0 43.0222 10.9013 469 71.1109 127.866 521.844
458 0 45.0364 12.1457 547 69.6764 127.739 518.784
459 0 46.0368 10.4265 480 72.0125 127.306 519.737
460 0 48.0492 11.176 537 71.0577 127.644 518.948
461 0 50.047 11.6291 582 71.8351 128.438 517.122
462 0 50.0238 11.6744 584 71.6798 127.755 517.887
463 0 51.0683 11.9448 610 71.682 127.81 515.964
464 0 53.0426 11.9149 632 72.1804 127.139 515.12
465 0 54.0328 12.2703 663 71.3424 127.075 516.149
466 0 55.0732 11.4212 629 73.221 127.558 514.622
467 0 56.0694 11.5749 649 74.2049 128.274 512.797
468 0 59.0275 11.9267 704 73.6222 127.237 511.496
469 0 60.0401 10.9593 658 74.4103 127.678 512.014
470 0 61.1352 9.83067 601 76.7621 127.714 510.1
471 0 63.076 12.0807 762 73.4724 127.546 509.445
472 0 67.0649 10.7806 723 75.3624 127.586 507.916
473 0 71.1172 11.6709 830 72.9193 128.137 506.567
474 0 72.0345 11.5778 834 74.4137 127.978 505.765
475 0 74.1071 10.107 749 76.1429 127.186 507.259
476 1 37.0323 10.0723 373 75.8954 127.78 521.885
477 0 40.0221 11.1189 445 73.9124 127.357 522.703
478 0 43.0053 11.6265 500 72.142 126.746 521.954
479 0 43.0341 10.0618 433 75.7621 127.788 519.55
480 0 44.0643 10.8251 477 75.3333 126.987 519.409
481 0 47.0395 11.3522 534 73.0131 127.032 518.749
482 0 48.0595 10.0292 482 75.3382 127.361 519.164
483 0 48.1587 11.026 531 75.0207 127.985 517.179
484 0 50.0608 11.9255 597 72.8224 127.472 518.05
485 0 53.1019 12.7302 676 72.0059 127.68 513.167
486 0 53.0719 11.9837 636 73.706 128.159 513.453
487 0 56.0603 12.1833 683 72.8682 127.751 513.539
488 0 57.0727 13.3689 763 71.1678 127.29 515.083
489 0 61.0442 12.8432 784 70.7436 127.17 513.745
490 0 59.1199 11.4344 676 74.1953 127.084 511.291
491 0 64.0589 12.4417 797 71.9473 127.571 509.383
492 0 66.1546 12.6522 837 71.3393 127.164 508.335
493 0 68.0746 10.7529 732 73.7732 126.825 510.153
494 0 69.0873 11.5072 795 73.234 127.184 507.63
495 0 73.1431 11.3339 829 73.4367 126.905 506.181
496 0 75.1142 11.5557 868 72.8998 126.88 504.895
497 0 80.1278 11.9809 960 71.9083 127.797 501.929
498 1 40.0576 9.58619 384 73.362 127.836 521.422
499 0 40.1372 10.4641 420 73.1952 127.36 520.629
500 0 42.1145 10.8989 459 72.8126 127.229 520.699
501 0 45.0461 12.1209 546 70.4286 127.74 520.683
502 0 44.0928 11.2944 498 72.7289 127.098 520.51
503 0 45.0407 10.7458 484 74.4773 126.888 518.57
504 0 46.0237 10.7988 497 74.3078 127.837 519.074
505 0 49.0332 11.8083 579 72.1209 127.508 518.292
506 0 48.0157 11.2463 540 74.2722 127.235 516.878
507 0 51.0606 11.0065 562 74.6797 127.665 515.356
508 0 52.0478 12.2195 636 71.9827 127.233 516.285
509 0 56.1054 13.6529 766 69.2807 126.975 514.234
510 0 54.0558 11.5066 622 73.2572 127.093 513.64
511 0 57.0415 10.9043 622 73.8521 127.45 514.018
512 0 60.0466 11.3245 680 73.0676 127.194 513.332
513 0 61.2204 11.6464 713 72.6171 126.91 511.238
514 0 63.0483 10.9916 693 73.6898 126.642 512.762
515 0 68.0803 12.3531 841 70.0809 127.532 511.467
516 0 69.0372 12.9351 893 68.9787 127.365 509.767
517 0 71.0398 12.7393 905 69.6917 126.256 508.262
518 0 72.0677 11.4753 827 71.7763 127.104 506.143
519 0 74.1624 12.0142 891 70.862 126.899 505.746
520 0 78.1279 10.9564 856 71.2173 126.44 505.745
521 0 82.0762 12.3056 1010 68.1228 127.83 506.122
522 0 83.0764 12.1214 1007 69.3039 127.186 500.301
523 1 45.0413 8.74752 394 70.5863 127.396 520.797
524 0 45.0241 9.88359 445 69.7528 127.717 520.013
525 0 50.0193 12.955 648 64.5679 127.478 518.566
526 0 50.046 11.0898 555 66.9189 126.854 519.977
527 0 51.0614 12.2402 625 66.1888 127.334 516.693
528 0 52.0261 10.3217 537 68.5587 127.553 516.453
529 0 56.0463 10.7054 600 68.0067 126.963 515.922
530 0 55.1153 10.8863 600 68.85 127.107 515.125
531 0 57.1135 10.8906 622 68.3569 126.873 514.347
532 0 58.0399 12.0434 699 67.2189 126.225 512.501
533 0 62.0837 13.0147 808 65.349 126.373 511.731
534 0 61.1071 11.488 702 68.2493 126.682 510.452
535 0 65.2044 12.9132 842 65.3266 127.298 510.336
536 0 65.0672 12.3564 804 66.6592 127.356 510.507
537 0 68.0549 12.8573 875 65.4034 126.875 509.495
538 0 69.0596 12.5399 866 66.7956 126.824 507.286
539 0 71.0824 13.1537 935 65.1733 126.686 508.596
540 0 73.074 12.1931 891 67.4927 127.499 505.507
541 0 76.0487 11.9003 905 67.4895 127.03 505.329
542 0 79.0972 13.8817 1098 64.9663 127.362 502.161
543 0 79.1146 12.1975 965 67.629 127.241 502.983
544 0 82.1819 11.9856 985 68.1807 127.305 501.108
545 0 86.1221 12.0062 1034 68.1296 126.87 501.871
546 0 86.0977 11.7657 1013 69.8786 126.651 500.903
547 0 90.1335 12.2374 1103 69.4152 127.362 499.607
548 0 92.112 12.1483 1119 70.3137 127.248 496.945
549 0 94.1818 13.0492 1229 69.0407 126.497 495.589
550 1 47.035 11.9273 561 68.0713 126.141 519.806
551 0 47.02 12.4628 586 68.6519 126.954 518.575
552 0 49.095 11.8953 584 68.7808 127.08 520.111
553 0 49.0262 12.4015 608 69.5987 127.09 516.324
554 0 51.0602 10.2036 521 72.4741 127.478 517.192
555 0 52.026 12.3592 643 69.4028 126.98 515.126
556 0 55.0545 12.9145 711 67.391 126.426 516.515
557 0 55.0889 11.545 636 69.9151 127.036 514.509
558 0 56.1551 12.9819 729 66.8546 126.805 514.117
559 0 58.05 12.5065 726 66.9545 127.014 513.284
560 0 59.0468 12.1598 718 68.3844 126.919 512.348
561 0 62.1048 12.0603 749 68.498 127.146 509.517
562 0 65.0797 12.9995 846 66.5437 127.154 511.598
563 0 65.0612 13.0185 847 67.5136 126.64 508.613
564 0 69.1382 12.2653 848 67.7606 126.744 509.099
565 0 69.1087 12.1982 843 67.9858 126.566 507.639
566 0 69.107 11.3447 784 70.2258 126.471 506.005
567 0 73.0721 11.7692 860 69.143 126.534 504.367
568 0 76.1127 12.8756 980 67.2929 126.046 505.092
569 0 78.1484 12.6554 989 67.6684 126.214 504.652
570 1 40.104 10.398 417 70.3549 126.717 520.94
571 0 43.0751 12.0255 518 68.2297 126.72 519.127
572 0 44.0589 10.9626 483 70.0352 127.634 518.116
573 0 45.0304 13.1245 591 67.3046 126.893 517.552
574 0 46.0501 11.8132 544 69.2702 127.206 514.873
575 0 48.0939 12.2053 587 68.4003 127.136 516.005
576 0 48.0394 11.6987 562 69.089 126.749 513.904
577 0 49.0465 10.5818 519 70.4509 127.441 515.054
578 0 53.0702 11.0043 584 68.4829 127.671 515.741
579 0 54.0804 12.2965 665 67.0301 127.821 513.558
580 0 55.0929 11.0541 609 68.8998 128.849 513.36
581 0 56.0533 11.6318 652 68.1764 128.667 513.367
582 0 58.0523 12.3682 718 66.773 128.815 512.586
583 0 59.1343 11.5162 681 67.928 128.131 506.197
584 0 61.0839 12.0163 734 67.4837 128.139 506.763
585 0 62.0849 12.3541 767 67.6793 127.799 506.7
586 0 64.0239 12.714 814 67.0332 127.722 505.201
587 0 69.084 12.1591 840 66.981 127.623 505.361
588 0 70.0225 11.5534 809 67.8331 127.114 502.224
589 0 74.0786 12.6622 938 66.2281 127.449 502.546
590 0 76.0669 10.964 834 68.1691 126.586 498.367
591 0 76.0414 12.8746 979 66.4709 127.092 498.646
592 0 83.0759 12.7835 1062 65.6196 127.268 499.625
593 1 44.0439 13.146 579 64.0449 126.656 520.318
594 0 44.0332 13.0129 573 64.9529 126.545 519.449
595 0 47.2394 12.2991 581 65.7935 126.463 518.219
596 0 49.038 12.0723 592 66.6081 127.211 519.458
597 0 50.1852 12.7328 639 65.5509 126.98 517.872
598 0 50.076 11.8819 595 67.7647 127.348 515.871
599 0 53.0718 13.6796 726 64.8375 127.083 515.198
600 0 55.0489 11.5352 635 67.4819 127.513 514.846
601 0 53.0707 13.1711 699 66.0758 127.278 515.382
602 0 56.1094 13.0281 731 66.7647 127.513 511.196
603 0 58.0277 13.2006 766 66.1123 127.747 511.18
604 0 60.0373 13.2251 794 65.8375 127.286 510.89
605 0 63.1326 12.846 811 66.397 128.165 510.924
606 0 63.0342 13.4371 847 66.1228 127.966 510.316
607 0 64.0307 11.6819 748 68.5401 128.103 509.961
608 0 67.0959 12.3107 826 67.5363 127.919 508.668
609 0 71.0874 13.1247 933 65.4566 127.772 508.651
610 0 73.068 14.2196 1039 64.4658 127.387 507.118
611 0 75.0421 13.086 982 66.7668 127.726 503.884
612 0 78.1702 12.4856 976 66.7623 127.787 504.078
613 0 78.063 12.3746 966 67.8747 127.589 501.319
614 0 80.0596 11.2916 904 69.1084 127.865 501.694
615 0 85.0886 15.5602 1324 63.2946 127.195 499.233
616 0 88.0875 13.8953 1224 65.4183 128.105 498.42
617 0 89.068 13.8883 1237 66.3145 127.854 496.576
618 0 89.0843 11.6631 1039 69.6381 127.654 492.64
619 1 48.0548 11.1539 536 68.7481 127.493 515.728
620 0 49.0495 11.0501 542 68.703 127.535 514.924
621 0 52.0845 11.9805 624 67.0785 127.229 514.697
622 0 51.0331 11.6591 595 68.437 127.405 512.955
623 0 54.0741 12.9082 698 66.5043 127.327 513.348
624 0 54.1074 12.6785 686 67.0423 127.487 512.633
625 0 56.0622 12.7002 712 67.5758 127.65 510.666
626 0 58.0433 11.1985 650 68.8862 127.172 509.392
627 0 61.0592 13.8882 848 64.6403 126.081 509.031
628 0 61.1082 11.3405 693 67.5483 126.949 507.225
629 0 66.0882 13.2853 878 64.5057 127.574 506.261
630 0 70.122 14.161 993 62.72 127.587 506.447
631 0 71.037 12.8947 916 64.3701 127.285 505.733
632 0 71.0487 12.5125 889 66.0191 127.568 502.112
633 0 75.0879 12.6518 950 65.2758 127.624 501.824
634 0 78.1154 13.7617 1075 64.0679 126.993 500.197
635 0 80.0914 12.8228 1027 65.0759 127.672 499.315
636 0 84.1862 12.9831 1093 64.8289 128.175 497.185
637 0 85.0729 11.6606 992 66.9778 127.92 495.569
638 1 42.0769 9.05486 381 65.8084 127.577 519.255
639 0 42.0141 10.3299 434 64.7972 127.392 519.986
640 0 46.17 9.55166 441 66.0862 127.517 519.782
641 0 44.0592 10.6221 468 66.8312 127.85 516.502
642 0 48.1186 11.6171 559 64.7442 127.884 515.682
643 0 50.0817 11.042 553 64.859 126.64 517.629
644 0 49.1309 10.4211 512 66.1348 126.432 517.814
645 0 53.1072 11.8063 627 64.4785 128.215 514.584
646 0 52.0993 11.4205 595 65.5092 127.408 513.983
647 0 56.088 11.6959 656 64.8598 127.779 514.268
648 0 58.0548 11.7475 682 65.2478 127.126 511.793
649 0 59.0906 12.9631 766 63.9321 127.087 511.548
650 0 61.1151 11.6338 711 65.6048 127.695 510.655
651 0 65.0508 13.1897 858 63.9033 128.364 507.865
652 0 65.051 12.3595 804 65.0846 127.899 506.493
653 0 68.0788 11.4132 777 66.2664 127.949 507.633
654 0 67.0636 10.7212 719 67.7246 127.882 505.49
655 0 74.1072 12.1985 904 66.0564 127.898 502.215
656 1 37.1872 9.65387 359 67.2869 128.518 522.415
657 0 40.0295 10.0926 404 66.8589 128.101 520.809
658 0 43.0554 11.613 500 64.588 127.844 521.14
659 0 43.0215 10.8783 468 66.4444 127.754 520.282
660 0 44.0338 11.4457 504 66.0337 128.19 519.228
661 0 44.0398 11.3761 501 66.5349 128.084 519.04
662 0 47.0758 10.9611 516 67.062 128.033 517.202
663 0 47.0309 11.4818 540 67.1444 128.554 517.209
664 0 50.0531 11.4279 572 66.3024 127.939 516.472
665 0 50.118 8.99876 451 68.8958 128.384 519.018
666 0 51.0708 11.4939 587 67.2027 128.571 513.683
667 0 55.0841 12.4718 687 65.4629 128.774 513.978
668 0 56.0734 11.6811 655 66.8382 128.623 511.849
669 0 56.1008 11.3724 638 67.4734 127.955 514.08
670 0 59.1179 12.3144 728 65.3681 128.448 513.435
671 0 60.0944 12.1642 731 65.4323 129.878 513.787
672 0 61.0529 11.4491 699 66.6409 129.544 512.956
673 0 66.019 13.2083 872 64.4266 128.646 509.308
674 0 67.0771 12.1651 816 65.7696 128.08 507.722
675 0 70.1155 13.3494 936 64.9637 128.384 505.86
676 0 73.059 11.4017 833 67.0564 129.011 504.322
677 0 74.0992 12.1594 901 66.7858 129.319 502.983
678 0 75.1257 10.8751 817 68.9804 128.829 502.25
679 1 40.0241 11.543 462 66.7273 128.368 521.794
680 0 43.0449 10.2451 441 67.2358 128.995 522.05
681 0 44.0302 10.947 482 68.2407 129.496 519.95
682 0 46.0508 10.4016 479 69.1775 128.923 518.929
683 0 48.0526 11.6747 561 67.3405 128.365 517.437
684 0 47.0869 10.3213 486 70.2531 129.3 517.031
685 0 50.1024 12.6142 632 66.2152 128.521 517.388
686 0 52.074 11.7909 614 67.8909 129.067 516.673
687 0 53.1013 10.9414 581 69.9552 128.589 514.807
688 0 55.075 12.6373 696 67.2112 128.658 513.945
689 0 56.0889 12.6585 710 67.6239 128.886 512.325
690 0 55.0608 11.3692 626 69.7157 129.272 511.53
691 0 59.0506 13.7848 814 64.0786 129.257 511.525
692 0 60.0785 11.8512 712 66.8834 128.316 511.042
693 0 63.1651 12.1586 768 65.3659 128.224 511.647
694 0 62.096 10.8864 676 67.8905 128.157 508.999
695 0 68.0909 13.717 934 63.2045 128.186 507.322
696 0 68.107 13.5522 923 63.8527 127.908 505.112
697 0 70.1142 11.1675 783 66.7739 128.338 504.727
698 0 71.1094 11.3065 804 66.6244 128.418 506.643
699 0 75.0757 12.0145 902 65.1896 128.779 502.145
700 1 40.0405 11.7131 469 64.0192 129.463 520.687
701 0 39.0491 9.01429 352 67.6335 128.429 522.523
702 0 42.0283 9.82671 413 67.0315 128.075 520.121
703 0 42.1122 11.4931 484 65.343 128.155 520.143
704 0 44.055 12.8703 567 63.9894 128.173 518.404
705 0 46.0202 11.6253 535 65.9944 128.381 518.578
706 0 45.0463 11.7435 529 66.5217 128.645 515.461
707 0 48.072 12.0652 580 64.8224 128.066 518.921
708 0 50.0601 12.7647 639 63.1424 127.865 517.13
709 0 51.0424 11.7549 600 64.6133 128.305 516.358
710 0 52.029 11.6281 605 64.7074 128.122 516.742
711 0 53.0665 11.7588 624 64.7997 128.154 515.099
712 0 56.056 11.6312 652 64.8589 128.617 513.64
713 0 56.0949 13.3167 747 63.2396 128.242 513.315
714 0 59.1035 12.402 733 64.3151 127.787 512.434
715 0 60.0422 12.2081 733 64.9386 128.442 509.593
716 0 61.0725 12.1331 741 65.552 128.217 507.177
717 0 65.0634 12.4955 813 63.6814 128.54 510.708
718 0 67.0821 12.835 861 63.3972 128.444 508.699
719 0 70.0908 13.6537 957 61.8809 128.967 508.19
720 0 69.1363 13.6831 946 63.0106 128.393 505.885
721 0 72.2059 12.589 909 63.9637 128.365 504.455
722 0 73.3284 11.9872 879 64.8714 128.445 504.883
723 0 76.1742 14.6769 1118 61.6029 128.034 502.345
724 0 79.253 12.2141 968 64.6612 128.068 502.518
725 0 81.2078 13.644 1108 63.2022 128.493 499.638
726 0 82.2565 12.9959 1069 64.188 129.071 500.063
727 0 86.2641 10.3172 890 67.3124 128.753 500.287
728 1 46.1503 10.4658 483 66.1843 128.387 516.406
729 0 48.1278 9.99422 481 66.7817 128.004 514.852
730 0 48.1562 11.1304 536 65.8396 127.382 516.257
731 0 49.2145 11.2365 553 65.2694 128.152 516.872
732 0 51.1016 12.8176 655 63.9008 128.895 514.976
733 0 55.0861 11.4003 628 64.9634 127.717 512.36
734 0 56.067 10.755 603 65.0398 127.637 513.488
735 0 54.0787 10.2998 557 66.0269 128.357 512.754
736 0 59.0695 12.8831 761 61.7976 128.618 511.844
737 0 60.0559 12.5883 756 62.3585 128.401 510.071
738 0 63.0523 12.3707 780 61.9526 128.636 510.033
739 0 67.1725 13.1006 880 60.3659 128.626 510.392
740 0 64.2557 11.5009 739 63.1664 129.131 508.988
741 0 67.1063 12.4727 837 61.7001 128.397 508.612
742 0 70.1249 12.3922 869 62.0725 128.557 504.879
743 0 73.1635 13.9004 1017 59.7935 127.892 506.862
744 0 74.1573 13.6062 1009 60.3409 127.905 504.149
745 0 77.101 12.8792 993 61.3494 127.437 503.591
746 0 77.0834 12.3892 955 62.1361 127.643 500.588
747 0 80.2179 13.4509 1079 61.1529 128.204 500.14
748 0 85.0771 14.3282 1219 59.6989 128.438 497.839
749 1 41.0466 12.3031 505 61.1386 128.309 520.972
750 0 45.0379 11.1017 500 63.306 127.68 516.61
751 0 47.0145 12.1665 572 61.5647 127.787 516.126
752 0 47.0279 12.7158 598 62.2291 127.457 515.463
753 0 48.0736 13.6458 656 60.5107 127.905 516.355
754 0 50.0702 11.7235 587 62.6763 128.532 515.646
755 0 52.0432 11.452 596 62.995 128.493 514.718
756 0 53.0659 11.7213 622 62.2299 128.219 515.199
757 0 52.0683 10.0253 522 65.0019 128.393 514.324
758 0 59.0683 13.1373 776 60.0425 128.441 512.709
759 0 60.0645 12.7696 767 60.9948 127.89 508.787
760 0 64.0448 13.7404 880 58.9875 128.064 510.864
761 0 64.0558 12.8326 822 61.1813 128.393 508.099
762 0 69.0573 12.7575 881 60.5857 127.502 506.779
763 0 66.1027 12.7378 842 61.8076 128.352 504.078
764 0 71.0948 12.195 867 61.594 127.652 505.894
765 0 71.1419 12.8054 911 60.4852 127.901 508.357
766 0 73.0973 11.6557 852 63.0153 128.175 503.035
767 0 76.0634 12.5948 958 62.0271 127.685 502.166
768 1 43.0423 10.3619 446 61.8834 128.101 520.168
769 0 46.0627 9.29169 428 62.243 127.916 520.14
770 0 44.1505 10.9172 482 60.2801 127.407 520.064
771 0 47.0248 10.42 490 62.0531 127.784 518.68
772 0 48.1391 10.8228 521 61.7409 128.942 517.491
773 0 52.2239 9.76565 510 62.9431 127.835 515.604
774 0 53.1485 12.0229 639 59.4836 127.577 517.443
775 0 54.1522 10.8398 587 62.2436 127.576 513.32
776 0 54.1166 11.2165 607 61.5898 127.47 513.267
777 0 55.1057 12.0859 666 61.4339 127.563 513.018
778 0 57.0676 10.8293 618 62.2071 128.738 509.73
779 0 60.0929 12.2311 735 60.302 128.295 510.728
780 0 63.1274 11.8332 747 60.9799 128.51 509.924
781 0 65.2054 11.5021 750 61.236 127.859 509.239
782 0 66.1069 12.4495 823 60.435 127.853 507.95
783 0 67.1886 13.1719 885 59.5017 128.084 507.088
784 0 72.0596 12.4341 896 59.6004 127.912 504.073
785 0 72.2632 10.1435 733 61.7381 129.091 505.772
786 0 76.1132 10.8523 826 60.3729 128.26 503.834
787 0 81.1143 10.8612 881 59.7582 127.812 503.419
788 0 83.1708 13.0935 1089 58.0496 127.42 498.748
789 1 43.0484 8.87373 382 60.3246 127.571 517.097
790 0 45.0462 9.50136 428 58.9533 127.012 518.297
791 0 44.0239 10.4943 462 57.9134 127.015 516.71
792 0 44.0657 10.1666 448 59.0469 128.049 513.92
793 0 47.0475 10.0112 471 58.9427 127.826 514.597
794 0 48.0304 10.2435 492 57.9654 127.927 514.959
795 0 50.0231 11.7746 589 56.1375 127.613 514.577
796 0 54.0562 10.8036 584 57.1832 127.908 511.452
797 0 53.0674 10.4395 554 57.4422 127.699 513.271
798 0 54.0494 10.4719 566 57.0866 127.475 512.723
799 0 58.0386 9.80382 569 57.4534 127.603 511.606
800 0 60.0695 10.904 655 56.5771 128.153 508.171
801 0 60.1316 12.589 757 54.8983 128.357 506.38
802 0 62.0557 12.102 751 55.7164 127.851 505.14
803 0 65.055 11.8361 770 55.5429 127.895 507.361
804 0 66.0524 12.4144 820 54.9415 128.084 504.911
805 0 67.0695 10.3176 692 57.4725 127.319 504.671
806 0 70.11 12.0382 844 55.205 127.171 503.776
807 0 73.0946 10.4796 766 57.0914 127.213 502.372
808 0 71.0461 10.3735 737 57.8412 127.392 500.271
809 0 75.0988 10.8657 816 56.7904 127.387 499.719
810 0 80.0688 10.0539 805 57.2323 127.675 498.573
811 0 79.1503 10.1832 806 57.7171 127.288 496.067
812 0 80.16 10.1422 813 57.69 127.279 488.882
813 1 43.0198 8.85638 381 60.9501 127.803 476.341
814 1 70.054 4.49653 315 64.5619 128.035 482.603
815 1 197.26 2.79326 551 69.4991 127.525 444.59
816 0 194.117 0.731517 142 74.5845 127.711 439.88
817 1 156.216 6.51021 1017 65.0334 127.789 431.432
818 1 19.0053 8.57657 163 142.202 132.074 326.147
819 0 20.0081 6.79724 136 56.7868 127.338 496.353
820 0 23.0774 10.2265 236 132.102 131.076 322.428
821 0 22.0763 9.51244 210 135.562 131.581 320.233
822 0 22.0777 9.91953 219 132.534 131.055 314.416
823 0 20.0431 8.33205 167 141.623 131.03 307.671
824 0 21.0242 9.27505 195 137.185 131.01 296.421
825 0 18.0345 8.31737 150 147.607 131.887 290.987
826 0 20.0378 5.98867 120 59.0667 128.508 486.9
827 1 0 0 2.13051e-314 -nan -3.43156e+144 1.37273e+228
828 0 0 0 0 -nan -nan -nan
829 1 29.007 6.55015 190 62.4421 127.863 494.547
830 1 0 0 0 -nan -nan -nan
831 0 0 0 0 -nan -nan -nan
832 1 112.219 9.45471 1061 65.9821 127.233 361.516
833 1 0 0 0 -nan -nan -nan
834 1 0 0 0 -nan -nan -nan
835 1 85.0576 12.0977 1029 56.9232 127.166 500.022
836 0 90.1721 13.0417 1176 55.6369 127.1 496.582
837 1 46.0862 10.719 494 57.9028 127.808 519.658
838 0 48.0568 11.5905 557 57.2226 127.251 518.282
839 0 51.0367 11.8542 605 57.0992 127.56 517.574
840 0 51.1039 10.8407 554 58.9693 127.426 518.17
841 0 52.0812 11.5205 600 58.2967 127.45 517.943
842 0 55.0591 11.3696 626 58.5847 127.575 518.628
843 0 57.0804 12.351 705 57.8227 127.689 516.895
844 0 59.0696 12.663 748 57.504 127.671 513.606
845 0 59.1162 12.2471 724 58.239 127.815 513.39
846 0 61.1063 13.4192 820 57.3951 127.42 511.565
847 0 61.0806 12.639 772 59.0881 127.646 509.873
848 0 64.1389 14.2347 913 56.6495 127.551 511.103
849 0 65.0401 12.1002 787 58.9466 127.309 512.435
850 0 69.1359 12.6128 872 58.3819 126.967 508.876
851 0 70.1376 13.0315 914 58.1718 127.693 508.533
852 0 72.0803 12.3612 891 59.0112 127.903 506.478
853 0 75.1687 14.1282 1062 57.2298 127.553 505.058
854 0 77.0621 12.8857 993 58.3786 127.71 504.854
855 0 78.0792 11.8598 926 59.8985 127.207 504.92
856 0 80.1774 13.1084 1051 58.8706 127.01 501.54
857 0 84.1614 12.583 1059 59.4618 126.997 501.917
858 0 85.1727 12.8797 1097 59.6354 126.747 498.128
859 0 88.0649 12.593 1109 60.4319 127.166 497.766
860 1 47.0747 9.79294 461 64.8503 127.297 519.117
861 0 46.0101 13.3014 612 62.0049 126.9 519.322
862 0 50.1047 12.6535 634 62.9527 127.397 516.68
863 0 51.0518 10.7146 547 64.8263 127.113 516.709
864 0 54.0399 14.3042 773 60.4994 128.041 516.405
865 0 56.0797 15.0143 842 59.8563 127.359 515.847
866 0 55.0528 12.1883 671 64.0298 127.364 514.024
867 0 56.0407 13.0441 731 63.4049 127.356 512.814
868 0 59.1134 13.4656 796 62.6156 128.256 512.632
869 0 60.0245 13.0613 784 62.963 127.023 512.795
870 0 62.1334 13.2457 823 63.0863 127.702 509.417
871 0 66.0943 13.5413 895 62.3229 127.393 511.402
872 0 66.1557 13.8159 914 62.6893 127.306 508.77
873 0 71.0793 12.9433 920 63.3478 127.408 508.29
874 0 71.1519 12.0868 860 65.7349 126.798 505.938
875 0 75.08 11.8141 887 65.425 127.115 508.855
876 0 78.0508 13.0556 1019 64.9028 127.012 504.005
877 0 80.0568 12.1914 976 66.46 126.623 502.557
878 0 82.0679 14.2199 1167 64.2485 126.254 501.114
879 0 87.1177 13.4186 1169 65.1052 126.299 501.027
880 0 89.1794 13.4897 1203 65.7523 126.631 500.687
881 1 46.0281 11.1888 515 68.7495 126.664 519.691
882 0 48.0188 12.9116 620 65.6968 127.04 521.413
883 0 48.2237 11.1978 540 69.3611 126.924 521.217
884 0 50.0689 13.1818 660 67.9258 126.909 519.282
885 0 51.0905 12.057 616 70.487 127.881 517.273
886 0 53.0214 11.5991 615 70.9707 126.753 516.078
887 0 56.057 14.6636 822 66.0195 127.167 516.931
888 0 59.1028 13.0958 774 67.916 127.255 516.178
889 0 60.0835 13.5145 812 68.2759 127.118 512.468
890 0 59.0464 13.9721 825 68.6036 127.701 512.61
891 0 61.04 14.9246 911 66.3985 127.751 513.121
892 0 64.1759 13.089 840 68.519 127.72 512.704
893 0 66.078 15.0277 993 66.1531 127.624 510.484
894 0 67.0793 11.9411 801 70.5393 127.538 510.318
895 0 71.0601 13.9178 989 67.0415 127.255 508.768
896 0 71.1171 13.2739 944 68.1335 127.525 509.025
897 0 75.0735 13.6666 1026 67.8372 127.299 506.061
898 0 78.0659 13.0531 1019 69.1492 127.885 503.799
899 0 80.048 14.1665 1134 67.7619 127.481 504.02
900 0 83.124 12.3189 1024 69.4697 127.928 503.649
901 0 85.1178 13.405 1141 68.4855 127.612 501.011
902 0 90.0491 14.0257 1263 66.8124 127.033 500.806
903 0 91.1386 13.1997 1203 68.7082 126.971 497.384
904 1 48.0457 10.8855 523 70.5488 127.231 519.625
905 0 49.0515 12.1301 595 69.0353 126.855 519.01
906 0 52.0545 11.4111 594 70.4529 127.052 517.382
907 0 53.0138 12.9778 688 67.8954 126.531 516.422
908 0 53.1109 12.2197 649 69.849 127.72 514.267
909 0 55.0661 12.9118 711 68.8523 128.117 513.982
910 0 58.0282 12.1493 705 69.0752 128.031 512.878
911 0 59.0567 11.599 685 69.9635 128.688 513.387
912 0 60.0902 10.3345 621 72.095 128.077 512.594
913 0 62.1705 10.9377 680 70.8897 127.954 510.593
914 0 62.0543 10.7487 667 71.4303 127.612 508.385
915 0 63.1036 11.3147 714 70.5742 126.686 507.381
916 0 65.1635 11.0798 722 70.9072 127.292 506.06
917 0 69.0535 11.8748 820 69.511 127.349 506.384
918 0 70.0628 10.8189 758 71.4024 126.809 504.087
919 0 74.0875 10.8655 805 70.7056 127.123 504.605
920 0 74.0515 11.5865 858 70.3473 126.837 503.699
921 0 81.1246 12.3021 998 68.5501 127.092 501.551
922 0 82.1312 10.8363 890 69.9933 126.955 502.151
923 0 84.1455 11.0761 932 70.5654 126.626 498.404
924 0 86.0954 9.4314 812 72.2365 127.065 499.265
925 1 42.0137 9.87774 415 71.3663 126.733 515.812
926 0 45.0756 10.6044 478 70.5188 126.667 517.341
927 0 42.0568 8.65497 364 73.0247 126.165 516.376
928 0 43.0443 11.0584 476 71.6029 126.525 514.515
929 0 46.0189 11.278 519 71.0751 127.054 512.062
930 0 47.0338 10.0779 474 72.7679 127.39 512.354
931 0 46.0219 8.4525 389 75.3985 127.139 511.17
932 0 51.0561 8.93135 456 74.1272 126.798 512.531
933 0 50.0911 9.20324 461 74.7505 127.037 510.178
934 0 55.0582 10.3708 571 72.683 127.594 507.905
935 0 59.0591 10.7689 636 71.5346 127.421 504.124
936 0 60.0602 11.4718 689 71.0203 127.335 505.16
937 0 64.0972 12.1222 777 70.1802 127.53 505.338
938 0 66.0516 10.0225 662 72.9909 127.32 503.938
939 0 69.0649 12.3507 853 70.0914 126.832 506.333
940 0 71.0817 12.2113 868 70.4389 126.225 504.757
941 0 75.1119 11.4496 860 71.1419 126.943 506.61
942 0 80.0839 12.9115 1034 69.9168 127.856 504.338
943 0 80.121 12.8431 1029 69.9125 127.219 504.412
944 0 84.0984 12.9372 1088 71.3024 126.678 498.062
945 0 87.0979 12.595 1097 71.5087 128.331 497.563
946 0 90.1297 12.3711 1115 71.87 127.999 496.738
947 0 94.1219 13.5356 1274 70.5785 127.664 494.925
948 0 98.1013 12.5279 1229 71.9154 127.349 495.156
949 1 44.0296 10.2431 451 72.6275 127.774 518.887
950 0 47.0445 10.0968 475 72.3516 128.032 518.571
951 0 48.0792 12.5834 605 70.519 127.658 514.258
952 0 51.0694 10.8284 553 70.7432 127.955 516.264
953 0 50.0152 11.8564 593 69.9713 128.103 517.514
954 0 52.0439 12.1244 631 69.3534 127.832 515.2
955 0 54.052 11.1744 604 71.6788 126.694 512.967
956 0 56.0859 11.8033 662 70.9773 127.563 512.21
957 0 57.1158 11.9932 685 70.1256 127.946 511.667
958 0 59.1098 11.5378 682 71.0469 127.526 508.823
959 0 62.0784 11.9365 741 69.7072 127.943 512.212
960 0 64.1386 12.894 827 68.4401 127.654 510.584
961 0 65.0559 11.713 762 71.0394 127.567 506.843
962 0 68.0942 11.9687 815 70.8675 127.589 505.802
963 0 70.1488 11.2903 792 73.1061 127.249 503.86
964 0 72.0639 12.0865 871 71.8484 127.042 501.999
965 0 75.0776 13.0265 978 69.8415 126.976 501.704
966 0 76.0887 12.2752 934 71.636 127.51 501.121
967 0 81.1034 12.3423 1001 71.1439 127.02 500.626
968 0 81.1352 12.0663 979 72.1553 127.551 499.639
969 0 84.0863 13.724 1154 70.1473 127.519 497.389
970 0 85.2931 11.865 1012 72.4496 127.753 498.571
971 0 88.0957 13.0199 1147 71.4342 128.191 494.132
972 0 93.2938 13.8594 1293 69.1995 128.167 495.928
973 1 50.0484 11.9884 600 69.1217 128.357 515.897
974 0 51.0682 10.437 533 70.8143 128.225 516.638
975 0 54.0618 10.7285 580 71.0276 127.886 514.86
976 0 56.0413 11.0097 617 70.9968 128.062 513.22
977 0 56.1639 11.6089 652 71.3098 127.778 511.876
978 0 60.0862 12.2491 736 69.7065 128.057 511.171
979 0 60.0989 13.7107 824 68.0049 127.356 509.256
980 0 63.1168 13.071 825 67.5988 127.196 512.012
981 0 64.0869 11.3908 730 71.2096 128.152 508.516
982 0 66.1295 12.7931 846 68.6702 128.219 508.417
983 0 69.1135 11.416 789 70.7972 128.295 506.172
984 0 69.123 11.617 803 71.4732 128.463 505.133
985 0 75.0839 11.88 892 70.6513 128.641 504.095
986 0 76.1104 12.4819 950 70.0558 128.279 503.943
987 0 78.1966 12.0466 942 71.3376 128.372 502.78
988 0 79.1526 13.3918 1060 69.584 128.563 499.902
989 0 84.1158 12.7443 1072 69.2351 128.318 500.989
990 0 86.1892 11.3355 977 71.9632 128.275 498.668
991 0 88.0818 12.4203 1094 70.5859 128.558 497.399
992 0 90.2589 11.7108 1057 72.2763 129.004 495.528
993 1 49.0683 11.1885 549 69.1421 128.348 516.537
994 0 48.0569 11.965 575 68.1165 128.325 515.235
995 0 50.0754 10.8037 541 69.658 128.935 515.39
996 0 52.0798 10.4839 546 70.4817 129.333 515.575
997 0 53.0315 11.446 607 68.883 128.677 513.377
998 0 55.1081 11.4684 632 68.4225 128.263 513.695
999 0 58.0511 12.2134 709 66.8519 128.606 512.195
1000 0 56.0838 11.4828 644 68.4829 127.762 509.88
1001 0 59.0661 10.9538 647 68.7002 128.516 510.949
1002 0 63.0277 12.5976 794 64.9496 128.554 511.288
1003 0 64.0426 12.0389 771 65.9598 128.115 510.521
1004 0 66.199 12.0546 798 65.9787 128.278 507.212
1005 0 68.0436 12.1246 825 66.2509 127.903 506.189
1006 0 71.083 12.0985 860 65.1302 127.784 508.812
1007 0 70.1047 11.1119 779 68.0308 127.815 505.324
1008 0 73.1058 11.9826 876 66.4646 127.389 503.946
1009 0 77.0866 11.4287 881 66.588 127.799 504.284
1010 0 79.1433 12.0541 954 66.3428 127.721 500.789
1011 0 82.103 12.3991 1018 66.001 128.151 499.684
1012 0 86.0902 11.7783 1014 66.5217 127.709 499.71
1013 0 89.1986 12.3993 1106 65.4729 127.408 497.973
1014 1 46.1094 9.47746 437 67.913 127.304 519.304
1015 0 47.1975 10.5938 500 66.134 127.096 519.186
1016 0 50.0614 11.8055 591 64.4366 127.616 519.998
1017 0 51.1125 11.5236 589 65.202 127.1 517.969
1018 0 52.1025 11.9188 621 65.314 127.749 514.77
1019 0 54.1105 11.3656 615 65.9902 127.551 514.665
1020 0 55.1085 11.2868 622 65.754 127.289 515.968
1021 0 58.0886 10.6217 617 66.7634 126.596 513.822
1022 0 59.1766 10.2405 606 67.2211 126.845 515.104
1023 0 60.1044 11.4135 686 65.9242 127.146 513.605
1024 0 62.2414 9.80055 610 67.5213 127.07 513.746
1025 0 66.1003 12.2087 807 64.1437 127.129 511.838
1026 0 68.1699 11.9261 813 64.5744 126.689 511.571
1027 0 71.0408 11.8383 841 64.5113 126.398 508.743
1028 0 72.1423 11.1446 804 65.3781 126.738 510.239
1029 0 75.1007 12.6364 949 63.6575 126.629 507.501
1030 0 78.1079 12.2651 958 63.7651 126.796 507.204
1031 0 80.0784 11.4513 917 65.5605 126.348 505.757
1032 0 84.1187 12.2565 1031 64.1465 126.48 504.982
1033 0 86.2735 12.1242 1046 64.6214 126.51 502.099
1034 0 88.1177 11.3031 996 65.4789 126.793 503.3
1035 1 47.0495 11.3923 536 65.0952 126.853 523.58
1036 0 47.0379 10.0557 473 66.9789 126.362 522.998
1037 0 48.0568 11.0078 529 66.6163 126.529 519.363
1038 0 52.0467 11.5665 602 65.5299 125.698 517.414
1039 0 50.0519 10.8088 541 67.183 126.135 518.453
1040 0 53.0216 11.7311 622 65.9293 126.519 515.653
1041 0 57.0607 14.1954 810 61.7432 126.432 516.753
1042 0 55.1762 11.7442 648 65.2732 126.657 518.954
1043 0 60.2051 12.3412 743 64.2355 126.787 516.872
1044 0 62.0947 11.8207 734 64.0259 126.466 517.696
1045 0 64.1624 13.0294 836 63.1603 125.776 512.341
1046 0 65.1448 11.1137 724 65.3177 125.626 511.707
1047 0 68.0626 12.0037 817 63.7993 125.961 511.36
1048 0 70.1487 11.9746 840 64.0238 126.26 510.205
1049 0 72.0828 12.1388 875 63.9291 126.261 508.24
1050 0 72.0904 11.1388 803 65.533 126.247 507.64
1051 0 77.1341 13.3923 1033 62.5053 126.064 507.132
1052 0 79.1823 12.6417 1001 63.3317 125.853 507.302
1053 0 81.0686 11.0524 896 65.9364 125.188 503.327
1054 0 86.0838 12.7086 1094 63.5905 126.19 504.253
1055 1 41.0304 11.5768 475 64.381 125.981 522.762
1056 0 40.1148 10.794 433 66.8199 125.986 521.651
1057 0 44.0847 11.2737 497 64.8974 125.561 522.354
1058 0 43.1114 10.9716 473 65.7209 125.471 523.156
1059 0 47.0388 13.7546 647 61.813 125.493 519.439
1060 0 48.0302 13.3041 639 62.446 125.682 520.053
1061 0 52.0676 13.3865 697 60.726 125.91 523.61
1062 0 52.0218 12.5716 654 62.8502 125.933 520.286
1063 0 51.0215 12.2105 623 64.053 126.332 520.055
1064 0 53.1245 12.8566 683 63.022 126.382 519.268
1065 0 56.0529 12.6131 707 63.1471 126.17 518.801
1066 0 59.0796 12.7963 756 62.7566 126.176 515.899
1067 0 61.0695 13.6238 832 60.8786 125.784 515.451
1068 0 63.2847 12.9731 821 61.5798 125.382 515.48
1069 0 65.064 13.4022 872 60.9553 125.365 514.654
1070 0 67.0699 12.0471 808 62.7277 126.802 512.725
1071 0 68.1019 13.1568 896 62.6942 126.691 508.888
1072 0 73.1275 12.6628 926 62.1285 126.257 511.811
1073 0 75.1753 12.8367 965 62.1005 126.097 511.174
1074 0 77.1131 13.0587 1007 62.427 126.505 509.095
1075 0 80.1284 13.5907 1089 61.7107 126.275 508.399
1076 0 79.2619 11.9477 947 64.5407 126.684 505.733
1077 1 43.0547 11.8454 510 63.0765 126.606 523.037
1078 0 43.0211 11.1108 478 65.2092 126.303 522.395
1079 0 45.0952 13.0834 590 62.3017 126.712 521.405
1080 0 47.1103 12.3115 580 62.7328 126.531 523.747
1081 0 48.112 12.4293 598 63.1823 126.523 522.773
1082 0 47.0711 11.5995 546 65.1154 126.747 519.183
1083 0 48.0361 11.9702 575 65.407 126.64 517.997
1084 0 49.08 13.2437 650 63.2277 126.377 519.474
1085 0 52.0804 10.9062 568 65.9894 126.136 519.533
1086 0 51.0989 10.9983 562 65.8523 126.109 517.094
1087 0 55.0607 12.35 680 64.5338 126.907 516.597
1088 0 60.2362 12.6834 764 63.5196 126.738 516.343
1089 0 60.2846 12.3912 747 64.162 126.197 516.609
1090 0 60.1056 12.6943 763 65.211 126.845 512.599
1091 0 64.0744 13.2502 849 64.4393 126.786 513.49
1092 0 65.1057 14.0694 916 63.7576 127.033 512.681
1093 0 68.0937 14.8619 1012 62.4704 126.309 512.216
1094 0 68.0558 11.6963 796 66.4359 126.552 511.673
1095 0 71.0406 12.1058 860 65.8151 127.803 512.371
1096 0 75.065 14.0412 1054 64.3254 126.9 507.641
1097 0 76.202 13.8841 1058 64.6626 125.972 507.405
1098 0 80.1469 12.6518 1014 66.0335 126.434 506.824
1099 0 81.0657 14.2354 1154 63.9142 126.426 507.815
1100 0 86.1105 13.1924 1136 65.5088 126.83 503.96
1101 0 86.2222 13.9523 1203 65.6035 126.809 502.864
1102 0 89.0845 13.2571 1181 66.1008 126.626 504.301
1103 1 48.2569 12.9101 623 65.512 127.029 521.159
1104 0 49.2336 14.2383 701 63.786 126.128 522.195
1105 0 48.023 13.6393 655 65.8351 126.545 520.595
1106 0 51.0646 12.866 657 65.7702 127.11 521.508
1107 0 51.1418 12.5533 642 67.3505 127.037 518.885
1108 0 52.1484 11.8124 616 68.6786 126.778 518.695
1109 0 56.0678 12.6811 711 66.8509 126.918 518.504
1110 0 57.1459 13.2993 760 66.3908 127.305 516.746
1111 0 58.3686 11.8728 693 68.1111 127.258 515.371
1112 0 61.1349 13.184 806 66.7196 127.723 514.228
1113 0 64.1928 12.5404 805 67.1193 127.609 514.438
1114 0 63.1178 13.7045 865 65.6497 127.258 514.662
1115 0 65.1732 12.1983 795 68.1748 127.652 512.206
1116 0 70.1362 13.0175 913 66.241 128.153 511.712
1117 0 70.249 12.413 872 67.6514 127.967 510.256
1118 0 72.1204 13.1308 947 66.8226 126.997 510.99
1119 0 77.1215 13.1222 1012 67.0968 126.828 507.708
1120 0 74.2849 11.4694 852 69.8486 126.806 508.538
1121 0 83.3176 14.3187 1193 66.0092 127.161 505.923
1122 0 83.239 14.0679 1171 67.4919 127.788 504.145
1123 0 85.1009 13.2431 1127 68.5874 127.461 504.15
1124 1 46.0414 11.5765 533 69.0919 127.447 522.084
1125 0 48.115 12.0129 578 69.2215 127.476 521.161
1126 0 48.2048 10.7873 520 70.125 128.179 522.321
1127 0 48.219 11.1159 536 72.4384 127.31 519.858
1128 0 53.0844 13.3184 707 68.4639 127.351 519.605
1129 0 51.0312 11.6399 594 72.3872 127.604 518.313
1130 0 51.0552 12.3004 628 71.2006 127 519.591
1131 0 53.0221 13.3341 707 70.4653 126.897 518.506
1132 0 55.056 13.35 735 70.3197 126.824 516.731
1133 0 56.0468 10.9016 611 73.3912 126.823 517.044
1134 0 60.442 13.5998 822 69.5292 127.17 515.399
1135 0 62.0927 13.1255 815 69.7104 127.558 514.182
1136 0 62.0339 12.477 774 70.4535 126.92 514.39
1137 0 63.1929 13.166 832 70.1791 126.983 512.53
1138 0 66.0562 14.6239 966 68.323 126.669 510.601
1139 0 68.0548 13.7683 937 69.6873 127.526 511.655
1140 0 72.0914 12.4287 896 70.8627 127.545 512.277
1141 0 73.149 13.3973 980 69.7174 127.976 510.89
1142 0 75.0966 13.4227 1008 70.5814 127.617 505.769
1143 0 78.0795 12.5769 982 71.5194 127.296 506.767
1144 0 82.0638 12.21 1002 72.5519 127.682 503.986
1145 0 83.1225 13.6545 1135 71.1489 126.933 501.22
1146 0 83.106 12.2615 1019 73.6457 126.965 500.46
1147 1 45.0724 11.5148 519 71.4489 127.208 524.667
1148 0 47.0509 13.3472 628 69.8264 127.658 522.409
1149 0 46.0346 10.6224 489 75.8016 127.787 519.521
1150 0 50.1046 12.893 646 71.2152 127.523 520.697
1151 0 52.1007 11.9576 623 72.0048 127.356 521.986
1152 0 52.1205 12.4327 648 72.5247 127.136 520.573
1153 0 52.0199 11.8224 615 73.4081 127.662 520.491
1154 0 58.1228 12.1467 706 71.3739 128.232 520.282
1155 0 58.1648 12.1379 706 72 127.449 517.377
1156 0 61.1445 11.6936 715 72.4336 127.183 516.264
1157 0 60.1913 11.7957 710 72.7113 127.348 516.035
1158 0 64.0562 12.7544 817 71.7197 126.834 513.091
1159 0 67.1176 13.007 873 70.5716 127.243 513.635
1160 0 69.1581 12.8546 889 70.1519 127.337 514.607
1161 0 72.129 12.9768 936 70.6506 127.579 511.552
1162 0 75.1715 13.4093 1008 69.7431 127.478 511.381
1163 0 73.1807 11.5058 842 74.1211 127.764 507.999
1164 0 78.2461 13.777 1078 70.2032 127.565 507.964
1165 0 80.1861 13.7555 1103 70.5721 127.307 506.612
1166 0 84.3081 14.3047 1206 68.8366 127.325 506.936
1167 0 85.2758 11.5039 981 73.5076 127.752 504.826
1168 0 87.2237 12.1527 1060 72.667 127.701 503.35
1169 0 89.0902 11.4715 1022 73.543 127.758 502.29
1170 0 96.1651 13.4664 1295 69.6571 127.281 500.355
1171 0 97.1762 13.6865 1330 70.2113 127.37 497.253
1172 0 101.191 13.5388 1370 69.4088 127.431 496.996
1173 1 56.096 11.5695 649 72.2635 127.504 517.168
1174 0 60.1154 9.79783 589 73.9525 127.616 516.302
1175 0 63.2299 11.7824 745 70.8228 127.493 512.954
1176 0 64.0555 12.1613 779 70.2786 127.353 513.362
1177 0 68.149 13.1036 893 67.7895 128.169 514.097
1178 0 68.1557 12.3247 840 69.156 127.573 513.545
1179 0 71.1021 12.5031 889 68.7075 127.627 510.414
1180 0 74.2224 14.2679 1059 65.7413 126.959 509.056
1181 0 74.1284 11.8443 878 69.3576 127.367 507.874
1182 0 79.1154 12.4881 988 67.9362 127.502 507.166
1183 0 78.2279 11.6071 908 69.4945 127.862 504.435
1184 0 82.1891 12.4591 1024 68.3135 127.808 502.732
1185 0 87.1424 13.8165 1204 66.1653 127.842 501.759
1186 0 89.2297 11.3527 1013 68.8036 127.172 504.078
1187 0 91.1695 11.7364 1070 69.0159 127.571 500.164
1188 1 50.0416 12.1099 606 68.1584 127.792 520.145
1189 0 51.0655 11.3776 581 69.969 127.559 520.859
1190 0 54.1106 12.881 697 66.9053 127.68 520.941
1191 0 57.0561 12.9697 740 66.3378 127.827 520.15
1192 0 58.151 12.6223 734 67.3624 127.722 518.154
1193 0 57.2321 11.7766 674 68.7196 128.07 517.816
1194 0 60.1153 12.8753 774 67.1809 128.253 514.444
1195 0 60.0602 11.322 680 69.5088 127.762 514.929
1196 0 62.1538 13.4988 839 66.4791 127.464 513.769
1197 0 66.0823 13.8464 915 65.2066 127.608 514.252
1198 0 67.1433 13.2552 890 66.4494 127.417 510.103
1199 0 71.1394 12.3841 881 66.7537 127.381 510.959
1200 0 73.2185 12.4012 908 66.4989 127.506 509.722
1201 0 76.0466 12.6896 965 65.8591 127.556 509.219
1202 0 76.0899 12.5378 954 66.6625 128.172 507.674
1203 0 79.0736 13.0132 1029 66.0593 127.707 505.847
1204 0 84.2864 13.1694 1110 65.0207 127.835 508.032
1205 0 86.2628 13.1922 1138 65.1547 128.373 505.927
1206 0 90.1051 13.684 1233 64.5556 127.033 503.134
1207 1 48.1368 11.218 540 67.1 127.496 523.115
1208 0 49.1605 13.0186 640 65.5531 128.5 521.573
1209 0 49.0724 12.5733 617 67.9206 128.3 519.446
1210 0 52.0662 13.0795 681 66.7562 127.695 518.396
1211 0 55.0757 12.7824 704 66.392 127.511 517.278
1212 0 58.0816 12.8957 749 65.9092 128.251 519.222
1213 0 57.1668 14.7813 845 65.0462 127.521 514.989
1214 0 60.2104 13.5192 814 65.7568 127.909 515.845
1215 0 61.1324 13.07 799 66.7046 128.519 515.083
1216 0 65.0482 12.2217 795 67.3308 128.43 515.332
1217 0 66.1606 13.0743 865 66.5584 128.514 511.739
1218 0 69.1611 13.4469 930 65.7452 128.405 512.876
1219 0 72.1533 13.901 1003 64.9402 128.254 512.714
1220 0 73.145 12.195 892 67.1525 128.266 511.151
1221 0 78.2008 14.4372 1129 63.6253 128.6 509.575
1222 0 79.1506 13.4933 1068 65.412 127.665 508.705
1223 0 82.1788 14.0304 1153 64.4623 128.19 505.603
1224 0 84.1886 14.7407 1241 63.7599 128.807 504.244
1225 1 41.1914 10.8275 446 69.8677 128.601 521.433
1226 0 45.063 11.8723 535 67.714 128.277 521.179
1227 0 47.0438 13.1579 619 66.2876 128.407 521.223
1228 0 50.2022 13.2066 663 65.816 127.802 520.483
1229 0 51.0718 13.7062 700 65.4529 127.509 519.553
1230 0 51.0674 13.5703 693 66.1616 128.424 519.242
1231 0 52.1162 14.3142 746 65.3579 128.21 517.607
1232 0 56.0891 12.3553 693 66.4372 127.864 518.254
1233 0 58.0275 12.4596 723 66.7331 127.773 514.958
1234 0 60.111 13.1923 793 65.9546 128.142 515.349
1235 0 61.0546 13.5944 830 65.5566 127.963 513.213
1236 0 64.1992 14.5173 932 63.8948 127.855 512.964
1237 0 66.1829 14.2031 940 64.3277 128.491 511.68
1238 0 67.149 12.3457 829 66.1279 127.826 512.958
1239 0 70.2149 13.6011 955 64.8785 127.671 510.736
1240 0 73.0987 13.2287 967 64.2534 127.493 511.903
1241 0 75.0879 14.5296 1091 63.6004 127.514 505.571
1242 0 76.2692 12.9803 990 65.5283 127.962 507.737
1243 0 80.1552 13.7359 1101 64.6976 128.376 503.956
1244 0 83.1231 13.474 1120 64.6929 127.638 506.882
1245 0 87.1332 14.8623 1295 62.9066 127.765 502.177
1246 0 89.2847 14.1346 1262 63.7266 127.586 502.572
1247 0 92.1224 13.4929 1243 63.9654 128.361 503.183
1248 1 47.0803 12.9991 612 65.567 127.99 521.507
1249 0 46.0522 12.4858 575 67.12 127.946 520.595
1250 0 51.186 13.9687 715 64.2168 128.213 520.017
1251 0 52.1888 12.6464 660 65.7303 128.192 519.345
1252 0 55.1666 13.5952 750 64.0213 128.653 519.315
1253 0 56.1402 12.9141 725 65.8386 128.549 517.305
1254 0 58.122 16.3965 953 61.2298 127.884 516.189
1255 0 58.0172 13.0996 760 65.8987 127.959 515.496
1256 0 61.0696 13.7712 841 64.2866 128.361 515.049
1257 0 63.0511 14.3059 902 63.316 127.772 514.385
1258 0 65.0492 12.9594 843 65.1696 127.732 513.104
1259 0 66.1992 14.4262 955 63.6544 127.423 511.797
1260 0 69.1153 12.8047 885 65.7367 127.506 511.09
1261 0 69.0711 13.8842 959 64.6705 127.781 506.969
1262 0 74.0828 14.3353 1062 63.6751 127.759 507.503
1263 0 77.0722 13.5198 1042 64.5864 127.724 506.537
1264 0 79.0276 13.0208 1029 65.2964 127.176 506.086
1265 0 81.1913 13.0679 1061 65.967 127.876 502.846
1266 0 83.1336 13.4482 1118 65.7308 127.655 500.594
1267 0 87.0993 14.1563 1233 64.2863 128.019 501.749
1268 1 47.019 10.4 489 69.6564 127.836 519.894
1269 0 48.0769 12.9376 622 66.3987 127.302 520.682
1270 0 49.0442 14.334 703 65.404 126.777 519.374
1271 0 49.0148 12.18 597 67.7069 126.412 517.044
1272 0 52.0977 12.4382 648 67 127.142 517.526
1273 0 55.1953 13.7331 758 65.0594 127.632 516.011
1274 0 56.1046 11.8885 667 67.3823 127.124 514.816
1275 0 59.1126 13.3813 791 65.1795 127.665 515.277
1276 0 58.0765 12.7418 740 66.4689 127.777 512.177
1277 0 62.2308 12.2126 760 66.221 128.529 511.805
1278 0 63.1438 12.9387 817 66.1652 127.449 510.131
1279 0 67.141 13.2259 888 64.4504 127.787 510.855
1280 0 68.1358 14.8087 1009 62.8771 128.134 508.086
1281 0 69.1433 10.8037 747 67.1044 127.76 509.392
1282 0 73.2061 14.5206 1063 62.8043 127.172 504.938
1283 0 76.0508 12.9124 982 64.5978 127.974 502.594
1284 0 78.156 12.1808 952 65.2574 128.146 501.252
1285 0 82.1135 13.2012 1084 63.8662 127.49 499.729
1286 1 42.1091 14.4149 607 62.6705 126.929 521.241
1287 0 45.2568 13.4124 607 62.804 128.013 520.649
1288 0 45.0389 12.7445 574 64.7631 127.995 517.815
1289 0 47.1299 13.6644 644 62.9627 127.778 519.155
1290 0 49.1099 13.0524 641 63.9345 127.49 518.707
1291 0 50.0411 14.8478 743 61.79 127.638 519.071
1292 0 52.0559 13.255 690 64.0652 127.307 515.736
1293 0 53.1424 12.5135 665 64.012 127.134 517.301
1294 0 55.068 16.2163 893 59.9082 127.676 515.358
1295 0 62.1787 15.6002 970 58.9722 126.601 514.639
1296 0 59.1648 12.9976 769 64.0988 127.334 511.088
1297 0 63.2465 13.0916 828 62.6027 127.554 512.972
1298 0 63.2081 14.0014 885 62.6215 127.82 509.583
1299 0 68.1676 12.792 872 63.6193 127.845 508.721
1300 0 71.1798 13.9084 990 62.1788 128.087 507.31
1301 0 72.2709 13.7538 994 62.1499 127.836 506.535
1302 0 73.0591 13.8655 1013 62.7818 128.049 506.6
1303 0 78.0672 14.1673 1106 62.3029 127.754 503.901
1304 0 80.0599 13.3525 1069 63.5547 127.592 501.414
1305 0 83.1491 13.7223 1141 63.0166 128.264 503.217
1306 1 41.0918 10.9998 452 65.7832 127.728 520.108
1307 0 43.0325 12.1536 523 64.1338 127.727 521.023
1308 0 47.068 11.834 557 63.3591 127.903 520.42
1309 0 48.0931 12.9748 624 61.5465 128.04 520.737
1310 0 48.0579 12.7346 612 62.2647 127.989 518.982
1311 0 52.0626 12.9267 673 61.636 128.033 518.299
1312 0 53.1114 11.6736 620 63.1742 128.6 517.689
1313 0 51.1056 11.4469 585 64.6325 128.391 516.675
1314 0 56.0839 13.4085 752 61.359 127.447 513.233
1315 0 57.118 12.8156 732 61.9481 127.91 514.116
1316 0 59.1731 12.7254 753 62.0823 127.244 513.283
1317 0 60.1519 12.0362 724 62.982 127.478 512.383
1318 0 63.0871 13.521 853 60.4936 127.601 514.108
1319 0 65.1284 13.7881 898 60.7027 127.984 509.251
1320 0 67.2454 12.9526 871 61.5396 127.364 509.025
1321 0 69.1985 12.4425 861 62.0685 127.854 509.656
1322 0 73.0709 13.7538 1005 60.603 127.182 507.095
1323 0 77.1173 13.5897 1048 60.6384 127.545 507.59
1324 0 76.0714 13.7239 1044 61.887 127.659 506.366
1325 1 39.0557 10.0882 394 64.2487 127.071 523.175
1326 0 44.0857 11.8633 523 62.0803 127.161 521.533
1327 0 43.0882 12.0219 518 63.0212 127.842 519.527
1328 0 45.05 9.9889 450 65.3933 127.684 518.782
1329 0 48.0841 12.7277 612 60.982 128.34 520.685
1330 0 47.0629 12.0689 568 63.7025 127.593 518.491
1331 0 49.1462 11.8422 582 63.3368 126.936 519.514
1332 0 50.1792 12.276 616 63.7354 127.846 515.407
1333 0 50.0738 11.6029 581 65.6988 127.993 516.224
1334 0 53.0883 12.0177 638 65.1834 127.972 516.661
1335 0 55.2042 13.9663 771 61.8859 127.22 517.256
1336 0 60.0747 12.5011 751 63.1505 127.744 515.391
1337 0 59.0641 12.5626 742 63.9784 127.701 513.566
1338 0 60.1084 12.7437 766 64.1514 127.262 512.598
1339 0 63.0913 12.4581 786 63.7748 127.169 513.114
1340 0 64.2615 10.644 684 66.386 127.749 510.911
1341 0 66.0805 11.3498 750 64.7187 127.197 511.332
1342 0 70.1604 13.0986 919 62.5756 127.486 507.526
1343 0 72.1603 13.2344 955 62.4272 127.596 506.879
1344 0 74.0822 11.2983 837 64.4098 127.554 505.821
1345 0 78.1099 12.2008 953 63.7922 126.607 505.229
1346 0 78.0459 13.7227 1071 62.4267 126.725 502.461
1347 0 81.283 10.7279 872 65.8349 127.287 503.962
1348 0 85.3182 13.9595 1191 61.8354 127.833 499.204
1349 0 89.1734 12.2122 1089 63.7429 127.313 500.438
1350 0 89.3999 13.9486 1247 62.3665 127.225 498.335
1351 0 92.2037 11.8216 1090 65.1 126.712 496.523
1352 1 51.1762 9.96557 510 65.1726 127.549 520.708
1353 0 53.3397 12.3735 660 63.5273 126.253 515.462
1354 0 55.1418 11.6971 645 64.4667 126.98 515.513
1355 0 57.4051 11.8108 678 64.9794 127.078 512.63
1356 0 58.1124 12.6823 737 64.6567 126.483 512.412
1357 0 59.1592 12.4072 734 65.4646 126.764 510.181
1358 0 62.0749 13.5159 839 63.2098 127.329 511.628
1359 0 62.0997 11.868 737 65.6255 127.361 508.834
1360 0 67.1482 12.882 865 63.2694 127.64 510.266
1361 0 68.2634 12.2027 833 64.4562 127.442 508.437
1362 0 70.1975 12.4078 871 64.5144 126.704 506.949
1363 0 71.1415 11.0625 787 65.6925 126.475 506.798
1364 0 74.2121 13.4345 997 62.9709 127.028 503.918
1365 0 77.0652 11.8471 913 64.4732 126.717 501.835
1366 0 79.1046 12.199 965 64.2352 126.666 502.139
1367 0 82.0506 12.4557 1022 63.5401 127.361 501.839
1368 0 86.2308 13.4291 1158 62.2185 126.984 497.492
1369 0 86.1159 13.1218 1130 63.4655 127.178 497.249
1370 0 90.1296 13.5139 1218 63.0058 127.313 498.546
1371 0 95.1708 10.8647 1034 64.8704 127 499.108
1372 1 53.2392 12.7913 681 62.3935 127.355 517.859
1373 0 51.0675 12.0233 614 64.3925 126.624 516.337
1374 0 50.0653 10.5862 530 67.0623 126.323 515.332
1375 0 55.0246 12.1945 671 64.6513 126.779 515.002
1376 0 56.1584 12.8031 719 63.306 126.687 516.114
1377 0 59.2939 11.4683 680 64.6897 126.859 512.297
1378 0 62.0845 14.4964 900 60.8122 127.227 513.327
1379 0 64.0439 13.0848 838 62.3747 127.144 512.811
1380 0 65.2567 13.7151 895 62.1095 127.051 509.034
1381 0 67.2394 11.645 783 64.7484 127.471 510.073
1382 0 72.0293 14.2997 1030 60.5699 127.22 509.279
1383 0 75.0932 12.8773 967 62.1903 127.26 508.087
1384 0 77.1652 13.9959 1080 60.8778 127.221 507.786
1385 0 79.1365 13.8621 1097 61.784 127.655 504.441
1386 0 81.1185 12.8331 1041 62.6359 127.524 503.529
1387 0 82.2956 11.6653 960 64.7708 127.268 499.121
1388 0 88.1782 14.3233 1263 61.2993 128.056 499.546
1389 0 89.2692 12.7256 1136 63.7817 127.835 501.085
1390 1 44.1596 8.94483 395 68.5646 127.575 520.496
1391 0 51.3552 12.1896 626 63.6486 126.449 518.625
1392 0 51.328 14.1054 724 62.047 126.155 518.22
1393 0 54.1425 11.8391 641 65.0328 127.036 517.769
1394 0 54.2424 14.4721 785 62.4357 127.031 516.692
1395 0 56.155 14.2997 803 63.1233 126.888 513.484
1396 0 60.3639 14.1641 855 62.1918 126.174 515.241
1397 0 59.0969 13.0125 769 65.0585 127.218 512.663
1398 0 60.0798 14.3642 863 63.4473 126.742 511.919
1399 0 64.1508 13.9203 893 63.5084 126.941 511.525
1400 0 68.0717 14.0587 957 62.8809 126.992 509.307
1401 0 67.128 13.3476 896 64.4643 127.164 509.25
1402 0 72.0459 14.3797 1036 62.6004 127.495 508.846
1403 0 74.2817 12.6007 936 64.8814 126.982 508.916
1404 0 77.0705 13.8964 1071 62.8768 127.312 506.294
1405 0 79.1972 12.6772 1004 64.76 127.162 503.87
1406 0 83.1449 13.7471 1143 63.14 127.066 502.784
1407 0 83.1257 11.236 934 66.7987 126.591 501.256
1408 0 88.1648 12.5107 1103 64.7752 126.792 502.231
1409 1 48.0295 13.4501 646 63.0464 127.567 522.752
1410 0 51.1298 12.4194 635 62.8835 127.402 524.468
1411 0 52.3058 12.6563 662 64.2915 127.924 518.678
1412 0 57.2504 13.9737 800 61.8488 126.992 520.221
1413 0 56.0648 13.7163 769 63.7646 127.391 516.867
1414 0 57.1803 12.9765 742 63.8086 126.958 520.005
1415 0 60.0511 13.5052 811 63.1788 127.115 517.335
1416 0 65.0908 14.426 939 61.0447 127.996 517.072
1417 0 64.0843 13.9972 897 62.7101 126.997 513.777
1418 0 66.0935 13.4506 889 63.5073 126.561 512.087
1419 0 68.0885 13.2034 899 63.2914 126.711 512.105
1420 0 69.2014 13.4679 932 63.5043 126.956 510.588
1421 0 73.1022 14.254 1042 62.2255 127.645 507.818
1422 0 76.114 15.3454 1168 60.7098 127.871 505.829
1423 0 76.1375 13.1473 1001 63.2647 126.999 508.738
1424 0 79.2022 13.0426 1033 63.4511 128.251 506.538
1425 0 85.1297 13.6498 1162 62.1506 128.131 507.581
1426 0 85.0512 13.6506 1161 63.6348 127.443 504.521
1427 0 87.1182 12.638 1101 65.0681 127.417 502.04
1428 0 92.2393 12.9446 1194 64.1859 128.009 501.867
1429 0 94.181 12.1681 1146 65.5332 127.842 500.037
1430 0 98.103 15.1677 1488 61.9482 128.099 498.562
1431 1 52.0459 11.4322 595 65.7429 128.054 519.671
1432 0 52.0433 13.335 694 65.255 128.182 518.635
1433 0 56.0978 12.7813 717 67.1437 128.045 513.531
1434 0 59.2325 14.8905 882 63.5102 128.526 513.526
1435 0 61.1389 13.9682 854 64.6733 128.367 512.829
1436 0 62.1448 13.5651 843 64.9644 128.186 514.01
1437 0 63.1242 14.321 904 63.9414 127.367 514.514
1438 0 63.0796 11.002 694 69.2421 128.313 510.947
1439 0 69.2392 13.7494 952 64.6492 128.014 510.732
1440 0 72.1261 13.1852 951 65.2671 127.961 510.442
1441 0 74.2418 13.1328 975 65.7262 127.682 509.475
1442 0 78.1706 15.0312 1175 62.8749 127.078 509.434
1443 0 78.151 14.3696 1123 64.8727 127.429 506.334
1444 0 81.3148 13.7859 1121 65.339 127.651 504.301
1445 0 84.1555 13.9979 1178 65.3506 127.444 503.732
1446 0 85.1146 15.3558 1307 63.9327 127.2 504.259
1447 0 88.1064 12.9957 1145 67.6891 128.093 502.444
1448 0 93.1432 14.9984 1397 63.9041 127.767 505.025
1449 1 53.1713 12.3751 658 66.5395 127.176 521.822
1450 0 49.0921 10.6534 523 71.4512 128.159 520.218
1451 0 54.0644 12.3926 670 69.3418 127.358 518.703
1452 0 54.1527 13.4065 726 68.1185 127.796 516.088
1453 0 57.1679 12.8219 733 67.7831 127.121 518.895
1454 0 57.0385 13.6048 776 67.7784 127.253 516.823
1455 0 58.1202 13.3344 775 68.729 127.661 515.059
1456 0 60.0843 12.9318 777 68.1107 127.81 514.071
1457 0 62.1001 12.5926 782 68.9118 127.349 512.081
1458 0 66.1368 14.9538 989 65.5379 127.472 511.5
1459 0 66.1934 14.4727 958 66.5637 127.819 512.483
1460 0 70.1512 12.3305 865 69.0613 127.947 509.852
1461 0 75.2339 13.4248 1010 66.7693 127.688 510.032
1462 0 77.4632 13.2192 1024 68.0361 128.068 507.205
1463 0 75.1561 11.9485 898 70.9343 128.202 507.298
1464 0 78.0846 11.8845 928 71.0011 127.625 504.863
1465 0 82.1486 12.9035 1060 69.4066 128.153 505.328
1466 0 84.1487 12.5968 1060 69.6802 127.295 501.925
1467 0 89.1661 13.0992 1168 68 127.05 504.395
1468 0 92.1333 13.0463 1202 69.1364 127.428 499.874
1469 0 93.0727 13.3229 1240 69.1532 127.74 498.352
1470 0 98.3 14.0183 1378 67.8367 127.938 495.065
1471 0 104.17 12.9307 1347 67.9963 127.562 498.382
1472 1 52.0577 12.0635 628 69.7054 127.876 518.051
1473 0 55.0898 12.0531 664 69.6626 127.086 517.145
1474 0 56.0912 13.1393 737 67.7232 127.134 517.878
1475 0 60.4164 13.8869 839 66.385 127.733 514.969
1476 0 61.1456 14.0484 859 66.227 127.697 513.908
1477 0 61.1216 12.0907 739 68.728 127.721 511.863
1478 0 63.2578 13.8797 878 65.336 127.189 512.869
1479 0 66.0817 13.2715 877 66.7537 127.205 509.664
1480 0 69.1136 13.0076 899 66.7464 128.059 509.191
1481 0 72.085 12.9014 930 66.4333 127.083 505.875
1482 0 72.2267 13.4576 972 65.784 127.94 507.206
1483 0 77.1113 13.7853 1063 64.3979 127.865 505.915
1484 0 78.1493 11.9515 934 67.3276 127.638 501.591
1485 0 78.2198 11.8001 923 67.5504 127.411 503.14
1486 0 83.07 11.2074 931 68.2266 127.618 503.508
1487 0 86.1002 14.0185 1207 65.164 127.45 498.795
1488 0 91.1769 13.6109 1241 65.0419 127.342 499.911
1489 0 93.1554 11.98 1116 67.2079 127.847 499.408
1490 0 96.1625 12.9468 1245 65.9558 127.777 499.166
1491 0 99.1257 14.0226 1390 65.2086 127.571 495.383
1492 0 102.106 11.8896 1214 67.8764 127.105 494.964
1493 1 52.0633 10.0263 522 70.749 126.897 515.814
1494 0 57.0407 11.2376 641 68.3557 126.799 518.356
1495 0 59.08 11.9668 707 68.6931 127.364 514.86
1496 0 62.224 11.9889 746 67.0416 127.048 515.263
1497 0 65.186 13.147 857 66.2089 127.354 512.007
1498 0 66.1209 12.9611 857 66.4924 127.177 510.469
1499 0 69.088 13.2585 916 65.7413 127.239 509.219
1500 0 73.1563 13.765 1007 64.3446 126.995 507.838
1501 0 72.1987 12.4795 901 66.5294 126.85 505.612
1502 0 77.117 12.0077 926 66.5335 127.536 505.531
1503 0 78.0635 12.8229 1001 65.8651 126.746 502.769
1504 0 83.1457 14.0597 1169 63.3704 126.708 504.121
1505 0 85.1389 13.0258 1109 64.9198 127.326 502.168
1506 0 89.1773 13.1087 1169 64.9769 127.506 499.051
1507 0 93.1136 13.897 1294 63.6167 127.411 499.818
1508 0 95.1301 12.9086 1228 64.9243 127.678 498.954
1509 0 101.142 13.8518 1401 63.7659 127.47 493.637
1510 0 101.146 12.7538 1290 66.1473 126.45 491.146
1511 1 55.0315 10.8847 599 67.9032 127.93 514.194
1512 0 57.0471 11.4817 655 66.8061 127.402 515.716
1513 0 59.0927 10.8474 641 67.5679 127.395 513.905
1514 0 62.0959 12.6578 786 65.9058 127.202 511.949
1515 0 65.1574 11.3264 738 67.355 127.108 511.661
1516 0 69.0646 13.3498 922 64.5748 127.426 510.082
1517 0 72.1979 14.2109 1026 63.5653 127.678 506.826
1518 0 74.1786 13.2383 982 64.9674 127.615 507.624
1519 0 78.1098 13.4938 1054 64.3596 126.932 505.799
1520 0 76.1258 13.7404 1046 65.4608 126.759 503.468
1521 0 81.1204 12.7711 1036 66.139 126.719 505.003
1522 0 85.141 12.5322 1067 65.8276 128.182 504.127
1523 0 87.1381 13.7024 1194 64.5972 127.575 501.4
1524 0 89.1088 13.2422 1180 64.889 127.142 502.967
1525 0 90.1166 13.7489 1239 65.6255 127.877 498.171
1526 0 94.1232 14.7466 1388 64.0497 127.447 495.547
1527 0 96.0724 12.4594 1197 67.2531 127.547 492.905
1528 0 100.094 12.9678 1298 66.3451 127.482 491.899
1529 0 104.181 14.3212 1492 64.4993 127.29 490.755
1530 1 53.1055 11.2794 599 67.9933 127.518 514.614
1531 0 58.0855 10.5878 615 66.6032 127.306 517.938
1532 0 58.0284 11.6839 678 67.2522 127.235 513.478
1533 0 58.0673 11.28 655 67.9313 127.834 512.212
1534 0 64.1994 14.0344 901 62.9545 127.495 511.368
1535 0 64.0558 11.7242 751 66.004 127.083 512.107
1536 0 68.0336 13.9931 952 63.4884 127.621 508.913
1537 0 70.0648 14.929 1046 61.4302 127.92 509.594
1538 0 71.0769 11.8885 845 65.6959 127.647 504.8
1539 0 73.149 14.0398 1027 63.0721 127.274 505.173
1540 0 73.11 10.9698 802 67.0262 127.107 505.202
1541 0 78.0569 12.35 964 64.8797 126.659 504.235
1542 0 80.1204 12.606 1010 64.5723 126.982 502.708
1543 0 83.1589 11.7125 974 65.6869 127.587 501.491
1544 0 88.1021 13.0644 1151 63.9818 127.567 500.193
1545 0 89.0908 13.9296 1241 63.0008 127.67 496.941
1546 0 93.2495 15.3567 1432 60.433 127.228 500.256
1547 0 98.3262 15.0011 1475 61.0556 127.317 493.974
1548 0 100.102 12.6072 1262 64.0777 126.959 492.314
1549 0 104.051 12.686 1320 63.9485 126.976 493.016
1550 0 103.25 14.431 1490 62.7295 127.426 490.664
1551 1 55.1217 10.3952 573 66.7365 127.44 514.506
1552 0 57.0987 11.1911 639 65.7527 127.673 511.991
1553 0 62.1111 13.4598 836 62.3768 127.64 512.748
1554 0 63.138 11.6095 733 65.06 126.784 511.54
1555 0 66.0832 12.5145 827 63.7993 126.632 511.768
1556 0 69.0559 11.9468 825 63.8376 126.587 512.59
1557 0 69.1377 11.6145 803 64.7385 126.458 508.271
1558 0 71.2195 11.8928 847 64.1027 127.132 507.459
1559 0 73.2142 12.5249 917 63.4373 127.233 506.866
1560 0 77.0898 13.3481 1029 62.587 126.764 504.74
1561 0 79.17 13.2121 1046 62.8212 127.592 501.496
1562 0 83.1658 12.6735 1054 62.9734 126.538 501.679
1563 0 85.044 14.2397 1211 61.1164 126.629 500.647
1564 0 90.184 13.8938 1253 61.2969 126.735 500.497
1565 0 90.1114 11.5968 1045 64.934 127.191 498.158
1566 1 46.1097 12.1666 561 64.4349 126.312 517.467
1567 0 49.1384 11.8034 580 63.7638 126.593 518.838
1568 0 52.2319 12.8466 671 62.7571 126.642 516.702
1569 0 54.1636 13.053 707 62.8076 126.348 516.963
1570 0 56.2661 11.9432 672 63.8527 126.859 515.943
1571 0 57.1121 13.3422 762 62.0774 127.047 516.181
1572 0 58.1424 13.5701 789 62.8314 127.515 512.926
1573 0 60.077 12.5672 755 63.6252 126.777 511.693
1574 0 61.1711 13.7974 844 62.3329 126.48 509.434
1575 0 64.3367 13.9423 897 62.243 126.784 510.488
1576 0 67.3537 13.1693 887 63.23 126.663 509.238
1577 0 69.2588 13.8033 956 62.6381 126.689 509.703
1578 0 72.2396 13.7321 992 63.1512 126.783 507.719
1579 0 75.1844 14.9499 1124 61.468 126.932 506.558
1580 0 75.2312 13.638 1026 64.039 126.967 505.467
1581 0 81.153 13.6532 1108 63.5262 126.918 505.713
1582 0 84.1143 13.8264 1163 63.681 126.6 502.145
1583 0 87.1928 14.6113 1274 62.96 127.308 500.735
1584 0 86.1306 13.6769 1178 64.4711 127.005 501.641
1585 0 91.3282 14.3439 1310 63.7649 127.372 498.231
1586 0 96.1753 14.0057 1347 62.7283 127.111 502.402
1587 0 95.1511 11.8759 1130 67.2938 126.939 495.975
1588 1 49.2934 11.888 586 66.2543 126.457 517.536
1589 0 52.3433 12.1505 636 66.2217 126.461 516.283
1590 0 53.195 12.6892 675 66.5452 127.04 516.644
1591 0 57.1833 14.2174 813 63.9938 126.862 514.854
1592 0 56.1821 11.9433 671 67.6692 127.27 512.125
1593 0 60.1196 13.2735 798 65.5551 126.895 511.279
1594 0 60.2218 13.4005 807 65.7237 127.152 511.819
1595 0 63.4398 13.7768 874 64.4199 126.497 511.843
1596 0 65.1573 14.9638 975 63.3703 126.243 512.16
1597 0 66.232 13.3168 882 65.517 125.472 510.539
1598 0 71.1938 14.9873 1067 62.762 125.66 508.327
1599 0 72.2395 13.0815 945 65.3344 126.187 505.995
1600 0 75.158 14.2101 1068 64.0927 127.092 506.632
1601 0 79.2678 13.0065 1031 64.354 127.581 507.12
1602 0 80.3402 13.0196 1046 65.457 126.751 504.033
1603 0 83.3062 13.3243 1110 64.3279 126.584 505.279
1604 0 85.223 15.3597 1309 62.1199 126.794 500.956
1605 0 87.1204 13.246 1154 65.6057 127.14 500.381
1606 0 90.3145 13.6412 1232 64.9578 126.197 496.853
1607 0 93.1889 12.9629 1208 65.726 127.377 498.273
1608 0 98.3195 14.341 1410 63.9333 126.433 494.964
1609 0 101.273 14.2486 1443 63.7838 127.069 497.329
1610 0 103.44 13.6311 1410 64.6518 127.249 491.728
1611 1 55.2473 10.1362 560 67.7125 127.214 516.302
1612 0 57.3172 11.131 638 67.6646 126.851 512.544
1613 0 60.2018 14.4348 869 62.9517 126.83 513.005
1614 0 60.4766 12.8149 775 65.4374 127.658 511.124
1615 0 64.234 12.2365 786 65.2226 126.77 510.209
1616 0 67.2847 14.7285 991 62.1463 127.351 510.555
1617 0 70.232 14.4948 1018 61.6866 127.43 510.238
1618 0 71.2887 13.4103 956 63.3504 126.991 506.849
1619 0 74.1717 13.1452 975 63.3641 127.328 506.809
1620 0 78.3036 14.6864 1150 61.2661 127.076 506.227
1621 0 77.3655 13.9468 1079 62.9333 126.978 502.224
1622 0 83.325 14.4614 1205 61.4664 127.451 503.294
1623 0 85.242 13.4206 1144 62.4948 126.933 502.934
1624 0 89.4101 13.9582 1248 61.9343 127.066 501.651
1625 0 88.1945 12.4044 1094 65.1399 127.573 497.811
1626 0 92.2519 13.3439 1231 63.8262 127.615 496.121
1627 0 93.227 12.668 1181 64.9729 127.132 493.069
1628 0 98.2918 12.6155 1240 64.7379 126.908 494.199
1629 0 103.188 14.6819 1515 61.6891 126.771 493.624
1630 0 105.223 13.7233 1444 63.6939 126.96 489.902
1631 0 106.268 11.9792 1273 65.63 126.387 489.892
1632 0 112.231 13.3119 1494 64.0402 126.872 482.885
1633 0 116.274 12.7629 1484 64.7143 127.56 482.914
1634 1 65.2815 11.7798 769 63.6749 127.637 511.425
1635 0 66.1594 12.2583 811 64.4427 127.719 507.493
1636 0 72.191 13.8244 998 61.4489 127.054 508.748
1637 0 73.2628 14.1682 1038 62.2023 127.523 502.822
1638 0 75.301 12.5496 945 64.0339 127.824 505.098
1639 0 77.227 13.5963 1050 63.3714 127.782 503.209
1640 0 82.2055 14.1718 1165 62.1528 127.225 501.694
1641 0 83.1125 14.0171 1165 62.2498 127.621 500.616
1642 0 84.3117 12.3708 1043 64.9243 128.037 499.465
1643 0 89.3301 14.1498 1264 62.9502 126.581 496.4
1644 0 92.1942 13.3197 1228 63.7565 127.327 497.836
1645 0 96.2334 13.7582 1324 63.4554 127.13 493.759
1646 0 99.3943 12.4051 1233 65.3066 127.007 493.113
1647 0 105.285 12.8699 1355 64.3247 126.868 494.719
1648 0 108.284 12.5872 1363 64.6075 126.91 495.062
1649 0 112.181 14.3874 1614 63.0081 127.351 490.946
1650 1 58.1457 11.54 671 66.1416 127.347 513.046
1651 0 62.1021 13.816 858 63.3042 126.679 513.367
1652 0 64.1223 12.7413 817 65.2595 126.463 509.589
1653 0 68.2331 12.2228 834 65.4916 126.217 508.639
1654 0 67.2386 13.7124 922 64.9317 126.49 506.098
1655 0 71.078 13.8721 986 63.86 126.382 505.505
1656 0 75.1865 11.2254 844 66.8981 126.718 506.329
1657 0 74.1418 12.7189 943 66.052 126.563 503.116
1658 0 76.1731 12.1959 929 67.056 127.071 500.578
1659 0 81.1162 12.1307 984 66.5417 126.968 501.319
1660 0 81.2992 12.6569 1029 66.1351 126.77 500.868
1661 0 88.1548 15.2119 1341 61.9761 126.621 500.135
1662 0 90.1912 12.9281 1166 65.1458 126.919 497.784
1663 0 93.1331 13.325 1241 65.0492 127.537 496.841
1664 0 96.1562 14.3412 1379 63.7875 126.465 490.767
1665 0 101.319 13.64 1382 64.3177 126.205 494.224
1666 0 102.208 12.3082 1258 66.7814 126.852 488.279
1667 0 107.138 13.6272 1460 64.5281 126.686 487.266
1668 1 51.2691 12.8147 657 63.5236 126.7 515.845
1669 0 53.1816 11.2257 597 65.7487 126.449 514.76
1670 0 55.1039 12.1407 669 65.015 126.575 513.868
1671 0 57.0438 12.2537 699 65.485 126.884 512.057
1672 0 60.2398 12.417 748 64.4973 127.124 510.031
1673 0 61.252 12.2445 750 65.4533 127.216 509.491
1674 0 62.199 14.1321 879 63.3026 126.967 506.875
1675 0 66.2511 13.0111 862 64.2471 127.117 506.352
1676 0 69.3472 15.0114 1041 61.1527 127.07 507.885
1677 0 70.4995 14.1278 996 62.8032 126.829 505.715
1678 0 72.1776 13.0373 941 64.2242 126.845 504.663
1679 0 75.4564 14.0611 1061 63.1894 126.589 503.554
1680 0 75.091 13.4903 1013 64.1658 126.785 499.166
1681 0 80.3492 13.6156 1094 63.1947 126.652 501.174
1682 0 81.1188 13.4617 1092 64.859 126.451 499.221
1683 0 85.304 15.5913 1330 62.0602 126.848 498.545
1684 0 87.2189 14.1254 1232 63.5974 126.399 496.128
1685 0 89.1507 16.4216 1464 61.0239 126.37 495.542
1686 0 93.1896 14.1432 1318 64.0137 126.967 494.25
1687 0 96.2304 14.4029 1386 63.8708 126.67 493.691
1688 0 99.2392 14.0972 1399 63.9442 126.164 493.152
1689 0 100.286 14.2692 1431 64.2851 125.824 489.76
1690 0 104.256 13.6683 1425 64.8105 126.443 489.163
1691 0 105.109 13.4812 1417 65.1828 127.08 489.919
1692 0 111.213 13.4067 1491 64.9584 126.999 487.594
1693 0 113.202 12.9503 1466 65.2415 127.087 487.36
1694 0 117.274 12.7308 1493 65.8326 126.918 481.849
1695 0 120.203 15.3408 1844 62.7072 126.332 478.077
1696 0 125.237 14.3408 1796 63.6526 126.601 476.246
1697 0 130.401 13.4509 1754 65.4196 126.498 473.689
1698 0 135.411 13.2707 1797 64.9199 127.091 475.07
1699 0 140.217 13.7929 1934 64.4716 126.871 471.246
1700 0 144.156 14.4357 2081 64.2585 126.493 469.343
1701 1 82.1967 12.4579 1024 66.0518 127.322 499.324
1702 0 83.1882 12.1532 1011 66.5124 126.608 498.78
1703 0 88.2338 14.3369 1265 63.3945 126.338 498.255
1704 0 93.1309 13.3575 1244 64.6849 126.834 495.363
1705 0 96.3288 13.2463 1276 65.0353 125.993 496.299
1706 0 101.169 12.1678 1231 66.883 127.041 493.057
1707 0 103.161 13.2318 1365 65.8762 126.532 488.327
1708 0 106.107 12.9398 1373 66.0284 126.835 486.862
1709 0 107.207 12.9376 1387 66.7094 126.112 484.332
1710 0 113.148 14.459 1636 64.6388 125.394 481.611
1711 0 116.202 13.6056 1581 65.8937 125.911 478.86
1712 0 126.186 13.8208 1744 64.6055 125.098 480.769
1713 0 127.236 13.5339 1722 64.964 125.901 482.483
1714 0 134.224 13.9915 1878 64.1992 126.86 477.727
1715 1 73.1995 14.1804 1038 64.1378 126.747 504.231
1716 0 79.1763 11.4933 910 66.3286 127.096 507.469
1717 0 79.0956 14.1095 1116 64.3683 127.289 503.801
1718 0 82.2122 12.711 1045 66.201 126.885 501.21
1719 0 87.4165 12.6635 1107 65.9169 127.148 501.328
1720 0 92.3507 14.4883 1338 63.003 127.333 501.058
1721 0 91.0711 11.8369 1078 67.4434 127.612 498.366
1722 0 94.2782 13.7253 1294 65.8733 127.454 493.976
1723 0 97.1007 13.1513 1277 66.769 127.219 493.81
1724 0 100.256 14.2036 1424 65.4228 126.724 495.022
1725 0 101.075 12.0702 1220 69.091 127.239 492.771
1726 0 107.157 14.3154 1534 65.9446 127.378 489.656
1727 0 110.223 13.8629 1528 67.0249 127.437 488.478
1728 0 114.126 13.9057 1587 67.2388 126.64 486.013
1729 0 117.126 14.4459 1692 66.7736 127.391 485.268
1730 0 122.319 13.4894 1650 68.0612 127.269 480.093
1731 0 122.132 13.6655 1669 68.405 126.678 478.642
1732 0 129.171 13.3467 1724 68.3498 126.834 478.304
1733 0 129.392 13.4785 1744 68.7712 127.382 474.711
1734 1 68.0378 11.5671 787 69.5883 127.376 502.682
1735 0 73.2433 13.8033 1011 65.9941 127.372 505.688
1736 0 75.233 13.0528 982 67.3584 127.216 502.983
1737 0 78.182 12.3686 967 68.0827 127.541 501.971
1738 0 79.3305 13.2484 1051 66.7393 126.351 502.612
1739 0 88.2762 12.5062 1104 66.7283 127.702 500.635
1740 0 85.1732 13.6428 1162 67.154 128.022 497.56
1741 0 89.1553 13.3699 1192 67.276 126.995 499.097
1742 0 91.1289 14.6386 1334 65.7811 126.93 496.914
1743 0 91.2114 13.1014 1195 68.9448 127.252 491.745
1744 0 98.1608 15.5765 1529 64.8869 127.078 491.383
1745 0 102.211 11.6621 1192 70.3037 127.122 491.686
1746 0 102.25 13.9364 1425 67.1726 127.844 492.989
1747 0 106.126 14.6241 1552 66.8924 127.112 488.355
1748 0 109.133 13.1766 1438 69.0786 126.723 484.939
1749 0 116.186 13.7452 1597 67.4158 127.198 486.967
1750 0 117.153 13.3501 1564 68.4399 127.514 482.529
1751 0 120.193 15.0591 1810 65.9243 127.559 482.615
1752 0 121.119 13.1276 1590 69.7736 128.026 477.43
1753 1 67.3111 12.6725 853 67.8253 127.591 509.408
1754 0 69.0756 12.841 887 67.6268 127.443 506.822
1755 0 69.0903 12.0567 833 68.9496 127.715 504.936
1756 0 72.2593 12.6766 916 67.8701 127.281 503.73
1757 0 72.187 12.6338 912 68.4276 127.489 502.019
1758 0 74.0662 13.5284 1002 66.5499 127.558 504.913
1759 0 79.0784 13.8723 1097 66.1559 126.879 501.294
1760 0 82.1642 12.4629 1024 67.5723 126.727 498.892
1761 0 85.1293 13.7321 1169 65.8837 126.485 498.244
1762 0 87.0699 13.7476 1197 66.4219 127.082 496.061
1763 0 90.2494 14.2162 1283 65.1722 127.251 496.024
1764 0 95.1125 14.4671 1376 64.593 127.202 496.389
1765 0 98.4146 13.0164 1281 66.5909 126.31 492.534
1766 0 99.1662 14.7228 1460 65.1322 127.079 488.625
1767 0 102.204 12.6805 1296 67.7639 127.163 487.906
1768 0 105.148 13.5142 1421 65.6172 126.761 490.619
1769 0 110.146 12.211 1345 67.3428 126.92 488.017
1770 1 53.0901 13.5242 718 65.3343 126.714 511.642
1771 0 57.1548 12.6849 725 65.6869 126.451 510.091
1772 0 60.2162 10.8941 656 68.1524 126.741 507.817
1773 0 67.1148 10.9812 737 66.1045 127.007 510.347
1774 0 65.125 11.4856 748 66.7366 126.262 506.226
1775 0 68.1669 11.3105 771 67.0674 127.162 507.245
1776 0 72.1315 12.2554 884 66.7545 126.879 503.165
1777 0 74.2339 12.8513 954 66.414 127.275 501.868
1778 0 80.0886 13.4351 1076 64.8476 127.562 501.524
1779 0 83.1367 12.1005 1006 65.9324 126.584 501.266
1780 0 86.3258 12.7308 1099 65.1601 126.656 500.489
1781 0 84.1264 13.3846 1126 65.9929 126.822 498.39
1782 0 90.2384 12.9546 1169 65.6082 127.127 496.74
1783 0 88.1795 12.724 1122 66.9474 127.461 496.662
1784 0 97.2238 13.2272 1286 65.3639 127.078 495.231
1785 0 98.1996 13.5133 1327 65.9352 126.546 491.028
1786 0 103.154 14.522 1498 63.5701 126.242 493.109
1787 0 104.326 13.362 1394 66.0065 126.711 486.486
1788 0 105.23 12.5915 1325 67.2347 126.517 485.743
1789 0 109.382 12.0861 1322 67.6626 126.762 485.651
1790 0 115.261 13.8035 1591 65.34 126.849 482.679
1791 1 62.0925 12.2076 758 64.7731 127.152 512.84
1792 0 65.3267 11.9706 782 65.4834 126.968 510.194
1793 0 68.214 14.2933 975 61.5754 126.737 509.874
1794 0 70.1622 12.1718 854 64.2904 127.069 508.378
1795 0 70.1332 12.3052 863 65.1877 126.388 504.441
1796 0 72.2626 12.2885 888 65.277 126.732 505.038
1797 0 75.2691 12.5018 941 64.695 127.321 502.934
1798 0 76.0964 11.6168 884 65.5634 126.873 502.929
1799 0 81.2091 13.3852 1087 63.1426 126.627 502.439
1800 0 80.203 12.4434 998 66.2936 126.374 499.687
1801 0 83.2859 11.8387 986 67.6339 126.648 498.702
1802 0 88.2431 12.7149 1122 67.0945 127.137 496.387
1803 0 90.1959 12.8165 1156 67.3495 126.567 494.561
1804 0 87.1476 11.2223 978 70.7444 126.649 494.789
1805 0 94.262 12.9639 1222 67.946 126.233 491.063
1806 0 102.514 13.2958 1363 65.9274 125.993 496.55
1807 0 101.132 14.1498 1431 66.0783 126.282 492.231
1808 0 104.257 13.8599 1445 66.6713 126.549 490.151
1809 0 105.088 14.2547 1498 66.6175 126.935 489.732
1810 0 110.248 14.0865 1553 66.2028 126.78 487.965
1811 0 111.168 14.5725 1620 66.0932 126.436 486.088
1812 0 116.352 13.4333 1563 67.8113 126.189 483.56
1813 0 118.235 13.3633 1580 68.0956 126.439 478.387
1814 0 123.251 13.8823 1711 67.045 126.624 482.666
1815 0 126.195 14.2161 1794 66.451 126.279 476.118
1816 0 128.145 13.7813 1766 67.5074 126.195 477.632
1817 0 131.261 12.4104 1629 69.0982 125.723 478.507
1818 0 136.249 14.5176 1978 65.8888 126.465 473.207
1819 1 75.5303 9.83711 743 68.8546 126.904 508.374
1820 0 71.027 12.7276 904 67.042 126.111 504.218
1821 0 81.6745 13.3579 1091 63.7195 125.984 506.578
1822 0 75.0661 11.9228 895 68.0961 125.954 504.142
1823 0 79.115 12.9179 1022 66.6047 126.048 501.406
1824 0 81.129 13.2505 1075 66.6186 125.958 498.172
1825 0 91.4665 12.5838 1151 66.444 126.054 499.424
1826 0 87.1453 13.0242 1135 66.8229 126.599 500.3
1827 0 87.0689 13.7822 1200 67.0592 126.588 495.168
1828 0 89.1357 12.8007 1141 69.0386 126.477 492.38
1829 0 92.1478 13.9992 1290 67.145 126.991 490.673
1830 0 98.103 12.864 1262 67.9136 126.721 489.667
1831 0 100.16 14.1874 1421 66.335 126.726 487.208
1832 0 105.236 15.3749 1618 64.5859 127.004 488.996
1833 0 106.203 13.4271 1426 67.4755 126.846 486.685
1834 0 109.204 13.4977 1474 67.3996 126.552 479.775
1835 0 113.175 13.3245 1508 67.4397 125.176 481.817
1836 0 122.357 11.4746 1404 67.1952 126.191 491.286
1837 1 9.00005 1.22222 11 71.6364 126.455 411.091
1838 1 69.0318 9.50287 656 73.0427 126.024 446.677
1839 0 68.1392 10.1704 693 71.3261 126.771 442.616
1840 0 71.0741 11.5513 821 70.1803 126.664 437.095
1841 0 77.2044 11.0615 854 66.0457 126.047 505.989
1842 0 78.1221 13.1717 1029 63.103 126.087 503.112
1843 0 79.2781 11.7182 929 65.1884 125.748 503.533
1844 0 80.1747 10.4522 838 67.4869 126.104 499.842
1845 0 82.122 11.4586 941 66.3932 125.396 499.838
1846 0 87.1241 12.1551 1059 65.2162 126.003 500.916
1847 0 90.4151 12.4205 1123 65.8602 126.679 495.514
1848 0 93.2225 12.7223 1186 64.8668 125.874 499.828
1849 0 95.2676 13.037 1242 65.4461 126.209 495.842
1850 0 97.265 11.4018 1109 68.4436 125.967 491.483
1851 0 103.249 12.8234 1324 65.3731 125.828 491.869
1852 0 106.195 14.7465 1566 63.1494 126.236 491.604
1853 0 107.258 12.3627 1326 66.7519 125.72 491.005
1854 0 111.222 12.8752 1432 65.7647 126.045 488.573
1855 1 11.0035 3.99873 44 47.1818 124.886 536.864
1856 0 12.0159 7.32364 88 44.3182 125.295 537.125
1857 0 14.0656 5.40326 76 45.8816 124.237 539.54
1858 0 12.0565 7.46485 90 45.9889 125.322 538.378
1859 0 13.0466 6.28516 82 45.8415 125.085 540.232
1860 0 10.0102 9.39045 94 44.8617 124.606 540.692
1861 0 9.00606 4.10835 37 48.5135 124.405 542.081
1862 0 10.0052 7.69599 77 44.7013 124.727 540.13
1863 0 14.0428 10.2544 144 44.9514 126.5 540.403
1864 0 12.05 4.97927 60 47.8167 126.033 542.433
1865 0 13.1453 5.78155 76 46.2105 125.947 541.382
1866 0 13.003 10.1515 132 44.9924 125.652 539.212
1867 0 12.016 5.40948 65 47.8923 125.769 541.585
1868 0 12.0137 8.98974 108 44.9815 124.704 539.213
1869 0 13.0865 10.3924 136 45.4265 125.162 539.052
1870 0 12.0911 5.54127 67 47.3881 123.791 540.806
1871 0 13.1372 6.16568 81 46.6296 124.309 540.432
1872 0 14.0044 6.21235 87 47.6207 124.644 539.897
1873 0 14.0702 6.3965 90 48.3333 124.033 539.444
1874 1 110.48 11.9932 1325 66.3124 125.879 488.646
1875 0 115.638 13.9314 1611 63.4457 125.478 490.332
1876 0 118.372 12.8408 1520 65.0592 125.446 487.504
1877 0 120.348 13.7767 1658 64.3637 125.46 484.834
1878 0 124.478 13.2634 1651 64.6614 125.51 488.824
1879 0 127.518 14.2412 1816 64.1344 125.003 483.599
1880 0 128.604 14.634 1882 64.1812 125.843 479.336
1881 0 134.6 13.1278 1767 65.6859 125.902 479.007
1882 0 140.247 16.314 2288 61.4318 125.286 474.507
1883 0 143.421 12.418 1781 66.6996 125.392 469.797
1884 0 146.338 11.1522 1632 68.4779 125.643 467.977
1885 0 153.476 13.292 2040 65.0647 125.562 471.931
1886 1 69.3762 8.8503 614 66.1156 124.98 508.215
1887 0 73.632 8.9635 660 64.1591 125.918 512.391
1888 0 76.3636 12.3488 943 62.4199 125.518 507.69
1889 0 80.5387 11.5597 931 63.2965 125.603 505.334
1890 0 83.3089 11.8355 986 63.2099 124.936 504.642
1891 0 83.3481 10.4621 872 65.5975 125.242 500.484
1892 0 86.3798 11.7736 1017 63.9538 126.15 503.035
1893 0 92.4736 10.0029 925 66.2659 126.195 500.412
1894 0 90.3458 11.4338 1033 65.6641 126.039 502.471
1895 0 96.4504 11.5603 1115 65.5489 125.709 499.57
1896 0 99.6066 12.3586 1231 65.0959 125.597 498.06
1897 0 97.8132 8.55713 837 68.957 126.257 500.712
1898 0 98.8295 10.0375 992 68.5927 126.541 495.862
1899 0 97.5452 9.39052 916 69.7762 126.638 496.537
1900 1 59.6487 12.2551 731 64.1587 125.834 513.921
1901 0 58.513 9.46798 554 68.5235 126.025 512.922
1902 0 63.4226 11.652 739 65.0041 126.436 514.762
1903 0 66.561 14.498 965 61.2508 126.54 515.519
1904 0 65.2948 12.3746 808 64.8106 126.353 513.214
1905 0 69.7522 12.6448 882 63.9376 126.542 512.844
1906 0 70.5836 12.8784 909 64.7019 126.201 510.131
1907 0 71.6166 13.1673 943 64.1803 126.478 509.831
1908 0 73.4552 12.2932 903 66.1418 126.759 506.046
1909 0 77.4412 11.9833 928 65.8254 127.05 507.192
1910 0 77.3996 11.783 912 67.375 127.15 503.512
1911 0 80.5283 14.1689 1141 64.2515 126.566 502.09
1912 0 84.3687 13.6544 1152 64.4939 126.517 502.339
1913 0 85.9396 11.9153 1024 66.6582 126.274 503.348
1914 0 89.4708 12.2163 1093 66.3705 126.995 499.743
1915 0 91.2948 12.8485 1173 65.63 126.448 500.364
1916 0 97.6089 15.4699 1510 61.7444 126.95 500.095
1917 0 98.4219 13.2288 1302 64.7565 126.946 498.202
1918 0 99.5385 10.4482 1040 69.4 126.646 492.103
1919 0 105.782 13.4049 1418 64.098 127.073 495.597
1920 1 54.4525 9.80671 534 67.0768 126.923 513.672
1921 0 55.5365 11.632 646 64.7477 126.706 514.714
1922 0 59.3886 12.4266 738 63.0298 126.843 518.102
1923 0 58.2908 9.28105 541 68.5508 126.667 514.272
1924 0 53.4179 11.4943 614 67.1775 127.293 514.029
1925 0 61.3176 12.5902 772 63.8951 126.672 514.53
1926 0 64.2372 10.5391 677 66.514 126.699 510.433
1927 0 65.4255 10.0572 658 66.6246 126.666 511.866
1928 0 64.4291 12.9445 834 63.5348 127.464 510.138
1929 0 70.4103 12.9242 910 62.589 126.849 512.16
1930 0 72.2734 13.1584 951 61.8139 127.106 512.862
1931 0 73.3455 12.4343 912 63.1458 126.932 509.311
1932 0 77.3352 13.9005 1075 60.96 126.962 509.506
1933 0 75.559 12.8774 973 63.113 126.597 505.596
1934 0 81.2347 15.2398 1238 59.3724 126.342 506.204
1935 0 84.4567 14.4571 1221 60.2236 126.047 501.766
1936 0 86.3196 13.6585 1179 60.9584 125.884 502.411
1937 0 87.508 12.9931 1137 62.2498 125.684 501.967
1938 0 89.4735 12.2718 1098 63.2213 125.532 500.817
1939 0 92.3296 13.506 1247 61.7498 125.829 499.168
1940 0 96.5775 13.471 1301 61.2191 125.88 500.34
1941 0 97.4527 12.0469 1174 63.2922 125.756 496.306
1942 0 100.424 14.1101 1417 60.7537 125.667 497.732
1943 0 104.39 14.6279 1527 60.2764 125.527 497.003
1944 0 105.429 12.1977 1286 63.2994 124.65 495.069
1945 0 108.368 13.1496 1425 61.9375 124.721 495.001
1946 0 112.403 12.2506 1377 63.3704 124.643 490.367
1947 0 114.65 13.1094 1503 62.0153 124.242 493.466
1948 0 118.478 12.9306 1532 62.5385 124.794 487.939
1949 0 121.405 13.2697 1611 62.3799 124.896 485.259
1950 0 128.462 14.8915 1913 59.9132 124.504 485.836
1951 0 124.407 12.3064 1531 64.2084 124.562 480.734
1952 0 134.37 13.8572 1862 60.9431 123.745 485.721
1953 0 137.283 14.2843 1961 61.6293 123.76 478.243
1954 0 142.356 13.8385 1970 62.1528 123.991 480.906
1955 0 146.327 13.504 1976 63.3542 124.096 471.198
1956 0 151.221 14.6805 2220 62.5622 123.822 467.013
1957 0 153.329 14.5895 2237 63.0912 124.108 470.737
1958 0 158.38 13.6066 2155 64.9336 124.382 466.878
1959 0 164.355 14.2436 2341 64.399 124.642 469.359
1960 0 171.495 15.0033 2573 63.5993 125.112 468.958
1961 0 175.323 14.4819 2539 65.0886 125.568 462.232
1962 0 180.451 14.2144 2565 65.6363 125.598 462.329
1963 0 185.598 14.0357 2605 66.3002 125.194 458.99
1964 0 190.316 13.9242 2650 67.1151 125.41 454.426
1965 0 196.518 13.6985 2692 68.2076 125.496 449.34
1966 0 204.782 14.9037 3052 66.4076 125.741 450.35
1967 1 155.873 14.6722 2287 68.5562 125.787 471.373
1968 0 158.504 15.0028 2378 68.8137 125.877 470.39
1969 0 161.359 14.1486 2283 70.5786 125.032 467.662
1970 0 165.544 14.5399 2407 70.7021 125.718 467.038
1971 0 171.697 15.8943 2729 69.1788 126.678 467.647
1972 0 175.375 14.6087 2562 71.5765 126.057 462.956
1973 0 179.603 14.1757 2546 72.5566 126.354 461.328
1974 0 185.678 15.2468 2831 71.3939 126.195 454.289
1975 0 192.828 15.7912 3045 70.3813 126.602 455.256
1976 0 198.64 15.4652 3072 71.1051 126.24 450.728
1977 0 203.643 14.4665 2946 72.6602 125.978 449.8
1978 0 208.878 13.9747 2919 74.0922 126.399 444.023
1979 0 216.602 15.4846 3354 72.1067 126.92 442.904
1980 1 166.563 14.2649 2376 75.0021 126.793 463.916
1981 0 170.607 15.1987 2593 74.0729 126.034 461.976
1982 0 175.87 14.4368 2539 74.8681 126.635 464.681
1983 0 180.952 14.2082 2571 74.8689 126.185 466.838
1984 0 186.622 15.7002 2930 74.4085 126.137 460.692
1985 0 191.781 16.2425 3115 74.1933 125.849 456.848
1986 0 194.828 14.9619 2915 77.0566 127.055 455.541
1987 1 17.4017 8.79223 153 61.1895 126.085 535.765
1988 0 18.2872 9.56952 175 62.36 126.817 535.909
1989 0 19.4 10.6701 207 62.2415 126.705 534.672
1990 0 18.101 11.712 212 63.9906 126.632 534.123
1991 0 21.5556 9.69587 209 65.2057 126.344 534.196
1992 0 21.0809 12.0014 253 64.8024 126.692 531.498
1993 0 22.5374 13.0893 295 64.1492 126.824 531.485
1994 0 22.3271 12.1825 272 66.1103 126.68 533.412
1995 0 22.2737 14.6361 326 64.2454 127.307 532.362
1996 0 21.5136 10.412 224 71.1205 126.696 533.103
1997 0 23.3844 14.0265 328 66.7805 127.171 532.235
1998 0 25.5315 12.2594 313 67.7668 127.089 532.796
1999 0 22.2405 13.0842 291 70.2784 127.117 533.54
2000 0 25.7448 13.595 350 69.2314 126.669 531.429
2001 0 25.4998 12.7844 326 72.135 126.736 531.988
2002 0 26.3406 11.0476 291 76.4364 126.852 532.691
2003 0 30.5184 13.369 408 73.5417 126.701 530.902
2004 0 29.4115 14.4841 426 73.3192 127.291 529.756
2005 0 29.5664 11.1275 329 79 126.669 531.574
2006 0 31.4692 13.4099 422 75.7796 126.882 528.637
2007 0 32.7092 12.0455 394 77.2843 127.023 529.102
2008 0 31.6378 13.212 418 77.4019 126.658 528.043
2009 0 32.6653 14.2659 466 75.8798 126.652 527.296
2010 0 32.7249 14.5455 476 76.8592 126.498 526.7
2011 0 32.6773 13.312 435 78.1287 126.005 529.292
2012 0 32.4263 13.1992 428 80.7804 126.6 527.479
2013 0 30.1878 13.7804 416 82.637 126.639 527.139
2014 0 34.4288 12.5476 432 81.1806 126.442 528.088
2015 0 33.1969 14.4592 480 80.3042 126.531 526.162
2016 0 32.2752 13.9736 451 82.4834 125.858 525.716
2017 0 33.4598 14.3456 480 82.6583 126.288 526.746
2018 0 36.4635 14.014 511 82.4188 126.162 527.11
2019 0 37.3259 14.6547 547 82.2048 126.302 526.258
2020 0 36.2524 14.8128 537 84.0447 126.246 526.762
2021 0 37.4966 13.5212 507 86.9822 126.181 526.714
2022 0 37.173 14.8226 551 85.4991 126.376 526.644
2023 0 37.1096 15.2791 567 86.6737 126.125 527.307
2024 0 38.1825 14.9283 570 86.9368 126.1 524.591
2025 0 40.0687 14.55 583 87.8285 126.374 526.81
2026 0 40.1566 15.1407 608 89.0214 126.092 525.332
2027 0 39.1946 14.6449 574 92.7282 125.618 524.28
2028 0 40.0673 13.4025 537 96.3147 125.948 523.911
2029 0 45.0679 14.7777 666 92.3168 126.182 521.99
2030 0 45.1324 15.7315 710 92.0014 126.215 522.125
2031 0 45.1063 13.9892 631 97.7417 125.62 521.937
2032 0 48.085 15.8677 763 93.4849 125.493 521.135
2033 0 48.2152 14.2486 687 98.8865 126.154 521.457
2034 0 48.0463 14.9231 717 99.325 125.965 520.515
2035 0 51.4394 14.4442 743 98.6608 124.813 519.055
2036 0 51.4021 14.3963 740 98.9932 124.926 520.509
2037 0 53.2667 14.9437 796 97.6168 125.937 518.677
2038 0 55.3879 15.0574 834 96.9904 125.988 520.699
2039 0 55.0519 14.9314 822 99.1217 125.831 516.033
2040 0 58.1094 14.989 871 97.7382 125.646 517.166
2041 0 58.08 14.8072 860 99.9419 125.815 517.628
2042 0 61.1055 15.6614 957 97.441 125.532 515.104
2043 0 62.1229 15.5659 967 99.3837 125.616 513.559
2044 0 63.085 15.5504 981 98.9745 125.35 512.248
2045 0 63.0561 14.6378 923 101.743 125.557 511.482
2046 0 65.165 15.806 1030 99.0748 125.576 512.772
2047 0 67.1236 14.153 950 102.495 125.912 512.447
2048 0 68.1038 15.2121 1036 99.7741 125.479 510.579
2049 0 70.1737 15.8749 1114 96.4578 125.629 511.323
2050 0 70.1048 14.5497 1020 100.37 125.264 510.414
2051 0 71.1182 14.8204 1054 99.019 125.222 509.85
2052 0 76.1093 15.3595 1169 96.1078 124.89 510.05
2053 0 76.0396 16.3204 1241 94.4029 125.381 507.452
2054 0 76.0828 15.1545 1153 97.0156 125.376 508.469
2055 0 77.3173 14.3564 1110 99.7748 124.476 508.218
2056 0 80.1923 15.3257 1229 95.8169 124.592 507.203
2057 0 79.1967 15.3668 1217 96.7042 124.454 507
2058 0 81.3557 15.6965 1277 96.0399 125.238 505.132
2059 0 83.1308 16.1192 1340 97.2597 125.523 505.638
2060 0 83.1307 15.0847 1254 101.19 125.089 505.778
2061 0 84.1722 15.1594 1276 101.465 125.032 505.575
2062 0 86.1036 15.4465 1330 99.4361 124.782 502.42
2063 0 89.1915 16.5487 1476 96.9384 124.384 500.913
2064 0 89.174 15.3632 1370 100.029 125.445 499.664
2065 0 91.1419 15.8654 1446 98.6556 125.488 503.18
2066 0 93.4133 15.972 1492 98.0516 124.864 502.619
2067 0 94.1137 15.6407 1472 98.8689 125.171 499.828
2068 0 97.1031 14.5824 1416 101.613 124.624 501.198
2069 0 99.1428 14.7464 1462 101.66 125.177 499.943
2070 0 99.1384 15.5036 1537 100.993 125.275 495.651
2071 0 102.176 16.4226 1678 98.5101 125.787 496.548
2072 0 105.253 16.0376 1688 99.4449 125.392 496.052
2073 0 107.26 16.0545 1722 99.8902 125.326 491.838
2074 0 109.282 16.7823 1834 98.9209 125.256 490.885
2075 0 112.461 15.0541 1693 104.035 124.549 490.781
2076 0 115.203 15.0604 1735 104.959 124.702 490.839
2077 0 119.33 15.5953 1861 102.936 124.867 490.217
2078 0 122.407 15.4648 1893 103.893 125.021 486.298
2079 0 125.265 15.9741 2001 103.315 125.431 482.653
2080 0 128.301 15.2844 1961 106.385 125.536 482.361
2081 0 131.189 16.4572 2159 103.543 125.474 479.286
2082 0 132.416 14.968 1982 107.599 125.579 484.104
2083 0 133.39 15.331 2045 107.857 125.635 480.638
2084 0 137.283 16.3604 2246 105.103 125.297 479.584
2085 0 142.225 16.277 2315 105.274 124.865 479.089
2086 0 143.335 15.5161 2224 108.979 125.355 473.768
2087 0 145.305 16.0559 2333 107.652 125.379 474.101
2088 0 146.175 15.2078 2223 111.583 125.499 472.595
2089 0 145.176 14.2517 2069 118.797 125.413 476.396
2090 0 145.177 15.8014 2294 119.384 124.463 474.299
2091 0 141.137 15.5452 2194 126.231 125.671 476.849
2092 0 141.386 15.8856 2246 124.121 125.372 475.325
2093 1 153.122 16.0134 2452 116.316 124.838 471.632
2094 0 146.097 15.5581 2273 122.292 125.484 473.734
2095 0 144.287 16.4048 2367 126.677 125.625 473.238
2096 0 141.237 15.874 2242 132.612 125.02 473.072
2097 0 150.156 15.3907 2311 102.134 125.027 470.484
2098 0 153.111 16.844 2579 96.1931 125.118 466.178
2099 0 156.217 15.3761 2402 96.7723 125.318 469.435
2100 0 156.179 16.5835 2590 92.8286 124.891 467.591
2101 0 158.215 15.795 2499 94.0888 124.465 463.065
