time division length width area intensity CMx CMy
0 0 44.0814 12.6357 557 60.2855 1191.79 511.996
1 0 45.1043 11.3293 511 61.7202 1191.13 513.025
2 0 46.0537 12.0077 553 61.0416 1190.94 514.052
3 0 46.106 12.0808 557 62.1149 1190.72 511.014
4 0 49.0421 13.0092 638 60.0517 1190.56 513.165
5 0 48.035 10.8046 519 63.7707 1190.21 511.578
6 0 48.0324 11.3881 547 64.0439 1189.95 511.506
7 0 50.0403 11.2709 564 63.4681 1189.87 513.895
8 0 51.13 11.6957 598 63.3813 1188.93 512.361
9 0 52.0228 13.0135 677 61.9764 1189.34 513.143
10 0 53.0423 11.9904 636 62.9717 1189.46 511.692
11 0 55.0362 14.009 771 60.6122 1189.95 512.132
12 0 56.0574 12.3802 694 63.1657 1189.28 511.133
13 0 58.0636 14.4497 839 60.2634 1189.01 510.087
14 0 58.0431 12.3357 716 63.8059 1189.29 509.545
15 0 60.0738 13.6998 823 62.0036 1189.37 510.142
16 0 61.0825 13.3262 814 62.8034 1189.88 510.477
17 0 63.0702 14.0637 887 62.2728 1189.53 508.556
18 0 64.0493 13.0368 835 63.8874 1189.21 508.544
19 0 67.1786 11.8192 794 65.398 1189.02 508.423
20 0 70.0595 12.732 892 64.3587 1188.93 506.869
21 0 70.0676 13.1445 921 64.8534 1189.4 505.059
22 0 74.1193 14.8005 1097 62.0109 1188.87 506.441
23 0 76.0672 13.1463 1000 64.792 1188.38 505.589
24 0 76.124 13.0182 991 66.1362 1189.2 503.592
25 0 79.073 13.8733 1097 65.0292 1188.55 501.656
26 0 83.1481 13.4579 1119 65.3333 1188.54 502.755
27 0 83.1521 13.4092 1115 66.4117 1189.39 501.186
28 0 86.1751 13.6466 1176 66.125 1188.58 500.475
29 0 90.2055 13.5912 1226 65.8238 1189.59 499.402
30 1 48.0706 12.2112 587 67.7376 1188.91 518.102
31 0 49.0206 12.9945 637 67.8352 1189.11 515.749
32 0 50.0473 12.2884 615 68.6032 1189.46 515.338
33 0 52.0323 12.819 667 68.0315 1189.39 515.91
34 0 55.0368 12.2464 674 68.4199 1189.24 514.473
35 0 56.0476 13.1495 737 67.3026 1189.54 514.661
36 0 59.0305 14.2808 843 66.1447 1190.1 512.547
37 0 63.0584 13.987 882 65.2018 1189.45 513.519
38 0 62.0607 12.8423 797 67.3463 1190.17 513.098
39 0 62.1393 12.4076 771 69.2335 1190.84 509.327
40 0 66.028 13.5094 892 66.3475 1190.31 510.835
41 0 69.1095 12.7768 883 67.9751 1190.64 509.084
42 0 72.0457 13.2694 956 67.6841 1190.48 507.697
43 0 74.1457 12.0304 892 69.4103 1190.61 506.742
44 0 75.0768 11.9744 899 69.7086 1190.6 506.941
45 0 78.1056 11.2028 875 70.6491 1190.42 505.127
46 0 81.1362 13.3479 1083 67.5402 1191.18 505.427
47 0 84.1266 13.9314 1172 67.8225 1191.63 501.162
48 1 43.0134 12.438 535 67.6224 1190.89 522.013
49 0 46.0727 12.35 569 68.0299 1191.49 519.427
50 0 46.0266 11.5585 532 68.7368 1191.62 520.188
51 0 50.0282 12.2931 615 66.7171 1191.3 519.767
52 0 48.1133 12.0549 580 68.5207 1191.58 518.391
53 0 49.0283 12.7274 624 68.6939 1191.28 516.688
54 0 52.022 12.4178 646 67.5433 1191.37 516.071
55 0 54.055 12.0063 649 68.2774 1191.27 515.715
56 0 56.0306 11.1903 627 67.8198 1191.42 516.44
57 0 57.051 12.1821 695 67.4388 1192.4 514.342
58 0 56.1222 11.1186 624 69.649 1191.35 511.861
59 0 60.0674 14.2007 853 64.4572 1191.59 511.713
60 0 62.0536 12.3603 767 66.5932 1191.39 510.858
61 0 63.0786 13.5228 853 64.9074 1190.84 512.106
62 0 68.0465 14.2403 969 63.4871 1190.51 509.972
63 0 69.0672 12.4516 860 65.0744 1191.13 510.357
64 0 69.0486 13.4977 932 63.8691 1190.88 510.42
65 0 73.1261 12.7861 935 65.4428 1191.13 506.187
66 0 74.0539 12.2613 908 66.4934 1191.37 505.869
67 0 78.0777 13.0895 1022 65.9687 1190.82 502.936
68 0 82.099 14.2267 1168 64.4572 1190.88 501.753
69 0 82.0604 11.2478 923 68.4865 1190.91 501.707
70 0 84.0268 12.5436 1054 67.5285 1190.61 498.517
71 0 88.0831 12.193 1074 67.716 1189.63 498.731
72 1 47.0487 13.773 648 64.6482 1190.01 517.074
73 0 45.0426 10.2791 463 68.9978 1190.21 517.479
74 0 50.0769 12.4808 625 65.8832 1191.18 515.506
75 0 51.0377 12.5593 641 65.8534 1190.81 514.005
76 0 51.0164 11.8197 603 66.9221 1190.86 515.731
77 0 54.086 12.1473 657 66.5206 1191.16 514.329
78 0 53.0927 11.4893 610 68.441 1190.61 512.367
79 0 58.0504 13.54 786 64.6972 1190.57 511.958
80 0 57.0294 11.2573 642 67.8754 1191.39 512.017
81 0 59.0283 12.8413 758 66.8232 1191.57 509.387
82 0 63.0833 12.8877 813 65.6888 1191.5 509.705
83 0 65.0562 12.1434 790 66.4304 1191.85 511.01
84 0 64.2002 11.5264 740 68.3135 1191.83 508.347
85 0 69.085 12.68 876 65.6039 1191.25 507.981
86 0 71.0453 12.7947 909 66.2068 1192.16 506.596
87 0 72.1347 14.0293 1012 65.1146 1192.16 503.418
88 0 74.102 11.3087 838 67.4964 1191.88 504.785
89 0 75.0475 10.9397 821 68.7162 1191.68 503.538
90 0 80.0905 13.2225 1059 65.611 1191.74 500.568
91 0 83.0901 13.8885 1154 64.7062 1191.99 499.569
92 0 83.0694 9.82311 816 69.5723 1192.4 498.827
93 0 88.0766 13.8402 1219 64.9975 1192.52 494.568
94 0 92.1181 13.2439 1220 65.5262 1192.73 495.03
95 0 95.1007 11.3038 1075 67.067 1191.76 497.165
96 0 97.1397 12.3533 1200 67.0758 1191.28 489.012
97 1 50.0275 11.7735 589 65.4788 1191.46 515.642
98 0 53.0659 12.3431 655 66.3496 1191.3 512.264
99 0 56.0316 14.0099 785 63.251 1191.44 512.868
100 0 57.0326 11.9581 682 66.6452 1191.16 510.4
101 0 59.0707 12.6967 750 65.004 1190.96 512.895
102 0 58.0795 13.1372 763 66.4207 1191.86 508.684
103 0 60.0339 11.5435 693 67.0837 1191.84 510.335
104 0 62.1038 12.1088 752 66.6596 1191.4 509.15
105 0 64.025 11.4018 730 67.7315 1191.28 507.499
106 0 65.0436 12.4993 813 67.0111 1191.58 506.659
107 0 65.022 12.7803 831 66.876 1191.21 506.633
108 0 68.1754 13.7293 936 65.7265 1191.65 505.243
109 0 71.0665 12.228 869 66.725 1190.79 506.242
110 0 74.1087 12.9 956 66.6935 1189.58 502.706
111 0 74.0434 11.9795 887 68.1623 1190.92 501.821
112 0 79.084 11.924 943 68.0297 1190.84 501.662
113 0 82.146 13.7803 1132 66.3701 1191.14 497.776
114 0 84.1805 12.3069 1036 68.0212 1191.28 497.91
115 0 87.1317 13.2673 1156 67.9265 1191.05 494.397
116 0 88.0832 11.5573 1018 70.6424 1191.35 495.416
117 1 45.0516 12.0528 543 69.1621 1191.37 512.939
118 0 46.0341 11.057 509 69.9293 1191.47 514.882
119 0 49.0408 12.6629 621 68.9098 1192.23 511.707
120 0 50.0211 12.2748 614 69.3436 1191.73 512.099
121 0 53.0591 12.4013 658 68.8526 1191.62 512.523
122 0 52.0256 11.3982 593 71.9646 1191.88 509.427
123 0 56.0518 12.988 728 68.2212 1192.09 510.543
124 0 58.0316 12.7 737 68.6974 1191.85 509.768
125 0 57.0562 12.216 697 70.5194 1191.06 508.935
126 0 61.1011 12.1438 742 70.7615 1191.3 507.299
127 0 63.0424 12.7692 805 68.9863 1191.77 507.917
128 0 65.1225 12.7145 828 70.058 1192.53 504.589
129 0 66.0262 13.6158 899 69.0256 1191.75 503.78
130 0 71.1208 13.231 941 68.6164 1191.37 503.14
131 0 71.1007 12.8409 913 70.1194 1191.63 501.268
132 0 72.0916 11.9709 863 71.9386 1191.15 499.851
133 0 76.0333 12.7313 968 70.5176 1191.79 498.436
134 0 80.0312 13.4822 1079 68.7739 1190.89 498.212
135 0 82.1575 13.8393 1137 68.3808 1191.79 497.082
136 1 40.1334 11.6113 466 67.6609 1192.44 518.232
137 0 43.0217 13.2491 570 65.814 1191.72 516.146
138 0 44.0406 11.3078 498 68.755 1191.92 515.43
139 0 44.0272 12.0834 532 68.4436 1191.49 515.756
140 0 46.0284 12.7747 588 66.3248 1191.65 515.719
141 0 48.0256 12.4309 597 67.1843 1192.15 512.995
142 0 49.0739 11.7985 579 67.9396 1191.85 512.366
143 0 52.0315 13.8186 719 64.516 1191.99 510.789
144 0 53.0623 12.8528 682 64.9458 1192.13 512.405
145 0 54.0739 12.0576 652 66.5153 1191.71 509.147
146 0 56.0496 12.3997 695 65.1612 1191.46 509.846
147 0 58.0708 13.8624 805 63.7652 1191.51 507.939
148 0 58.0889 12.808 744 65.1075 1191.17 507.634
149 0 62.0995 12.2867 763 65.5885 1191.6 504.356
150 0 64.0483 13.0995 839 63.2789 1190.86 504.816
151 0 67.0675 11.7643 789 64.1888 1192.16 504.089
152 0 69.0812 14.2731 986 61.5396 1191.78 502.554
153 0 71.1254 11.9648 851 64.6898 1191.82 502.081
154 0 73.0971 12.7775 934 62.9572 1191.93 502.812
155 0 73.1649 10.5788 774 67.1279 1193.46 498.516
156 0 78.0972 12.1131 946 64.5529 1192.84 499.57
157 0 79.0962 12.2762 971 65.0072 1192.22 496.619
158 1 41.0212 9.09285 373 65.7024 1192.69 517.464
159 0 45.0968 10.5773 477 64.0671 1191.78 516.317
160 0 46.0857 11.4352 527 64.463 1192.06 514.351
161 0 48.2536 11.6261 561 63.8467 1192.2 514.517
162 0 46.0626 10.9633 505 66.2 1192.46 510.388
163 0 50.0982 11.6771 585 64.6086 1192.63 510.733
164 0 50.0556 12.0067 601 64.3045 1192.06 510.559
165 0 52.0463 11.9701 623 64.427 1191.35 509.62
166 0 54.118 11.8814 643 64.3313 1192.72 508.538
167 0 54.0708 11.3185 612 65.5948 1191.56 509.722
168 0 58.0512 12.5406 728 63.0577 1191.59 507.389
169 0 57.0982 11.454 654 64.9083 1192.02 505.65
170 0 60.0368 12.5756 755 63.3391 1191.73 504.948
171 0 63.0449 12.2611 773 62.6766 1191.5 505.294
172 0 64.1075 13.3214 854 61.4918 1192.42 504.171
173 0 67.1141 11.3687 763 63.6606 1191.72 503.093
174 0 70.2455 11.8726 834 62.3837 1191.62 502.216
175 0 71.1349 10.8948 775 63.9497 1191.53 501.595
176 0 72.0999 12.025 867 62.5017 1191.22 500.637
177 0 74.1223 11.5755 858 63.7331 1191.44 499.332
178 0 78.1139 13.6723 1068 60.632 1191.37 498.663
179 0 78.2116 12.2616 959 63.219 1191.33 495.722
180 0 82.1199 11.7633 966 63.3478 1191.51 496.98
181 1 43.1025 11.3451 489 63.0961 1191.07 514.888
182 0 46.1148 10.5823 488 63.1721 1191.14 515.623
183 0 46.1098 11.2774 520 64.1173 1190.89 514.612
184 0 49.2175 11.5 566 63.4682 1189.94 514.36
185 0 47.0482 11.4988 541 64.4344 1189.95 513.107
186 0 50.0705 12.2827 615 63.5398 1190.29 511.463
187 0 51.1752 9.77036 500 67.434 1190.16 510.348
188 0 53.1324 11.7631 625 65.3424 1189.77 510.995
189 0 56.0866 13.6574 766 62.4987 1189.15 509.599
190 0 56.0864 11.0009 617 66.457 1188.62 510.459
191 0 56.0628 11.3623 637 66.5965 1188.26 508.763
192 0 59.141 10.4327 617 67.2788 1188.92 510.073
193 0 64.2192 12.94 831 62.7641 1188.96 510.304
194 0 62.2768 10.8227 674 66.905 1189.02 508.231
195 0 65.2448 12.3995 809 64.7293 1188.82 506.9
196 0 68.2226 12.5911 859 63.8522 1188.3 507.686
197 0 69.08 11.5953 801 65.8876 1188.02 506.326
198 0 72.1336 11.7144 845 65.9243 1187.37 503.511
199 0 74.1812 11.2967 838 66.2649 1188.59 502.347
200 0 77.2285 11.5501 892 65.3453 1188.49 504.433
201 0 80.243 11.0165 884 65.1244 1187.79 504.509
202 0 81.2023 12.0563 979 64.4648 1187.09 501.283
203 0 86.3419 11.883 1026 63.8129 1187.51 502.283
204 0 88.2521 12.3736 1092 63.4478 1187.22 500.522
205 1 43.246 10.3825 449 64.1425 1187.13 522.474
206 0 45.1918 9.91331 448 65.375 1187.98 519.692
207 0 46.0816 11.3711 524 64.1546 1187.63 516.948
208 0 48.222 11.3641 548 64.073 1187.49 518.912
209 0 50.1121 10.4166 522 65.6571 1187.9 518.726
210 0 50.1169 11.7725 590 63.6102 1187.23 515.256
211 0 52.1012 10.614 553 64.9855 1187.12 515.559
212 0 53.1492 11.9287 634 62.153 1186.24 514.776
213 0 56.206 11.1198 625 64.2016 1186.1 515.443
214 0 57.1815 10.8776 622 64.6158 1186.82 515.445
215 0 59.1325 12.2944 727 62.6864 1186.16 512.865
216 0 62.0914 12.5299 778 61.9782 1185.89 511.816
217 0 62.1576 10.6503 662 63.9683 1185.19 511.527
218 0 66.1238 11.1458 737 63.247 1186.02 508.499
219 0 67.2123 12.1258 815 61.2614 1185.85 508.509
220 0 69.1022 10.9403 756 62.8108 1185.75 508.903
221 0 70.1148 12.8361 900 60.3067 1185.89 505.589
222 0 73.3499 11.6019 851 62.0282 1185.6 505.732
223 0 72.1747 10.0728 727 64.1582 1185.41 503.462
224 0 72.1747 9.96194 719 146.563 1185.41 503.405
225 0 80.231 10.6817 857 63.1855 1185.83 502.004
226 0 83.0719 11.3516 943 62.8674 1185.37 499.703
227 0 87.1835 10.8621 947 63.0401 1185.39 498.68
228 0 90.1244 13.2151 1191 60.1604 1185.2 494.975
229 0 92.2086 11.7885 1087 62.3965 1185.56 494.852
230 0 95.3125 11.9082 1135 62.4238 1186.06 491.763
231 1 51.199 9.60957 492 61.5061 1186.26 515.142
232 0 49.1312 10.1361 498 62.2711 1186.21 513.643
233 0 51.1697 9.67368 495 62.8828 1185.49 512.632
234 0 54.163 9.91451 537 61.9367 1185.05 514.285
235 0 55.0798 9.33191 514 63.9397 1186.39 508.582
236 0 59.0905 12.3032 727 59.4993 1185.9 508.015
237 0 58.1694 9.5239 554 63.3646 1186.64 507.343
238 0 60.0776 11.5684 695 60.9396 1186.77 507.594
239 0 65.0975 13.4875 878 57.8497 1187.12 508.104
240 0 64.1177 10.7771 691 62.0695 1187.06 504.92
241 0 68.0627 12.0918 823 59.853 1186.62 505.083
242 0 71.0992 11.9551 850 59.3671 1187.59 505.411
243 0 70.1556 10.4054 730 62.0589 1187.14 502.333
244 0 71.0419 9.78296 695 63.3856 1187.06 500.738
245 0 78.0564 13.644 1065 58.2244 1186.36 500.263
246 1 41.0335 9.45569 388 61.1881 1187.24 516.729
247 0 41.0232 9.79933 402 60.9925 1187.22 517.202
248 0 42.0808 9.86198 415 61.6747 1187.74 516.188
249 0 44.0497 10.8968 480 59.7646 1187.31 517.973
250 0 47.0458 11.0743 521 58.1478 1187.24 519.637
251 0 49.0264 12.2791 602 58.4203 1188.25 517.478
252 0 50.0634 12.2644 614 59.5081 1187.52 516.596
253 0 48.0626 12.2132 587 59.8211 1188.16 515.225
254 0 50.091 10.7405 538 62.3383 1188.74 513.864
255 0 54.0565 12.006 649 61.4314 1188.17 515.686
256 0 54.0869 11.2966 611 62.4926 1188.85 515.774
257 0 56.0353 11.5106 645 63.0481 1188.37 512.326
258 0 57.054 12.5144 714 61.5448 1187.96 512.396
259 0 57.0646 11.4782 655 62.6931 1188.32 513.58
260 0 61.0534 10.4826 640 63.1297 1188.74 513.827
261 0 62.0981 11.3691 706 62.9164 1188.06 510.833
262 0 65.0585 11.4973 748 61.8316 1187.47 511.913
263 0 66.1003 12.0423 796 61.745 1188.37 508.902
264 0 69.0761 12.3487 853 61.2732 1188.28 506.913
265 0 70.0809 12.2002 855 62.0058 1187.72 505.358
266 0 74.1325 11.7223 869 62.0391 1187.46 505.809
267 0 75.0618 13.8419 1039 59.3917 1187.33 503.839
268 0 78.1165 13.147 1027 59.7566 1188.16 505.291
269 0 81.119 11.1565 905 62.0597 1186.89 503.027
270 0 82.1553 10.5532 867 62.7082 1186.63 501.924
271 0 86.1712 10.8505 935 62.0096 1187.43 502.027
272 0 89.1103 12.0188 1071 60.6732 1186.9 501.286
273 1 44.051 10.3062 454 61.326 1186.29 520.844
274 0 47.06 11.1347 524 59.8492 1185.16 519.086
275 0 48.0725 10.0473 483 61.1139 1185.96 519.422
276 0 51.0839 11.1581 570 59.8684 1186.51 520.272
277 0 53.0866 11.1516 592 60.473 1185.74 516.926
278 0 53.1146 11.0516 587 60.5043 1186.44 517.244
279 0 55.0853 10.8377 597 59.1541 1186.63 519.229
280 0 56.0591 10.3819 582 59.8608 1186.68 517.356
281 0 59.0439 10.7717 636 59.4088 1187.17 517.123
282 0 61.0257 12.5521 766 58.1971 1186.67 514.382
283 0 60.0787 10.17 611 61.9444 1186.42 513.303
284 0 63.021 13.0909 825 58.3673 1185.67 513.646
285 0 65.1165 11.1492 726 61.0868 1185.76 513.135
286 0 66.0328 11.0854 732 61.1489 1186.16 515.305
287 0 68.0577 11.2992 769 61.7724 1185.86 513.248
288 0 65.1101 10.8585 707 63.9873 1185.85 509.853
289 0 71.0619 10.3572 736 64.0992 1185.39 509.25
290 0 71.072 11.2703 801 63.9151 1185.34 507.242
291 0 74.1081 11.9555 886 62.4323 1185.02 507.004
292 0 79.2839 12.2471 971 61.9732 1185.57 505.469
293 0 80.1254 12.0187 963 62.9502 1186.11 504.11
294 0 82.1675 12.4745 1025 62.4176 1186.09 503.76
295 0 87.0945 13.2959 1158 61.4421 1186.04 501.253
296 1 44.0898 9.38993 414 63.8672 1185.89 521.297
297 0 46.0127 9.60604 442 64.6176 1185.99 518.948
298 0 48.0583 10.7162 515 62.0194 1184.97 520.994
299 0 48.0115 10.9141 524 62.3989 1185.29 518.538
300 0 51.0948 12.3105 629 60.9682 1184.48 519.324
301 0 50.2443 10.3096 518 65.2104 1184.2 517.145
302 0 55.0946 11.816 651 62.4101 1184.98 517.106
303 0 54.1887 11.4969 623 63.1396 1184.93 514.154
304 0 57.1048 10.9973 628 63.0748 1184.78 513.836
305 0 55.1526 9.86355 544 65.7812 1184.73 513.25
306 0 60.0387 12.6418 759 61.1634 1184.59 512.719
307 0 60.0622 10.5557 634 64.1293 1184.9 512.795
308 0 64.1701 13.324 855 60.5368 1184.95 510.072
309 0 64.1117 11.168 716 64.1732 1185 509.078
310 0 67.1449 11.9443 802 63.1895 1184.79 509.054
311 0 67.1135 10.8473 728 65.3201 1184.79 508.246
312 0 71.1026 11.3357 806 63.9789 1184.9 508.506
313 0 72.0991 10.9155 787 65.5121 1185.01 505.3
314 0 75.1136 12.754 958 62.4102 1184.55 506.145
315 0 76.1571 12.2116 930 63.3 1184.53 502.923
316 0 79.1443 12.1677 963 63.001 1184.82 506.495
317 1 44.0169 11.6546 513 61.1774 1185.54 521.836
318 0 43.0563 11.2876 486 61.9177 1185.71 522.554
319 0 43.0801 12.0473 519 61.2563 1185.46 522.613
320 0 44.0439 10.3079 454 64.6278 1185.21 522.725
321 0 49.1531 13.7122 674 59.5712 1186.16 520.346
322 0 47.0398 11.5009 541 64.7597 1185.85 518.445
323 0 48.0513 11.0715 532 64.8816 1185.69 518.148
324 0 49.0279 11.3813 558 64.2366 1185.52 517.349
325 0 52.1148 11.609 605 63.6893 1185.48 516.474
326 0 54.0389 11.7508 635 62.7449 1185.65 517.479
327 0 52.0283 10.6096 552 65.8514 1185.55 514.665
328 0 56.0688 12.8949 723 61.8077 1185.4 514.609
329 0 58.0233 13.5635 787 60.9327 1185.57 513.84
330 0 58.0296 10.7531 624 65.4567 1186.52 512.393
331 0 60.0224 12.3454 741 62.8192 1186.29 512.491
332 0 62.0675 11.423 709 63.921 1185.67 510.74
333 0 64.0639 12.5812 806 62.33 1185.78 509.396
334 0 65.0911 12.2136 795 62.634 1184.89 509.155
335 0 68.0919 13.2028 899 60.9043 1185.08 508.348
336 0 69.1331 13.6259 942 60.7718 1185.35 506.662
337 0 71.1444 13.2688 944 61.1388 1185.49 505.878
338 0 71.0671 11.6369 827 63.8585 1185.3 504.755
339 0 76.1601 13.1434 1001 61.2907 1185.67 505.967
340 0 77.1957 12.2416 945 62.5693 1184.7 504.927
341 0 79.0745 10.6482 842 64.7352 1185.2 504.096
342 0 82.2493 12.0731 993 62.9305 1185.16 501.599
343 1 41.0109 9.82666 403 66.4814 1184.8 517.407
344 0 46.035 11.122 512 63.5586 1183.46 518.922
345 0 47.0476 11.4777 540 63.8741 1183.97 517.709
346 0 47.065 10.6236 500 64.982 1184.72 515.532
347 0 47.0175 10.5918 498 65.1626 1185.29 517.61
348 0 48.0466 10.9269 525 64.3486 1184.01 516.236
349 0 52.0926 12.6122 657 61.6073 1184.71 515.297
350 0 50.0604 9.78818 490 66.4571 1185.24 515.4
351 0 54.0485 12.8773 696 61.8348 1185.44 514.422
352 0 55.0922 11.6895 644 63.913 1185.19 512.972
353 0 54.1279 10.7338 581 65.1687 1185.09 512.281
354 0 59.0717 13.1027 774 61.5233 1185.27 512.592
355 0 60.0703 11.8694 713 62.9397 1184.28 513.128
356 0 60.0994 11.065 665 65.5068 1184.72 508.817
357 0 64.0337 11.3846 729 64.0206 1185.23 512.043
358 0 66.0972 12.0731 798 63.4574 1185.73 509.9
359 0 67.0998 12.3547 829 63.5247 1185.91 507.724
360 0 68.2104 12.3295 841 63.3686 1184.42 509.226
361 0 72.1116 12.4668 899 63.7297 1184.23 506.048
362 0 71.1547 11.0745 788 66.1421 1184.1 506.391
363 1 41.0956 11.4368 470 63.983 1184.72 521.06
364 0 39.03 10.0179 391 67.5371 1185.19 520.105
365 0 42.0422 11.9404 502 63.0239 1184.84 521.255
366 0 44.0268 11.5384 508 64.0138 1185.91 519.309
367 0 44.0378 11.0587 487 65.4538 1185.67 518.971
368 0 44.0653 11.0518 487 66.4086 1185.56 517.723
369 0 47.0779 11.1517 525 65.5752 1185.28 517.503
370 0 48.0543 11.6535 560 64.6232 1185.29 518.418
371 0 50.1116 12.4722 625 64.2096 1185.23 515.965
372 0 51.0503 11.6356 594 64.6566 1185.32 517.961
373 0 50.1312 10.6919 536 66.8787 1185.46 518.021
374 0 53.0719 12.078 641 64.5991 1185.52 516.362
375 0 54.0939 10.9439 592 66.5659 1185.71 514.721
376 0 55.0961 11.2349 619 66.0775 1185.24 514.966
377 0 59.0445 12.787 755 63.4477 1185.59 513.759
378 0 60.097 12.7461 766 63.3329 1185.03 513.507
379 0 60.0772 12.5006 751 64.6538 1185 512.04
380 0 63.0461 12.0705 761 64.565 1183.97 511.564
381 0 65.0723 13.7232 893 62.3583 1184.68 511.187
382 0 66.0419 11.9015 786 64.9593 1183.8 510.321
383 0 70.0572 11.9902 840 64.5881 1184.7 509.5
384 0 72.0814 12.6662 913 63.9168 1184.69 508.354
385 0 73.1063 11.6953 855 65.8526 1184.92 506.821
386 0 75.08 12.9728 974 64.0113 1183.83 506.809
387 1 39.0305 11.6576 455 65.2791 1184.1 522.793
388 0 38.0657 11.3488 432 65.7222 1184.8 522.975
389 0 41.0617 11.8845 488 64.9488 1184.23 523.467
390 0 43.0148 13.6465 587 62.9267 1184.16 521.634
391 0 43.1154 10.7386 463 66.3952 1184.84 522.598
392 0 45.1 11.9069 537 66.2142 1185.07 520.296
393 0 46.0823 11.6965 539 67.1132 1184.65 519.024
394 0 48.088 11.7909 567 66.7601 1184.71 520.658
395 0 47.0831 12.1063 570 67.4579 1184.55 519.498
396 0 50.043 12.4293 622 67.2862 1184.96 519.13
397 0 51.0605 12.5929 643 67.2037 1184.78 516.84
398 0 53.0779 12.3404 655 67.0321 1185.07 517.747
399 0 56.0547 13.13 736 66.3139 1184.65 515.106
400 0 56.1119 13.58 762 66.3005 1185.2 515.613
401 0 56.0941 11.8372 664 69.0663 1184.99 516.011
402 0 60.2398 12.3008 741 67.7598 1184.23 514.347
403 0 60.1719 11.9491 719 68.6481 1184.99 515.108
404 0 60.124 12.0917 727 69.564 1185.25 512.73
405 0 64.0439 13.1941 845 67.355 1185.15 511.447
406 0 65.0723 13.17 857 67.5648 1185.28 511.35
407 0 67.0754 11.9865 804 68.8483 1185.18 510.087
408 0 69.1059 12.6183 872 67.8096 1184.9 509.7
409 0 72.0556 12.2128 880 67.6 1185.11 509.423
410 0 74.2251 13.23 982 67.0153 1185.01 506.666
411 0 77.0657 14.0919 1086 66.3002 1185.1 504.16
412 1 40.0446 10.8379 434 69.3641 1184.81 522.995
413 0 44.0672 13.6156 600 64.0933 1184.26 522.842
414 0 43.0323 11.0847 477 67.369 1184.61 523.675
415 0 44.0277 12.1742 536 67.4646 1184.18 521.498
416 0 45.0421 13.0545 588 65.7007 1184.94 519.944
417 0 45.0673 10.8283 488 68.7438 1184.97 520.494
418 0 48.0404 12.5936 605 65.2645 1184.86 520.46
419 0 49.0267 11.3204 555 67.0522 1184.7 520.411
420 0 50.0379 12.2507 613 65.9511 1184.44 520.23
421 0 51.0652 11.828 604 66.9834 1184.59 519.43
422 0 51.0575 12.1432 620 66.8548 1184.49 517.629
423 0 54.0598 12.3197 666 66.1922 1184.03 515.288
424 0 54.0655 12.078 653 65.8116 1184.08 517.622
425 0 57.1039 12.7312 727 64.718 1184.25 514.728
426 0 61.0724 13.0828 799 63.403 1184.97 513.936
427 0 60.0855 12.399 745 64.8671 1184.47 513.632
428 0 62.1072 11.6412 723 65.3292 1184.48 513.25
429 0 63.0349 12.4058 782 64.4859 1185.07 512.088
430 0 67.0954 12.9666 870 63.1793 1184.78 510.905
431 0 66.0563 12.232 808 64.7611 1184.99 510.818
432 0 69.1239 12.9478 895 63.2089 1184.66 509.896
433 0 69.1239 12.9478 895 131.885 1184.66 509.901
434 0 72.0455 12.0341 867 64.8939 1183.86 506.045
435 0 76.2054 12.9518 987 63.3141 1183.87 504.808
436 0 76.148 10.9917 837 65.6571 1184.89 501.395
437 0 80.0639 12.1903 976 64.2531 1184.19 501.668
438 1 40.0162 9.99594 400 65.0275 1184.12 522.412
439 0 41.0448 9.7698 401 65.2519 1183.91 521.683
440 0 44.0313 12.9681 571 62.2469 1184.05 519.883
441 0 44.0393 12.6251 556 62.1924 1184.71 520.768
442 0 43.0827 10.5611 455 65.6725 1185.05 519.727
443 0 45.0436 10.6341 479 65.7349 1184.31 516.714
444 0 46.1105 10.5182 485 65.7814 1184.26 517.103
445 0 47.0242 9.52701 448 66.6585 1184.59 515.283
446 0 49.0379 10.8895 534 64.588 1184.67 512.223
447 0 47.0412 10.8841 512 65.8262 1184.75 511.975
448 0 47.0299 9.69596 456 67.4167 1184.88 513.342
449 0 49.0421 10.0118 491 66.6253 1185.25 509.218
450 0 54.0333 11.0117 595 64.6403 1184.06 509.326
451 0 52.087 9.08097 473 67.2135 1184.13 507.319
452 0 49.0398 8.2382 404 67.8787 1184.62 502.304
453 1 0 0 0 -nan -nan -nan
454 0 0 0 0 -nan -nan -nan
455 0 0 0 0 -nan -nan -nan
456 1 72.0588 11.3102 815 67.7227 1184.38 436.445
457 0 76.0976 11.5378 878 67.3098 1184.57 436.145
458 0 78.1076 10.8952 851 68.5629 1184.71 429.029
459 1 45.0921 9.18121 414 69.9275 1184.09 443.749
460 0 42.0327 8.68372 365 71.611 1184.61 442.795
461 0 44.0239 9.22226 406 71.3227 1185.17 438.345
462 0 43.0268 8.57604 369 69.0488 1184.71 478.561
463 0 46.031 10.1888 469 67.4008 1184.64 476.81
464 0 38.0049 0.999872 38 80.5263 1184 487.658
465 0 49.108 10.4871 515 67.6582 1183.89 473.837
466 0 48.0191 10.475 503 68.2684 1184.08 472.839
467 0 52.0426 10.5683 550 67.6436 1184.63 469.595
468 0 52.0551 10.2584 534 67.9869 1183.65 465.998
469 0 53.0364 11.6712 619 66.6494 1184.01 466.008
470 0 51.0309 9.58243 489 69.9611 1184.31 463.137
471 0 55.0424 11.3367 624 67.0833 1184.38 461.314
472 0 57.1026 9.71935 555 69.0793 1184.36 457.858
473 0 60.0543 9.65793 580 68.4207 1184.92 455.417
474 0 62.0715 9.92403 616 68.8799 1184.83 453.216
475 0 63.0534 12.5132 789 66.0786 1183.92 450.504
476 0 64.1079 10.6695 684 68.1886 1184.14 449.063
477 0 66.1265 11.9166 788 67.099 1183.96 446.091
478 0 67.0655 10.527 706 69.1728 1183.48 443.664
479 0 68.0742 11.2524 766 64.7689 1184.53 507.358
480 0 70.0628 10.4192 730 65.463 1183.75 509.323
481 0 71.1226 12.2605 872 63.8888 1183.9 505.651
482 0 75.0389 12.7667 958 62.691 1184.03 506.447
483 0 76.0869 10.948 833 64.9532 1184.6 505.887
484 0 77.04 11.9289 919 64.9195 1183.94 500.613
485 0 81.048 11.487 931 64.5671 1184.32 501.989
486 1 40.041 10.1146 405 63.3531 1184.73 521.447
487 0 40.0264 10.3182 413 62.4165 1184.16 524.048
488 0 43.0367 10.2703 442 64.1312 1183.67 521.204
489 0 45.0542 11.5416 520 62.0385 1183.81 522.223
490 0 45.0342 9.5927 432 65.6551 1183.72 521.095
491 0 49.0392 11.0728 543 61.9724 1184.33 522.225
492 0 48.1055 12.1192 583 61.0789 1183.81 520.662
493 0 51.0337 10.3265 527 63.3017 1183.26 518.573
494 0 51.1166 10.4467 534 63.6386 1183.7 518.554
495 0 54.1427 12.3378 668 60.9671 1183.39 515.427
496 0 54.1069 10.1466 549 63.7031 1183.39 516.663
497 0 54.0276 11.7903 637 62.2261 1184.11 514.463
498 0 58.084 11.1046 645 63.0682 1184.01 513.505
499 0 57.1437 11.6723 667 63.0075 1183.61 511.619
500 0 59.1503 10.9382 647 63.5657 1183.37 511.725
501 0 60.0664 11.2043 673 62.847 1183.81 508.267
502 0 60.0843 10.5186 632 64.0047 1183.62 507.013
503 0 61.1175 8.81908 539 66.1354 1183.28 506.119
504 0 63.0649 10.0849 636 64.445 1184.04 507.876
505 0 68.0686 9.51981 648 64.5972 1183.76 503.966
506 0 66.0753 8.2179 543 65.8895 1183.68 502.961
507 0 67.1034 8.61357 578 66.0398 1183.75 502.398
508 1 33.0834 6.64986 220 65.8591 1183.53 521.941
509 0 34.0663 8.10184 276 64.8007 1183.37 521.181
510 0 36.1056 9.58299 346 62.5838 1183.36 520.85
511 0 38.0404 9.09558 346 63.5607 1183.9 516.983
512 0 39.0419 8.32439 325 63.9785 1183.56 521.083
513 0 41.0437 8.77113 360 63.7778 1183.59 518.817
514 0 40.0221 8.34538 334 64.5599 1183.24 518.356
515 0 45.042 11.0342 497 60.7787 1184.29 517.97
516 0 46.1133 11.0164 508 60.4075 1184.2 515.384
517 0 42.0353 8.2074 345 63.7072 1183.01 511.962
518 0 39.068 5.37525 210 65.9524 1183.92 509.538
519 1 54.054 9.8975 535 62.9589 1183.65 465.047
520 0 55.1045 11.2876 622 61.6367 1183.08 460.428
521 0 56.071 10.3975 583 62.3876 1184.56 460.178
522 0 58.0637 10.4196 605 62.4298 1183.87 454.109
523 0 61.084 11.0012 672 61.686 1183.92 454.591
524 0 61.0519 11.1708 682 61.9179 1184.12 450.525
525 0 64.1021 10.5769 678 62.4366 1183.93 447.646
526 0 66.0531 10.9609 724 62.4268 1183.54 442.865
527 0 67.0487 9.3365 626 64.7412 1184.03 440.123
528 0 70.1198 9.7262 682 64.8196 1184.75 438.811
529 0 68.0789 9.82683 669 61.423 1183.65 502.416
530 0 73.2771 9.78477 717 61.2873 1183.86 501.155
531 0 73.1346 9.33895 683 62.2372 1183.64 498.565
532 0 76.0196 9.83956 748 61.6324 1183.16 496.718
533 0 80.0753 10.2778 823 61.2491 1183.32 499.209
534 0 80.1966 9.20238 738 62.7087 1183.61 496.453
535 1 37.0725 7.04025 261 62.6743 1184.52 517.655
536 0 43.0692 10.7734 464 58.6552 1184.41 518.5
537 0 45.0568 10.853 489 57.2434 1183.86 520.816
538 0 46.056 9.09762 419 59.9499 1183.63 519.661
539 0 47.0897 10.703 504 58.5774 1183.52 517.317
540 0 50.1034 11.2168 562 57.6779 1184.14 518.612
541 0 51.1016 11.0564 565 58.1734 1183.75 513.453
542 0 51.1528 11.0258 564 58.1277 1183.97 516.255
543 0 55.117 11.648 642 58.053 1183.63 512.984
544 0 54.055 11.3588 614 58.4967 1183.87 516.034
545 0 57.1934 12.2741 702 57.3818 1183.57 514.56
546 0 59.1475 12.1392 718 57.9359 1183.17 513.283
547 0 61.1167 12.3534 755 58.102 1183.76 511.678
548 0 60.1414 11.5228 693 59.7114 1183.77 512.563
549 0 63.1812 10.6677 674 60.6766 1182.86 509.07
550 0 63.0828 12.1111 764 59.6819 1182.55 508.787
551 0 67.0388 10.6953 717 61.4254 1183.46 508.357
552 0 68.1251 11.4348 779 61.2336 1183.55 507.999
553 0 72.0964 13.26 956 58.999 1183.56 505.846
554 0 73.1245 12.0343 880 61.0398 1183.89 505.693
555 0 77.1244 11.5398 890 61.6214 1183.45 505.113
556 0 79.1325 11.9799 948 61.038 1182.95 504.582
557 0 82.1459 13.756 1130 59.6664 1183.39 501.075
558 0 83.106 11.7922 980 62.5286 1183.29 499.4
559 0 86.1498 10.4934 904 63.9679 1183.47 500.777
560 1 46.0887 9.48171 437 63.7689 1183.08 520.126
561 0 48.1167 11.0564 532 63.0846 1183.34 517.782
562 0 48.1879 10.9364 527 63.8691 1183.31 519.321
563 0 49.0761 10.7384 527 65.3909 1182.93 517.102
564 0 53.1166 12.2372 650 61.6677 1183.34 516.348
565 0 54.0464 11.8232 639 62.3615 1182.71 516.643
566 0 56.0226 11.4597 642 62.9034 1182.74 515.438
567 0 58.0788 12.6036 732 61.9358 1182.9 514.022
568 0 59.0642 11.3605 671 63.5365 1182.55 512.754
569 0 60.1231 11.1105 668 63.8473 1183.1 512.272
570 0 64.1312 11.9754 768 61.875 1183.89 511.124
571 0 65.0443 12.2378 796 62.6357 1183.85 508.701
572 0 67.1186 12.5301 841 62.1807 1184.53 506.715
573 0 69.1146 12.3563 854 62.144 1183.84 507.766
574 0 71.0862 12.309 875 61.5771 1184.22 507.082
575 0 72.1504 10.4643 755 64.3113 1184.24 503.139
576 0 74.1398 11.0062 816 63.6973 1184.02 501.875
577 0 78.087 11.2695 880 61.9795 1184.68 503.927
578 0 81.0834 12.111 982 60.9664 1184.8 501.381
579 0 83.0925 10.1935 847 63.3365 1185.06 501.615
580 1 42.0609 7.37027 310 63.9161 1185.77 521.106
581 0 44.029 9.06222 399 62.614 1185.52 518.85
582 0 46.0315 10.7535 495 59.5778 1185.93 518.77
583 0 51.0292 11.2877 576 58.3212 1185.36 516.859
584 0 50.072 10.6447 533 59.8856 1185.61 515.416
585 0 51.0193 12.4659 636 57.7484 1185.2 516.436
586 0 51.0868 10.4136 532 60.3741 1185.22 516.199
587 0 52.1234 11.1274 580 59.8724 1184.22 514.495
588 0 55.0362 11.338 624 59.2708 1183.63 514.25
589 0 58.1524 10.6273 618 60.0097 1183.91 512.972
590 0 59.0852 11.3734 672 58.747 1183.15 512.546
591 0 60.0569 11.7222 704 58.7188 1183.5 510.007
592 0 62.0459 11.4109 708 58.9336 1183.76 511.144
593 0 63.1001 11.9176 752 58.2926 1183.24 509.396
594 0 65.0414 13.2531 862 56.5684 1183.06 509.841
595 0 65.0702 10.0507 654 60.1789 1182.96 510.187
596 0 66.1111 11.0269 729 59.4074 1184.19 507.756
597 0 72.1177 11.5506 833 58.2245 1183.92 504.379
598 0 71.1419 11.5544 822 59.1302 1184 503.346
599 0 74.158 11.462 850 58.6106 1183.44 503.228
600 0 78.1227 12.2884 960 57.5438 1184.07 502.204
601 0 80.1385 12.0167 963 57.8297 1183.71 500.559
602 0 84.1108 12.9472 1089 56.7833 1183.94 500.309
603 0 84.1261 11.0429 929 59.1712 1184.19 496.874
604 1 42.0946 10.4051 438 57.6598 1183.71 520.863
605 0 45.1042 10.8416 489 57.9959 1184.68 518.638
606 0 47.1924 10.1711 480 57.6417 1184.51 519.935
607 0 47.0101 10.9764 516 57.6977 1184.83 519.601
608 0 49.0694 10.638 522 58.6533 1184.43 515.347
609 0 47.0368 9.16303 431 60.58 1184.23 515.014
610 0 51.0332 11.5219 588 57.4524 1183.76 514.56
611 0 53.0108 12.2239 648 56.7917 1184.35 514.477
612 0 57.1091 12.0471 688 56.4913 1184.97 513.699
613 0 56.0371 10.725 601 58.6539 1184.66 511.995
614 0 59.0575 12.2592 724 56.8094 1184.94 510.204
615 0 61.0516 11.5804 707 57.1216 1184.29 509.857
616 0 63.0717 13.0169 821 55.6736 1185.28 506.454
617 0 66.1228 13.732 908 55.1101 1184.89 508.098
618 0 65.1073 11.458 746 57.8204 1184.7 509.098
619 0 66.2379 11.9267 790 57.8797 1184.69 506.525
620 0 68.1718 12.4538 849 57.6148 1184.78 501.876
621 0 71.0515 13.5113 960 56.2958 1184.51 502.957
622 0 72.1937 11.0952 801 58.8327 1184.53 505.408
623 0 75.0936 11.3592 853 59.1899 1184.46 501.532
624 0 76.058 11.3072 860 59.3558 1184.61 501.026
625 0 79.1742 12.7693 1011 58.0653 1184.87 500.179
626 1 42.0693 9.91222 417 60.7242 1184.37 518.391
627 0 45.0784 10.0048 451 60.3747 1183.22 518.047
628 0 46.0455 12.5311 577 57.6256 1183.9 516.588
629 0 49.0623 11.2102 550 59.1927 1184.49 515.135
630 0 49.0848 12.5905 618 57.9304 1184.4 516.665
631 0 50.0555 11.1476 558 59.948 1184.04 514.443
632 0 50.0489 11.8484 593 59.973 1184.35 513.484
633 0 53.0459 12.0085 637 59.4851 1184.54 512.761
634 0 57.0824 12.5958 719 57.8943 1183.87 512.949
635 0 58.0482 11.0081 639 59.9765 1184.6 511.651
636 0 58.0185 11.841 687 59.7103 1185.16 509.466
637 0 62.0496 13.1508 816 57.5895 1184.94 510.051
638 0 64.1198 12.773 819 57.3797 1184.71 510.451
639 0 66.0661 14.6369 967 55.3144 1184.42 509.273
640 0 68.2768 12.1564 830 58.0639 1184.77 508.398
641 0 69.149 12.6104 872 58.0894 1185 507.998
642 0 73.1737 12.7231 931 57.8625 1184.96 506.758
643 0 72.0398 11.6463 839 59.2706 1183.86 507.113
644 1 37.1318 8.77955 326 62.2239 1183.57 522.046
645 0 39.0478 10.6024 414 60.5193 1185.16 520.915
646 0 40.0143 11.4209 457 60.151 1184.55 518.945
647 0 42.0231 12.2076 513 58.8148 1185.03 518.183
648 0 43.0638 9.54398 411 61.5961 1184.41 519.36
649 0 43.0369 10.5723 455 61.1033 1184.26 518.868
650 0 48.1385 13.5442 652 56.7868 1184.84 518.466
651 0 48.0486 10.4061 500 60.812 1185.46 517.496
652 0 49.0523 12.9657 636 58.5409 1184.94 515.102
653 0 51.1093 12.62 645 58.6326 1184.89 514.975
654 0 49.0186 10.9346 536 61.7556 1185.02 514.483
655 0 54.0453 11.2683 609 60.9787 1184.75 512.716
656 0 54.0193 13.236 715 58.5748 1185.67 514.927
657 0 58.1213 13.4202 780 58.7564 1185.18 511.3
658 0 58.1311 12.4546 724 59.8191 1184.82 512.793
659 0 61.0708 13.1978 806 59.2655 1184.91 507.206
660 0 63.0562 12.9408 816 59.1679 1185.06 509.893
661 0 66.2529 12.5127 829 59.5151 1184.82 509.943
662 0 65.2207 11.4841 749 61.4272 1184.82 505.729
663 0 70.1649 13.5965 954 58.2254 1185.24 508.184
664 0 72.2393 13.0815 945 59.2635 1184.65 503.804
665 0 73.1878 14.3877 1053 57.9316 1185.01 505.085
666 0 75.1129 13.1668 989 59.3782 1185.21 503.774
667 1 39.113 12.1443 475 58.72 1185.66 520.977
668 0 41.0399 12.2076 501 58.507 1185.41 520.663
669 0 43.0696 12.0038 517 59.2476 1184.75 519.72
670 0 43.0362 11.1999 482 59.7261 1185.18 520.145
671 0 43.0238 10.7382 462 60.619 1186.57 520.359
672 0 46.1278 11.3381 523 60.0707 1186.22 517.597
673 0 47.0657 11.9407 562 59.7046 1185.55 515.68
674 0 48.1356 12.9218 622 58.5305 1184.72 514.204
675 0 52.0456 12.5659 654 57.9128 1185.07 515.771
676 0 53.0965 12.562 667 58.4603 1185.71 514.688
677 0 53.0471 12.1025 642 58.7804 1186.1 514.411
678 0 54.044 11.2871 610 60.8836 1185.61 511.487
679 0 56.0494 13.4702 755 58.2119 1184.92 512.615
680 0 57.0554 12.1286 692 59.974 1185.83 512.564
681 0 60.1943 13.0245 784 58.7015 1186.32 511.681
682 0 60.1702 12.4148 747 60.4217 1185.92 507.996
683 0 64.1674 12.6544 812 59.3744 1185.29 507.901
684 0 66.115 13.9454 922 58.2885 1186.15 504.862
685 0 69.0661 12.8862 890 59.0798 1185.36 507.415
686 0 69.1071 10.954 757 61.5469 1186.06 507.971
687 0 71.0253 12.6434 898 59.8664 1185.48 506.575
688 0 73.0928 11.4922 840 61.5893 1185.59 502.432
689 0 76.0728 13.5002 1027 59.369 1185.77 499.752
690 1 39.0074 10.9723 428 59.3551 1186.23 521.22
691 0 40.0165 12.7197 509 57.5442 1186.44 519.984
692 0 39.093 11.332 443 59.8984 1185.46 519.302
693 0 44.0446 10.8072 476 58.9244 1185.21 518.193
694 0 43.0516 11.312 487 59.0657 1185.2 517.963
695 0 46.0562 11.7465 541 57.9686 1185.17 519.272
696 0 46.0435 11.8801 547 58.2322 1184.7 514.499
697 0 47.062 10.5818 498 59.7269 1185.05 514.972
698 0 51.0382 12.0302 614 56.7476 1185.1 515.917
699 0 53.0921 11.8473 629 56.8219 1185.22 514.707
700 0 51.0544 10.7336 548 59.2007 1186.14 511.869
701 0 53.0655 11.4764 609 57.67 1185.39 514.706
702 0 55.1269 11.3556 626 58.6038 1184.95 509.431
703 0 59.0684 11.9184 704 56.8864 1185.02 510.335
704 0 60.0691 10.3215 620 58.7129 1184.8 507.415
705 0 61.0654 10.6279 649 58.8998 1185.08 507.177
706 0 64.084 10.1273 649 58.5023 1185.18 506.774
707 0 67.0676 10.6907 717 57.4672 1184.77 508.996
708 0 68.0724 10.1216 689 57.955 1184.68 504.881
709 1 35.0234 8.16598 286 57.9021 1185.12 524.773
710 0 39.0411 11.9618 467 54.1071 1184.84 522.043
711 0 38.037 11.1733 425 56.1012 1185.01 520.927
712 0 40.043 10.8883 436 56.3624 1185.37 521.154
713 0 40.1144 10.495 421 56.3753 1185.14 522.314
714 0 42.0236 11.0176 463 56.5983 1184.62 519.698
715 0 45.0291 12.925 582 54.7801 1185.16 519.325
716 0 44.0464 10.8522 478 57.5377 1185.1 518.766
717 0 45.0104 10.5309 474 57.6751 1185.32 518.816
718 0 48.1059 12.1814 586 55.0546 1185.42 520.833
719 0 48.0841 10.0033 481 58.7692 1185.81 518.318
720 0 51.0504 10.7149 547 57.6947 1185.14 516.064
721 0 53.1047 12.5789 668 55.7126 1184.82 516.683
722 0 54.1536 12.5015 677 55.9513 1185.1 514.109
723 0 56.2261 13.0367 733 55.2278 1184.68 515.158
724 0 55.0914 11.2177 618 57.9951 1184.75 512.82
725 0 58.0637 11.6941 679 57.6907 1184.99 510.909
726 0 62.1151 12.2837 763 55.827 1185.7 513.557
727 0 63.1661 11.446 723 57.5076 1185.27 510.575
728 0 64.0818 11.8598 760 57.1868 1185.2 508.159
729 0 67.1198 11.2485 755 57.8159 1184.97 509.852
730 0 69.0504 13.1064 905 56.1326 1184.25 507.556
731 0 70.0517 10.3209 723 58.8783 1184.91 509.755
732 0 72.1215 11.6886 843 58.4543 1185.55 508.218
733 0 76.216 10.2078 778 59.2519 1184.57 508.571
734 1 41.0343 11.99 492 58.1159 1184.51 521.933
735 0 42.0814 10.7886 454 59.4031 1185.15 522.057
736 0 46.0194 12.7338 586 56.1212 1185.32 523.317
737 0 45.0428 11.6112 523 58.195 1185.28 521.629
738 0 47.0193 13.4413 632 56.5823 1185.49 519.927
739 0 48.0301 12.2423 588 58.0289 1185.14 519.413
740 0 50.0822 11.6808 585 57.7419 1185.68 520.55
741 0 51.0331 12.9132 659 57.8574 1184.98 518.367
742 0 52.1462 13.2512 691 57.233 1185.26 517.899
743 0 55.0448 12.0629 664 57.9172 1184.46 517.97
744 0 54.0623 12.948 700 57.6886 1184.5 516.8
745 0 56.082 11.9468 670 58.191 1184.26 516.572
746 0 57.0948 13.2937 759 56.6403 1184.34 515.543
747 0 58.0838 13.7043 796 56.6771 1184.86 513.366
748 0 58.0838 13.6183 791 127.894 1184.87 513.336
749 0 63.0882 11.9991 757 57.5786 1184.86 512.211
750 0 65.0849 12.3685 805 57.1739 1184.29 507.671
751 0 68.1149 11.6274 792 56.9975 1184.53 509.503
752 0 73.054 12.4565 910 55.833 1184.24 509.368
753 0 72.093 12.5394 904 56.5841 1184.45 507.104
754 0 73.0603 11.9217 871 57.465 1185.15 504.077
755 0 77.1547 12.4944 964 56.3071 1185.03 504.689
756 1 42.0533 9.98732 420 57.0595 1184.7 523.295
757 0 41.0554 11.7646 483 57.1553 1184.89 521.431
758 0 43.0257 12.3647 532 55.9192 1184.95 517.641
759 0 45.067 12.6035 568 55.7606 1184.6 518.812
760 0 47.0481 12.6891 597 55.2362 1184.71 518.712
761 0 48.1235 11.4289 550 57.2109 1184.92 517.345
762 0 51.0792 12.6275 645 55.5659 1184.02 517.167
763 0 52.1117 12.1854 635 56.3528 1184.87 514.978
764 0 51.1018 12.3088 629 57.1653 1184.25 515.636
765 0 55.1452 12.4399 686 56.5335 1184.6 515.617
766 0 58.0705 13.0703 759 55.8261 1185.02 514.369
767 0 59.0456 13.3964 791 55.158 1184.3 515.083
768 0 61.0599 14.8543 907 53.7144 1184.47 514.663
769 0 62.1884 13.3787 832 55.5529 1184.46 511.65
770 0 63.1367 10.9762 693 58.1356 1184.14 509.659
771 0 67.1464 11.5122 773 57.4424 1184.19 510.307
772 0 70.1844 12.3817 869 56.4476 1185.39 506.869
773 0 71.063 13.6076 967 55.7125 1184.3 505.632
774 0 74.0363 12.0211 890 57.2034 1184.26 504.829
775 0 76.0753 12.7505 970 56.4103 1184.29 503.648
776 1 36.0349 7.82575 282 60.5106 1184.13 524.521
777 0 40.0255 12.1673 487 56.347 1184.34 522.678
778 0 42.0377 10.6571 448 58.0625 1185.19 520.551
779 0 43.0579 12.0303 518 57.3919 1184.91 519.844
780 0 45.1173 10.3065 465 59.3957 1185.19 519.305
781 0 46.0687 12.286 566 56.8322 1184.46 520.085
782 0 47.0403 12.4574 586 57.0222 1184.34 518.811
783 0 49.0652 12.6159 619 55.9095 1184.77 519.026
784 0 53.0816 12.4525 661 56.1195 1184.5 517.655
785 0 51.0264 10.4652 534 58.5487 1185.34 516.691
786 0 53.0588 12.9856 689 56.1263 1184.74 514.437
787 0 56.0374 13.0092 729 55.4513 1184.47 514.215
788 0 56.0659 12.8955 723 56.1757 1184.16 510.607
789 0 59.1905 10.8632 643 57.9393 1184.03 511.742
790 0 59.0712 13.0859 773 56.2561 1183.55 510.836
791 0 61.2225 12.8384 786 56.4453 1183.58 508.482
792 0 65.114 12.4858 813 56.5092 1184.43 506.422
793 0 67.0628 11.8844 797 57.5408 1185.05 507.942
794 0 68.0964 12.2473 834 56.7062 1184.89 505.89
795 0 71.0633 11.5531 821 57.5846 1184.7 504.052
796 0 75.0756 13.0668 981 56.1284 1185.06 504.244
797 1 38.0471 11.0915 422 56.9171 1184.76 522.476
798 0 38.0686 11.1378 424 57.3396 1184.45 522.222
799 0 39.0472 11.5245 450 57.2778 1184.46 522.56
800 0 41.0635 13.2234 543 55.8564 1185.09 522.234
801 0 44.0396 14.0555 619 54.6624 1185.28 521.879
802 0 42.0355 11.3951 479 58.2276 1184.77 522.207
803 0 47.1292 15.0862 711 54.1491 1184.88 520.951
804 0 47.1104 12.9908 612 56.4542 1185 522.047
805 0 49.0278 12.1156 594 57.6751 1184.25 519.49
806 0 50.0599 12.0056 601 57.8769 1184 519.824
807 0 52.0999 12.1689 634 58.1672 1184.19 517.782
808 0 52.079 12.2314 637 58.7206 1184.14 518.248
809 0 54.0502 12.7844 691 58.2634 1184.13 516.787
810 0 56.071 13.0906 734 57.8733 1184.62 517.578
811 0 59.0221 15.7568 930 54.8161 1184.64 517.074
812 0 60.0762 12.9835 780 58.3077 1184.32 515.386
813 0 64.1196 13.9895 897 56.7001 1185.14 515.242
814 0 64.1001 14.3837 922 57.4946 1185.18 513.398
815 0 65.0593 12.4809 812 59.9347 1184.62 514.427
816 0 69.1215 14.0622 972 58.4054 1184.53 512.501
817 0 69.1092 12.8058 885 60.5537 1184.91 511.545
818 0 72.218 13.4316 970 59.9144 1184.89 510.537
819 0 73.1414 12.2913 899 61.7764 1184.63 508.742
820 0 75.0628 13.2955 998 60.997 1184.63 506.928
821 0 80.0792 13.0371 1044 60.6916 1184.61 505.74
822 1 40.0499 12.834 514 59.214 1184.22 525.3
823 0 42.1078 11.9693 504 60.4206 1183.99 525.373
824 0 43.0599 12.1923 525 60.8819 1184.52 523.602
825 0 43.0627 11.8896 512 61.3906 1184.9 522.268
826 0 45.0609 11.8284 533 60.5666 1184.72 523.518
827 0 45.0994 13.5257 610 60.0016 1184.38 520.61
828 0 48.0578 14.441 694 59.0187 1184.51 520.718
829 0 50.0783 13.1594 659 60.4461 1184.48 520.123
830 0 52.0566 13.9271 725 59.531 1185.17 519.93
831 0 51.017 13.2505 676 61.4053 1183.78 518.71
832 0 53.1714 12.676 674 62.1395 1183.95 518.433
833 0 57.0617 13.9849 798 59.5263 1184.69 518.122
834 0 57.2114 13.5812 777 60.5508 1184.77 516.952
835 0 58.031 11.8213 686 63.1764 1183.95 517.198
836 0 60.1272 13.0556 785 61.7911 1183.79 515.16
837 0 61.1216 13.1377 803 62.5156 1184.56 513.108
838 0 63.0987 13.3917 845 62.1917 1184.13 513.253
839 0 66.1242 13.4444 889 62.0979 1184.48 512.218
840 0 67.126 13.3033 893 62.8667 1184.58 511.579
841 0 69.0978 14.7038 1016 61.3908 1184.24 511.511
842 0 72.089 14.0243 1011 62.5628 1184.5 510.037
843 0 74.0732 13.5137 1001 63.6364 1184.52 509.156
844 0 77.107 13.5785 1047 63.4594 1184.37 505.354
845 0 78.1097 13.7371 1073 63.4212 1184.35 506.705
846 0 81.033 13.5007 1094 64.0338 1184.23 505.305
847 0 85.0441 13.7223 1167 63.8809 1184.43 504.361
848 0 85.0752 12.436 1058 65.7628 1184.3 502.207
849 1 45.0505 12.1641 548 63.4197 1184.28 524.872
850 0 43.0357 13.0357 561 64.4617 1183.8 523.709
851 0 47.0648 13.2158 622 63.3392 1184.48 522.801
852 0 49.0326 14.1334 693 62.1876 1184.69 522.136
853 0 50.0913 13.6551 684 63.1871 1184.3 521.01
854 0 52.1613 14.0526 733 62.3874 1184.3 520.415
855 0 51.0304 12.9923 663 65.0513 1184.01 517.486
856 0 54.0546 13.5974 735 63.283 1183.9 520.037
857 0 58.1014 14.4231 838 61.895 1183.79 517.925
858 0 59.1457 12.9003 763 64.4286 1183.5 515.616
859 0 61.061 13.7567 840 63.8262 1183.98 515.8
860 0 62.1218 14.1818 881 65.4926 1184.3 514.537
861 0 64.0615 13.2373 848 66.8384 1183.79 514.481
862 0 66.1162 13.7334 908 66.1773 1184.31 514.709
863 0 67.1118 12.8293 861 67.9733 1183.94 510.994
864 0 70.0972 12.6824 889 67.6794 1184.85 511.282
865 0 73.0959 13.0103 951 67.061 1184.2 510.537
866 0 74.0422 13.3438 988 67.4069 1184.22 508.419
867 0 77.1878 13.8623 1070 66.943 1184.19 506.375
868 1 40.0659 12.8538 515 67.635 1184.93 524.837
869 0 41.0247 12.8947 529 66.8904 1183.7 525.794
870 0 41.0521 12.813 526 68.9106 1184.54 522.586
871 0 42.1113 11.1847 471 69.7282 1183.93 525.397
872 0 44.0129 11.383 501 70.1098 1183.91 523.563
873 0 46.0503 13.8978 640 66.9125 1184.07 521.094
874 0 46.0631 13.8506 638 67.8652 1183.35 520.114
875 0 48.0221 11.932 573 69.6876 1183.9 520.412
876 0 53.1275 13.9099 739 65.9039 1183.62 519.206
877 0 54.3191 11.9479 649 67.8675 1183.18 519.516
878 0 53.1435 11.9112 633 68.3981 1182.94 517.79
879 0 58.1691 13.839 805 64.354 1183.08 520.226
880 0 59.0592 13.3256 787 65.9911 1183.27 518.503
881 0 60.0624 11.8377 711 67.6104 1183.35 517.685
882 0 63.1042 12.9468 817 66.4884 1184.05 515.241
883 0 66.14 12.6399 836 66.8074 1183.82 513.791
884 0 66.0579 13.3216 880 66.6114 1183.66 512.157
885 0 69.0878 13.6493 943 66.2238 1184.66 511.657
886 0 71.0896 12.3225 876 67.6918 1183.56 512.007
887 0 74.0721 12.8388 951 67.0925 1183.95 512.073
888 0 75.1131 13.2467 995 67.0683 1184.07 509.245
889 1 41.1018 10.3159 424 68.8302 1183.96 526.896
890 0 42.0293 10.683 449 69.4454 1184.35 525.793
891 0 41.0615 11.0566 454 70.9868 1184.47 523.291
892 0 42.0999 12.7079 535 68.4019 1184.55 523.781
893 0 45.048 11.8096 532 69.7425 1184.54 521.767
894 0 46.0941 12.6046 581 68.6661 1184.28 521.704
895 0 49.08 12.3676 607 68.285 1184.16 520.033
896 0 50.0163 11.4763 574 69.324 1184.29 520.991
897 0 50.0871 12.0789 605 70.114 1184.16 518.347
898 0 53.1231 12.9887 690 68.2899 1184.61 520.145
899 0 55.1917 13.3897 739 68.0027 1184.48 518.863
900 0 58.205 12.4732 726 67.9917 1184.85 518.566
901 0 60.1051 14.0088 842 66.8373 1184.54 516.114
902 0 63.0904 12.8546 811 67.7448 1183.84 516.396
903 0 62.1302 13.6649 849 67.0966 1183.81 515.515
904 0 66.0475 12.385 818 68.6638 1184.22 514.906
905 0 69.1347 13.3074 920 67.225 1183.86 512.713
906 0 69.1424 13.6674 945 67.5418 1184.07 510.689
907 0 70.0541 12.7616 894 68.3669 1183.57 507.847
908 0 72.179 12.2058 881 69.2588 1184.73 510.701
909 0 78.0622 13.5405 1057 67.5762 1185.17 507.842
910 0 78.0331 14.276 1114 66.5251 1184.98 503.996
911 0 81.3275 13.2673 1079 67.9713 1185.69 503.469
912 0 82.1582 13.4375 1104 68.3514 1184.91 502.678
913 0 85.2587 13.7581 1173 67.5661 1184.85 502.922
914 1 46.0748 12.5231 577 67.3518 1184.46 523.445
915 0 46.0653 11.5705 533 69.9081 1183.6 522.291
916 0 48.181 13.1379 633 67.7725 1184.15 521.13
917 0 48.0428 10.3866 499 71.5431 1184.2 521.509
918 0 51.0608 11.7311 599 70.0384 1183.57 519.088
919 0 51.051 11.0674 565 71.262 1184.05 518.736
920 0 51.1456 12.3373 631 70.2187 1183.79 517.721
921 0 54.0882 12.0174 650 70.2323 1183.9 518.535
922 0 56.1167 12.5987 707 69.4455 1183.76 516.699
923 0 57.1204 11.432 653 71.5436 1183.4 514.407
924 0 59.1048 12.2494 724 70.5843 1183.85 512.863
925 0 62.1756 12.6255 785 69.6229 1183.54 513.46
926 0 63.214 13.3831 846 69.4208 1183.65 510.195
927 0 65.0915 12.106 788 71.0698 1183.15 509.575
928 0 67.0768 11.4943 771 72.4176 1183.4 510.175
929 0 70.1367 11.7485 824 72.2731 1184.13 508.018
930 0 71.0367 11.0788 787 73.7853 1184.27 506.612
931 0 76.095 13.4306 1022 70.3209 1183.99 505.479
932 0 77.0715 12.1705 938 72.7377 1183.66 503.867
933 0 78.1333 12.4659 974 73.3162 1183.84 502.845
934 0 87.108 13.8334 1205 69.9212 1184.5 504.419
935 0 91.0824 13.131 1196 70.6931 1184.35 501.467
936 0 93.1357 13.2924 1238 70.7561 1184.39 498.126
937 0 93.0893 12.6008 1173 72.5047 1184.51 497.358
938 0 99.1085 14.3681 1424 68.8476 1184.45 498.605
939 0 104.098 14.592 1519 68.499 1183.89 498.942
940 0 105.131 13.4118 1410 70.6277 1183.28 494.104
941 0 109.075 14.2746 1557 69.3539 1184.01 493.166
942 0 112.291 15.2283 1710 68.048 1184.88 492.906
943 0 114.07 13.8511 1580 70.3032 1184.22 488.039
944 0 120.118 13.5533 1628 70.4048 1183.63 485.58
945 0 125.133 13.9052 1740 69.2805 1185.27 486.606
946 0 128.211 14.7647 1893 68.1606 1185.08 484.889
947 1 70.0642 12.1603 852 69.8932 1184.68 512.656
948 0 74.0794 13.391 992 68.9506 1184.12 511.68
949 0 77.0478 14.8349 1143 66.5809 1184.82 510.318
950 0 80.0793 14.3233 1147 67.7184 1185.04 505.552
951 0 83.0688 13.8319 1149 68.49 1184.51 503.921
952 0 84.2372 12.3105 1037 70.4638 1184.66 504.31
953 0 85.0883 12.3401 1050 71.0095 1184.7 502.932
954 0 90.0902 11.8104 1064 71.3825 1184.54 500.989
955 0 93.1013 13.8881 1293 68.9613 1183.44 499.44
956 0 96.0476 14.1492 1359 68.8543 1184.36 496.054
957 0 100.162 13.6978 1372 68.8754 1184.68 494.588
958 0 103.129 13.4298 1385 69.5047 1184.41 494.453
959 0 106.084 13.7344 1457 69.0453 1184.49 494.31
960 0 109.104 12.5293 1367 70.79 1184.41 494.68
961 0 113.217 14.088 1595 68.7712 1184.47 489.386
962 1 64.0964 13.0117 834 69.8393 1184.62 511.862
963 0 68.0616 12.4299 846 69.773 1184.35 513.1
964 0 69.1019 12.8795 890 69.9742 1184.15 509.706
965 0 69.1409 13.2194 914 70.384 1184.23 506.381
966 0 73.1188 12.3361 902 70.3614 1184.66 508.315
967 0 77.0786 13.376 1031 69.1096 1184.27 506.217
968 0 79.0249 13.2616 1048 68.8721 1184.69 506.442
969 0 83.1041 14.163 1177 67.5098 1184.76 504.11
970 0 86.2077 13.7923 1189 67.3053 1184.83 503.349
971 0 87.0996 12.6522 1102 68.9183 1185.21 501.727
972 0 92.1088 12.4635 1148 68.9608 1185.23 500.087
973 0 96.0947 13.0808 1257 67.7804 1185.5 498.564
974 0 99.1893 12.8945 1279 68.1861 1185.15 495.855
975 0 104.126 15.6349 1628 64.2568 1184.89 495.122
976 0 106.11 13.8253 1467 66.9625 1185.18 490.868
977 1 52.181 11.8626 619 67.9241 1184.78 516.433
978 0 54.1588 11.0047 596 68.7701 1184.96 516.218
979 0 57.0536 11.1825 638 68.1317 1184.34 515.484
980 0 58.0826 12.6027 732 66.362 1184.14 516.915
981 0 59.2694 12.266 727 67.9862 1184.91 512.481
982 0 61.084 11.3778 695 68.964 1185 511.04
983 0 65.1505 13.1081 854 65.7061 1185.04 511.082
984 0 66.1518 12.9399 856 66.7605 1185.15 509.116
985 0 70.1941 13.8758 974 64.8152 1185.24 508.718
986 0 71.239 13.4477 958 65.572 1184.9 509.17
987 0 75.1141 14.9107 1120 63.6893 1184.99 509.099
988 0 77.101 14.3448 1106 64.651 1185.15 505.397
989 0 80.2828 13.7638 1105 65.1439 1184.86 504.89
990 0 82.141 14.0368 1153 65.2056 1184.88 503.504
991 0 85.0782 14.3162 1218 64.7726 1185.16 501.797
992 0 85.1401 12.5793 1071 68.253 1185.47 499.399
993 0 90.1018 14.1174 1272 65.6156 1184.7 499.961
994 0 94.2481 13.4645 1269 66.5847 1184.7 497.474
995 0 96.1112 12.5063 1202 68.2055 1185.2 497.29
996 0 100.124 13.2736 1329 67.6983 1185.61 492.73
997 0 104.225 15.054 1569 64.8228 1184.92 493.119
998 0 106.128 14.0867 1495 66.8609 1184.63 489.126
999 0 110.393 13.1892 1456 68.1174 1185.04 487.73
1000 1 59.1433 11.2439 665 66.7549 1184.4 515.964
1001 0 62.0863 11.6612 724 66.4917 1185.17 513.341
1002 0 64.0431 12.1637 779 66.5661 1185.2 508.535
1003 0 67.3219 11.6901 787 65.8285 1184.78 512.215
1004 0 70.3124 13.2693 933 64.1683 1184.85 510.084
1005 0 73.2533 14.2792 1046 63.2218 1184.65 507.702
1006 0 73.1036 12.5575 918 65.4303 1184.37 506.987
1007 0 76.1837 14.9113 1136 62.8116 1184.68 505.008
1008 0 77.1988 12.6945 980 65.5143 1184.04 506.005
1009 0 80.1938 13.2679 1064 64.5733 1184.59 503.964
1010 0 84.1994 12.8386 1081 65.3904 1184.41 500.464
1011 0 87.2249 13.7461 1199 63.6989 1184.87 501.154
1012 0 89.1596 14.4348 1287 63.1266 1184.37 497.283
1013 0 93.119 14.6479 1364 62.4523 1184.02 498.569
1014 0 96.1902 14.9184 1435 62.0941 1183.6 497.285
1015 0 98.2869 13.5318 1330 63.7579 1183.55 496.177
1016 0 101.265 13.6178 1379 63.8876 1184.17 493.983
1017 0 102.456 12.4834 1279 65.6896 1183.63 490.743
1018 0 108.081 13.934 1506 63.7052 1184.26 488.356
1019 1 59.0324 11.3328 669 63.9387 1184.01 515.016
1020 0 61.1398 12.1034 740 64.2338 1183.89 513.186
1021 0 63.0504 13.6875 863 62.4867 1183.1 511.144
1022 0 65.1495 12.5404 817 64.3721 1183.42 511.311
1023 0 65.2947 13.8909 907 63.2073 1183.68 509.266
1024 0 68.1426 13.7065 934 62.9636 1183.74 508.71
1025 0 68.1847 11.1169 758 66.0277 1183.71 508.608
1026 0 73.1512 14.1078 1032 61.9205 1183.24 507.545
1027 0 75.1692 10.0573 756 66.1746 1182.99 508.217
1028 0 78.053 12.12 946 63.9017 1183.57 507.3
1029 0 80.2878 13.2399 1063 62.7526 1183.41 503.198
1030 0 85.1002 13.8778 1181 61.812 1183.76 500.562
1031 0 87.2933 12.5325 1094 63.6161 1183.26 500.893
1032 0 91.1522 12.4627 1136 63.5299 1183.31 497.987
1033 0 92.1215 10.9964 1013 65.2567 1183.58 499.563
1034 0 97.1003 13.1822 1280 62.4062 1183.71 496.924
1035 0 101.171 13.2152 1337 62.3328 1183.58 495.524
1036 0 104.167 12.7199 1325 63.4906 1183.17 494.059
1037 1 56.0755 12.0908 678 62.0737 1183.17 517.046
1038 0 59.2095 11.6873 692 62.6517 1182.23 514.647
1039 0 59.1094 11.4026 674 63.8309 1182.61 514.846
1040 0 62.0349 11.4129 708 64.0622 1183.08 513.191
1041 0 64.0335 12.306 788 63.085 1183.12 511.666
1042 0 66.0808 11.9097 787 63.6417 1183.17 512.409
1043 0 65.2125 10.8108 705 65.1801 1183.18 513.05
1044 0 71.14 12.8338 913 62.3012 1182.82 510.117
1045 0 74.1306 11.183 829 63.3558 1182.15 511.376
1046 0 77.2234 12.3408 953 62.3158 1181.98 507.372
1047 0 77.1217 12.4608 961 62.1748 1182.28 508.821
1048 0 80.1971 12.4194 996 62.2359 1182.62 506.299
1049 0 80.1832 11.3615 911 64.1504 1182.65 502.092
1050 0 85.2951 13.0488 1113 61.6783 1182.71 504.153
1051 0 86.1519 12.0717 1040 63.3942 1182.56 501.758
1052 0 89.3254 12.2585 1095 62.926 1182.47 501.89
1053 0 94.0791 13.7331 1292 61.5031 1181.78 498.451
1054 0 97.2906 12.4473 1211 62.7622 1182.79 497.249
1055 0 100.33 12.3293 1237 63.304 1182.78 494.1
1056 0 102.239 10.9254 1117 64.6974 1182.85 496.822
1057 0 107.119 12.5468 1344 62.9241 1182.53 493.445
1058 0 107.346 11.067 1188 65.1103 1182.62 491.246
1059 0 111.143 11.5527 1284 64.6051 1182.41 487.385
1060 0 117.12 13.627 1596 61.3747 1182.69 488.849
1061 1 67.443 11.7877 795 62.3547 1182.56 512.738
1062 0 68.0583 11.3285 771 63.1051 1182.54 514.597
1063 0 69.0777 10.0032 691 65.2923 1183.1 509.988
1064 0 73.3587 11.5596 848 63.355 1183.18 509.447
1065 0 77.1851 11.8935 918 62.3922 1182.85 510.03
1066 0 77.1217 12.2404 944 62.3941 1182.88 506.25
1067 0 82.0911 11.8892 976 61.9057 1182.49 505.52
1068 0 81.25 11.6185 944 62.9597 1182.24 501.78
1069 0 86.2866 12.1803 1051 61.8287 1182.12 500.756
1070 0 89.4286 12.4904 1117 61.2981 1183.64 503.714
1071 0 90.2739 13.2375 1195 61.3849 1183.55 501.549
1072 0 92.4572 12.449 1151 61.9904 1183.12 501.954
1073 0 96.2773 13.6792 1317 61.0364 1183.01 495.453
1074 0 99.3479 12.9042 1282 61.8814 1183.45 497.966
1075 0 101.248 12.6126 1277 62.48 1183.16 495.685
1076 0 104.27 12.928 1348 62.4911 1183.55 493.358
1077 0 109.586 12.5472 1375 62.8647 1183.64 489.957
1078 0 109.135 12.2234 1334 63.928 1183.27 489.151
1079 0 115.269 13.7244 1582 62.0853 1183.63 488.024
1080 0 115.287 11.9354 1376 65.0029 1183.61 485.391
1081 0 120.273 12.0808 1453 64.4769 1183.53 485.905
1082 0 123.33 12.7463 1572 64.0274 1183.74 483.07
1083 0 126.411 12.8628 1626 64.203 1183.71 479.988
1084 0 127.388 11.987 1527 65.0092 1183.34 474.477
1085 0 134.391 13.8476 1861 62.7899 1183.01 478.931
1086 0 138.28 13.8921 1921 62.1942 1183.14 475.301
1087 0 141.369 12.2092 1726 64.6095 1183.9 472.111
1088 0 146.408 12.7179 1862 64.0312 1183.7 463.92
1089 0 149.275 11.5357 1722 65.8438 1183.14 468.301
1090 0 157.19 13.0161 2046 63.6984 1183.7 468.201
1091 0 160.353 12.4538 1997 65.0611 1183.8 462.641
1092 0 168.366 14.2725 2403 62.3866 1184.02 461.936
1093 1 92.2417 9.89791 913 64.4611 1183.07 496.654
1094 0 95.2441 10.9613 1044 63.3736 1183.19 497.327
1095 0 99.1693 12.0703 1197 62.2632 1184.57 494.738
1096 0 103.193 11.493 1186 63.0472 1183.74 493.637
1097 0 105.194 11.7878 1240 62.9952 1182.82 491.663
1098 0 109.366 12.6822 1387 61.8875 1183.15 490.236
1099 1 67.2111 9.61151 646 61.387 1183.06 508.421
1100 0 70.1885 11.2127 787 59.5591 1183.32 509.147
1101 0 72.1587 8.39816 606 63.038 1183.54 507.277
1102 0 74.1382 9.79252 726 61.7218 1183.18 507.437
1103 1 125.219 11.9151 1492 64.4504 1184.03 480.306
1104 0 128.466 11.7307 1507 64.643 1183.24 478.136
1105 0 133.132 12.4238 1654 63.8216 1183.59 479.029
1106 0 136.133 12.3556 1682 64.2598 1184.15 477.01
1107 0 142.242 12.542 1784 64.0465 1184.11 475.062
1108 0 147.332 13.6902 2017 63.5816 1184.02 470.167
1109 0 147.45 12.3568 1822 65.5307 1184.13 469.393
1110 0 153.096 12.9135 1977 65.4173 1184.47 464.367
1111 0 157.445 12.7664 2010 65.9602 1184.47 462.469
1112 0 163.212 12.5236 2044 66.3112 1185.06 460.744
1113 0 168.254 12.0116 2021 67.239 1184.84 458.387
1114 0 173.433 12.8061 2221 66.5331 1184.41 450.575
1115 0 180.266 13.1861 2377 65.9121 1185.06 451.95
1116 0 185.514 11.6595 2163 68.2954 1185.56 448.498
1117 0 189.417 11.9155 2257 68.1666 1185.38 447.677
1118 1 98.1522 9.76036 958 65.1326 1184.66 495.056
1119 0 100.119 10.7372 1075 63.9442 1184.51 492.305
1120 0 104.132 12.3017 1281 62.1241 1184.35 493.335
1121 0 106.163 10.7288 1139 64.5724 1184.64 489.374
1122 0 111.069 13.3431 1482 60.307 1185.09 492.333
1123 1 63.062 7.77013 490 59.1551 1184.91 516.927
1124 0 64.0997 8.42438 540 59.3963 1184.93 514.993
1125 0 64.2649 7.7025 495 61.2707 1184.91 512.176
1126 0 65.0781 9.55775 622 59.8923 1185.54 511.014
1127 0 69.1139 9.67967 669 59.8789 1184.84 510.806
1128 0 71.124 9.8279 699 60.1316 1184.92 506.299
1129 0 74.0812 9.92154 735 61.3469 1185.63 506.679
1130 0 71.0502 8.51511 605 63.6364 1185.06 505.588
1131 0 78.0606 10.3125 805 61.0248 1184.89 505.558
1132 0 80.1242 8.93613 716 62.9832 1184.78 503.5
1133 0 80.0904 9.03978 724 62.9945 1184.77 504.079
1134 0 83.1557 9.35594 778 63.1542 1185.13 500.895
1135 0 88.073 10.7297 945 61.2444 1185.43 499.595
1136 1 45.0796 9.6496 435 58.8506 1184.87 520.377
1137 0 44.0341 7.94839 350 62.06 1185.09 521.157
1138 0 50.0835 9.32442 467 59.7794 1184.58 519.514
1139 0 49.0463 10.3983 510 58.7784 1185.37 522.302
1140 0 49.202 7.94683 391 62.6445 1184.87 521.747
1141 0 53.1144 10.9575 582 59.0292 1185.06 520.124
1142 0 53.2182 8.64366 460 61.4413 1185.17 521.452
1143 0 56.1744 9.54172 536 60.7351 1184.46 516.282
1144 0 57.2247 9.99568 572 60.542 1184.57 513.955
1145 0 58.2457 10.2669 598 60.2308 1184.18 515.908
1146 0 60.1409 11.1073 668 59.1123 1184.05 515.674
1147 0 58.1311 8.63565 502 62.4522 1184.44 515.159
1148 0 64.2738 12.0578 775 58.009 1184.81 512.257
1149 0 65.2014 11.4875 749 59.0427 1184.67 510.81
1150 0 67.1178 11.9342 801 58.2909 1184.6 512.59
1151 0 69.2423 11.467 794 59.0554 1184.32 510.442
1152 0 72.2359 11.1025 802 58.9651 1184.18 511.808
1153 0 73.1266 9.57243 700 61.2514 1184.53 508.604
1154 1 39.0215 10.1995 398 59.4824 1186.08 527.781
1155 0 39.0426 10.4757 409 58.8093 1185.12 526.775
1156 0 38.041 10.699 407 60.1646 1184.91 524.342
1157 0 42.0316 10.3732 436 58.6743 1184.75 526.323
1158 0 40.0371 9.36632 375 61.168 1184.48 525.325
1159 0 43.1149 11.1098 479 58.4572 1184.77 524.91
1160 0 43.0306 10.6204 457 60.7418 1184.94 521.007
1161 0 43.0932 10.4425 450 60.8978 1185.2 522.202
1162 0 47.0541 11.8587 558 58.7025 1184.92 520.692
1163 0 48.0272 11.202 538 59.9647 1185.17 520.331
1164 0 49.1143 10.5468 518 60.7452 1185 522.008
1165 0 51.0591 11.5161 588 59.9677 1184.92 521.395
1166 0 51.0404 11.9513 610 60.9492 1184.21 519.959
1167 0 54.1774 13.0128 705 59.5461 1184.49 519.07
1168 0 55.1374 11.7706 649 61.416 1184.49 520.12
1169 0 59.1344 12.3955 733 60.311 1184.61 517.93
1170 0 57.1131 10.2428 585 63.8086 1184.01 515.708
1171 0 60.0602 11.6217 698 62.3754 1184.13 516.587
1172 0 60.0728 11.769 707 62.7822 1184.31 513.571
1173 0 64.0919 11.702 750 62.1107 1184.36 515.623
1174 0 65.0731 11.9404 777 62.471 1184.49 512.438
1175 0 68.1549 11.8113 805 61.7752 1184.36 512.144
1176 0 69.1208 11.7475 812 62.165 1184.24 512.159
1177 0 72.2452 12.2084 882 61.3084 1185.29 510.942
1178 0 73.1391 11.8678 868 62.0507 1184.5 511.131
1179 0 76.0958 13.299 1012 60.0929 1184.49 509.906
1180 0 75.1155 12.0481 905 61.7459 1183.83 506.671
1181 0 80.1919 12.0461 966 61.6967 1184.11 506.711
1182 0 81.1168 12.3526 1002 61.5479 1184.25 504.431
1183 0 83.0984 12.058 1002 61.9721 1184.48 506.338
1184 0 86.1569 13.3826 1153 60.1657 1184.55 502.137
1185 1 45.1554 10.2092 461 64.2408 1184.74 522.2
1186 0 49.0302 11.2992 554 61.5812 1184.29 522.505
1187 0 46.0463 9.77278 450 65.3711 1184.32 521.182
1188 0 51.1731 11.8226 605 61.4413 1184.35 521.066
1189 0 51.0441 10.8925 556 63.0791 1183.92 520.126
1190 0 55.1362 12.2424 675 60.1067 1184.22 519.887
1191 0 56.118 12.0639 677 61.579 1184.79 517.034
1192 0 56.0805 10.1996 572 64.042 1184.69 517.292
1193 0 59.0636 13.0537 771 60.1621 1184.82 515.743
1194 0 60.0755 11.5521 694 62.111 1185.09 515.504
1195 0 61.0469 12.1382 741 61.8866 1184.55 514.628
1196 0 64.0548 12.4581 798 61.2256 1184.35 512.93
1197 0 63.0586 11.4497 722 63.3961 1184.57 511.398
1198 0 66.0708 12.8499 849 61.1378 1184.13 511.961
1199 0 69.072 13.0878 904 60.5299 1184.25 510.717
1200 0 72.1282 13.5176 975 59.8615 1184.39 510.157
1201 0 74.1106 13.183 977 60.3664 1184.51 508.77
1202 0 76.1994 12.3623 942 61.1964 1185.01 508.738
1203 0 79.1598 12.4937 989 60.7422 1184.62 508.676
1204 0 82.0954 15.9814 1312 56.4657 1184.74 508.297
1205 0 81.2123 11.2421 913 62.8795 1185 507.079
1206 1 40.0577 9.53625 382 62.9634 1183.69 524.927
1207 0 42.0693 10.7442 452 61.4668 1184 525.606
1208 0 45.1368 11.0553 499 61.4068 1185.18 524.463
1209 0 45.0358 10.8358 488 62.0738 1185.09 524.91
1210 0 47.1025 11.0822 522 61.9962 1184.61 523.567
1211 0 50.0633 12.8637 644 59.809 1184.33 520.643
1212 0 50.0701 11.0645 554 62.9242 1185.11 520.639
1213 0 52.0107 12.3244 641 61.7395 1184.28 518.938
1214 0 53.0362 13.1985 700 60.8186 1184.52 519.117
1215 0 54.0526 11.5073 622 63.6624 1185.34 518.725
1216 0 56.0774 11.4663 643 63.353 1185.2 518.305
1217 0 57.0284 11.2225 640 64.3547 1185.47 517.927
1218 0 59.1009 11.1335 658 64.6033 1185.32 516.271
1219 0 60.1132 11.5449 694 63.7507 1185.07 517.47
1220 0 61.132 11.238 687 64.4818 1184.97 515.266
1221 0 64.0666 11.9875 768 63.7253 1185.45 512.514
1222 0 67.1055 12.1451 815 63.6319 1184.29 511.915
1223 0 67.156 11.8977 799 63.6909 1185.01 513.302
1224 0 69.0908 10.5803 731 65.9713 1185.56 508.718
1225 0 73.1326 12.4979 914 63.1488 1185.15 508.011
1226 0 75.1332 12.6176 948 62.6603 1184.93 507.95
1227 0 75.2142 11.2612 847 65.0909 1185.02 506.046
1228 0 80.2085 12.4176 996 62.9116 1184.32 505.858
1229 0 80.2043 10.7974 866 66.2621 1183.93 503.309
1230 1 42.0235 11.0652 465 63.2409 1184.69 523.155
1231 0 45.0584 10.6085 478 63.5314 1184.76 524.762
1232 0 45.0294 10.8374 488 64.3586 1184.53 523.66
1233 0 48.0389 12.0111 577 63.357 1184.38 519.236
1234 0 50.0375 11.7512 588 63.7143 1184.37 520.609
1235 0 51.0476 12.1847 622 64.0096 1184.38 517.913
1236 0 54.0107 10.9793 593 64.4907 1184.44 516.826
1237 0 53.0613 11.76 624 63.4487 1185.11 517.973
1238 0 56.0662 9.61364 539 64.7848 1184.42 518.46
1239 0 55.0598 11.2786 621 64.1111 1184.36 513.734
1240 0 58.0622 11.6771 678 63.1593 1184.31 513.406
1241 0 60.0621 11.8377 711 62.9747 1184.29 513.622
1242 0 63.1033 10.0946 637 64.7127 1184.73 511.783
1243 0 65.0593 12.235 796 62.7023 1185.39 510.423
1244 0 69.0972 11.8963 822 62.5864 1184.74 509.996
1245 0 69.0943 10.9271 755 63.9245 1184.96 511.478
1246 0 73.0673 11.4141 834 64.2086 1184.75 508.851
1247 0 73.0547 12.5249 915 63.1541 1185.24 506.607
1248 0 77.056 12.0172 926 63.2279 1184.98 506.994
1249 0 79.1348 12.1186 959 63.8644 1184.8 502.697
1250 0 81.0657 11.3488 920 65.3011 1185.04 504.646
1251 1 43.043 8.80514 379 66.4301 1185.18 523.536
1252 0 46.0533 10.3576 477 64.8239 1185.05 521.65
1253 0 47.0636 10.4539 492 64.0752 1184.86 522.581
1254 0 46.0191 8.77897 404 67.948 1184.38 522.537
1255 0 50.1024 9.38078 470 67.334 1184.27 522.072
1256 0 50.0652 10.5662 529 66.2665 1184.71 520.04
1257 0 53.0249 11.9944 636 64.5613 1184.33 516.898
1258 0 53.0576 10.9315 580 65.8914 1184.51 517.845
1259 0 56.0669 12.1997 684 64.2251 1184.36 518.278
1260 0 59.0512 11.3969 673 64.9643 1184.66 515.871
1261 0 60.0869 11.966 719 64.3032 1184.91 513.954
1262 0 63.0522 13.8298 872 61.7271 1184.78 512.687
1263 0 63.0352 12.1361 765 64.9137 1184.76 512.633
1264 0 65.0855 12.4605 811 64.1924 1184.09 511.777
1265 0 67.1052 12.3686 830 64.4699 1184.74 512.137
1266 0 71.1254 12.246 871 64.1538 1184.6 512.083
1267 0 70.106 10.9834 770 66.7714 1184.73 509.3
1268 0 75.2247 13.6125 1024 62.3389 1184.81 510.419
1269 0 75.2147 11.4605 862 65.7042 1184.3 509.792
1270 0 79.1052 12.4897 988 64.0121 1183.65 508.182
1271 0 80.1685 14.3573 1151 61.7646 1183.43 504.334
1272 1 40.0466 9.93841 398 65.0452 1184.12 523.995
1273 0 41.0842 9.29798 382 64.8351 1184.67 525.432
1274 0 44.046 11.1474 491 62.5438 1184.12 524.91
1275 0 45.1258 13.2075 596 60.3238 1184.88 525.384
1276 0 43.1142 9.55601 412 67.034 1184.89 521.835
1277 0 47.0674 10.4318 491 64.9674 1185.37 521.499
1278 0 47.0113 10.1252 476 66.3655 1184.57 521.487
1279 0 50.1028 11.4365 573 63.6702 1184.76 521.923
1280 0 52.0844 11.7502 612 65.0882 1185.51 520.023
1281 0 51.0234 11.1909 571 66.0175 1184.97 519.891
1282 0 55.0827 12.0364 663 64.5173 1184.48 518.294
1283 0 56.0127 12.3186 690 64.242 1185.19 517.974
1284 0 59.0362 12.7041 750 63.132 1185.52 517.573
1285 0 60.0422 11.775 707 64.5884 1184.67 517.096
1286 0 59.0626 11.7164 692 65.7283 1184.4 515.906
1287 0 63.0854 11.9679 755 65.2212 1185.39 513.401
1288 0 64.0369 11.8682 760 65.5724 1185.37 512.509
1289 0 66.0407 12.6286 834 64.6235 1184.98 510.386
1290 0 69.1029 13.4582 930 62.9763 1184.71 511.511
1291 0 72.0914 13.3719 964 63.1898 1184.79 508.782
1292 0 72.0882 11.7079 844 65.6659 1184.59 507.476
1293 0 75.2521 12.7837 962 64.2173 1184.33 505.846
1294 0 78.0839 12.7427 995 63.5055 1184.77 507.155
1295 1 41.0262 9.06738 372 66.1559 1183.49 524.968
1296 0 42.0524 9.51194 400 65.355 1184.5 524.578
1297 0 41.0448 9.76982 401 65.1147 1184.88 525.07
1298 0 44.0312 9.56139 421 65.6271 1185.11 522.869
1299 0 46.0403 11.7288 540 63.3352 1185.16 521.274
1300 0 47.152 10.7737 508 64.4272 1185.45 522.161
1301 0 46.1073 11.6251 536 64.4664 1184.88 518.942
1302 0 49.1611 12.1234 596 63.4513 1184.96 519.329
1303 0 50.0695 9.60665 481 66.0582 1184.91 520.709
1304 0 52.0761 11.0991 578 63.0917 1184.93 520.479
1305 0 53.1363 12.0257 639 62.3584 1185.57 518.346
1306 0 55.0443 11.8995 655 63.0351 1185.04 516.046
1307 0 56.0888 11.357 637 63.1947 1185.01 517.593
1308 0 58.0288 11.4081 662 63.1375 1185.15 515.897
1309 0 61.0624 11.8403 723 61.61 1185.31 517.228
1310 0 62.048 10.8787 675 62.8207 1185.36 515.31
1311 0 63.0331 11.0418 696 62.7069 1185.45 513.046
1312 0 64.0214 11.8085 756 62.0423 1185.96 512.177
1313 0 67.2328 11.3784 765 62.0484 1185.92 514.988
1314 0 68.0967 11.4543 780 62.6282 1184.7 510.608
1315 0 71.0555 12.9899 923 60.2654 1185.28 509.195
1316 0 74.0467 11.7899 873 61.866 1184.5 509.241
1317 0 78.0651 12.797 999 59.8749 1184.77 509.943
1318 1 38.019 9.99501 380 63.1842 1185.13 526.195
1319 0 40.0134 10.8464 434 61.3986 1185.48 527.29
1320 0 42.0193 10.9712 461 61.4881 1184.73 525.659
1321 0 41.0866 11.1228 457 61.7659 1185.17 526.002
1322 0 45.0486 12.2312 551 60.2595 1184.29 524.341
1323 0 43.0453 10.5703 455 63.233 1184.84 522.037
1324 0 47.0391 10.5657 497 63.0362 1184.87 520.855
1325 0 48.0475 11.114 534 62.5019 1184.86 520.24
1326 0 46.1503 10.0324 463 65.0151 1184.78 521.119
1327 0 51.2975 12.9831 666 60.3739 1185.58 519.197
1328 0 54.0399 11.8986 643 61.2255 1185.16 519.849
1329 0 54.0883 12.6645 685 60.8744 1185.82 517.664
1330 0 55.0343 12.3741 681 62.0132 1185.01 518.692
1331 0 55.1975 10.7251 592 64.1791 1184.31 516.593
1332 0 58.0225 10.2374 594 64.5589 1185.11 514.51
1333 0 62.1044 13.1231 815 60.5436 1185.29 517.064
1334 0 63.0468 12.3559 779 62.656 1184.99 515.154
1335 0 63.0763 10.2891 649 65.4438 1184.21 515.08
1336 0 64.0446 11.1329 713 64.9243 1184.85 510.537
1337 0 66.0484 10.0987 667 65.6762 1184.62 513.069
1338 0 70.1077 12.6092 884 62.1504 1184.11 511.329
1339 0 71.1757 11.6613 830 63.9386 1184.26 508.953
1340 0 74.1401 12.0043 890 63.2449 1184.87 508.667
1341 0 76.1123 13.4801 1026 61.6413 1184.26 505.656
1342 0 72.052 9.00739 649 67.4576 1184.46 501.086
1343 0 83.2532 13.525 1126 60.722 1184.61 507.557
1344 0 82.1432 12.5026 1027 62.5229 1184.74 506.736
1345 1 45.0951 10.112 456 63.8333 1183.78 525.191
1346 0 47.0586 9.71131 457 64.0153 1183.9 523.877
1347 0 47.0053 12.2114 574 61.8972 1184.35 523.62
1348 0 50.0262 11.7338 587 61.8739 1184.93 523.15
1349 0 51.0681 12.5715 642 62.0312 1184.36 522.461
1350 0 51.0322 13.7364 701 61.3752 1184.24 519.672
1351 0 54.0753 12.3716 669 62.9417 1183.74 519.076
1352 0 56.0375 12.5452 703 62.0996 1184.86 518.758
1353 0 57.0572 12.6364 721 62.2774 1183.72 516.983
1354 0 60.0663 12.8691 773 61.7995 1184.41 517.154
1355 0 58.0435 12.0255 698 64.0487 1184.38 514.633
1356 0 63.0975 11.6169 733 64.1487 1183.75 515.026
1357 0 65.1628 12.3844 807 62.2912 1183.85 517.11
1358 0 67.1025 11.9966 805 62.9242 1184.58 515.366
1359 0 69.1112 13.4132 927 61.3474 1184.55 514.244
1360 0 69.0765 12.5803 869 63.2267 1184.91 513.015
1361 0 73.0698 11.8927 869 63.8159 1184.54 512.922
1362 0 75.1304 13.4965 1014 62.3422 1183.6 509.055
1363 0 76.2832 13.8956 1060 61.9302 1183.58 509.617
1364 0 81.0314 14.9942 1215 60.4 1184.06 507.677
1365 0 83.1094 12.7543 1060 63.7311 1183.78 506.054
1366 0 87.1476 12.8747 1122 63.7086 1183.77 505.515
1367 0 87.102 13.8688 1208 63.0132 1184.29 502.646
1368 1 44.0391 9.40074 414 66.529 1183.8 523.826
1369 0 46.022 10.2342 471 65.8599 1183.7 524.522
1370 0 48.0776 10.6495 512 66.7109 1183.95 522.361
1371 0 49.0218 11.6683 572 66.1329 1183.69 521.017
1372 0 53.0776 12.2462 650 65.2077 1184.16 520.488
1373 0 51.0649 11.8477 605 66.4744 1183.59 520.19
1374 0 51.0174 10.7414 548 68.2518 1183.01 519.365
1375 0 57.0172 12.8558 733 64.4202 1183.63 518.299
1376 0 59.0534 12.4972 738 65.1707 1183.51 517.972
1377 0 61.0289 12.8955 787 64.1372 1183.76 518.141
1378 0 61.0448 13.8259 844 64.1161 1184.18 514.733
1379 0 63.075 11.7638 742 66.6995 1184.09 515.559
1380 0 62.0903 11.3544 705 68.1546 1184 514.115
1381 0 68.0742 12.8683 876 65.4966 1184.46 514.106
1382 0 68.0952 14.5091 988 63.4757 1184.18 512.547
1383 0 70.0955 13.7527 964 64.3496 1184.13 511.469
1384 0 73.0202 13.9003 1015 64.4335 1184.14 511.388
1385 0 75.126 12.6321 949 67.1739 1184.45 509.193
1386 0 77.0623 11.5621 891 68.8159 1184.35 509.154
1387 0 80.0642 13.9513 1117 65.6195 1184.01 506.925
1388 1 42.0602 10.271 432 67.8611 1184.8 527.495
1389 0 43.038 10.3165 444 69.4775 1184.78 526.892
1390 0 43.0314 11.387 490 69.3184 1184.75 525.457
1391 0 45.0395 12.4557 561 67.8021 1183.45 522.496
1392 0 46.0447 11.2717 519 69.7553 1183.32 522.844
1393 0 45.0317 10.748 484 71.7665 1184.05 522.508
1394 0 49.0364 11.3589 557 70.2765 1184.08 523.989
1395 0 49.0331 12.3794 607 69.8418 1183.95 523.096
1396 0 53.0227 13.1642 698 67.3338 1183.35 522.695
1397 0 53.0446 11.9333 633 69.9889 1184.38 521.498
1398 0 54.0596 12.5972 681 69.4376 1183.79 519.689
1399 0 55.072 12.1659 670 70.3507 1183.96 521.384
1400 0 57.1454 11.742 671 70.5082 1184.03 519.337
1401 0 60.0335 11.5269 692 70.5766 1184.17 518.37
1402 0 61.0397 11.7301 716 70.331 1184.24 519.183
1403 0 64.0881 12.436 797 68.4028 1183.89 519.698
1404 0 66.0421 12.1286 801 69.799 1184.13 515.944
1405 0 67.0913 12.5053 839 68.9511 1184.07 516.396
1406 0 69.0311 12.067 833 70.0708 1183.96 512.72
1407 0 72.1113 12.9938 937 68.6041 1183.54 510.763
1408 0 74.0494 11.6409 862 70.4037 1183.71 510.978
1409 0 77.1147 12.5787 970 68.9175 1184.43 509
1410 0 80.1339 12.242 981 69.208 1184.47 510.532
1411 0 81.1048 11.0351 895 70.3207 1184.85 511.305
1412 0 82.1456 12.2465 1006 69.8062 1183.82 506.001
1413 0 87.1182 11.846 1032 70.8517 1184.21 506.005
1414 0 88.171 11.6251 1025 71.9727 1184.01 502.861
1415 0 92.1035 14.0928 1298 67.2774 1184.06 501.975
1416 0 93.0933 12.0202 1119 70.782 1185.11 500.983
1417 0 97.119 13.1076 1273 68.6575 1184.3 500.399
1418 0 99.2307 12.2442 1215 70.0617 1183.79 497.746
1419 0 104.111 11.7663 1225 69.831 1184.03 494.707
1420 0 106.368 12.8516 1367 68.7747 1184.17 493.222
1421 0 107.09 11.2149 1201 71.229 1184.87 492.98
1422 0 112.11 11.3014 1267 71.1452 1185.09 489.781
1423 0 116.116 13.0473 1515 67.7749 1184.18 490.209
1424 1 44.0219 11.9032 524 65.4046 1185.52 525.26
1425 0 48.062 11.0482 531 64.9529 1185.44 525.428
1426 0 47.0415 11.5643 544 67.0809 1184.99 524.412
1427 0 49.0701 10.5359 517 67.2456 1184.73 525.317
1428 0 48.1367 10.3871 500 69.176 1185.31 521.174
1429 0 52.1552 10.8714 567 67.3369 1185.1 523.039
1430 0 52.1538 10.7567 561 67.7433 1185.34 521.588
1431 0 55.056 10.6619 587 67.402 1185.26 521.053
1432 0 59.1316 12.3453 730 65.0055 1185.48 519.388
1433 0 59.05 11.2616 665 67.218 1185.29 518.614
1434 0 61.0308 12.4855 762 64.9961 1185.75 516.222
1435 0 62.0602 11.8917 738 63.4688 1185.31 519.146
1436 0 62.1364 10.5735 657 66.3151 1184.93 515.932
1437 0 66.0871 11.848 783 64.1648 1184.19 515.498
1438 0 68.0588 12.2982 837 64.0753 1185.16 514.622
1439 0 71.1398 11.9202 848 64.1875 1184.76 513.258
1440 0 74.0709 12.3665 916 64.2216 1184.69 509.535
1441 0 79.1215 12.3355 976 63.0799 1184.54 512.527
1442 0 78.0959 11.9212 931 64.6273 1184.01 510.36
1443 0 80.1582 12.4504 998 64.2365 1184.34 508.318
1444 1 43.038 9.47999 408 65.902 1184.94 527.304
1445 0 45.0491 11.6761 526 63.5684 1184.68 525.616
1446 0 44.0614 10.8485 478 65.6904 1184.38 525.985
1447 0 44.0743 10.1647 448 67.6138 1185.09 526.391
1448 0 48.0521 11.9662 575 64.4522 1184.92 524.13
1449 0 48.0314 11.7839 566 64.8922 1184.34 525.654
1450 0 50.0847 12.8982 646 64.2043 1185.32 522.121
1451 0 51.0379 11.9127 608 64.1201 1184.42 522.11
1452 0 53.0512 11.4795 609 64.7635 1184.78 521.123
1453 0 54.1081 11.4585 620 64.9339 1184.18 520.702
1454 0 58.1249 13.1269 763 61.6737 1184.29 520.18
1455 0 57.1417 10.6577 609 65.3465 1184.77 521.718
1456 0 59.1014 11.3365 670 64.5 1184.81 518.885
1457 0 62.1489 11.6012 721 63.3759 1184.39 519.908
1458 0 60.1191 10.895 655 66.1237 1184.52 516.896
1459 0 65.1501 12.2793 800 64.3875 1184.55 513.892
1460 0 67.1048 11.9664 803 64.1706 1184.93 515.102
1461 0 68.227 11.6376 794 65.2544 1184.85 514.922
1462 0 70.2176 13.6291 957 63.4378 1185.2 513.169
1463 0 70.2621 12.4249 873 65.9485 1185.26 511.401
1464 0 76.1088 14.4661 1101 61.891 1184.63 512.478
1465 0 77.0763 13.6229 1050 63.8829 1185.08 510.518
1466 0 77.241 12.1179 936 65.9615 1184.27 509.325
1467 0 80.1947 14.3027 1147 62.8779 1183.96 509.963
1468 0 83.2059 12.9077 1074 65.5009 1184.25 505.007
1469 1 45.0559 10.9198 492 66.687 1184.46 526.955
1470 0 46.0962 12.2787 566 65.9947 1184.52 524.878
1471 0 48.1896 11.8698 572 66.3566 1184.21 524.685
1472 0 49.1465 11.3131 556 67.0558 1184.58 525.516
1473 0 50.0624 12.6442 633 66.0142 1183.84 524.005
1474 0 52.2459 12.7665 667 66.093 1183.78 523.15
1475 0 52.0345 11.6461 606 68.4422 1184.48 522.698
1476 0 55.0506 12.0435 663 67.9804 1184.52 519.633
1477 0 55.0549 12.2968 677 68.0709 1184.39 519.256
1478 0 57.0966 13.1181 749 66.5047 1183.97 518.995
1479 0 60.0676 14.4171 866 64.545 1184.03 517.708
1480 0 61.0786 13.9656 853 65.6905 1184.82 517.897
1481 0 63.0277 12.8674 811 66.8644 1183.76 516.398
1482 0 65.0697 12.7555 830 67.147 1184.64 516.051
1483 0 66.077 13.8777 917 65.2934 1184.68 515.41
1484 0 69.1239 14.8718 1028 63.9757 1184.36 513.447
1485 0 69.1986 13.4974 934 66.5696 1184.2 512.86
1486 0 68.0725 12.7952 871 68.8071 1184.35 511.054
1487 0 73.0471 14.0594 1027 65.8053 1184.22 513.012
1488 0 75.0854 13.9308 1046 65.7457 1184.1 513.268
1489 0 77.1698 11.7922 910 68.7945 1184.6 510.814
1490 0 80.0634 13.227 1059 66.5656 1184.63 510.716
1491 0 81.2245 13.5673 1102 66.1706 1184.51 509.75
1492 0 83.1018 14.4401 1200 65.0292 1183.96 507.82
1493 0 87.0986 13.2264 1152 66.3116 1183.7 506.339
1494 1 46.0661 11.2881 520 68.8712 1183.65 525.615
1495 0 48.0995 11.8712 571 67.7408 1184.14 526.497
1496 0 50.0661 13.1027 656 66.4756 1183.76 524.735
1497 0 52.0908 13.5149 704 65.2472 1184.17 525.642
1498 0 53.0751 13.5091 717 66.0879 1184.02 524.324
1499 0 55.1041 12.3584 681 68.2085 1184.06 521.492
1500 0 55.0465 13.207 727 66.641 1183.86 522.653
1501 0 58.0298 12.9416 751 66.9108 1183.46 520.846
1502 0 60.059 12.9539 778 66.6067 1184.17 520.246
1503 0 60.0622 13.8024 829 66.3896 1183.6 518.221
1504 0 61.0195 12.4223 758 67.839 1183.5 519.071
1505 0 64.0383 12.149 778 67.9177 1184.02 517.487
1506 0 67.0637 13.256 889 66.4837 1184.16 516.354
1507 0 69.085 14.5039 1002 64.6038 1184.37 516.162
1508 0 70.0546 12.8899 903 67.2038 1184.41 515.162
1509 0 73.0476 13.7308 1003 66.7149 1184.31 511.26
1510 0 75.0689 13.8406 1039 66.9374 1183.28 510.988
1511 0 77.1605 13.2062 1019 67.578 1184.51 511.126
1512 0 80.157 14.5964 1170 65.3359 1184.2 510.037
1513 0 81.1105 12.5138 1015 68.3665 1184.1 508.467
1514 0 86.1802 13.6458 1176 66.6139 1184.08 507.833
1515 0 86.1284 13.6773 1178 67.3098 1183.91 505.68
1516 1 45.0364 12.4788 562 68.6085 1184.06 525.379
1517 0 47.0323 13.4588 633 67.5782 1184.4 523.573
1518 0 48.1054 11.1422 536 70.6418 1184.26 523.009
1519 0 50.0946 12.5563 629 68.7234 1183.72 522.868
1520 0 49.1552 11.1891 550 71.2727 1183.5 523.196
1521 0 54.0763 14.0357 759 66.9262 1183.5 521.904
1522 0 54.0618 13.1146 709 69.0197 1184.9 519.614
1523 0 57.1015 13.5723 775 67.169 1184.42 520.044
1524 0 57.1298 13.3205 761 68.2024 1183.83 518.167
1525 0 62.0496 13.183 818 66.8142 1184.71 519.38
1526 0 62.0886 14.3182 889 65.5984 1184.3 518.642
1527 0 63.0708 13.4135 846 66.8889 1184.24 517.038
1528 0 65.0353 13.485 877 66.4743 1184.25 517.433
1529 0 69.069 13.986 966 65.0942 1183.98 516.411
1530 0 70.1634 13.4686 945 66.5259 1184.33 515.841
1531 0 71.1372 12.5391 892 67.8184 1184.2 515.299
1532 0 74.0311 12.2786 909 68.5006 1184.26 512.314
1533 0 77.1096 15.0176 1158 64.3921 1184.81 512.472
1534 0 79.1451 14.6819 1162 65.062 1184.43 510.787
1535 0 80.0867 13.2731 1063 66.6849 1184.22 511.699
1536 0 85.2021 14.7062 1253 65.095 1184.59 509.168
1537 0 86.102 13.8673 1194 66.2169 1185.03 508.704
1538 0 88.0849 13.7822 1214 66.7389 1184.7 507.488
1539 1 48.0767 13.5825 653 65.4655 1184.13 528.277
1540 0 50.1481 12.6625 635 67.5039 1184 524.75
1541 0 51.106 14.1666 724 66.1657 1183.7 522.867
1542 0 51.0519 13.3981 684 67.6404 1183.86 523.155
1543 0 53.1214 13.0644 694 67.3357 1184.28 524.104
1544 0 56.0528 14.5042 813 66.0861 1184.55 521.446
1545 0 57.1834 14.2699 816 65.962 1184.56 521.026
1546 0 58.1203 11.9235 693 69.1082 1184 521.134
1547 0 59.0392 12.4155 733 69.1255 1184.19 519.329
1548 0 62.1066 13.3319 828 67.2089 1183.84 518.134
1549 0 63.1181 14.354 906 66.83 1183.87 515.891
1550 0 66.1482 12.1092 801 69.2235 1184.34 516.08
1551 0 69.1417 12.3225 852 68.9976 1184.25 515.892
1552 0 72.0912 14.4955 1045 66.289 1184.69 512.325
1553 0 74.0429 14.6132 1082 66.3383 1184.72 511.275
1554 0 75.2054 12.8049 963 69.0488 1183.81 512.234
1555 0 77.1509 13.2208 1020 68.7588 1183.57 510.713
1556 0 80.1679 14.1204 1132 67.8392 1183.52 509.321
1557 0 83.1834 13.873 1154 67.6707 1183.55 509.505
1558 0 85.091 12.5513 1068 70.2912 1184.1 507.5
1559 1 46.1198 12.5109 577 68.9411 1183.97 528.614
1560 0 46.0669 12.6338 582 70.4124 1183.55 526.347
1561 0 49.0631 12.6572 621 70.3832 1184.31 526.723
1562 0 47.0849 11.8084 556 73.018 1183.37 524.164
1563 0 52.0593 14.4259 751 67.996 1183.55 524.989
1564 0 51.0932 13.8375 707 69.198 1183.54 525.105
1565 0 55.0364 12.6643 697 69.812 1183.98 524.69
1566 0 56.0624 13.9131 780 68.2987 1183.29 523.886
1567 0 58.0276 15.2169 883 66.6614 1183.65 519.874
1568 0 59.1481 13.4747 797 69.0816 1183.65 519.616
1569 0 61.0988 14.3538 877 67.2098 1183.46 520.112
1570 0 64.1154 13.6005 872 67.9771 1183.91 514.67
1571 0 65.0938 12.674 825 68.3564 1184.04 518.35
1572 0 69.1255 14.0469 971 65.9444 1184.4 517.034
1573 0 70.0527 13.9324 976 66.6465 1183.78 513.996
1574 0 70.0545 12.1762 853 67.959 1183.5 514.668
1575 0 77.1615 14.4373 1114 65.1095 1183.67 510.201
1576 0 77.1418 13.2483 1022 66.4403 1183.72 510.209
1577 0 79.0615 13.1037 1036 67.5811 1183.71 510.162
1578 0 83.0954 13.3461 1109 67.1587 1183.84 508.939
1579 0 84.1576 13.1539 1107 67.6892 1183.84 507.446
1580 1 44.1108 13.1487 580 67.4414 1183.82 527.583
1581 0 45.1022 13.3475 602 67.1678 1183.81 529.038
1582 0 46.1626 13.4308 620 68.2081 1183.46 524.424
1583 0 48.1759 13.6375 657 67.5753 1184.09 525.253
1584 0 50.1036 13.7715 690 67.329 1183.74 525.12
1585 0 48.0587 11.3195 544 71.3621 1184.03 524.178
1586 0 53.05 13.5721 720 67.1194 1184.07 524.411
1587 0 55.1076 13.9908 771 66.6083 1183.75 522.796
1588 0 57.1192 13.288 759 67.4374 1183.55 520.482
1589 0 59.0842 14.4878 856 65.8213 1183.54 519.078
1590 0 62.0645 14.1788 880 66.3239 1183.98 518.324
1591 0 63.1507 14.4575 913 66.1742 1183.85 517.073
1592 0 64.0609 13.3935 858 67.9615 1184.15 515.258
1593 0 67.1178 12.3216 827 68.4692 1183.72 517.278
1594 0 68.185 12.8621 877 68.4766 1184.04 514.587
1595 0 73.0804 14.1898 1037 66.244 1183.37 515.159
1596 0 75.1442 13.1614 989 67.7452 1183.1 514.507
1597 0 78.1738 13.5467 1059 67.389 1182.59 512.359
1598 0 80.1254 13.9157 1115 67.226 1182.65 511.816
1599 0 82.197 13.711 1127 67.5759 1183.18 511.389
1600 0 84.1627 15.2324 1282 66.4891 1184.04 509.876
1601 1 45.1456 11.6512 526 69.2224 1184.37 529.882
1602 0 47.0332 13.5011 635 67.789 1183.51 528.131
1603 0 47.0964 13.4405 633 69.1548 1183.34 525.817
1604 0 50.2038 14.2021 713 67.6872 1183.5 527.888
1605 0 52.0321 14.1067 734 68.6594 1183.8 527.142
1606 0 53.137 13.7945 733 69.5225 1182.88 525.608
1607 0 53.0617 13.098 695 71.1914 1184.1 525.38
1608 0 56.0541 13.8259 775 70.4323 1183.15 523.476
1609 0 58.0642 15.3279 890 68.7697 1183.92 521.927
1610 0 61.1656 13.9457 853 69.871 1184.17 520.931
1611 0 62.1119 13.9587 867 70.0692 1184.17 522.707
1612 0 63.1681 13.2979 840 71.6845 1183.89 519.717
1613 0 66.0692 13.4404 888 71.5552 1183.64 518.239
1614 0 68.1458 13.9554 951 71.1483 1184.66 516.306
1615 0 73.147 15.2023 1112 68.1097 1183.72 516.748
1616 0 74.0792 15.281 1132 68.1405 1184.24 517.951
1617 0 75.106 13.4077 1007 72.1917 1184.43 511.935
1618 0 81.0903 15.1313 1227 68.0896 1183.98 513.356
1619 0 80.1251 14.1279 1132 71.4514 1184.3 508.776
1620 0 84.1801 13.9463 1174 70.6593 1183.92 511.729
1621 1 43.0407 12.616 543 71.8784 1183.47 531.026
1622 0 45.0588 12.5836 567 72.7478 1183.99 528.917
1623 0 45.0253 13.1037 590 73.0288 1183.55 527.844
1624 0 47.1131 14.5395 685 70.1956 1183.79 528.663
1625 0 48.0697 13.5428 651 72.0399 1184.22 527.978
1626 0 49.1453 14.569 716 70.7179 1184.25 526.828
1627 0 51.1199 13.6737 699 71.3205 1183.75 527.193
1628 0 54.0877 14.8278 802 70.3192 1183.69 523.949
1629 0 56.0563 13.0405 731 72.487 1183.39 523.859
1630 0 55.0197 14.3948 792 71.7475 1183.55 523.581
1631 0 57.0756 12.4572 711 74.5921 1183.09 521.917
1632 0 59.0736 13.7794 814 72.5037 1183.56 520.978
1633 0 62.0986 13.6235 846 72.3723 1184.34 521.359
1634 0 65.1164 13.3146 867 72.1188 1184.57 520.37
1635 0 66.0588 13.8816 917 72.0305 1184.64 518.73
1636 0 69.1474 14.9102 1031 70.5858 1183.96 515.918
1637 0 72.0718 14.7908 1066 71.3677 1184.32 513.622
1638 0 75.0891 13.3575 1003 72.9482 1184.63 515.551
1639 0 76.1701 14.2707 1087 72.3882 1184.58 513.882
1640 0 80.1812 14.4797 1161 71.8165 1184.1 513.432
1641 0 81.0611 13.9154 1128 72.7367 1184.47 513.196
1642 0 83.1579 14.274 1187 73.0724 1184.95 511.318
1643 0 86.1142 14.3995 1240 73.4202 1183.42 507.813
1644 1 44.0304 12.446 548 75.469 1183.75 530.256
1645 0 46.0863 13.4313 619 73.8288 1183.54 530.066
1646 0 46.1173 13.5741 626 74.754 1183.49 529.337
1647 0 50.0255 14.4526 723 73.094 1183.45 528.158
1648 0 49.0682 13.9602 685 75.3007 1183.43 527.921
1649 0 52.0737 14.3643 748 73.3757 1183.79 529.019
1650 0 52.0788 13.1531 685 76.3066 1183.99 528.036
1651 0 54.0463 15.5978 843 73.1198 1183.37 526.222
1652 0 55.1324 13.6762 754 76.252 1183.24 523.777
1653 0 57.0327 15.3771 877 74.1311 1182.92 523.236
1654 0 59.0324 15.4491 912 73.8958 1183.12 523.005
1655 0 59.0292 13.7559 812 76.8855 1183 521.92
1656 0 62.0396 14.5875 905 75.4575 1183.45 520.362
1657 0 65.0848 15.9792 1040 73.2337 1183.33 518.712
1658 0 66.09 15.5999 1031 74.0931 1183.66 519.668
1659 0 66.1536 14.1187 934 77.3737 1183.71 517.954
1660 0 71.0716 15.4492 1098 73.8069 1183.42 517.462
1661 0 72.1281 13.5592 978 76.6135 1183.32 518.316
1662 0 73.162 14.6388 1071 75.916 1183.6 516.159
1663 0 75.094 14.2488 1070 77.1654 1184.38 513.139
1664 0 78.0819 14.4336 1127 75.8474 1183.16 515.095
1665 0 81.0985 14.0693 1141 77.2095 1183.01 512.125
1666 0 82.1208 13.6628 1122 78.0793 1183.56 511.267
1667 0 88.0576 14.8085 1304 74.8152 1183.41 510.887
1668 0 89.1025 15.3082 1364 74.074 1183.53 508.577
1669 0 91.0751 14.4606 1317 75.7198 1183.48 507.191
1670 0 94.0717 14.3401 1349 76.2128 1183.39 503.865
1671 0 99.0842 14.9469 1481 73.576 1183.76 506.301
1672 1 46.0435 13.6827 630 77.6048 1183.68 525.749
1673 0 53.0501 15.2874 811 73.5277 1183.9 525.054
1674 0 52.0375 13.8362 720 77.1111 1183.67 524.675
1675 0 53.0736 14.0936 748 75.5575 1183.72 525.392
1676 0 55.0687 12.4027 683 78.1274 1183.71 524.744
1677 0 57.0421 13.6215 777 77.121 1183.59 521.69
1678 0 60.1069 16.0547 965 72.487 1183.77 520.536
1679 0 62.1017 15.1848 943 73.9735 1183.27 520.31
1680 0 64.1092 15.4892 993 73.1229 1183.4 519.004
1681 0 65.0844 14.7654 961 74.6618 1183.54 516.559
1682 0 69.1343 15.6073 1079 72.7989 1183.29 517.243
1683 0 70.0976 16.3201 1144 72.6031 1183.74 513.028
1684 0 72.2124 15.6067 1127 73.4862 1183.22 513.838
1685 0 74.1061 15.5318 1151 73.3701 1183.22 513.814
1686 0 79.1781 15.5093 1228 72.9691 1183.89 512.905
1687 0 79.1517 15.0344 1190 74.8605 1183.43 511.796
1688 0 83.099 17.0279 1415 70.9519 1183.19 509.671
1689 0 82.1044 14.2502 1170 76.4761 1182.67 508.774
1690 0 88.1043 16.5713 1460 71.8918 1183.22 506.871
1691 0 91.2285 16.7163 1525 71.8525 1183.92 505.14
1692 0 93.5461 15.2224 1424 74.1636 1183.88 503.938
1693 0 95.1741 14.3106 1362 75.4119 1183.95 503.562
1694 0 100.291 15.7042 1575 72.3352 1183.75 502.647
1695 0 104.115 16.6163 1730 70.4653 1183.08 500.029
1696 1 52.1168 13.0668 681 75.63 1183.22 524.699
1697 0 55.1212 12.917 712 76.4663 1183.24 522.527
1698 0 55.0672 13.656 752 75.3936 1183.85 521.101
1699 0 58.0808 13.1197 762 75.3084 1183.59 520.34
1700 0 61.0798 13.8998 849 73.8269 1183.15 520.148
1701 0 62.1475 14.4012 895 73.5084 1184.21 518.849
1702 0 65.0972 14.1634 922 73.513 1183.31 517.387
1703 0 67.142 15.1768 1019 72.9686 1183.15 514.63
1704 0 70.1157 13.8771 973 73.7873 1183.67 515.151
1705 0 70.0912 13.6679 958 75.501 1182.75 514.389
1706 0 74.0615 14.7445 1092 73.8828 1183.79 511.41
1707 0 77.193 14.522 1121 74.248 1183.32 509.16
1708 0 78.0637 13.6683 1067 76.0759 1183.65 507.669
1709 0 81.0584 15.1742 1230 73.6008 1183.02 507.168
1710 0 83.151 15.4538 1285 72.9852 1182.28 505.381
1711 0 86.2201 14.8921 1284 74.3092 1182.67 503.269
1712 0 88.0962 14.189 1250 75.3744 1181.95 503.142
1713 0 91.0974 14.3802 1310 75.4649 1182.65 502.882
1714 1 45.1398 11.3868 514 75.6051 1183.46 527.146
1715 0 47.0156 11.7408 552 76.3877 1183.53 524.105
1716 0 49.1187 13.9662 686 72.9184 1183.75 524.659
1717 0 49.1305 11.846 582 75.1718 1183.96 526.906
1718 0 52.0558 12.1216 631 75.6799 1183.55 524.514
1719 0 53.068 11.6831 620 76.8952 1183.89 522.563
1720 0 56.0835 13.2838 745 73.6 1184.09 521.965
1721 0 56.1227 12.5974 707 74.9123 1184.32 521.829
1722 0 59.1194 13.3797 791 73.8875 1184.21 520.401
1723 0 60.1332 14.0189 843 72.6346 1184.02 520.811
1724 0 62.085 13.7392 853 73.0328 1183.53 518.53
1725 0 63.1495 14.2361 899 72.7853 1184.02 519.222
1726 0 66.1295 12.7175 841 74.717 1184.13 517.308
1727 0 67.0537 13.5116 906 74.266 1184.2 515.276
1728 0 72.1314 13.725 990 72.4061 1183.39 514.826
1729 0 73.0928 12.4499 910 74.9 1184.19 514.176
1730 0 76.1338 12.9509 986 73.645 1184.06 513.144
1731 0 78.1786 13.5587 1060 73.3811 1183.64 509.318
1732 0 80.1455 12.39 993 75.285 1183.74 508.733
1733 0 83.2031 13.1005 1090 74.4624 1184.3 507.263
1734 0 85.1378 13.2374 1127 73.8039 1184.35 504.891
1735 0 87.0722 12.8399 1118 74.5116 1184.3 502.873
1736 0 92.0944 13.3776 1232 72.4083 1184.28 503.655
1737 1 47.1615 11.2592 531 72.0565 1184.42 525.52
1738 0 48.0701 10.3807 499 73.9579 1183.29 523.188
1739 0 50.0436 10.371 519 74.4971 1184.62 523.225
1740 0 52.1252 12.1822 635 73.2693 1184.91 520.354
1741 0 55.0794 12.5092 689 72.3933 1183.83 519.737
1742 0 56.1563 10.2571 576 74.6441 1183.79 521.149
1743 0 58.0733 13.1041 761 71.2812 1184.37 517.564
1744 0 62.0287 12.5909 781 71.4558 1183.94 516.65
1745 0 61.153 12.3951 758 72.7005 1183.96 516.297
1746 0 65.119 12.7152 828 71.3647 1184.73 516.065
1747 0 65.1004 12.642 823 72.1288 1183.96 514.668
1748 0 68.0901 12.5716 856 71.5713 1183.48 515.641
1749 0 70.1404 13.2306 928 71.0388 1184.04 513.741
1750 0 74.1201 12.1964 904 72.51 1184.38 510.878
1751 0 74.093 11.553 856 74.5841 1184.29 510.5
1752 0 77.178 12.3999 957 73.5225 1184.83 508.865
1753 0 77.1293 11.0464 852 76.2934 1184.35 508.153
1754 0 81.1559 12.248 994 73.8944 1184.09 507.628
1755 0 86.1672 13.4042 1155 71.3134 1184.57 506.436
1756 0 87.1308 11.5688 1008 75.0337 1184.09 503.608
1757 0 91.1429 13.2759 1210 71.9289 1184.39 503.765
1758 0 91.0509 11.6418 1060 75.166 1184.44 501.025
1759 0 95.0904 13.9341 1325 71.4151 1183.71 500.174
1760 1 49.079 10.7378 527 72.1252 1183.54 521.767
1761 0 51.0551 10.8118 552 71.8098 1183.16 522.714
1762 0 51.1033 11.1735 571 71.986 1183.68 521.823
1763 0 54.0741 12.4829 675 69.4652 1183.98 521.101
1764 0 56.0654 12.2 684 70.057 1183.91 521.023
1765 0 57.0995 12.8197 732 69.2391 1183.05 520.113
1766 0 59.0822 12.1864 720 70.3611 1183.72 518.532
1767 0 59.1325 9.8423 582 73.7784 1183.77 518.835
1768 0 64.0806 12.219 783 70.092 1183.35 516.138
1769 0 64.1537 12.6103 809 70.225 1183.66 515.863
1770 0 67.121 11.2185 753 71.9017 1183.42 515.89
1771 0 68.1704 12.3954 845 70.297 1183.01 513.981
1772 0 70.1625 12.2288 858 70.5967 1183.35 511.49
1773 0 72.0823 11.9863 864 70.6887 1183.75 511.286
1774 0 73.1013 11.5456 844 70.814 1182.96 513.371
1775 0 78.1071 11.9067 930 70.0452 1183.75 511.961
1776 0 78.2059 11.5848 906 71.4713 1183.51 508.589
1777 0 80.173 11.4502 918 71.5251 1184.05 507.971
1778 0 83.0632 11.9788 995 70.6915 1184.31 506.619
1779 0 87.0928 11.8724 1034 70.2118 1183.44 503.862
1780 0 89.128 12.3306 1099 69.323 1183.58 502.672
1781 0 92.0574 12.0142 1106 70.2459 1183.59 500.476
1782 0 94.1148 11.656 1097 70.3783 1183.97 499.925
1783 1 47.2079 9.85004 465 67.3656 1184.08 526.351
1784 0 48.0966 8.774 422 67.8934 1183.73 525.763
1785 0 48.2511 9.53345 460 67.8196 1183.16 523.52
1786 0 51.152 9.77479 500 67.046 1182.88 522.82
1787 0 51.2235 10.1516 520 66.8942 1183.22 522.381
1788 0 52.2449 10.1062 528 67.0682 1183.11 521.134
1789 0 55.1063 11.1421 614 65.2052 1183.36 520.168
1790 0 57.1445 11.1297 636 64.9591 1183.27 519.63
1791 0 58.2367 9.83916 573 66.6632 1183.69 521.223
1792 0 59.1821 10.7634 637 65.8509 1183.44 516.328
1793 0 61.2623 11.8997 729 63.8971 1183.27 517.652
1794 0 65.1935 10.906 711 64.2152 1183.41 518.392
1795 0 65.2771 11.612 758 64.2388 1182.85 513.914
1796 0 68.1737 11.2653 768 64.0898 1183.34 515.244
1797 0 69.0898 10.4791 724 65.116 1183.8 515.046
1798 0 71.2299 8.4515 602 66.8904 1183.51 513.5
1799 0 75.188 11.8503 891 63.0561 1183.28 510.962
1800 0 78.2626 11.3336 887 63.4205 1182.82 509.501
1801 0 80.2795 12.6184 1013 62.2656 1183.24 507.016
1802 1 40.1085 6.95613 279 65.5018 1183.54 529.376
1803 0 42.1269 8.92542 376 63.7766 1183.1 527.396
1804 0 42.1194 9.78172 412 63.5218 1183.41 523.881
1805 0 43.0782 11.189 482 61.1411 1182.84 525.703
1806 0 43.1477 9.57178 413 64.1525 1182.72 525.155
1807 0 47.1478 12.1957 575 60.4696 1182.95 522.892
1808 0 49.202 10.6296 523 62.2314 1183.3 523.245
1809 0 49.1305 11.3168 556 62.1529 1183.66 521.032
1810 0 51.0853 12.6847 648 60.7022 1183.56 520.363
1811 0 53.1117 12.1442 645 61.169 1183.3 518.901
1812 0 53.1197 10.8434 576 62.6319 1183.01 520.481
1813 0 54.1568 9.731 527 63.6698 1183.24 519.053
1814 0 55.1524 9.37403 517 64.6383 1183.61 518.911
1815 0 58.2334 11.1276 648 61.7716 1183.21 515.633
1816 0 61.1966 10.9156 668 61.5868 1183.03 517.704
1817 0 63.1633 12.3489 780 60.3885 1182.62 514.596
1818 0 63.1483 11.5759 731 61.0164 1183.39 515.402
1819 0 65.1818 11.3989 743 61.2476 1183.97 513.824
1820 0 68.1428 12.195 831 59.9591 1182.96 515.148
1821 0 71.0938 12.1952 867 59.9504 1182.9 513.399
1822 0 74.115 13.2632 983 58.9797 1182.8 511.492
1823 0 74.1088 11.3887 844 61.487 1182.66 510.953
1824 0 76.1203 10.9958 837 62.2019 1182.6 508.772
1825 0 77.0733 9.93859 766 64.1149 1182.78 509.396
1826 1 42.0555 10.4861 441 62.0658 1182.63 526.236
1827 0 42.0614 11.3168 476 61.2227 1182.7 526.445
1828 0 45.0412 11.989 540 60.3963 1182.82 525.072
1829 0 45.0726 10.3389 466 62.8069 1183.19 523.129
1830 0 46.0518 10.3796 478 64.5649 1182.99 522.651
1831 0 49.0157 10.9149 535 63.2112 1182.81 523.525
1832 0 50.0296 10.4338 522 64.6992 1183.34 521.743
1833 0 52.0615 11.8706 618 62.5938 1183.11 522.735
1834 0 53.0907 10.8305 575 63.567 1182.79 522.243
1835 0 54.0181 11.274 609 63.4138 1181.52 521.915
1836 0 56.0587 10.1501 569 64.2636 1182.69 522.808
1837 0 56.1111 11.2812 633 64.0237 1183.06 519.599
1838 0 60.0991 12.0634 725 62.3931 1182.51 518.585
1839 0 61.0682 12.1012 739 62.0677 1183.35 516.315
1840 0 63.0719 12.3985 782 60.6662 1183.11 519.665
1841 0 66.0979 11.483 759 62.2477 1182.81 516.332
1842 0 68.0652 11.3127 770 61.5247 1182.92 515.568
1843 0 70.2442 12.8409 902 60.3714 1182.53 511.912
1844 0 71.1331 12.1462 864 61.0463 1182.83 514.039
1845 0 77.1672 14.7731 1140 57.4307 1182.32 509.9
1846 0 77.1724 11.8047 911 61.1592 1182.64 510.388
1847 0 79.351 11.7201 930 61.8022 1183.29 510.463
1848 0 83.1996 11.7669 979 61.5659 1182.68 509.296
1849 0 86.2873 13.2349 1142 60.2382 1182.83 507.547
1850 0 85.1753 11.1065 946 64.3573 1182.51 503.885
1851 0 91.2446 12.1103 1105 62.4778 1182.4 500.586
1852 0 92.1554 11.6 1069 63.695 1182.78 499.169
1853 1 45.0473 10.6333 479 64.1169 1181.99 521.912
1854 0 47.0478 12.5404 590 60.7475 1182.37 523.064
1855 0 49.0685 11.5349 566 62.2279 1183.07 521.636
1856 0 51.0633 11.3389 579 62.4283 1182.34 519.648
1857 0 52.056 12.6018 656 61.6159 1182.12 519.178
1858 0 53.0436 10.9533 581 63.2754 1182.55 519.79
1859 0 56.1392 12.7896 718 60.3997 1182.84 519.62
1860 0 57.0356 12.4659 711 61.2363 1182.48 519.246
1861 0 59.0628 13.8666 819 59.3748 1182.84 520.515
1862 0 60.1026 11.863 713 61.6774 1182.69 520.47
1863 0 60.1022 10.7151 644 63.5186 1183.43 519.028
1864 0 63.1049 12.4713 787 61.7687 1183.72 516.647
1865 0 67.1242 12.7227 854 61.0234 1183.57 515.626
1866 0 66.033 11.9183 787 62.6442 1183.26 512.667
1867 0 70.1225 12.963 909 61.0913 1183.11 511.446
1868 0 72.1262 12.6445 912 61.454 1182.52 509.939
1869 0 73.2055 12.2532 897 62.6689 1182.57 508.948
1870 0 77.1418 12.7168 981 61.159 1182.91 511.916
1871 0 80.1788 12.734 1021 61.5034 1182.85 511.359
1872 1 43.1151 11.6896 504 62.7877 1183.3 525.929
1873 0 44.0574 10.9176 481 63.5988 1182.46 524.711
1874 0 46.0843 11.9129 549 61.9326 1182.9 523.792
1875 0 47.0324 10.9074 513 64.1209 1182.4 523.417
1876 0 49.1177 11.2587 553 63.9928 1182.4 522.233
1877 0 47.0275 10.2918 484 66.1467 1182.2 522.043
1878 0 52.0414 10.2611 534 66.1423 1182.17 522.013
1879 0 54.0355 13.195 713 62.4741 1181.76 520.979
1880 0 55.0424 12.6085 694 63.7781 1182.51 518.853
1881 0 55.1266 12.1538 670 64.9522 1182.71 518.039
1882 0 58.0391 12.8189 744 63.4785 1182.13 519.122
1883 0 59.0706 11.1731 660 66.2545 1181.94 518.027
1884 0 59.043 12.9228 763 64.73 1182.25 515.185
1885 0 63.0487 12.3397 778 64.8149 1182.34 515.618
1886 0 64.0928 12.3883 794 65.2796 1181.76 515.096
1887 0 65.0366 12.1931 793 66.1967 1182.8 513.211
1888 0 68.0331 12.5527 854 65.8173 1182.35 513.836
1889 0 70.0721 12.1018 848 66.6486 1182.47 510.617
1890 0 72.0438 13.4779 971 64.414 1181.8 512.685
1891 0 74.0609 12.6112 934 65.743 1182.2 510.173
1892 0 77.0489 14.3156 1103 63.5757 1183.06 507.886
1893 0 80.1036 13.7697 1103 64.4905 1183.21 507.085
1894 0 81.0384 12.8828 1044 67.3621 1183.03 504.805
1895 0 83.1122 11.7552 977 69.0246 1182.78 503.459
1896 1 45.05 10.4773 472 67.7648 1182.63 524.443
1897 0 45.0375 10.9464 493 67.3469 1183.07 523.856
1898 0 45.1269 11.3458 512 66.8555 1183.51 524.6
1899 0 49.193 12.5424 617 64.7974 1183.7 520.773
1900 0 48.053 9.65599 464 69.209 1183.05 521.252
1901 0 50.1571 11.4241 573 66.9197 1183.34 520.251
1902 0 53.0831 11.6986 621 66.1868 1183.7 519.815
1903 0 52.0223 11.5527 601 67.2346 1183.47 518.148
1904 0 55.0811 12.2728 676 65.6391 1183.5 519.12
1905 0 55.0653 12.4035 683 66.0483 1183.47 517.457
1906 0 56.0446 11.1161 623 67.2119 1183.3 518.289
1907 0 59.0531 11.7183 692 66.1893 1183.52 515.879
1908 0 60.102 12.6119 758 65.4974 1183.8 514.152
1909 0 63.1296 13.5119 853 63.381 1184.18 514.43
1910 0 65.0973 12.1357 790 65.019 1184.2 513.922
1911 0 67.1508 12.2709 824 65.0303 1183.61 512.127
1912 0 70.2242 13.3999 941 63.6993 1183.62 509.74
1913 0 73.1618 12.1102 886 64.9831 1183.4 511.129
1914 0 74.0934 12.9836 962 64.0707 1183.97 509.727
1915 0 75.1392 12.1242 911 65.1372 1183.4 509.996
1916 1 37.0666 9.44247 350 65.5086 1184 528.1
1917 0 40.0951 10.1758 408 64.777 1184.02 526.441
1918 0 41.0352 10.7712 442 64.0385 1183.78 526.946
1919 0 40.0639 11.3319 454 63.5264 1184.06 527.009
1920 0 44.1806 12.5168 553 61.5497 1184.32 525.812
1921 0 45.1623 12.599 569 61.4306 1184.01 525.522
1922 0 48.1901 12.762 615 60.6943 1184.13 524.491
1923 0 49.0396 12.235 600 61.3083 1183.84 524.688
1924 0 49.1378 12.2513 602 62.0399 1184.46 522.306
1925 0 50.2057 12.0305 604 61.7417 1183.72 524.795
1926 0 53.0377 12.7268 675 60.8267 1183.94 521.852
1927 0 55.1123 13.2275 729 59.882 1183.98 520.984
1928 0 55.1407 12.6041 695 61.1266 1184.72 521.866
1929 0 56.095 11.9262 669 62.2706 1183.93 518.815
1930 0 58.1399 12.5903 732 61.6899 1184.15 519.139
1931 0 60.0377 12.2923 738 62.0461 1184.18 517.881
1932 0 62.2003 13.4083 834 60.1739 1184.07 516.86
1933 0 65.0517 12.8974 839 60.7926 1183.82 516.952
1934 0 64.1541 11.6906 750 62.944 1183.49 514.592
1935 0 66.0622 11.7011 773 62.2432 1183.37 516.054
1936 0 69.1275 12.8169 886 61.1016 1183.02 514.223
1937 0 72.1447 13.3759 965 60.258 1182.87 513.712
1938 0 71.0517 10.3305 734 64.4673 1182.87 512.734
1939 0 74.0394 11.5479 855 63.6316 1183.06 509.192
1940 1 38.0123 9.33909 355 65.3887 1183.05 529.89
1941 0 40.0581 10.4848 420 64.4952 1182.97 527.9
1942 0 43.0245 11.2262 483 63.7412 1182.78 527.553
1943 0 43.0158 11.7399 505 63.2257 1182.54 530.263
1944 0 45.0159 11.8403 533 63.2645 1181.69 527.552
1945 0 46.044 11.3804 524 64.3912 1181.39 526.076
1946 0 46.0599 12.1798 561 64.148 1181.42 525.649
1947 0 49.0449 13.3551 655 62.0931 1181.22 524.203
1948 0 51.0514 12.8498 656 62.5168 1181.71 523.721
1949 0 53.0146 13.4303 712 61.5295 1181.75 524.093
1950 0 54.0905 11.5917 627 64.1754 1181.32 522.164
1951 0 55.0227 12.6312 695 63.7281 1181.4 520.132
1952 0 55.0482 11.7352 646 64.596 1180.65 520.39
1953 0 57.0362 11.3437 647 64.3849 1180.58 521.629
1954 0 61.053 11.8422 723 63.9336 1180.76 519.563
1955 0 61.0748 11.6578 712 64.5492 1180.96 520.216
1956 0 64.1231 11.7898 756 64.3016 1180.78 516.779
1957 0 66.0732 11.3813 752 65.9495 1180.99 516.797
1958 0 70.0493 12.2057 855 64.8608 1181.07 513.212
1959 0 70.0347 11.9941 840 64.8905 1181.27 515.989
1960 0 71.0723 11.636 827 66.4256 1181.7 511.927
1961 0 77.1244 13.0179 1004 63.5289 1182.32 510.61
1962 0 79.1513 13.9353 1103 62.2267 1182.25 513.868
1963 0 79.0791 11.9753 947 66.3464 1181.64 508.302
1964 1 40.0384 10.9395 438 67.1119 1182.12 524.968
1965 0 42.0247 9.20888 387 68.7442 1182.08 525.543
1966 0 42.0384 11.8463 498 65.5361 1182.31 525.368
1967 0 46.0262 11.5804 533 66.0432 1182.32 522.923
1968 0 47.0589 12.5162 589 64.7674 1182.55 522.638
1969 0 47.0931 11.1269 524 66.9351 1181.84 521.771
1970 0 48.1385 11.5292 555 65.9009 1182.49 523.407
1971 0 50.0973 11.3779 570 66.6737 1183.38 522.202
1972 0 53.0846 12.1692 646 65.3978 1182.81 519.706
1973 0 54.0691 11.4483 619 66.8465 1183.08 518.097
1974 0 56.0526 11.5249 646 66.3111 1183.12 516.794
1975 0 60.0808 12.2169 734 64.5204 1183.52 516.263
1976 0 61.0895 11.9824 732 64.7842 1183.11 513.53
1977 0 63.073 12.3983 782 64.2852 1182.83 512.46
1978 0 64.2328 12.3457 793 63.6293 1183.29 514.127
1979 0 66.0302 12.1914 805 64.4335 1183.91 511.938
1980 0 70.1073 13.622 955 62.5728 1183.59 508.914
1981 0 72.0462 12.2283 881 64.3235 1182.82 508.829
1982 0 74.0562 11.5048 852 65.1268 1183.4 507.731
1983 0 76.1277 12.2163 930 64.1946 1182.91 507.425
1984 0 78.1301 12.4408 972 64.4414 1182.96 505.913
1985 0 81.1768 12.6637 1028 64.1479 1182.62 504.919
1986 1 39.1114 9.61356 376 67.3484 1183.71 524.311
1987 0 43.084 10.7232 462 65.539 1183 523.028
1988 0 44.1201 11.99 529 65.3554 1183.87 520.072
1989 0 46.0354 11.1436 513 65.1092 1183.74 520.864
1990 0 48.0619 10.112 486 66.2366 1183.62 521
1991 0 49.0868 11.1435 547 65.1554 1183.15 519.077
1992 0 53.1013 12.0524 640 64.2219 1183.8 515.78
1993 0 52.0717 11.1577 581 65.4923 1183.94 516.921
1994 0 55.0757 11.8019 650 64.8615 1183.8 513.875
1995 0 55.0378 12.0099 661 65.121 1184.08 515.477
1996 0 58.2524 12.0682 703 64.0583 1183.74 514.996
1997 0 59.0487 10.8385 640 65.2016 1184.32 515.617
1998 0 61.0752 11.6414 711 64.3052 1184.31 514.353
1999 0 64.094 11.6704 748 63.9385 1184.36 513.806
2000 0 66.1572 11.7296 776 63.5554 1183.95 511.58
2001 0 68.229 12.2968 839 62.6937 1184.08 510.772
2002 0 70.317 12.5005 879 62.1888 1184.15 508.42
2003 0 70.1926 11.8816 834 63.8573 1184.16 505.97
2004 0 73.1868 12.106 886 63.1106 1184.48 504.731
2005 0 76.1196 11.5739 881 63.1498 1184.03 504.9
2006 0 77.0993 10.6227 819 64.304 1184.17 504.686
2007 0 81.1443 11.0914 900 63.5444 1184.29 501.279
2008 0 87.1685 12.1718 1061 61.9086 1183.85 498.545
2009 1 45.0956 9.62399 434 62.818 1183.59 521.272
2010 0 48.0599 11.2152 539 61.0557 1183.29 518.581
2011 0 49.0762 11.8999 584 60.7808 1183.07 517.49
2012 0 48.1015 9.87496 475 63.4063 1183.42 518.101
2013 0 51.093 10.4124 532 62.5432 1183.47 516.942
2014 0 52.0542 11.1422 580 61.6328 1183.27 517.998
2015 0 54.1344 11.1389 603 61.8043 1183.49 514.896
2016 0 57.1244 12.1139 692 60.6445 1182.92 513.006
2017 0 58.1146 12.2689 713 60.7868 1183.19 515.996
2018 0 59.1601 11.7816 697 62.0144 1183.27 513.252
2019 0 62.0479 13.1995 819 59.7717 1183.33 512.667
2020 0 64.0345 12.7275 815 60.6466 1183.18 512.926
2021 0 65.067 12.0491 784 61.5574 1183.2 512.05
2022 0 69.1066 13.7613 951 59.5089 1183.3 512.202
2023 0 69.1251 11.4864 794 63.3854 1183.14 508.311
2024 0 73.053 11.0605 808 63.4356 1183.11 505.849
2025 0 74.0644 11.8005 874 62.2986 1183.4 508.995
2026 0 76.2016 12.5194 954 62.1279 1183.12 507.367
2027 0 79.201 12.1211 960 62.351 1182.64 505.672
2028 0 83.1403 12.2444 1018 62.0344 1183.13 501.072
2029 0 86.1381 11.3423 977 63.1474 1183.3 502.331
2030 0 88.1377 11.4026 1005 63.4448 1183.34 501.429
2031 1 46.0256 10.1683 468 62.2073 1182.55 523.192
2032 0 49.0436 11.1126 545 61.6495 1182.55 520.549
2033 0 49.1266 9.91316 487 64.0431 1183.12 520.725
2034 0 50.0522 9.84971 493 64.2556 1182.79 520.769
2035 0 52.1062 10.9584 571 63.4694 1181.85 518.203
2036 0 53.1739 10.7948 574 63.5279 1181.9 518.148
2037 0 54.1819 11.8859 644 62.9612 1183.06 517.77
2038 0 54.0844 9.63308 521 65.6737 1182.87 517.491
2039 0 57.0806 11.4575 654 63.9419 1182.89 515.601
2040 0 58.0871 11.5344 670 63.894 1182.58 514.631
2041 0 62.1224 11.8315 735 62.468 1182.73 514.893
2042 0 66.1299 12.9291 855 60.5509 1182.29 514.089
2043 0 65.16 10.6047 691 64.4877 1182.38 511.925
2044 0 68.184 11.4543 781 62.3137 1182.35 511.423
2045 0 72.1021 11.2895 814 62.0614 1182.48 511.785
2046 0 73.0882 12.4234 908 60.5363 1182.62 513.178
2047 0 74.2195 11.439 849 62.1991 1182.9 508.611
2048 0 77.0781 11.3132 872 62.0986 1182.52 505.925
2049 0 79.1176 12.7279 1007 60.0715 1182.7 506.528
2050 0 82.2256 12.0644 992 60.8186 1182.25 506.588
2051 0 84.1055 11.5094 968 61.7273 1182.08 502.132
2052 0 87.1794 11.7 1020 61.4382 1181.89 501.685
2053 0 89.2514 12.067 1077 60.6685 1182.44 502.686
2054 0 95.0826 13.6618 1299 58.8807 1182.49 497.972
2055 1 44.0464 10.0122 441 62.8141 1181.27 520.24
2056 0 45.0402 10.1021 455 62.5209 1181.2 521.82
2057 0 49.0517 11.3758 558 60.8513 1181.02 520.346
2058 0 51.0423 10.8929 556 60.5378 1181.91 521.478
2059 0 53.0557 11.535 612 60.8154 1182.01 521.17
2060 0 54.024 12.4389 672 60.9122 1181.7 519.885
2061 0 56.072 11.8598 665 61.5669 1181.79 517.529
2062 0 58.0995 11.6868 679 61.6848 1181.48 515.816
2063 0 59.0914 11.9984 709 62.5966 1181.2 513.102
2064 0 61.0978 13.3884 818 60.8924 1182.22 512.507
2065 0 63.065 12.3365 778 62.0244 1182.31 514.32
2066 0 65.0418 12.761 830 61.6145 1181.75 512.587
2067 0 68.114 11.2899 769 62.7607 1181.86 513.96
2068 0 69.1077 11.388 787 62.6277 1181.31 513.046
2069 0 71.1038 13.0795 930 60.6742 1181.93 511.908
2070 0 75.2586 13.0085 979 60.7232 1182.19 509.704
2071 0 76.1057 12.3775 942 62.1996 1182.52 508.895
2072 0 80.1577 12.5253 1004 62.1086 1182.17 506.128
2073 0 85.137 14.0245 1194 60.0251 1182.18 506.535
2074 0 85.1452 12.5433 1068 62.3586 1182.06 501.511
2075 0 87.0677 11.8299 1030 63.3301 1181.31 504.362
2076 1 44.158 11.0512 488 62.8135 1181.37 525.438
2077 0 47.0615 12.5155 589 61.4075 1181.44 522.725
2078 0 46.043 11.9671 551 63.1906 1181.5 523.69
2079 0 51.0331 12.2862 627 62.193 1182 521.863
2080 0 50.0639 11.4454 573 63.9634 1182.26 521.901
2081 0 52.0968 10.6916 557 65.2136 1182.32 522.136
2082 0 53.0455 11.4053 605 65.1339 1182.43 521.212
2083 0 54.035 12.5844 680 63.1588 1182.13 520.012
2084 0 57.1446 11.7246 670 63.8507 1181.87 518.531
2085 0 57.1292 11.6578 666 63.7538 1181.4 520.71
2086 0 59.0439 12.1435 717 64.6862 1182.03 514.385
2087 0 61.2082 11.3874 697 65.4763 1182.04 514.997
2088 0 64.0763 12.0325 771 64.7082 1182.07 512.359
2089 0 67.2586 12.6973 854 63.8279 1182.1 513.611
2090 0 68.1022 12.8483 875 63.5303 1181.1 513.059
2091 0 70.1553 11.389 799 65.8348 1182.22 512.935
2092 0 73.127 12.6902 928 63.3244 1182.11 512.786
2093 0 75.2168 11.3273 852 65.4096 1181.46 511.411
2094 0 81.0777 13.6412 1106 61.9421 1182.09 508.184
2095 0 82.1583 13.2184 1086 63.1022 1182.18 507.073
2096 0 82.092 10.9024 895 66.1899 1181.61 507.008
2097 0 87.1309 13.6002 1185 62.4591 1181.58 506.883
2098 0 91.1396 13.9456 1271 62.2116 1181.8 502.144
2099 0 93.171 11.8385 1103 64.8404 1181.94 502.969
2100 1 46.0312 10.5146 484 65.438 1181.21 525.351
2101 0 49.0686 11.6979 574 63.4791 1181.01 525.05
2102 0 51.0812 12.0005 613 63.6933 1181.34 522.555
2103 0 52.0157 13.0537 679 62.3667 1182.24 522.398
2104 0 54.1311 13.7259 743 61.2288 1182.53 521.804
2105 0 56.0602 14.1633 794 60.5428 1182.11 519.283
2106 0 57.0466 11.587 661 65.2496 1181.95 519.363
2107 0 58.1248 12.2839 714 63.9874 1181.7 518.875
2108 0 60.0455 13.4232 806 62.4665 1181.95 518.252
2109 0 58.0637 10.8329 629 66.9412 1182.02 515.453
2110 0 62.0583 13.165 817 62.9645 1181.96 516.419
2111 0 65.0598 12.5269 815 63.4736 1181.55 513.423
2112 0 67.098 14.2776 958 60.9697 1181.77 515.143
2113 0 69.0991 12.4459 860 63.0733 1182.06 515.123
2114 0 69.0992 11.9104 823 64.4386 1181.99 513.632
2115 0 71.1143 11.3198 805 65.2758 1181.5 511.374
2116 0 77.1566 13.3236 1028 61.6712 1182.04 511.873
2117 0 78.1422 12.3749 967 63.6432 1182.21 508.144
2118 0 80.0982 14.0952 1129 61.5616 1181.82 507.812
2119 0 81.1771 13.6122 1105 62.886 1181.25 503.475
2120 0 84.1188 12.197 1026 63.9181 1181.45 505.774
2121 0 88.1845 11.9409 1053 64.5983 1182.24 502.755
2122 1 46.0574 12.5279 577 64.9099 1181.63 523.991
2123 0 47.0542 12.6663 596 65.198 1181.76 522.485
2124 0 49.0868 12.6103 619 66.0178 1181.75 523.089
2125 0 50.0838 12.6588 634 66.5631 1182.37 522.831
2126 0 53.0607 12.6459 671 65.5872 1182.36 522.376
2127 0 53.0267 12.8049 679 66.7526 1182.3 519.389
2128 0 55.0579 13.3314 734 65.2452 1182.1 519.653
2129 0 56.0564 13.0939 734 66.3488 1182.02 516.88
2130 0 58.0584 11.6262 675 67.3437 1181.59 517.896
2131 0 60.1386 13.0532 785 65.8 1181.09 514.966
2132 0 63.0819 12.888 813 65.9188 1181.7 513.397
2133 0 66.1255 13.8978 919 64.6017 1182.09 512.706
2134 0 67.0559 13.4067 899 64.9511 1181.67 513.022
2135 0 68.0191 14.393 979 64.2983 1182 511.451
2136 0 73.1023 13.7478 1005 64.3881 1181.96 511.112
2137 0 74.0746 14.3099 1060 64.5424 1181.89 508.037
2138 0 79.1099 12.6027 997 65.9438 1182.08 510.635
2139 0 81.1624 14.6373 1188 63.9293 1182.19 505.859
2140 0 81.0791 11.939 968 67.8822 1182.27 507.475
2141 1 43.0368 10.4097 448 69.7232 1182.73 526.411
2142 0 45.0352 12.035 542 68.1089 1182.53 523.948
2143 0 45.0345 11.5911 522 70.5498 1182.41 523.517
2144 0 49.0614 12.5557 616 68.2045 1182.46 524.437
2145 0 48.2156 11.5108 555 70.4541 1181.83 521.602
2146 0 50.08 12.5399 628 68.7134 1181.66 523.967
2147 0 51.0589 12.515 639 69.4272 1181.51 520.028
2148 0 55.0654 13.1843 726 68.1116 1180.85 518.432
2149 0 56.0601 12.9504 726 68.4793 1181.36 518.685
2150 0 56.0765 12.3938 695 69.4201 1181.32 516.456
2151 0 50.1022 10.8778 545 73.0697 1181.14 512.861
2152 0 45.0491 6.30423 284 72.4366 1180.82 501.166
2153 1 61.1032 10.605 648 69.5355 1181.52 451.744
2154 0 64.0479 11.226 719 68.6481 1181.56 447.857
2155 0 69.0712 14.2751 986 65.6004 1181.01 512.796
2156 0 71.108 13.3318 948 66.8523 1181.16 511.845
2157 0 71.1268 14.0172 997 66.6028 1181.27 510.421
2158 0 75.0918 14.8884 1118 65.4428 1181.65 507.514
2159 0 77.1046 13.9162 1073 67.0466 1181.94 506.614
2160 0 79.2007 13.6489 1081 67.6975 1181.52 506.45
2161 0 81.0983 12.8363 1041 68.8482 1180.99 504.605
2162 0 86.1394 13.2924 1145 67.9651 1181.71 503.288
2163 0 89.105 14.4324 1286 66.4922 1181.78 503.887
2164 1 44.1586 13.1345 580 69.0845 1180.93 523.367
2165 0 47.044 13.1154 617 69.5737 1181.84 524.561
2166 0 46.0165 10.8222 498 73.0863 1181.52 525.763
2167 0 48.1265 12.7996 616 71.2159 1182.6 524.193
2168 0 50.0856 12.6184 632 71.2627 1181.54 524.26
2169 0 51.0219 13.014 664 71.0813 1182.09 523.678
2170 0 54.0381 13.0093 703 70.2731 1181.84 522.171
2171 0 55.1766 13.8646 765 69.7778 1181.83 518.467
2172 0 55.0544 13.4776 742 71.5256 1181.79 518.394
2173 0 58.0787 14.1016 819 70.7485 1181.85 517.462
2174 0 62.0855 14.0774 874 70.333 1182.4 515.142
2175 0 60.0612 13.1533 790 73.181 1181.42 514.44
2176 0 63.0568 13.4323 847 72.5903 1181.67 514.525
2177 0 68.0649 13.9573 950 71.1621 1181.67 511.987
2178 0 68.0558 14.0473 956 71.9508 1181.2 512.598
2179 0 71.1109 13.5282 962 72.7225 1182.15 512.796
2180 0 73.0825 15.0515 1100 70.3055 1182.51 511.492
2181 0 75.1111 13.8195 1038 72.8006 1181.87 508.309
2182 1 38.0918 12.8112 488 72.8176 1182.48 529.869
2183 0 37.0301 11.9903 444 75.973 1182.25 527.025
2184 0 39.0747 11.4652 448 76.3884 1182.16 528.241
2185 0 42.1081 13.1091 552 74.6866 1182.02 526.674
2186 0 43.0253 12.9923 559 74.8354 1181.94 525.703
2187 0 45.0771 13.3993 604 74.2616 1181.91 524.275
2188 0 45.039 14.5208 654 73.3761 1182.42 522.486
2189 0 47.0523 13.3469 628 74.2389 1181.52 523.167
2190 0 49.1651 14.5428 715 72.6867 1181.76 522.579
2191 0 49.0253 13.5644 665 74.3774 1181.75 523.041
2192 0 51.1836 14.8094 758 71.9129 1181.55 521.029
2193 0 52.0622 14.5595 758 72.942 1181.34 519.127
2194 0 55.1551 13.6524 753 73.5511 1181.36 519.312
2195 0 58.0832 15.2023 883 70.94 1181.42 519.093
2196 0 60.1153 14.6053 878 71.5672 1181.13 518.785
2197 0 60.1101 13.2424 796 74.0917 1181.57 516.706
2198 0 62.0365 14.9106 925 71.9589 1182 517.598
2199 0 65.0992 14.6699 955 71.7267 1181.67 516.102
2200 0 65.0953 13.7644 896 73.3482 1181.4 516.362
2201 0 69.0656 14.3921 994 71.7998 1181.41 515.094
2202 0 71.2192 14.3922 1025 72.1571 1182.14 513.62
2203 0 73.2823 14.451 1059 71.5288 1181.8 512.328
2204 0 76.2364 14.6649 1118 70.8918 1181.04 510.99
2205 0 78.1573 13.4089 1048 72.8244 1181.41 511.156
2206 0 81.1287 15.7897 1281 69.3638 1181.34 508.738
2207 0 83.2847 14.8767 1239 70.5085 1180.99 506.344
2208 0 85.1867 13.2767 1131 72.6985 1181.09 507.081
2209 0 88.1362 14.3301 1263 71.4513 1181.81 503.653
2210 0 91.1214 13.7289 1251 71.9936 1181.14 502.818
2211 0 94.3081 12.9257 1219 72.6546 1180.86 502.921
2212 1 47.0866 12.5938 593 73.0928 1180.84 527.526
2213 0 50.0781 14.3776 720 71.4181 1181.21 524.474
2214 0 50.1589 12.6996 637 73.9513 1181.73 525.289
2215 0 51.1045 13.443 687 72.8675 1181.05 523.777
2216 0 55.1071 13.8276 762 71.2926 1180.76 522.982
2217 0 57.0667 14.6846 838 70.7685 1180.42 520.592
2218 0 58.072 14.7575 857 70.7748 1180.94 521.39
2219 0 61.0996 13.9444 852 72.0012 1181.14 521.027
2220 0 63.136 14.3341 905 71.4829 1180.91 519.528
2221 0 65.0937 15.0398 979 70.24 1181.38 521.134
2222 0 68.1054 14.0224 955 71.3675 1181.55 519.587
2223 0 69.0734 14.9696 1034 71.6692 1181.4 515.489
2224 0 72.0559 15.4186 1111 70.4302 1181.35 515.237
2225 0 76.0662 14.1061 1073 72.5331 1181.77 513.168
2226 0 76.0273 14.3633 1092 73.2564 1181.99 509.952
2227 0 79.0535 16.4825 1303 70.4858 1182.02 511.692
2228 1 36.1076 11.8534 428 77.8995 1181.42 531.628
2229 0 41.0853 12.1455 499 76.7796 1181.96 530.74
2230 0 40.0569 13.7305 550 76.34 1182.27 529.7
2231 0 41.2147 14.0727 580 76.0259 1181.83 529.352
2232 0 44.0804 13.8157 609 75.7767 1181.66 529.053
2233 0 46.048 14.7455 679 74.0339 1181.78 529.77
2234 0 49.0233 14.3401 703 73.9303 1181.38 528.674
2235 0 49.0342 16.3152 800 72.1575 1182.06 526.879
2236 0 50.1366 14.3807 721 75.0374 1182.15 526.864
2237 0 52.0578 14.9642 779 74.5648 1182.27 524.467
2238 0 53.1084 15.0635 800 74.7588 1182.37 525.222
2239 0 53.0268 14.2947 758 76.9881 1182.97 525.57
2240 0 57.1299 14.7559 843 75.0202 1182.35 523.88
2241 0 59.0965 15.8385 936 74.2212 1183.07 522.339
2242 0 61.1821 15.2496 933 74.6902 1182.76 522.256
2243 0 64.3888 14.8162 954 74.8857 1182.37 522.625
2244 0 65.0983 14.1171 919 76.3547 1182.46 523.262
2245 0 66.185 12.8277 849 79.6514 1182.63 520.16
2246 0 68.0999 15.0367 1024 76.29 1182.58 518.52
2247 0 71.1044 15.1186 1075 76.2558 1181.8 516.473
2248 0 73.1415 14.6155 1069 76.6202 1182.27 518.126
2249 1 37.0404 14.9836 555 76.7315 1182.75 533.6
2250 0 35.1056 12.9039 453 81.808 1182.41 534.219
2251 0 38.0684 13.7384 523 79.631 1182.38 534.467
2252 0 39.0591 14.158 553 79.3418 1182.72 532.881
2253 0 39.1727 13.0448 511 81.0607 1182.08 531.775
2254 0 41.0557 15.4424 634 77.2681 1182.83 531.713
2255 0 43.1862 13.7081 592 80.3328 1182.92 531.282
2256 0 45.1394 14.5106 655 78.2733 1183.07 530.969
2257 0 45.035 14.6109 658 79.345 1182.9 530.261
2258 0 44.0928 14.22 627 80.8262 1182.23 530.274
2259 0 47.0533 14.0054 659 81.0212 1181.9 528.144
2260 0 48.015 14.308 687 81.3435 1182.8 527.831
2261 0 50.0706 15.2185 762 79.4108 1183.08 526.365
2262 0 53.1355 14.6983 781 80.0691 1183.8 524.791
2263 0 54.0178 14.5137 784 80.2793 1182.64 526.847
2264 0 55.0407 15.0979 831 80.3682 1183.04 523.862
2265 0 58.149 14.8928 866 78.9677 1182.64 524.721
2266 0 60.1825 15.4031 927 79.0032 1183.18 522.745
2267 0 62.1512 14.9796 931 79.5542 1183.09 522.476
2268 0 65.0846 15.1034 983 78.7894 1183.35 522.04
2269 0 65.1112 14.744 960 80.4135 1182.68 519.761
2270 0 68.0186 15.1429 1030 79.2942 1183.08 519.467
2271 0 69.0167 15.2282 1051 80.0742 1182.23 516.693
2272 0 72.1207 14.8362 1070 80.5533 1182.41 517.576
2273 0 75.0512 15.0964 1133 80.5569 1183.11 515.794
2274 0 75.2066 14.0147 1054 82.7078 1182.49 516.822
2275 0 80.1253 15.5631 1247 79.4603 1182.82 512.754
2276 0 82.0904 16.1773 1328 77.8313 1182.76 514.358
2277 0 84.0541 15.0022 1261 80.4433 1182.02 511.266
2278 0 88.0562 14.8201 1305 80.2429 1183.02 510.871
2279 0 90.1597 16.7037 1506 77.2709 1183.72 509.033
2280 1 43.0696 12.77 550 84.8491 1182.96 530.769
2281 0 46.1027 14.2074 655 81.0916 1182.97 532.009
2282 0 44.0738 14.1127 622 83.2974 1182.59 530.383
2283 0 47.0386 14.8601 699 81.5951 1182.31 527.824
2284 0 47.0203 14.3555 675 82.3052 1183.35 528.053
2285 0 48.1083 14.8831 716 81.8324 1183.14 526.254
2286 0 51.1099 15.1438 774 80.9057 1183.24 525.065
2287 0 53.0696 15.6021 828 80.1002 1183.45 524.754
2288 0 54.0441 14.8397 802 81.8005 1183.02 522.969
2289 0 55.1032 15.353 846 80.6466 1183.13 524.449
2290 0 56.0771 14.0699 789 83.7706 1183.41 521.578
2291 0 57.0748 14.5423 830 83.6205 1183.45 520.628
2292 0 62.11 15.859 985 79.7168 1183.03 521.845
2293 0 63.0632 15.2387 961 81.462 1183.6 522.381
2294 0 65.1266 14.9094 971 82.5881 1183.82 520.648
2295 0 68.0653 15.8818 1081 80.8659 1183.66 517.762
2296 0 70.1988 15.912 1117 80.3903 1183.46 517.228
2297 0 71.0581 15.03 1068 82.3839 1183.38 516.491
2298 0 74.0939 14.9675 1109 82.2137 1183.32 514.167
2299 0 77.2361 15.8216 1222 79.099 1183.68 512.211
2300 0 80.264 15.449 1240 79.6298 1183.92 511.334
2301 0 81.2935 15.6839 1275 79.138 1183.84 508.987
2302 0 84.0944 15.0783 1268 79.4898 1183.75 509.539
2303 1 40.044 13.8098 553 82.0199 1183.55 529.51
2304 0 41.034 12.843 527 84.0285 1183.43 528.858
2305 0 43.2274 14.7591 638 80.7633 1183.63 528.15
2306 0 43.1394 13.0275 562 84.0036 1183.34 527.936
2307 0 44.063 14.4112 635 81.0756 1183.43 528.839
2308 0 44.1505 12.7518 563 84.8259 1183.47 527.694
2309 0 47.3093 15.1979 719 79.9833 1183.31 526.643
2310 0 48.0662 14.4176 693 80.8557 1182.63 528.052
2311 0 49.1197 14.1898 697 82.2267 1182.9 526.898
2312 0 53.3396 14.2108 758 81.2784 1182.41 525.54
2313 0 53.0623 15.8305 840 78.6845 1182.73 525.668
2314 0 56.2627 14.6634 825 79.3939 1183.32 525.672
2315 0 56.1794 14.6851 825 80.8533 1182.95 522.645
2316 0 58.122 14.2975 831 81.8736 1182.55 521.84
2317 0 61.0508 16.3307 997 78.2728 1182.4 519.424
2318 0 62.0742 15.1109 938 79.8891 1182.54 520.562
2319 0 64.1667 13.9636 896 82.7031 1182.72 516.758
2320 0 66.0808 15.9956 1057 78.7654 1183.61 517.636
2321 0 67.1012 14.9923 1006 81.0408 1183.18 515.121
2322 0 71.1964 16.5317 1177 78.0799 1183.35 513.77
2323 0 74.159 15.9118 1180 79.3271 1183.32 512.238
2324 0 75.0591 14.6018 1096 81.1843 1183.65 513.955
2325 0 78.1307 14.207 1110 82.2459 1183.06 511.423
2326 0 81.1682 14.9812 1216 80.2878 1183.38 509.884
2327 0 85.0662 15.3763 1308 79.3326 1182.91 508.425
2328 0 87.2203 14.7672 1288 80.1429 1182.94 507.493
2329 0 91.127 14.606 1331 80.0856 1182.97 506.218
2330 1 45.0491 14.2955 644 79.4845 1183.82 530.205
2331 0 46.0582 14.3948 663 80.9879 1183.35 527.849
2332 0 47.036 13.7129 645 80.1085 1183.62 529.679
2333 0 49.1029 13.2579 651 82.2335 1183.21 527.889
2334 0 49.2293 14.7676 727 80.0536 1182.88 526.172
2335 0 50.0513 13.4262 672 82.9107 1183.46 526.307
2336 0 53.1014 15.1785 806 79.1675 1183.35 525.189
2337 0 55.125 14.9116 822 80.326 1183.59 523.398
2338 0 57.2262 15.1854 869 79.8631 1183.48 521.931
2339 0 58.1576 15.1141 879 79.2548 1183.48 523.445
2340 0 60.0828 14.8462 892 79.2993 1183.92 522.038
2341 0 60.0832 13.5146 812 83.0308 1183.31 520.959
2342 0 65.0763 13.9068 905 80.9414 1183.31 520.901
2343 0 67.0907 14.2047 953 80.6023 1183.16 518.639
2344 0 69.1154 15.2643 1055 77.8142 1183.75 520.116
2345 0 70.1539 15.5943 1094 78.0969 1183.44 516.686
2346 0 71.1094 13.7675 979 81.4556 1183.18 516.252
2347 0 73.0985 14.1453 1034 81.178 1183.16 514.65
2348 0 79.1095 15.409 1219 77.3265 1183.55 513.678
2349 0 81.1078 15.3869 1248 70.1715 1183.32 510.607
2350 1 41.0551 13.8351 568 71.3046 1183.84 530.048
2351 0 41.1318 13.6148 560 69.4643 1182.97 531.811
2352 0 42.1265 13.6494 575 70.8522 1183.18 528.631
2353 0 44.0529 14.074 620 70.3113 1183.21 528.694
2354 0 47.1335 13.7057 646 68.6749 1182.74 529.531
2355 0 46.1078 13.6202 628 70.7771 1183.52 526.943
2356 0 48.0547 13.4222 645 70.4403 1183.87 527.092
2357 0 51.0745 16.2116 828 66.3672 1183.35 524.94
2358 0 52.1747 14.3939 751 68.8003 1182.76 525.655
2359 0 54.1189 14.3757 778 69.2198 1182.85 524.769
2360 0 56.0688 14.5892 818 68.1479 1183.04 524.671
2361 0 57.1082 14.5338 830 68.7157 1183.03 522.904
2362 0 59.0866 14.8257 876 67.8242 1183.49 523.397
2363 0 62.1413 14.7889 919 68.0849 1183.65 521.864
2364 0 67.1621 15.0234 1009 66.3558 1183.46 521.368
2365 0 68.0696 17.2911 1177 64.1623 1183.64 518.95
2366 0 68.1634 15.0521 1026 67.6101 1183.23 517.134
2367 0 71.1738 15.2444 1085 67.3631 1183.61 516.346
2368 0 73.2131 15.7895 1156 66.0199 1183.58 518.39
2369 0 75.053 14.8429 1114 68.4363 1183.8 514.083
2370 0 77.1382 14.8824 1148 67.8554 1183.16 513.163
2371 0 80.0831 14.2477 1141 68.4128 1183.35 513.356
2372 0 82.316 16.3759 1348 66.0994 1182.88 510.177
2373 0 84.0372 15.2076 1278 67.4429 1183.42 510.628
2374 0 86.1261 14.6297 1260 68.1103 1182.87 506.312
2375 1 41.0684 15.8516 651 65.7404 1183.03 529.745
2376 0 39.1681 12.6634 496 70.3649 1183.03 530.377
2377 0 44.0892 13.382 590 67.9254 1183.26 531.664
2378 0 43.0176 13.6688 588 68.8061 1183.36 529.837
2379 0 44.1136 14.508 640 67.7453 1184.45 528.573
2380 0 45.0865 13.1082 591 69.2775 1184.06 528.005
2381 0 46.0277 13.3615 615 69.1577 1183.8 527.441
2382 0 50.0474 14.4263 722 66.2258 1183.31 528.42
2383 0 51.226 14.4653 741 66.942 1183.11 526.945
2384 0 50.0467 15.2857 765 66.0366 1183.99 527.361
2385 0 53.0434 14.95 793 65.9584 1184.16 525.14
2386 0 53.1143 14.6853 780 66.9526 1183.89 524.731
2387 0 57.0295 16.2021 924 63.0162 1183.59 525.663
2388 0 59.0698 14.8468 877 64.7845 1184.64 524.534
2389 0 61.1074 14.0081 856 65.9416 1185.1 523.395
2390 0 61.1395 17.7626 1086 62.5018 1184.11 519.438
2391 0 64.1342 15.0778 967 64.9297 1185.32 520.361
2392 0 65.0898 14.3494 934 66.4165 1184.98 519.509
2393 0 69.2905 15.0093 1040 65.526 1185.1 517.037
2394 0 69.0863 14.0694 972 67.4403 1185.92 515.541
2395 0 74.1206 16.5136 1224 63.5016 1185.77 513.578
2396 0 75.1223 15.9207 1196 64.5677 1185.41 514.88
2397 0 79.1532 15.1857 1202 65.0366 1184.84 511.661
2398 0 80.0693 16.5482 1325 63.8913 1185.06 506.893
2399 0 81.0825 15.2931 1240 66.0194 1185.19 507.957
2400 0 85.0726 16.1744 1376 64.2282 1185.56 509.913
2401 0 90.0856 15.8183 1425 64.0042 1185.9 508.088
2402 0 92.1055 14.744 1358 65.2452 1185.35 506.19
2403 1 42.161 11.6695 492 69.1545 1185.53 530.445
2404 0 42.1416 14.475 610 66.823 1186.05 528.951
2405 0 44.0781 13.3853 590 68.339 1184.91 527.456
2406 0 45.1118 13.6106 614 67.6222 1184.67 528.142
2407 0 48.0444 14.2368 684 66.2763 1184.92 528.123
2408 0 47.0416 13.6688 643 68.1524 1185.44 527.075
2409 0 49.0849 14.7703 725 66.4979 1184.75 526.857
2410 0 51.1225 15.2379 779 65.7882 1184.35 525.44
2411 0 54.0628 14.9641 809 65.9135 1185.04 525.358
2412 0 56.1486 15.6015 876 64.8858 1185.58 525.242
2413 0 57.1571 14.5914 834 67.0612 1184.86 524.934
2414 0 58.1188 14.4704 841 68.063 1184.98 523.323
2415 0 60.1234 15.5846 937 66.5891 1184.47 523.234
2416 0 61.0421 15.6286 954 66.8857 1185.15 521.604
2417 0 64.2418 14.8034 951 67.6498 1185.52 519.951
2418 0 65.245 16.0472 1047 66.9608 1184.92 518.698
2419 0 68.123 16.2207 1105 66.1611 1185.28 518.671
2420 0 69.1023 14.7028 1016 68.5492 1185.24 518.93
2421 0 72.2248 16.0333 1158 66.6606 1185.38 515.582
2422 0 73.1727 16.4679 1205 66.3784 1185.15 513.549
2423 0 78.0721 15.6266 1220 66.0172 1184.91 515.011
2424 0 78.1552 16.1602 1263 66.4925 1184.1 511.072
2425 0 81.4064 16.1781 1317 65.776 1184.27 511.011
2426 0 83.1218 16.0969 1338 66.13 1184.75 509.496
2427 0 87.1118 16.0484 1398 66.4399 1184.84 508.622
2428 0 90.2386 16.135 1456 65.4828 1185.21 507.981
2429 0 94.139 16.4119 1545 64.6628 1184.63 506.052
2430 0 97.1128 16.0947 1563 64.8829 1184.92 505.263
2431 0 100.238 16.4808 1652 64.4988 1184.87 504.8
2432 1 46.072 11.3084 521 73.4798 1184.73 529.002
2433 0 50.0705 14.3598 719 69.1669 1184.24 525.88
2434 0 52.0309 14.0109 729 69.225 1184.83 526.841
2435 0 55.0836 14.9591 824 68.6201 1184.46 524.036
2436 0 55.1238 15.2384 840 69.0369 1185.09 524.025
2437 0 59.1699 13.8753 821 69.7259 1185.01 523.903
2438 0 60.1267 15.6669 942 68.3206 1184.69 522.152
2439 0 62.0392 15.3129 950 69.4747 1184.48 520.894
2440 0 61.0742 13.5082 825 72.1782 1184.36 520.575
2441 0 65.0869 16.0555 1045 68.489 1184.61 518.276
2442 0 68.1217 18.2467 1243 64.8584 1184.21 518.456
2443 0 69.136 15.2019 1051 70.0847 1184.2 516.179
2444 0 70.1023 15.8911 1114 69.2442 1184.45 515.211
2445 0 73.2015 15.5325 1137 69.4846 1183.79 516.075
2446 0 74.1002 14.7503 1093 70.8984 1183.68 515.901
2447 0 78.1107 15.5548 1215 69.7086 1183.97 512.948
2448 0 80.3522 16.8384 1353 68.0857 1183.36 511.738
2449 0 83.1485 17.2102 1431 67.5241 1183.64 508.53
2450 0 87.0993 17.5662 1530 66.7261 1184.11 509.633
2451 0 89.0974 17.0263 1517 67.7521 1183.95 507.701
2452 0 92.063 16.9558 1561 68.034 1184.1 505.767
2453 0 94.1031 15.8231 1489 69.2928 1183.94 506.633
2454 0 98.1794 16.5615 1626 67.7239 1185.21 503.923
2455 1 48.0756 13.3124 640 71.7094 1184.55 529.836
2456 0 47.0306 13.3105 626 73.5367 1184.75 527.77
2457 0 49.0394 15.3754 754 71.2109 1183.51 525.383
2458 0 52.064 15.5194 808 69.7054 1184.43 524.238
2459 0 53.0665 13.9071 738 72.7724 1184.21 523.455
2460 0 54.0819 15.0697 815 71.2074 1183.52 522.721
2461 0 58.0954 15.6811 911 69.1076 1184.08 521.979
2462 0 59.0673 17.5224 1035 68.001 1183.99 519.548
2463 0 59.0877 14.1992 839 73.199 1183.77 519.605
2464 0 60.0354 14.5414 873 73.1535 1183.99 517.858
2465 0 61.1034 13.7472 840 74.3976 1183.7 517.706
2466 0 65.1595 14.1039 919 73.3928 1183.39 515.686
2467 0 67.0386 14.0814 944 73.303 1184.87 514.936
2468 0 69.0989 15.2535 1054 72.1205 1183.67 514.047
2469 0 74.2771 22.0391 1637 51.8937 1183.85 514.69
2470 0 74.0437 15.5989 1155 71.4935 1184.25 511.935
2471 0 76.0878 16.0472 1221 70.6306 1184.28 511.553
2472 0 78.1396 17.5199 1369 68.6625 1184.21 508.821
2473 0 81.1701 14.8823 1208 72.4661 1184.9 509.902
2474 0 85.092 15.1483 1289 71.263 1184.74 509.037
2475 0 89.1832 14.9692 1335 71.0682 1185.1 507.733
2476 0 92.052 16.545 1523 68.4261 1184.55 506.429
2477 0 93.2204 15.2971 1426 70.7714 1184.8 505.434
2478 1 42.0545 14.0056 589 73.1664 1184.13 528.503
2479 0 42.0534 14.1249 594 73.6818 1184.29 527.662
2480 0 43.025 14.6426 630 72.9381 1184.26 527.87
2481 0 46.0217 13.9934 644 72.9394 1184.76 527.806
2482 0 46.0318 14.1858 653 72.8346 1183.76 528.332
2483 0 47.1136 14.136 666 73.2943 1184.7 527.453
2484 0 50.0601 15.4414 773 70.7956 1184.04 527.101
2485 0 50.0817 15.2151 762 72.8189 1184.22 523.711
2486 0 51.1382 15.1159 773 72.8111 1184.12 524.867
2487 0 53.0702 15.6397 830 71.7566 1184.04 525.353
2488 0 55.0735 15.5247 855 72.9591 1184.29 522.451
2489 0 55.0453 15.5145 854 73.3103 1183.51 522.069
2490 0 58.1142 15.7621 916 73.191 1184.63 520.822
2491 0 59.0586 14.9512 883 75.3715 1184.59 518.613
2492 0 61.0342 15.6306 954 74.3805 1183.99 518.878
2493 0 63.0371 17.9101 1129 70.9885 1183.59 517.356
2494 0 65.0482 15.5423 1011 74.6894 1184.07 515.046
2495 0 66.058 15.2593 1008 75.5367 1183.84 516.256
2496 0 70.0416 15.4622 1083 74.4488 1184.49 515.067
2497 0 73.0598 14.7413 1077 74.4615 1183.92 514.267
2498 0 73.0608 14.9054 1089 75.854 1183.85 509.572
2499 0 77.1032 15.1615 1169 75.16 1184.52 508.264
2500 0 80.1106 16.3149 1307 72.8034 1184.49 508.093
2501 0 83.1398 15.937 1325 73.08 1184.47 505.78
2502 0 85.1539 15.7245 1339 74.1979 1184.98 503.993
2503 0 89.2218 15.8145 1411 73.421 1184.14 504.326
2504 1 41.0643 14.0511 577 75.3986 1184.2 526.399
2505 0 42.0944 13.8261 582 77.6684 1184.74 525.034
2506 0 44.0597 16.3642 721 73.7448 1185.07 525.057
2507 0 44.05 14.5062 639 78.4147 1184.01 523.509
2508 0 47.0999 14.5011 683 77.448 1184.82 525.127
2509 0 48.1288 15.4793 745 75.2456 1184.21 525.199
2510 0 48.0633 15.6252 751 77.261 1184.01 522.533
2511 0 49.0437 14.0487 689 79.9492 1184.38 522.62
2512 0 52.0357 14.1057 734 78.6962 1184.77 524.131
2513 0 52.0765 14.978 780 78.659 1184.64 522.863
2514 0 54.0925 14.1609 766 81.8433 1184.99 520.726
2515 0 57.1024 16.7594 957 76.5684 1184.08 518.227
2516 0 56.0361 14.0981 790 82.7722 1183.67 518.003
2517 0 61.0671 16.9322 1034 75.9865 1184.25 519.433
2518 0 62.0744 14.7243 914 80.2199 1183.77 517.513
2519 0 63.0684 14.9362 942 81.1974 1184.45 513.852
2520 0 65.1752 16.0337 1045 78.8517 1184.57 513.665
2521 0 68.075 16.9372 1153 76.6704 1184.57 513.345
2522 0 70.1063 15.4052 1080 79.9694 1184.86 513.214
2523 0 73.0621 16.5202 1207 77.1334 1184.86 512.963
2524 0 73.1269 15.2338 1114 81.2504 1184.65 507.806
2525 0 76.0611 16.8812 1284 77.7126 1185.73 509.436
2526 0 78.1354 15.6523 1223 80.278 1185.57 508.889
2527 0 80.1543 14.8588 1191 81.628 1185.59 507.254
2528 0 84.0821 15.354 1291 80.4733 1185.11 507.052
2529 0 86.1199 15.5016 1335 79.5191 1185.22 506.508
2530 0 89.1175 16.0462 1430 79.2329 1185.01 503.663
2531 0 90.2135 14.9756 1351 81.4375 1185.15 502.99
2532 0 95.1648 15.4049 1466 79.5437 1185.4 503.272
2533 1 43.0971 13.0867 564 87.6046 1185.87 523.931
2534 0 44.0489 14.4158 635 85.3764 1186 523.181
2535 0 46.0724 13.9563 643 86.6096 1185.67 524.221
2536 0 48.0337 15.5724 748 83.5481 1185.63 522.285
2537 0 48.0827 15.3902 740 84.4095 1185.29 521.388
2538 0 49.0372 14.6624 719 86.1266 1184.86 521.107
2539 0 53.1253 14.4752 769 84.6788 1185.24 520.13
2540 0 55.0868 14.5407 801 84.4307 1185.05 520.089
2541 0 55.0309 14.9007 820 84.9073 1184.63 519.54
2542 0 57.13 16.1386 922 82.7364 1184.89 518.085
2543 0 59.0492 16.41 969 81.838 1185.25 519.49
2544 0 61.0526 15.9371 973 81.8993 1185.58 518.366
2545 0 63.159 17.0522 1077 80.0353 1184.92 517.055
2546 0 65.0652 14.7083 957 84.9686 1185.67 514.435
2547 0 67.2574 15.1062 1016 83.9419 1185.28 512.95
2548 0 68.0733 15.3805 1047 83.4747 1183.8 511.85
2549 0 73.09 17.4853 1278 78.198 1185.4 510.811
2550 0 75.0439 16.0839 1207 80.3811 1184.42 511.714
2551 0 76.0598 17.4205 1325 78.5245 1184.7 510.971
2552 0 80.093 15.5944 1249 81.4988 1184.76 508.344
2553 0 81.0316 14.735 1194 82.6147 1184.94 508.219
2554 0 84.0915 15.9945 1345 80.6193 1185.12 509.032
2555 0 89.1498 17.2519 1538 77.0618 1185.17 506.358
2556 0 91.113 16.1558 1472 78.9253 1185.55 505.756
2557 1 46.0828 14.3654 662 83.1677 1185.34 524.514
2558 0 46.0562 15.1988 700 81.4271 1184.43 524.159
2559 0 47.0477 13.0506 614 86.4365 1185.29 522.121
2560 0 47.0696 13.6394 642 84.8629 1185.84 523.417
2561 0 49.1346 12.883 633 86.1801 1184.58 524.054
2562 0 51.0644 13.8257 706 84.1218 1184.71 523.224
2563 0 52.0775 13.8832 723 85.5892 1184.84 520.751
2564 0 54.0601 13.5405 732 85.2842 1184.75 521.988
2565 0 56.0311 14.9203 836 82.1172 1185.51 522.536
2566 0 58.0855 16.183 940 80.4904 1185.09 519.366
2567 0 59.0818 15.8932 939 81.1853 1185.05 518.679
2568 0 63.131 14.763 932 82.8948 1185.05 517.892
2569 0 63.0288 15.4533 974 82.5832 1184.85 516.217
2570 0 67.0574 15.1512 1016 82.1644 1184.85 515.063
2571 0 68.2796 14.6896 1003 83.6411 1184.9 513.347
2572 0 70.0613 15.9574 1118 81.5295 1184.84 513.209
2573 0 70.1386 15.3553 1077 82.6323 1184.73 513.5
2574 0 74.0774 15.0248 1113 82.3971 1184.57 514.182
2575 0 77.0935 16.0973 1241 80.718 1184.41 511.687
2576 0 80.0661 15.6745 1255 81.11 1184.88 509.851
2577 0 82.1161 14.9179 1225 82.3804 1184.81 510.253
2578 0 86.1595 16.3998 1413 78.0984 1184.08 508.899
2579 0 88.0872 14.5651 1283 80.4809 1184.11 508.756
2580 1 43.0264 14.1308 608 83.329 1184.41 527.87
2581 0 45.0781 13.288 599 85.4107 1184.94 525.938
2582 0 46.0348 14.2284 655 83.3114 1184.77 525.834
2583 0 48.0696 15.1239 727 81.194 1184.38 525.58
2584 0 49.1162 15.9214 782 80.0703 1184.8 524.638
2585 0 50.0466 14.986 750 82.0907 1184.15 522.516
2586 0 51.0553 15.258 779 81.5533 1183.92 522.641
2587 0 53.0527 15.0228 797 82.542 1183.8 519.548
2588 0 55.109 15.6599 863 80.1043 1184.21 520.93
2589 0 55.064 15.818 871 81.0413 1183.6 519.505
2590 0 56.0608 15.9291 893 80.8522 1184.17 519.42
2591 0 59.0368 15.4988 915 81.6055 1183.77 517.273
2592 0 63.0482 17.2884 1090 76.8083 1184.77 518.206
2593 0 62.0302 15.6537 971 81.4665 1184.49 514.676
2594 0 65.103 16.4201 1069 80.1862 1184.02 515.384
2595 0 69.0284 16.6598 1150 78.5565 1183.67 514.511
2596 0 71.0844 17.1768 1221 77.7125 1183.82 513.11
2597 0 72.0524 16.7239 1205 77.9502 1185.45 514.273
2598 0 72.1859 15.3077 1105 80.3122 1186.03 512.289
2599 0 74.1254 15.9864 1185 81.238 1185.68 512.012
2600 0 78.104 16.0299 1252 80.1973 1185.48 510.842
2601 0 80.0685 16.3235 1307 79.306 1185.06 509.029
2602 0 81.1332 17.687 1435 77.9031 1184.99 506.041
2603 0 82.098 15.2866 1255 81.6398 1185.21 507.871
2604 0 86.1858 15.8959 1370 80.0533 1185.14 506.067
2605 0 87.0517 15.6459 1362 80.4648 1185.22 504.315
2606 0 91.1516 14.986 1366 80.5381 1185.14 504.611
2607 0 94.1537 15.5915 1468 80.1839 1184.28 502.774
2608 1 45.1677 14.5237 656 82.6494 1183.87 524.828
2609 0 46.0211 13.6894 630 85.681 1184.58 523.132
2610 0 48.0108 15.2049 730 83.5384 1184.44 522.471
2611 0 49.0583 15.6956 770 83.0442 1185.24 522.381
2612 0 48.1249 14.7948 712 87.9677 1184.5 520.546
2613 0 51.1238 15.1202 773 86.2251 1184.33 520.389
2614 0 54.0287 14.3998 778 87.2571 1183.87 520.091
2615 0 55.0446 14.9515 823 86.5371 1183.56 519.588
2616 0 55.0283 14.6834 808 88.4802 1184.01 518.337
2617 0 56.0476 14.2557 799 89.2165 1184.4 516.979
2618 0 60.0726 14.9486 898 86.8976 1184.2 515.578
2619 0 61.1165 14.186 867 87.3345 1185.4 517.083
2620 0 64.0283 15.3214 981 85.9511 1185.36 516.558
2621 0 65.0268 15.6551 1018 85.8811 1184.82 515.72
2622 0 67.0887 14.1753 951 88.6635 1184.6 513.497
2623 0 69.0557 14.9589 1033 87.1481 1184.97 513.251
2624 0 72.0461 15.5734 1122 85.5535 1185.62 513.22
2625 0 74.1001 15.3171 1135 86.2194 1184.75 512.067
2626 0 76.1162 15.2661 1162 86.8081 1183.92 507.846
2627 0 75.1099 15.3908 1156 87.3434 1184.21 509.155
2628 0 80.0794 15.2973 1225 86.1184 1183.3 507.256
2629 0 82.1324 15.3046 1257 86.8703 1183.4 506.775
2630 1 39.0436 13.216 516 89.5523 1183.19 527.752
2631 0 40.026 12.7917 512 91.7227 1184.58 526.82
2632 0 42.0346 13.2986 559 89.4365 1184.52 526.501
2633 0 45.0525 15.1157 681 83.6681 1184.63 527.762
2634 0 44.1008 14.036 619 87.433 1184.19 526.031
2635 0 45.0229 14.6814 661 86.7095 1184.27 525.449
2636 0 47.0342 14.6064 687 86.1907 1184.21 524.483
2637 0 47.0629 13.7688 648 89.2654 1184.2 523.838
2638 0 50.1007 14.3311 718 87.2298 1184.45 523.386
2639 0 51.0505 14.2996 730 86.837 1184.43 523.552
2640 0 53.0435 14.4975 769 86.7893 1183.91 522.711
2641 0 55.0292 14.7558 812 86.4384 1184.78 521.09
2642 0 57.1202 15.1085 863 85.7381 1184.44 521.057
2643 0 58.0347 14.4396 838 86.2697 1184.08 521.833
2644 0 61.0892 14.6671 896 86.5022 1183.54 518.052
2645 0 62.1317 13.6001 845 89.7941 1185.03 519.351
2646 0 64.0447 14.7553 945 87.3524 1185.51 518.279
2647 0 66.0969 15.8858 1050 85.1895 1185.2 517.505
2648 0 68.1277 14.3554 978 87.4826 1184.82 515.965
2649 0 70.1335 15.2281 1068 86.2931 1184.85 513.5
2650 0 73.1217 16.1375 1180 84.3475 1184.76 516.364
2651 0 75.1699 15.8175 1189 84.725 1184.89 515.369
2652 0 77.0638 14.9097 1149 87.4726 1184.7 512.333
2653 0 80.1434 15.0979 1210 85.8777 1185.33 512.629
2654 0 81.2438 13.958 1134 87.5044 1185.39 511.429
2655 0 83.1098 13.789 1146 88.1065 1184.89 509.426
2656 0 87.1725 14.4197 1257 87.401 1184.68 509.152
2657 1 41.1169 13.0603 537 89.5996 1183.91 529.764
2658 0 46.061 13.1565 606 88.1073 1185.16 528.84
2659 0 46.0262 13.0143 599 87.414 1185.31 529.361
2660 0 48.014 14.1625 680 84.4765 1184.7 527.56
2661 0 48.0857 12.6857 610 88.4951 1184.49 527.475
2662 0 51.0756 15.4673 790 83.4873 1184.32 524.901
2663 0 52.0891 14.4176 751 85.0679 1184.06 525.96
2664 0 54.0236 14.6047 789 84.2864 1184.31 525.029
2665 0 51.0898 13.2316 676 88.8462 1184.64 523.278
2666 0 57.0442 13.9892 798 85.9637 1185.18 524.216
2667 0 57.0419 14.6384 835 85.9413 1185.22 521.783
2668 0 57.0519 14.1625 808 85.9233 1184.47 523.222
2669 0 62.1244 14.6158 908 83.2434 1184.59 521.508
2670 0 62.0504 13.3279 827 87.3011 1183.88 520.508
2671 0 66.1142 14.8682 983 84.5402 1183.75 520.049
2672 0 67.043 13.111 879 88.3015 1183.86 518.238
2673 0 70.1021 14.8783 1043 84.7095 1183.33 517.26
2674 0 73.109 14.6494 1071 85.4463 1184.41 516.2
2675 0 76.0746 14.7224 1120 84.2062 1184.92 515.874
2676 0 77.1076 14.0712 1085 85.3512 1183.86 515.034
2677 0 80.1404 15.086 1209 82.9802 1184.15 514.18
2678 0 83.0676 14.4461 1200 84.525 1183.7 511.669
2679 0 85.0789 14.3396 1220 84.1213 1183.56 510.03
2680 0 88.2454 14.0857 1243 84.6082 1183.72 510.51
2681 0 91.2241 15.018 1370 82.2409 1184.12 506.163
2682 1 44.1421 14.0229 619 81.9806 1184.12 531.027
2683 0 44.0651 14.229 627 82.7783 1183.96 530.93
2684 0 43.0381 13.035 561 86.5116 1183.25 528.583
2685 0 47.1183 13.6253 642 83.7352 1183.25 527.305
2686 0 49.1035 16.007 786 78.771 1183.67 527.772
2687 0 49.0623 13.6765 671 82.4531 1183.72 527.525
2688 0 52.0385 13.4708 701 82.8944 1184.52 525.308
2689 0 55.0288 15.0285 827 77.6372 1184.08 525.543
2690 0 54.1027 13.8256 748 81.7406 1183.73 523.968
2691 0 56.1318 12.9873 729 81.5075 1183.46 526.75
2692 0 60.2073 15.4965 933 76.2658 1183.63 524.253
2693 0 61.0362 15.4007 940 76.4255 1183.93 522.455
2694 0 62.1019 14.0736 874 79.1018 1184.24 522.381
2695 0 63.0712 13.8891 876 80.1998 1183.94 520.798
2696 0 67.1826 13.9173 935 79.3123 1184.28 519.805
2697 0 68.1134 14.285 973 78.5303 1184.22 518.668
2698 0 72.1288 15.1119 1090 76.9505 1184.58 517.354
2699 0 71.0842 14.2788 1015 79.1369 1184.14 516.253
2700 0 75.1504 15.3159 1151 77.1408 1184.36 515.342
2701 0 76.072 14.1182 1074 79.6369 1184.95 513.472
2702 0 79.0355 15.8283 1251 76.6123 1184.79 512.457
2703 0 82.0363 14.7252 1208 77.4023 1184.19 512.002
2704 0 82.0755 13.646 1120 79.958 1184.97 510.161
2705 0 83.1299 14.1706 1178 79.3379 1184.07 508.492
2706 1 43.0538 12.4728 537 80.1378 1183.45 529.596
2707 0 45.0437 13.1872 594 78.7929 1183.99 527.825
2708 0 44.0331 12.0364 530 82.2774 1184.68 526.36
2709 0 47.0373 13.2873 625 79.224 1184.37 528.522
2710 0 49.0217 13.6266 668 79.0105 1183.67 527.271
2711 0 50.0651 13.3826 670 78.697 1184.43 528.666
2712 0 51.1217 13.2429 677 79.1625 1185.27 526.793
2713 0 51.1002 14.1487 723 77.8409 1185.03 524.461
2714 0 54.1718 13.8633 751 78.0999 1184.36 522.515
2715 0 56.0487 14.4874 812 76.3227 1184.75 524.47
2716 0 58.11 13.8014 802 77.0461 1184.43 522.772
2717 0 60.0644 14.318 860 77.1686 1184.73 520.917
2718 0 62.1086 14.8289 921 75.6851 1184.74 519.291
2719 0 63.0652 14.3661 906 76.9018 1185.44 519.401
2720 0 67.1193 15.4054 1034 74.5261 1185.2 518.574
2721 0 68.0274 12.9654 882 78.8617 1185.18 517.248
2722 0 70.1251 13.4902 946 78.6808 1185.43 515.575
2723 0 71.1122 12.656 900 79.9344 1185.29 515.036
2724 0 74.0821 14.4299 1069 76.9298 1184.77 513.207
2725 0 76.12 12.0993 921 80.2606 1184.58 513.876
2726 0 77.0983 13.8914 1071 78.6685 1184.55 510.332
2727 0 79.0714 13.1527 1040 79.8096 1184.25 511.08
2728 0 81.1153 12.8952 1046 80.6998 1185.26 511.03
2729 0 85.1212 14.0036 1192 77.9799 1185.17 509.285
2730 0 88.065 13.5355 1192 78.7634 1184.61 508.488
2731 0 90.0968 12.9638 1168 80.1353 1185 502.478
2732 1 45.017 12.3065 554 80.9531 1183.49 523.807
2733 0 47.1011 12.4201 585 79.9761 1184.75 523.477
2734 0 48.0582 12.5889 605 80.7984 1184.89 522.836
2735 0 51.0999 13.9139 711 77.6076 1184.33 522.114
2736 0 52.0981 11.5743 603 81.5506 1184.53 522.236
2737 0 52.0679 12.9062 672 80.1399 1184.35 519.866
2738 0 55.1399 12.9852 716 78.8589 1184.56 519.165
2739 0 55.0728 12.9828 715 79.3343 1184.34 518.476
2740 0 57.0905 12.4189 709 79.6262 1184.58 519
2741 0 58.0247 13.3736 776 78.8724 1185.08 516.514
2742 0 60.0938 12.547 754 79.3753 1185.48 515.942
2743 0 63.0894 14.2496 899 76.3537 1185.45 512.481
2744 0 65.1171 12.9766 845 78.2793 1185.38 511.36
2745 0 68.0592 13.8262 941 76.423 1185.68 512.7
2746 0 71.074 13.4508 956 76.7552 1185.86 511.931
2747 0 73.0796 13.6153 995 76.4523 1185.54 510.787
2748 0 73.0926 12.8604 940 77.3521 1185.59 508.111
2749 0 78.0769 13.9606 1090 75.344 1185.65 508.034
2750 0 81.0908 13.3431 1082 75.732 1184.82 505.518
2751 0 84.1559 14.6395 1232 73.3271 1185.12 504.591
2752 0 87.1275 14.6337 1275 73.2345 1185.03 503.211
2753 0 91.1541 13.1097 1195 74.6427 1184.93 504.341
2754 0 94.1243 14.3321 1349 71.9607 1185.37 503.425
2755 0 96.15 13.9262 1339 72.3592 1185.02 503.444
2756 0 99.1277 14.6175 1449 71.7916 1185.32 498.449
2757 1 48.0708 11.275 542 74.5369 1185.61 525.624
2758 0 50.0211 11.3152 566 74.0583 1185.56 523.859
2759 0 51.0278 12.7774 652 72.1181 1185.44 522.425
2760 0 52.0898 11.9025 620 72.8726 1185.38 523.55
2761 0 55.2656 12.1052 669 71.8774 1185.67 522.623
2762 0 58.1113 13.1816 766 70.2467 1185.42 520.765
2763 0 57.1024 12.1711 695 72.7424 1185.63 519.045
2764 0 60.1267 12.141 730 72.2014 1185.4 517.801
2765 0 64.1002 14.5241 931 68.0473 1185.83 516.487
2766 0 64.169 12.3892 795 71.6264 1185.3 515.579
2767 0 68.0914 14.4071 981 67.4281 1185.25 516.54
2768 0 68.2465 13.0263 889 70.865 1186.07 513.207
2769 0 68.1651 12.279 837 71.3572 1186.38 516.124
2770 0 72.0815 13.235 954 70.0692 1186.06 511.904
2771 0 75.2109 13.03 980 69.5214 1185.94 513.884
2772 0 75.1686 12.8245 964 70.6214 1186.41 510.757
2773 0 79.1935 12.3748 980 70.7337 1187.25 510.364
2774 0 81.2679 13.0679 1062 69.5697 1186.2 508.442
2775 0 84.127 15.3577 1292 66.733 1186.32 506.971
2776 1 42.2493 11.3848 481 68.7401 1186.38 527.96
2777 0 43.0731 10.9349 471 69.3057 1186.5 528.17
2778 0 42.0597 9.24876 389 71.599 1186.66 529.26
2779 0 45.0957 10.0675 454 69.9097 1186.61 527.72
2780 0 47.0642 11.4524 539 68.462 1186 524.779
2781 0 49.1181 11.5232 566 68.4594 1185.68 524.717
2782 0 49.1358 11.1528 548 68.7774 1186.53 524.526
2783 0 50.0617 11.7056 586 67.971 1186.23 524.466
2784 0 54.0567 12.5609 679 66.1164 1185.75 522.116
2785 0 53.0352 10.4836 556 69.2896 1185.55 521.444
2786 0 54.3073 10.9746 596 68.7903 1185.71 519.841
2787 0 56.095 11.7479 659 68.7436 1185.61 518.885
2788 0 57.1934 11.3824 651 69.2335 1186.48 521.121
2789 0 60.1322 11.1421 670 69.4955 1186.25 516.937
2790 0 62.1921 12.6061 784 67.1837 1186.16 517.588
2791 0 64.2273 11.3347 728 68.2335 1185.97 517.703
2792 0 65.1515 13.4456 876 66.4886 1186.36 515.097
2793 0 66.2463 11.3365 751 69.1438 1186.07 515.166
2794 0 69.2072 12.0508 834 68.2218 1186.33 513.513
2795 0 72.1354 11.5893 836 68.8577 1185.98 514.2
2796 0 73.1229 12.3764 905 68.2608 1185.47 512.883
2797 1 39.1428 11.4964 450 65.6756 1185.82 531.053
2798 0 39.1286 10.4016 407 69.1179 1185.79 528.415
2799 0 38.1203 10.7292 409 69.7115 1186.69 526.513
2800 0 41.1 10.5839 435 68.6391 1187.01 527.844
2801 0 39.0976 10.4098 407 71.6486 1185.94 524.663
2802 0 42.1833 10.6914 451 70.9978 1186.33 524.559
2803 0 46.0785 11.003 507 68.8935 1186.21 523.878
2804 0 45.1615 11.2928 510 69.5137 1186.91 523.739
2805 0 47.078 10.1109 476 70.3235 1187.02 526.437
2806 0 49.2797 11.5463 569 68.7891 1185.92 522.104
2807 0 49.1096 11.4642 563 69.7638 1187.08 520.456
2808 0 51.186 10.96 561 69.8449 1186.12 522.246
2809 0 52.1193 11.0899 578 69.3149 1186.63 522.488
2810 0 54.1206 10.994 595 69.2454 1186.23 520.393
2811 0 53.0256 10.9381 580 69.6638 1185.83 521.066
2812 0 59.1494 13.8125 817 64.7246 1186 519.224
2813 0 59.0736 12.0528 712 67.7163 1186.41 518.181
2814 0 59.2047 12.347 731 68.2859 1186.75 515.728
2815 0 62.1287 11.1865 695 69.1525 1186.8 516.294
2816 0 63.1368 11.8473 748 68.4438 1186.69 514.37
2817 0 67.0884 11.2687 756 68.955 1186.78 514.225
2818 0 67.1647 10.6752 717 69.258 1186.41 516.173
2819 0 71.2241 11.9903 854 67.4789 1186.44 513.996
2820 0 72.0571 11.1023 800 69.165 1186.49 514.514
2821 1 36.0821 9.72782 351 68.3333 1185.81 530.994
2822 0 40.0501 8.96378 359 68.6323 1186.23 530.758
2823 0 39.0767 10.5946 414 67.8647 1185.92 529.266
2824 0 41.0604 10.1558 417 68.3429 1186.63 528.161
2825 0 41.0624 11.3242 465 68.5849 1186.7 525.77
2826 0 44.085 12.4532 549 65.6029 1186.36 526.832
2827 0 44.0775 12.0697 532 66.265 1186.63 528.59
2828 0 47.0884 11.128 524 67.6527 1186.5 526.552
2829 0 47.0819 11.4906 541 67.9279 1186.02 525.052
2830 0 48.0187 12.6409 607 66.1532 1186.09 524.112
2831 0 51.1353 11.5576 591 67.0102 1186.24 525.355
2832 0 50.0568 11.7866 590 67.6136 1185.78 525.437
2833 0 53.0864 12.0935 642 67.1526 1185.86 521.76
2834 0 54.0093 10.9796 593 68.1231 1186.23 522.123
2835 0 56.0774 11.288 633 67.9731 1186.56 520.618
2836 0 57.0614 12.3025 702 66.7322 1186.79 520.66
2837 0 58.0563 11.2132 651 68.4869 1185.99 518.846
2838 0 59.1036 10.8792 643 68.6314 1186.92 519.162
2839 0 61.0782 11.6899 714 67.5112 1186.61 518.322
2840 0 63.0574 12.4331 784 66.9375 1186.55 515.305
2841 0 66.0669 10.898 720 67.6486 1186.41 515.511
2842 0 68.0665 12.5025 851 65.678 1186.76 513.048
2843 0 68.1275 10.7592 733 68.2196 1186.35 513.296
2844 0 71.1107 12.2063 868 66.0553 1187.1 512.827
2845 0 74.0463 11.9655 886 66.5711 1186.76 509.159
2846 0 75.1268 10.9814 825 68.5067 1186.88 506.707
2847 1 38.0609 9.01188 343 67.9504 1187.51 526.81
2848 0 41.0362 11.4289 469 64.7441 1187.8 525.608
2849 0 42.0294 10.7782 453 65.5784 1188.06 525.923
2850 0 42.0181 9.40071 395 68.4658 1187.39 523.835
2851 0 45.0939 10.9771 495 66.0404 1187.58 520.762
2852 0 47.0274 10.781 507 65.3708 1187.94 522.333
2853 0 47.0422 10.4162 490 66.651 1187.92 520.18
2854 0 49.0474 9.66412 474 66.2932 1187.6 521.015
2855 0 50.0216 9.31598 466 66.4678 1188.14 520.629
2856 0 52.0882 11.5957 604 63.8775 1188.27 518.045
2857 0 54.0629 10.9132 590 64.6356 1187.96 517.514
2858 0 54.0479 10.0836 545 65.6349 1187.67 517.094
2859 0 56.0355 12.9739 727 61.9106 1188 517.442
2860 0 56.1371 10.2784 577 65.9047 1187.38 516.523
2861 0 58.0212 9.68612 562 66.4182 1186.63 514.612
2862 0 59.0941 10.1871 602 66.1993 1186.99 513.643
2863 0 62.1457 10.8937 677 64.5938 1187.75 514.417
2864 0 67.0964 11.8486 795 62.556 1187.69 513.738
2865 0 65.0985 11.3367 738 63.5163 1187.09 511.702
2866 0 67.1007 11.4753 770 63.3455 1187.94 511.214
2867 0 71.0633 11.9612 850 62.6153 1187.56 510.009
2868 0 71.1336 11.6401 828 63.494 1187.45 508.043
2869 0 74.1675 11.4336 848 63.0649 1187.47 509.455
2870 0 74.0701 9.68002 717 65.7727 1187.54 506.753
2871 0 78.1295 10.2778 803 64.4222 1187.5 507.435
2872 1 41.0422 8.47907 348 64.5632 1187.54 524.951
2873 0 43.0315 9.2258 397 62.8791 1188.38 527.108
2874 0 44.0577 9.39678 414 64.0217 1188.09 523.198
2875 0 46.0486 10.3369 476 61.7752 1188.17 523.571
2876 0 43.0345 10.7356 462 62.6883 1187.95 521.667
2877 0 48.1286 10.7836 519 62.2331 1187.33 519.902
2878 0 49.165 10.3936 511 61.8982 1187.96 523.342
2879 0 51.0515 11.7137 598 60.9013 1187.95 521.156
2880 0 53.0245 11.4098 605 61.3984 1188.09 521.069
2881 0 55.0436 11.5181 634 61.2098 1188.11 518.662
2882 0 54.1374 10.1224 548 63.1843 1187.69 520.281
2883 0 58.0148 11.7039 679 60.7894 1187.72 519.222
2884 0 58.0498 10.4221 605 62.8793 1188.01 518.588
2885 0 60.1614 12.0177 723 60.8022 1188.2 516.584
2886 0 63.0438 10.9765 692 61.8902 1187.93 515.873
2887 0 63.0894 11.2697 711 62.1632 1187.65 513.322
2888 0 66.1166 11.8276 782 61.0512 1188.1 514.221
2889 0 65.0486 10.2231 665 63.788 1188.02 512.511
2890 0 69.0731 11.4082 788 61.8109 1187.76 511.992
2891 0 69.2648 11.3478 786 62.0814 1188.34 510.551
2892 0 70.1082 10.6692 748 63.5562 1188.4 510.088
2893 0 74.0374 11.4131 845 62.9882 1188.62 508.137
2894 0 73.2293 10.3237 756 64.7646 1187.63 509.575
2895 0 78.2032 11.1121 869 63.3003 1188.13 507.746
2896 1 41.0854 8.51884 350 64.0686 1187.39 526.883
2897 0 43.0564 10.9159 470 61.3468 1187.93 526.192
2898 0 44.1281 10.1296 447 61.6242 1188.05 527.564
2899 0 45.0672 10.0738 454 63.0617 1187.11 525.09
2900 0 45.1091 10.7739 486 63.2263 1187.61 523.342
2901 0 50.0622 12.5244 627 59.2903 1187.26 525.287
2902 0 48.1103 9.87314 475 64.4653 1187.57 523.392
2903 0 48.1122 11.6187 559 63.0268 1187.34 523.17
2904 0 51.0515 10.9889 561 63.41 1186.39 522.234
2905 0 51.0644 11.0645 565 64.3097 1187.36 521.14
2906 0 55.1252 12.1904 672 62.2753 1187.04 521.74
2907 0 55.0849 12.8166 706 62.4915 1187 521.16
2908 0 56.1974 13.2924 747 62.4618 1187.38 518.008
2909 0 58.1011 12.0135 698 63.3897 1186.41 519.405
2910 0 58.0671 12.0206 698 64.0401 1186.4 518.676
2911 0 61.1234 12.0248 735 64.1701 1186.62 517.928
2912 0 63.0672 12.336 778 63.0604 1187.03 515.652
2913 0 64.1079 11.8394 759 63.7984 1186.69 516.947
2914 0 68.239 13.0424 890 61.6236 1186.49 516.018
2915 0 68.1278 12.2711 836 62.7584 1187.01 515.803
2916 0 70.167 13.9667 980 60.7826 1186.83 511.847
2917 0 72.1739 13.7307 991 61.0969 1187.05 511.795
2918 0 73.1885 12.6933 929 62.591 1187.13 511.523
2919 0 77.1998 12.5389 968 62.3709 1186.32 511.489
2920 0 78.1827 13.1615 1029 61.3479 1186.96 509.748
2921 1 39.0813 9.41628 368 63.7745 1187.2 530.052
2922 0 41.0441 9.3558 384 65.2812 1187.03 527.245
2923 0 43.1612 10.5187 454 63.2577 1187.1 526.579
2924 0 42.0817 10.9311 460 63.8609 1187.5 525.776
2925 0 45.0976 10.2666 463 64.8078 1187.05 523.536
2926 0 47.054 12.8151 603 61.0813 1186.33 522.942
2927 0 48.0254 13.0764 628 60.7659 1186.83 523.01
2928 0 49.0588 12.4544 611 62.4124 1187.65 521.586
2929 0 53.1216 14.0056 744 59.328 1186.18 521.438
2930 0 52.1289 11.6058 605 63.1521 1187.08 523.208
2931 0 54.1632 13.4409 728 61.4176 1186.58 520.999
2932 0 54.1022 12.4394 673 62.6152 1186.87 522.724
2933 0 53.0697 12.135 644 65.1087 1187.05 519.256
2934 0 57.0698 12.476 712 64.0506 1187.03 518.413
2935 0 58.0984 10.8437 630 65.6254 1186.67 519.741
2936 0 62.169 14.2997 889 60.712 1187.21 518.848
2937 0 63.0704 12.4305 784 63.4464 1186.89 518.573
2938 0 64.037 12.5084 801 63.2072 1186.94 516.891
2939 0 64.0767 12.6411 810 64.5346 1186.32 514.499
2940 0 66.1889 12.7212 842 64.4371 1186.65 513.166
2941 0 67.1138 11.771 790 65.3722 1186.19 513.944
2942 0 71.1151 12.9087 918 63.2821 1187.3 514.674
2943 0 73.1947 13.9218 1019 62.211 1186.91 512.436
2944 0 75.0795 13.3458 1002 63.2705 1186.44 508.57
2945 0 76.1238 12.322 938 64.6397 1186.86 509.158
2946 0 78.1487 12.9497 1012 64.079 1186.99 508.091
2947 0 81.0942 12.3807 1004 64.6524 1186.75 507.133
2948 0 85.1374 13.2139 1125 63.5164 1186.62 504.87
2949 1 44.1052 10.3389 456 65.5855 1186.38 524.167
2950 0 46.085 11.1316 513 64.0234 1186.57 521.602
2951 0 46.0391 10.3825 478 66.0795 1186.87 522.931
2952 0 50.0628 11.6853 585 63.4479 1186.65 522.598
2953 0 50.076 11.5025 576 64.2639 1187.01 522.101
2954 0 52.0373 11.6455 606 63.698 1186.44 522.594
2955 0 52.056 11.891 619 64.1777 1186.33 521.024
2956 0 53.026 12.5033 663 63.8039 1186.31 520.502
2957 0 55.0392 11.9551 658 64.1155 1186.74 520.394
2958 0 56.0357 13.1345 736 63.5625 1186.94 518.122
2959 0 56.0443 10.688 599 66.5142 1186.84 519.471
2960 0 57.0509 11.5511 659 65.7178 1186.48 517.423
2961 0 61.1021 12.6019 770 64.8675 1186.85 514.936
2962 0 61.1154 11.2738 689 66.762 1186.62 514.361
2963 0 63.1089 11.2979 713 66.1739 1187.15 517.442
2964 0 67.081 12.2687 823 64.6598 1186.81 515.362
2965 0 67.1399 11.5878 778 65.982 1186.75 514.477
2966 0 69.089 11.9411 825 65.7903 1186.32 512.845
2967 0 69.1214 11.1109 768 67.3841 1186.29 510.615
2968 0 70.0546 11.9764 839 66.2646 1185.87 511.219
2969 1 35.0378 9.50402 333 66.7598 1186.07 528.369
2970 0 38.0792 9.61156 366 66.918 1186.11 526.877
2971 0 40.1045 11.9438 479 64.0125 1186.49 526.125
2972 0 41.0662 11.4206 469 65.1471 1187.07 528.422
2973 0 42.0571 10.9613 461 65.6594 1187.02 528.197
2974 0 42.1212 12.013 506 64.7411 1186.87 526.796
2975 0 42.0554 12.3647 520 64.625 1186.42 527.504
2976 0 43.0375 10.8045 465 67.5936 1187.2 523.57
2977 0 46.0309 10.6233 489 67.1718 1187.19 524.706
2978 0 48.045 12.1344 583 64.9074 1186.84 524.727
2979 0 48.0458 12.051 579 65.8497 1186.61 523.998
2980 0 48.1013 10.1868 490 68.8939 1186.73 524.892
2981 0 51.0694 12.062 616 66.8847 1186.57 521.506
2982 0 51.0313 12.3454 630 67.1222 1186.96 520.014
2983 0 52.1383 12.0449 628 67.7293 1186.58 520.126
2984 0 54.0636 12.5593 679 66.3756 1186.41 520.969
2985 0 53.0672 12.0225 638 67.594 1186.12 519.555
2986 0 56.0615 11.9512 670 67.9224 1186.76 515.596
2987 0 59.1836 14.0073 829 63.7961 1187.18 514.199
2988 0 60.0633 11.4046 685 67.9095 1186.53 512.851
2989 0 63.057 12.9407 816 65.4828 1186.55 513.636
2990 0 65.072 12.248 797 65.2974 1186.24 513.002
2991 0 66.0487 11.6278 768 66.2917 1185.98 514.138
2992 0 67.0568 12.7355 854 65.4063 1186.08 511.619
2993 0 70.1147 12.8361 900 64.3022 1187.19 512.756
2994 0 72.1105 13.091 944 64.2585 1187.18 509.788
2995 0 75.1918 12.4881 939 64.7881 1186.4 509.131
2996 1 38.0133 9.99651 380 64.9921 1186.77 529.521
2997 0 39.09 11.1026 434 64.4447 1186.68 525.788
2998 0 38.0328 10.7539 409 65.3203 1186.09 526.775
2999 0 42.0111 11.5922 487 63.7762 1186.85 525.626
3000 0 43.0114 9.60211 413 66.2542 1186.72 526.433
3001 0 44.0492 12.1909 537 62.6294 1186.45 523.624
3002 0 45.2185 11.4334 517 63.0503 1186.92 525.545
3003 0 46.0405 12.2935 566 62.7526 1187.32 524.026
3004 0 47.0313 11.014 518 63.9942 1186.63 524.612
3005 0 48.0583 12.797 615 62.0732 1187.17 521.39
3006 0 48.0289 11.4931 552 63.7228 1187.26 523.976
3007 0 49.0246 10.9741 538 65.5297 1187.22 520.375
3008 0 50.0484 10.37 519 65.867 1187.02 521.723
3009 0 51.0553 9.94999 508 66.8406 1186.13 521.146
3010 0 54.1248 12.582 681 62.3377 1186.53 520.091
3011 0 55.0656 11.5317 635 64.7543 1187.09 517.696
3012 0 54.0215 12.8282 693 63.5527 1187.11 519.046
3013 0 57.1459 11.3394 648 65.4753 1187.37 517.673
3014 0 58.0642 12.0728 701 64.9429 1187.34 516.18
3015 0 61.1293 11.6147 710 65.5282 1187.09 515.676
3016 0 62.1297 11.3955 708 65.2853 1186.89 515.301
3017 0 60.1551 10.955 659 67.3581 1187.67 514.387
3018 0 66.1143 13.4615 890 63.0921 1187.37 513.072
3019 0 66.081 12.1517 803 65.6949 1186.68 512.324
3020 0 69.1325 13.9298 963 62.405 1187.21 513.838
3021 1 34.0307 8.78619 299 67.9866 1187.05 528.88
3022 0 37.0564 9.98479 370 66.3676 1186.82 528.254
3023 0 36.0853 9.03414 326 69.5736 1186.78 526.153
3024 0 36.0334 10.74 387 67.1447 1187.03 526.305
3025 0 40.0455 10.588 424 66.691 1187.31 527.068
3026 0 42.0576 11.5793 487 64.5031 1187.11 526.398
3027 0 43.0463 10.6397 458 66.8624 1187.08 524.24
3028 0 43.028 10.2259 440 67.85 1186.85 525.182
3029 0 45.1276 12.0326 543 64.6188 1187.24 523.519
3030 0 48.0543 11.7367 564 64.6773 1187.14 521.463
3031 0 47.0641 10.1564 478 67.1736 1187.37 521.607
3032 0 48.1211 10.1411 488 66.834 1187.12 521.822
3033 0 51.0662 12.6502 646 63.5495 1186.94 519.977
3034 0 53.0439 10.5196 558 65.7706 1187.52 519.557
3035 0 55.098 11.7609 648 63.8966 1187.15 518.665
3036 0 55.0858 10.9466 603 65.0365 1186.43 517.624
3037 0 56.0963 10.4463 586 65.727 1186.33 518.398
3038 0 60.0497 12.14 729 63.7476 1186.1 515.35
3039 0 60.0776 11.0857 666 65.6201 1187.45 514.632
3040 0 63.1382 12.2905 776 63.7307 1186.44 514.256
3041 0 64.028 12.0572 772 64.5246 1186.73 512.705
3042 0 66.1246 12.3101 814 63.9656 1186.86 511.101
3043 0 69.1059 13.6747 945 62.654 1186.46 509.507
3044 0 69.046 11.543 797 65.4994 1186.44 509.021
3045 0 71.081 10.0027 711 67.685 1186.71 509.862
3046 1 38.0449 9.06823 345 66.6812 1186.21 526.246
3047 0 37.0291 9.53304 353 66.2493 1186.7 527.074
3048 0 39.0496 9.78244 382 65.9031 1186.97 526.806
3049 0 42.0759 11.7645 495 63.0768 1186.92 525.255
3050 0 41.0537 8.50106 349 67.7708 1186.22 526.054
3051 0 44.0234 11.3349 499 64.4088 1185.81 523.994
3052 0 43.0317 9.50463 409 66.2469 1186.7 522.557
3053 0 47.0364 11.1191 523 64.0784 1186.72 521.143
3054 0 45.0274 10.216 460 66.3348 1186.75 520.439
3055 0 48.0439 11.8017 567 63.4462 1186.47 522.455
3056 0 49.0661 10.4145 511 66.6164 1187 520.609
3057 0 49.111 11.4435 562 65.9484 1186.61 518.431
3058 0 52.0549 10.5658 550 66.6873 1186.6 515.996
3059 0 54.1286 11.251 609 65.2381 1186.43 517.322
3060 0 55.1935 12.5558 693 64.3232 1186.38 515.749
3061 0 58.1226 12.0951 703 63.771 1186.8 514.337
3062 0 60.1128 10.8629 653 65.3017 1186.86 514.384
3063 0 62.0435 12.2978 763 63.4522 1186.91 513.06
3064 0 62.1156 10.9795 682 65.8739 1186.98 514.238
3065 0 64.0973 11.4201 732 64.8593 1186.88 514.001
3066 0 67.0802 11.5235 773 64.8913 1187.01 511.794
3067 0 69.0681 13.1899 911 62.4566 1186.95 511.05
3068 0 67.0737 9.86974 662 67.4275 1186.68 508.063
3069 0 71.1356 10.965 780 66.2333 1187.22 507.478
3070 0 74.2078 11.4813 852 64.9437 1187.03 506.553
3071 0 76.066 9.96504 758 67.0686 1186.44 505.914
3072 0 78.1629 9.95357 778 67.1581 1186.74 504.8
3073 0 83.052 12.2453 1017 63.4848 1186.97 503.307
3074 1 40.0593 8.58726 344 65.8983 1186.96 523.919
3075 0 41.0221 8.77575 360 65.6417 1186.21 524.856
3076 0 42.0348 8.6119 362 64.8591 1186.49 525.138
3077 0 45.07 9.89572 446 63.3004 1186.81 523.478
3078 0 45.0405 10.6127 478 62.6339 1186.41 521.408
3079 0 46.0846 10.025 462 63.3896 1187.61 520.193
3080 0 46.0609 10.1822 469 63.5608 1187.43 520.444
3081 0 50.0646 12.1843 610 60.3246 1187.35 520.685
3082 0 51.0298 13.3255 680 59.6309 1187.7 519.485
3083 0 51.0235 11.5241 588 62.4932 1187.07 518.357
3084 0 54.0584 10.5996 573 63.1815 1187.45 518.752
3085 0 55.0869 11.0916 611 62.7136 1187.61 518.288
3086 0 56.075 11.1814 627 62.6555 1187.02 517.418
3087 0 57.1355 8.89114 508 65.7697 1187.1 516.039
3088 0 60.1044 11.5965 697 62.2009 1187.05 515.136
3089 0 62.0842 10.4858 651 63.7204 1187.47 513.055
3090 0 63.208 10.4575 661 63.3964 1186.98 513.732
3091 0 64.1596 10.4895 673 64.2511 1187.95 510.851
3092 0 66.0945 12.467 824 61.5837 1187.42 510.587
3093 0 66.0893 10.4102 688 64.6105 1187.43 511.699
3094 0 71.1209 11.3609 808 63.672 1187.03 508.943
3095 0 71.0503 11.8367 841 64.1665 1186.99 508.31
3096 0 74.1486 11.2072 831 64.1974 1187.12 508.747
3097 0 77.0483 12.3429 951 63.1546 1187.77 505.405
3098 0 78.1325 11.2501 879 64.7418 1187.4 504.255
3099 0 81.1329 11.4873 932 64.1706 1187.47 504.44
3100 1 42.0212 10.6613 448 63.6138 1187.37 523.862
3101 0 43.094 8.91076 384 65.6615 1187.68 523.805
3102 0 43.0642 9.56712 412 65.4418 1187.85 523.648
3103 0 44.1119 10.3827 458 65.3603 1187.16 520.234
3104 0 45.0965 9.42422 425 66.6494 1187.76 520.047
3105 0 47.0627 11.1978 527 64.1499 1187.43 520.677
3106 0 50.0448 11.0901 555 64.2721 1187.9 519.263
3107 0 50.0548 10.3087 516 66.0969 1187.92 517.795
3108 0 53.0827 11.7364 623 64.069 1187.66 517.037
3109 0 54.0704 11.2631 609 65.6158 1188.12 517.466
3110 0 55.0308 10.9939 605 66.5769 1188.12 516.909
3111 0 57.1118 11.959 683 64.8594 1188.36 515.918
3112 0 59.1887 10.9311 647 66.4173 1187.46 513.981
3113 0 62.0663 12.4061 770 63.5247 1186.86 513.97
3114 0 63.0628 12.0673 761 64.3088 1187.27 512.34
3115 0 63.0544 11.6883 737 65.3392 1187.73 510.779
3116 0 65.0981 13.0419 849 63.1531 1187.52 510.572
3117 0 66.1001 10.1513 671 66.7735 1187.44 509.376
3118 0 71.1256 12.26 872 63.7649 1187.65 505.873
3119 1 34.0098 8.8504 301 66.2724 1188.06 525.85
3120 0 37.0274 11.64 431 63.2111 1187.43 523.364
3121 0 38.0096 9.55021 363 66.708 1189.19 523.898
3122 0 40.0776 9.4816 380 65.8868 1187.95 523.853
3123 0 41.0921 10.3913 427 65.548 1187.56 522.534
3124 0 44.0284 11.5607 509 63.3792 1187.99 519.817
3125 0 44.0834 10.2079 450 65.2822 1187.65 518.893
3126 0 46.0688 10.875 501 65.004 1187.72 519.09
3127 0 46.0339 11.5132 530 64.4189 1188.37 517.217
3128 0 50.0458 11.4095 571 64.31 1188.31 515.792
3129 0 50.0572 11.6667 584 63.8322 1188.24 516.647
3130 0 52.19 11.7839 615 63.5886 1187.77 516.537
3131 0 53.0135 12.959 687 62.6114 1187.71 515.434
3132 0 56.0226 13.8516 776 60.875 1187.55 513.793
3133 0 56.1636 12.8019 719 62.4812 1187.42 515.316
3134 0 57.0611 12.7057 725 63.8786 1188.24 511.248
3135 0 58.0847 11.6898 679 64.972 1187.65 513.202
3136 0 61.0818 12.5569 767 63.3312 1187.63 511.803
3137 0 62.1552 12.1309 754 64.2493 1187.34 510.964
3138 0 64.0594 12.5821 806 63.1377 1187.69 509.842
3139 0 64.1328 11.6165 745 64.8188 1187.32 509.447
3140 0 66.1211 11.3126 748 65.7955 1187.45 508.016
3141 0 69.1046 11.5767 800 64.3775 1187.33 509.792
3142 0 70.1176 12.3649 867 64.316 1187.24 506.851
3143 1 35.0213 9.25152 324 65.7562 1186.84 523.772
3144 0 38.099 12.7825 487 60.5811 1186.43 522.7
3145 0 37.0633 11.1161 412 63.1384 1186.21 524.223
3146 0 37.0257 11.6136 430 63.7186 1185.97 521.642
3147 0 40.0567 10.2105 409 64.8582 1186.14 523.193
3148 0 41.0541 10.3522 425 65.0353 1185.87 522.228
3149 0 43.0362 12.8496 553 61.604 1186.24 522.047
3150 0 44.0548 11.1452 491 63.9124 1186.55 522.819
3151 0 44.0781 11.094 489 65.1329 1185.81 521.127
3152 0 48.3548 18.6951 904 45.0808 1184.81 520.567
3153 0 46.0565 12.0287 554 64.6787 1186.42 519.157
3154 0 48.0273 11.0979 533 65.7373 1186.09 520.514
3155 0 49.0956 12.6081 619 64.1616 1185.17 518.926
3156 0 50.0683 13.4416 673 62.7296 1185.27 518.718
3157 0 53.1832 13.2373 704 62.4205 1185.42 519.241
3158 0 55.1354 11.4808 633 64.346 1185.82 518.45
3159 0 53.1061 11.6936 621 65.4251 1186.06 516.667
3160 0 56.1141 13.1874 740 63.1959 1186 516.888
3161 0 58.0549 13.3667 776 62.8853 1185.72 515.666
3162 0 59.1049 12.96 766 63.4021 1185.49 513.61
3163 0 60.066 12.12 728 64.7308 1185.78 513.374
3164 0 64.0498 13.2085 846 62.1962 1185.69 513.282
3165 0 64.1372 11.8808 762 64.2192 1185.74 511.783
3166 0 64.1457 10.5541 677 66.4801 1185.21 510.417
3167 0 65.0616 13.2336 861 63.6632 1185.07 507.052
3168 1 34.0229 9.81692 334 64.8473 1184.98 524.467
3169 0 33.0501 8.53251 282 67.0106 1185.89 525.596
3170 0 34.0478 10.6615 363 65.3361 1185.61 521.749
3171 0 35.0579 11.4667 402 64.495 1185.76 523.147
3172 0 38.0206 12.0724 459 62.8214 1185.9 523.887
3173 0 37.0291 10.8833 403 65.6377 1185.39 523.375
3174 0 39.0553 9.57615 374 67.5481 1185.85 522.893
3175 0 37.0335 10.531 390 66.4026 1185.64 519.418
3176 0 38.0097 9.8133 373 68.1796 1185.87 521.869
3177 0 41.0365 10.7709 442 67.1086 1185.92 521.708
3178 0 39.0277 8.27618 323 71.1176 1185.69 520.285
3179 0 41.0338 9.74806 400 68.7325 1186.5 518.845
3180 0 43.0988 9.35062 403 70.0645 1185.64 518.097
3181 0 40.0332 9.49213 380 70.321 1185.21 518.084
3182 0 36.0424 7.29696 263 72.7224 1185.71 512.996
3183 1 51.043 12.0291 614 65.4463 1185.7 520.55
3184 0 50.0406 12.0902 605 66.1008 1186.14 518.01
3185 0 52.0267 12.6281 657 64.8478 1185.89 518.645
3186 0 56.0477 13.8632 777 62.8739 1186.29 517.593
3187 0 56.0875 12.7123 713 64.6241 1186.28 516.288
3188 0 60.0344 12.193 732 64.6612 1186.25 517.445
3189 0 58.03 12.1834 707 65.7327 1185.9 515.315
3190 0 62.0446 13.5064 838 63.7566 1186.18 512.505
3191 0 64.0326 12.5092 801 64.8152 1186.01 512.161
3192 0 67.0505 12.8709 863 63.5481 1186.3 513.211
3193 0 69.0455 13.397 925 63.8205 1186.4 509.563
3194 0 70.0831 13.6409 956 62.9958 1185.82 510.505
3195 0 71.0842 11.8592 843 66.0558 1185.91 509.028
3196 1 36.04 10.2109 368 66.3234 1186.36 526.109
3197 0 39.0467 10.8076 422 64.8815 1185.62 525.135
3198 0 39.0254 11.1722 436 64.9954 1186.19 525.328
3199 0 41.053 11.814 485 64.4186 1186.04 524.078
3200 0 44.0311 12.5593 553 63.34 1185.32 523.136
3201 0 43.0184 12.2971 529 64.3119 1185.26 523.603
3202 0 45.1068 13.5678 612 62.4444 1186.24 521.761
3203 0 48.008 14.3518 689 61.598 1185.61 521.493
3204 0 48.0166 11.1628 536 66.069 1185.48 520.494
3205 0 49.0424 11.0313 541 65.8115 1185.51 521.482
3206 0 49.0486 11.4988 564 65.9947 1185.88 518.238
3207 0 49.0276 11.1162 545 67.1486 1186.04 519.178
3208 0 52.0331 12.2038 635 64.7543 1185.59 518.51
3209 0 54.0474 11.6379 629 65.5946 1186.07 516.948
3210 0 57.1098 11.4166 652 65.658 1185.46 517.449
3211 0 59.0586 11.8865 702 65.3917 1186.34 514.735
3212 0 60.0394 12.4918 750 65.1187 1186.56 512.336
3213 0 61.0756 12.3781 756 65.6415 1186.38 511.944
3214 0 63.0666 11.8446 747 66.6399 1185.5 511.877
3215 0 65.0207 13.2727 863 64.9942 1187.21 510.108
3216 0 68.1333 13.0186 887 65.8275 1186.91 510.461
3217 1 35.0319 10.2763 360 64.8472 1186.74 528.053
3218 0 34.0462 10.2801 350 66.7857 1186.84 528.466
3219 0 37.0216 9.12982 338 67.8077 1187.1 527.083
3220 0 33.0102 8.78517 290 71.8966 1186.72 524.959
3221 0 36.0275 12.1851 439 67.098 1186.4 524.232
3222 0 40.0176 11.7698 471 65.775 1186.16 524.979
3223 0 42.0275 11.5639 486 66.0946 1186.41 524.502
3224 0 43.0386 11.2457 484 67.5661 1186.71 523.355
3225 0 44.0756 11.5483 509 66.7859 1186.59 522.54
3226 0 44.0368 11.4223 503 67.8151 1186.55 522.569
3227 0 45.0488 12.6529 570 66.8474 1186.64 520.082
3228 0 45.0482 10.3667 467 70.1221 1187.21 521.565
3229 0 45.0365 11.2353 506 70.4605 1187.11 521.089
3230 0 49.0275 10.4023 510 70.4922 1187.23 521.408
3231 0 49.0344 10.4213 511 70.4481 1187.51 521.98
3232 0 50.0376 10.9518 548 71.292 1187.25 519.374
3233 0 51.0456 11.813 603 69.5008 1186.44 519.561
3234 0 55.0552 12.9325 712 67.8371 1187.34 516.371
3235 0 55.0281 12.0484 663 68.8311 1187.13 517.814
3236 0 58.0234 12.9775 753 67.2895 1187.26 518.272
3237 0 61.0367 12.5662 767 67.7718 1186.45 518.149
3238 0 62.0536 13.021 808 67.5408 1186.82 515.684
3239 0 64.0396 12.6016 807 68.7187 1187.06 512.646
3240 0 66.11 12.7061 840 68.3119 1187.27 514.275
3241 0 66.0533 11.5664 764 69.1283 1187.24 515.898
3242 0 68.0835 11.339 772 70.158 1186.89 513.339
3243 0 73.0511 11.9095 870 68.9598 1186.83 512.399
3244 0 73.0553 13.1544 961 67.6847 1186.92 509.973
3245 0 77.0716 13.1307 1012 67.5553 1187.26 509.965
3246 0 78.0783 12.3722 966 69.0932 1186.63 508.077
3247 0 79.1108 12.2107 966 69.1056 1186.99 506.715
3248 0 84.0542 13.1463 1105 67.1086 1186.02 504.567
3249 0 85.1135 11.6315 990 69.6505 1185.64 503.769
3250 0 89.1401 12.6767 1130 68.3097 1186.35 501.612
3251 0 92.0936 12.129 1117 68.3232 1186.42 502.906
3252 0 93.0983 11.2139 1044 69.567 1185.93 501.66
3253 0 95.1683 11.2012 1066 70.3405 1186.04 498.087
3254 0 101.069 11.1211 1124 69.7358 1186.05 497.881
3255 0 105.172 11.8187 1243 68.0177 1186.33 499.4
3256 1 59.0526 12.0062 709 64.5275 1185.9 520.155
3257 0 62.1636 11.325 704 65.1946 1185.45 518.702
3258 0 62.0447 11.1855 694 66.3934 1185.35 516.439
3259 0 65.0446 10.4236 678 67.3274 1185.83 515.59
3260 0 65.0724 10.496 683 66.2416 1185.65 518.321
3261 0 69.0839 12.4631 861 63.6852 1185.36 515.829
3262 0 71.114 12.7682 908 63.489 1185.13 514.781
3263 0 72.1326 10.7025 772 66.1865 1184.93 515.719
3264 0 75.0711 11.3759 854 66.1557 1185.17 512.477
3265 0 76.0858 10.9876 836 66.6435 1185.32 510.106
3266 0 80.1152 10.9967 881 66.899 1185.76 508.949
3267 1 43.0713 10.0995 435 66.7839 1185.63 527.464
3268 0 43.0641 11.0301 475 66.501 1185.35 523.815
3269 0 43.0276 10.0633 433 67.7113 1185.17 525.522
3270 0 45.0184 10.529 474 66.8439 1185.82 525.601
3271 0 48.0606 11.4855 552 65.2083 1185.66 523.292
3272 0 50.0319 12.1323 607 64.3361 1185.52 521.493
3273 0 50.0434 11.1503 558 65.5806 1185.92 522.298
3274 0 54.0357 11.9736 647 64.1066 1185.97 520.306
3275 0 53.0691 11.664 619 65.1826 1184.61 517.097
3276 0 56.0706 10.5224 590 65.7746 1184.48 519.795
3277 0 58.1119 12.7513 741 63.0432 1184.79 518.864
3278 0 61.1602 12.3283 754 63.1698 1185.06 515.94
3279 0 61.0746 12.1491 742 65.1698 1184.95 514.705
3280 0 63.2189 10.3766 656 66.7988 1183.95 511.809
3281 0 65.1304 10.0721 656 67.1982 1183.9 512.46
3282 1 33.018 9.20711 304 65.579 1183.84 528.681
3283 0 34.0193 10.2295 348 64.7414 1183.34 526.414
3284 0 37.0443 11.0138 408 63.4265 1183.96 526.304
3285 0 37.0291 9.58705 355 65.2507 1183.81 527.854
3286 0 38.1396 11.0384 421 63.5582 1183.23 527.126
3287 0 38.0929 10.6056 404 64.8342 1183.7 526.334
3288 0 38.0632 10.5614 402 64.408 1184.31 527.54
3289 0 42.0263 11.3976 479 62.833 1183.4 524.154
3290 0 44.1467 9.42313 416 64.6466 1183.53 525.964
3291 0 44.096 10.8854 480 63.6208 1183.41 521.769
3292 0 44.0727 11.6625 514 63.2685 1183.26 521.185
3293 0 45.1262 10.4817 473 64.2558 1182.92 522.271
3294 0 48.1551 11.7122 564 62.5833 1183.5 522.115
3295 0 49.0415 10.3178 506 64.8103 1183.4 520.071
3296 0 52.1049 11.6304 606 61.9274 1183.53 520.868
3297 0 55.0853 10.9285 602 63.3056 1183.3 517.379
3298 0 56.0864 11.5179 646 62.7786 1183.14 517.286
3299 0 57.0655 11.7409 670 63.0358 1182.63 515.619
3300 0 58.0892 12.3431 717 62.3515 1184.83 513.736
3301 0 60.0408 12.3916 744 62.0995 1184.66 513.055
3302 0 61.1112 10.7836 659 63.8786 1184.24 511.568
3303 0 64.0312 11.1821 716 63.6145 1183.7 512.824
3304 0 66.1032 11.8905 786 61.8244 1183.84 511.205
3305 0 68.1251 11.8459 807 62.5849 1184.14 508.605
3306 0 70.2153 12.4047 871 60.8622 1184.26 510.751
3307 0 72.1705 11.4451 826 62.138 1183.53 508.294
3308 0 73.2249 12.209 894 61.9385 1183.96 504.662
3309 0 78.274 12.073 945 60.6794 1183.89 508.286
3310 0 79.1014 11.7318 928 62.3545 1184.31 501.9
3311 0 83.0822 12.0363 1000 61.626 1184.56 501.466
3312 1 45.0457 10.0343 452 63.8783 1184.45 522.082
3313 0 46.0601 10.6817 492 63.5468 1184.58 518.892
3314 0 48.1061 10.6847 514 63.8366 1184.49 518.617
3315 0 49.0727 11.1875 549 62.9016 1184.35 516.483
3316 0 53.108 12.0886 642 60.4938 1184.53 515.938
3317 0 53.0974 11.5637 614 61.8909 1185.23 516.262
3318 0 55.0986 11.4885 633 61.6161 1184.38 513.082
3319 0 58.1871 10.8959 634 62.0915 1184.77 511.896
3320 0 57.1106 11.6791 667 62.4003 1184.52 510.055
3321 0 61.2791 12.7776 783 60.2324 1184.87 513.294
3322 0 62.1223 13.1676 818 60.5428 1185.17 511.786
3323 0 65.0695 12.2638 798 61.9236 1184.26 510.832
3324 0 65.0806 11.601 755 63.6676 1185.58 510.311
3325 0 68.062 13.0322 887 61.5919 1185.89 510.1
3326 0 67.1864 12.0858 812 63.8522 1186.01 510.837
3327 0 72.1612 11.1417 804 64.3706 1186.27 509.44
3328 0 75.1607 13.5709 1020 61.0726 1185.64 508.413
3329 0 77.1799 14.0322 1083 60.9298 1185.1 505.041
3330 0 80.1859 12.6955 1018 62.0511 1185.29 507.121
3331 0 82.0854 14.3509 1178 60.6655 1186.6 501.746
3332 0 83.1041 11.6119 965 64.4995 1186.23 501.648
3333 1 42.0315 10.7538 452 64.8628 1186.47 523.827
3334 0 44.0973 11.4293 504 64.5694 1186.42 523.099
3335 0 45.0597 11.6734 526 65.1977 1186.17 522.279
3336 0 45.1225 11.0588 499 66.8116 1186.34 521.15
3337 0 45.0805 9.9156 447 68.4094 1186.11 522.642
3338 0 48.0389 11.6364 559 65.1556 1185.86 521.376
3339 0 49.1853 11.1009 546 66.3645 1186.18 519.205
3340 0 51.0303 10.1116 516 67.4942 1185.49 520.864
3341 0 54.0635 11.3015 611 66.1669 1185.48 518.635
3342 0 55.0877 12.6162 695 63.9079 1185.09 517.938
3343 0 55.0889 12.3618 681 65.5228 1185.78 515.517
3344 0 57.077 11.4407 653 66.1884 1186.4 517.553
3345 0 60.1451 12.9188 777 64.1879 1185.44 515.837
3346 0 59.0406 11.8224 698 66.6476 1185.62 513.12
3347 0 62.1048 11.8992 739 65.8498 1186.02 514.724
3348 0 64.129 11.7419 753 66.2444 1186.39 514.353
3349 0 65.0902 12.5672 818 65.6748 1186.07 512.458
3350 0 68.1161 13.5357 922 63.0477 1185.22 512.383
3351 0 69.0403 11.7757 813 66.0922 1185.41 510.549
3352 0 70.0784 12.6715 888 65.0586 1185.2 512.662
3353 1 38.0955 10.6312 405 66.7062 1184.93 526.412
3354 0 37.0337 8.8838 329 69.4802 1184.69 525.058
3355 0 39.0609 9.72841 380 68.0526 1185.35 525.032
3356 0 42.0681 10.0551 423 67.7447 1184.61 524.213
3357 0 44.0892 12.3386 544 64.5331 1183.73 522.759
3358 0 45.2067 12.8963 583 64.2487 1183.96 523.482
3359 0 46.0958 13.3201 614 64.0489 1183.68 522.287
3360 0 46.0601 11.5067 530 66.3849 1184.2 523.458
3361 0 47.0695 11.3449 534 67.3015 1183.26 522.436
3362 0 49.0833 12.3667 607 65.3855 1183.49 521.422
3363 0 52.1206 13.1042 683 63.8902 1183.53 521.29
3364 0 54.0286 14.0111 757 63.0251 1183.28 519.65
3365 0 54.1456 13.4083 726 63.7107 1183.66 522.558
3366 0 56.0409 12.9191 724 65.7417 1183.61 517.892
3367 0 58.0678 13.5876 789 64.1952 1183.66 519.8
3368 0 55.0808 12.7268 701 67.0842 1183.18 518.672
3369 0 60.0816 12.25 736 66.6114 1183.61 516.061
3370 0 63.0381 14.2612 899 63.1769 1183.3 516.6
3371 0 65.0966 13.9792 910 63.7736 1183.5 515.455
3372 0 65.161 13.1827 859 65.5425 1183.79 511.753
3373 0 67.2929 14.2809 961 63.6035 1183.95 514.083
3374 0 67.0484 13.4082 899 64.7119 1183.92 515.362
3375 0 67.0614 13.2863 891 65.5376 1183.96 512.626
3376 0 68.0706 12.9865 884 66.6957 1183.9 513.515
3377 0 69.0194 13.2426 914 66.3326 1183.55 513.039
3378 0 70.114 13.8489 971 65.517 1183.19 512.402
3379 0 70.2064 15.6539 1099 63.3458 1183.24 512.22
3380 0 69.0594 13.9011 960 66.4667 1183.22 512.083
3381 0 72.1874 16.7204 1207 62.4209 1184.12 511.628
3382 0 72.0552 15.0718 1086 64.9457 1184.02 511.97
3383 0 71.0593 13.0595 928 68.7683 1182.96 511.416
3384 0 71.142 15.9259 1133 64.6293 1184.01 512.05
3385 0 73.0392 13.3901 978 67.8773 1184.08 511.26
3386 0 71.101 13.4035 953 69.1133 1184.03 512.961
3387 0 74.154 16.25 1205 64.7369 1184.35 510.9
3388 0 73.118 14.4834 1059 68.0321 1184.74 511.468
3389 0 75.0546 14.163 1063 67.8918 1184.64 513.436
3390 0 75.0422 14.0987 1058 68.0832 1184.6 512.596
3391 0 76.0607 14.3307 1090 68.2018 1184.72 511.038
3392 0 76.0606 15.0275 1143 67.5442 1184.52 506.852
3393 0 77.0983 14.5528 1122 68.0045 1185.56 506.752
3394 0 78.0969 13.4704 1052 69.653 1185.02 511.683
3395 0 77.0881 14.4251 1112 68.661 1184.95 506.925
3396 0 79.1033 14.1334 1118 68.8148 1184.69 507.028
3397 0 79.0324 13.7918 1090 68.789 1185.16 509.739
3398 0 78.0811 14.1904 1108 69.2933 1184.17 507.225
3399 0 80.0569 15.0518 1205 67.9162 1184.79 506.215
3400 0 79.0707 12.7987 1012 71.6868 1184.88 506.644
3401 0 79.0603 15.406 1218 67.7726 1184.6 505.842
3402 0 78.0442 13.7614 1074 70.8808 1184.99 505.805
3403 0 80.0407 14.8924 1192 69.0512 1185.12 504.585
3404 0 80.0596 14.7265 1179 69.2935 1185.61 504.321
3405 0 80.0383 13.5935 1088 71.0938 1185.1 504.837
3406 0 82.2412 15.187 1249 68.1361 1185.11 506.093
3407 0 81.0677 13.791 1118 70.8301 1184.96 506.051
3408 0 82.06 14.331 1176 69.3767 1184.76 505.155
3409 0 82.0365 13.5306 1110 70.736 1184.77 504.369
3410 0 84.0746 14.3325 1205 69.3958 1184.86 505.812
3411 0 81.0781 14.1715 1149 69.9434 1184.51 507.723
3412 0 82.0906 14.7155 1208 69.3295 1184.56 506.081
3413 0 83.0783 14.9498 1242 68.6538 1184.81 504.952
3414 0 84.0775 14.106 1186 70.016 1185.13 504.884
3415 0 84.0948 16.1009 1354 66.5916 1185.27 504.664
3416 0 84.1671 14.6019 1229 69.0041 1184.92 505.659
3417 0 85.0717 15.3047 1302 67.4493 1185.09 505.515
3418 0 86.1329 14.3964 1240 68.9863 1184.7 505.736
3419 0 85.0818 14.0923 1199 69.663 1185.15 504.346
3420 0 84.0729 14.4399 1214 69.1442 1184.7 505.202
3421 0 86.0983 14.9016 1283 67.9041 1184.15 504.959
3422 0 83.2371 13.7799 1147 70.5719 1184.31 503.07
3423 0 86.1079 13.9941 1205 69.0008 1184.87 504.158
3424 0 86.175 14.7607 1272 68.0802 1184.45 502.214
3425 0 85.0561 13.203 1123 70.862 1184.01 502.707
3426 0 87.0792 13.1719 1147 70.6635 1184.55 503.23
3427 0 86.0723 14.1858 1221 69.4545 1183.96 501.885
3428 0 88.0938 14.1554 1247 68.3561 1184.8 502.103
3429 0 86.0981 13.624 1173 69.2182 1184.6 501.556
3430 0 89.2092 12.9583 1156 69.8382 1184.66 501.578
3431 0 88.0924 14.6097 1287 67.8617 1184.54 499.687
3432 0 89.0668 13.5853 1210 69.1785 1183.86 500.159
3433 0 88.0616 13.6382 1201 68.9933 1184.57 500.898
3434 0 88.0765 13.1477 1158 70.1831 1185.32 500.395
3435 0 91.1207 14.0363 1279 67.8428 1184.12 500.882
3436 0 91.197 14.6935 1340 67.3493 1185.23 499.98
3437 0 90.0838 13.7983 1243 69.078 1185.42 500.08
3438 0 94.0803 14.7321 1386 66.2778 1185.2 501.953
3439 0 89.1281 13.935 1242 68.8438 1184.24 499.999
3440 0 92.0811 14.2809 1315 67.8532 1184.17 498.076
3441 0 93.0715 14.6769 1366 66.4583 1184.89 499.463
3442 0 94.0812 14.0623 1323 67.1459 1184.86 499.73
3443 0 92.0717 12.2296 1126 70.8508 1185.33 499.271
