time division length width area intensity CMx CMy
0 0 42.1124 12.2767 517 58.6615 814.408 512.613
1 0 45.0676 13.624 614 56.7932 813.897 511.311
2 0 49.0756 12.4706 612 56.7631 813.824 513.701
3 0 48.0785 11.502 553 58.566 813.316 512.02
4 0 50.0682 11.2247 562 58.0409 813.402 514.148
5 0 48.0499 11.9043 572 59.2727 813.243 509.96
6 0 50.1033 12.6139 632 58.3449 812.873 508.831
7 0 50.0575 13.2248 662 58.2402 812.914 508.106
8 0 53.0794 12.2081 648 58.0201 812.012 511.295
9 0 55.0328 13.283 731 56.9836 812.361 509.457
10 0 56.0225 12.5307 702 57.7536 812.412 508.432
11 0 58.1302 13.3493 776 56.8789 812.959 509.652
12 0 60.057 14.2032 853 56.3318 812.177 507.039
13 0 60.0921 11.0663 665 59.7173 811.935 508.489
14 0 63.1298 12.5773 794 58.6436 812.123 505.981
15 0 66.0896 12.241 809 58.691 812.14 505.502
16 0 65.0656 10.9582 713 60.8626 812.575 506.432
17 0 69.1736 13.6179 942 57.9459 812.169 504.486
18 0 70.1731 12.7684 896 59.0357 811.888 504.406
19 0 75.097 13.9553 1048 57.3111 811.812 503.716
20 1 35.0393 9.36091 328 61.6128 811.351 521.738
21 0 38.0851 11.343 432 59.0602 811.588 519.796
22 0 37.0873 11.9717 444 59.8941 811.189 518.169
23 0 39.0491 11.7288 458 59.5655 810.817 519.306
24 0 40.063 10.808 433 61.5312 811.762 517.067
25 0 41.0218 10.9698 450 61.4511 810.78 516.751
26 0 42.0306 11.8247 497 61.0845 811.211 516.032
27 0 46.0847 12.7157 586 58.8703 811.981 517.009
28 0 46.1102 12.5352 578 60.1574 811.05 515.14
29 0 48.0726 11.4202 549 61.2514 812.186 515.84
30 0 48.0389 11.5323 554 61.4206 811.61 515.527
31 0 51.0215 13.1709 672 59.8199 811.85 513.612
32 0 51.0299 12.2477 625 61.3248 812.085 513.726
33 0 52.0637 12.9073 672 60.5134 811.926 513.707
34 0 54.0336 12.0851 653 61.7841 812.054 511.182
35 0 54.0712 11.3739 615 63.4163 812.223 509.628
36 0 56.1169 12.3136 691 62.4891 812.747 510.017
37 0 59.1842 12.9764 768 61.2656 812.104 510.266
38 0 59.0731 13.0178 769 61.8388 812.893 507.685
39 0 62.098 13.4465 835 60.8 813.468 509.327
40 0 64.126 15.0017 962 58.8254 812.869 508.113
41 0 63.0853 12.2215 771 62.7341 813.109 507.184
42 0 67.0906 12.6545 849 62.5395 813.09 505.899
43 0 69.2219 12.4527 862 62.4594 813.111 505.766
44 0 69.2518 10.7723 746 64.8351 813.19 505.138
45 0 71.1313 11.6123 826 63.793 812.996 502.662
46 0 75.3247 12.6652 954 63.0849 813.77 502.073
47 0 77.1656 12.8425 991 62.9304 814.172 500.17
48 0 79.0997 12.0228 951 64.2976 813.601 499.167
49 0 83.1652 13.0584 1086 63.1381 814.128 497.218
50 0 84.1792 12.8892 1085 63.129 814.346 497.949
51 0 87.0956 14.042 1223 61.7989 813.927 496.914
52 0 90.0766 13.2776 1196 62.7383 814.331 494.548
53 0 93.14 13.1737 1227 62.7514 814.064 495.246
54 1 47.0737 11.6413 548 62.0036 813.953 515.223
55 0 47.1098 9.72197 458 64.0873 813.817 515.985
56 0 49.0906 10.9593 538 62.5576 813.972 515.467
57 0 52.1375 12.3328 643 60.6174 814.925 514.151
58 0 53.1025 12.523 665 60.8586 813.904 513.129
59 0 54.1774 13.3635 724 60.116 814.117 512.191
60 0 55.1508 12.493 689 61.2743 813.853 510.736
61 0 57.1491 12.5986 720 61.0153 813.268 512.018
62 0 60.2267 11.6892 704 62.0327 813.087 509.947
63 0 60.0708 12.8848 774 61.5517 813.72 507.447
64 0 64.1517 12.1743 781 61.3355 813.36 509.755
65 0 65.071 13.0473 849 61.1873 813.709 507.741
66 0 68.1004 12.834 874 61.8192 813.867 505.662
67 0 69.1711 11.2908 781 64.3137 813.286 505.274
68 0 72.1547 11.7248 846 64.7683 813.439 502.059
69 0 75.2135 11.1549 839 65.4827 813.638 504.302
70 0 76.1618 13.0512 994 63.8229 813.213 502.475
71 0 79.2134 12.4726 988 64.996 812.206 501.633
72 0 81.0982 11.9731 971 66.8857 812.689 496.13
73 0 83.2563 13.032 1085 65.7825 812.951 494.65
74 0 86.0946 11.3015 973 67.6249 813.784 497.347
75 1 46.0608 10.7684 496 66.3871 813.192 514.964
76 0 47.1626 10.7924 509 67.167 813.324 514.786
77 0 49.118 12.0119 590 65.2881 813.495 515.573
78 0 52.1015 12.1302 632 64.9747 812.989 514.625
79 0 52.0707 11.0235 574 67.615 813.131 512.124
80 0 53.0554 11.6671 619 66.9903 813.856 512.165
81 0 56.1867 9.89558 556 68.7914 813.968 512.299
82 0 57.0576 11.3219 646 67.5015 813.772 511.957
83 0 59.0494 12.3625 730 66.2945 814.148 511.281
84 0 61.1501 12.5265 766 66.9373 814.384 508.582
85 0 62.0599 11.7628 730 67.3192 813.656 510.641
86 0 64.1576 13.233 849 66.5336 814.525 507.995
87 0 65.1057 11.4429 745 68.9235 814.588 507.066
88 0 69.0932 12.1864 842 68.1247 814.432 506.07
89 0 70.214 11.8352 831 69.077 814.113 504.65
90 0 73.115 12.747 932 68.647 814.388 501.307
91 0 75.026 13.3554 1002 67.8094 814.646 503.202
92 0 78.123 14.1828 1108 67.25 815.072 499.941
93 0 80.1332 12.2047 978 69.3875 815.134 500.831
94 0 81.1232 11.0819 899 71.6174 815.487 498.288
95 0 86.1517 12.861 1108 69.1543 814.237 497.594
96 1 44.0392 12.4208 547 66.9122 813.517 516.951
97 0 44.0831 11.4329 504 68.373 813.867 516.843
98 0 46.0434 11.2503 518 68.5714 813.514 516.647
99 0 49.1054 12.9721 637 66.3658 813.967 514.659
100 0 49.0295 11.4013 559 68.9213 813.667 514.773
101 0 50.0947 12.1171 607 68.4712 813.397 513.438
102 0 52.1317 11.797 615 68.7333 814.254 511.969
103 0 54.1735 13.4937 731 66.3858 814.208 511.446
104 0 55.1507 11.9491 659 68.9545 813.883 510.085
105 0 55.0885 11.781 649 69.5146 813.752 508.376
106 0 58.1054 12.8215 745 68.2094 814.118 507.583
107 0 61.083 13.1952 806 67.0447 813.689 509.293
108 0 62.0466 12.2811 762 68.7677 814.197 507.232
109 0 64.039 13.3356 854 67.2564 813.447 507.061
110 0 66.1084 11.3904 753 70.2165 812.07 507.401
111 0 68.1006 13.0836 891 68.1616 813.369 505.667
112 0 70.0631 12.5173 877 69.4356 813.417 504.414
113 0 74.2557 12.2819 912 69.6875 813.791 502.85
114 0 76.0821 12.0922 920 70.3935 813.952 498.77
115 1 39.0183 10.0466 392 70.3699 813.352 517.258
116 0 41.0275 11.407 468 69.0769 813.592 516.058
117 0 41.0367 10.4297 428 70.2477 813.607 516.18
118 0 44.01 10.4749 461 70.3384 813.889 514.334
119 0 45.0178 12.4395 560 68.4875 814.512 513.946
120 0 46.0942 13.1036 604 67.7235 814.182 512.619
121 0 46.0293 11.0799 510 70.6294 814 513.72
122 0 49.0503 11.3149 555 70.4847 814.276 512.204
123 0 51.0251 11.6609 595 69.3748 814.659 511.669
124 0 52.0733 11.4262 595 68.6118 814.237 513.845
125 0 52.0645 11.7162 610 69.9098 813.662 510.641
126 0 55.0225 11.5589 636 69.5299 813.857 509.726
127 0 56.089 11.6422 653 69.4043 814.296 507.96
128 0 58.0358 12.0615 700 68.0743 814.95 508.856
129 0 60.121 12.3085 740 67.7243 814.296 505.977
130 0 62.0706 11.5675 718 68.4833 814.017 506.06
131 0 63.0826 10.9063 688 68.5843 814.118 506.693
132 0 64.0602 9.92816 636 70.5016 813.723 504.597
133 0 67.0701 10.4518 701 69.9643 814.308 502.341
134 0 70.1303 11.8209 829 67.2738 813.502 502.497
135 0 72.1612 11.7376 847 67.34 814.398 500.979
136 0 72.1798 10.7232 774 68.9147 814.806 500.534
137 1 35.0668 10.2091 358 66.0251 813.76 519.17
138 0 37.0436 11.284 418 65.0287 813.986 517.23
139 0 40.0663 9.10991 365 66.863 813.699 517.274
140 0 40.1083 10.8706 436 66.0711 813.683 516.009
141 0 41.1487 10.936 450 65.4689 814.402 515.9
142 0 42.0486 11.6056 488 64.8504 814.084 515.219
143 0 41.0705 10.3724 426 67.8709 814.359 512.195
144 0 45.0641 11.8942 536 65.0504 814.326 512.341
145 0 46.0558 11.0735 510 65.8059 813.922 513.098
146 0 49.1792 11.7936 580 64.5534 813.619 512.197
147 0 47.0788 9.94078 468 67.5363 813.613 512.019
148 0 49.0761 10.9829 539 66.0204 813.284 510.692
149 0 51.0648 10.9273 558 66.2007 813.715 509.643
150 0 52.0209 10.6496 554 66.778 813.025 509.258
151 0 54.0601 11.6352 629 65.5469 814.455 507.863
152 0 57.0636 11.4083 651 65.7035 814.025 506.647
153 0 56.0675 11.2186 629 66.151 814.273 505.188
154 0 59.1683 10.4955 621 66.7746 814.433 503.855
155 0 60.1115 10.4639 629 66.4642 815.797 506.827
156 0 62.1806 10.9037 678 66.2065 815.307 504.317
157 0 65.2157 13.6317 889 62.4871 814.612 504.84
158 0 64.177 11.1566 716 66.6746 814.971 501.162
159 0 69.1286 12.3249 852 64.5469 814.073 501.074
160 0 70.0901 12.3413 865 65.4902 814.406 500.03
161 0 70.0608 11.0761 776 67.4781 814.598 498.796
162 0 73.2026 10.4231 763 67.4181 814.692 500.734
163 0 77.2426 12.9851 1003 64.332 814.939 497.555
164 1 40.0515 11.685 468 64.3889 814.075 515.56
165 0 42.0522 10.4632 440 66 813.566 515.77
166 0 44.0683 11.7545 518 64.8301 815.033 513.761
167 0 44.0625 10.3036 454 66.3767 814.216 514.414
168 0 47.0953 11.912 561 64.852 814.308 512.146
169 0 49.168 11.6946 575 64.7826 814.555 510.376
170 0 48.0637 12.2962 591 64.3655 814.279 509.909
171 0 50.0763 12.5209 627 64.4466 813.855 509.952
172 0 52.1755 11.9021 621 65.2609 815.005 508.338
173 0 53.1463 10.3676 551 67.1397 814.381 508.826
174 0 56.1128 11.4056 640 65.3906 814.294 508.189
175 0 56.0483 10.5088 589 67.5195 814.175 505.737
176 0 58.0413 11.9226 692 66.0564 813.844 504.587
177 0 61.11 10.9638 670 66.9478 814.252 505.513
178 0 65.0404 12.1924 793 65.2005 813.807 504.537
179 0 66.0929 11.8318 782 66.1023 813.934 503.857
180 0 66.0976 11.4982 760 67.6197 814.041 503.543
181 0 71.0709 12.6493 899 66.1235 813.588 502.125
182 0 74.0702 13.0012 963 65.4933 813.793 500.841
183 0 76.1104 12.0614 918 67.5512 813.381 499.69
184 0 78.1223 13.0692 1021 65.9785 812.471 500.644
185 0 77.1504 11.2767 870 70.1138 812.424 494.631
186 1 41.0611 9.91205 407 67.3243 812.553 516.496
187 0 40.0755 10.0061 401 68.8379 812.14 514.431
188 0 42.0207 11.4229 480 67.0688 811.902 516.108
189 0 46.0409 12.5106 576 66.0625 811.398 513.806
190 0 46.0246 10.5596 486 69.5412 810.815 514.134
191 0 49.051 11.804 579 67.6459 810.477 513.796
192 0 50.0163 11.3963 570 67.8842 811.337 514.344
193 0 52.0374 11.9337 621 67.4187 811.419 512.795
194 0 53.0631 10.5723 561 68.508 811.472 513.745
195 0 55.0858 11.9995 661 67.2844 811.433 510.787
196 0 57.0435 11.5701 660 67.2061 810.752 512.694
197 0 59.0741 12.0696 713 67.418 810.59 509.386
198 0 60.0279 12.2277 734 68.0422 809.907 509.451
199 0 61.0804 12.1315 741 67.9501 811.001 509.255
200 0 64.1021 12.5737 806 67.438 811.061 508.261
201 0 65.0471 10.7922 702 69.6481 810.452 507.691
202 0 68.1194 12.3606 842 67.639 809.92 506.486
203 0 70.0569 11.7761 825 68.2909 810.019 507.383
204 0 74.0369 11.967 886 67.9752 809.798 505.442
205 0 76.0543 12.662 963 67.4476 810.422 502.493
206 0 80.0506 12.5671 1006 66.5934 811.039 503.863
207 1 41.0201 10.5314 432 66.1713 810.014 522.773
208 0 42.0373 9.87219 415 67.3952 810.118 523.267
209 0 40.0407 11.3385 454 67.8194 810.097 521.115
210 0 44.0451 10.8071 476 67.6113 809.742 520.899
211 0 45.0167 12.1066 545 66.356 809.774 519.961
212 0 46.0277 11.9711 551 66.5898 808.459 520.878
213 0 48.0682 11.4629 551 66.5191 808.588 521.04
214 0 48.0489 11.4675 551 67.4701 809.276 518.775
215 0 51.1116 11.7977 603 66.4212 808.701 517.637
216 0 51.1172 11.3856 582 67.2148 808.529 517.997
217 0 52.1659 12.3644 645 66.2326 807.788 516.958
218 0 54.091 11.5546 625 66.6608 808.853 515.555
219 0 57.0701 12.6161 720 64.5111 808.639 514.854
220 0 58.0607 10.7818 626 67.2268 808.581 513.99
221 0 58.0995 9.63864 560 69.0161 808.539 512.855
222 0 61.0696 11.4623 700 66.5029 808.321 512.589
223 0 64.098 11.0144 706 66.4518 808.143 511.479
224 0 67.0915 17.0662 1145 47.5467 807.748 513.127
225 0 66.1299 11.1599 738 66.8469 808.646 508.873
226 0 67.1801 11.2087 753 67.0531 808.243 505.987
227 0 69.0984 12.2289 845 65.8556 808.334 505.641
228 0 71.1228 11.4028 811 67.1134 808.292 503.619
229 0 76.0726 12.1463 924 65.0292 808.616 504.591
230 0 78.0528 11.8381 924 66.0985 809.111 500.098
231 0 82.1358 12.3941 1018 64.8605 809.272 499.983
232 0 82.1378 12.0286 988 66.2834 809.124 497.96
233 1 45.0792 12.5557 566 63.5371 807.922 517.857
234 0 44.0174 11.0865 488 66.3955 807.566 516.668
235 0 47.0177 10.9533 515 66.8447 808.563 515.266
236 0 48.0321 11.1176 534 66.2772 808.066 513.906
237 0 50.1456 12.3042 617 64.2917 808.77 515.135
238 0 52.0419 12.1633 633 64.3697 809.352 514.425
239 0 53.0645 12.0231 638 64.8245 809.754 513.293
240 0 54.0728 10.7263 580 66.5983 809.709 511.278
241 0 56.078 11.1987 628 65.6561 809.221 508.932
242 0 58.0938 13.22 768 62.7695 810.198 509.352
243 0 61.0975 11.228 686 64.8513 809.681 509.208
244 0 62.0685 12.2768 762 63.2441 809.726 507.419
245 0 63.139 10.5798 668 65.8713 808.862 507.967
246 0 64.0716 12.4704 799 63.4205 809.474 507.578
247 0 67.178 12.5488 843 62.8422 809.517 506.249
248 0 68.18 10.7363 732 65.3183 810.038 505.302
249 0 69.1586 11.1483 771 64.987 809.774 503.92
250 0 70.1409 10.9779 770 65.2494 810.045 501.657
251 0 74.1989 11.3614 843 63.3321 810.821 504.841
252 0 78.1131 12.3411 964 62.5187 810.089 501.371
253 0 79.14 11.0437 874 64.1991 810.754 498.834
254 0 82.0636 11.2961 927 63.6634 811.304 499.22
255 0 86.136 12.7125 1095 61.7014 810.723 499.65
256 0 87.1576 12.2078 1064 62.6607 811.149 494.565
257 0 90.1841 11.9644 1079 63.0287 810.705 494.078
258 0 94.1308 12.1214 1141 62.8826 810.273 494.361
259 0 94.1902 10.9459 1031 64.4927 810.616 493.726
260 0 100.134 11.1051 1112 64.7338 811.138 490.425
261 1 53.1109 8.90589 473 65.0402 810.429 514.262
262 0 56.0889 12.9437 726 60.3664 809.74 513.007
263 0 58.1344 11.7142 681 62.4581 810.717 511.683
264 0 59.0958 11.0329 652 62.7377 810.624 511.865
265 0 62.0919 11.3219 703 62.3073 809.772 511.22
266 0 62.1733 11.1302 692 63.1113 809.578 509.987
267 0 64.1206 12.648 811 61.4205 809.573 507.436
268 0 65.2003 10.8282 706 63.8088 810.663 508.276
269 0 67.058 11.6317 780 62.8244 809.24 507.169
270 0 69.2121 10.5039 727 63.8074 809 505.858
271 0 73.0912 11.6293 850 62.3553 809.946 505.114
272 0 74.1232 10.0913 748 63.8209 809.473 505.833
273 0 78.0914 11.1536 871 62.7026 809.248 502.087
274 0 80.0923 11.9113 954 61.7987 808.049 502.322
275 0 82.1172 10.7164 880 62.7011 808.559 501.323
276 0 86.1238 11.646 1003 61.5015 809.217 501.78
277 0 89.0783 11.7649 1048 61.7319 808.396 498.185
278 0 91.1162 11.2494 1025 62.1298 809.102 498.748
279 0 95.175 13.1547 1252 60.1422 808.827 495.917
280 0 97.1752 11.752 1142 61.3485 808.708 495.699
281 0 100.207 12.8933 1292 60.5209 809.273 493.316
282 1 52.029 12.051 627 58.6874 808.423 519.44
283 0 53.0596 10.818 574 60.5401 807.988 516.972
284 0 53.1249 10.6353 565 62.0195 807.278 514.258
285 0 56.0621 10.7202 601 61.624 807.512 514.201
286 0 57.0505 9.53542 544 63.0092 807.965 513.232
287 0 58.1051 11.1866 650 61.8062 807.84 510.835
288 0 62.0339 13.6216 845 58.6296 807.793 511.535
289 0 63.1223 11.755 742 60.907 807.648 509.673
290 0 66.1105 12.6909 839 59.6555 807.766 507.565
291 0 65.1199 11.0412 719 62.1878 807.469 509.406
292 0 69.1535 10.3538 716 62.8939 808.169 508.645
293 0 72.2076 11.0792 800 61.5262 808.681 507.952
294 0 73.1852 12.3386 903 60.6955 808.596 506.348
295 0 75.1028 10.7453 807 62.9752 808.549 504.209
296 0 79.2049 11.6281 921 61.0955 807.725 504.132
297 0 81.0862 12.0612 978 61.5429 807.953 502.838
298 0 84.1543 11.9542 1006 62.2346 807.008 499.772
299 0 87.1677 12.7914 1115 61.2027 807.437 495.946
300 1 44.0948 10.0465 443 62.2393 806.93 518.499
301 0 47.1604 9.5419 450 62.1778 806.54 518.182
302 0 50.0906 10.1616 509 62.334 807.251 516.676
303 0 48.0558 10.3838 499 62.5491 807.2 516.341
304 0 50.0891 10.3016 516 62.4903 807.045 512.134
305 0 53.0908 11.2449 597 61.1608 807.087 515.508
306 0 55.1446 12.1136 668 61.1871 807.362 510.178
307 0 56.098 12.1217 680 60.4985 807.353 512.837
308 0 56.1608 10.5234 591 62.6937 807.465 510.826
309 0 61.1177 10.488 641 62.0047 807.267 510.465
310 0 62.1356 12.5371 779 59.8549 806.926 508.795
311 0 63.1326 10.9769 693 61.9105 807.105 507.882
312 0 66.2673 11.348 752 61.7513 807.17 506.245
313 0 68.1974 11.1734 762 62.0604 807.272 505.633
314 0 72.2127 12.6017 910 60.1176 806.866 506.195
315 0 75.1691 11.1881 841 62.1617 806.932 503.699
316 0 76.0876 11.5525 879 62.0978 807.171 503.846
317 0 78.1025 9.89725 773 64.458 807.638 499.481
318 0 82.1552 12.7077 1044 61.1149 807.593 498.448
319 0 83.2146 11.8729 988 63.0172 807.618 496.297
320 0 86.1201 11.4956 990 63.6505 807.378 495.568
321 1 43.2601 8.83032 382 63.8089 807.866 517.178
322 0 45.2285 9.13141 413 63.4964 807.54 515.567
323 0 46.1613 11.5465 533 61.1051 807.381 514.182
324 0 47.0681 9.81557 462 63.4329 807.19 511.729
325 0 50.0986 11.4973 576 61.7344 807.186 511.852
326 0 52.1416 10.529 549 61.5319 807.062 515.071
327 0 54.0709 11.5404 624 61.2035 807.256 510.856
328 0 53.0825 10.1917 541 62.8503 807.094 511.712
329 0 54.0587 10.2296 553 63.5316 807.427 507.844
330 0 52.1122 7.17683 374 67.0668 808.297 502.476
331 1 63.0831 11.8574 748 67.4037 808.603 446.711
332 0 63.0395 10.6441 671 69.4277 807.946 446.124
333 0 69.0663 11.945 825 67.7418 808.108 441.532
334 0 67.0863 9.4356 633 71.981 807.357 436.569
335 0 70.0289 10.2386 717 70.9456 807.816 435.119
336 0 71.1141 12.5292 891 61.2435 807.453 502.988
337 0 73.0882 13.3127 973 60.3834 807.649 502.42
338 0 76.1996 12.8216 977 61.0297 807.676 501.346
339 0 79.26 10.3078 817 63.9094 807.892 501.17
340 0 81.0897 11.9867 972 62.4187 806.967 498.781
341 1 43.0469 9.15281 394 62.401 806.893 519.888
342 0 40.0433 9.48973 380 63.2184 806.729 515.787
343 0 43.0716 9.54225 411 63.1022 806.881 517.049
344 0 41.0316 10.6991 439 62.7472 805.592 517.112
345 0 45.1425 10.8545 490 62.1694 806.1 516.392
346 0 47.0283 11.4399 538 60.6097 807.019 515.517
347 0 48.0868 11.5832 557 60.2783 807.948 514.131
348 0 49.0818 11.7151 575 59.5739 806.868 512.68
349 0 49.0388 10.7058 525 61.0476 807.587 511.832
350 0 49.0654 10.2516 503 61.503 808.093 513.65
351 0 51.0887 9.12139 466 62.0322 807.936 512.12
352 0 52.0501 8.78 457 62.5055 807.621 510.289
353 0 55.0716 11.1673 615 60.1626 807.766 508.805
354 0 57.0548 11.5678 660 59.4667 807.839 508.929
355 0 60.1331 10.5266 633 60.1785 806.795 509.498
356 0 58.0759 10.779 626 60.8882 807.39 504.914
357 0 62.0656 11.1495 692 59.6749 807.764 505.327
358 0 62.152 10.3295 642 59.8474 808.136 507.998
359 0 67.2331 10.828 728 59.6607 808.603 502.966
360 0 67.1279 9.38506 630 61.3603 806.965 501.356
361 0 70.0921 11.2851 791 59.2276 806.872 501.939
362 0 73.0765 11.1253 813 59.4305 806.777 500.021
363 0 74.0363 13.1962 977 57.8936 807.699 498.97
364 0 79.1592 10.9021 863 60.5643 808.117 498.085
365 1 41.0215 11.1161 456 57.193 807.239 517.711
366 0 40.0174 9.9207 397 59.6751 808.249 516.27
367 0 45.0966 9.71248 438 59.6301 808.322 511.619
368 0 44.0755 10.9585 483 58.1408 808.033 517.47
369 0 46.1347 10.6644 492 58.7236 807.813 514.795
370 0 47.0948 10.3621 488 58.7418 807.721 515.172
371 0 49.0338 10.8904 534 59.0524 807.629 514.693
372 0 49.1153 9.77293 480 60.2521 807.771 514.554
373 0 54.0707 11.485 621 58.3607 807.828 513.831
374 0 52.0138 10.5357 548 59.6113 807.533 513.914
375 0 55.0643 11.3867 627 59.0032 807.584 513.592
376 0 56.0432 11.6517 653 59.709 807.198 510.59
377 0 57.104 10.9625 626 60.9121 807.799 508.216
378 0 58.1669 10.1776 592 61.9223 807.177 510.429
379 0 61.3254 11.6265 713 60.094 807.156 507.519
380 0 63.1424 11.6562 736 60.534 806.519 508.266
381 0 64.1302 10.0265 643 63.0513 807.369 507.165
382 0 68.1645 12.4552 849 60.0106 806.464 505.377
383 0 71.1874 11.3082 805 61.2199 807.337 504.373
384 0 72.1934 12.0233 868 60.9724 807.477 502.712
385 0 76.3164 12.553 958 60.3737 807.756 501.537
386 1 39.2371 9.175 360 61.4389 806.483 521.167
387 0 39.08 9.33982 365 62.6767 806.975 518.688
388 0 41.1206 10.6759 439 59.9681 807.697 520.214
389 0 42.0327 10.2301 430 61.8721 807.088 519.374
390 0 43.0658 10.124 436 61.6743 806.812 519.667
391 0 45.1111 10.7956 487 62.1232 807.595 516.446
392 0 47.1185 10.7389 506 61.7075 807.792 516.184
393 0 46.1059 9.99872 461 63.7202 807.297 515.03
394 0 50.1278 11.8896 596 61.7215 807.477 514.404
395 0 51.0903 10.6478 544 63.1893 807.257 512.423
396 0 54.1053 12.1984 660 60.6818 807.606 515.091
397 0 54.1138 11.0323 597 63.2747 807.482 511.76
398 0 56.1241 12.116 680 61.9088 807.771 511.982
399 0 57.0663 11.8108 674 62.5519 807.332 510.708
400 0 59.0993 12.1491 718 62.0028 807.922 509.281
401 0 61.13 11.6309 711 62.7947 807.671 510.066
402 0 63.1111 11.8363 747 62.4685 806.989 508.535
403 0 66.1273 12.8086 847 60.5773 807.828 509.309
404 0 67.1024 12.1754 817 62.4162 807.82 507.706
405 0 69.0309 11.6614 805 62.6944 807.747 506.072
406 0 70.0497 11.4633 803 63.1146 807.93 506.545
407 0 73.1401 10.268 751 64.257 807.656 505.206
408 0 75.14 11.4586 861 62.971 807.541 501.017
409 0 77.1381 10.4747 808 64.7005 807.614 500.953
410 0 78.0408 10.9302 853 64.6155 807.736 497.992
411 0 83.0487 12.9201 1073 61.7493 807.671 499.445
412 1 39.0453 10.475 409 63.0905 807.391 519.533
413 0 40.0795 9.95521 399 62.8346 806.922 522.118
414 0 43.0068 12.3236 530 60.0302 807.366 520.096
415 0 43.0554 11.1949 482 61.9813 807.025 519.853
416 0 45.0396 9.8802 445 63.591 807.706 518.96
417 0 48.0521 11.1546 536 62.2201 807.642 515.933
418 0 50.1581 11.6631 585 60.9179 807.393 516.075
419 0 51.2161 12.0275 616 60.6883 807.265 516.412
420 0 51.0412 10.325 527 63 807.252 515.892
421 0 53.1125 12.5394 666 60.7673 807.366 514.215
422 0 55.1435 12.3315 680 60.7647 807.304 514.243
423 0 55.1545 12.3109 679 61.3152 806.658 513.362
424 0 58.0884 11.9301 693 60.5195 806.641 513.999
425 0 60.044 12.2743 737 60.502 806.958 510.839
426 0 61.1415 11.8414 724 61.0773 807.489 510.077
427 0 63.2687 10.811 684 62.2281 807.259 508.873
428 0 67.0633 11.9439 801 60.6679 807.166 508.521
429 0 69.1638 10.6414 736 61.4864 807.776 507.656
430 0 69.121 10.6769 738 62.1477 807.484 506.199
431 0 72.1032 12.1909 879 60.3754 807.762 507.552
432 0 75.1899 11.0653 832 61.1022 807.406 506.845
433 0 77.0615 10.9653 845 61.4213 806.89 504.563
434 1 38.0213 9.9155 377 60.4854 806.371 521.196
435 0 39.1777 9.77597 383 60.671 806.352 521.433
436 0 40.0585 13.1058 525 57.0152 807.152 521.602
437 0 42.1146 10.3052 434 60.0323 806.528 519.765
438 0 42.0373 10.1101 425 60.1271 806.468 521.48
439 0 43.0457 10.6863 460 59.9087 806.37 518.55
440 0 48.0169 11.6626 560 57.5196 806.282 519.698
441 0 45.054 10.898 491 60.0448 806.996 518.112
442 0 48.0407 11.2405 540 59.6759 807.506 515.552
443 0 48.0602 11.3608 546 59.7106 806.793 515.67
444 0 48.1482 9.61615 463 62.4147 807.112 514.406
445 0 51.0693 10.2997 526 61.4411 807.348 515.049
446 0 55.1151 10.6504 587 60.293 807.351 514.38
447 0 55.1992 11.4494 632 60.4367 807.584 511.372
448 0 56.1409 11.4177 641 60.3167 807.555 512.075
449 0 57.0591 10.1298 578 61.7215 807.804 509.901
450 0 57.1775 9.35682 535 63.1794 806.755 509.331
451 0 60.0702 10.9705 659 62.0243 806.836 507.179
452 0 63.0836 10.5891 668 62.0344 807.319 509.033
453 0 64.1174 10.4964 673 62.5617 807.155 508.909
454 0 69.2438 11.1635 773 61.3583 806.933 509.012
455 0 70.0641 12.1175 849 61.6349 807.306 505.171
456 0 73.0793 10.6323 777 63.0888 806.795 504.6
457 0 72.0857 10.7234 773 64.3777 807.114 503.994
458 1 38.0497 11.5901 441 61.5873 807.113 519.948
459 0 40.0468 11.6364 466 62.221 806.365 519.788
460 0 39.0926 11.3577 444 63.1464 807.005 518.624
461 0 42.0901 11.6892 492 62.498 807.386 521.606
462 0 44.2576 12.9243 572 61.1329 807.147 519.096
463 0 43.0393 12.477 537 62.5065 807.171 517.667
464 0 47.0613 13.4293 632 60.4778 806.514 517.756
465 0 49.0929 12.1199 595 61.9983 806.407 517.503
466 0 50.132 12.8461 644 60.9317 806.672 518.356
467 0 50.0764 11.1629 559 63.6064 807.429 514.812
468 0 51.0809 13.5667 693 61.2208 806.351 513.39
469 0 53.0793 11.285 599 63.2371 806.811 512.668
470 0 55.0478 11.6444 641 62.702 807.15 512.362
471 0 55.112 11.5401 636 63.3365 807.074 510.961
472 0 55.0752 9.98634 550 65.54 807.044 509.616
473 0 58.065 11.0049 639 63.4194 807.626 510.171
474 0 60.3134 10.462 631 64.4881 807.493 509.395
475 0 62.1286 10.5266 654 64.526 806.732 507.208
476 0 65.1309 10.3637 675 64.437 807.204 503.578
477 0 66.1056 10.9976 727 63.8377 806.722 504.646
478 0 65.0753 10.2343 666 64.3829 806.401 499.366
479 0 69.166 10.0628 696 64.8894 807.302 498.839
480 0 75.1669 10.2306 769 64.4434 806.298 506.713
481 0 76.1214 11.3897 867 63.8697 806.433 501.153
482 0 80.15 11.3038 906 64.0751 806.586 501.954
483 0 85.2269 12.7425 1086 62.1888 807.358 499.975
484 0 86.2067 12.3192 1062 62.9755 806.647 499.096
485 0 88.3154 13.8481 1223 61.4334 806.968 496.194
486 0 92.1947 10.4453 963 65.0291 807.458 494.024
487 0 94.2353 11.5986 1093 64.0979 806.891 492.693
488 0 98.1727 11.4696 1126 64.1465 806.449 495.833
489 0 101.234 11.6166 1176 64.2279 806.537 491.575
490 0 101.268 10.2599 1039 66.1145 806.498 489.565
491 0 105.172 11.505 1210 65.1851 807.021 488.083
492 1 54.0659 9.24797 500 65.606 806.32 512.52
493 0 58.0727 10.7452 624 63.7019 805.79 512.554
494 0 61.0967 12.0792 738 62.9404 806.201 511.789
495 0 62.1014 13.1398 816 62.7868 806.232 510.143
496 0 64.1276 11.8826 762 64.5092 806.18 509.791
497 0 67.1619 12.3284 828 64.5254 806.882 506.44
498 0 67.0586 10.7518 721 66.4743 806.691 509.718
499 0 70.1012 12.4392 872 64.7718 806.43 507.67
500 0 71.3012 10.7432 766 67.0966 806.136 504.629
501 0 76.1843 11.3672 866 66.3372 806.816 501.307
502 0 77.2592 11.2608 870 66.9299 806.498 502.32
503 0 80.1449 10.6432 853 67.9168 806.193 497.477
504 0 84.1061 12.4248 1045 65.7598 806.848 500.287
505 0 88.1716 12.419 1095 66.1443 806.689 495.111
506 0 92.1383 12.6766 1168 65.5248 806.392 493.646
507 0 95.1078 12.8591 1223 65.3246 806.673 493.952
508 0 97.2484 13.1005 1274 65.2276 806.462 491.745
509 1 48.1019 9.02252 434 67.4539 805.846 516.717
510 0 51.0512 10.7931 551 65.5554 805.884 516.348
511 0 52.0929 12.3625 644 64.4363 806.357 514.98
512 0 53.0604 13.3998 711 63.4684 806.148 514.776
513 0 58.0565 12.5051 726 63.7824 806.218 514.127
514 0 57.0613 13.4592 768 63.4596 805.829 514.121
515 0 57.0686 10.8992 622 66.4373 806.847 513.297
516 0 61.0413 13.0567 797 64.0339 806.749 509.299
517 0 63.0444 11.8964 750 64.864 805.515 511.116
518 0 63.0795 10.9703 692 66.2659 806.322 512.574
519 0 67.0564 11.7215 786 65.3753 806.089 509.183
520 0 68.1282 11.1995 763 66.4063 805.526 506.743
521 0 70.0687 12.1595 852 65.1479 807.081 508.291
522 0 70.0754 10.7598 754 67.3435 806.235 502.168
523 0 76.0921 11.4598 872 65.8761 806.481 504.783
524 0 80.2297 13.1747 1057 63.9924 806.99 500.785
525 0 81.1161 11.4897 932 66.3777 806.645 502.53
526 0 84.1011 12.7347 1071 65.3016 806.426 500.702
527 0 85.1486 12.5193 1066 66.1886 807.035 496.621
528 1 44.1109 10.6323 469 65.3518 807.009 520.245
529 0 44.1278 10.7869 476 65.0231 806.475 522.571
530 0 45.0806 10.7142 483 66.412 806.582 520.489
531 0 46.0865 12.6935 585 64.6496 806.227 518.306
532 0 50.1634 11.8014 592 64.6182 805.921 518.725
533 0 50.1454 11.0878 556 66.1349 805.993 517.858
534 0 50.0766 11.4225 572 66.1276 806.264 517.112
535 0 54.1284 12.5812 681 64.1806 806.828 516.311
536 0 56.0884 12.6586 710 63.9972 806.879 516.304
537 0 57.0448 12.8496 733 63.5184 806.383 513.068
538 0 59.0818 11.9157 704 64.7244 806.374 514.274
539 0 61.0558 12.7752 780 63.1474 806.244 513.344
540 0 63.0699 12.8746 812 63.7414 806.9 511.1
541 0 63.0359 12.3422 778 64.4126 806.577 510.112
542 0 67.0548 12.02 806 64.6476 806.835 509.217
543 0 69.0256 12.662 874 64.0789 806.662 506.725
544 0 71.088 10.8457 771 65.7717 806.726 508.437
545 0 75.0567 12.3773 929 64.1421 806.32 506.816
546 0 76.1649 13.1688 1003 63.7129 806.235 505.334
547 0 79.115 11.6539 922 65.1475 806.756 505.156
548 0 81.136 12.5838 1021 64.5798 806.697 504.006
549 1 42.0583 12.1022 509 63.2593 805.723 523.071
550 0 44.0527 11.5316 508 62.8287 805.392 523.78
551 0 44.0351 9.67411 426 66.8404 806.397 521.437
552 0 46.0626 11.0719 510 65.3157 806.52 520.449
553 0 46.088 10.5016 484 65.5062 806.459 520.285
554 0 48.0866 11.2089 539 65.0278 806.668 520.115
555 0 49.0507 11.3148 555 64.7928 806.243 519.595
556 0 52.1262 12.2012 636 63.4984 805.921 517.896
557 0 53.0683 11.4569 608 64.3849 806.275 517.337
558 0 56.1471 12.6988 713 62.6662 806.252 516.053
559 0 57.076 11.949 682 63.1965 806.587 514.456
560 0 56.0842 9.94932 558 65.8674 806.475 513.498
561 0 59.1156 12.4671 737 63.5631 806.579 510.752
562 0 62.0764 12.7907 794 62.699 806.56 513.78
563 0 63.1331 12.5766 794 63.2204 806.14 512.208
564 0 66.2298 10.3277 684 65.0585 806.151 506.178
565 0 66.0893 10.5766 699 65.0944 805.944 508.807
566 0 72.0858 12.4019 894 62.2852 805.908 510.087
567 0 72.0899 13.2612 956 62.1967 805.981 507.037
568 0 74.2353 11.9889 890 63.6326 805.63 504.575
569 1 37.0424 12.2022 452 63.1217 805.785 523.927
570 0 38.0597 11.9286 454 63.315 806.388 523.665
571 0 41.0909 13.2389 544 62.114 806.399 521.496
572 0 42.07 11.5284 485 63.3278 806.959 523.342
573 0 44.0763 12.796 564 61.6933 806.222 522.601
574 0 45.1265 12.9414 584 62.1592 806.627 520.243
575 0 48.0349 13.5735 652 60.7623 806.558 520.291
576 0 49.1329 13.4533 661 61.5371 806.422 518.154
577 0 50.0338 14.2903 715 60.0126 806.962 519.762
578 0 50.0551 14.3442 718 60.6908 807.27 519.513
579 0 52.0605 12.5815 655 62.2702 807.356 519.524
580 0 54.0511 14.2643 771 60.725 808.429 518.442
581 0 56.052 13.2734 744 62.2728 808.27 517.23
582 0 57.0438 13.551 773 62.0776 808.432 515.884
583 0 60.1154 15.1376 910 59.4615 807.821 515.763
584 0 59.0581 13.4444 794 63.005 807.66 513.543
585 0 60.0667 13.1687 791 63.7813 807.278 512.982
586 0 62.0931 13.1415 816 64.0723 807.33 511.418
587 0 66.0755 14.9374 987 61.7882 807.243 511.113
588 0 67.0854 14.0716 944 62.7193 806.762 510.363
589 0 71.1027 12.8687 915 63.7989 806.968 509.927
590 0 74.1275 12.7753 947 63.9937 806.295 509.334
591 0 76.135 13.2922 1012 63.3113 806.777 509.257
592 0 77.0592 14.0412 1082 63.1488 806.932 504.487
593 0 79.0519 14.0161 1108 63.4251 806.358 505.441
594 1 44.0269 13.4463 592 63.3463 806.137 523.38
595 0 44.0426 12.4652 549 65.031 806.078 521.525
596 0 46.0781 12.5656 579 65.475 806.938 521.32
597 0 48.1755 13.2847 640 63.8109 806.567 520.583
598 0 47.0931 11.4242 538 66.8717 806.864 519.914
599 0 52.0807 14.5159 756 62.6111 806.478 517.694
600 0 51.1169 11.4835 587 66.4089 807.07 518.685
601 0 52.0441 12.4126 646 65.3359 806.817 517.947
602 0 55.0973 12.5051 689 65.6763 806.913 514.835
603 0 58.0726 12.536 728 65.0371 807.128 516.005
604 0 58.115 13.4217 780 64.8872 806.786 512.844
605 0 61.0572 13.2335 808 65.0557 807.743 511.368
606 0 61.1512 11.5124 704 67.1648 807.675 511.781
607 0 65.0868 12.0454 784 66.5765 807.83 513.066
608 0 68.1002 11.6593 794 67.2607 807.63 507.723
609 0 70.1765 13.5516 951 64.5878 807.383 508.343
610 0 72.1694 12.152 877 66.5906 807.065 507.493
611 1 35.0603 11.2948 396 66.9318 807.247 525.348
612 0 36.0207 12.4928 450 65.0022 807.318 525.847
613 0 36.0375 12.7645 460 65.8174 807.241 523.957
614 0 37.0357 14.6075 541 63.7264 807.421 523.989
615 0 41.129 12.6675 521 64.7754 806.818 523.608
616 0 39.0778 12.1552 475 66.9368 807.787 522.514
617 0 39.1629 11.1585 437 68.4577 807.561 522.243
618 0 43.0807 13.5095 582 64.9175 807.277 521.139
619 0 44.0447 12.8506 566 66.1413 807.217 520.341
620 0 47.0896 12.6142 594 65.4377 807.316 519.586
621 0 48.0368 13.448 646 64.209 807.017 520.02
622 0 47.0423 10.3736 488 68.6209 807.275 517.615
623 0 48.1168 11.9501 575 67.3461 807.179 516.95
624 0 51.1763 13.2092 676 64.8787 807.385 515.701
625 0 54.0669 13.3168 720 64.9681 807.465 516.028
626 0 55.0969 12.8501 708 65.1638 806.994 516.541
627 0 56.1202 14.2729 801 63.985 805.929 513.363
628 0 57.0371 11.2383 641 67.0187 806.736 513.402
629 0 61.1133 14.0231 857 63.8145 807.455 511.984
630 0 63.1216 13.0542 824 65.1456 807.265 510.063
631 0 66.1022 14.3112 946 63.166 807.085 509.484
632 0 68.0876 14.6723 999 62.9279 807.227 510.119
633 0 70.0636 13.8588 971 63.967 807.386 508.959
634 1 33.0684 11.4913 380 66.0132 806.611 525.416
635 0 34.0345 11.3121 385 66.3325 807.288 524.182
636 0 36.0172 12.4663 449 64.6748 807.84 524.379
637 0 37.0058 13.1331 486 64.2572 807.584 524.109
638 0 38.0436 13.3794 509 63.9686 807.181 522.861
639 0 40.0737 14.1489 567 63.4797 807.041 523.157
640 0 39.0664 13.0803 511 65.2975 807.276 523.004
641 0 42.0095 13.2827 558 64.3978 807.475 522.26
642 0 45.0818 14.2852 644 62.7143 807.596 521.495
643 0 43.1536 12.7915 552 65.5562 806.496 522.016
644 0 45.1074 12.4148 560 65.5714 806.323 522.796
645 0 46.0493 13.5724 625 65.4496 807.891 518.802
646 0 47.0755 14.5511 685 64.419 807.107 519.201
647 0 49.3279 13.9475 688 65.1235 807.568 518.606
648 0 52.1294 14.2722 744 64.1801 806.974 517.204
649 0 53.1642 14.0508 747 64.7028 806.743 517.969
650 0 55.0814 14.7418 812 63.0308 807.405 517.557
651 0 55.1395 14.019 773 64.7814 807.987 514.056
652 0 56.1578 14.3524 806 64.0806 807.624 517.402
653 0 58.1545 14.771 859 63.9546 807.631 513.255
654 0 60.1422 14.2496 857 64.72 807.734 513.019
655 0 63.1734 14.9272 943 63.8494 807.517 511.192
656 0 64.0792 13.8266 886 65.4582 808.59 511.23
657 0 66.0527 13.247 875 66.8617 808.014 510.338
658 0 67.289 12.7361 857 67.3664 807.491 509.936
659 0 70.173 12.5974 884 67.3213 807.692 508.489
660 0 72.0584 13.7666 992 66.8478 808.042 505.279
661 0 77.1617 15.3185 1182 64.1151 807.663 506.212
662 0 79.1289 15.4937 1226 64.0008 807.681 504.97
663 0 81.2234 14.6263 1188 65.6153 808.129 503.709
664 1 41.0648 12.2976 505 66.7861 807.291 523.182
665 0 41.0703 13.3673 549 66.377 807.483 523.579
666 0 44.0615 13.5946 599 65.6294 807.778 522.826
667 0 44.073 13.9314 614 65.7655 808.208 521.785
668 0 45.1376 13.0268 588 66.2755 808.09 521.241
669 0 48.0833 12.7903 615 66.1496 807.4 521.333
670 0 47.1009 12.1866 574 67.8449 807.801 520.031
671 0 51.0381 14.3618 733 64.8131 809.1 518.19
672 0 53.1011 14.7831 785 63.7261 808.804 517.549
673 0 54.1216 13.636 738 65.4011 808.005 517.953
674 0 57.1239 15.8252 904 62.2345 807.31 516.137
675 0 57.1073 14.2539 814 65.2187 807.687 514.923
676 0 61.0972 14.5833 891 64.56 808.424 513.376
677 0 61.176 13.0934 801 66.5581 808.788 513.592
678 0 62.0871 14.6246 908 65.4581 808.241 511.494
679 0 66.2146 13.8489 917 65.8855 807.586 511.152
680 0 66.2798 12.93 857 67.8296 808.588 509.691
681 0 70.2912 14.2692 1003 66.1127 808.935 506.28
682 0 73.1832 15.2631 1117 64.2283 808.5 507.161
683 0 75.1123 13.0738 982 66.9297 807.928 506.425
684 1 36.0153 10.3567 373 68.6568 808.633 525.241
685 0 40.137 11.6601 468 65.7457 807.942 524.665
686 0 41.0857 11.0744 455 67.7451 808.596 522.925
687 0 43.1188 13.1033 565 65.1451 808.035 522.487
688 0 44.03 14.581 642 63.6386 808.198 522.002
689 0 44.1207 12.6471 558 66.905 808.206 519.98
690 0 44.0795 12.2052 538 67.4461 808.691 520.786
691 0 48.0717 14.4784 696 63.5287 808.977 519.552
692 0 50.1246 13.0674 655 64.8595 807.948 519.432
693 0 51.1227 14.0447 718 63.4499 807.882 518.245
694 0 54.1828 14.3219 776 62.0168 807.795 519.045
695 0 55.1438 14.7977 816 62.5968 807.781 515.581
696 0 56.1562 15.4569 868 61.9597 807.548 514.567
697 0 56.0784 12.8927 723 65.26 807.899 514.92
698 0 60.0677 13.3017 799 64.0864 807.891 517.222
699 0 61.1023 12.4382 760 65.7118 808.121 513.38
700 0 62.1112 12.7674 793 66.203 808.963 511.649
701 0 67.0878 12.8041 859 65.3958 808.24 512.807
702 0 68.0594 13.4882 918 65.6002 807.852 510.595
703 0 71.0672 12.5515 892 66.6323 807.795 509.054
704 0 70.0657 13.3874 938 66.209 807.558 508.825
705 0 74.2613 13.7083 1018 65.9745 807.791 506.654
706 1 39.0836 12.9466 506 65.6028 807.941 525.227
707 0 41.2125 13.0058 536 65.2556 807.634 525.864
708 0 41.0719 14.219 584 65.125 807.572 523.827
709 0 42.0892 13.7802 580 65.8552 807.869 523.509
710 0 40.0987 11.9954 481 69.5073 807.721 523.042
711 0 43.1344 14.9996 647 65.8161 807.649 520.872
712 0 44.0655 12.8899 568 69.0493 808.104 520.53
713 0 48.1575 15.034 724 64.7182 807.847 521.548
714 0 49.0691 13.4504 660 66.9197 807.265 522.112
715 0 49.0478 13.8232 678 66.6298 807.935 522.019
716 0 52.0959 13.4176 699 67.1516 807.827 519.534
717 0 53.0715 13.5101 717 67.6276 808.112 518.344
718 0 54.0711 13.7966 746 67.4048 808.357 518.842
719 0 56.1035 13.7959 774 66.7145 808.707 518.037
720 0 60.0776 14.1983 853 65.2778 808.019 518.816
721 0 60.0477 13.9722 839 67.1216 807.731 515.374
722 0 61.133 13.7078 838 67.4069 807.99 514.839
723 0 63.0689 13.7469 867 67.5444 807.54 514.404
724 0 67.1535 13.9531 937 66.6884 807.57 513.018
725 0 68.162 15.1257 1031 66.0553 807.913 509.552
726 0 70.1967 13.5192 949 67.7165 808.433 511.299
727 0 72.1564 12.7639 921 68.7058 808.153 509.882
728 0 75.0704 15.3323 1151 65.5534 808.062 508.533
729 0 76.0834 14.1292 1075 67.7079 807.757 506.927
730 0 81.1283 13.8546 1124 67.0712 807.072 508.522
731 0 82.2345 14.5803 1199 67.025 807.822 505.096
732 1 40.1267 12.8344 515 68.3379 808.371 525.687
733 0 41.1309 12.2779 505 69.1426 807.251 524.992
734 0 42.0483 12.0576 507 68.641 807.201 526.274
735 0 45.1945 13.4972 610 67.2754 807.751 523.197
736 0 45.0423 12.5882 567 68.9612 807.979 521.832
737 0 46.0671 13.3284 614 67.7101 807.72 522.505
738 0 47.0397 12.6276 594 68.8232 808.049 520.788
739 0 51.0735 14.998 766 65.5 808.112 519.503
740 0 53.1085 13.6513 725 66.4703 808.541 519.966
741 0 54.1257 13.0807 708 67.5226 807.91 518.994
742 0 56.0321 14.6523 821 65.1596 808.074 519.118
743 0 57.0557 13.0399 744 67.039 807.413 518.2
744 0 59.1416 12.9012 763 67.6488 807.417 516.423
745 0 62.1265 14.0681 874 65.389 807.04 515.545
746 0 64.1172 14.0212 899 65.5729 807.25 513.643
747 0 66.1148 13.1136 867 66.7266 807.678 514.441
748 0 66.1148 13.0984 866 131.754 808.666 514.271
749 0 71.1436 13.4938 960 66.9354 807.74 510.738
750 0 74.1185 13.4649 998 66.7695 807.099 510.6
751 0 76.0693 14.1976 1080 66.1315 807.519 509.43
752 0 78.0779 13.3969 1046 67.478 806.935 508.724
753 0 81.0464 14.8804 1206 65.7769 807.498 506.983
754 0 84.0901 12.9504 1089 68.2296 808.01 506.179
755 0 88.114 16.1836 1426 63.8738 808.03 503.666
756 1 40.0496 12.7592 511 68.7867 807.489 525.503
757 0 43.0426 12.5457 540 68.4315 807.661 525.731
758 0 44.1575 14.1086 623 66.7416 807.732 524.594
759 0 44.1419 11.4857 507 70.0651 807.201 523.864
760 0 45.1496 13.112 592 69.5068 807.535 521.522
761 0 49.1545 14.1188 694 67.3285 807.803 521.585
762 0 50.0731 12.7613 639 68.8545 806.875 521.246
763 0 51.102 13.2089 675 68.997 807.724 518.914
764 0 53.0905 13.3169 707 68.8062 807.092 518.694
765 0 54.1231 13.0074 704 68.9375 807.469 519.966
766 0 59.173 15.3786 910 63.5549 807.941 521.841
767 0 59.0609 13.6977 809 67.2052 807.066 518.791
768 0 62.2197 14.3524 893 66.1892 807.347 516.082
769 0 64.0396 14.3817 921 66.278 807.207 515.394
770 0 66.1197 13.9898 925 66.5308 806.871 514.115
771 0 70.2299 15.1075 1061 64.9171 806.963 513.741
772 0 71.1756 13.7407 978 67.1472 808.13 512.692
773 0 73.2257 12.5093 916 68.9749 807.139 510.397
774 0 75.1855 14.6837 1104 66.404 807.029 510.745
775 0 80.2219 14.2854 1146 66.9232 807.1 507.311
776 0 82.1991 14.5135 1193 66.4552 806.942 506.497
777 0 84.0746 14.7607 1241 66.7808 807.098 504.197
778 0 87.2742 14.1279 1233 67.5466 808.039 502.139
779 0 90.1564 14.9518 1348 66.5045 807.726 499.942
780 0 95.1814 14.6457 1394 66.3278 808.036 500.63
781 0 97.0852 13.8435 1344 67.631 807.343 498.666
782 1 48.0559 13.9005 668 67.2186 807.192 523.359
783 0 47.153 12.6397 596 69.4966 807.51 522.785
784 0 49.0638 15.7754 774 64.7984 807.207 524.008
785 0 48.0726 13.438 646 68.6006 808.327 521.399
786 0 50.0803 13.4184 672 67.9405 807.655 522.086
787 0 52.0351 15.0283 782 66.4258 807.265 518.958
788 0 55.0616 14.1115 777 67.2291 806.919 519.632
789 0 56.0559 14.771 828 67.5737 806.78 518.832
790 0 59.1137 15.6478 925 65.4076 806.362 519.867
791 0 61.1451 14.0158 857 68.6523 806.392 515.526
792 0 63.1605 15.8802 1003 66.0409 807.242 516.487
793 0 65.2376 15.0527 982 67.5886 807.789 513.978
794 0 69.1402 15.5915 1078 65.3878 807.861 516.799
795 0 66.1362 14.2282 941 69.6546 807.391 512.864
796 0 72.1028 16.7539 1208 65.8833 807.878 510.252
797 0 75.1432 16.036 1205 66.6606 807.537 511.902
798 0 76.1225 17.0777 1300 66.0292 807.165 509.532
799 0 80.109 14.6425 1173 68.8107 807.344 508.842
800 0 81.114 14.8926 1208 68.7955 807.729 507.336
801 0 83.1188 13.7394 1142 70.7391 808.092 506.128
802 0 86.1742 14.9813 1291 69.3106 807.428 505.652
803 0 88.2504 15.1727 1339 69.5011 807.709 503.252
804 0 91.1028 15.3343 1397 68.8933 807.803 502.977
805 0 93.1325 15.6551 1458 69.2373 807.069 501.865
806 1 47.1483 13.659 644 70.8199 806.888 523.188
807 0 48.0851 14.9111 717 70.3124 806.803 523.926
808 0 48.0595 14.0659 676 72.145 806.978 523.611
809 0 50.2484 14.2492 716 71.9148 806.902 522.028
810 0 52.1082 14.8345 773 70.7801 807.304 521.774
811 0 53.3273 15.0767 804 71.0697 807.05 521.117
812 0 55.0702 14.9264 822 71.2871 806.983 521.144
813 0 55.1142 14.225 784 72.5625 807.812 520.811
814 0 59.1379 13.663 808 72.5136 807.91 520.53
815 0 60.281 15.3448 925 71.5373 807.226 518.811
816 0 62.2102 14.7564 918 72.1275 807.325 519.643
817 0 62.1614 14.3819 894 74.0705 807.579 517.748
818 0 63.1345 14.7463 931 73.9506 807.66 517.719
819 0 65.1869 15.3252 999 73.6366 807.236 515.76
820 0 69.1583 14.5319 1005 74.3721 807.381 515.088
821 0 70.0865 15.6949 1100 73.5382 807.442 513.188
822 0 73.091 16.0485 1173 72.9906 806.958 513.431
823 0 75.1181 15.7485 1183 73.9797 806.955 512.141
824 0 77.1527 16.2405 1253 73.3136 807.239 511.128
825 0 77.1646 14.8773 1148 75.6742 807.696 510.652
826 0 80.2031 16.0343 1286 74.4199 807.505 507.942
827 0 84.1033 16.6462 1400 73.2586 807.316 507.543
828 0 87.1381 15.2631 1330 74.4925 807.441 510.17
829 0 89.165 16.4302 1465 74.3884 807.334 505.367
830 0 93.0991 15.3277 1427 75.7765 807.935 504.489
831 0 94.1357 15.9238 1499 74.9066 806.619 504.494
832 0 98.0532 16.7868 1646 73.4854 807.01 503.075
833 0 99.1743 14.8829 1476 77.5454 807.669 499.743
834 0 103.4 16.5184 1708 74.8091 807.796 498.108
835 1 53.0631 15.001 796 77.4108 806.773 520.686
836 0 54.1782 14.2308 771 77.8859 806.672 522.027
837 0 55.1949 14.639 808 78.8676 807.506 520.436
838 0 58.2128 13.6224 793 78.6545 807.045 522.15
839 0 61.2489 14.6941 900 77.4211 807.34 520.308
840 0 61.2311 14.4534 885 79.0836 807.255 518.991
841 0 65.1288 14.4943 944 78.4174 807.033 518.427
842 0 68.2964 16.5748 1132 75.3966 807.339 517.575
843 0 68.3447 15.0999 1032 78.3682 807.326 517.979
844 0 68.283 12.785 873 81.8889 807.276 516.885
845 0 71.1758 13.3472 950 80.6084 807.273 515.744
846 0 73.279 13.7557 1008 81.3016 806.87 514.07
847 0 78.1828 15.3231 1198 78.8673 807.364 512.14
848 0 79.2181 14.6305 1159 79.9957 807.205 511.142
849 0 81.188 14.1154 1146 80.6291 806.998 508.684
850 0 84.1465 15.0452 1266 78.7504 806.56 508.289
851 0 86.3523 13.8966 1200 80.2725 807.285 508.11
852 0 89.1953 14.586 1301 79.7917 807.503 504.692
853 0 92.1969 15.6079 1439 78.3023 807.201 503.954
854 1 40.0403 13.3366 534 79.8184 807.174 527.133
855 0 41.1795 14.6189 602 78.892 806.801 526.947
856 0 42.1082 14.059 592 80.8733 806.564 526.485
857 0 44.1308 12.3723 546 81.6923 806.478 527.487
858 0 45.2006 13.1635 595 82.5244 806.24 524.624
859 0 47.1964 14.0901 665 81.1684 806.722 525.567
860 0 47.2059 13.3246 629 84.6979 806.928 525.537
861 0 48.0377 13.9682 671 83.0969 806.514 527.076
862 0 53.1047 15.3847 817 81.1053 807.045 523.787
863 0 52.1155 14.3335 747 84.2985 806.842 521.04
864 0 55.104 15.4072 849 81.3392 807.588 521.843
865 0 55.146 15.323 845 83.0012 806.896 519.902
866 0 57.206 13.6699 782 85.1905 806.953 520.692
867 0 57.257 13.3608 765 86.5634 806.996 519.916
868 0 60.07 13.8505 832 85.744 807.8 519.121
869 0 62.2539 13.6859 852 86.3028 806.56 517.047
870 0 65.1174 15.3415 999 82.6186 807.302 517.14
871 0 68.1213 13.7402 936 84.578 806.781 517.855
872 0 70.1235 14.6171 1025 84.3463 806.773 514.468
873 0 72.5229 13.6509 990 85.3343 806.823 513.593
874 0 73.0656 14.5075 1060 84.4717 806.417 513.692
875 0 77.1758 14.7067 1135 84.17 806.677 512.137
876 0 78.1512 14.0497 1098 85.9791 806.529 509.587
877 0 80.1175 14.2541 1142 85.1007 806.141 508.633
878 0 83.118 14.1726 1178 85.4278 805.826 506.511
879 1 41.0247 13.6503 560 84.4125 805.832 527.757
880 0 40.1461 12.9278 519 86.5453 806.085 527.83
881 0 42.1286 12.8179 540 86.6685 806.178 527.078
882 0 44.0495 14.4156 635 83.8047 806.72 526.455
883 0 45.052 14.2724 643 84.2364 806.645 527.009
884 0 43.0966 13.1101 565 88.1345 806.455 525.54
885 0 48.1036 14.9885 721 82.6768 807.462 526.37
886 0 49.0618 14.1047 692 85.0434 806.233 525.201
887 0 51.133 14.0614 719 85.9666 806.784 523.677
888 0 50.2375 14.0931 708 86.1723 806.812 523.157
889 0 55.3433 14.1842 785 84.4025 806.766 521.866
890 0 57.176 15.1112 864 82.9537 807.179 520.95
891 0 58.0949 14.4419 839 84.0679 807.347 520.093
892 0 59.4424 13.8622 824 85.5558 807.425 518.729
893 0 62.1311 14.1153 877 84.1209 807.31 519.634
894 0 66.1256 14.9715 990 82.0717 807.165 517.517
895 0 67.108 15.5123 1041 81.4995 806.992 515.857
896 0 67.0995 13.8153 927 85.0194 807.178 515.217
897 0 72.1563 14.4547 1043 83.3269 807.091 514.051
898 0 74.1103 15.261 1131 82.9027 807.591 512.447
899 0 75.1358 16.3171 1226 80.6134 807.257 512.626
900 0 80.0931 15.045 1205 80.8398 807.732 513.792
901 0 79.1408 14.847 1175 83.1217 807.434 509.578
902 0 83.1425 15.3952 1280 80.8359 806.717 510.712
903 0 87.152 15.4902 1350 80.3185 806.647 506.824
904 0 89.2135 14.8968 1329 81.2807 807.093 507.588
905 0 89.2078 13.5414 1208 83.8858 806.676 505.555
906 1 46.0944 14.2534 657 81.2801 806.775 526.679
907 0 46.1553 14.0396 648 81.2963 806.259 525.296
908 0 48.1581 13.4972 650 80.9585 807.38 527.42
909 0 47.3759 13.3823 634 83.765 807.743 524.472
910 0 49.1208 15.5331 763 78.9004 807.661 524.858
911 0 52.3121 14.8914 779 79.7856 808.321 524.462
912 0 54.1646 15.7852 855 77.8561 807.725 523.842
913 0 54.1887 14.8924 807 79.0223 807.605 523.107
914 0 56.2129 15.5836 876 78.4281 807.34 520.377
915 0 56.219 14.1055 793 80.5044 806.305 522.971
916 0 56.2241 13.1083 737 83.2931 807.037 520.41
917 0 59.194 13.4304 795 81.9031 807.108 520.091
918 0 63.1566 15.612 986 77.3509 806.623 518.402
919 0 65.0547 14.8183 964 78.8371 806.909 517.881
920 0 67.151 14.7429 990 78.3444 806.573 517.633
921 0 69.3178 15.768 1093 76.6917 806.717 516.557
922 0 70.0816 14.0836 987 79.9929 806.621 513.732
923 0 74.1605 16.3025 1209 75.182 806.222 514.696
924 0 76.0896 14.2727 1086 78.2201 806.751 513.567
925 0 79.0439 14.9917 1185 76.8616 806.478 511.722
926 0 82.1112 15.138 1243 76.4191 806.479 510.291
927 0 84.2723 16.9451 1428 73.4286 806.077 510.105
928 0 86.1404 14.5344 1252 77.3562 806.268 508.912
929 0 89.2061 14.2703 1273 77.6253 806.859 505.876
930 1 43.2402 12.8122 554 78.3303 806.845 528.616
931 0 45.1644 13.4177 606 78.7987 806.756 526.34
932 0 46.3034 15.1609 702 76.2236 806.399 526.009
933 0 47.0734 13.6383 642 78.0327 806.581 526.002
934 0 49.1958 13.9443 686 77.4431 807.246 524.606
935 0 50.2872 15.4512 777 74.8301 807.091 524.054
936 0 54.1265 15.5562 842 74.057 807.064 522.241
937 0 53.0895 13.901 738 77.8103 807.192 521.701
938 0 56.2263 14.0859 792 77.0682 807.112 520.581
939 0 57.2157 15.4154 882 74.8299 806.532 521.658
940 0 61.142 17.1077 1046 71.8518 806.04 520.173
941 0 60.1061 15.822 951 74.6015 806.743 520.281
942 0 62.1267 14.9533 929 76.4198 807.607 517.815
943 0 65.2687 14.8923 972 75.6574 806.956 516.885
944 0 67.2987 14.5917 982 76.0387 806.348 516.006
945 0 69.3273 15.2321 1056 75.6089 808.056 513.587
946 0 69.2524 14.6277 1013 76.9487 807.729 512.482
947 0 74.2406 15.7461 1169 73.8794 807.352 514.357
948 0 75.2417 13.9683 1051 77.0971 807.029 511.751
949 0 78.2224 15.8011 1236 74.2638 807.6 509.652
950 0 79.3094 14.1471 1122 76.8806 807.878 508.052
951 0 81.3185 13.4656 1095 78.1233 807.322 506.149
952 0 88.146 15.3495 1353 73.7169 807.419 505.405
953 0 89.1856 15.7537 1405 73.3381 807.562 506.139
954 0 93.3071 15.5187 1448 73.3577 807.374 503.506
955 0 96.153 15.8913 1528 73.301 806.16 500.853
956 0 98.1383 15.3661 1508 73.9516 807.109 501.497
957 0 100.348 14.9281 1498 74.3778 807.456 499.219
958 1 50.2181 13.0033 653 73.9801 807.052 524.247
959 0 49.1328 12.6392 621 75.6667 807.098 524.127
960 0 50.1676 13.6941 687 75.3916 807.176 521.344
961 0 52.1369 14.6537 764 73.4018 807.175 522.346
962 0 55.1715 15.914 878 71.3428 807.359 521.343
963 0 55.3258 14.8213 820 73.4085 807.101 520.722
964 0 57.2146 15.3807 880 71.9352 806.91 520.378
965 0 59.1753 15.2936 905 72.3425 807.019 516.705
966 0 61.2356 15.9548 977 70.6499 807.389 518.31
967 0 63.1822 14.5452 919 73.0261 807.061 516.692
968 0 66.2193 15.5393 1029 70.9621 807.351 516.263
969 0 67.2339 13.6241 916 74.3188 807.456 513.937
970 0 69.1747 13.9357 964 73.0664 807.585 515.42
971 0 71.1258 13.5253 962 73.7048 807.98 511.616
972 0 75.3038 15.6566 1179 70.5165 807.921 511.9
973 0 76.2117 14.0398 1070 73.243 808.355 510.43
974 0 79.1449 14.7577 1168 72.0959 807.894 507.693
975 0 83.4355 14.2266 1187 72.5628 807.688 506.783
976 0 84.1686 15.1482 1275 71.5522 807.875 504.844
977 0 87.1052 14.9015 1298 71.5801 807.462 505.831
978 0 92.1601 15.5382 1432 70.8778 807.782 501.841
979 1 45.0983 13.016 587 72.4446 807.123 524.596
980 0 46.5783 14.2556 664 70.7048 806.949 525.473
981 0 48.3666 13.9146 673 72.0921 807.591 523.321
982 0 49.1677 14.2777 702 72.0684 807.697 522.446
983 0 51.2377 16.1795 829 69.4125 807.703 522.345
984 0 51.1167 13.9094 711 73.3024 807.887 521.942
985 0 51.1799 13.9117 712 74.316 808.021 519.794
986 0 55.1665 14.5741 804 72.7264 807.641 520.357
987 0 57.2053 13.7924 789 73.6375 807.72 521.019
988 0 57.2279 14.0141 802 73.394 807.943 520.401
989 0 60.185 15.6683 943 71.1156 807.669 518.795
990 0 61.1539 13.8994 850 74.0306 807.64 518.531
991 0 64.2789 15.2772 982 71.8248 807.918 515.833
992 0 66.2983 15.3398 1017 71.943 808.365 515.633
993 0 68.2085 14.7782 1008 73.1964 807.476 513.982
994 0 70.3913 15.8969 1119 71.2735 807.55 513.719
995 0 71.2275 15.3592 1094 73.0247 808.067 511.978
996 0 75.2142 15.3163 1152 72.6675 808.556 510.146
997 0 77.2619 15.1433 1170 72.7624 807.869 509.936
998 0 79.3292 14.1184 1120 74.3134 807.386 510.132
999 0 82.3747 16.0001 1318 71.912 807.878 507.841
1000 0 84.2746 14.2392 1200 73.8642 807.412 505.946
1001 0 88.3495 15.0538 1330 72.0632 808.093 506.745
1002 1 41.1342 12.9576 533 73.9287 807.942 526.981
1003 0 43.1835 13.4774 582 73.4691 807.545 526
1004 0 44.2773 13.0089 576 74.6319 807.974 525.217
1005 0 46.1818 13.815 638 73.4906 807.428 526.273
1006 0 46.1368 12.9181 596 74.7802 807.349 526.319
1007 0 49.1426 16.9914 835 70.3689 807.51 524.175
1008 0 50.1882 14.7445 740 72.9351 806.846 524.342
1009 0 52.2015 15.0379 785 72.4357 807.456 523.572
1010 0 51.2404 14.3441 735 75.0463 807.347 521.597
1011 0 54.229 14.7154 798 73.8897 807.586 522.707
1012 0 56.2291 16.5039 928 70.7996 807.234 522.779
1013 0 58.1956 16.4102 955 72.2953 806.899 519.172
1014 0 57.1992 15.0002 858 74.6096 806.438 520.374
1015 0 62.2594 16.2867 1014 71.4961 806.484 521.269
1016 0 63.1953 15.7765 997 72.6439 806.988 521.455
1017 0 66.1997 17.4774 1157 70.6404 806.538 517.169
1018 0 67.5083 15.4944 1046 73.4503 807.23 517.772
1019 0 68.2712 15.6582 1069 73.7044 806.95 516.638
1020 0 73.2728 15.6129 1144 73.2255 806.893 516.581
1021 0 71.2326 14.5158 1034 76.5048 806.014 513.932
1022 0 78.1341 17.9691 1404 70.1303 806.437 513.724
1023 0 80.3637 16.836 1353 71.4922 806.742 513.237
1024 0 80.1872 15.813 1268 73.6916 806.688 512.468
1025 0 82.4681 16.3457 1348 72.701 806.63 508.924
1026 0 86.2708 15.8223 1365 73.1187 805.987 509.344
1027 0 88.1289 15.239 1343 74.0849 805.84 508.389
1028 0 89.1969 14.2606 1272 75.5975 806.277 508.527
1029 0 91.4384 14.6328 1338 75.2481 806.212 506.173
1030 0 96.2491 15.1898 1462 74.1785 806.508 504.321
1031 0 101.313 15.7531 1596 73.1942 805.997 503.442
1032 0 103.371 17.2389 1782 71.3384 806.137 499.444
1033 1 48.1204 14.6507 705 76.0596 806.417 525.319
1034 0 49.265 12.6459 623 78.5265 806.504 525.613
1035 0 52.2286 14.1685 740 76.1027 806.32 526.589
1036 0 52.2318 13.7081 716 78.7709 806.014 523.827
1037 0 53.2363 14.5765 776 76.2951 806.077 525.445
1038 0 55.1151 14.1703 781 78.1037 805.274 522.083
1039 0 59.1942 13.8189 818 78.4535 805.612 522.197
1040 0 58.4097 13.3368 779 79.9243 806.003 522.036
1041 0 60.1803 14.2073 855 79.1614 806.207 519.185
1042 0 64.1433 14.9509 959 77.2784 806.124 521.27
1043 0 64.2748 15.0759 969 78.1631 806.346 519.564
1044 0 66.43 14.0449 933 78.8639 805.994 521.759
1045 0 70.2406 16.2869 1144 75.6731 805.315 517.623
1046 0 73.2413 16.3569 1198 75.0326 805.148 517.604
1047 0 75.294 15.4594 1164 76.5868 805.515 516.416
1048 0 76.2077 15.484 1180 77.2153 805.803 514.062
1049 0 79.2795 15.5778 1235 76.3725 805.765 515.086
1050 0 81.1782 14.5852 1184 79.1537 805.812 511.398
1051 0 84.2806 15.7687 1329 76.1257 805.664 512.947
1052 0 85.217 14.9149 1271 78.4241 805.546 510.524
1053 0 90.3236 15.2563 1378 77.0893 804.884 511.097
1054 1 43.1005 13.9674 602 78.5698 805.711 529.968
1055 0 46.1451 13.7393 634 78.3785 805.642 528.765
1056 0 48.2523 15.564 751 74.0333 805.756 530.627
1057 0 49.3995 14.5548 719 76.9305 805.498 528.93
1058 0 50.261 15.6583 787 74.9886 805.464 527.29
1059 0 51.3058 14.2479 731 78.0369 805.216 526.557
1060 0 50.2388 13.6946 688 79.3852 805.411 526.68
1061 0 54.1789 13.2339 717 79.371 805.629 527.389
1062 0 55.3453 15.3039 847 77.5514 805.715 526.247
1063 0 58.1517 14.5997 849 77.7574 806.038 525.921
1064 0 59.302 15.0922 895 77.5453 806.227 524.751
1065 0 61.3359 14.9831 919 78.2949 805.888 522.822
1066 0 63.2902 15.9266 1008 76.8889 805.969 522.284
1067 0 67.2963 16.093 1083 74.8532 805.592 521.388
1068 0 68.2056 14.9841 1022 77.4746 805.19 519.87
1069 0 68.0999 14.0088 954 79.3658 805.065 519.943
1070 0 70.131 13.0613 916 81.1103 806.623 517.662
1071 0 73.2322 14.2833 1046 79.4656 806.496 517.185
1072 0 76.2342 15.0457 1147 77.5737 806.07 518.09
1073 0 78.2537 14.3508 1123 78.65 805.907 516.038
1074 0 80.2057 13.5901 1090 80.1752 806.461 513.809
1075 0 84.1513 14.7591 1242 77.7593 806.056 511.547
1076 1 41.2461 13.3589 551 77.2704 806.437 532.087
1077 0 41.344 13.4723 557 78.5099 806.533 530.837
1078 0 40.2066 12.4855 502 81.2271 806.337 530.195
1079 0 44.1874 16.0453 709 75.3399 806.481 529.055
1080 0 43.2141 14.972 647 77.5781 806.468 530.352
1081 0 44.2034 13.6867 605 79.4413 806.512 529.912
1082 0 47.2171 14.1051 666 77.9535 806.517 528.503
1083 0 48.2982 15.1351 731 76.7715 806.439 528.399
1084 0 51.1377 15.9178 814 74.9988 806.018 526.808
1085 0 50.1847 13.6297 684 79.4722 805.963 527.747
1086 0 54.3188 14.7831 803 76.4296 805.858 526.291
1087 0 54.1425 14.4988 785 77.1898 806.744 527.05
1088 0 56.1893 16.3554 919 75.1393 806.458 524.051
1089 0 58.1289 15.5 901 76.5472 805.948 522.064
1090 0 59.1866 15.3413 908 77.0639 806.536 522.052
1091 0 62.2595 15.4836 964 76.8454 806.56 521.949
1092 0 62.149 14.3204 890 78.3404 806.842 521.646
1093 0 66.206 15.2856 1012 76.6729 806.116 520.35
1094 0 67.3444 15.5766 1049 76.3365 806.401 517.787
1095 0 69.1864 14.3092 990 77.8333 807.58 517.496
1096 0 72.2874 16.047 1160 75.8491 806.812 514.507
1097 0 75.1518 16.4733 1238 74.7504 805.893 513.658
1098 0 76.2086 15.9824 1218 75.6527 806.385 511.28
1099 0 80.2155 15.0968 1211 75.1387 806.273 514.188
1100 0 83.2193 18.4813 1538 70.2243 806.686 513.077
1101 0 84.1547 15.1507 1275 75.7976 806.616 509.534
1102 0 87.3944 15.1154 1321 75.1052 806.398 508.752
1103 0 90.2135 14.3216 1292 76.6347 806.922 507.488
1104 0 91.0987 14.391 1311 76.6773 806.059 506.596
1105 0 96.2798 16.4209 1581 73.3118 806.503 504.506
1106 1 44.2597 13.2174 585 75.8684 806.974 527.99
1107 0 45.2693 14.2702 646 74.9412 806.741 526.498
1108 0 46.2777 12.7707 591 77.3333 806.802 527.355
1109 0 49.1665 15.8034 777 73.4299 806.83 525.81
1110 0 48.316 12.8736 622 78.8167 807.095 525.831
1111 0 51.1944 13.8101 707 76.9533 807.161 525.496
1112 0 51.2782 14.8016 759 75.8235 807.638 524.484
1113 0 51.2529 13.5212 693 78.5657 807.567 524.025
1114 0 54.427 15.4703 842 75.614 807.106 521.47
1115 0 55.0847 14.0511 774 77.8165 807.65 520.771
1116 0 57.2804 15.1186 866 76.0658 808.021 520.154
1117 0 60.2001 15.5648 937 75.0683 807.811 519.723
1118 0 61.1862 15.412 943 75.3881 806.83 519.86
1119 0 63.2633 16.5499 1047 73.7584 806.792 517.89
1120 0 63.2402 14.1366 894 76.5694 806.666 519.793
1121 0 67.331 15.758 1061 73.9255 807.046 518.557
1122 0 69.3024 15.0211 1041 75.4995 807.683 516.207
1123 0 71.2077 14.9843 1067 75.9578 807.353 513.281
1124 0 73.3703 15.1015 1108 75.0072 807.409 512.423
1125 0 77.766 16.3182 1269 72.8054 807.306 511.58
1126 0 78.2627 15.3585 1202 74.188 807.93 511.013
1127 0 81.4151 15.5622 1267 73.7774 807.411 510.358
1128 0 83.564 15.4014 1287 74.3629 807.325 508.09
1129 0 85.2353 14.1373 1205 75.8124 807.435 507.669
1130 0 89.3327 15.8956 1420 73.7021 806.775 506.068
1131 0 90.2365 14.5617 1314 75.4148 806.61 506.225
1132 0 95.29 16.6019 1582 72.4741 806.57 503.918
1133 0 95.3888 15.0647 1437 74.6402 806.674 503.893
1134 1 44.229 14.2893 632 73.6377 806.964 526.759
1135 0 46.3666 14.4501 670 73.0134 807.146 526.401
1136 0 49.2632 14.4124 710 72.4662 806.501 526.382
1137 0 48.1441 15.9521 768 72.3398 806.686 526.38
1138 1 112.557 15.6365 1760 73.5074 806.494 497.38
1139 0 116.599 16.1837 1887 73.0122 807.264 496.609
1140 0 118.345 14.4323 1708 76.0568 807.358 494.75
1141 0 123.649 15.7462 1947 73.7648 807.731 493.212
1142 0 126.397 16.1475 2041 73.9299 807.377 488.744
1143 0 131.601 15.8814 2090 73.7746 807.013 489.226
1144 0 134.538 16.5827 2231 73.0596 807.414 487.137
1145 1 57.2793 14.438 827 77.3591 806.543 519.677
1146 0 59.0875 14.5716 861 75.9048 806.562 522.555
1147 0 60.3591 14.9108 900 76.8333 806.953 519.983
1148 0 63.4369 16.1263 1023 75.3382 807.37 518.27
1149 0 64.2829 15.7429 1012 75.7747 807.338 517.447
1150 0 66.3526 15.7643 1046 76.0497 807.238 516.908
1151 0 69.2979 16.8115 1165 73.7253 807.147 518.686
1152 0 69.4938 13.6415 948 78.7985 806.967 518.195
1153 0 73.3492 16.0602 1178 75.2547 807.315 516.719
1154 0 74.254 14.841 1102 77.6198 808.013 515.799
1155 0 80.1502 15.9201 1276 74.3339 807.205 515.187
1156 0 81.3239 15.8502 1289 75.5221 806.958 513.05
1157 0 79.4504 14.6255 1162 78.3683 806.948 511.824
1158 0 83.5214 14.6549 1224 77.7296 806.48 512.383
1159 0 88.6995 15.4341 1369 77.149 807.042 509.602
1160 0 90.4318 15.3043 1384 78.3512 807.072 506.968
1161 0 92.7515 14.4149 1337 79.3553 807.256 507.553
1162 0 96.3985 15.5604 1500 76.9507 807.321 507.242
1163 0 99.5507 15.2485 1518 78.7905 807.435 504.312
1164 0 102.311 15.7265 1609 78.1535 807.294 503.062
1165 0 110.526 14.7476 1630 77.8724 807.129 504.887
1166 0 107.326 14.6563 1573 79.768 807.235 501.521
1167 0 110.437 17.2135 1901 76.5844 807.558 499.514
1168 0 114.49 15.6782 1795 78.107 807.558 499.943
1169 0 116.497 14.5755 1698 80.5371 807.461 496.16
1170 0 121.598 15.9542 1940 77.8902 806.997 494.022
1171 0 125.44 15.1467 1900 78.8163 807.123 494.107
1172 0 129.476 15.4469 2000 78.3685 807.18 490.862
1173 0 132.284 15.0434 1990 79.7578 807.258 487.432
1174 0 137.704 14.0809 1939 79.8618 807.394 489.312
1175 0 140.313 15.38 2158 78.715 807.27 484.769
1176 0 142.402 14.8523 2115 79.669 807.121 485.291
1177 0 147.482 14.1373 2085 80.0604 808.037 486.706
1178 0 149.616 13.9491 2087 81.6828 807.379 480.201
1179 0 154.477 13.3936 2069 81.9251 807.301 481.781
1180 0 157.368 14.0371 2209 81.1838 806.696 477.082
1181 0 162.534 15.6459 2543 78.7676 807.149 475.846
1182 1 117.367 13.871 1628 81.0393 807.225 497.389
1183 0 121.269 14.8101 1796 79.4833 807.416 495.602
1184 0 125.291 14.5661 1825 79.9885 807.53 491.357
1185 0 128.34 14.368 1844 80.5081 807.543 489.9
1186 1 78.3119 14.2124 1113 80.053 806.886 512.512
1187 0 82.3121 14.2871 1176 78.3478 807.157 512.746
1188 0 85.225 13.5054 1151 80.4023 807.437 511.531
1189 0 85.3947 14.3803 1228 80.8876 807.226 508.731
1190 0 90.4853 13.8697 1255 80.1968 807.378 509.802
1191 0 95.2311 14.1025 1343 80.2599 807.545 507.641
1192 1 44.3447 14.2971 634 79.0726 807.484 529.431
1193 0 46.4479 14.8984 692 79.2847 807.642 527.506
1194 0 49.4735 12.8756 637 80.1366 807.801 528.959
1195 0 48.3718 13.6443 660 81.8939 807.388 526.647
1196 0 51.2423 15.0267 770 80.4234 807.139 524.195
1197 0 50.5035 14.0386 709 83.1044 807.35 525.278
1198 0 52.352 15.8542 830 79.6916 806.929 525.325
1199 0 54.1907 14.5781 790 82.5886 807.115 524.19
1200 0 55.4617 15.3259 850 81.5941 807.24 524.022
1201 0 56.2018 14.9284 839 82.9917 807.267 522.595
1202 0 59.3797 14.7694 877 82.7161 807.863 521.424
1203 0 60.3011 14.5437 877 82.9384 807.403 521.033
1204 0 62.3183 15.8701 989 80.7816 807.475 521.358
1205 0 63.2728 14.7141 931 83.2309 808.033 518.855
1206 0 67.1945 14.8226 996 81.0532 806.735 520.61
1207 0 69.2965 14.7915 1025 82.3522 807.103 517.438
1208 0 70.5201 14.1378 997 82.9077 808.169 516.3
1209 0 71.3863 14.8208 1058 82.0605 808.059 515.624
1210 0 75.3301 14.2705 1075 82.3963 807.45 513.903
1211 0 76.2389 14.8874 1135 81.3357 807.083 511.961
1212 0 80.3578 15.7048 1262 79.7132 808.064 511.161
1213 0 83.3608 15.3669 1281 79.886 807.276 509.743
1214 0 84.4586 13.8411 1169 82.5954 807.552 508.12
1215 1 38.2319 12.8688 492 81.5752 808.096 529.994
1216 0 41.5561 12.3688 514 80.6907 807.912 531.187
1217 0 40.3391 13.3617 539 80.9814 808.199 529.494
1218 0 41.2669 14.2972 590 79.7627 808.159 529.658
1219 0 42.113 14.6986 619 80.1002 807.947 528.284
1220 0 43.2373 14.5476 629 79.8506 807.992 528.412
1221 0 46.3007 13.7147 635 81.3701 808.35 527.465
1222 0 46.5275 15.1738 706 79.8725 807.327 525.637
1223 0 49.3841 15.3086 756 78.1601 807.886 526.037
1224 0 48.3137 14.4472 698 81.0602 808.693 524.999
1225 0 50.3786 15.324 772 80.0557 808.343 521.727
1226 0 52.4947 14.2871 750 80.9467 808.112 522.779
1227 0 54.361 14.0358 763 81.0511 808.149 522.371
1228 0 56.4614 16.2058 915 77.612 807.425 520.455
1229 0 58.4429 15.0574 880 79.3068 807.228 520.577
1230 0 56.1772 13.6888 769 82.6346 808.06 519.977
1231 0 60.3099 15.2711 921 79.3084 807.973 519.246
1232 0 64.3091 14.2126 914 79.9836 807.687 518.346
1233 0 65.3442 14.7373 963 79.1713 807.452 517.86
1234 0 68.566 16.1013 1104 76.4647 807.718 517.512
1235 0 66.4037 14.1107 937 81.6916 807.728 513.741
1236 0 72.5319 14.89 1080 78.638 807.644 513.633
1237 0 75.2748 16.6457 1253 75.4661 808.21 513.014
1238 0 75.2795 15.5554 1171 77.2032 807.57 512.284
1239 0 77.2908 14.7236 1138 78.7777 807.557 511.987
1240 0 81.411 15.7473 1282 76.6022 807.319 510.138
1241 0 82.2562 15.8164 1301 77.0138 807.341 507.734
1242 0 85.2396 15.2511 1300 77.6862 807.743 508.082
1243 1 37.1863 14.5215 540 78.5778 807.991 529.107
1244 0 34.0862 12.6738 432 82.2431 807.169 530.664
1245 0 39.183 13.4752 528 80.2898 807.458 528.752
1246 0 38.239 13.9648 534 80.8876 807.245 529.61
1247 0 39.3019 14.325 563 80.3428 808.083 526.989
1248 0 46.2252 15.2514 705 77.6255 807.787 526.516
1249 0 43.1736 12.8782 556 82.5773 807.689 527.849
1250 1 111.492 15.2836 1704 77.608 808.046 495.454
1251 0 114.368 15.5114 1774 77.4205 808.086 495.58
1252 0 117.39 15.4613 1815 77.5311 808.489 494.3
1253 0 120.267 14.817 1782 78.6347 808.4 492.568
1254 0 124.299 15.5994 1939 77.6039 807.662 489.884
1255 0 126.492 15.1234 1913 78.5112 807.692 489.754
1256 0 132.275 17.0101 2250 75.1982 808.172 488.949
1257 0 136.823 14.7709 2021 79.1262 807.524 485.735
1258 0 140.33 15.7201 2206 77.2783 807.656 483.203
1259 0 144.364 16.6801 2408 75.9963 807.34 482.495
1260 1 68.2069 13.8549 945 81.0095 807.387 518.367
1261 0 68.2884 14.0287 958 81.4468 807.529 515.935
1262 0 71.6342 15.0068 1075 79.7051 807.432 513.876
1263 0 75.704 15.7191 1190 77.4933 807.441 514.859
1264 0 77.1474 15.1917 1172 78.4838 806.972 513.905
1265 0 78.5063 15.5401 1220 79.0057 807.602 511.297
1266 0 83.2979 16.8432 1403 76.2138 807.467 510.981
1267 0 85.4019 15.5149 1325 78.1796 807.654 509.77
1268 0 86.3973 14.6532 1266 79.7583 807.769 510.527
1269 0 89.1827 16.3597 1459 77.7601 807.212 507.509
1270 0 91.2816 15.4905 1414 78.8232 806.67 507.884
1271 0 93.31 14.9287 1393 79.1974 806.376 507.051
1272 0 98.4856 14.9971 1477 79.0603 806.948 504.075
1273 0 101.236 16.0318 1623 77.5009 807.492 503.659
1274 0 104.238 17.4984 1824 74.4929 806.935 504.512
1275 0 107.265 16.2589 1744 77.1737 807.616 502.364
1276 0 110.384 16.3338 1803 77.8281 807.557 496.175
1277 0 112.36 14.3646 1614 80.891 808.295 494.69
1278 0 116.342 16.0046 1862 77.5548 807.309 498.398
1279 0 120.673 16.2837 1965 77.3308 807.542 493.926
1280 0 123.414 15.4115 1902 79.2455 807.942 490.831
1281 0 128.372 14.9721 1922 79.3824 807.528 492.083
1282 0 132.24 14.935 1975 79.6537 806.817 486.814
1283 1 62.1129 15.0049 932 79.5783 807.49 519.045
1284 0 65.2118 15.4573 1008 77.8185 807.835 519.611
1285 0 65.3265 13.5933 888 80.6745 807.075 519.651
1286 0 66.1214 13.9289 921 80.9403 806.837 518.235
1287 0 69.1052 13.7037 947 80.7804 807.77 516.623
1288 0 69.169 13.6044 941 81.6387 807.781 515.555
1289 0 72.0641 14.7924 1066 79.9456 807.514 513.485
1290 0 75.0943 14.4086 1082 79.4067 807.244 515.028
1291 0 78.1275 14.2715 1115 80.2538 807.312 511.046
1292 0 79.0747 14.1259 1117 80.197 807.209 511.096
1293 0 82.1465 15.0341 1235 77.9887 806.697 511.76
1294 0 86.1154 15.7928 1360 76.3765 807.376 509.123
1295 0 86.1004 12.8803 1109 80.743 806.3 508.958
1296 0 90.1859 13.7716 1242 79.2794 807.119 508.792
1297 0 93.059 14.2383 1325 79.1185 807.276 504.152
1298 0 98.0356 14.5661 1428 78.0476 807.475 503.665
1299 1 44.0487 13.417 591 78.6565 807.387 527.452
1300 0 45.0215 12.7272 573 79.7993 807.714 526.763
1301 0 44.0465 14.5528 641 77.8378 807.371 527.819
1302 0 48.0775 13.811 664 76.8464 807.498 528.539
1303 0 47.0668 13.7464 647 79.5935 807.323 527.023
1304 0 51.1078 14.6944 751 77.5939 807.137 525.415
1305 0 52.039 14.6044 760 78.3711 807.874 523.686
1306 0 54.1059 12.7343 689 81.5196 807.434 524.765
1307 0 55.0372 13.3546 735 80.6639 807.465 523.792
1308 0 57.0814 14.1202 806 79.531 807.65 523.368
1309 0 62.0569 13.7454 853 79.5698 807.641 521.353
1310 0 61.0549 13.5616 828 80.3877 807.732 521.136
1311 0 62.1222 13.6022 845 81.2722 807.818 519.469
1312 0 66.0707 15.0596 995 78.7849 808.285 519.398
1313 0 68.0942 15.2583 1039 77.7353 808.136 519.961
1314 0 69.0609 13.5388 935 80.585 807.017 518.922
1315 0 72.0823 15.2048 1096 78.26 807.438 515.589
1316 0 74.1504 14.4166 1069 79.9757 806.906 515.767
1317 0 79.197 13.7631 1090 79.7193 807.226 515.225
1318 0 81.0994 14.4267 1170 78.735 807.33 514.564
1319 0 82.163 13.4245 1103 80.6374 807.764 513.31
1320 0 85.1049 14.4058 1226 79.8034 807.24 509.732
1321 1 41.0303 13.2585 544 80.9393 807.316 531.142
1322 0 40.0159 13.9944 560 81.1661 806.779 530.32
1323 0 43.0348 14.9646 644 80.1568 807.216 529.053
1324 0 45.0117 13.752 619 80.6414 807.321 530.522
1325 0 46.0266 13.6443 628 82.2006 807.105 527.736
1326 0 49.0808 14.8531 729 79.31 806.907 527.922
1327 0 48.0444 13.6124 654 82.8853 807.85 527.023
1328 0 49.0772 13.8354 679 82.0677 807.499 526.546
1329 0 51.0239 14.9734 764 79.5419 808.207 526.571
1330 0 53.0267 15.8599 841 78.6956 807.43 526.132
1331 0 55.0216 14.5761 802 80.8703 806.729 524.819
1332 0 57.0701 14.9465 853 79.7351 807.642 525.531
1333 0 58.1866 14.1098 821 82.6663 807.882 523.029
1334 0 60.1082 15.7716 948 80.2679 807.615 523.741
1335 0 63.1074 14.3406 905 83.0685 806.87 521.973
1336 0 62.0338 14.5243 901 83.6926 807.423 520.759
1337 0 64.0482 13.5523 868 85.1866 807.256 520.9
1338 0 65.1019 14.5157 945 84.1323 806.737 517.983
1339 0 69.1028 15.9617 1103 80.1514 806.724 519.826
1340 0 72.0346 14.7846 1065 82.6066 807.377 517.382
1341 0 73.0796 15.7363 1150 80.8357 806.822 516.128
1342 0 76.0858 14.8122 1127 81.8536 806.888 515.57
1343 0 79.15 15.4896 1226 80.4731 807.139 514.462
1344 0 81.0348 15.1787 1230 81.022 807.306 511.682
1345 0 83.1234 16.1086 1339 79.7065 806.269 511.512
1346 1 39.0146 12.7644 498 84.8173 806.05 532.6
1347 0 40.0487 13.2589 531 85.2222 806.701 531.333
1348 0 41.0611 14.2471 585 83.5504 807.248 531.884
1349 0 43.0587 13.8648 597 83.8342 806.735 531.568
1350 0 45.0269 15.3908 693 80.8817 806.831 530.882
1351 0 45.0729 15.0423 678 82.587 806.326 529.686
1352 0 46.1698 14.4034 665 83.8361 807.334 530.301
1353 0 49.1131 16.798 825 79.0158 806.257 528.456
1354 0 49.1369 14.368 706 84.3371 806.888 527.718
1355 0 52.1282 16.1141 840 81.0238 807.068 525.193
1356 0 53.039 15.7997 838 81 806.444 527.264
1357 0 55.084 15.8304 872 82.1124 806.596 523.011
1358 0 57.1135 14.5325 830 83.7145 807.252 524.253
1359 0 59.0534 15.7823 932 81.1738 807.259 524.057
1360 0 59.0446 14.2435 841 85.3199 807.491 522.75
1361 0 62.1681 14.6056 908 84.1443 807.369 521.198
1362 0 64.0463 14.2553 913 84.9146 806.44 521.03
1363 0 66.099 14.327 947 84.0401 806.363 520.067
1364 0 67.0816 14.8327 995 83.9487 806.795 517.996
1365 0 72.0928 14.4675 1043 82.836 806.441 517.337
1366 0 72.1044 15.0615 1086 82.8398 806.558 514.805
1367 0 76.0414 14.6236 1112 82.5998 807.067 514.346
1368 0 79.1186 14.9396 1182 81.3562 806.745 512.514
1369 0 81.1449 14.7637 1198 81.5568 806.823 511.437
1370 1 35.0533 12.8091 449 84.5323 806.577 533.265
1371 0 36.0198 12.7985 461 84.1367 806.49 533.035
1372 0 37.0327 14.2037 526 82.8403 806.848 531.487
1373 0 37.1031 14.7966 549 82.1275 806.135 530.639
1374 0 38.0379 13.434 511 84.2896 805.607 531.2
1375 0 40.0191 14.8179 593 81.2901 806.28 530.516
1376 0 41.0461 15.1293 621 80.1755 806.134 531.177
1377 0 42.0179 14.708 618 80.8754 806.272 529.32
1378 0 44.1118 13.8965 613 81.5416 806.778 530.07
1379 0 48.1125 15.152 729 78.203 806.728 528.528
1380 0 47.1334 15.6789 739 78.6035 806.595 528.028
1381 0 49.1166 15.9009 781 78.0935 806.924 528.478
1382 0 50.1362 13.9819 701 81.1398 806.69 527.244
1383 0 51.0521 14.7888 755 80.7298 806.799 526.355
1384 0 54.053 16.8908 913 76.5137 806.837 525.981
1385 0 56.0264 15.9925 896 78.1239 807.307 524.806
1386 0 57.0868 14.8896 850 79.5835 807.031 524.654
1387 0 58.0298 15.9401 925 78.5049 806.613 523.249
1388 0 60.0744 14.8482 892 80.4013 807.404 523.224
1389 0 63.1348 15.2214 961 79.4703 807.188 522.96
1390 0 64.0674 14.516 930 80.7409 807.273 522.003
1391 0 66.1307 15.2123 1006 79.8101 806.102 518.796
1392 0 69.0623 16.2752 1124 78.0463 805.959 518.406
1393 0 69.0351 14.862 1026 80.4903 806.721 518.252
1394 0 72.0731 15.9421 1149 79.2359 806.65 516.541
1395 0 74.0375 15.0734 1116 80.1953 806.526 516.966
1396 0 77.0902 14.7619 1138 80.4244 805.817 514.103
1397 0 81.1912 15.0632 1223 78.955 806.933 513.357
1398 0 83.0782 15.2146 1264 78.2389 806.407 514.44
1399 0 84.0328 14.2801 1200 80.4325 806.597 512.62
1400 0 91.0931 15.5994 1421 76.8656 806.697 510.834
1401 0 92.1662 17.1755 1583 74.4327 806.87 511.559
1402 0 96.0823 15.4659 1486 77.5343 807.149 508.91
1403 0 97.1125 16.1256 1566 77.2586 806.533 506.402
1404 1 43.0547 13.9822 602 81.5233 806.63 530.739
1405 0 44.0751 12.8871 568 83.118 806.474 530.342
1406 0 45.0306 16.0557 723 78.8147 806.509 528.786
1407 0 49.0512 14.4543 709 79.4993 806.018 529.767
1408 0 50.0594 14.323 717 80.2957 806.191 529.858
1409 0 52.123 14.0821 734 80.2943 807.042 530.801
1410 0 51.0888 14.602 746 81.7064 807.072 529.296
1411 0 55.1257 14.222 784 81.3584 807.454 528.534
1412 0 54.064 15.4262 834 80.7026 806.382 527.838
1413 0 58.0391 14.4558 839 82.4327 806.83 525.914
1414 0 58.0532 14.2456 827 83.8174 806.578 526.562
1415 0 61.1471 15.4218 943 81.6511 806.684 524.776
1416 0 62.0489 15.3427 952 82.9013 807.491 523.196
1417 0 64.1215 14.3166 918 84.9521 806.589 521.364
1418 0 68.0285 14.8614 1011 83.4214 806.23 521.46
1419 0 69.0808 15.1996 1050 82.4552 806.32 521.126
1420 0 72.1607 14.5647 1051 83.8164 806.551 519.617
1421 0 72.0246 14.4812 1043 84.7804 807.227 518.27
1422 0 75.0792 14.4248 1083 85.0572 807.524 516.102
1423 0 79.0904 14.9449 1182 82.9433 806.717 515.713
1424 0 82.1374 15.3889 1264 81.6598 807.798 515.025
1425 1 36.0189 12.7156 458 88.3843 807.539 533.71
1426 0 38.0179 12.7572 485 87.4474 806.891 534.569
1427 0 39.041 13.0888 511 86.9883 806.744 533.194
1428 0 40.0336 14.1381 566 86.1696 807.429 531.207
1429 0 43.0986 14.5016 625 83.3632 807.123 532.414
1430 0 44.0379 14.6919 647 83.3586 807.453 531.76
1431 0 45.0736 14.0881 635 84.4157 807.498 531.557
1432 0 46.0299 15.3161 705 82.4908 807.56 531.509
1433 0 47.1286 15.0439 709 84.3357 807.465 529.661
1434 0 49.0963 14.217 698 85.3868 807.994 527.593
1435 0 49.1266 14.8392 729 84.0425 807.953 529.133
1436 0 52.0396 15.8533 825 82.0521 807.613 526.28
1437 0 52.0368 14.4321 751 84.719 806.863 527.19
1438 0 54.022 14.7532 797 83.6324 807.87 525.811
1439 0 58.066 14.7763 858 82.38 807.577 524.652
1440 0 57.0562 14.4769 826 84.5533 807.395 522.976
1441 0 61.0511 15.1349 924 82.5671 807.107 522.973
1442 0 62.0348 14.2017 881 83.8331 806.583 523.436
1443 0 63.1092 14.467 913 83.782 806.945 521.897
1444 0 66.1176 15.1699 1003 82.5543 807.028 519.033
1445 0 68.0379 15.6089 1062 81.5414 806.878 517.918
1446 0 69.0708 15.0425 1039 82.8768 806.776 518.072
1447 0 70.1151 15.0324 1054 83.5408 807.632 516.446
1448 0 71.0586 13.707 974 85.9117 807.208 517.392
1449 0 75.0677 14.5735 1094 83.9049 806.721 516.207
1450 0 76.0831 14.3922 1095 84.8027 807.66 515.089
1451 0 79.1226 14.2943 1131 84.4757 806.92 514.009
1452 0 83.1237 15.0378 1250 82.2864 807.27 511.71
1453 0 83.0599 14.4956 1204 83.4095 806.716 511.552
1454 0 87.0895 14.6631 1277 82.7134 806.871 511.17
1455 1 47.034 13.7347 646 83.1548 807.172 530.974
1456 0 49.0764 13.8967 682 82.8314 807.343 530.151
1457 0 50.0363 14.1697 709 83.1326 806.946 528.993
1458 0 52.1104 14.4309 752 82.3152 806.981 528.013
1459 0 53.0278 14.8978 790 82.3633 807.289 526.038
1460 0 55.1292 15.5997 860 80.914 807.644 526.102
1461 0 55.0988 12.9767 715 86.7524 807.358 524.203
1462 0 56.0805 14.0334 787 85.8488 807.687 522.736
1463 0 60.1398 14.6658 882 83.9297 807.705 522.637
1464 0 60.0637 14.4846 870 85.1724 807.133 522.505
1465 0 64.0531 15.815 1013 82.3337 807.749 520.521
1466 0 65.1326 14.7699 962 83.6996 806.907 520.404
1467 0 67.0384 14.887 998 83.3868 806.645 519.865
1468 0 69.0848 14.1131 975 85.8103 806.963 518.336
1469 0 71.1636 14.0381 999 85.2673 807.302 518.889
1470 0 74.0928 14.9677 1109 83.5311 807.557 515.762
1471 0 76.1162 14.872 1132 83.7792 807.138 515.226
1472 0 78.0503 14.2472 1112 85.1358 807.456 513.55
1473 0 81.0933 14.6005 1184 83.5034 806.837 513.785
1474 0 83.0606 15.1335 1257 83.2586 806.749 509.816
1475 0 86.1427 15.4975 1335 81.8644 807.386 508.816
1476 0 87.1383 14.9877 1306 83.1562 807.305 507.538
1477 1 42.0398 12.5595 528 85.2102 806.949 529.468
1478 0 45.0149 12.9735 584 84.6712 806.57 527.805
1479 0 46.069 13.4364 619 83.1228 806.683 528.632
1480 0 46.0223 12.9068 594 84.2357 807.519 527.542
1481 0 47.0481 12.9867 611 84.4992 806.432 527.103
1482 0 50.0603 14.1829 710 81.2718 807.283 526.359
1483 0 51.0684 14.5883 745 81.6443 807.459 522.387
1484 0 52.1286 14.5026 756 82.0185 807.073 523.63
1485 0 56.0739 14.0885 790 81.6608 806.953 523.841
1486 0 58.0308 14.251 827 82.0605 807.138 521.992
1487 0 58.0344 13.3369 774 84.0258 806.904 523.158
1488 0 60.0653 13.9681 839 83.087 806.884 522.153
1489 0 61.0272 13.3219 813 84.3112 807.256 521.996
1490 0 65.0974 13.9483 908 82.7985 807.431 520.843
1491 0 68.1285 14.6048 995 82.1126 807.102 519.069
1492 0 68.0628 14.0312 955 84.2272 806.689 517.254
1493 0 71.0401 14.1188 1003 83.2363 806.462 517.987
1494 0 72.0494 13.7406 990 85.2949 806.434 515.67
1495 0 77.0437 14.9785 1154 82.6924 806.919 514.461
1496 0 78.0934 13.9833 1092 84.2445 806.752 513.821
1497 0 82.0994 14.7991 1215 82.0856 807.065 512.511
1498 1 41.0064 11.8274 485 85.3052 806.866 530.812
1499 0 42.0147 13.4715 566 81.5742 806.832 531.177
1500 0 43.1081 11.274 486 84.6152 806.7 530.403
1501 0 44.0281 10.7204 472 86.4025 806.424 528.422
1502 0 46.0171 12.1694 560 83.4857 807.109 527.507
1503 0 48.082 13.373 643 80.4743 806.456 527.647
1504 0 49.0695 13.328 654 80.7982 806.528 525.887
1505 0 53.0602 13.9087 738 79.0596 806.935 524.163
1506 0 52.0479 13.4299 699 80.093 807.237 523.024
1507 0 55.1019 13.3208 734 78.9469 807.173 524.439
1508 0 58.089 13.7547 799 78.1489 807.328 521.824
1509 0 59.0811 13.0668 772 79.3459 807.153 518.536
1510 0 61.0523 14.2173 868 77.2903 806.161 519.181
1511 0 64.0526 13.8012 884 76.2183 807.533 519.945
1512 0 66.0954 13.3746 884 77.1267 806.983 517.963
1513 0 66.0881 13.83 914 77.0503 807.097 514.649
1514 0 68.0256 13.4949 918 77.2037 807.084 515.351
1515 0 74.0337 13.8991 1029 74.7444 806.785 516.052
1516 0 74.1271 13.5983 1008 76.8343 807.103 513.349
1517 0 77.2025 12.9141 997 77.4273 807.445 511.382
1518 0 80.0745 13.5249 1083 76.8707 807.383 510.476
1519 0 81.0715 13.6176 1104 77.5725 806.782 507.835
1520 1 40.025 11.3679 455 77.3407 806.505 529.204
1521 0 42.0198 12.0419 506 76.1739 806.526 528.63
1522 0 44.0714 12.5251 552 74.6902 807.882 528.895
1523 0 44.0321 12.6953 559 75.2612 807.411 527.44
1524 0 46.0248 12.6454 582 74.9296 806.758 526.734
1525 0 46.023 12.1026 557 76.9318 807.646 526.481
1526 0 50.0206 12.7747 639 74.8545 807.094 525.606
1527 0 49.0489 11.9473 586 76.2679 807.063 526.034
1528 0 50.1641 12.1601 610 76.5475 807.146 524.83
1529 0 52.0479 12.892 671 74.9523 806.952 523.055
1530 0 55.1121 12.8828 710 74.7676 807.197 521.787
1531 0 56.0386 12.0274 674 75.8872 807.062 521.636
1532 0 59.0622 13.2572 783 72.9783 807.078 521.289
1533 0 60.0946 12.3805 744 73.9005 807.519 521.257
1534 0 62.1654 12.4346 773 72.9418 807.312 520.9
1535 0 64.0349 12.9304 828 72.4082 807.011 518.021
1536 0 68.0798 12.7938 871 71.6797 807.316 518.933
1537 0 68.134 12.5048 852 72.892 807.906 515.374
1538 0 72.1241 11.7714 849 73.2627 807.532 514.509
1539 0 73.1098 12.064 882 72.8934 807.128 514.659
1540 0 77.124 13.8867 1071 69.8599 806.898 512.346
1541 0 77.0962 12.1407 936 72.8109 806.468 511.021
1542 1 40.0421 10.3641 415 71.7855 806.6 527.896
1543 0 43.0486 10.5695 455 70.2308 806.993 529.78
1544 0 44.0191 10.2455 451 70.9712 807.333 529.175
1545 0 45.0321 11.4363 515 70.3107 807.417 525.738
1546 0 46.0329 11.4266 526 70.4049 806.848 527.143
1547 0 48.0968 10.4373 502 71.0279 807.066 525.588
1548 0 46.0371 11.6862 538 70.9089 806.706 523.463
1549 0 49.0494 10.3773 509 71.7466 806.479 524.224
1550 0 52.0919 11.8637 618 69.4337 807.081 521.892
1551 0 53.0583 12.5145 664 68.6446 806.86 521.056
1552 0 54.0404 10.8993 589 70.7487 807.248 521.324
1553 0 56.0521 11.186 627 69.7927 807.262 520.005
1554 0 57.0892 10.9478 625 69.9456 806.37 517.832
1555 0 60.0189 11.1132 667 69.5847 806.27 517.654
1556 0 63.0736 13.9678 881 64.8309 806.218 518.708
1557 0 65.2476 11.1422 727 67.7043 806.143 517.147
1558 0 66.0566 11.9897 792 67.4861 806.871 514.562
1559 0 69.1362 12.5405 867 66.4118 806.982 513.836
1560 0 70.1295 12.149 852 66.9624 806.393 512.408
1561 0 73.1422 13.3986 980 65.3816 807.209 510.815
1562 0 76.0972 11.0122 838 67.9248 806.214 511.644
1563 0 79.1816 11.9093 943 67.1559 806.436 509.002
1564 0 81.0425 11.6729 946 67.8023 806.439 506.74
1565 0 82.1535 11.3933 936 68.5566 806.959 506.207
1566 1 43.0661 10.7741 464 64.7716 806.099 527.804
1567 0 41.0264 8.65296 355 68.0732 806.423 527.107
1568 0 43.0874 8.61041 371 68.1402 806.442 525.388
1569 0 45.0404 11.2122 505 65.4416 806.178 523.974
1570 0 46.2028 10.389 480 66.4125 806.694 523.927
1571 0 46.1374 9.385 433 68.358 806.785 522.339
1572 0 51.0387 11.9321 609 64.78 807.179 519.901
1573 0 49.0678 9.72124 477 68.5618 806.411 521.13
1574 0 53.1081 10.5069 558 66.5161 806.199 521.262
1575 0 56.1684 11.5189 647 64.8671 806.294 518.971
1576 0 56.0683 10.5229 590 66.7746 806.427 517.649
1577 0 58.0622 9.67927 562 67.0836 806.367 520.349
1578 0 60.34 10.0597 607 67.4959 806.535 516.003
1579 0 63.1048 11.0451 697 65.6413 806.697 516.419
1580 0 63.0641 9.54584 602 67.9336 806.847 516.1
1581 0 66.1031 9.72723 643 67.6439 806.681 510.736
1582 0 69.126 11.1535 771 65.847 806.223 512.981
1583 0 71.1416 10.5283 749 66.6689 806.961 511.338
1584 0 72.0942 10.195 735 67.1483 806.566 509.343
1585 0 74.2102 10.5511 783 66.2452 806.937 508.586
1586 0 76.1475 9.45533 720 68.0306 806.81 507.703
1587 0 81.212 11.7101 951 64.8633 806.508 506.695
1588 1 39.1617 7.50733 294 65.5782 806.367 527.075
1589 0 45.0719 10.2947 464 62.5043 806.472 524.358
1590 0 44.0903 8.45991 373 64.7721 806.887 527.48
1591 0 44.0646 10.008 441 65.0272 806.923 521.608
1592 0 46.0565 10.1397 467 65.2034 807.276 521.343
1593 0 47.1248 9.52789 449 65.6347 806.846 523.842
1594 0 49.0622 9.49815 466 65.8326 807.167 522.318
1595 0 51.056 9.55814 488 65.1557 805.971 523.799
1596 0 51.0739 8.81075 450 68.0111 805.958 521.558
1597 0 55.0241 8.94154 492 66.8313 805.132 521.396
1598 0 55.0267 9.74073 536 66.3526 805.03 519.043
1599 0 58.0701 9.91905 576 66.191 806.043 518.575
1600 0 60.0222 10.1962 612 66.1193 806.382 518.085
1601 0 63.0467 10.7698 679 64.7997 806.984 515.396
1602 0 63.0743 9.86138 622 66.8891 806.288 512.508
1603 0 66.1858 10.1835 674 66.1706 806.159 513.47
1604 0 68.0301 10.6276 723 65.2185 806.22 514.256
1605 0 70.1342 10.3516 726 65.5606 806.547 515.172
1606 0 70.1347 11.3638 797 65.5483 805.65 509.04
1607 0 75.1189 10.8894 818 65.5685 806.872 512.142
1608 0 77.0803 11.7799 908 64.957 805.898 509.52
1609 0 80.0645 11.2409 900 65.9456 806.699 507.23
1610 0 80.1769 9.80333 786 68.215 806.902 507.323
1611 0 83.2032 11.1775 930 66.9129 807.024 502.603
1612 0 84.1649 10.3844 874 68.238 806.817 500.785
1613 0 89.1784 11.3593 1013 66.7799 806.582 500.579
1614 0 91.2207 10.787 984 68.0945 807.458 499.197
1615 0 95.233 11.2881 1075 66.6781 806.496 496.177
1616 1 48.0606 9.32156 448 66.6719 807.301 521.518
1617 0 49.0542 9.62201 472 67.1928 807.57 520.617
1618 0 50.0444 9.07194 454 68.4361 807.099 520.042
1619 0 52.0654 9.18076 478 68.5858 807.697 518.006
1620 0 55.04 10.0109 551 66.735 807.22 519.884
1621 0 56.1807 10.0924 567 66.806 806.822 519.508
1622 0 57.1342 10.274 587 64.4668 807.641 517.532
1623 0 57.0969 9.10732 520 66.0423 807.037 517.544
1624 0 60.1204 10.0299 603 64.8474 807.284 514.632
1625 0 62.1179 11.1401 692 63.396 807.799 514.095
1626 0 63.0691 10.1159 638 64.1489 808.005 515.049
1627 0 65.0909 10.5852 689 63.6662 807.372 513.435
1628 0 67.0885 11.1196 746 63.1488 807.367 511.342
1629 0 67.1159 10.236 687 64.2125 807.066 508.674
1630 0 70.2011 11.5953 814 62.172 807.176 509.631
1631 0 70.1616 9.32133 654 65.1269 806.83 507.427
1632 0 73.2222 10.9939 805 62.4559 806.969 506.021
1633 0 76.1322 9.03691 688 64.7791 807.725 502.964
1634 0 79.212 10.6297 842 62.6983 807.846 506.418
1635 0 83.2691 11.9372 994 61.2173 807.873 503.768
1636 0 84.2838 11.9952 1011 62.549 807.089 502.528
1637 0 90.2378 12.3119 1111 61.6715 807.599 502.444
1638 0 92.3085 11.3316 1046 62.0832 807.819 502.808
1639 0 92.1159 11.3987 1050 62.4924 807.525 499.361
1640 0 98.1103 12.3738 1214 61.0906 807.04 497.792
1641 0 98.2333 11.5439 1134 62.828 807.424 497.276
1642 0 101.299 11.9152 1207 63.2428 807.899 493.889
1643 0 106.18 13.1475 1396 61.6605 806.359 491.87
1644 1 56.0967 9.0558 508 62.7244 807.15 522.52
1645 0 57.1194 10.2592 586 62.3942 806.997 518.741
1646 0 60.0277 10.3119 619 63.3344 806.969 517.937
1647 0 63.1644 11.5096 727 62.0963 806.754 516.763
1648 0 65.0703 13.1857 858 59.7378 806.824 519.175
1649 0 64.0731 10.5817 678 63.6873 807.255 518.864
1650 0 67.1107 11.0415 741 63.4629 807.351 515.671
1651 0 71.0394 12.12 861 62.0093 806.559 514.247
1652 0 70.0722 11.6737 818 63.709 806.41 511.961
1653 0 73.0559 11.2517 822 63.9355 806.084 512.125
1654 0 74.0737 11.0836 821 64.3447 806.34 510.722
1655 0 75.2335 11.0323 830 64.7048 806.175 508.425
1656 0 80.0596 11.8786 951 62.7056 806.233 510.353
1657 0 81.157 11.5702 939 64.1672 806.06 506.093
1658 0 85.0679 11.144 948 64.1287 806.591 507.312
1659 0 86.071 11.0258 949 65.0643 806.61 504.739
1660 0 89.0803 11.3493 1011 64.9327 806.283 502.019
1661 0 91.1118 11.4365 1042 64.4079 806.066 501.693
1662 0 94.0868 11.3725 1070 64.4645 806.255 502.287
1663 1 49.0493 10.2958 505 63.4396 807.162 522.366
1664 0 51.0718 10.6713 545 62.6532 806.101 521.956
1665 0 52.0854 10.214 532 64.4774 806.102 521.188
1666 0 51.0387 9.93363 507 65.7554 806.811 519.882
1667 0 55.0226 11.2681 620 62.9661 806.747 520.781
1668 0 56.0645 11.4868 644 63.1335 806.815 518.964
1669 0 56.0699 11.8067 662 63.1224 806.553 518.208
1670 0 58.053 11.4378 664 64.1988 806.361 517.078
1671 0 58.0934 10.5692 614 65.2655 806.865 515.363
1672 0 59.2488 11.2914 669 63.9133 806.546 517.365
1673 0 56.1697 10.5395 592 66.6909 806.905 514.997
1674 0 56.1488 10.579 594 66.8502 806.606 515.806
1675 0 58.086 9.41707 547 69.6088 807.331 505.852
1676 0 60.0391 11.5258 692 66.7211 807.188 506.513
1677 0 62.022 11.0767 687 67.3246 807.035 507.424
1678 0 62.073 11.5348 716 67.2277 807.099 506.958
1679 0 61.0569 12.3983 757 67.4716 806.577 507.641
1680 0 60.048 10.8247 650 70.4585 806.758 508.874
1681 0 64.215 11.7418 754 67.1499 806.532 509.138
1682 0 63.18 11.5068 727 69.2847 806.42 508.048
1683 0 60.0678 13.4182 806 69.9119 806.914 508.864
1684 0 63.0562 11.6245 733 72.8035 806.232 508.405
1685 0 63.0309 13.0254 821 70.5688 805.978 508.849
1686 0 62.0651 11.4718 712 74.4452 806.754 508.517
1687 0 63.068 10.9089 688 75.5741 806.234 508.084
1688 0 68.0414 13.4036 912 69.1623 805.795 510.62
1689 0 70.1021 12.1394 851 71.0388 805.452 511.905
1690 0 70.0601 11.9326 836 70.6077 806.483 511.045
1691 0 67.4418 13.3597 901 72.4673 806.883 509.999
1692 0 62.1946 13.9562 868 76.4424 806.586 506.427
1693 0 60.1419 14.0002 842 78.4513 806.879 503.493
1694 0 58.1285 13.3841 778 81.1889 806.582 506.153
1695 0 63.2351 11.7814 745 82.1436 805.903 507.703
1696 0 63.0593 13.5745 856 79.1075 806.104 509.092
1697 0 67.3488 13.393 902 78.3725 806.073 508.394
1698 0 66.063 13.8201 913 77.2497 806.588 510.36
1699 0 65.0741 12.5549 817 80.0416 806.33 510.322
1700 0 66.0468 14.1718 936 77.7607 805.663 512.726
1701 0 66.8086 13.0223 870 80.5966 806.491 512.582
1702 0 68.7514 13.4252 923 78.273 805.659 514.055
1703 0 69.4163 15.2414 1058 74.9461 805.52 514.332
1704 0 68.5618 13.0393 894 79.0716 805.706 515.415
1705 0 63.6978 14.2077 905 78.7448 804.772 514.762
