time division length width area intensity CMx CMy
0 0 48.199 10.7679 519 58.7457 889.345 511.185
1 0 49.047 11.7642 577 58.1386 888.936 509.594
2 0 50.1172 11.6327 583 58.6707 888.883 508.966
3 0 50.2537 10.4072 523 60.5851 888.426 509.537
4 0 54.0764 12.3159 666 57.6967 888.458 508.991
5 0 57.1989 12.6051 721 57.0902 888.115 508.811
6 0 58.1336 13.1766 766 57.1084 887.718 508.845
7 0 58.159 13.8242 804 56.9888 887.949 508.453
8 0 59.0783 13.9137 822 56.8455 886.788 509.147
9 0 60.2325 11.8375 713 59.1683 887.372 509.297
10 0 63.1318 12.2601 774 58.0607 887.227 509.335
11 0 64.0862 12.0151 770 58.5896 887.795 508.018
12 0 65.1 12.9647 844 58.1742 887.257 506.314
13 0 67.2388 14.0395 944 56.5487 886.967 505.747
14 0 67.1512 12.8218 861 58.6551 887.17 505.279
15 0 68.1163 11.9355 813 59.8352 887.389 506.016
16 0 70.07 11.7882 826 60.1017 887.814 504.257
17 0 74.1029 12.9954 963 58.7113 887.44 501.425
18 0 75.0976 12.304 924 59.5281 887.024 503.548
19 0 76.0971 10.986 836 61.0706 886.907 503.75
20 0 80.1431 14.4866 1161 57.5702 886.814 500.751
21 0 82.0435 12.7615 1047 59.6323 887.265 501.514
22 0 83.0974 12.6237 1049 60.5005 886.588 498.233
23 0 85.1637 12.1765 1037 61.1128 886.324 499.632
24 0 87.1054 12.2266 1065 61.5277 887.028 498.639
25 0 88.0941 12.2937 1083 62.2078 886.337 495.265
26 1 41.0232 10.4575 429 63.8089 886.499 517.821
27 0 44.0119 11.1788 492 62.7297 887.396 517.26
28 0 45.0228 10.2393 461 64.2213 886.349 516.236
29 0 45.0944 10.3117 465 63.5032 887.462 518.129
30 0 49.0158 11.3841 558 62.362 887.066 517.332
31 0 47.0234 11.4411 538 63.1394 887.076 515.801
32 0 49.0278 10.1167 496 64.7298 887.514 515.188
33 0 51.129 11.9111 609 62.9754 887.494 513.949
34 0 53.1216 12.7067 675 62.1437 887.458 512.689
35 0 53.0954 12.1103 643 63.451 887.61 513.403
36 0 55.0713 12.275 676 63.7115 888.24 511.182
37 0 59.0721 12.2223 722 63.2756 887.593 510.68
38 0 61.0659 12.0198 734 63.3747 888.264 512.939
39 0 63.0857 12.4117 783 63.8327 888.948 509.144
40 0 61.0248 9.5371 582 67.6856 888.431 508.742
41 0 67.0883 11.7159 786 65.1196 888.854 508.164
42 0 67.0755 10.9727 736 67.1182 888.697 504.095
43 0 71.0573 12.0748 858 66.3263 888.882 503.923
44 0 73.1485 12.4131 908 66.1344 888.863 505.026
45 0 77.1189 12.3057 949 65.8556 888.592 504.194
46 0 78.1391 11.4539 895 67.733 889.477 501.853
47 0 81.1005 11.6645 946 67.8668 889.877 500.87
48 1 43.064 9.59038 413 67.8136 889.288 519.92
49 0 44.0954 10.0464 443 67.2709 889.824 519.998
50 0 46.0285 12.2967 566 64.9417 890.064 518.869
51 0 49.0374 10.1555 498 67.3012 889.58 517.992
52 0 50.0495 12.2878 615 65.0894 890.036 516.351
53 0 48.0663 10.3399 497 68.0744 889.662 517.155
54 0 51.0527 10.2443 523 68.5296 889.815 514.256
55 0 53.0435 10.7836 572 67.5332 889.601 516.269
56 0 55.0479 11.3719 626 66.4153 889.829 515.166
57 0 56.0476 11.1691 626 67.107 890.796 514.088
58 0 59.112 12.637 747 65.4056 889.573 512.724
59 0 60.1669 11.5013 692 67.9162 889.974 510.705
60 0 63.0329 12.1207 764 67.428 889.573 510.318
61 0 62.0818 11.1949 695 68.6532 889.022 513.44
62 0 65.1777 12.3048 802 67.803 888.741 511.814
63 0 67.115 12.2774 824 68.9806 889.387 508.226
64 0 69.0503 10.8327 748 70.7045 889.104 508.925
65 0 72.1476 11.3656 820 70.9646 889.324 506.522
66 0 75.0903 11.4928 863 70.9363 889.59 505.56
67 0 76.0964 13.1544 1001 69.3896 888.882 505.13
68 1 37.0139 10.4825 388 68.9433 889.062 522.966
69 0 39.0303 11.9651 467 67.2505 889.257 522.854
70 0 40.0409 10.5642 423 69.3853 888.863 522.931
71 0 40.0191 11.3946 456 69.3246 887.914 521.373
72 0 43.0643 9.68319 417 70.8417 888.321 520.458
73 0 42.091 10.0021 421 70.8219 888.494 519.694
74 0 44.0378 11.0814 488 69.5348 889.422 518.375
75 0 46.0336 10.7313 494 69.3279 889.265 518.186
76 0 46.0189 10.474 482 70.0643 889.355 518.492
77 0 45.0367 11.2575 507 70.4221 889.558 516.258
78 0 47.073 10.9192 514 70.4183 889.152 515.722
79 0 51.0275 12.7578 651 66.937 889.061 515.112
80 0 51.0993 11.4483 585 69.7026 889.877 513.559
81 0 54.0968 11.6273 629 68.3577 890.013 514.727
82 0 55.1678 10.4046 574 69.3223 889.889 516.366
83 0 57.0282 12.3448 704 68.4588 890.294 512.25
84 0 59.0232 12.1647 718 69.1393 890.248 511.132
85 0 60.1018 11.3973 685 70.2715 889.707 509.785
86 0 63.0999 10.4913 662 70.4789 890.628 510.956
87 0 65.0431 12.976 844 67.1268 890.56 509.216
88 0 63.0936 9.35119 590 73.9915 890.515 505.129
89 1 34.0753 9.44966 322 68.1118 889.885 523.748
90 0 37.1455 11.0377 410 66.7561 890.178 520.81
91 0 37.1417 9.23491 343 69.4082 890.554 521.752
92 0 40.1055 10.4724 420 67.2952 890.929 519.729
93 0 43.1704 10.447 451 66.3636 890.878 519.896
94 0 40.1102 10.4712 420 67.1595 891.24 520.3
95 0 44.1519 9.9656 440 67.3773 889.941 519.455
96 0 44.1241 9.5866 423 68.3121 889.638 517.993
97 0 45.1753 11.3115 511 66.3014 889.865 517.09
98 0 47.0421 11.139 524 66.4981 889.662 515.519
99 0 48.0321 10.9302 525 66.7371 890.069 514.078
100 0 50.0933 11.1192 557 66.4632 889.51 513.609
101 0 50.0603 9.30878 466 69.7747 889.298 512.929
102 0 53.1071 11.7498 624 65.6138 890.269 511.546
103 0 51.1154 8.92098 456 69.625 890.029 512.386
104 0 55.1246 11.0296 608 66.9753 889.704 508.883
105 0 56.0782 10.0395 563 67.611 889.648 510.211
106 0 58.0678 10.6772 620 66.629 890.013 508.413
107 0 61.11 10.9966 672 65.5923 889.15 509.887
108 0 62.1322 10.3811 645 67.1767 889.879 507.411
109 0 64.1787 10.6577 684 66.576 889.037 505.623
110 0 67.1023 10.7895 724 65.087 887.787 507.96
111 0 68.1029 9.55907 651 67.2012 889.127 504.358
112 0 71.2022 11.4603 816 65.0882 889.184 501.632
113 1 36.0374 9.29589 335 64.006 889.472 519.49
114 0 39.0924 8.3648 327 63.2905 889.352 519.11
115 0 38.0681 9.69316 369 63.4472 889.285 517.173
116 0 39.1167 9.43331 369 64.4201 889.607 517.569
117 0 39.0251 8.63547 337 65.457 889.543 515.261
118 0 43.1795 9.47208 409 62.6381 889.526 516.325
119 0 44.1021 11.7001 516 61.155 890.219 512.901
120 0 45.1679 11.2469 508 61.3228 889.671 513.508
121 0 47.156 10.1578 479 65.3027 889.685 513.079
122 0 48.2021 10.7049 516 64.281 889.773 511.89
123 0 50.2184 10.6933 537 63.8957 890.117 511.359
124 0 50.1408 10.6899 536 64.2985 889.763 511.187
125 0 51.1308 10.7567 550 64.8945 889.004 511.109
126 0 53.146 10.6123 564 65.5727 889.165 508.606
127 0 55.2077 9.49143 524 66.0134 889.761 508.634
128 0 56.2971 10.4979 591 64.9966 890.25 507.684
129 0 56.1276 9.60312 539 66.3859 889.607 505.8
130 0 59.1584 11.241 665 64.2887 889.253 505.496
131 0 59.238 8.94696 530 66.9962 889.277 504.589
132 0 65.1471 12.1878 794 62.6348 889.035 503.047
133 0 67.1404 11.6919 785 63.265 889.601 503.254
134 0 68.1285 11.493 783 63.6398 888.775 501.092
135 0 70.0833 9.31748 653 66.0306 889.544 502.539
136 0 71.1745 10.8185 770 64.5143 890.138 499.005
137 0 74.2692 11.3371 842 63.715 889.624 496.352
138 1 38.023 10.0203 381 61.0315 888.609 518.071
139 0 37.0317 9.26233 343 61.8426 888.23 516.548
140 0 41.0598 9.0356 371 61.2588 888.342 517.515
141 0 42.1263 8.11844 342 61.8889 888.918 518.57
142 0 43.0698 10.6339 458 59.8472 888.646 515.723
143 0 42.1594 12.3104 519 57.5626 889.482 515.308
144 0 42.1256 12.2016 514 59.0389 889.554 512.169
145 0 45.1461 11.0973 501 59.6228 889.042 511.894
146 0 47.1816 10.343 488 60.5594 888.832 512.506
147 0 47.1731 10.5357 497 62.5091 889.131 509.913
148 0 50.1598 12.201 612 60.0408 888.655 510.232
149 0 50.0915 10.9799 550 62.3473 889.075 509.096
150 0 52.1709 11.5007 600 61.975 888.51 508.39
151 0 52.1361 10.2616 535 63.1103 890.097 507.245
152 0 52.1128 9.76727 509 63.7191 889.405 507.766
153 0 52.19 9.25465 483 65.4141 889.609 506.482
154 0 56.1496 9.77745 549 63.0729 889.632 507.825
155 0 58.0718 10.7798 626 61.7748 891.059 507.468
156 0 57.1388 9.17065 524 64.1508 890.664 504.534
157 0 63.094 10.4606 660 61.4258 889.967 505.479
158 0 61.1227 10.2417 626 62.2284 890.264 505.228
159 0 61.0932 10.3448 632 62.837 889.403 501.405
160 0 65.0848 10.8167 704 62.0994 889.862 500.896
161 0 67.1274 10.9642 736 61.3152 889.928 501.861
162 0 68.1499 9.61117 655 63.0244 890.024 500.55
163 0 71.1078 10.463 744 62.2177 890.367 497.113
164 0 72.1361 9.87024 712 62.5407 889.746 497.844
165 0 76.1189 9.53771 726 63.1612 888.963 497.394
166 0 78.0595 10.8507 847 61.9953 890.525 495.421
167 1 42.0337 8.89762 374 61.2487 889.179 513.12
168 0 42.0431 9.32376 392 60.8138 889.153 513.633
169 0 43.058 9.66139 416 61.1947 889.502 510.74
170 0 46.0232 11.4507 527 59.4972 889.201 508.858
171 0 47.0515 10.8179 509 60.0982 889.035 509.242
172 0 48.0485 11.8422 569 59.522 890.07 509.339
173 0 52.1536 10.4499 545 59.433 889.699 508.857
174 0 50.211 8.52403 428 62.1238 889.671 509.227
175 0 53.1762 9.70359 516 60.9922 889.467 506.977
176 0 55.1462 9.79216 540 60.8148 889.122 507.77
177 0 55.0724 10.5498 581 60.1979 889.47 507.034
178 0 58.1695 11.243 654 59.2706 889.246 506.515
179 0 58.1851 9.69321 564 60.6241 889.098 507.582
180 0 61.1395 12.0871 739 58.433 889.455 505.307
181 0 60.0678 9.50592 571 61.8546 888.993 504.319
182 0 64.1287 11.5549 741 58.8907 889.107 501.171
183 0 66.1118 11.4352 756 59.4444 888.728 502.347
184 0 67.1247 11.2924 758 59.8615 887.972 502.447
185 0 70.1022 11.3548 796 59.7374 887.742 501.466
186 0 72.0804 11.3623 819 59.8181 888.247 500.394
187 0 72.2279 9.88537 714 62.2367 888.116 496.367
188 0 77.1247 10.8655 838 60.6826 887.693 496.858
189 1 40.0618 10.8333 434 59.8295 886.641 512.479
190 0 39.1002 8.79791 344 62.2762 886.116 514.823
191 0 42.0332 11.5623 486 58.8457 885.905 515.267
192 0 43.0268 10.4354 449 60.7439 886.584 513.744
193 0 45.1096 10.2639 463 61.0821 886.784 512.283
194 0 46.11 10.3665 478 61.1611 886.575 513.224
195 0 48.1042 10.498 505 60.6515 886.545 512.394
196 0 49.0595 10.9663 538 60.1506 885.885 514.214
197 0 50.134 10.5717 530 61.1642 885.834 512.551
198 0 51.1605 11.3564 581 60.8124 885.42 511.343
199 0 52.1649 12.0579 629 59.6916 886.52 513.731
200 0 53.1498 11.3829 605 61.157 886.526 511.417
201 0 55.0923 10.1829 561 62.4563 885.754 510.982
202 0 55.084 10.8198 596 62.3322 885.349 512.643
203 0 59.0543 10.0247 592 61.9848 885.514 514.135
204 0 60.1413 10.5585 635 62.1921 885.28 509.359
205 0 64.1413 12.5348 804 59.6555 885.853 508.335
206 0 65.0476 12.6523 823 59.0036 886.332 510.403
207 0 67.0575 11.8108 792 60.4419 885.965 509.258
208 0 68.1191 11.7001 797 60.9787 886.033 507.913
209 0 70.0919 12.9402 907 59.2073 886.011 509.655
210 0 70.0946 10.657 747 62.6533 885.696 506.241
211 0 74.08 12.1355 899 60.4227 885.582 506.106
212 0 76.1872 11.8918 906 60.8709 884.443 504.578
213 0 78.1677 13.2663 1037 59.622 883.988 503.554
214 0 82.1701 12.036 989 60.5187 884.741 502.618
215 1 44.1754 10.0056 442 61.362 883.584 519.516
216 0 44.0922 10.2966 454 60.7885 883.392 521.632
217 0 46.0765 10.526 485 60.2062 882.6 519.322
218 0 48.1758 10.2749 495 60.3212 883.568 519.067
219 0 50.1404 10.9692 550 59.0218 883.655 518.816
220 0 49.0957 10.6527 523 60.6061 883.574 517.218
221 0 50.1969 9.46273 475 61.9663 883.76 517.303
222 0 53.1794 11.7527 625 59.3744 883.515 515.542
223 0 54.154 10.8025 585 60.3556 883.361 514.954
224 0 54.154 10.6917 579 116.233 883.373 514.972
225 0 55.1767 8.82618 487 63.2628 883.885 512.156
226 0 57.1112 9.35018 534 62.6423 883.547 510.118
227 0 58.1559 10.1108 588 61.8946 883.505 509.355
228 0 62.0954 11.1925 695 60.2777 883.42 506.213
229 0 63.0955 10.5871 668 61.0838 883.856 508.054
230 0 65.1492 8.88729 579 62.8031 884.076 504.831
231 0 66.1161 10.3152 682 61.5601 884.565 502.562
232 0 68.1687 10.8701 741 61.0391 884.343 502.765
233 0 70.1571 10.9754 770 60.2701 883.655 504.375
234 0 72.1264 9.60813 693 62.4444 883.332 499.356
235 0 77.1329 11.1107 857 60.9662 884.163 499.17
236 1 36.0628 9.53892 344 60.2122 882.939 516.759
237 0 37.0621 9.1468 339 60.8378 883.581 517.298
238 0 36.0776 8.9252 322 61.6025 883.609 517.553
239 0 37.0371 9.17999 340 61.4941 883.944 518.071
240 0 44.043 9.94483 438 59.4977 883.877 518.025
241 0 44.1488 9.64919 426 61.2418 883.448 515.791
242 0 44.1217 10.607 468 59.9808 884.893 515.874
243 0 47.1671 9.68895 457 59.7571 884.775 511.779
244 0 46.1504 8.86233 409 61.5868 884.897 513.499
245 0 48.2058 9.77061 471 60.7728 884.117 514.65
246 0 50.2713 10.5229 529 59.7902 884.735 512.042
247 0 52.1339 10.3963 542 60.2325 884.712 512.054
248 0 52.1648 11.0611 577 60.3016 885.461 510.778
249 0 54.1305 9.18152 497 62.0664 885.038 512.648
250 0 55.0893 9.72966 536 61.3694 885.396 511.573
251 0 57.2056 10.2088 584 60.9469 886.219 511.152
252 0 59.1162 10.6401 629 60.2703 885.485 509.289
253 0 62.2113 10.3357 643 60.2768 885.798 509.465
254 0 60.1688 9.95533 599 60.2604 886.659 510.389
255 0 64.2347 10.3838 667 59.6732 885.901 511.388
256 0 65.1283 12.2835 800 57.7238 886.474 506.972
257 0 67.1304 11.6043 779 58.543 886.128 506.488
258 0 69.0662 10.6275 734 59.7384 885.722 505.662
259 0 71.1573 11.7627 837 58.0836 886.004 504.662
260 0 73.0829 10.5497 771 59.4475 886.553 504.34
261 0 77.1609 13.8671 1070 55.9907 885.739 503.068
262 0 79.199 13.9774 1107 56.0488 885.282 500.826
263 0 82.2771 12.8104 1054 56.7799 886.021 502.972
264 0 81.0965 9.95111 807 60.8662 885.854 499.995
265 1 42.0613 10.3421 435 57.7333 885.177 520.407
266 0 44.0584 10.4861 462 58.3766 884.636 518.483
267 0 46.0783 11.1115 512 56.8398 884.621 520.082
268 0 49.0444 10.6842 524 58.2023 885.75 518.504
269 0 50.0878 10.2819 515 58.8175 884.551 518.623
270 0 51.049 12.439 635 57.2063 884.266 515.813
271 0 51.089 10.4719 535 58.4393 885.024 517.735
272 0 51.0674 10.8484 554 59.2906 884.5 515.791
273 0 54.104 11.2746 610 58.5492 884.298 515.313
274 0 55.0521 10.3538 570 59.8526 883.147 515.728
275 0 58.0408 12.5084 726 56.8843 883.883 514.253
276 0 59.1114 11.3684 672 58.6741 884.484 513.826
277 0 60.061 11.0221 662 59.2704 883.683 513.118
278 0 63.0548 14.1147 890 55.5663 884.426 511.498
279 0 65.0624 12.634 822 57.5462 884.263 509.619
280 0 66.1072 12.4041 820 56.8195 884.61 511.211
281 0 67.1094 10.9523 735 58.8408 885.129 509.795
282 0 71.1035 11.645 828 58.2572 884.81 508.821
283 0 71.0949 12.406 882 58.0317 884.264 505.551
284 0 74.0715 12.1909 903 58.1661 883.589 506.395
285 0 75.0877 12.9582 973 57.778 883.703 505.764
286 0 76.0964 10.7364 817 60.5789 883.909 505.163
287 0 79.2821 10.2041 809 61.7429 883.651 502.054
288 0 79.1701 9.65011 764 63.1819 883.614 500.109
289 1 41.0967 9.78181 402 60.1816 883.284 519.45
290 0 43.0595 10.8687 468 58.8739 883.56 520.842
291 0 45.0294 11.1483 502 59.1693 883.301 520.964
292 0 46.0676 10.9404 504 59.4325 884.06 521.341
293 0 46.0305 9.75441 449 61.3853 884.615 520.465
294 0 47.1338 10.8415 511 60.6791 884.583 516.769
295 0 51.0465 11.7932 602 59.809 884.452 517.228
296 0 50.115 12.0124 602 59.701 883.777 516.045
297 0 50.0309 10.2137 511 62.4227 883.722 515.55
298 0 54.1169 10.6436 576 62.2517 882.825 514.198
299 0 55.0462 11.3541 625 61.3536 883.213 515.528
300 0 57.1605 12.3337 705 60.8624 882.94 512.308
301 0 58.0975 11.4979 668 62.4656 882.72 510.993
302 0 60.0359 11.8096 709 62.0254 883.457 512.56
303 0 62.1066 11.8989 739 61.9202 883.516 510.091
304 0 63.0283 13.0418 822 60.9453 883.259 510.76
305 0 66.0949 12.8754 851 61.6675 883.367 508.912
306 0 68.0611 11.8864 809 63.042 883.198 506.23
307 0 72.1347 12.948 934 61.2655 883.378 503.916
308 0 72.0732 12.7509 919 62.4538 883.397 505.625
309 0 74.0378 11.5347 854 64.719 883.46 503.011
310 1 37.0105 10.8348 401 61.9451 883.339 523.087
311 0 40.0234 10.8437 434 61.4539 883.221 523.77
312 0 40.0374 10.0406 402 62.5896 883.303 524.433
313 0 39.1044 11.3542 444 62.7973 883.405 523.007
314 0 40.0209 11.469 459 64.024 882.935 520.115
315 0 42.0548 12.5075 526 61.8555 882.968 521.181
316 0 45.0522 11.1648 503 63.5149 883.139 521.537
317 0 44.2227 11.2386 497 64.6942 883.414 518.497
318 0 46.0845 12.3252 568 63 883.428 519.623
319 0 47.0224 10.7183 504 65.5119 883.546 517.683
320 0 48.053 11.633 559 64.9088 883.061 519.581
321 0 51.0634 11.5934 592 64.1115 884.272 519.74
322 0 50.0414 11.0109 551 66.6806 883.642 515.791
323 0 51.0697 10.5934 541 67.3179 883.488 515.394
324 0 53.0858 10.9445 581 66.6059 883.346 513.9
325 0 52.0958 11.2869 588 67.2789 883.366 512.328
326 0 57.1175 13.3584 763 64.5085 883.507 512.253
327 0 58.0492 12.0415 699 66.3305 883.498 510.106
328 0 59.0248 12.2152 721 65.5437 883.264 513.003
329 0 62.1106 11.9947 745 66.7302 883.581 509.184
330 0 65.1369 11.6677 760 66.7276 884.379 509.328
331 0 68.1079 13.1409 895 64.7296 884.245 507.037
332 0 68.1055 11.8346 806 66.5633 883.612 507.954
333 1 37.1025 10.4845 389 65.4807 883.861 521.72
334 0 39.0307 10.2227 399 64.9273 882.932 522.559
335 0 39.0744 11.9004 465 63.486 883.594 521.867
336 0 40.0338 10.2913 412 65.6117 883.556 521.192
337 0 41.0505 11.3519 466 64.5601 883.715 520.294
338 0 41.0732 10.5665 434 66.3272 883.906 520.233
339 0 42.0847 10.7165 451 66.3392 883.882 519.8
340 0 43.026 11.4814 494 64.4372 883.13 521.279
341 0 46.0534 12.3769 570 63.5088 883.454 519.532
342 0 46.1015 11.4313 527 65.7457 883.285 517.901
343 0 45.0376 10.5023 473 67.0296 883.351 516.727
344 0 49.0623 12.5147 614 63.8648 882.134 517.182
345 0 50.0873 10.5017 526 66.5152 882.703 516.323
346 0 52.0699 12.2143 636 64.2154 883.759 513.365
347 0 52.0672 11.3699 592 66.0726 884.101 512.081
348 0 54.0334 11.3633 614 65.3844 882.886 513.775
349 0 56.0323 10.6546 597 66.124 883.513 512.245
350 0 57.0418 10.3082 588 66.9031 884.185 512.213
351 0 59.0643 10.0568 594 66.4545 883.906 512.146
352 0 60.0486 12.6564 760 63.7645 883.725 509.82
353 0 59.0569 10.3121 609 66.7455 883.663 507.626
354 0 63.084 11.7304 740 64.6216 883.745 506.512
355 0 65.1212 10.7185 698 65.8782 882.751 504.944
356 0 69.0991 11.7802 814 64.4373 883.35 505.238
357 0 70.097 10.5283 738 66.2398 883.772 503.118
358 0 71.0692 10.9611 779 65.1245 884.15 503.685
359 0 74.0447 12.1008 896 63.8583 884.439 503.088
360 0 76.0815 12.71 967 63.454 882.842 503.081
361 1 39.0571 9.55013 373 66.0697 882.831 520.182
362 0 39.0651 10.2137 399 66.0326 882.579 519.023
363 0 43.0269 9.48243 408 66.2745 883.483 518.355
364 0 42.0638 10.8882 458 65.7402 883.878 517.373
365 0 45.0403 11.3898 513 64.0234 883.585 517.602
366 0 46.0528 11.2697 519 64.2524 884.399 516.57
367 0 48.0246 10.8694 522 64.8142 884.182 515.057
368 0 50.0711 12.3025 616 63.7646 883.748 514.68
369 0 50.0612 11.2063 561 64.8913 883.308 513.686
370 0 51.0741 10.6708 545 65.4367 883.361 514.921
371 0 53.188 10.5475 561 65.656 883.258 512.517
372 0 56.0567 11.3456 636 64.4025 883.305 512.921
373 0 58.0956 10.5688 614 64.9658 883.401 513.423
374 0 57.0909 10.7548 614 65.2606 883.578 511.813
375 0 60.0449 12.041 723 63.4703 883.64 509.66
376 0 62.0286 11.269 699 64.5393 883.232 506.519
377 0 64.1243 11.7584 754 63.7029 883.544 507.451
378 0 67.0694 11.421 766 64.3525 883.181 503.798
379 0 69.0872 11.3335 783 64.2925 882.799 507.087
380 0 71.1451 11.0057 783 64.986 881.93 503.61
381 0 74.1385 13.0162 965 62.4694 882.666 502.974
382 0 76.2429 11.9355 910 63.9571 881.798 502.676
383 1 38.0468 9.04151 344 62.7645 882.142 523.334
384 0 39.1327 10.5794 414 61.5725 882.425 521.734
385 0 37.02 9.45436 350 64.1657 882.811 519.403
386 0 40.0771 10.1804 408 62.6691 881.561 520.75
387 0 41.1074 10.3874 427 62.1733 882.176 518.909
388 0 45.1468 10.632 480 61.6833 882.981 518.1
389 0 45.1118 11.3052 510 61.4157 882.42 520.316
390 0 47.1088 10.8472 511 61.6928 882.08 519.847
391 0 49.1514 12.1461 597 60.7069 882.95 516.838
392 0 50.0844 11.3409 568 61.831 882.988 516.254
393 0 50.1477 10.828 543 62.2118 882.42 516.958
394 0 53.1733 11.0582 588 62.1003 882.679 514.406
395 0 55.0904 12.6519 697 59.825 882.402 515.646
396 0 55.0433 11.5364 635 61.9213 882.946 513.137
397 0 58.1103 11.96 695 60.8317 882.778 511.925
398 0 59.1116 11.1822 661 62.2073 883.118 510.402
399 0 60.0462 10.1255 608 62.9951 882.472 512.461
400 0 63.1014 12.3294 778 60.8316 883.18 510.242
401 0 63.0899 10.5247 664 63.7139 883.036 507.803
402 0 66.1682 10.0653 666 63.5195 882.378 508.219
403 0 68.1144 11.143 759 62.8524 883.285 504.986
404 1 36.1159 10.6325 384 60.4948 882.927 522.635
405 0 36.0374 10.9331 394 60.1574 882.848 523.949
406 0 39.2402 9.88781 388 60.6366 883.028 522.959
407 0 38.0764 11.582 441 59.5011 882.862 522.676
408 0 38.0645 8.98476 342 62.845 882.754 520.386
409 0 40.0718 9.80739 393 62.3359 883.038 518.252
410 0 46.0969 11.4541 528 59.4413 883.032 519.434
411 0 46.331 12.4107 575 58.5826 882.88 518.977
412 0 47.168 10.1764 480 61.0062 882.725 520.558
413 0 46.0973 11.1069 512 61.3965 882.441 516.295
414 0 49.1119 10.9749 539 60.9981 882.818 515.835
415 0 52.0838 11.9615 623 59.6035 882.315 517.23
416 0 53.0764 11.7378 623 59.9952 883.14 515.164
417 0 53.1755 10.9073 580 61.2172 882.988 513.719
418 0 56.1227 11.6352 653 60.0643 882.815 513.957
419 0 58.082 11.2599 654 60.4266 882.682 514.272
420 0 59.084 13.1677 778 58.9512 882.532 512.406
421 0 61.1368 11.597 709 60.4542 882.557 514.096
422 0 65.2556 11.9223 778 60.1671 882.491 511.267
423 0 66.1577 12.7272 842 59.7506 881.974 508.922
424 0 68.0511 13.0049 885 59.374 882.058 507.863
425 0 69.2425 11.6403 806 61.1427 882.341 506.12
426 0 72.1821 12.4546 899 60.3849 882.812 504.674
427 0 75.0748 11.322 850 61.1824 882.527 506.253
428 0 74.2075 9.48691 704 64.3054 882.504 502.93
429 0 78.174 10.7836 843 62.363 883.072 502.536
430 0 81.1553 12.7164 1032 60.5019 882.819 501.764
431 0 82.0967 9.85424 809 64.3745 883.093 501.557
432 1 43.0864 11.3261 488 60.0615 882.469 521.58
433 0 42.0454 8.39568 353 63.7507 881.941 521.575
434 0 43.0424 8.85173 381 64.1522 881.68 520.688
435 0 48.0704 11.712 563 60.3819 881.719 519.021
436 0 50.1268 12.2888 616 59.6299 882.662 519.922
437 0 50.0991 11.2577 564 62.1968 882.17 518.222
438 0 52.1643 11.8472 618 61.2751 882.125 517.709
439 0 53.0739 12.9819 689 59.8476 881.849 516.165
440 0 52.2323 10.4916 548 63.6168 882.062 515.482
441 0 58.1043 10.877 632 61.913 882.617 515.187
442 0 58.132 12.4028 721 60.9736 883.316 511.616
443 0 60.0974 9.80076 589 64.5857 882.723 510.312
444 0 62.104 11.2392 698 63.1805 882.761 509.86
445 0 63.101 9.60365 606 65.1023 883.068 508.076
446 0 66.0913 12.6492 836 61.3457 883.008 507.762
447 0 69.1422 11.3679 786 62.3715 883.182 509.487
448 0 71.131 13.2853 945 60.1196 883.212 506.091
449 0 72.1112 11.7735 849 61.9199 883.556 504.055
450 0 75.083 12.8524 965 61.0808 882.446 503.346
451 0 77.1779 11.5188 889 62.8448 882.424 502.8
452 0 81.138 12.4849 1013 61.6081 883.054 502.738
453 0 83.1553 11.6769 971 62.7714 882.763 501.127
454 0 87.2152 11.1563 973 63.3176 882.634 499.038
455 1 41.0825 7.49711 308 65.6656 882.078 521.912
456 0 44.0935 10.5004 463 62.8898 881.849 517.747
457 0 45.119 11.0375 498 62.3655 882.131 519.106
458 0 47.2031 12.6687 598 60.3378 882.44 517.794
459 0 49.0266 11.1572 547 61.3656 881.748 518.775
460 0 50.0624 10.7865 540 61.7685 882.302 516.293
461 0 52.1792 12.5529 655 59.8611 883 515.275
462 0 52.0478 11.3165 589 61.7827 882.443 515.044
463 0 55.0692 11.422 629 61.3132 882.776 512.488
464 0 56.0578 11.3811 638 62.1019 882.157 512.103
465 0 58.2009 11.5806 674 61.7181 882.012 512.82
466 0 61.1108 12.4037 758 59.8127 882.227 511.745
467 0 62.145 13.3398 829 59.1242 882.993 510.47
468 0 63.0737 11.3042 713 61.9762 881.886 509.058
469 0 65.22 9.98159 651 62.8756 882.304 511.482
470 0 68.0863 11.4414 779 61.2734 882.782 506.325
471 0 69.1391 10.5729 731 62.4856 882.579 504.41
472 0 71.087 10.9162 776 61.9485 882.423 504.678
473 0 75.2132 10.8359 815 61.7669 883.152 503.621
474 0 75.1627 12.3865 931 60.3426 882.946 502.893
475 0 78.0666 12.2972 960 60.8688 882.286 499.958
476 1 38.0748 7.19636 274 64.7007 882.073 520.704
477 0 42.0509 9.55984 402 62.107 881.565 519.485
478 0 42.0316 10.159 427 61.7119 881.176 520.253
479 0 43.0436 10.3848 447 61.8233 882.029 518.148
480 0 46.0258 11.4718 528 60.4943 881.621 517.949
481 0 46.0367 9.86169 454 61.7599 881.989 517.676
482 0 47.064 9.51895 448 62.7232 882.214 516.089
483 0 49.1315 12.09 594 59.8249 882.776 513.269
484 0 51.0315 11.0716 565 60.8549 882.175 511.559
485 0 50.0634 9.1484 458 63.1485 882.574 512.011
486 0 53.046 12.1216 643 59.4448 882.995 511.017
487 0 57.102 12.9067 737 58.4125 882.535 510.269
488 0 55.0526 10.7715 593 61.3963 882.015 509.086
489 0 58.1129 10.8582 631 60.9017 882.07 508.228
490 0 64.1787 12.6054 809 57.8727 882.125 508.732
491 0 64.0551 12.38 793 58.7314 882.85 508.678
492 0 65.1026 12.0118 782 59.3708 882.079 504.679
493 0 66.1323 11.6887 773 59.3389 881.568 506.417
494 0 67.0574 10.752 721 60.5187 881.902 504.23
495 0 68.0689 8.68238 591 62.7614 881.88 500.519
496 0 73.1313 10.9529 801 60.3745 881.821 500.965
497 0 76.1002 12.4967 951 59.0778 882.617 499.175
498 0 78.0998 11.5109 899 59.9377 882.466 500.042
499 1 39.0745 9.41792 368 59.9212 881.872 518.788
500 0 41.0494 11.3035 464 57.4914 881.562 520.731
501 0 43.0336 11.1773 481 58.5717 882.083 519.162
502 0 43.069 11.1217 479 58.9937 881.881 516.879
503 0 44.0224 12.3573 544 58.3511 881.548 517.483
504 0 46.0755 11.9803 552 58.5743 882.348 516.418
505 0 49.0664 13.4715 661 56.7383 882.024 515.336
506 0 48.1452 12.67 610 58.3443 881.77 513.807
507 0 50.0358 12.4311 622 58.1897 882.111 514.868
508 0 51.0373 12.9513 661 57.829 881.976 513.278
509 0 52.0731 11.7335 611 59.1571 881.52 512.583
510 0 55.0817 11.5828 638 58.7994 881.56 512.674
511 0 54.0418 10.8065 584 61.0839 882.154 510.866
512 0 56.0428 11.7767 660 59.0485 881.711 512.888
513 0 59.0469 12.7864 755 58.0834 881.649 512.082
514 0 60.0632 12.4702 749 58.3752 881.401 513.618
515 0 60.0205 11.796 708 59.6398 882.297 509.215
516 0 63.0744 12.62 796 58.7601 882.318 509.009
517 0 65.0579 13.4035 872 58.4954 881.205 505.875
518 0 66.0793 11.9856 792 59.9962 881.846 508.614
519 0 70.0752 13.5283 948 57.6456 881.61 507.178
520 0 72.0538 12.9764 935 58.169 881.201 507.225
521 0 74.0865 12.7284 943 58.7678 882.576 504.645
522 0 74.088 11.5133 853 60.3306 881.98 501.836
523 0 80.2119 13.1277 1053 58.0855 882.032 502.607
524 1 40.0201 10.8695 435 58.4414 882.11 521.255
525 0 39.0488 10.3972 406 59.6897 881.778 520.727
526 0 40.0818 10.4536 419 59.3819 881.449 521.267
527 0 42.0567 13.4818 567 57.485 882.032 518.011
528 0 45.0549 12.7622 575 57.4104 882.24 519.711
529 0 45.0758 9.42857 425 61.1247 881.659 520.064
530 0 45.2046 10.7069 484 60.5351 881.961 518.589
531 0 49.0486 12.9259 634 58.2192 881.774 515.292
532 0 48.0698 10.1935 490 61.7796 881.098 514.431
533 0 51.0186 11.388 581 60.6506 881.241 515.198
534 0 51.0372 10.1103 516 61.6105 881.587 516.297
535 0 54.0445 12.3787 669 59.3931 882.069 512.528
536 0 58.0472 10.9738 637 60.4396 882.182 514.311
537 0 59.1026 11.9284 705 59.5504 881.559 512.183
538 0 60.0405 10.5429 633 61.4755 881.621 512.316
539 0 62.0558 12.3115 764 60.0995 881.47 509.445
540 0 64.0555 13.6288 873 58.6999 882.118 510.362
541 0 66.1772 13.5847 899 58.7008 881.78 508.934
542 0 67.1009 12.6973 852 60.0587 882.05 508.95
543 0 69.0872 12.9112 892 60.5325 881.863 504.411
544 0 71.119 11.8112 840 61.6405 882.125 503.483
545 0 74.1642 13.9016 1031 59.5393 881.607 503.623
546 1 37.0446 10.4199 386 61.5389 881.119 521.953
547 0 39.1521 9.16936 359 62.663 881.758 522.312
548 0 39.0606 11.0597 432 61.1273 881.704 521.303
549 0 39.0437 10.2193 399 61.782 880.815 521.296
550 0 43.1601 10.5653 456 60.3487 880.425 522.037
551 0 43.1172 10.0424 433 62.2933 881.51 518.298
552 0 46.2169 11.5759 535 60.2673 881.465 518.843
553 0 48.1087 10.7465 517 60.7021 881.522 517.056
554 0 47.0513 10.6055 499 61.8978 881.894 516.02
555 0 50.0626 11.4057 571 60.2137 881.294 517.41
556 0 51.0804 11.7462 600 59.9167 881.02 515.057
557 0 52.209 10.0174 523 61.4493 881.566 516.008
558 0 56.1068 12.2089 685 58.781 881.381 514.239
559 0 57.0819 12.2456 699 58.897 881.672 512.771
560 0 59.0899 11.1525 659 60.308 881.587 511.129
561 0 62.1413 11.2647 700 59.6957 881.797 513.097
562 0 64.2736 11.7933 758 59.7625 881.859 511.173
563 0 65.216 11.4696 748 60.4171 881.39 508.344
564 0 67.1758 10.7479 722 61.4003 881.465 505.287
565 0 69.1507 11.9594 827 59.8029 881.185 507.247
566 1 34.239 9.31685 319 61.21 881.129 521.545
567 0 34.1528 11.5071 393 59.3435 880.947 522.804
568 0 36.1624 8.51712 308 61.9318 880.825 523.357
569 0 38.1387 11.6679 445 59.7685 881.029 519.384
570 0 40.0972 10.5244 422 60.1114 881.467 522.147
571 0 41.1189 8.58487 353 63.7337 881.796 519.306
572 0 44.223 9.72345 430 62.0907 882.379 516.97
573 0 45.1952 10.51 475 61.8737 881.669 515.143
574 0 45.1034 9.88838 446 62.6749 881.98 515.28
575 0 48.1677 10.6295 512 61.8691 881.926 514.396
576 0 49.0599 10.6604 523 62.738 882.09 510.816
577 0 50.1791 10.5024 527 62.3283 882.554 513.266
578 0 52.1126 11.8014 615 60.8098 882.646 511.628
579 0 55.0643 11.0235 607 61.542 882.789 510.898
580 0 56.056 11.0247 618 61.6472 883.875 509.602
581 0 56.0429 10.6525 597 62.6348 883.762 508.779
582 0 59.0597 9.75285 576 62.5069 883.717 508.651
583 0 61.0373 10.0758 615 62.4325 883.042 507.706
584 0 64.0813 11.7507 753 60.6109 882.965 505.465
585 0 66.1738 9.39949 622 62.0498 882.543 509.643
586 0 68.1649 11.4135 778 61.3342 882.649 500.514
587 0 69.1899 9.48115 656 63.2576 882.45 500.088
588 0 73.0407 11.7469 858 60.6608 882.036 500.186
589 0 76.0485 10.5985 806 61.6638 882.253 500.67
590 0 77.0621 10.0179 772 62.2863 881.646 499.426
591 1 40.0205 10.6445 426 59.615 881.833 518.465
592 0 40.1206 9.96994 400 59.7575 881.652 521.442
593 0 45.0887 9.84726 444 59.9369 881.25 518.635
594 0 47.0445 10.4582 492 59.315 881.045 517.435
595 0 45.1044 9.86601 445 60.8404 881.472 514.299
596 0 47.0608 10.3483 487 60.5257 882.166 514.464
597 0 48.0349 10.6381 511 59.82 881.654 516.239
598 0 53.0507 14.0432 745 55.7611 882.34 512.879
599 0 52.1717 11.443 597 59.3685 881.631 512.744
600 0 54.0869 11.3706 615 59.7707 882.38 512.301
601 0 56.0523 12.3813 694 58.5793 881.999 511.471
602 0 59.1393 10.3315 611 60.8854 882.126 511.167
603 0 58.1116 11.4435 665 59.8481 882.414 510.549
604 0 63.0352 13.1831 831 57.7894 881.866 507.882
605 0 63.0686 11.432 721 60.9417 882.871 506.947
606 0 65.1611 10.2975 671 61.8212 882.969 507.991
607 0 66.1961 9.48696 628 63.3105 883.159 506.498
608 0 70.1759 11.8417 831 60.3694 882.887 504.35
609 0 73.1753 10.427 763 61.671 882.847 502.128
610 0 76.2275 11.5444 880 60.5352 882.328 501.293
611 1 38.0497 10.4074 396 60.5101 882.548 521.222
612 0 40.0297 8.79347 352 61.983 882.722 519.92
613 0 43.0369 10.6885 460 60.4543 882.528 517.893
614 0 46.0896 11.9333 550 59.0109 882.96 514.078
615 0 46.0264 11.363 523 60.153 882.26 514.075
616 0 49.0292 11.3198 555 58.6775 883.029 516.404
617 0 48.0773 11.5023 553 60.3508 882.825 513.311
618 0 51.0255 10.1714 519 61.0077 882.443 513.909
619 0 52.018 11.8036 614 59.6906 882.523 513.213
620 0 54.0373 10.4002 562 61.1406 882.568 511.927
621 0 57.1438 12.0573 689 59.1524 882.353 509.463
622 0 57.0655 11.7584 671 59.93 882.522 509.219
623 0 60.0731 11.6358 699 59.2947 882.401 509.753
624 0 60.1435 11.3728 684 59.864 882.491 509.241
625 0 62.1085 11.1579 693 60.5483 882.768 506.745
626 0 63.0805 11.0494 697 60.6686 882.37 507.046
627 0 65.0717 10.9725 714 60.6597 881.244 503.006
628 0 67.1208 9.9522 668 61.2335 881.876 503.69
629 0 70.1796 12.639 887 58.4453 882.594 502.692
630 0 71.0762 10.1722 723 61.3721 882.611 501.566
631 0 75.1624 11.2423 845 59.1207 882.275 501.817
632 0 77.1887 12.5796 971 59.0206 882.475 496.889
633 0 80.1045 11.51 922 59.885 882.685 497.031
634 0 83.1596 11.2915 939 60.2833 882.049 498.378
635 0 86.0985 11.0687 953 60.7933 882.805 495.007
636 0 89.1988 11.8387 1056 60.3106 883.354 494.031
637 0 88.0856 11.8067 1040 61.4865 883.081 490.559
638 1 44.1185 12.3078 543 58.7808 882.735 514.133
639 0 44.0637 11.0522 487 61.7721 882.38 512.355
640 0 48.0306 11.3469 545 60.1651 882.983 513.91
641 0 48.087 10.7098 515 62.1845 882.981 512.219
642 0 50.0305 11.2731 564 61.2447 883.012 511.663
643 0 52.0282 11.8397 616 61.4156 881.94 508.724
644 0 55.2847 11.6669 645 60.8667 881.865 510.888
645 0 54.0442 10.6024 573 62.4764 883.276 510.136
646 0 58.1245 10.3399 601 62.1464 882.498 510.581
647 0 58.1217 11.9577 695 61.6187 883.104 504.4
648 0 62.1294 10.5103 653 62.268 882.286 508.38
649 0 62.0797 12.3712 768 61.1068 882.312 506.724
650 0 64.0822 13.7948 884 59.4672 882.826 505.419
651 0 65.1738 11.2162 731 62.0629 883.345 506.235
652 0 67.1373 12.1989 819 61.3443 883.107 503.606
653 0 70.0769 11.202 785 62.2662 883.144 503.047
654 0 74.1168 11.3874 844 61.8306 883.255 502.634
655 0 75.0682 11.7227 880 61.7875 883.156 500.976
656 0 79.1759 9.83886 779 63.3312 884.11 501.212
657 0 79.0707 11.1293 880 63.4591 883.76 498.475
658 0 82.0528 12.6016 1034 61.6586 883.313 497.591
659 0 86.1025 11.0334 950 63.1305 883.122 497.783
660 1 43.0535 8.1991 353 63.7875 883.416 517.816
661 0 46.0598 10.4212 480 62.0708 883.09 518.09
662 0 46.0285 8.88579 409 64.4597 883.007 515.413
663 0 49.0182 12.118 594 61.1582 883.535 513.377
664 0 50.1146 11.1944 561 61.9537 882.948 514.034
665 0 53.0445 13.0268 691 59.4544 883.318 510.33
666 0 54.0513 13.1727 712 59.9705 883.452 509.271
667 0 55.0279 12.3028 677 60.7282 883.532 510.498
668 0 58.0323 10.9939 638 61.6379 883.484 508.655
669 0 58.04 12.2674 712 61.0997 882.923 508.065
670 0 63.0258 11.9316 752 60.6582 883.258 506.894
671 0 62.0378 12.2184 758 60.558 884.607 507.042
672 0 64.0797 12.2816 787 60.9288 884.341 503.943
673 0 69.1037 12.5753 869 60.1346 883.549 503.52
674 0 71.0411 10.9796 780 61.9308 882.804 503.172
675 0 72.0488 11.2285 809 62.204 883.201 503.062
676 0 75.1154 12.3011 924 61.3193 883.808 501.632
677 0 77.1363 12.4714 962 61.4262 884.289 499.252
678 0 79.1412 13.5707 1074 60.162 883.659 500.45
679 0 81.1395 12.46 1011 62.3106 883.244 495.966
680 0 83.0925 11.421 949 63.6976 883.976 494.547
681 0 85.1201 10.9962 936 64.1271 884.458 497.416
682 1 47.0333 11.949 562 61.3683 883.883 514.633
683 0 46.0782 10.9596 505 62.7069 883.115 516.372
684 0 49.0488 9.48035 465 63.8452 883.994 517.073
685 0 51.0364 11.5996 592 62.4595 883.218 513.405
686 0 54.0986 11.5899 627 62.6954 883.92 511.952
687 0 54.0213 12.3285 666 62.6742 883.414 510.89
688 0 59.0421 11.314 668 63.0269 883.368 510.698
689 0 60.0425 14.2899 858 59.8869 883.631 507.888
690 0 60.0597 11.6218 698 63.0688 884.202 509.871
691 0 62.1957 11.5281 717 63.1185 884.36 509.042
692 0 66.1853 12.5254 829 61.6779 883.388 508.004
693 0 68.0749 12.6478 861 61.7561 883.278 505.336
694 0 70.228 12.2601 861 61.9779 883.193 505.355
695 0 70.0663 11.8602 831 62.6065 883.211 505.231
696 0 75.0989 13.0495 980 61.0388 883.104 501.099
697 0 76.0492 11.532 877 62.5279 883.417 501.869
698 0 78.096 11.1529 871 63.8852 883.398 499.757
699 0 83.1724 11.7106 974 62.3901 883.494 498.104
700 1 43.0191 11.1578 480 60.7583 883.925 518.417
701 0 44.07 11.7087 516 60.6202 883.281 517.19
702 0 45.025 10.5275 474 62.2848 883.036 516.179
703 0 47.0242 10.8455 510 62.098 882.996 516.027
704 0 49.0604 13.249 650 59.8308 882.835 513.08
705 0 50.1125 12.4121 622 60.6383 882.981 514.386
706 0 51.062 12.3967 633 60.94 883.169 511.404
707 0 51.0666 11.5144 588 62.2364 882.969 511.515
708 0 55.0473 11.9352 657 61.1903 882.703 510.957
709 0 58.0674 12.6577 735 60.1741 883.053 510.823
710 0 60.0449 11.8245 710 60.8141 882.83 511.204
711 0 59.1205 11.2482 665 62.2165 882.744 510.125
712 0 63.099 13.4392 848 59.7642 883.303 507.501
713 0 64.1279 13.7694 883 59.5198 883.016 506.41
714 0 67.053 12.8108 859 60.6123 882.591 506.48
715 0 68.103 11.4239 778 62.027 883.251 504.219
716 0 69.0872 11.4348 790 62.4152 883.187 503.086
717 0 73.151 13.9984 1024 59.3438 883.559 501.299
718 0 77.0831 13.1157 1011 60.2067 883.68 503.625
719 0 77.035 11.1508 859 62.7905 884.071 500.464
720 0 83.0527 13.7021 1138 59.8286 883.323 498.434
721 0 84.1606 11.6682 982 62.7424 883.124 498.531
722 1 43.0218 8.15866 351 64.812 882.832 519.083
723 0 46.0388 12.294 566 61.4664 882.542 516.431
724 0 47.0929 11.9551 563 62.1261 882.686 516.627
725 0 50.0339 10.0332 502 63.3088 883.036 517.135
726 0 49.034 12.2772 602 62.3256 883.666 514.121
727 0 51.0852 11.1774 571 62.8616 883.179 516.187
728 0 52.0501 12.0077 625 62.7248 883.107 512.445
729 0 54.075 12.5381 678 61.8968 882.962 511.718
730 0 55.0473 11.4447 630 63.7238 882.324 512.102
731 0 59.0765 12.2384 723 61.7566 883.093 511.78
732 0 57.0422 12.0262 686 62.7434 883.599 511.493
733 0 60.1198 10.529 633 64.6477 882.567 508.46
734 0 64.0975 11.3421 727 62.9546 882.4 507.6
735 0 66.0734 11.8202 781 62.3611 883.169 508.73
736 0 70.049 12.22 856 61.6811 883.428 506.954
737 0 71.077 11.987 852 62.5176 883.029 505.171
738 0 72.0556 12.1157 873 62.7812 883.389 501.611
739 0 76.0688 12.4361 946 61.9926 883.463 504.514
740 0 77.0671 11.5614 891 62.6925 883.947 504.322
741 0 81.0634 11.3245 918 63.9129 883.306 500.735
742 0 82.1413 13.1846 1083 62.4986 883.489 499.678
743 1 44.0917 12.3379 544 60.3015 882.68 519.074
744 0 45.065 10.385 468 62.1731 882.716 520.791
745 0 47.0587 11.3263 533 61.1595 882.281 518.722
746 0 46.0191 9.90892 456 63.1689 882.693 518.893
747 0 50.0243 10.6348 532 62.3064 883.039 517.316
748 0 50.0243 10.6748 534 133.494 884.041 517.371
749 0 52.1001 11.4779 598 62.1054 883.099 514.915
750 0 54.0691 12.41 671 60.8838 882.343 512.903
751 0 55.1385 11.6797 644 61.5901 882.669 513.092
752 0 58.1206 12.7838 743 59.8923 882.401 514.431
753 0 58.0605 11.1091 645 62.186 882.567 512.459
754 0 61.0583 12.1851 744 61.129 883.219 509.858
755 0 63.0421 13.3561 842 59.2767 883.217 509.006
756 0 66.0772 11.5168 761 61.1445 882.898 508.078
757 0 67.1823 11.1637 750 61.5267 883.085 507.151
758 0 67.0375 9.99441 670 63.3149 883.13 503.913
759 0 72.1254 10.8561 783 61.2963 882.746 505.028
760 0 72.154 10.2004 736 62.4552 882.834 504.228
761 0 78.0837 12.6019 984 59.623 883.177 502.748
762 1 40.054 10.336 414 59.8961 882.295 520.971
763 0 40.0339 9.96656 399 60.4236 883.155 520.93
764 0 41.0198 11.1654 458 60.6528 882.609 517.841
765 0 41.0455 9.45293 388 62.3454 882.856 519.209
766 0 46.0104 12.0842 556 58.9299 883.147 518.473
767 0 47.0456 12.8386 604 58.4023 882.714 516.738
768 0 46.0346 13.164 606 58.7574 882.86 515.592
769 0 49.0297 13.0329 639 58.2332 882.962 514.571
770 0 51.0519 11.4197 583 59.8422 882.372 514.633
771 0 52.0531 12.1991 635 59.7528 882.633 513.913
772 0 53.0817 11.6801 620 60.3355 883.919 512.684
773 0 55.1375 11.7162 646 60.1285 882.776 514.454
774 0 57.0528 12.9003 736 58.8546 882.819 512.458
775 0 58.0798 10.9677 637 60.821 882.849 508.887
776 0 58.1178 10.5648 614 61.4007 882.702 509.474
777 0 62.0434 11.4597 711 60.0563 882.906 508.046
778 0 64.022 11.1993 717 59.9386 883.717 507.238
779 0 66.0435 11.2804 745 59.749 883.432 506.612
780 0 67.1277 11.2025 752 59.629 883.697 507.113
781 0 70.1161 11.9373 837 58.626 882.989 503.748
782 0 72.0696 10.9755 791 59.4716 882.982 503.358
783 0 74.1384 9.34738 693 60.4993 883.26 504.198
784 1 37.03 8.50662 315 59.3397 883.003 522.962
785 0 41.0549 12.2032 501 54.9541 883.85 522.495
786 0 43.0762 9.193 396 57.0429 883.26 523.255
787 0 44.1332 12.4849 551 55.0436 882.991 519.608
788 0 45.0728 12.4243 560 55.4232 882.389 519.596
789 0 47.0259 13.971 657 54.411 882.39 518.428
790 0 48.0313 11.7632 565 56.7363 881.832 515.897
791 0 49.2259 11.9856 590 57.3017 881.502 516.541
792 0 52.0411 11.8176 615 57.2244 882.426 515.395
793 0 50.1862 11.7562 590 58.1593 882.829 515.842
794 0 53.1128 12.0687 641 56.727 882.872 517.34
795 0 55.0215 12.7405 701 56.3752 882.561 516.95
796 0 57.0286 12.52 714 56.8235 882.945 515.637
797 0 57.0425 12.2716 700 57.9886 882.743 513.156
798 0 59.0468 9.87353 583 59.7547 882.281 511.952
799 0 62.0421 11.3149 702 58.1211 882.457 513.516
800 0 64.109 12.0264 771 57.6278 882.873 511.629
801 0 65.0493 12.7288 828 57.6268 883.338 510.699
802 0 67.1183 10.3102 692 59.8786 882.72 510.851
803 0 70.1129 11.8238 829 58.965 882.871 508.707
804 0 72.1251 12.6308 911 58.3897 882.987 507.51
805 1 34.0537 11.335 386 59.6762 881.961 525.731
806 0 36.0502 11.3175 408 60.0441 881.907 524.348
807 0 35.0132 12.1097 424 61.4575 881.967 521.573
808 0 39.0333 12.6302 493 59.6998 882.061 522.755
809 0 41.0399 10.5751 434 61.6221 881.935 522.205
810 0 43.0956 11.2308 484 60.2975 882.419 523.961
811 0 43.082 11.9075 513 60.7953 882.027 521.442
812 0 45.0283 15.6124 703 56.8094 882.182 519.583
813 0 46.0368 11.9035 548 60.5474 883.04 520.221
814 0 49.0336 11.5839 568 61.1268 882.864 518.616
815 0 48.2273 11.4665 553 62.2116 882.403 519.499
816 0 52.0526 11.911 620 61.6339 882.406 518.208
817 0 53.0299 12.8418 681 61.0352 882.671 517.278
818 0 53.0715 11.6824 620 63.0097 882.994 515.865
819 0 56.0539 13.7368 770 60.826 882.558 514.917
820 0 57.0696 12.8615 734 62.406 882.591 513.713
821 0 59.0272 12.3333 728 63.0027 882.672 511.644
822 0 59.0349 12.23 722 64.0693 882.22 511.968
823 0 65.0968 12.8578 837 62.6989 882.102 511.63
824 0 64.0697 13.6882 877 62.4983 882.359 511.601
825 0 65.0709 13.3239 867 63.6286 882.822 510.691
826 0 67.0572 13.3915 898 63.8953 882.675 509.833
827 0 71.1293 12.5124 890 64.7157 882.597 508.682
828 0 74.1805 12.6179 936 64.6848 882.608 509.327
829 0 74.0776 13.3374 988 65.3654 882.655 506.023
830 0 76.0588 15.3171 1165 63.497 883.25 504.859
831 0 81.0708 13.4327 1089 65.3636 881.792 504.637
832 0 83.0373 14.066 1168 64.7269 882.224 502.206
833 1 40.0466 11.5116 461 65.026 882.523 524.753
834 0 39.0268 12.453 486 65.8045 882.829 522.695
835 0 43.0887 14.1336 609 63.7865 881.964 521.79
836 0 45.0665 13.7574 620 64.4065 881.802 520.921
837 0 46.0342 12.4255 572 66.3164 882.656 520.376
838 0 47.005 13.9134 654 64.6193 882.228 520.026
839 0 48.0205 12.8279 616 66.6088 882.463 518.666
840 0 50.0861 12.5783 630 66.6619 882.457 517.949
841 0 52.0454 13.2 687 65.4178 882.355 518.525
842 0 53.0305 13.2377 702 65.7692 882.433 517.879
843 0 55.0254 13.6119 749 65.9599 882.606 517.146
844 0 55.048 13.5336 745 66.2389 882.384 517.595
845 0 59.1166 14.0062 828 65.0688 882.539 515.977
846 0 60.0787 13.4324 807 66.7274 882.201 514.227
847 0 59.1069 12.7058 751 68.6019 882.565 514.075
848 0 62.0538 14.6163 907 65.8115 882.527 513.46
849 0 66.1111 15.8521 1048 63.3855 882.222 513.698
850 0 65.0304 13.5168 879 67.3709 881.973 512.713
851 0 70.0232 13.2956 931 67.2492 882.626 511.02
852 0 68.045 14.4169 981 66.7574 882.827 510.263
853 0 71.208 12.9199 920 68.662 882.428 508.97
854 0 74.0688 14.0545 1041 67.2891 882.522 507.022
855 0 76.0935 13.7462 1046 67.9197 882.163 505.64
856 0 80.1191 14.0416 1125 66.9556 882.012 506.895
857 0 80.1345 12.4166 995 69.7266 881.877 504.13
858 0 84.044 14.5876 1226 67.2104 881.725 500.548
859 0 85.2376 14.618 1246 66.9984 882.134 502.189
860 0 87.0941 13.2271 1152 70.9123 882.444 498.933
861 0 90.0721 13.0451 1175 70.7149 881.933 500.779
862 0 94.1399 15.4345 1453 67.5595 882.55 497.827
863 1 48.087 13.1844 634 67.8833 881.989 520.42
864 0 53.0169 11.8264 627 69.0829 882.933 519.898
865 0 52.0509 11.2006 583 71.024 882.146 519.156
866 0 54.058 12.5421 678 68.9749 882.336 519.162
867 0 55.0305 11.6844 643 69.8616 882.215 517.998
868 0 57.0583 12.9867 741 68.6694 883.018 515.583
869 0 59.1663 13.1494 778 68.6388 881.788 514.163
870 0 60.0439 12.1078 727 70.0234 882.667 512.048
871 0 64.0731 12.5326 803 68.9826 882.168 512.136
872 0 66.0643 12.7149 840 67.5964 882.03 515.185
873 0 70.0441 13.4772 944 67.6886 882.22 510.126
874 0 69.0552 12.3669 854 70.0972 881.754 508.149
875 0 73.0433 12.4447 909 69.7888 882.043 509.053
876 0 75.0308 13.0746 981 70.2956 881.867 504.486
877 0 78.0501 14.2601 1113 67.6271 881.529 505.221
878 0 80.2261 12.2529 983 70.6043 881.154 504.757
879 0 84.0896 13.6402 1147 68.8535 881.218 503.297
880 0 84.1088 12.4244 1045 71.2957 881.589 501.901
881 0 90.1537 13.4992 1217 69.1298 881.663 499.982
882 0 91.0898 13.1409 1197 69.9499 882.17 498.937
883 0 94.0788 13.393 1260 69.9611 882.046 498.012
884 0 97.1282 12.7769 1241 71.0064 881.906 495.876
885 0 101.094 14.1946 1435 69.3672 882.949 492.353
886 0 105.167 15.0998 1588 67.33 881.844 493.71
887 0 107.096 14.5478 1558 68.7888 882.178 491.117
888 1 52.0188 12.5147 651 69.4286 882.146 518.217
889 0 55.0866 11.9085 656 69.6113 881.973 517.561
890 0 57.0352 12.1329 692 69.604 882.604 517.773
891 0 58.021 13.5985 789 67.872 882.681 514.297
892 0 59.0934 13.7748 814 67.8084 882.629 514.13
893 0 60.0614 15.2344 915 65.6208 882.643 514.25
894 0 64.0651 12.9868 832 67.9964 882.435 513.736
895 0 65.0639 12.7874 832 68.6454 882.355 508.558
896 0 69.0696 12.7697 882 67.8084 882.54 511.679
897 0 72.0779 12.764 920 68.2239 882.47 509.333
898 0 73.0675 14.0281 1025 67.4107 882.886 506.026
899 0 76.154 14.3788 1095 66.1516 882.646 508.503
900 0 78.0652 13.3094 1039 67.6352 883.04 507.014
901 0 80.1244 12.0438 965 69.6767 882.697 505.85
902 0 84.1257 13.6463 1148 67.8232 882.061 503.556
903 0 85.1337 12.2161 1040 69.6154 881.97 503.646
904 0 89.2057 12.8915 1150 69.08 882.408 501.195
905 0 92.1683 14.0721 1297 67.4032 882.138 499.832
906 0 93.143 11.9601 1114 70.9578 882.345 497.286
907 0 97.1235 13.3644 1298 68.4353 881.731 495.662
908 0 100.078 14.3389 1435 67.8801 883.001 495.956
909 1 54.1119 13.0101 704 68.4957 883.118 517.406
910 0 53.053 11.4225 606 71.0957 882.884 515.955
911 0 58.1353 13.3138 774 66.7933 883.656 519.972
912 0 58.0481 13.2821 771 69.1012 883.092 515.345
913 0 60.1625 12.7488 767 68.807 882.971 514.433
914 0 62.0586 11.6019 720 69.5958 882.656 517.283
915 0 65.0736 13.9227 906 67.6435 881.836 514.22
916 0 66.097 13.3743 884 68.1855 882.49 513.217
917 0 69.1326 12.9606 896 68.3538 882.482 511.952
918 0 70.222 12.2469 860 69.5965 881.955 511.014
919 0 74.1659 13.4293 996 68.4649 882.339 509.199
920 0 77.1115 13.1628 1015 68.0236 882.032 510.377
921 0 79.0816 12.8348 1015 68.8877 882.336 507.633
922 0 81.1224 13.6091 1104 67.7636 882.067 504.582
923 0 85.0555 11.6747 993 70.0493 881.62 506.125
924 0 89.1434 13.1137 1169 67.4799 882.096 505.716
925 0 90.193 11.808 1065 69.2967 881.869 503.967
926 0 92.2479 12.423 1146 69.0489 881.903 501.47
927 0 95.2149 13.2962 1266 68.1035 881.535 497.555
928 0 98.1592 11.6545 1144 69.833 881.729 499.283
929 1 53.0414 11.0103 584 68.6147 882.108 521.134
930 0 56.1859 11.6577 655 68.9817 882.27 517.255
931 0 57.0496 14.3384 818 65.6577 882.303 515.892
932 0 59.0443 12.516 739 67.3654 881.817 517.21
933 0 62.0754 12.4687 774 67.7584 882.178 513.745
934 0 64.0906 12.5603 805 67.3491 882.846 511.855
935 0 65.0413 12.0385 783 68.2784 882.649 510.314
936 0 69.0768 14.274 986 64.6146 882.623 509.034
937 0 66.1431 11.4298 756 69.3122 882.75 508.411
938 0 72.122 13.3801 965 65.7534 882.634 505.083
939 0 75.1024 13.4749 1012 65.6107 882.057 507.199
940 0 78.1398 13.4886 1054 65.6746 881.414 505.698
941 0 79.2229 13.3169 1055 65.6275 882.167 506.43
942 0 82.1061 14.2377 1169 64.929 883.066 503.695
943 0 84.0954 14.4122 1212 64.3952 882.482 503.523
944 0 87.1764 14.5223 1266 64.8302 881.881 500.486
945 0 89.0493 12.3415 1099 67.3995 883.431 498.837
946 0 92.1857 13.0172 1200 66.4392 883.164 495.768
947 0 96.1701 13.0394 1254 66.1978 882.82 497.266
948 0 100.117 14.1035 1412 64.7415 882.577 495.36
949 0 100.086 13.6583 1367 66.0658 883.094 492.365
950 0 103.135 13.3418 1376 66.2078 883.34 491.722
951 0 107.167 14.5567 1560 64.9256 882.862 487.128
952 0 108.21 12.1985 1320 67.4765 882.982 485.981
953 0 115.123 14.2283 1638 64.7131 883.076 485.705
954 0 117.131 13.4806 1579 65.6808 882.79 482.628
955 0 121.299 12.4568 1511 67.2204 881.6 483.909
956 0 124.117 13.4067 1664 66.3041 882.56 476.877
957 0 127.234 13.5734 1727 65.8709 882.844 479.713
958 1 58.0735 10.6417 618 68.1197 882.563 510.034
959 0 60.0488 11.9236 716 66.3994 882.661 511.464
960 0 60.2111 13.0873 788 66.1155 882.566 506.94
961 0 63.1245 12.5466 792 66.5909 882.62 508.263
962 0 66.0855 13.9667 923 64.0845 882.778 508.771
963 0 66.2198 12.1867 807 66.8761 882.471 508.081
964 0 71.1858 13.2049 940 65.0723 882.306 506.278
965 0 72.09 13.9132 1003 64.5763 882.305 503.186
966 0 74.0929 12.8757 954 65.6457 882.783 503.642
967 0 77.0511 11.9271 919 66.8422 882.459 501.914
968 0 78.0525 15.3615 1199 62.9108 882.889 499.602
969 0 81.2012 14.1993 1153 64.1032 882.915 501.279
970 0 87.141 15.4348 1345 61.5175 882.98 501.575
971 0 90.28 13.8569 1251 63.199 883.362 499.691
972 0 92.234 14.2681 1316 63.2986 883.457 493.942
973 0 95.1257 13.7187 1305 63.8421 883.652 496.492
974 0 99.1676 12.9679 1286 64.0226 883.295 495.638
975 0 100.207 12.4941 1252 65.4217 883.031 491.653
976 0 104.123 12.3604 1287 64.7234 883.307 492.991
977 0 108.133 15.9895 1729 60.7953 882.953 488.961
978 1 52.25 12.4019 648 63.4429 883.154 514.032
979 0 55.1468 13.3825 738 61.9566 882.408 513.65
980 0 58.0798 11.8286 687 63.5415 882.185 513.262
981 0 59.1651 12.9806 768 62.4909 883.001 512.977
982 0 61.0585 12.398 757 62.8243 883.106 512.333
983 0 62.0885 11.7896 732 63.0724 883.029 512.566
984 0 64.2663 11.7013 752 63.5957 883.419 511.213
985 0 67.1062 14.6633 984 60.3882 883.414 507.869
986 0 69.3242 13.271 920 61.8391 883.083 508.75
987 0 71.0823 11.9298 848 63.2158 882.989 509.105
988 0 72.0899 13.289 958 61.6952 883.332 506.261
989 0 76.1559 12.3168 938 62.5426 883.027 503.281
990 0 78.1649 12.6911 992 62.3538 883.091 503.978
991 0 82.1758 12.96 1065 61.77 883.44 499.409
992 0 81.1519 10.7699 874 64.7048 883.76 502.193
993 0 86.2672 12.4613 1075 62.9963 882.967 498.599
994 0 89.1907 10.6177 947 64.5121 882.968 498.361
995 0 91.1788 11.5926 1057 64.105 883.583 493.184
996 1 43.1304 11.4537 494 62.6842 883.751 518.417
997 0 44.0672 9.93936 438 64.2763 883.164 519.16
998 0 47.2079 12.625 596 62.0403 882.76 516.819
999 0 49.0462 12.2538 601 62.0067 883.23 519.087
1000 0 50.0305 14.0914 705 60.1574 882.583 516.382
1001 0 54.084 13.0907 708 60.4746 883.394 517.616
1002 0 54.0751 12.723 688 61.1948 883.535 515.926
1003 0 52.0505 12.1421 632 63.0538 882.978 514.998
1004 0 58.074 13.4311 780 60.4744 883.247 514.788
1005 0 59.2246 10.1816 603 64.4511 882.861 515.665
1006 0 62.0741 11.7118 727 63.044 882.732 510.871
1007 0 63.0627 11.4806 724 64.3577 882.844 512.362
1008 0 64.0637 12.2066 782 64.1522 882.279 509.535
1009 0 70.1278 14.4593 1014 60.4951 882.886 511.588
1010 0 71.1207 13.6669 972 62.4712 882.662 509.889
1011 0 73.1578 14.0245 1026 62.4386 883.119 508.345
1012 0 75.1165 12.7402 957 64.047 882.694 509.265
1013 0 80.0453 13.4424 1076 62.9117 882.296 506.599
1014 0 81.1021 13.7604 1116 63.6165 881.92 504.461
1015 0 84.0844 14.9136 1254 61.8373 881.827 504.138
1016 0 85.1594 12.1889 1038 65.527 882.44 504.981
1017 0 88.1222 12.2897 1083 65.7969 881.915 503.135
1018 0 90.0786 12.3337 1111 66.09 882.491 500.36
1019 0 94.1409 13.1399 1237 65.0978 882.376 498.093
1020 1 47.0345 13.118 617 63.4587 882.126 524.809
1021 0 46.0363 12.4467 573 65.5689 881.258 522.035
1022 0 46.0435 12.2276 563 67.2096 881.506 521.32
1023 0 48.0863 11.7705 566 66.9329 882.032 522.721
1024 0 51.0999 14.1487 723 64.603 881.773 520.675
1025 0 54.0822 13.498 730 64.8849 881.947 517.968
1026 0 54.0634 12.2449 662 67.2281 881.358 518.299
1027 0 58.0953 12.9615 753 65.5843 881.15 519.29
1028 0 59.0453 13.0408 770 65.7805 881.726 518.555
1029 0 59.0448 13.9386 823 65.7546 881.536 516.259
1030 0 62.1393 13.3571 830 65.8723 881.736 515.276
1031 0 62.032 12.1873 756 68.2024 881.283 516.992
1032 0 66.0728 15.2256 1006 64.494 881.489 512.664
1033 0 68.0578 13.1065 892 66.9058 881.707 514.768
1034 0 71.1132 14.4699 1029 65.2527 881.781 512.64
1035 0 73.2386 13.0396 955 67.2628 881.776 511.472
1036 0 75.1123 13.6729 1027 66.6631 881.369 510.835
1037 0 77.2653 12.9812 1003 67.4676 881.421 509.667
1038 0 79.0608 14.3434 1134 66.2901 880.652 507.559
1039 0 82.1911 15.4275 1268 65.0379 880.924 505.808
1040 0 84.0679 14.1195 1187 66.6083 881.357 504.983
1041 0 88.1037 14.1197 1244 66.5193 881.387 501.69
1042 1 44.152 14.4274 637 65.2716 881.295 525.728
1043 0 46.0179 13.4078 617 66.7504 881.496 524.115
1044 0 44.0938 12.2466 540 69.5556 881.161 522.811
1045 0 50.0686 13.841 693 65.9192 880.531 523.667
1046 0 53.0153 13.9016 737 65.095 880.21 522.708
1047 0 53.0337 13.6706 725 65.9117 880.652 521.262
1048 0 58.2049 12.4732 726 66.1336 880.894 521.222
1049 0 58.1048 14.2329 827 64.4039 880.857 521.139
1050 0 59.1272 14.0206 829 65.766 880.987 516.878
1051 0 59.0507 12.0574 712 68.3455 880.921 516.462
1052 0 64.114 14.2715 915 64.4481 880.592 518.093
1053 0 67.0909 13.8469 929 65.8385 879.957 514.295
1054 0 69.2911 14.5185 1006 64.5934 880.96 515.227
1055 0 71.0953 14.4032 1024 65.6855 880.901 511.508
1056 0 72.086 13.3174 960 66.5771 880.977 513.044
1057 0 77.0845 14.2052 1095 65.5689 880.743 510.484
1058 0 78.1697 13.7777 1077 66.1003 880.599 511.661
1059 0 79.0869 13.365 1057 66.2592 880.469 511.442
1060 0 79.1265 12.6254 999 68.4494 880.789 508.478
1061 1 40.0345 11.9647 479 68.8351 880.925 526.376
1062 0 42.012 12.4726 524 67.5344 880.691 528.292
1063 0 44.0722 13.0014 573 66.6353 881.23 527.723
1064 0 42.0495 12.0097 505 69.6733 881.127 526.861
1065 0 44.0392 12.8522 566 68.7226 881.074 525.793
1066 0 41.033 10.5525 433 72.6305 880.986 525.423
1067 0 45.0236 14.4813 652 67.5383 880.716 523.371
1068 0 45.0773 13.732 619 68.5961 880.317 523.911
1069 0 46.0878 12.3894 571 70.1278 880.177 524.093
1070 0 47.0174 12.7187 598 69.2592 881.704 524.269
1071 0 48.1794 12.0591 581 70.2186 881.711 523.818
1072 0 48.0792 12.9162 621 69.1401 881.32 524.108
1073 0 50.1094 13.9694 700 67.1157 880.99 524.311
1074 0 48.0218 13.9104 668 67.9446 881.482 524.121
1075 0 50.0649 13.6223 682 67.9707 881.264 523.449
1076 0 49.1021 12.0972 594 70.4495 881.678 521.987
1077 0 51.0481 13.7321 701 67.1341 881.568 522.622
1078 0 50.0485 11.5688 579 70.9033 881.358 523.249
1079 0 50.1593 14.2745 716 67.602 881.763 521.384
1080 0 51.0606 13.7484 702 68.7222 881.611 520.194
1081 0 51.0457 13.1059 669 69.8072 881.64 519.598
1082 0 51.0501 12.5759 642 70.4143 881.788 519.447
1083 0 51.084 12.6458 646 70.4195 881.813 520.319
1084 0 53.0518 13.8544 735 68.0898 881.343 520.754
1085 0 54.121 14.0241 759 67.4045 881.184 522.648
1086 0 54.1053 13.2519 717 68.1311 880.957 521.902
1087 0 54.0517 13.2466 716 68.7165 881.897 521.425
1088 0 52.0181 12.7263 662 70.8671 881.807 518.184
1089 0 55.0819 13.1441 724 69.6878 881.134 518.901
1090 0 54.0766 11.4282 618 72.4159 881.898 519.273
1091 0 54.0881 13.2562 717 70.3487 882.008 516.893
1092 0 56.0479 13.8453 776 68.1289 882.023 519.515
1093 0 55.0551 13.3684 736 69.6753 881.38 518.179
1094 0 56.0317 14.3133 802 67.7781 881.47 518.465
1095 0 57.1611 13.2433 757 68.2972 882.666 519.848
1096 0 58.0595 13.1761 765 68.7922 881.889 518.422
1097 0 57.036 13.2022 753 69.672 881.052 516.827
1098 0 57.0467 13.5678 774 68.2377 881.408 517.067
1099 0 58.0959 14.0802 818 67.1479 881.368 516.488
1100 0 58.0281 14.3724 834 67.6199 881.754 515.54
1101 0 56.0558 12.1843 683 71.4158 881.914 515.578
1102 0 56.0459 12.686 711 70.2208 881.485 517.361
1103 0 60.1142 13.1583 791 68.8255 882.101 516.566
1104 0 58.06 12.7799 742 69.5229 881.235 516.477
1105 0 58.1974 13.4542 783 69.4036 881.713 515.027
1106 0 59.0367 14.1607 836 68.6268 882.201 514.514
1107 0 61.0523 14.2828 872 66.9381 881.977 516.82
1108 0 59.1456 13.4076 793 69.4376 881.909 514.76
1109 0 57.054 12.9176 737 70.6486 881.94 514.001
1110 0 60.0389 12.825 770 69.4494 882.33 516.096
1111 0 60.0399 12.9247 776 70.0567 882.429 514.357
1112 0 58.0631 12.2453 711 71.5204 882.948 514.076
1113 0 60.0943 14.7934 889 67.8481 882.701 513.009
1114 0 62.2432 13.3027 828 68.6196 882.181 514.262
1115 0 61.073 12.9845 793 69.9622 882.842 512.672
1116 0 60.0412 13.8072 829 68.4427 883.218 513.871
1117 0 62.0404 13.5718 842 69.4311 883.109 513.07
1118 0 61.0794 12.3937 757 70.214 882.067 514.791
1119 0 63.066 11.9716 755 70.4967 881.906 514.008
1120 0 60.0265 13.6273 818 69.0416 881.93 511.976
1121 0 63.0412 13.8798 875 68.072 882.279 511.769
1122 0 62.03 14.364 891 67.7969 882.865 512.369
1123 0 62.0714 13.1623 817 69.8715 882.57 511.71
1124 0 63.0625 13.9861 882 67.3719 882.482 514.244
1125 0 62.0682 13.7752 855 69.0164 882.655 510.954
1126 0 62.031 14.0414 871 68.8048 883.279 510.294
1127 0 64.1157 13.0545 837 69.4671 882.585 512.332
1128 0 64.0814 13.3424 855 69.931 882.453 512.854
1129 0 63.109 14.467 913 67.9047 882.712 510.102
1130 0 62.2518 13.6542 850 69.3941 882.001 511.318
1131 0 63.0783 13.5387 854 69.103 881.869 511.689
1132 0 63.0696 13.1759 831 69.7088 881.919 509.158
1133 0 64.1033 14.3518 920 66.9793 881.874 509.991
1134 0 65.0279 15.947 1037 64.9778 882.327 511.965
1135 0 63.0797 12.8409 810 69.8173 882.549 511.038
1136 0 65.105 14.0389 914 68.2495 881.757 510.089
1137 0 65.0754 14.3218 932 67.6609 881.955 510.8
1138 0 65.0843 13.4595 876 70.597 881.669 512.17
1139 0 66.1033 13.8874 918 70.0196 882.613 510.961
1140 0 62.0241 14.3493 890 71.4517 882.563 512.397
1141 0 63.0766 20.1818 1273 62.1634 882.995 511.321
1142 0 62.0897 16.1863 1005 68.4368 882.615 513.106
1143 0 60.1115 17.8668 1074 66.3752 882.263 511.379
1144 0 58.1508 15.2878 889 68.4623 882.452 513.453
1145 0 58.2798 14.6363 853 69.932 881.68 512.177
1146 0 56.0498 14.4871 812 69.1478 881.773 514.851
1147 0 56.1162 15.7887 886 66.4041 882.106 514.79
1148 0 58.0874 15.1151 878 65.8235 882.522 512.475
1149 0 57.0828 14.9082 851 66.4935 882.627 513.168
1150 0 59.1604 19.6077 1160 58.6534 882.682 508.522
1151 0 59.0412 19.3763 1144 58.9213 882.462 513.226
1152 0 60.102 17.2706 1038 60.7351 882.167 513.447
1153 0 58.2159 17.4351 1015 60.8798 882.767 512.896
1154 0 59.0777 15.742 930 62.7978 883.442 513.524
1155 0 58.1168 15.2796 888 63.6351 882.408 512.468
1156 0 58.2336 15.953 929 63.056 882.198 514.867
1157 0 59.0676 17.1498 1013 60.997 882.336 515.747
1158 0 60.1797 16.9659 1021 60.4368 882.002 514.892
1159 0 59.0722 18.5197 1094 59.1316 882.487 513.767
1160 0 59.261 15.4908 918 63.4542 882.424 513.359
1161 0 58.0948 15.2509 886 63.8488 882.481 514.854
1162 0 58.1165 17.052 991 61.1393 882.654 515.328
1163 0 57.096 14.2392 813 65.1648 882.633 517.689
1164 0 57.0929 16.2893 930 62.7462 882.594 514.596
1165 0 58.0884 14.1508 822 65.0474 882.304 518.277
1166 0 58.0831 16.3559 950 62.1832 882.461 514.344
1167 0 58.2161 17.1602 999 60.7988 882.752 516.384
1168 0 59.0908 16.9231 1000 60.763 882.835 514.536
1169 0 57.2098 14.2283 814 65.3194 882.603 515.611
1170 0 60.0882 17.5242 1053 59.3951 882.181 514.507
1171 0 57.0432 14.901 850 64.2235 882.358 515.067
1172 0 58.0457 15.1432 879 63.3117 882.365 514.319
1173 0 60.1046 16.5545 995 60.4724 882.455 513.713
1174 0 56.0809 15.5311 871 63.6154 882.473 514.536
1175 0 58.3204 15.312 893 62.6741 882.59 513.664
1176 0 57.0527 13.7066 782 65.0997 882.37 512.382
1177 0 59.1325 16.6237 983 60.8372 883.462 513.661
1178 0 55.0534 15.0944 831 64.6703 882.566 515.285
1179 0 59.057 18.9986 1122 57.762 882.73 512.552
1180 0 59.2453 15.5287 920 61.8391 881.92 515.101
