time division length width area intensity CMx CMy
0 0 45.1121 12.4357 561 77.2353 58.3351 514.795
1 0 47.1691 12.7626 602 75.7973 57.7791 515.654
2 0 48.1185 13.0095 626 75.107 57.639 516.158
3 0 50.0621 14.4421 723 71.8064 57.2628 515.483
4 0 48.055 13.2973 639 74.8435 57.2034 516.768
5 0 49.0476 13.8641 680 74.6456 56.9544 513.907
6 0 51.1259 14.2785 730 73.0575 56.8055 513.852
7 0 52.1464 13.9799 729 73.8354 56.856 514.739
8 0 52.081 13.4214 699 74.8426 55.9471 514.908
9 0 54.1114 14.3223 775 73.5135 56.3252 513.999
10 0 55.0334 12.7014 699 75.917 56.4721 512.861
11 0 57.0193 13.0307 743 75.6097 56.9596 512.801
12 0 59.1023 14.2465 842 73.1841 56.3124 513.14
13 0 59.0773 13.8801 820 74.2878 56.0646 511.951
14 0 62.0801 13.3215 827 74.8331 56.2902 512.207
15 0 61.0925 13.2095 807 76.1722 56.3494 511.015
16 0 64.118 12.5394 804 76.7102 56.7189 511.301
17 0 65.1574 14.135 921 74.6743 56.4441 509.059
18 0 67.0608 12.9584 869 76.6962 56.0713 509.038
19 1 36.0087 12.2193 440 75.5023 55.7386 524.552
20 0 34.0718 12.415 423 76.5296 55.5697 525.404
21 0 35.0184 10.1375 355 78.1521 55.9042 526.056
22 0 38.0308 12.4373 473 75.6765 55.2918 524.163
23 0 38.0638 12.8731 490 76.7041 54.9939 522.988
24 0 39.0345 11.682 456 78.9474 55.8114 521.987
25 0 40.0384 13.537 542 75.4151 55.1365 522.786
26 0 39.0277 12.094 472 78.5636 55.1419 522.86
27 0 40.0198 12.4688 499 78.6653 56.0762 523.355
28 0 41.0983 11.363 467 80.5803 55.3255 522.799
29 0 44.0462 12.9636 571 78.0613 56.3082 521.154
30 0 45.0394 12.5002 563 78.8615 55.8615 521.744
31 0 46.0392 11.1861 515 81.8524 56.0039 521.355
32 0 48.0701 13.0643 628 78.9682 56.3917 519.518
33 0 49.0453 13.7628 675 78.7733 56.44 518.486
34 0 53.0966 13.2965 706 78.1856 56.2677 518.211
35 0 51.0165 12.3882 632 82.288 56.4747 516.351
36 0 55.1323 13.8213 762 79.1824 57.122 516.978
37 0 55.0536 12.0428 663 82.9412 56.3454 515.338
38 0 57.0394 12.5001 713 82.3114 57.1318 516.199
39 0 60.0457 14.1226 848 79.0283 57.8255 516.412
40 0 63.067 14.0961 889 79.5771 57.2362 513.792
41 0 63.073 12.9057 814 82.355 57.4509 513.758
42 0 66.052 13.8981 918 81.3878 57.5349 511.014
43 0 66.1227 13.1876 872 82.8601 57.5722 511.922
44 0 69.1088 12.5599 868 84.5876 57.5818 510.828
45 0 71.0474 13.315 946 83.6321 57.3858 508.049
46 0 74.0498 13.1128 971 83.3213 58.137 509.523
47 0 76.0428 12.2168 929 85.0344 58.6071 508.161
48 0 77.0328 11.9559 921 86.5809 57.9566 507.76
49 0 81.0928 14.1566 1148 83.1028 58.4808 503.466
50 1 43.0897 12.9265 557 82.228 58.4578 523.185
51 0 45.0276 13.5473 610 79.9131 58.2738 523.998
52 0 45.0213 11.2391 506 85.7036 58.4051 521.644
53 0 46.1574 12.739 588 83.6361 58.1939 520.913
54 0 46.0658 12.2433 564 85.2411 58.3723 518.748
55 0 47.0355 11.3957 536 86.1772 58.2873 518.765
56 0 50.0105 12.0175 601 84.2512 58.4859 517.483
57 0 53.0542 11.9689 635 83.463 59.389 516.868
58 0 53.1205 11.9351 634 84.623 58.3139 516.115
59 0 55.0826 12.0183 662 84.0423 58.6949 513.885
60 0 55.0267 12.1941 671 84.2444 58.3964 511.636
61 0 58.0574 9.97289 579 86.9136 57.7029 513.098
62 0 58.0522 9.95655 578 87.3547 57.4256 512.157
63 0 62.1512 11.4881 714 83.9216 58.1611 511.2
64 0 63.0881 11.0322 696 85.5201 57.8534 509.731
65 0 62.0658 10.9239 678 86.2935 58.0339 507.832
66 0 66.1008 10.7563 711 85.6878 58.121 509.111
67 0 69.0688 11.1483 770 85.7571 57.6987 505.935
68 0 71.0847 11.7466 835 85.1976 57.8647 503.824
69 0 71.1217 10.3485 736 87.1128 58.0489 502.167
70 0 79.1793 13.16 1042 80.9405 57.4962 505.934
71 0 81.048 12.6468 1025 82.4507 56.5229 502.369
72 0 84.1175 13.386 1126 80.8686 56.9654 501.619
73 0 87.1017 12.4682 1086 82.0525 57.0875 499.932
74 0 90.1192 14.4364 1301 78.3436 58.163 497.689
75 0 92.2196 12.904 1190 81.2462 57.7689 497.943
76 0 93.105 11.9865 1116 83.2527 57.8118 496.714
77 0 96.0648 13.2098 1269 80.2837 58.0922 498.551
78 1 52.0552 11.1228 579 81.9465 57.4715 516.107
79 0 55.0713 13.3282 734 77.921 57.3733 514.981
80 0 56.1237 12.9713 728 79.3049 58.2486 514.195
81 0 58.0536 12.7813 742 78.7709 58.3598 514.173
82 0 61.0625 13.4289 820 77.5598 58.3256 513.033
83 0 60.0387 11.8257 710 81.5479 58.6986 511.561
84 0 65.0758 13.2615 863 78.5504 58.7567 510.224
85 0 63.098 11.5851 731 81.4651 58.1081 510.037
86 0 69.0468 12.6146 871 79.062 59.0448 508.204
87 0 72.0696 12.3075 887 78.8963 58.9572 508.214
88 0 73.0324 13.1312 959 77.829 58.8196 506.263
89 0 74.0733 12.4741 924 79.8561 58.3084 504.252
90 0 77.1038 12.5545 968 79.3647 58.6343 505.148
91 0 80.0965 12.3851 992 80.2349 58.8609 502.975
92 0 83.0669 12.5923 1046 79.9512 59.2677 501.956
93 1 41.0615 11.2271 461 80.3341 59.0694 521.364
94 0 42.0142 11.1629 469 81.0043 59.4691 520.164
95 0 44.039 11.4898 506 79.5435 58.3794 520.437
96 0 47.0236 10.6117 499 80.487 57.9439 519.373
97 0 46.0894 12.671 584 77.9503 58.2637 518.046
98 0 47.022 11.5478 543 80.6262 57.9834 518.278
99 0 49.0661 11.5151 565 80.0602 58.2106 516.12
100 0 50.0596 12.9046 646 78.0557 57.9536 515.255
101 0 52.0841 11.9998 625 79.3616 57.7808 514.928
102 0 53.1352 12.0824 642 79.1667 58.7009 512.617
103 0 56.0811 12.9099 724 76.6809 58.6699 512.768
104 0 56.0321 13.5637 760 76.7526 58.3105 509.686
105 0 60.1094 13.3091 800 75.24 58.17 509.766
106 0 61.1346 13.2822 812 75.5628 58.4741 509.445
107 0 62.1223 11.8959 739 77.5589 57.9973 510.424
108 0 63.0913 12.2362 772 77.9184 58.4547 507.918
109 0 67.0775 14.8336 995 73.0804 57.7266 507.552
110 0 67.0585 12.8545 862 77.2459 56.5394 505.289
111 0 70.1421 12.7883 897 77.3367 57.7324 504.667
112 0 73.1523 13.9982 1024 75.5439 57.7725 501.385
113 1 35.0441 9.58792 336 79.8006 57.6905 521.366
114 0 40.0239 10.2689 411 77.8467 57.9781 519.092
115 0 40.0771 11.3032 453 77.1302 57.8278 519.179
116 0 40.0261 10.4182 417 78.4892 58.0624 519.499
117 0 41.073 11.0048 452 76.9978 57.9071 519.305
118 0 39.0066 11.0238 430 79.4419 58.1628 516.616
119 0 44.0276 12.2423 539 76.3692 58.8942 517.156
120 0 43.0418 11.1752 481 78.499 58.5114 516.988
121 0 45.0449 12.8538 579 75.4663 58.2919 517.028
122 0 46.0892 12.2371 564 76.8777 58.5319 515.211
123 0 48.018 10.4544 502 78.1972 58.8068 516.448
124 0 50.0473 12.3084 616 75.9156 58.5373 513.891
125 0 51.1154 12.3446 631 75.813 57.7163 513.393
126 0 53.1027 12.8054 680 75.5397 57.8809 512.446
127 0 55.0872 13.3788 737 72.673 58.4627 513.76
128 0 53.0277 12.352 655 76.6565 59.1634 511.165
129 0 57.0157 12.4352 709 75.5585 58.433 510.306
130 0 58.0669 11.9001 691 77.7902 58.1143 508.997
131 0 61.1236 12.2702 750 75.8547 58.2947 509.253
132 0 62.0481 12.6354 784 76.5982 57.9579 507.596
133 0 65.1208 13.6362 888 74.7939 58.4786 506.854
134 0 66.0651 12.3817 818 78.0049 57.6455 504.973
135 0 69.0964 12.8806 890 76.8888 58.6236 505.545
136 0 70.0946 12.3833 868 77.7166 58.9954 504.475
137 0 74.1152 13.587 1007 75.9235 58.2929 503.267
138 0 75.1324 12.3515 928 78.7802 58.3955 502.119
139 0 78.0889 14.0609 1098 75.6758 58.0965 503.147
140 0 79.0848 13.3401 1055 77.672 58.1905 501.007
141 1 41.0908 10.2699 422 81.2488 58.6706 518.071
142 0 43.0604 12.0064 517 77.942 58.3327 517.762
143 0 45.0318 11.4142 514 79.8288 58.5545 516.041
144 0 48.0684 12.399 596 76.943 58.6326 516.029
145 0 48.0563 12.7351 612 77.7892 58.2304 515.255
146 0 49.0955 13.8709 681 75.583 58.047 515.433
147 0 51.0892 12.2726 627 79.6029 57.9872 513.801
148 0 51.0882 12.4099 634 79.7902 57.6767 512.533
149 0 53.0214 13.0136 690 78.8246 58.0681 511.462
150 0 53.0902 13.2793 705 79.3617 57.5092 509.843
151 0 56.0645 13.2526 743 78.2127 58.9004 511.291
152 0 59.0475 12.5831 743 79.2261 58.5114 510.089
153 0 59.0427 13.1769 778 79.2648 58.5746 508.695
154 0 61.0811 13.8013 843 77.7461 58.7865 507.963
155 0 63.0409 13.3406 841 78.5351 60.2033 508.792
156 0 64.0444 12.991 832 79.6442 59.6034 506.422
157 0 68.0856 14.3643 978 75.9652 58.8078 506.625
158 0 68.0408 13.198 898 78.8786 59.1804 505.679
159 0 72.0597 13.8496 998 77.5762 58.3597 503.882
160 0 74.0801 14.6463 1085 76.2654 58.6129 504.332
161 0 74.2014 13.0051 965 80.1492 58.8477 501.34
162 0 77.0888 13.3872 1032 79.0785 58.968 501.424
163 0 78.1282 12.6075 985 80.3766 59.2223 499.883
164 0 81.1035 13.4396 1090 78.8505 58.656 498.272
165 1 42.0063 10.3794 436 82.2018 57.9885 517.147
166 0 46.0258 12.0802 556 77.455 59.3669 517.915
167 0 44.0378 11.3993 502 81.2649 58.7072 516.998
168 0 47.0813 13.2962 626 76.3626 58.6262 516.042
169 0 48.0856 12.9561 623 76.8074 58.992 514.795
170 0 47.0492 12.6676 596 77.6477 58.7466 514.617
171 0 49.0907 12.5278 615 78.3805 58.4911 513.345
172 0 51.0445 11.8132 603 78.8358 59.4494 513.892
173 0 51.0701 12.6689 647 78.2952 58.8099 511.232
174 0 53.012 13.2423 702 76.4786 58.8262 510.501
175 0 56.0464 13.578 761 75.6452 58.5217 511.201
176 0 56.0563 12.095 678 78.5103 58.3923 510.066
177 0 58.0305 13.7169 796 76.0063 58.691 508.582
178 0 60.0243 12.9448 777 76.9447 58.4311 508.107
179 0 63.059 13.194 832 75.6659 58.5601 508.299
180 0 64.0841 12.7645 818 75.8851 58.6895 510.227
181 0 65.0931 12.7356 829 76.5392 58.1689 508.743
182 0 70.0511 13.6472 956 75.0199 58.3096 506.678
183 0 71.0842 14.1241 1004 75.012 57.9641 505.315
184 0 70.0231 11.9389 836 78.9246 57.0861 505.487
185 0 74.07 14.5538 1078 75.192 56.8673 501.229
186 0 78.0557 12.9779 1013 77.8381 57.4462 500.181
187 0 78.109 12.4057 969 79.1146 57.0444 500.405
188 0 81.0622 12.5459 1017 79.292 56.7679 499.657
189 0 83.0924 13.8641 1152 77.5625 56.1797 495.894
190 1 47.2349 12.9777 613 75.6639 55.6623 516.591
191 0 46.0411 11.5332 531 78.3145 55.3842 518.524
192 0 46.2287 11.1403 515 80.6097 56.068 517.509
193 0 46.0678 9.96358 459 82.1961 56.0479 518.675
194 0 50.0755 12.0218 602 78.8754 56.1179 516.442
195 0 52.0342 13.3566 695 76.3914 55.9266 515.806
196 0 52.202 12.0877 631 78.8827 55.4374 515.848
197 0 56.0222 13.3697 749 76.0027 55.0774 516.403
198 0 55.0317 11.9204 656 79.4253 54.4909 515.787
199 0 58.0448 11.3188 657 79.7336 55.6667 514.464
200 0 60.0608 12.7204 764 76.7801 55.623 513.789
201 0 63.0968 13.8359 873 74.4926 54.8832 513.422
202 0 62.0864 11.2263 697 78.9627 54.4419 515.204
203 0 66.0615 12.8819 851 75.3325 54.5805 514.767
204 0 65.0999 11.5668 753 79.2497 54.49 512.189
205 0 67.0413 11.6943 784 79.3189 54.8112 511.73
206 0 70.1011 12.1681 853 77.8523 55.4091 511.315
207 0 73.0362 14.2532 1041 74.8088 55.0365 510.153
208 0 75.0475 12.6187 947 78.037 55.0275 509.377
209 0 79.1119 14.2836 1130 74.6566 55.0566 509.706
210 0 79.1153 13.1327 1039 77.2685 54.6747 507.533
211 0 81.1041 12.971 1052 77.2529 54.6055 506.894
212 0 83.0373 13.1628 1093 78.0403 53.4785 502.152
213 0 87.0886 13.1131 1142 77.8914 52.9194 502.602
214 0 89.0601 13.0025 1158 78.0199 53.6667 503.467
215 1 43.0128 10.5085 452 79.3761 53.1305 522.973
216 0 46.0294 12.5355 577 75.4471 53.1057 521.958
217 0 48.0887 11.4164 549 77.0237 52.1767 522.038
218 0 51.0852 11.9408 610 74.9246 53.1426 523.149
219 0 49.08 11.7156 575 76.0487 52.9374 522.052
220 0 52.0674 11.7924 614 76.3811 53.0065 520.474
221 0 55.1203 13.2982 733 72.4584 52.9905 520.557
222 0 54.0719 12.8902 697 74.8551 52.802 519.168
223 0 56.0222 11.6383 652 76.589 52.5337 517.926
224 0 62.0367 11.606 720 56.9361 52.0556 520.906
225 0 59.0616 12.6478 747 76.2677 53.0174 515.253
226 0 61.1061 12.9283 790 75.9582 52.6215 515.137
227 0 62.0864 12.4665 774 77.2003 52.7506 513.304
228 0 63.1502 11.9556 755 77.498 52.4967 514.199
229 0 65.0441 12.7606 830 78.1542 52.9494 510.573
230 0 68.1017 12.5254 853 78.4326 53.2896 508.721
231 0 69.0815 12.0727 834 78.8765 53.5312 510.465
232 0 73.0427 14.0603 1027 76.4489 53.3944 508.866
233 0 73.0673 12.5638 918 79.9466 52.6514 507.293
234 0 75.0408 12.22 917 80.8637 52.3217 507.747
235 1 39.0576 12.4432 486 77.5041 52.9609 522.403
236 0 41.0472 11.7426 482 79.11 52.6494 520.801
237 0 40.036 12.4388 498 78.8715 53.243 521.112
238 0 44.0899 11.9075 525 78.0229 53.2 522.21
239 0 42.0356 10.9193 459 81.5643 53.5185 522.129
240 0 45.0585 11.252 507 80.5897 53.7357 520.785
241 0 46.0278 12.2535 564 78.8883 53.1809 519.073
242 0 46.0073 10.5418 485 80.5897 54.1526 520.584
243 0 49.0417 12.1325 595 78.7966 53.6286 517.097
244 0 51.0591 11.9078 608 78.3076 53.9655 517.503
245 0 50.0429 11.3902 570 81.5667 53.3 516.605
246 0 52.0261 12.0516 627 79.925 53.7719 516.029
247 0 54.0336 12.0666 652 79.2071 53.7975 516.103
248 0 54.0588 11.0435 597 81.3417 54.2127 516.941
249 0 57.0309 12.7124 725 79.7931 54.1103 514.174
250 0 57.0873 11.7014 668 82.268 54.2111 513.467
251 0 61.1473 11.2515 688 81.4157 55 515.089
252 0 61.0499 12.5307 765 80.7516 54.1373 513.463
253 0 63.1314 12.2601 774 81.478 54.7416 512.68
254 0 64.0508 12.0842 774 81.5013 55.2997 513.446
255 0 68.0256 12.7599 868 80.6763 54.8111 511.687
256 0 69.073 12.7401 880 79.4989 55.2239 513.009
257 0 72.1423 12.6833 915 81.0721 54.8208 509.134
258 0 73.0825 12.3012 899 81.8498 54.3626 510.01
259 0 77.1227 13.122 1012 80.1443 54.6334 508.646
260 0 78.1106 11.7526 918 82.9488 55.232 506.671
261 0 80.1063 12.3211 987 81.6332 54.5805 505.914
262 0 85.0671 11.7084 996 81.5773 53.8454 506.669
263 0 84.0622 11.8008 992 83.2853 54.7651 503.664
264 0 86.1042 12.4036 1068 81.5197 54.7182 504.227
265 0 88.0544 11.6632 1027 82.1061 54.2425 504.127
266 0 93.1079 13.6186 1268 79.6593 53.817 499.8
267 0 95.0892 12.6302 1201 80.1074 53.7635 500.871
268 0 96.06 11.8364 1137 82.0774 54.7186 498.556
269 0 99.1558 11.85 1175 81.2289 53.5268 500.14
270 0 104.062 12.9923 1352 78.8395 53.2774 497.104
271 0 109.11 12.9135 1409 78.4627 54.0312 496.26
272 0 110.072 11.8922 1309 79.7907 53.4469 496.872
273 0 114.107 12.4883 1425 79.2407 53.2351 492.59
274 1 53.0266 12.7483 676 75.0488 51.9497 521.101
275 0 55.087 12.0355 663 75.6018 52.6305 520.253
276 0 57.0259 11.9946 684 75.6447 53.1009 521.289
277 0 59.0767 12.78 755 75.0728 52.3801 519.466
278 0 60.0556 11.9223 716 76.3547 53.0447 519.165
279 0 61.0755 11.3794 695 78.6417 52.9698 516.229
280 0 63.0361 11.1523 703 78.0199 52.8834 516.074
281 0 66.0462 12.0219 794 76.4408 53.4219 516.157
282 0 67.0491 11.5438 774 77.8902 53.1667 514.115
283 1 34.0192 10.8468 369 74.6233 52.4092 531.523
284 0 37.036 11.9883 444 73.7185 51.6306 528.892
285 0 36.0179 12.5216 451 73.6896 51.7827 528.729
286 0 38.053 11.6942 445 74.8404 52.2539 529.097
287 0 40.0376 12.4633 499 73.3267 51.8758 527.647
288 0 40.058 11.2088 449 75.7372 52.2494 527.071
289 0 41.1139 11.1641 459 76.1808 52.085 526.224
290 0 43.0131 12.0196 517 73.6944 52.0542 526.669
291 0 44.0631 12.414 547 74.1609 51.7569 525.837
292 0 46.0757 11.8284 545 74.8569 52.5101 524.774
293 0 46.1026 10.238 472 77.5275 52.9407 524.909
294 0 49.0678 11.7592 577 74.0867 52.8371 523.518
295 0 50.0608 12.365 619 73.1341 52.5557 522.483
296 0 49.1315 11.4183 561 74.4314 51.7754 521.72
297 0 52.1059 12.3594 644 72.5575 51.8758 521.941
298 0 54.1281 12.5258 678 73.4823 51.0664 517.94
299 0 56.07 11.8423 664 73.0497 51.4262 519.203
300 0 57.0887 12.0689 689 72.9144 50.9797 518.964
301 0 60.0921 12.2645 737 72.8847 50.7164 516.316
302 0 60.0579 11.4889 690 74.3942 51.4928 515.564
303 0 62.0516 13.0375 809 71.2645 51.4845 514.443
304 0 63.0426 11.9284 752 73.1024 51.1476 513.258
305 0 67.063 12.9132 866 71.2714 51.3464 513.931
306 0 68.1176 12.0967 824 72.6796 51.2282 511.971
307 0 68.1207 12.1549 828 72.7959 51.3225 510.679
308 0 72.1212 11.7718 849 73.477 51.4735 510.372
309 0 73.0572 11.3746 831 75.1805 51.5511 506.071
310 0 76.1014 11.2744 858 74.1876 51.2774 507.117
311 0 81.1137 11.7859 956 73.3567 51.2584 504.564
312 0 82.1257 11.7016 961 73.6681 51.3548 504.863
313 1 44.0366 9.4921 418 74.0957 51.3014 523.273
314 0 48.0477 12.3211 592 70.2517 50.8125 521.176
315 0 48.0418 11.2819 542 72.4041 51.0018 521.208
316 0 46.111 10.2362 472 74.1568 51.2881 520.653
317 0 52.026 12.1285 631 70.8098 51.6609 519.252
318 0 53.0335 12.709 674 69.8605 51.7611 519.999
319 0 53.0269 12.4276 659 71.0046 51.7936 519.593
320 0 55.084 12.4356 685 71.3533 51.4555 518.851
321 0 57.0228 11.6094 662 72.284 52.435 516.779
322 0 57.0791 12.4564 711 72.6498 52.1674 513.906
323 0 61.0513 12.1537 742 72.3019 52.0256 514.018
324 0 64.0579 12.6136 808 70.9653 51.8106 512.436
325 0 65.0431 13.1913 858 70.4464 51.8625 510.58
326 0 65.0766 11.5556 752 73.3444 51.9721 511.407
327 0 68.0356 12.567 855 72.2187 51.8304 509.351
328 0 70.0611 11.1189 779 73.7189 51.7394 509.664
329 0 73.1559 11.8787 869 72.9206 51.8987 507.894
330 0 75.0512 12.5248 940 71.4383 52.8543 508.64
331 0 77.0814 12.4414 959 72.0209 52.6715 504.218
332 0 81.0848 13.0234 1056 70.4508 52.0568 506.145
333 0 84.1359 13.6921 1152 69.184 52.2786 503.806
334 0 86.0892 12.1734 1048 72.3712 51.4733 500.562
335 0 87.1406 13.2544 1155 70.6407 52.0537 500.693
336 1 47.0435 11.8188 556 71.5342 51.7446 518.77
337 0 46.062 10.9635 505 73.2614 51.9069 519.562
338 0 49.0921 11.9164 585 71.2444 52.0803 519.368
339 0 51.0556 12.8292 655 70.7725 52.2366 517.227
340 0 52.0334 12.3767 644 70.5932 51.5062 518.595
341 0 54.0562 11.9135 644 71.3975 51.9829 516.89
342 0 56.0684 11.2363 630 71.446 51.9063 517.241
343 0 57.1027 12.8015 731 69.8468 51.9617 515.192
344 0 60.052 13.0553 784 68.7997 50.4847 513.723
345 0 62.0668 14.0816 874 67.3764 51.0835 513.374
346 0 63.1038 13.6442 861 68.5087 52.0801 511.275
347 0 64.0402 12.3829 793 70.8045 52.4073 511.209
348 0 64.1555 12.2827 788 71.0431 51.3972 510.581
349 0 69.1545 13.4771 932 68.3777 52.0451 508.1
350 0 69.1321 12.2808 849 70.8163 52.6855 506.941
351 0 73.2212 13.6846 1002 67.6727 52.3144 506.896
352 0 76.0454 12.8607 978 68.7495 52.2117 506.31
353 0 77.0538 12.6016 971 69.5736 52.1926 505.175
354 0 79.0594 11.8645 938 70.2676 52.2996 504.565
355 0 84.1262 13.3728 1125 67.8027 51.3067 502.371
356 1 42.0535 11.1525 469 69.5629 51.5181 521.188
357 0 44.0478 10.92 481 69.3701 52.0395 521.954
358 0 44.0197 12.1991 537 68.54 52.4767 521.106
359 0 46.1469 12.1352 560 68.5661 52.8429 520.318
360 0 46.1162 12.0565 556 69.527 51.5162 519.113
361 0 48.0525 11.9869 576 70.0556 51.2049 518.122
362 0 48.0799 10.1706 489 73.2311 50.998 516.697
363 0 52.0524 11.3924 593 70.8179 51.6594 517.204
364 0 53.0454 11.8766 630 70.6714 52.2762 516.744
365 0 54.0581 11.6726 631 70.8605 51.981 515.255
366 0 57.0777 12.7721 729 69.4883 52.7476 515.029
367 0 58.1149 12.3204 716 70.7835 52.5363 515.189
368 0 60.0386 12.8084 769 70.9025 52.1287 514.61
369 0 62.0304 12.8647 798 70.7206 51.7581 513.064
370 0 64.024 13.2294 847 70.7155 51.7166 512.987
371 0 64.0408 11.8518 759 74.3281 51.7563 511.938
372 0 67.0683 13.1955 885 72.4757 51.7605 509.431
373 0 68.0647 11.8564 807 74.5477 51.9765 509.732
374 0 73.1219 13.0057 951 72.2545 52.2219 508.75
375 0 73.177 12.7772 935 73.062 52.1583 508.006
376 0 75.0596 11.9905 900 74.2444 51.68 507.933
377 0 79.0665 12.9005 1020 72.6775 52.1657 505.382
378 0 82.1357 13.2951 1092 71.3645 51.5623 507.747
379 0 84.1867 12.983 1093 72.4575 51.5105 505.196
380 0 86.074 13.7672 1185 71.3983 50.5612 504.924
381 0 89.1094 13.3095 1186 73.5793 51.2344 500.678
382 0 92.0337 12.8431 1182 74.467 50.7047 498.628
383 0 95.1539 12.7898 1217 73.9827 51.5982 500.325
384 1 53.1008 10.207 542 74.4834 51.4723 520.959
385 0 54.0387 10.9181 590 73.6627 51.7136 519.547
386 0 54.0904 11.5177 623 73.6132 50.5666 519.014
387 0 56.2448 12.1967 686 73.4023 51.0904 515.329
388 0 57.068 11.5301 658 74.731 52.0182 514.003
389 0 61.184 11.9149 729 73.4925 51.3676 515.505
390 0 61.1444 11.71 716 75.1397 51.2332 514.327
391 0 66.1417 11.8382 783 73.355 51.6986 513.886
392 0 66.0741 12.2892 812 73.7291 52.0283 510.148
393 0 69.0861 13.2588 916 71.381 51.5884 510.909
394 0 70.0434 13.0491 914 71.849 51.7626 507.13
395 0 73.0713 12.1936 891 72.7935 51.4635 509.219
396 0 76.0822 12.986 988 71.4393 51.9008 508.984
397 0 77.1352 12.9253 997 71.5647 51.5878 507.253
398 0 79.1216 11.8678 939 73.1395 51.9063 506.701
399 0 81.161 12.3212 1000 73.063 51.546 503.098
400 0 84.1398 12.812 1078 72.0881 52.0455 502.522
401 0 89.102 13.4677 1200 70.3433 51.925 503.133
402 1 47.0438 10.3308 486 72.6091 50.8457 522.527
403 0 46.0291 10.3847 478 73.6318 51.6192 522.766
404 0 49.0994 11.3851 559 71.6601 51.6351 521.268
405 0 50.0159 11.2564 563 72.6785 51.5542 520.201
406 0 52.0435 11.7594 612 71.6078 51.7059 519.618
407 0 55.067 13.0568 719 67.5883 52.1196 518.241
408 0 53.0876 11.1702 593 71.9258 51.7993 516.54
409 0 56.1356 11.6147 652 71.773 52.0706 515.425
410 0 58.0643 12.7961 743 69.1803 51.9004 516.591
411 0 60.0592 11.7051 703 70.9474 51.9331 515.562
412 0 59.0648 11.0895 655 72.4504 51.9634 515.635
413 0 62.102 12.3668 768 70.6771 51.4505 512.966
414 0 65.1146 11.6717 760 70.9368 51.8632 514.266
415 0 66.0818 11.4706 758 70.942 51.2731 515.449
416 0 69.1305 12.4113 858 69.6993 52.0956 512.677
417 0 69.1287 11.1387 770 72.4597 52.0403 510.071
418 0 74.1689 12.7277 944 69.0551 51.7977 510.283
419 0 75.0704 11.9754 899 71.1046 51.8165 509.109
420 0 76.1245 12.1117 922 70.1312 51.5401 510.803
421 0 80.061 12.1033 969 70.6553 51.8163 508.712
422 0 80.103 12.072 967 71.7911 51.7332 505.125
423 0 86.127 13.5614 1168 69.0479 51.095 501.789
424 0 88.0769 12.5799 1108 70.2211 51.0632 503.301
425 1 43.0817 11.5594 498 68.506 50.6566 524.534
426 0 43.0295 11.0389 475 70.8926 51.3937 522.446
427 0 46.1919 10.478 484 71.7872 50.9773 522.893
428 0 48.0915 11.7276 564 69.6826 50.9149 522.165
429 0 49.0169 12.6079 618 68.199 51.678 523.06
430 0 51.0567 11.9475 610 70.2852 51.7082 520.689
431 0 52.0398 11.9908 624 70.6667 51.8494 519.982
432 0 53.0528 12.0823 641 70.4587 51.5928 518.214
433 0 53.0363 11.8221 627 71.2504 50.992 517.329
434 0 56.0683 11.2363 630 71.7095 50.6206 517.783
435 0 58.0284 11.615 674 71.4273 50.7018 516.491
436 0 59.0359 11.4676 677 71.9645 51.712 516.318
437 0 62.0848 11.4199 709 72.488 51.0889 515.707
438 0 64.1254 13.38 858 68.8683 51.1503 514.946
439 0 66.078 12.4247 821 69.6516 50.6322 513.97
440 0 69.0538 13.0044 898 69.1125 50.8062 511.618
441 0 69.0873 11.6085 802 71.1297 51.409 511.981
442 0 72.1424 13.2238 954 68.7883 51.8291 510.296
443 0 76.1774 13.2191 1007 66.862 51.0894 511.49
444 0 77.0791 12.0915 932 70.03 50.9807 508.159
445 0 82.0934 13.6308 1119 66.9303 51.4826 506.863
446 1 43.13 10.364 447 68.7584 51.047 525.067
447 0 43.0366 9.55002 411 69.9197 51.3552 525.146
448 0 42.0108 11.3542 477 68.7505 51.5367 523.008
449 0 44.0438 10.1036 445 69.5573 51.7303 524.169
450 0 45.0264 10.3051 464 69.5991 50.875 522.629
451 0 47.0462 13.5399 637 65.6374 51.4474 520.735
452 0 48.0388 9.24253 444 70.3694 51.7928 523.131
453 0 52.0552 10.7386 559 68.1503 51.7245 522.889
454 0 52.0345 11.5308 600 67.7867 51.2533 520.825
455 0 53.0976 11.9215 633 68.2133 51.5845 518.174
456 0 54.0766 11.983 648 68.7562 51.0802 519.582
457 0 56.0637 11.3621 637 70.3579 51.1931 516.878
458 0 57.0835 12.3153 703 67.7155 51.4467 516.646
459 0 60.0999 11.6473 700 68.7271 50.8729 515.396
460 0 62.066 13.0345 809 66.6564 51.3795 513.387
461 0 65.0982 12.8268 835 65.8587 52.012 515.053
462 0 65.1395 12.266 799 67.4143 51.6558 512.273
463 0 67.0523 12.3933 831 66.6426 51.5199 512.924
464 0 70.1092 12.452 873 66.7938 50.9805 508.861
465 0 73.1039 11.0117 805 67.9615 50.9031 511.437
466 0 74.1347 11.7624 872 67.0046 51.3016 508.009
467 0 75.1223 11.2217 843 68.1839 51.828 508.144
468 0 80.0787 12.188 976 66.5676 50.5441 506.548
469 0 82.1085 11.972 983 67.2289 51.1282 504.202
470 0 83.1383 12.2086 1015 67.0995 51.4365 503.456
471 0 86.0989 11.9281 1027 67.1227 51.3213 502.204
472 0 90.1163 11.4408 1031 68.0563 51.2415 500.799
473 1 43.0406 11.0825 477 66.1635 52.0126 521.034
474 0 45.0502 11.0765 499 66.8176 51.8156 521.707
475 0 46.1057 12.2328 564 65.4078 50.984 521.381
476 0 45.0949 11.8861 536 66.3041 51.1306 522.388
477 0 49.0432 11.7651 577 66.5199 50.7054 520.657
478 0 51.0339 11.4826 586 66.9966 50.3191 519.592
479 0 53.056 12.4962 663 65.9336 51.0995 519.154
480 0 55.0176 12.3233 678 66.6652 50.2109 517.591
481 0 55.0651 11.9858 660 67.0318 50.5288 518.621
482 0 57.1141 11.5558 660 68.3955 50.8091 517.098
483 0 59.0439 12.4992 738 67.6694 51.4444 514.038
484 0 60.0391 12.2753 737 68.5292 50.7517 511.909
485 0 62.1365 12.891 801 66.8252 50.9988 513.699
486 0 64.0737 12.5168 802 67.5249 51.4913 511.077
487 0 69.0725 13.1601 909 66.1177 51.0693 510.787
488 0 68.066 11.959 814 69.3673 50.7015 510.72
489 0 71.045 12.4287 883 67.7961 50.5923 511.877
490 0 73.0443 11.6642 852 69.6009 50.5141 509.888
491 0 74.0795 12.932 958 68.4489 51.2182 506.006
492 0 79.114 12.9434 1024 67.5176 50.6396 506.7
493 0 79.0619 13.6096 1076 67.7193 50.3727 502.269
494 0 82.2271 12.8182 1054 68.7543 50.7913 504.211
495 0 85.0972 12.5739 1070 69.3243 50.714 502.865
496 1 47.0774 10.5358 496 72.1734 50.6673 519.796
497 0 48.0599 10.9863 528 72.8068 51.4223 518.225
498 0 49.077 13 638 70.5063 51.1066 517.135
499 0 52.0799 11.9432 622 71.8939 50.5675 518.1
500 0 54.0959 11.7199 634 72.4968 50.336 517.904
501 0 55.0624 12.1317 668 71.8563 51.1048 516.494
502 0 57.0797 12.7015 725 71.2248 51.189 514.597
503 0 55.0308 11.2664 620 74.6161 50.8839 513.545
504 0 58.0476 12.3864 719 71.9791 51.4965 514.324
505 0 58.1131 11.5292 670 74.4194 51.1299 512.115
506 0 60.0966 11.182 672 75.1399 50.9152 508.89
507 0 63.0863 12.2531 773 73.2937 51.1591 507.981
508 0 65.1094 11.7648 766 73.7311 50.9021 508.851
509 0 68.072 11.5613 787 73.6976 50.615 508.152
510 0 70.0596 12.1182 849 72.3439 50.6207 508.629
511 0 73.0711 11.8104 863 72.7509 50.9455 507.506
512 0 76.0916 12.0381 916 71.4421 50.6081 509.276
513 0 79.0508 12.3085 973 71.7749 50.6393 505.89
514 0 81.1296 12.5725 1020 71.4147 50.2225 504.457
515 0 84.114 12.8873 1084 70.3635 51.1974 503.655
516 0 85.0509 11.8988 1012 72.9219 51.082 498.34
517 1 46.0176 12.3214 567 67.8607 49.5115 523.924
518 0 47.1068 10.6991 504 70.8433 50.2004 523.694
519 0 48.0469 11.0725 532 71.0056 49.9756 523.165
520 0 49.0929 11.5495 567 70.7531 49.6243 521.056
521 0 53.0848 13.0169 691 67.5557 50.9378 521.227
522 0 55.1135 13.5901 749 66.1883 50.2577 519.227
523 0 55.0493 12.8612 708 68.2444 50.3291 518.678
524 0 57.1529 12.8252 733 67.6685 50.7599 517.746
525 0 61.0521 15.7734 963 62.1433 50.5774 515.113
526 0 61.1274 13.3492 816 66.6875 50.1103 514.616
527 0 63.0869 13.2833 838 67.0728 50.6933 514.623
528 0 63.1622 13.0933 827 67.4728 50.7908 514.798
529 0 64.1399 12.3948 795 68.278 50.2314 514.751
530 0 66.1418 12.0801 799 68.4456 50.4631 514.661
531 0 69.1243 11.8771 821 68.2704 50.0122 512.78
532 0 72.1419 14.0418 1013 65.4521 49.6051 510.199
533 0 73.1162 11.9809 876 68.5205 49.6826 509.568
534 0 77.2422 12.1177 936 67.4199 50.1389 508.397
535 0 80.2281 13.0752 1049 65.653 50.6787 506.468
536 0 82.1851 11.1091 913 67.8171 50.5794 507.268
537 1 44.2326 10.8291 479 66.3528 49.7599 521.889
538 0 44.0664 10.7338 473 66.63 49.6025 521.586
539 0 45.0367 11.5239 519 65.4605 49.4509 520.721
540 0 48.0567 12.9639 623 62.8812 50.2681 520.183
541 0 50.0882 12.4381 623 63.2311 49.7624 518.51
542 0 50.0494 12.4477 623 61.8283 50.2921 519.876
543 0 52.0612 11.1215 579 63.5078 50.3713 516.629
544 0 53.0416 10.1241 537 64.27 50.2831 519.43
545 0 55.0827 11.7278 646 62.4102 49.8793 516.82
546 0 58.0662 12.0724 701 61.9073 49.6862 516.133
547 0 58.2123 10.4961 611 64.1784 50.4304 515.147
548 0 59.136 10.9916 650 64.0677 50.2615 511.246
549 0 61.0776 11.0679 676 63.1509 49.5266 513.357
550 0 64.1356 12.9257 829 60.2992 49.199 512.875
551 0 66.1406 12.3222 815 61.3129 50.0061 510.399
552 0 67.0799 11.1062 745 63.094 50.1839 508.289
553 0 69.083 10.7986 746 63.3499 50.13 508.165
554 0 70.0903 11.0714 776 63.7771 50.4549 506.524
555 0 75.0834 10.495 788 63.2893 49.8503 509.282
556 0 76.0961 10.9204 831 63.5174 49.4116 506.554
557 0 79.2113 12.271 972 61.7387 49.9177 502.431
558 0 83.2091 11.381 947 62.3263 49.8469 504.531
559 0 83.0738 11.1949 930 63.1054 50.1108 499.438
560 0 89.1094 12.4903 1113 61.4996 50.1671 498.891
561 0 91.2087 11.3586 1036 63.2654 50.2355 498.742
562 1 45.0868 11.9769 540 61.1667 50.313 520.533
563 0 47.0588 10.3913 489 63.0552 49.9652 520.002
564 0 46.0976 10.8899 502 62.9422 50.1912 520.291
565 0 48.1175 9.66384 465 62.7656 50.0495 521.209
566 0 48.0389 9.59639 461 64.846 50.1258 518.037
567 0 52.0652 11.7161 610 61.9934 50.077 518.846
568 0 54.0635 11.6715 631 61.9572 49.5372 518.981
569 0 56.0737 12.0377 675 61.7822 49.5081 516.084
570 0 55.1163 10.9224 602 63.9169 50.7425 516.767
571 0 61.0785 12.8687 786 61.3562 50.8753 513.487
572 0 60.1115 10.7134 644 65.0435 51.7283 514.935
573 0 63.078 11.7632 742 63.6779 50.8059 512.407
574 0 65.1256 12.069 786 63.1908 50.8181 512.964
575 0 67.1403 12.7941 859 62.8172 51.0268 510.769
576 0 70.1543 11.3892 799 64.6208 50.8949 510.444
577 0 71.12 13.1046 932 62.5225 51.5708 507.735
578 0 74.1488 13.365 991 62.2281 51.7356 507.103
579 0 75.1666 11.867 892 64.6188 51.7859 507.28
580 0 77.0831 11.9092 918 65.0033 52.7516 505.309
581 0 80.1493 11.4287 916 66.238 52.548 504.083
582 0 83.1697 11.8673 987 65.1358 52.4782 503.521
583 1 42.0688 10.4115 438 65.5342 51.8265 522.975
584 0 46.0741 10.8087 498 66.3293 51.8072 519.998
585 0 46.0698 10.6795 492 67.0142 51.4431 519.482
586 0 48.0602 11.2359 540 66.5796 51.563 519.643
587 0 47.1745 10.9169 515 67.9437 51.3165 519.175
588 0 52.06 12.1782 634 65.5804 50.9905 517.505
589 0 52.0312 10.4745 545 68.4991 51.1853 517.736
590 0 55.246 12.9059 713 65.3043 50.4488 516.37
591 0 56.1067 12.8149 719 65.3463 50.8901 516.922
592 0 60.0742 13.5998 817 64.2448 51.0416 516.211
593 0 61.0906 13.5537 828 64.6244 50.4227 515.426
594 0 62.165 13.4802 838 65.315 50.3413 514.869
595 0 62.0549 11.1514 692 69.6821 50.3006 513.237
596 0 64.1149 11.1986 718 70.5056 51.0836 513.638
597 0 65.072 12.0789 786 69.4237 50.7201 513.005
598 0 69.1806 13.5298 936 67.4145 51.0823 510.494
599 0 70.1305 13.1754 924 68.5411 50.5747 508.997
600 0 72.1066 13.1749 950 69.0811 51.2916 508.434
601 0 73.1265 12.8271 938 70.7516 50.9051 506.208
602 1 39.0687 10.955 428 71.3107 50.979 525.157
603 0 40.1127 11.9414 479 69.4927 51.2317 524.067
604 0 41.1635 10.9806 452 70.8451 50.7566 524.628
605 0 42.1202 11.7758 496 70.5403 51.7944 523.629
606 0 40.026 12.9666 519 71.131 51.6089 521.915
607 0 45.0683 12.825 578 68.3945 51.7889 523.505
608 0 46.0614 12.8524 592 69.4324 51.4662 521.149
609 0 47.015 10.8051 508 71.939 51.25 521.852
610 0 48.0622 12.1717 585 70.3453 50.9966 520.448
611 0 49.0236 11.7494 576 71.6823 51.2969 519.073
612 0 50.0665 12.6831 635 69.8772 51.378 519.373
613 0 50.0273 12.5132 626 70.6677 51.238 518.577
614 0 54.0789 12.1674 658 70.3997 51.6109 517.419
615 0 52.1284 12.4692 650 71.3646 50.9708 515.426
616 0 55.0958 13.9212 767 68.4446 51.9009 514.292
617 0 58.0773 14.4979 842 66.9359 51.7292 515.905
618 0 58.0876 13.9272 809 68.7454 51.4883 512.643
619 0 62.1279 12.7962 795 69.7648 51.3711 513.083
620 0 62.1425 11.6989 727 71.4622 51.4856 512.939
621 0 63.1007 13.4705 850 69.2 51.1929 510.406
622 0 66.0841 13.8157 913 68.552 51.391 507.13
623 0 67.1383 13.1222 881 69.4461 51.2951 508.733
624 0 68.1322 11.3456 773 72.2057 51.3648 508.202
625 1 37.1099 10.6171 394 72.1168 51.3223 523.485
626 0 38.0382 11.2781 429 71.359 51.0023 523.186
627 0 38.0561 10.3794 395 72.1418 49.9443 523.375
628 0 40.0221 11.3937 456 71.4825 50.761 520.357
629 0 41.1218 13.7153 564 68.6454 51.2411 519.881
630 0 42.0491 12.5568 528 69.7708 51.1761 520.534
631 0 42.0775 12.3106 518 70.8842 50.9498 518.346
632 0 43.0646 12.1213 522 71.7299 51.2644 518.615
633 0 47.1353 12.8778 607 69.5354 51.369 518.671
634 0 48.106 14.2186 684 68.2149 50.8056 516.268
635 0 48.0864 13.7045 659 69.2671 51.4416 516.226
636 0 50.1391 13.303 667 69.8831 51.988 515.306
637 0 51.077 13.1958 674 69.7537 51.7611 516.439
638 0 54.0503 13.9685 755 68.3589 51.4159 515.241
639 0 54.1084 12.6782 686 70.5714 51.2012 516.499
640 0 55.0374 12.9366 712 70.7177 51.4354 514.799
641 0 57.0527 13.321 760 70.8579 51.6829 513.828
642 0 60.1589 12.7163 765 71.519 51.6758 513.604
643 0 60.1477 13.949 839 70.5959 50.6758 511.53
644 0 61.1044 13.0269 796 72.5101 50.4786 511.945
645 0 64.0851 12.9047 827 73.1657 52.0859 510.52
646 0 67.0461 14.4229 967 70.8645 51.3392 510.67
647 0 68.0598 13.5616 923 72.6457 51.8299 510.215
648 0 69.05 12.6575 874 75.3432 51.2014 507.332
649 0 72.0383 13.6872 986 74.0274 51.069 506.445
650 1 37.0369 11.853 439 74.8907 51.5194 525.346
651 0 37.0394 11.4743 425 75.4353 52.1035 526.271
652 0 39.0386 13.6788 534 73.6667 51.676 523.483
653 0 38.0141 13.0215 495 76.3394 51.6586 523.069
654 0 41.0424 13.352 548 74.4836 51.7682 523.276
655 0 41.0567 12.5436 515 76.8621 51.6214 521.654
656 0 44.047 12.9407 570 75.7667 52.5193 522.904
657 0 45.0303 13.5242 609 75.0788 52.0788 523.31
658 0 44.0267 14.2641 628 75.8344 51.6831 522.654
659 0 48.0683 13.7513 661 75.3812 51.6611 521.755
660 0 49.0425 14.518 712 75.8624 51.9494 519.701
661 0 48.0556 12.9641 623 79.3884 51.6838 520.742
662 0 52.0402 13.4127 698 78.0974 51.6877 519.173
663 0 52.0707 13.7121 714 78.9594 52.1695 519.172
664 0 53.053 14.3441 761 78.4034 51.4074 517.863
665 0 56.1127 15.2015 853 77.5698 51.7116 515.472
666 0 59.0283 13.8747 819 79.4701 52.0757 516.438
667 0 60.0509 13.7217 824 80.4066 52.3265 515.671
668 0 62.0417 14.2485 884 79.7579 52.1482 515.197
669 0 64.1752 14.0864 904 80.5265 51.5885 515.373
670 0 65.0533 14.3728 935 80.6759 51.9615 513.354
671 0 67.0518 13.2286 887 82.9752 53.2029 513.413
672 0 71.0488 14.8208 1053 79.566 52.9012 512.995
673 0 70.0887 14.2248 997 83.0843 52.2397 510.09
674 0 73.0254 13.3241 973 83.6999 51.4717 509.873
675 0 75.0513 16.1623 1213 78.77 51.9835 510.515
676 0 78.0504 14.0678 1098 82.5993 52.5137 508.706
677 0 80.0937 14.5455 1165 82.703 52.8738 506.307
678 1 41.2482 12.7278 525 85.6781 52.1676 524.821
679 0 43.0274 12.5269 539 87.2746 51.6289 523.404
680 0 45.0784 13.4432 606 84.6733 52.3977 523.993
681 0 45.0646 14.4015 649 84.3436 52.9877 522.174
682 0 48.0822 13.8305 665 83.7444 52.5353 523.083
683 0 47.0143 12.5706 591 87.89 51.8832 521.854
684 0 52.1758 13.0329 680 85.4309 52.7191 521.021
685 0 51.1271 12.8503 657 86.3653 51.9619 519.592
686 0 53.0873 13.4872 716 85.6732 52.7682 519.546
687 0 54.0538 12.9686 701 87 52.2268 518.064
688 0 57.127 13.9689 798 84.0602 52.2393 518.081
689 0 59.0262 14.4004 850 83.3835 52.3729 516.496
690 0 59.106 13.755 813 84.9569 52.9164 515.947
691 0 63.065 14.0331 885 82.1469 53.0124 515.713
692 0 63.054 13.5122 852 83.8944 52.0786 515.291
693 0 64.1486 13.8273 887 84.0485 52.0992 512.796
694 0 68.0545 13.8419 942 83.0722 51.9671 511.142
695 0 71.186 12.8115 912 83.83 51.8651 510.874
696 0 72.1707 12.9831 937 83.9146 51.6329 509.121
697 1 40.0955 12.7695 512 83.918 51.8164 523.213
698 0 40.0647 11.8808 476 85.5966 51.7626 524.687
699 0 43.0781 12.5121 539 83.2338 51.9499 522.698
700 0 38.0351 9.20202 350 91.9943 53.0029 519.794
701 0 43.0458 12.0105 517 85.3617 52.1238 523.282
702 0 46.0883 12.3242 568 84.5106 51.8398 520.926
703 0 45.1041 11.7284 529 86.3932 51.7845 519.828
704 0 48.0995 11.996 577 85.2288 51.7366 517.769
705 0 46.1437 12.4611 575 86.1826 51.8122 520.231
706 0 49.0582 12.5361 615 84.7366 52 519.093
707 0 52.1215 13.1232 684 82.2661 51.6009 520.807
708 0 56.0861 13.6754 767 79.6089 51.4707 517.494
709 0 57.0836 13.2262 755 79.9483 51.8808 517.779
710 0 57.0636 14.4225 823 78.9368 51.6598 515.789
711 0 60.0525 12.5057 751 81.3569 51.5899 516.3
712 0 63.0454 14.672 925 77.4032 52.1297 515.077
713 0 64.0506 14.7852 947 77.3548 51.886 514.339
714 0 68.0768 14.2633 971 77.2348 51.4542 514.551
715 0 68.0442 12.7564 868 79.9401 51.9896 512.924
716 0 73.1298 13.6333 997 77.4323 51.8666 512.281
717 0 73.0402 14.1292 1032 76.7723 52.2975 511.717
718 0 74.1799 13.0359 967 78.7384 52.3785 510.643
719 0 77.1671 13.8142 1066 77.0422 52.7589 508.977
720 0 80.0385 13.531 1083 77.8513 52.1127 506.335
721 0 83.1848 13.9448 1160 76.9621 51.8991 506.15
722 1 42.0379 11.1328 468 79.688 51.9594 524.16
723 0 44.0151 12.0186 529 79.3724 51.4461 522.03
724 0 44.0147 12.6776 558 79.5591 51.457 521.629
725 0 48.0201 13.4735 647 77.2195 51.9274 521.444
726 0 50.1038 14.0109 702 75.4217 52.4715 522.501
727 0 49.034 12.0529 591 80.0203 52.1506 521.428
728 0 52.0189 12.5531 653 78.758 52.049 519.335
729 0 54.0344 13.6395 737 76.1723 51.7802 519.962
730 0 56.0839 13.1945 740 76.6716 51.1608 520.58
731 0 57.2402 12.4912 715 78.8014 51.8084 518.557
732 0 62.0432 13.2488 822 75.8273 52.5049 519.741
733 0 62.1297 13.7293 853 76.449 51.5076 516.885
734 0 62.053 13.3757 830 77.4867 51.3205 514.87
735 0 67.1091 13.9325 935 75.185 52.0984 516.311
736 0 68.0445 13.5793 924 75.6732 52.2424 514.172
737 0 69.0565 12.9749 896 78.1395 52.019 512.028
738 0 71.0372 13.4155 953 77.1186 52.3841 508.844
739 0 73.0968 13.6121 995 77.1286 52.3015 509.664
740 0 76.0336 13.5729 1032 76.7703 52.8624 509.069
741 0 79.1033 13.5519 1072 76.959 52.1035 508.96
742 0 81.0798 13.6902 1110 77.5036 52.2784 505.053
743 0 86.1951 14.5252 1252 74.4665 51.6821 506.359
744 0 88.0911 13.4747 1187 75.9318 51.6285 507.385
745 0 88.1108 13.6533 1203 77.0058 51.2178 503.165
746 1 47.0425 11.0751 521 78.4242 51.38 523.134
747 0 50.0618 11.7455 588 78.148 51.9728 520.031
748 0 51.0585 12.2213 624 77.1362 52.0705 521.296
749 0 51.0212 12.6614 646 77.5387 51.9721 519.531
750 0 56.0134 12.6041 706 75.8329 51.2989 518.95
751 0 57.0493 12.9712 740 75.5608 51.6514 517.584
752 0 59.0617 13.0541 771 74.7536 51.249 518.416
753 0 61.0466 12.7444 778 75.5347 51.7082 516.003
754 0 62.0497 12.1838 756 76.7738 52.2791 516.459
755 0 64.0459 13.7714 882 74.1508 52.1134 514.861
756 0 66.061 13.9114 919 73.568 51.7628 514.048
757 0 68.0906 13.7023 933 73.9936 52.045 512.029
758 0 69.0587 13.7564 950 73.9358 51.9884 511.096
759 0 74.064 13.1913 977 74.1945 51.4985 510.008
760 0 74.1458 13.3251 988 74.6589 51.6478 507.17
761 0 78.0385 14.826 1157 72.1953 52.0354 506.591
762 0 78.0931 12.2546 957 76.7022 51.0825 506.332
763 0 84.0941 13.2471 1114 74.6975 51.9443 505.408
764 0 85.0911 13.4092 1141 74.9457 51.3699 504.956
765 0 86.1149 12.4485 1072 76.6698 51.7211 503.847
766 1 46.012 12.1707 560 73.8089 51.8768 523.893
767 0 48.0385 12.3443 593 73.6071 51.3406 523.47
768 0 50.0283 11.4535 573 75.5602 51.4939 522.895
769 0 52.0471 12.3926 645 73.6233 51.493 521.843
770 0 52.0713 11.5803 603 75.7512 50.9386 520.24
771 0 54.1092 12.6781 686 73.863 51.3236 520.385
772 0 56.0851 13.1942 740 72.2892 52.2676 520.33
773 0 55.0784 12.3279 679 74.3652 51.3697 519.892
774 0 56.0456 11.7404 658 75.9119 51.2781 517.351
775 0 59.1077 11.7413 694 74.5879 51.2579 518.69
776 0 62.0435 13.0715 811 72.6646 51.2515 515.757
777 0 64.0834 13.0767 838 72.7506 51.2601 515.156
778 0 67.0958 13.205 886 72.1783 52.246 513.328
779 0 69.1328 13.0329 901 72.4284 52.03 512.809
780 0 71.0739 12.6769 901 72.7913 52.2109 512.705
781 0 72.1244 12.7696 921 73.3355 51.6048 510.167
782 0 73.1431 12.4277 909 74.3102 51.6392 509.803
783 0 77.0799 13.1682 1015 72.7369 51.8719 507.121
784 0 81.0761 13.9005 1127 69.3753 51.6673 507.977
785 0 84.1172 13.2078 1111 71.2412 52.6976 506.129
786 1 41.0992 11.1438 458 70.9891 52.2314 525.633
787 0 42.0286 9.82665 413 73.0073 51.7094 525.324
788 0 47.0184 11.5274 542 69.738 51.3192 523.587
789 0 44.0682 11.5276 508 71.8898 51.2717 522.762
790 0 49.0867 12.5696 617 69.0665 50.658 522.269
791 0 50.0666 11.9641 599 69.985 50.5326 521.457
792 0 50.0719 13.5206 677 68.9261 51.3914 519.781
793 0 51.0496 12.3605 631 70.6529 51.9081 520.761
794 0 53.0626 12.2874 652 70.6963 51.9463 518.012
795 0 55.0661 12.2943 677 70.1832 51.6883 518.158
796 0 57.1297 11.9203 681 70.6402 52.1953 517.335
797 0 60.072 11.9357 717 69.788 51.8382 517.87
798 0 61.1065 11.0136 673 71.3314 51.5349 516.208
799 0 64.1194 11.1823 717 70.569 51.7057 516.106
800 0 63.1158 11.5027 726 71.2149 52.1088 514.921
801 0 67.1792 13.3672 898 67.1192 52.4365 516.44
802 0 68.0948 12.0861 823 70.5322 51.8348 511.676
803 1 37.043 10.5013 389 69.5141 52.1465 527.997
804 0 36.0294 10.6025 382 68.7644 52.4241 529.139
805 0 38.0297 10.0448 382 70.644 51.5524 527.283
806 0 40.0528 11.2601 451 68.9601 51.357 526.069
807 0 40.0585 12.3569 495 68.1717 51.5091 526.285
808 0 42.0566 11.651 490 68.9286 51.7816 525.796
809 0 43.0368 11.2462 484 69.6364 51.5826 524.498
810 0 44.0748 11.2309 495 68.8707 51.4747 524.303
811 0 46.1443 11.399 526 68.6673 51.2243 523.825
812 0 46.0574 10.9211 503 68.6004 51.2068 524.549
813 0 48.0967 11.5808 557 68.7235 52.0826 521.573
814 0 50.0961 12.0568 604 67.5927 52.1672 521.002
815 0 52.1893 12.4738 651 66.6175 51.5868 521.143
816 0 52.0765 10.619 553 69.8373 51.6311 521.814
817 0 54.0487 13.7099 741 65.3968 51.9325 520.443
818 0 54.077 11.6685 631 69.2488 51.8526 518.09
819 0 57.0456 11.6398 664 68.0331 51.6581 518.349
820 0 56.15 9.91985 557 70.4973 51.6715 518.095
821 0 59.0734 12.1882 720 66.9569 51.6056 515.086
822 0 62.1735 12.2078 759 66.087 51.2675 514.485
823 0 65.09 11.9527 778 66.1761 51.1003 514.859
824 0 65.1005 10.0153 652 68.8988 51.4371 512.759
825 0 68.1212 11.23 765 66.5007 51.7425 514.214
826 0 70.0652 10.8899 763 66.7523 51.5229 512.168
827 1 39.0612 10.8036 422 64.3436 51.6754 527.628
828 0 37.0364 8.18114 303 69 51.9736 527.455
829 0 42.0277 12.1111 509 62.8212 52.0472 527.063
830 0 44.0462 10.7614 474 65.3797 52.5591 525.511
831 0 45.0355 11.3466 511 63.9139 51.137 526.139
832 0 43.0356 9.75936 420 67.6952 51.4238 523.943
833 0 46.0324 10.4926 483 66.3168 52.1139 523.522
834 0 48.0102 11.3309 544 65.318 52.1599 522.621
835 0 50.1446 11.7061 587 65.2624 50.8007 521.911
836 0 51.0364 11.1881 571 66.2855 50.5744 521.737
837 0 52.0799 10.7911 562 67.2491 51.3096 522.32
838 0 54.0322 10.2161 552 68.1033 50.8243 522.69
839 0 53.1145 10.6751 567 68.3527 51.3086 520.924
840 0 55.1264 10.8297 597 68.9146 51.134 519.99
841 0 56.0715 11.5567 648 67.591 50.9198 520.883
842 0 58.0484 12.0417 699 67.8984 51.1144 518.926
843 0 59.1712 11.6273 688 69.1105 51.2035 518.048
844 0 64.0785 11.1894 717 68.1004 51.1771 517.478
845 0 66.072 11.3664 751 68.0306 51.1531 516.553
846 0 65.0683 11.9106 775 68.7471 50.9729 514.204
847 0 69.1841 13.2111 914 65.7856 51.3337 515.877
848 0 70.0526 12.0481 844 68.173 51.3981 512.314
849 0 71.1218 11.6982 832 68.7644 51.1106 509.547
850 0 74.1523 11.2741 836 69.1124 50.8206 510.24
851 0 77.0733 12.3259 950 66.9853 51.2137 509.142
852 0 78.062 11.1066 867 69.1338 51.3541 509.21
853 1 41.1094 10.022 412 68.2913 51.085 527.993
854 0 44.1166 12.399 547 64.2176 51.2066 525.872
855 0 43.1038 10.8111 466 67.9807 50.824 525.075
856 0 44.0597 11.1894 493 67.5659 50.785 525.444
857 0 45.0705 10.9162 492 67.7378 50.7602 523.335
858 0 48.03 10.9723 527 67.4858 50.5882 522.095
859 0 48.0438 11.2398 540 67.5074 50.837 522.67
860 0 50.0401 11.0112 551 69.0327 51.2813 522.853
861 0 51.0647 11.926 609 68.3218 50.5731 522.117
862 0 54.1337 13.0972 709 66.0691 51.0705 521.68
863 0 54.169 12.2764 665 67.6271 50.8045 519.605
864 0 55.0784 11.9284 657 68.0411 51.6849 519.568
865 0 59.1245 13.1587 778 65.5951 51.0231 519.361
866 0 61.1012 12.1601 743 66.3715 51.0875 519.573
867 0 63.0151 12.3304 777 66.4749 51.018 517.507
868 0 63.1029 12.2498 773 67.1811 51.8732 515.745
869 0 65.214 12.4973 815 65.5718 50.5669 515.939
870 0 66.0789 11.6679 771 66.8768 51.332 513.905
871 0 68.079 11.8098 804 66.6592 50.8532 513.417
872 0 70.2155 10.9805 771 66.9754 50.7613 514.305
873 0 74.1415 12.2738 910 65.1429 51.1703 510.691
874 0 74.0796 11.5956 859 66.78 50.596 509.128
875 0 78.0806 12.0004 937 65.9712 51.095 507.606
876 1 41.0709 10.0558 413 65.7845 50.6247 527.184
877 0 44.0969 11.316 499 64.1884 50.1283 524.156
878 0 44.0227 9.33609 411 66.7981 49.8735 526.024
879 0 47.047 12.1155 570 63.3211 49.8632 524.068
880 0 49.0646 11.5358 566 64.5071 50.2597 523.419
881 0 49.048 10.1125 496 66.4073 50.5907 522.228
882 0 48.0731 10.4632 503 66.497 51.3678 520.871
883 0 52.0942 12.4006 646 63.0882 51.2136 520.994
884 0 53.0646 10.214 542 66.8007 50.7823 519.303
885 0 56.058 12.9152 724 62.9448 51.8425 519.446
886 0 58.0935 10.4143 605 66.162 50.8182 518.37
887 0 58.1629 11.1583 649 65.6687 51.1217 519.035
888 0 60.1898 10.4004 626 67.23 51.1629 517.776
889 0 63.1234 12.9588 818 63.78 51.1027 516.006
890 0 65.3545 12.853 840 64.0405 51.6667 515.732
891 0 67.0902 11.7603 789 65.749 51.6933 512.74
892 0 68.0787 12.2652 835 64.8347 51.6455 513.351
893 0 71.1709 12.6597 901 64.1032 51.5572 512.639
894 0 72.2441 10.8244 782 66.954 51.3939 510.942
895 0 74.1735 11.3652 843 65.7841 51.3737 509.764
896 0 75.1326 11.8058 887 65.6212 51.5693 509.251
897 0 79.1504 13.3796 1059 63.2002 51.5052 507.861
898 0 81.1055 12.3666 1003 65.1615 51.9472 505.916
899 0 83.2698 10.6041 883 67.4077 51.6569 502.733
900 0 86.1475 12.6179 1087 64.4112 52.1306 502.513
901 1 45.1157 10.9053 492 63.8069 51.9614 525.091
902 0 45.1042 9.53348 430 65.5605 51.3326 525.03
903 0 49.0712 10.6784 524 63.4866 51.1393 524.263
904 0 49.1156 10.7909 530 65.883 51.6585 522.8
905 0 51.0474 10.2258 522 66.0613 51.1245 523.144
906 0 53.0299 11.8612 629 63.9714 51.3211 522.092
907 0 54.0463 11.8602 641 64.649 50.8502 518.747
908 0 58.0381 13.0087 755 62.8927 51.7642 520.315
909 0 56.0957 10.9278 613 68.155 52.2186 517.958
910 0 56.0893 11.6065 651 67.4363 51.8556 517.16
911 0 60.0484 11.8571 712 66.5983 52.736 519.521
912 0 61.1235 11.125 680 68.4176 52.1485 518.053
913 0 63.1562 11.8912 751 67.5739 52.012 515.969
914 0 65.0848 12.5375 816 66.739 51.5931 515.483
915 0 67.1412 13.5386 909 65.9736 50.7184 514.437
916 0 68.1062 12.8916 878 66.8314 51.3952 516.527
917 0 71.0932 12.9689 922 67.0987 51.2961 512.789
918 0 71.1111 12.4594 886 68.5519 50.7968 512.951
919 0 71.0394 12.0215 854 70.452 51.2237 512.581
920 0 77.1478 13.5973 1049 67.1544 50.8837 511.264
921 0 77.1371 12.6658 977 69.4575 51.0665 512.427
922 0 80.1293 12.8168 1027 69.6358 50.925 509.12
923 0 82.1836 13.2021 1085 69.5401 50.4175 507.229
924 0 84.1972 14.0385 1182 68.3477 50.9188 507.816
925 0 87.1473 14.9747 1305 67.6054 50.6575 505.275
926 0 88.1125 13.4487 1185 71.0776 50.6599 503.697
927 0 89.1076 13.3546 1190 71.895 50.2084 502.292
928 1 52.0291 9.76377 508 73.0728 50.5335 525.76
929 0 50.0575 10.8675 544 74.0312 51.1636 523.285
930 0 51.0537 10.9884 561 74.6702 51.3387 522.052
931 0 55.0782 11.0752 610 73.1377 51.1525 523.161
932 0 56.0754 11.7164 657 73.0944 50.5784 522.706
933 0 56.0968 11.1593 626 74.9441 50.8115 521.449
934 0 59.0664 11.9526 706 73.687 51.4363 519.612
935 0 59.0817 12.085 714 75.5658 51.2661 514.385
936 0 63.0481 12.2763 774 74.4638 51.177 516.12
937 0 63.0548 13.0839 825 74.3806 51.3588 513.522
938 0 67.1729 11.4481 769 76.0611 51.078 514.458
939 0 68.0809 11.4129 777 76.5779 50.6049 515.369
940 0 68.1292 12.7552 869 75.0345 49.9816 514.313
941 0 71.0427 11.669 829 76.111 50.6936 514.69
942 0 73.1122 12.1594 889 75.8583 51.5849 512.282
943 0 73.0996 13.6253 996 74.1526 50.8404 510.38
944 0 75.1189 13.0593 981 75.3772 50.2548 508.886
945 0 77.1951 12.7987 988 75.6326 51.9626 506.069
946 0 79.2107 12.6498 1002 75.7625 51.6926 505.505
947 0 80.0604 12.6155 1010 75.1891 51.3317 508.797
948 0 83.1885 13.6197 1133 73.8138 50.9338 506.503
949 0 85.1487 14.551 1239 72.5125 51.5028 502.236
950 0 85.0401 11.865 1009 76.9941 51.7631 501.561
951 0 92.0817 13.7595 1267 73.0371 51.2423 500.612
952 0 92.0662 12.339 1136 75.228 51.4454 499.775
953 1 51.0582 11.9667 611 73.6612 51.4255 521.227
954 0 53.0481 11.367 603 74.0232 51.1758 520.881
955 0 52.0355 12.2993 640 74.3578 50.2 518.123
956 0 55.0263 11.2128 617 75.1118 51.0113 518.582
957 0 56.0749 12.7151 713 72.3015 51.3913 517.352
958 0 55.0695 12.2391 674 73.8368 51.1454 515.816
959 0 57.0845 12.8756 735 73.2082 51.4014 513.876
960 0 61.0258 12.7979 781 71.4648 51.0896 515.497
961 0 62.0988 13.1081 814 70.7727 51.274 513.908
962 0 65.0257 13.5946 884 69.5532 51.2907 513.994
963 0 65.0632 12.5724 818 72.3142 51.1553 512.257
964 0 69.1068 13.0089 899 70.7386 50.9077 510.089
965 0 70.1428 11.7617 825 72.6024 50.983 509.658
966 0 73.1568 12.2887 899 71.4149 51.3815 508.653
967 0 77.0591 12.8862 993 70.5891 50.9144 509.104
968 0 77.0733 12.287 947 71.8754 51.4298 506.771
969 0 78.1589 12.7689 998 71.7224 51.483 505.493
970 0 81.0893 11.2222 910 73.0209 51.5538 505.313
971 0 83.1888 12.7181 1058 71.4093 52.0113 501.13
972 0 88.0687 14.0913 1241 69.2353 51.9766 499.914
973 0 86.0677 11.247 968 73.6539 52.3089 498.487
974 0 93.1082 13.0601 1216 70.435 51.9712 498.664
975 1 49.045 11.2142 550 70.2673 51.5309 521.715
976 0 50.1919 11.6154 583 70.2298 51.8696 519.283
977 0 53.0838 11.642 618 71.0696 51.4563 517.806
978 0 52.0727 12.4249 647 70.3787 51.7558 517.411
979 0 54.1217 12.4165 672 70.3586 51.2068 515.711
980 0 54.0449 12.3601 668 71.0943 50.9775 516.844
981 0 58.1551 13.1717 766 69.5509 51.7298 515.283
982 0 59.1405 11.6164 687 71.5124 51.9301 513.994
983 0 60.0865 11.5334 693 72.1587 51.8095 514.651
984 0 62.1101 10.9805 682 72.7419 52.1525 513.765
985 0 62.1024 11.0463 686 73.3003 52.0802 510.519
986 0 65.0374 12.2391 796 71.2802 51.7299 512.633
987 0 66.048 11.4159 754 72.5398 51.935 513.951
988 0 69.1493 11.1787 773 73.7995 51.9987 510.229
989 1 105.218 10.7871 1135 63.6388 51.8097 499.165
990 0 114.733 12.1761 1397 60.247 51.7652 497.16
991 0 109.373 13.5043 1477 59.719 52.1232 494.557
992 0 121.196 14.621 1772 57.5903 52.5683 495.727
993 0 113.222 12.1531 1376 64.7369 51.7951 499.962
994 0 123.088 17.256 2124 55.3046 52.0174 490.211
995 0 126.154 12.7542 1609 63.2138 52.3654 495.915
996 0 126.813 19.2252 2438 54.1354 52.7412 486.688
997 0 126.01 20.8475 2627 53.1698 52.418 482.776
998 0 114.352 18.4781 2113 58.8486 51.8495 484.341
999 1 53.053 12.1954 647 72.1345 52.2751 518.207
1000 0 56.0441 13.0254 730 69.537 51.6685 520.937
1001 0 60.0575 14.0032 841 68.2747 52.3163 518.377
1002 0 59.0861 13.1842 779 70.2593 52.3261 517.104
1003 0 63.1302 12.7356 804 70.7799 51.8184 515.724
1004 0 65.0981 13.3952 872 68.7156 51.9966 517.235
1005 0 68.0803 12.6762 863 70.4171 51.6524 514.64
1006 0 71.0539 13.5531 963 68.4787 51.6916 514.489
1007 0 72.0929 13.982 1008 69.8998 51.6994 511.151
1008 0 74.0946 13.7662 1020 69.4794 51.0667 511.693
1009 0 77.0494 14.1208 1088 69.2574 51.6866 509.756
1010 0 79.0945 13.7051 1084 70.6522 51.5701 506.624
1011 0 84.0709 15.3204 1288 67.7003 51.9449 506.68
1012 0 85.2112 13.7541 1172 70.1911 51.4735 506.57
1013 0 88.0993 13.5642 1195 70.6201 51.1113 504.972
1014 0 94.2488 14.2495 1343 69.312 50.7491 502.943
1015 0 96.1328 14.5112 1395 68.8746 50.8086 504.455
1016 0 101.093 14.7093 1487 68.6335 51.2831 502.79
1017 1 54.0902 11.5178 623 72.6854 50.9631 522.759
1018 0 57.0853 12.6302 721 71.9209 51.2441 520.75
1019 0 60.1449 13.7834 829 70.5247 51.1448 518.169
1020 0 61.1123 14.2197 869 70.2209 51.0909 517.992
1021 0 62.0721 12.3566 767 72.7601 50.2086 517.3
1022 0 65.0767 12.7695 831 72.3333 50.4958 517.211
1023 0 68.1476 13.7936 940 70.2043 50.7872 517.13
1024 0 68.1197 14.5332 990 69.7788 50.6949 514.98
1025 0 71.0749 13.732 976 70.1014 50.7121 514.546
1026 0 73.0748 13.5888 993 71.4199 50.1762 511.413
1027 0 75.0371 13.8865 1042 70.2332 49.9856 514.253
1028 0 79.0978 13.7425 1087 70.1941 50.4471 510.864
1029 0 81.1201 14.2258 1154 69.1066 50.351 512.632
1030 0 82.1937 15.062 1238 69.1268 50.5646 508.657
1031 0 85.1105 14.1581 1205 70.7245 50.1436 507.554
1032 0 87.1239 13.9112 1212 71.2236 50.1592 506.922
1033 0 92.1315 14.5119 1337 69.9619 50.374 505.713
1034 0 92.0738 13.4783 1241 71.7994 50.5576 505.193
1035 0 96.1389 14.6351 1407 70.5146 50.5323 503.013
1036 0 97.0826 13.3804 1299 72.8114 50.147 500.657
1037 0 102.118 14.405 1471 70.639 50.1346 501.465
1038 0 106.11 15.1729 1610 69.7143 49.4565 498.325
1039 0 108.152 14.6183 1581 71.0114 49.6996 497.314
1040 0 113.121 15.0636 1704 70.1467 50.1432 494.902
1041 1 59.0623 12.2074 721 71.0652 49.939 520.552
1042 0 64.055 13.4416 861 68.7468 49.9907 520.872
1043 0 63.0658 11.7655 742 71.6199 50.2049 522.551
1044 0 64.0601 14.4708 927 68.5124 49.8274 519.847
1045 0 67.0996 13.2639 890 69.4888 49.1899 519.89
1046 0 69.0909 12.896 891 70.9181 49.1336 516.764
1047 0 72.1385 12.5869 908 70.7555 49.478 515.933
1048 0 72.1052 11.3445 818 72.7531 49.7359 515.523
1049 0 77.1438 13.1054 1011 69.9397 49.729 514.412
1050 0 78.19 14.145 1106 69.8174 49.7071 511.718
1051 0 78.0941 12.8563 1004 73.4801 49.503 513.62
1052 0 77.1424 13.339 1029 76.0107 49.2099 511.405
1053 0 75.1687 13.4231 1009 78.1239 48.4698 510.828
1054 0 76.1077 13.8356 1053 78.4881 49.4283 513.547
1055 0 78.0868 13.549 1058 79.3913 49.4461 513.25
1056 0 80.1246 14.2154 1139 78.59 49.583 512.595
1057 0 81.1533 13.9612 1133 79.6461 49.3522 511.818
1058 0 81.1451 13.3834 1086 81.4696 49.3131 510.377
1059 0 84.0939 12.9855 1092 81.4066 49.174 510.399
1060 0 86.0414 13.5167 1163 81.4858 49.4789 507.296
1061 0 90.0672 13.8452 1247 80.4515 49.7025 509.132
1062 0 92.0992 14.0283 1292 81.2307 49.6192 506.003
1063 0 95.0846 13.4932 1283 80.7677 50.1559 508.896
1064 0 97.0598 13.1156 1273 83.0636 50.055 503.857
1065 0 102.245 14.8173 1515 79.7782 49.9564 502.941
1066 0 105.088 13.5981 1429 82.1085 49.9195 502.855
1067 0 107.111 13.1359 1407 83.0412 49.5501 500.174
1068 1 56.0253 10.8165 606 83.4092 48.8944 524.67
1069 0 59.0953 12.2006 721 80.9736 48.853 523.126
1070 0 56.0778 11.6802 655 87.058 50.1298 521.618
1071 0 57.0318 12.1336 692 86.6806 50.0246 525.069
1072 0 59.0407 12.8386 758 86.467 49.9063 524.082
1073 0 59.0513 12.4976 738 88.0515 49.5772 524.138
1074 0 59.031 12.8746 760 90.7118 50.0618 523.786
1075 0 57.0239 12.0476 687 93.7176 49.6608 525.69
1076 0 57.0275 12.4501 710 95.2873 50.2789 523.349
1077 0 59.0667 13.8487 818 92.7628 50.2873 522.001
1078 0 59.0443 12.7701 754 95.7387 49.9801 524.537
1079 0 57.0498 13.0763 746 100.534 50.4115 522.808
1080 0 56.1263 15.1444 850 98.64 50.4753 523.445
1081 0 55.1543 14.1603 781 103.964 50.5237 522.314
1082 0 57.2569 14.793 847 101.917 50.5691 524.564
1083 0 56.087 15.0659 845 104.649 50.4521 523.225
1084 0 56.3002 15.8436 892 102.652 50.6469 524.266
1085 0 56.3053 14.8654 837 102.759 50.6523 526.479
1086 0 56.5489 15.8977 899 100.618 50.7108 526.143
1087 0 57.4997 15.6697 901 103.324 51.6826 524.943
1088 0 56.3139 15.4491 870 103.945 51.1966 526.102
1089 0 57.1399 15.6983 897 104.329 50.6477 525.28
1090 0 58.2535 16.2909 949 103.369 51.373 524.806
1091 0 58.1923 16.7204 973 102.427 51.4954 523.313
1092 0 61.2167 19.7005 1206 93.4502 51.9337 524.268
1093 0 58.3577 15.8162 923 105.794 50.9502 521.909
1094 0 58.841 15.4484 909 106.843 51.1529 523.176
1095 0 58.4316 15.4711 904 108.041 52.4192 522.825
1096 0 59.165 16.3103 965 105.808 51.5368 523.026
1097 0 56.3384 14.8567 837 112.311 50.5615 522.736
1098 0 56.361 15.0104 846 111.887 51.1206 523.28
1099 1 106.634 16.1768 1725 104.759 50.6684 501.714
