time division length width area intensity CMx CMy
0 0 38.0408 10.9356 416 67.4543 1095 485.606
1 0 39.0285 11.6069 453 66.9956 1094.91 484.91
2 0 43.0873 10.235 441 67.2449 1094.95 486.127
3 0 44.082 11.093 489 65.9018 1094.28 487.814
4 0 45.0889 11.8211 533 65.3265 1093.87 487.981
5 0 42.0256 9.28005 390 70.1769 1093.64 482.759
6 0 48.0405 10.8866 523 66.5373 1093.28 485.489
7 0 48.058 9.94632 478 67.6151 1093.22 484.513
8 0 55.3291 13.2299 732 44.8552 1093.76 480.725
9 0 52.0719 12.2139 636 65.8176 1093.64 480.821
10 0 54.1744 11.1676 605 66.643 1093.74 482.284
11 0 54.1744 11.2045 607 123.598 1093.74 482.247
12 0 58.1278 15.3283 891 61.9091 1093.21 479.444
13 0 58.0597 10.1447 589 68.09 1092.9 478.407
14 0 59.1117 13.1784 779 65.0578 1092.79 476.693
15 0 60.0833 11.4508 688 66.798 1092.25 479.577
16 0 64.1829 10.7973 693 67.5512 1092.58 475.821
17 0 65.039 11.9467 777 66.5367 1092.91 474.393
18 0 67.1182 12.9622 870 65.4092 1093.07 476.344
19 0 70.0967 11.8123 828 66.6763 1092.96 474.114
20 0 71.0909 12.2097 868 66.2293 1092.36 472.738
21 1 36.0943 12.1072 437 65.5034 1092.77 488.311
22 0 37.0481 11.2016 415 65.9205 1091.77 489.224
23 0 37.0219 10.6153 393 67.9262 1092.14 486.201
24 0 39.0359 11.4254 446 66.0336 1092.16 486.334
25 0 40.0231 9.71939 389 68.5244 1092.55 484.889
26 0 43.0798 13.5562 584 63.7997 1092.96 484.611
27 0 43.0687 11.3772 490 66.1326 1092.18 485.771
28 0 45.038 12.2119 550 65.1836 1091.99 485.325
29 0 48.0596 12.5885 605 64.4016 1092.15 484.084
30 0 48.0377 10.4293 501 66.7345 1092.24 485.445
31 0 50.0847 11.82 592 65.5541 1092.18 481.296
32 0 53.0652 11.8345 628 64.9188 1092.29 481.893
33 0 54.0646 11.0053 595 66.0588 1091.85 480.328
34 0 55.0576 12.4233 684 64.9035 1091.84 482.817
35 0 58.0807 12.4482 723 64.5712 1091.95 479.528
36 0 56.0381 11.7956 661 66.1301 1091.4 477.953
37 0 59.0563 13.5803 802 63.6721 1091.75 478.01
38 0 62.1218 12.5882 782 64.5409 1091.56 475.783
39 0 64.1265 11.8672 761 65.5099 1091.29 473.335
40 0 66.0609 10.9747 725 66.1531 1091.05 473.023
41 0 66.0609 11.0504 730 115.363 1091.05 473.052
42 0 69.0559 11.6138 802 65.9963 1091.77 471.68
43 0 74.116 12.6963 941 64.4283 1091.72 470.564
44 1 35.0191 11.6508 408 64.0858 1092.04 490.488
45 0 34.0549 9.39658 320 66.625 1091.65 490.059
46 0 36.0568 11.5651 417 65.0264 1091.79 486.782
47 0 36.0452 9.09969 328 68.3872 1092.06 486.348
48 0 38.0408 10.2784 391 66.9821 1092.03 486.923
49 0 39.0688 11.3646 444 65.6914 1091.7 487.815
50 0 40.0675 9.93325 398 67.6482 1091.34 486.289
51 0 41.0453 10.4519 429 67.5478 1091.34 483.131
52 0 44.071 11.3 498 66.0763 1091.44 482.661
53 0 45.0539 11.0534 498 65.7229 1092.2 484.464
54 0 46.0579 10.5302 485 66.8763 1091.61 481.701
55 0 48.0923 11.977 576 64.7917 1091.96 480.953
56 0 49.0538 10.8045 530 66.7226 1091.91 480.391
57 0 50.0211 10.3356 517 66.7331 1091.42 478.896
58 0 54.1083 12.1793 659 64.5994 1091.99 478.912
59 0 55.0741 13.0915 721 63.7171 1091.95 478.28
60 0 58.0658 12.0381 699 64.3977 1091.88 478.511
61 0 56.0403 10.6352 596 67.6024 1092.17 477.676
62 0 61.0903 11.3766 695 65.9799 1092.22 474.378
63 0 60.1252 11.0769 666 66.5285 1092.26 477.431
64 0 60.1252 11.0104 662 112.633 1092.26 477.594
65 0 65.103 11.7506 765 66.1961 1091.95 473.739
66 0 70.139 12.4325 872 64.7179 1091.93 472.865
67 0 68.0473 10.1253 689 68.0392 1091.58 471.607
68 0 74.06 12.6519 937 64.8495 1091.59 473.097
69 0 76.1784 9.8847 753 67.9283 1091.46 470.135
70 0 78.0892 10.9874 858 66.8939 1091.13 470.293
71 0 80.0657 12.3024 985 65.8234 1091.43 465.792
72 0 84.1059 10.7484 904 67.2743 1091.12 467.715
73 1 45.0357 12.2347 551 64.3376 1091.3 486.2
74 0 46.0395 12.6413 582 64.0756 1091.37 484.469
75 0 49.0936 12.0993 594 63.4461 1091.45 487.17
76 0 46.0582 9.16232 422 68.2299 1091.08 485.05
77 0 49.0707 11.8604 582 65.6254 1090.64 482.823
78 0 52.0295 11.8587 617 65.0178 1090.85 482.582
79 0 50.0517 10.5091 526 67.7072 1090.96 481.485
80 0 54.0702 11.5221 623 65.7801 1091.51 480.83
81 0 54.0702 11.4481 619 125.415 1090.52 480.745
82 0 58.0338 11.4761 666 65.6682 1091.16 478.371
83 0 58.0853 11.552 671 65.8748 1091.16 477.332
84 0 61.1216 12.5324 766 63.8212 1091.57 480.625
85 0 61.1216 12.5324 766 119.054 1092.57 480.625
86 0 63.0586 10.8629 685 66.9168 1091.48 475.432
87 0 67.1215 12.8573 863 64.4287 1091.64 473.657
88 0 68.0369 12.1846 829 65.4813 1091.32 473.17
89 0 71.114 11.4605 815 66.0245 1091.34 475.099
90 0 74.1174 11.4953 852 65.9225 1090.68 474.353
91 0 76.0278 11.9298 907 65.8655 1090.59 470.988
92 1 41.0347 10.0159 411 65.7129 1090.62 489.268
93 0 41.0549 9.74305 400 67.35 1090.75 487.675
94 0 41.0252 11.3345 465 67.0559 1091.24 485.452
95 0 43.0582 12.3321 531 64.8004 1091.39 487.072
96 0 43.0134 10.1131 435 68.1563 1091.24 484.607
97 0 46.0604 14.0251 646 62.808 1091.6 484.567
98 0 49.037 13.0718 641 63.3635 1091.46 483.629
99 0 49.0366 10.951 537 66.7914 1091.81 480.894
100 0 49.0916 12.1609 597 65.4472 1091.07 481.611
101 0 52.034 12.0882 629 65.5914 1091.21 481.682
102 0 53.0529 11.9692 635 65.3039 1091.16 481.265
103 0 56.0843 12.6238 708 64.267 1091.56 481.328
104 0 55.0713 11.2037 617 67.06 1091.88 478.274
105 0 58.0687 12.9846 754 64.2056 1090.76 478.068
106 0 58.0368 12.2853 713 65.8822 1090.93 477.24
107 0 61.0925 12.7839 781 64.8425 1091.23 477.84
108 0 63.237 12.3029 778 64.892 1091.32 478.437
109 0 61.0348 11.387 695 67.705 1091.77 474.613
110 0 65.0719 13.585 884 64.1278 1091.99 475.17
111 0 67.1313 12.3191 827 65.5852 1091.75 474.382
112 0 70.1358 12.5043 877 65.016 1091.47 472.632
113 0 70.1358 12.5471 880 125.585 1090.46 472.64
114 0 70.1358 12.6469 887 124.727 1089.49 472.54
115 0 76.0885 11.9072 906 65.7274 1091.47 468.432
116 0 78.1876 12.9177 1010 64.7832 1091.66 465.66
117 0 82.0638 13.5626 1113 63.5553 1092.08 467.837
118 0 83.0281 11.7551 976 65.7838 1092.14 465.117
119 1 41.0267 10.3835 426 65.7606 1092.11 487.965
120 0 46.0436 10.9896 506 64.5079 1092.29 487.747
121 0 44.0651 11.2107 494 65.415 1091.95 486.156
122 0 47.1658 11.449 540 64.5926 1091.29 485.667
123 0 47.0425 10.8625 511 66.0704 1091.41 482.751
124 0 50.1411 12.0659 605 64.3157 1091.56 482.712
125 0 50.0445 12.8685 644 63.3742 1091.66 484.259
126 0 50.0445 12.8885 645 117.788 1091.68 484.336
127 0 52.0544 11.5264 600 65.3133 1091.66 482.208
128 0 57.0498 12.7082 725 63.3793 1091.29 480.319
129 0 58.0585 12.4013 720 63.8875 1091.77 478.401
130 0 58.1206 12.1472 706 64.4348 1092.08 476.921
131 0 60.0492 12.1734 731 64.5964 1091.96 475.395
132 0 61.1366 11.9405 730 64.4137 1092.4 472.99
133 0 64.0467 13.3965 858 62.9534 1093.12 472.259
134 0 69.1314 12.8306 887 62.8354 1092.4 472.707
135 0 69.1314 12.8306 887 122.512 1091.4 472.707
136 0 70.1219 11.808 828 64.7391 1092.04 471.702
137 1 41.108 10.3873 427 64.2623 1092.33 487.429
138 0 41.0864 11.1229 457 63.7877 1092.64 485.779
139 0 43.1474 12.0517 520 62.75 1092.33 484.99
140 0 45.0752 12.2018 550 62.8018 1092.38 484.547
141 0 46.1443 12.4826 576 62.6615 1092.5 483.59
142 0 45.1593 9.854 445 65.9011 1092.75 484.218
143 0 51.0878 12.3317 630 62.473 1092.2 481.967
144 0 49.0901 12.528 615 62.9285 1092.23 481.694
145 0 52.168 10.6387 555 64.5982 1092.17 482.142
146 0 54.1212 12.047 652 62.9939 1091.68 483.035
147 0 53.1238 12.6873 674 63.4763 1091.17 479.991
148 0 56.1649 14.6711 824 61.0364 1091.41 479.365
149 0 55.1511 11.2962 623 64.8941 1090.81 476.929
150 0 59.1655 11.0368 653 64.8913 1091.44 477.274
151 0 60.104 11.2971 679 64.8895 1092.31 478.579
152 0 62.1184 11.1883 695 65.4777 1092.05 475.496
153 0 64.127 11.4928 737 65.0258 1091.51 475.053
154 0 65.1572 12.4161 809 64.0185 1091.68 473.194
155 0 67.1514 12.2857 825 64.36 1092.24 472.342
156 0 69.1907 11.649 806 65.0236 1092.4 472.514
157 0 72.0795 13.1105 945 63.3482 1092.31 471.277
158 0 72.1047 10.5402 760 66.454 1092.59 469.493
159 0 74.1443 12.6645 939 63.9798 1092.78 469.747
160 0 76.1865 11.5112 877 65.6876 1092.06 467.286
161 0 80.1372 10.9812 880 66.1114 1092.09 467.534
162 1 41.1386 12.1054 498 63.3916 1092.45 485.135
163 0 43.0904 11.0001 474 64.0527 1093.81 487.525
164 0 44.0372 12.0807 532 63.6128 1093.15 485.795
165 0 45.0803 10.3593 467 65.349 1093.03 485.792
166 0 47.1956 10.6366 502 64.6693 1092.56 484.351
167 0 47.1138 10.0608 474 66.2321 1092.57 484.42
168 0 48.0805 10.0665 484 65.1136 1092.39 485.975
169 0 52.0232 12.5136 651 62.9386 1093.11 481.538
170 0 52.1604 13.3626 697 62.4677 1092.3 480.654
171 0 54.1323 10.4559 566 65.1184 1091.99 482.564
172 0 54.1174 12.5653 680 63.4765 1092.49 480.981
173 0 57.2748 9.6552 553 66.1646 1092.23 479.986
174 0 57.0635 11.2156 640 65.1375 1092.56 478.977
175 0 57.0635 11.3207 646 116.156 1092.57 478.952
176 0 62.0612 11.2792 700 64.9986 1092.57 475.813
177 0 67.0849 12.3277 827 63.4849 1092.98 475.701
178 0 65.0412 9.94753 647 66.7002 1092.46 473.032
179 0 71.1951 13.161 937 62.8079 1091.6 473.655
180 0 72.0691 12.6268 910 63.8088 1091.62 469.158
181 0 75.2189 12.1911 917 64.5463 1091.06 470.756
182 0 78.1443 13.4495 1051 62.9629 1091.76 468.481
183 0 80.1874 14.4536 1159 61.5375 1091.95 469.311
184 1 41.0187 10.2636 421 63.7743 1092.04 488.546
185 0 44.0647 10.2576 452 63.7478 1091.72 487.299
186 0 44.0435 10.535 464 64.9203 1092.05 484.317
187 0 44.0435 10.5123 463 112.983 1092.06 484.222
188 0 47.064 12.6211 594 62.0707 1092.48 484.941
189 0 48.1233 13.4031 645 61.369 1092.27 483.206
190 0 48.074 10.5046 505 65.1802 1092.03 482.448
191 0 48.074 10.5462 507 108.158 1092.02 482.479
192 0 53.0638 10.9868 583 64.518 1092.24 479.48
193 0 52.0316 11.2432 585 64.6051 1092.15 480.101
194 0 55.2365 12.1478 671 63.392 1092.19 479.946
195 0 58.0663 12.9507 752 62.4521 1092.27 476.693
196 0 57.1261 10.7131 612 65.2075 1092.71 475.904
197 0 60.0315 12.6434 759 63.0092 1092.61 473.924
198 0 63.0444 11.7695 742 63.4663 1092.69 472.546
199 0 64.0761 11.7204 751 63.7217 1092.73 473.582
200 0 67.039 10.6654 715 64.8392 1091.9 472.288
201 0 71.0706 13.972 993 60.6002 1091.96 473.348
202 0 71.0721 12.1567 864 62.9016 1092 469.367
203 0 71.1344 10.4169 741 65.0189 1092.2 468.594
204 1 36.0395 11.0157 397 64.0982 1092.05 486.945
205 0 40.0396 12.4627 499 62.0942 1091.71 486.381
206 0 39.0157 10.7393 419 64.1217 1092.16 485.905
207 0 40.0444 11.0627 443 62.7901 1091.93 486.589
208 0 42.0612 10.556 444 63.2522 1091.94 483.752
209 0 42.0659 10.5549 444 63.4414 1091.69 482.412
210 0 44.0589 11.9613 527 62.093 1091.41 482.81
211 0 44.0589 11.9386 526 102.243 1091.42 482.741
212 0 48.0827 11.8338 569 61.8102 1092.02 482.186
213 0 48.0417 10.0329 482 64.0664 1091.84 481.846
214 0 50.1431 12.2848 616 61.1656 1091.56 480.266
215 0 51.0425 13.1459 671 60.7437 1091.98 477.933
216 0 53.1268 8.82793 469 64.8401 1092.07 478.409
217 0 55.0612 12.1683 670 60.6836 1091.84 479.328
218 0 58.125 11.8366 688 61.3532 1091.96 478.759
219 0 58.098 11.5494 671 61.9076 1091.37 474.544
220 0 60.1366 13.5026 812 60.0985 1091.64 473.245
221 0 60.0779 10.503 631 63.3566 1091.82 474.044
222 0 64.1557 11.8462 760 61.775 1091.6 472.139
223 0 68.175 11.5878 790 61.6785 1092.05 471.922
224 0 68.1303 10.4212 710 63.169 1091.52 466.258
225 0 68.1303 10.3331 704 109.463 1090.52 466.311
226 0 76.1199 12.165 926 60.9676 1091.01 465.292
227 0 78.0655 11.6313 908 61.5969 1090.9 466.236
228 0 80.0502 11.4678 918 61.9848 1091.44 465.59
229 1 43.0618 11.3326 488 61.8443 1091.66 484.467
230 0 45.0485 12.5642 566 60.3728 1090.99 484.198
231 0 50.0675 14.2408 713 57.8415 1091.55 483.764
232 0 50.0573 12.7454 638 59.6881 1090.1 483.55
233 0 52.0176 11.2077 583 60.7256 1091.08 483.575
234 0 52.0408 12.6439 658 60.0228 1091.15 480.327
235 0 54.0961 13.3281 721 59.1304 1091 481.392
236 0 58.2209 13.3801 779 58.4519 1091.29 482.164
237 0 58.0816 14.9789 870 57.4368 1090.98 477.409
238 0 61.1146 13.5974 831 58.8797 1091.05 477.491
239 0 62.123 13.425 834 59.3357 1091.39 476.025
240 0 63.1181 13.5619 856 59.3785 1091.72 476.278
241 0 65.1232 12.8833 839 59.9416 1091.63 473.746
242 0 65.1347 11.2075 730 62.1329 1091.66 473.988
243 0 67.0709 12.9714 870 60.9161 1091.99 472.101
244 0 69.1725 11.9122 824 61.9587 1091.33 472.385
245 0 72.217 13.4733 973 60.0504 1091.02 470.384
246 0 73.1179 12.3636 904 61.083 1091.31 470.249
247 0 77.0238 11.6068 894 61.6096 1091.46 471.917
248 0 79.0717 13.8482 1095 59.8146 1090.99 466.269
249 0 82.1244 11.8479 973 61.5961 1091.49 465.058
250 1 42.3195 10.1372 429 62.2401 1091.12 484.949
251 0 43.0276 11.8528 510 61.2588 1091.28 484.414
252 0 43.0354 9.80588 422 63.4976 1091.25 484.443
253 0 45.0526 11.986 540 61.5796 1091.17 482.493
254 0 46.0361 12.5988 580 60.8414 1091.47 482.534
255 0 48.1829 11.4564 552 61.5544 1091.03 482.504
256 0 51.13 12.0086 614 60.6792 1090.25 482.049
257 0 52.085 10.9244 569 62.2953 1090.49 480.599
258 0 54.1051 10.9047 590 62.0746 1090.79 479.517
259 0 54.0474 10.8053 584 62.3767 1091.11 479.022
260 0 55.1043 10.707 590 62.6695 1091.31 478.464
261 0 59.0734 13.6102 804 59.158 1091.46 476.675
262 0 59.15 13.0854 774 60.2416 1091.6 475.048
263 0 64.1913 12.8366 824 59.8034 1091.16 472.928
264 0 65.0982 10.584 689 62.2714 1091.01 472.624
265 0 67.0806 11.27 756 61.545 1091.24 471.239
266 0 67.0806 11.27 756 121.627 1091.24 471.239
267 0 71.1695 13.3203 948 59.5432 1091.84 468.32
268 0 72.0702 10.8367 781 62.42 1091.35 468.296
269 0 78.1732 13.4445 1051 59.2131 1091.19 467.459
270 0 79.1315 13.0416 1032 59.97 1092 466.529
271 0 83.0371 12.6088 1047 60.2789 1092.25 464.309
272 0 85.1436 13.765 1172 59.1783 1091.86 464.668
273 1 44.0749 10.3914 458 62.2402 1091.54 482.821
274 0 47.0489 11.7112 551 60.6552 1090.89 484.212
275 0 48.0632 11.1104 534 62.3596 1091.04 480.217
276 0 51.1037 14.4217 737 58.4356 1091.49 481.175
277 0 53.0739 12.6427 671 60.5812 1091.39 479.866
278 0 55.1271 12.97 715 60.442 1090.91 477.084
279 0 57.1073 11.8198 675 61.4311 1090.63 477.11
280 0 59.0521 11.5491 682 61.6672 1091.56 478.078
281 0 61.0583 12.6109 770 61.1727 1091.73 477.162
282 0 62.0497 9.97587 619 63.2149 1091.92 479.079
283 0 62.2193 11.9577 744 62.3911 1091.29 475.876
284 0 67.1362 12.6162 847 61.3896 1091.45 474.753
285 0 68.128 11.038 752 63.4747 1091.11 473.237
286 0 72.0687 12.2244 881 61.8978 1091.49 470.967
287 0 73.1207 11.693 855 62.3778 1091.37 473.73
288 0 77.1388 12.7822 986 61.6521 1090.93 469.347
289 0 79.2576 11.4689 909 62.3839 1090.98 471.033
290 0 82.0636 11.2961 927 62.9763 1090.72 468.706
291 0 81.0816 10.8779 882 136.247 1089.68 467.714
292 1 42.0174 10.8764 457 61.3917 1091.34 488.096
293 0 43.0425 11.5467 497 62.2394 1091.38 485
294 0 43.0288 11.5969 499 61.7495 1090.9 486.275
295 0 46.025 12.6453 582 61.4296 1090.56 482.911
296 0 47.0714 12.6404 595 61.4202 1090.48 483.408
297 0 50.0402 11.3509 568 62.8592 1091.14 482.033
298 0 47.0314 10.3335 486 64.6543 1091.54 481.051
299 0 51.0322 12.3647 631 62.4881 1091.94 479.513
300 0 51.0322 12.3059 628 115.623 1091.92 479.583
301 0 56.3023 13.0545 735 61.4395 1091.92 477.841
302 0 58.0821 13.0333 757 61.5971 1091.34 477.07
303 0 60.1204 12.6579 761 61.5926 1091.43 478.091
304 0 61.156 13.0649 799 61.8986 1091.07 476.069
305 0 64.2092 12.0544 774 62.7003 1090.88 473.941
306 0 66.0317 12.5394 828 62.1377 1090.91 474.521
307 0 70.127 12.1066 849 62.5371 1090.98 472.759
308 0 70.2107 14.0862 989 60.7048 1091.84 470.933
309 0 73.1504 13.3424 976 61.6004 1091.73 469.087
310 0 75.06 12.2702 921 62.9142 1091.23 468.229
311 0 78.1001 13.5595 1059 61.2918 1091.01 469.963
312 0 80.0783 12.9748 1039 62.2214 1091.31 467.398
313 1 47.1708 12.3169 581 61.7849 1091.14 483.382
314 0 48.1782 11.3537 547 62.6691 1090.79 485.139
315 0 51.1067 10.7422 549 63.1985 1090.83 484.14
316 0 51.0275 11.5232 588 62.7177 1090.82 482.366
317 0 51.0285 12.4832 637 61.6531 1090.93 481.014
318 0 52.1109 11.5907 604 63.2632 1090.36 478.952
319 0 54.082 12.4071 671 62.5961 1090.58 478.064
320 0 56.1252 10.5835 594 64.7677 1091.54 477.111
321 0 56.1252 10.6013 595 127.682 1092.53 477.066
322 0 57.0713 11.8974 679 64.5935 1091.18 474.501
323 0 61.0787 13.016 795 62.6038 1090.87 474.04
324 0 65.2475 10.5904 691 64.4993 1091.25 474.385
325 0 67.181 12.6226 848 62.8467 1090.71 470.675
326 0 67.0801 11.6577 782 63.7046 1090.97 472.272
327 0 69.0518 12.7296 879 62.8043 1090.54 465.953
328 0 74.0853 13.7679 1020 61.0843 1090.8 468.793
329 0 75.1357 13.5887 1021 61.3477 1091.24 468.094
330 0 78.1098 12.508 977 62.4248 1091.44 464.952
331 0 78.0951 11.6525 910 63.7528 1091.05 464.688
332 0 83.118 12.4762 1037 62.5207 1091.44 461.43
333 0 87.111 13.5459 1180 61.1864 1091.57 462.567
334 0 90.096 12.6199 1137 61.9666 1091.18 461.835
335 1 44.1908 12.5592 555 60.6432 1091.7 482.735
336 0 44.1282 9.767 431 63.2111 1091.68 484.288
337 0 48.0193 10.0793 484 63.3016 1091.67 483.471
338 0 51.1246 11.9121 609 61.3218 1090.7 479.966
339 0 51.2023 12.9486 663 60.0211 1090.79 480.624
340 0 50.0286 10.514 526 63.3612 1090.75 480.688
341 0 53.0934 11.4703 609 62.6174 1090.74 478.488
342 0 55.1337 12.5513 692 60.9277 1091.16 477.877
343 0 58.0877 12.4123 721 60.3273 1090.71 477.707
344 0 59.1541 11.5968 686 61.5437 1091.52 474.665
345 0 59.1246 11.6872 691 61.9508 1090.34 472.26
346 0 62.0348 11.4774 712 61.493 1090.19 472.66
347 0 65.1351 12.8502 837 60.2832 1091.1 471.14
348 0 67.0765 10.9427 734 62.4482 1090.45 470.371
349 0 68.2075 12.418 847 60.9894 1090.56 468.034
350 0 71.1558 12.1705 866 60.8695 1090.38 467.734
351 0 73.1427 11.7305 858 61.9056 1090.25 464.896
352 0 76.0746 12.2906 935 61.4128 1090.1 465.031
353 0 78.1641 11.0409 863 62.5388 1090.28 464.649
354 0 80.1104 11.7713 943 62.2121 1090.65 464.054
355 0 87.1019 12.3074 1072 60.973 1090.69 464.521
356 0 89.11 14.5326 1295 59.078 1090.69 461.272
357 0 89.0976 12.2001 1087 61.8592 1090.99 461.53
358 0 96.2245 12.9385 1245 60.3084 1090.77 462.406
359 1 49.0584 11.0481 542 61.238 1091.25 482.803
360 0 49.0276 12.3196 604 60.394 1090.92 481.301
361 0 53.2243 11.987 638 60.6223 1090.84 480.193
362 0 53.1457 11.5343 613 61.261 1091.4 480.385
363 0 55.1682 13.2504 731 60.2312 1091.06 478.818
364 0 57.2248 12.3198 705 61.1631 1090.8 477.366
365 0 59.1922 10.9136 646 62.2941 1090.69 478.577
366 0 59.1922 10.9643 649 127.709 1090.67 478.473
367 0 63.1348 12.307 777 61.278 1090.84 475.391
368 0 63.2056 11.1857 707 63.2914 1091.08 474.044
369 0 66.1812 13.463 891 60.3939 1091.81 471.738
370 0 69.1453 13.233 915 61.2175 1092.07 470.378
371 0 72.1516 13.1806 951 60.8496 1091.88 469.29
372 0 74.1713 11.7835 874 62.9519 1091.59 468.154
373 0 77.1353 13.6643 1054 61.0057 1091.31 464.347
374 0 80.2373 13.485 1082 61.4704 1092.08 465.21
375 0 82.1572 12.5613 1032 62.2723 1091.51 465.184
376 0 87.1871 12.0545 1051 62.7507 1090.93 463.556
377 0 89.2617 12.1105 1081 63.2054 1091.01 461.249
378 1 46.0365 11.2085 516 62.7597 1090.92 482.021
379 0 50.0618 11.2261 562 61.9591 1090.9 482.557
380 0 45.1212 9.08664 410 67.978 1091.32 479.312
381 0 49.0643 9.27355 455 67.0286 1090.68 477.363
382 0 52.1317 12.5451 654 63.5658 1090.94 475.694
383 0 55.2103 12.1716 672 63.4539 1090.63 476.052
384 0 56.0796 10.8417 608 64.8536 1090.41 475.414
385 0 60.0881 12.0989 727 62.7923 1090.69 474.374
386 0 62.102 13.1397 816 61.8198 1089.74 471.619
387 0 65.1191 13.7133 893 60.8063 1089.88 470.362
388 0 65.1573 13.383 872 61.8245 1090.31 471.546
389 0 69.126 14.6544 1013 59.7118 1090.1 470.035
390 0 70.1188 12.5359 879 62.4994 1089.98 468.982
391 0 72.2721 11.6366 841 63.5018 1089.7 466.831
392 0 72.2721 11.6781 844 119.345 1088.7 466.673
393 0 78.0555 12.3118 961 62.8387 1090.14 462.521
394 0 81.2051 11.4279 928 63.625 1090.28 461.316
395 0 83.1425 12.3763 1029 62.8037 1090.34 461.136
396 1 41.0301 11.1138 456 64.5044 1090.41 480.496
397 0 41.0301 11.2357 461 117.941 1092.4 480.462
398 0 43.0365 10.1309 436 65.7041 1091.07 482.784
399 0 44.0571 10.7815 475 65.3747 1090.99 481.349
400 0 46.044 10.9243 503 64.9602 1091.24 481.262
401 0 46.0168 10.9743 505 65.1683 1090.51 480.865
402 0 50.1196 11.3928 571 64.3187 1090.7 478.961
403 0 51.0563 11.0074 562 65.0356 1090.52 476.948
404 0 52.0537 10.7773 561 65.7255 1090.31 475.021
405 0 56.1323 12.2033 685 63.1781 1090.2 475.375
406 0 55.0335 11.7383 646 64.4969 1089.81 473.46
407 0 56.0347 10.6363 596 65.8926 1090.35 473.676
408 0 60.3111 12.3526 745 63.4631 1089.87 472.909
409 0 63.0678 13.0177 821 62.4312 1090.41 470.7
410 0 65.1236 12.6529 824 62.7646 1090.94 470.705
411 0 66.0762 12.5764 831 62.7401 1091.15 467.587
412 0 68.0662 12.5172 852 62.8181 1090.75 467.617
413 0 69.3155 10.4883 727 65.0082 1090.74 465.527
414 0 69.3155 10.6903 741 107.402 1090.74 465.649
415 0 76.1027 13.7052 1043 61.0336 1090.87 463.911
416 0 80.1746 12.3855 993 62.1047 1090.99 462.738
417 1 41.0919 10.8537 446 63.1637 1091.04 484.814
418 0 41.0308 11.7716 483 63.1284 1091.57 484.315
419 0 43.0474 11.5222 496 63.1774 1091.3 483.627
420 0 46.337 13.3371 618 60.6974 1091.5 482.081
421 0 46.0691 12.5898 580 62.6259 1091.37 481.431
422 0 48.14 11.9651 576 62.5295 1091.1 481.411
423 0 49.0774 11.4717 563 63.5631 1091.04 480.856
424 0 51.0569 12.7309 650 61.8723 1091.35 482.483
425 0 53.146 13.0019 691 61.369 1091.29 482.938
426 0 53.0687 12.7947 679 61.7644 1091.35 480.988
427 0 55.1127 14.7879 815 60.0417 1091.58 479.103
428 0 57.0409 15.3048 873 59.6231 1091.16 476.005
429 0 57.1266 11.3257 647 63.9459 1091.54 476.594
430 0 60.0678 15.8488 952 59.1502 1092.03 475.596
431 0 62.0629 12.6968 788 62 1091.97 475.514
432 0 65.0243 13.4257 873 60.874 1091.76 476.552
433 0 66.1375 13.2905 879 61.1809 1091.86 474.882
434 0 68.0651 12.9141 879 62.0114 1091.33 471.08
435 0 71.3538 12.2628 875 62.088 1091.18 472.597
436 0 73.11 12.1324 887 62.4149 1090.8 469.856
437 0 76.1616 13.1825 1004 61.1853 1091.21 469.695
438 0 78.067 14.59 1139 60.1852 1091.39 468.913
439 0 80.1051 13.0953 1049 61.9094 1091.29 465.921
440 0 82.0774 12.6101 1035 62.7729 1091.21 468.663
441 1 41.039 10.2098 419 65.3652 1091.33 484.907
442 0 46.1422 12.3531 570 62.7544 1091.48 484.27
443 0 48.041 12.1146 582 63.323 1091.19 483.07
444 0 50.0775 13.1596 659 62.0334 1091.04 482.02
445 0 50.0373 12.4507 623 63.6421 1091.01 480.488
446 0 51.0988 12.7987 654 63.3165 1090.71 480.894
447 0 52.1142 11.9545 623 64.8941 1091.04 480.09
448 0 55.0241 12.9216 711 62.6034 1090.44 482.058
449 0 55.0405 13.0086 716 128.378 1090.48 482.07
450 0 58.0509 12.0584 700 63.85 1090.69 480.63
451 0 61.0988 13.6009 831 62.4814 1091.12 476.369
452 0 64.0651 12.3156 789 63.7275 1090.6 476.54
453 0 66.1952 12.8861 853 62.7292 1090.76 476.999
454 0 66.1009 10.484 693 65.3752 1091.13 476.049
455 1 37.1821 11.4033 424 63.4127 1091.07 490.429
456 0 38.0707 12.7395 485 62.2412 1090.59 489.687
457 0 38.1467 11.5082 439 64.0752 1091.2 489.886
458 0 39.0543 12.1113 473 63.74 1090.91 489.586
459 0 41.2405 12.3422 509 63.4303 1090.91 489.831
460 0 43.0752 11.7005 504 65.1984 1091.21 486.649
461 0 43.0569 12.6112 543 64.7698 1091.3 485.567
462 0 44.0243 12.2887 541 65.1904 1091.31 484.815
463 0 46.0786 12.6089 581 64.642 1091.46 485.184
464 0 47.1091 13.1822 621 64.8953 1091.5 483.085
465 0 48.0597 13.7745 662 64.3489 1091.4 483.64
466 0 48.0382 11.137 535 68.3645 1091.28 482.364
467 0 51.1193 12.7154 650 66.5969 1090.86 483.103
468 0 53.0685 12.8513 682 66.2962 1090.71 480.925
469 0 54.0296 13.4741 728 66.0179 1091.08 481.298
470 0 57.1311 12.6201 721 66.699 1090.56 479.899
471 0 59.0744 12.0018 709 68.2468 1090.68 478.258
472 0 61.1385 12.8724 787 66.9911 1090.71 477.447
473 0 63.0656 11.6387 734 68.1485 1090 477.484
474 0 65.2982 13.2929 868 66.8042 1090.02 474.267
475 0 68.0871 12.1903 830 67.6554 1090.1 474.64
476 0 70.08 14.1695 993 64.9597 1090.64 474.398
477 0 74.0421 12.5874 932 66.7854 1090.89 472.579
478 0 75.18 13.1551 989 66.2498 1090.53 470.889
479 0 78.0583 13.0287 1017 66.3648 1090.63 469.804
480 1 37.0667 10.8453 402 67.6866 1090.43 489.702
481 0 37.0323 9.99126 370 68.1486 1089.62 489.711
482 0 40.0963 11.4225 458 66.5699 1090.99 489.358
483 0 40.0963 11.2978 453 111.845 1091.99 489.483
484 0 42.0384 10.7045 450 68.4422 1090.48 485.884
485 0 44.0192 12.0175 529 66.1342 1090.46 488.053
486 0 43.0691 10.8895 469 69.1386 1090.99 484.655
487 0 48.0762 14.1234 679 63.785 1090.67 485.159
488 0 48.1442 12.608 607 65.8896 1090.86 483.68
489 0 49.0668 12.5747 617 66.1572 1090.94 483.723
490 0 53.1382 13.606 723 63.7925 1090.88 484.402
491 0 53.1126 14.3657 763 63.2385 1090.94 483.114
492 0 52.0628 12.1008 630 66.8921 1091.14 480.748
493 0 55.0291 12.3571 680 66.1632 1091.32 480.574
494 0 58.0951 12.841 746 65.0925 1091.06 479.849
495 0 59.2112 12.4301 736 65.8288 1090.74 479.383
496 0 62.1061 11.899 739 65.8647 1090.85 479.437
497 0 64.0622 13.0342 835 65.2814 1090.73 475.735
498 0 63.1723 11.714 740 67.0973 1090.96 473.846
499 0 68.112 12.685 864 64.9676 1091 475.626
500 0 71.177 13.7263 977 63.6684 1090.52 473.144
501 1 38.1663 11.9739 457 64.4398 1090.6 489.039
502 0 40.0525 11.5598 463 64.7559 1090.93 488.415
503 0 37.092 10.2448 380 68.3395 1091.23 487.245
504 0 42.1625 12.1435 512 64.5098 1090.73 487.059
505 0 42.063 13.0043 547 64.2706 1090.74 484.814
506 0 45.0126 12.0411 542 65.1808 1090.58 484.314
507 0 46.1456 11.1603 515 66.1437 1090.14 483.794
508 0 44.0193 12.7444 561 65.5009 1091.19 485.285
509 0 46.0398 10.3606 477 68.6897 1091.29 481.564
510 0 50.0392 12.2104 611 65.3764 1091.06 481.098
511 0 51.055 11.85 605 65.5868 1091.15 481.59
512 0 54.0357 10.9927 594 66.3737 1091.27 481.2
513 0 55.0403 11.7732 648 66.1343 1090.96 478.844
514 0 58.1025 12.805 744 64.3414 1091.1 478.875
515 0 57.0764 11.1254 635 67.2189 1090.48 476.11
516 0 60.0334 11.7768 707 67.3635 1090.86 474.802
517 0 62.0299 11.43 709 68.1298 1090.6 473.834
518 0 66.0504 13.1263 867 58.1303 1090.03 477.148
519 0 67.0714 14.3728 964 64.8527 1090.84 472.188
520 0 70.098 13.6523 957 65.3929 1090.7 471.094
521 0 73.0533 12.7441 931 66.8228 1090.6 468.105
522 0 76.1246 11.2973 860 68.2081 1090.2 469.372
523 0 79.0857 12.8342 1015 66.53 1090.07 466.301
524 0 82.1351 13.5752 1115 64.974 1089.91 465.053
525 0 85.0836 12.9872 1105 65.7946 1089.73 463.481
526 0 89.0665 12.1819 1085 65.8931 1089.31 461.197
527 0 88.0662 11.3097 996 67.5522 1089.83 460.061
528 0 94.1208 13.9502 1313 63.9672 1090.1 457.881
529 0 97.0869 12.7824 1241 65.2071 1089.71 455.674
530 0 101.105 13.4414 1359 64.1619 1090.4 454.246
531 0 107.147 13.7848 1477 63.2085 1090.57 454.712
532 0 105.17 10.8871 1145 67.2629 1090.39 452.755
533 0 109.112 13.3716 1459 64.3619 1091.22 446.972
534 0 113.054 11.3574 1284 66.19 1090.64 446.322
535 1 58.1155 9.01653 524 68.0382 1090.84 474.531
536 0 62.0275 11.0274 684 64.8977 1090.95 475.611
537 0 66.1138 12.1457 803 63.0112 1091.11 473.116
538 0 67.0606 11.8251 793 63.4994 1090.71 472.295
539 0 68.0892 10.8975 742 64.7008 1090.92 470.923
540 0 68.0531 10.4771 713 65.2188 1090.79 470.234
541 0 72.0465 12.4642 898 63.137 1090.87 467.156
542 0 76.0525 10.5979 806 64.6352 1090.54 466.398
543 0 80.0854 13.4232 1075 61.1033 1090.62 463.413
544 0 82.1575 12.8412 1055 61.5109 1090.62 463.064
545 0 82.0512 12.736 1045 61.9665 1090.72 461.02
546 0 89.0668 12.4401 1108 61.6453 1090.45 460.055
547 0 90.0622 11.1923 1008 62.8601 1090.18 456.57
548 0 94.159 11.0451 1040 62.8144 1090.59 456.573
549 0 97.11 13.6855 1329 60.0451 1090.09 454.728
550 0 102.116 12.0158 1227 61.5216 1090.36 451.602
551 1 50.0768 10.0046 501 63.7645 1090.16 478.401
552 0 54.1927 12.0127 651 60.6528 1090.36 479.032
553 0 53.0554 11.0828 588 62.6582 1090.55 477.012
554 0 56.039 11.0102 617 62.705 1090.83 475.073
555 0 58.051 11.421 663 62.1614 1090.09 473.003
556 0 61.06 11.6115 709 61.7687 1089.8 471.88
557 0 62.0925 12.9001 801 60.5543 1089.74 470.527
558 0 64.0609 10.6929 685 62.6044 1090.12 468.564
559 0 67.0762 10.4061 698 62.6476 1090.08 467.544
560 0 69.035 11.6028 801 61.4357 1090.46 468.102
561 0 70.0613 12.0466 844 61.2275 1090.58 467.87
562 0 73.0774 11.1936 818 61.8117 1090.56 466.347
563 0 75.0943 12.4244 933 60.8403 1090.11 468.055
564 0 80.0965 10.7246 859 62.4913 1089.94 463.447
565 0 82.0773 12.4395 1021 61.0637 1090.45 461.865
566 0 84.1161 11.5911 975 61.7528 1089.82 459.06
567 0 89.1103 13.6685 1218 59.376 1090.05 463.899
568 1 45.0937 11.7755 531 61.2298 1089.76 482.395
569 0 44.0849 11.183 493 62.4584 1089.55 482.284
570 0 47.0462 12.5409 590 60.5068 1089.02 480.873
571 0 46.1302 10.492 484 64.2583 1089.13 478.692
572 0 50.0689 12.0234 602 61.7874 1088.8 480.49
573 0 51.1889 11.0766 567 63.2681 1088.51 478.841
574 0 51.1073 13.8336 707 61.2829 1089.01 477.444
575 0 54.149 12.8534 696 61.9684 1088.99 478.527
576 0 56.1195 12.4912 701 62.1412 1088.39 478.934
577 0 55.0203 12.0501 663 63.8673 1089 475.092
578 0 58.1243 13.9357 810 61.4728 1089.65 474.49
579 0 58.1243 14.0045 814 116.584 1089.63 474.518
580 0 64.0404 14.3347 918 60.7211 1090.03 474.939
581 0 66.0499 12.8539 849 62.6608 1089.28 471.491
582 0 67.1267 12.6924 852 63.1185 1089.95 470.579
583 0 68.0389 12.1842 829 63.9614 1089.59 472.005
584 0 71.0679 13.4238 954 62.8354 1089.63 467.95
585 0 72.1042 11.3308 817 65.5251 1090.06 466.529
586 0 76.1267 12.5711 957 63.7126 1089.93 467.768
587 0 78.0549 12.5809 982 64.0224 1089.69 465.391
588 0 82.0485 12.5779 1032 64.3508 1090.27 461.094
589 0 84.0564 14.1572 1190 62.6487 1089.93 460.699
590 1 40.0128 11.1714 447 65.1834 1090.11 483.358
591 0 41.0594 9.44971 388 67.3789 1089.87 483.75
592 0 44.0688 11.9586 527 64.2619 1090.04 482.575
593 0 46.04 13.2493 610 63.2852 1089.68 479.069
594 0 47.0872 12.8697 606 63.7739 1089.67 480.127
595 0 47.1535 13.6575 644 62.7624 1089.89 480.891
596 0 50.0387 13.7893 690 62.6362 1089.6 479.867
597 0 52.0773 11.8478 617 64.5656 1089.53 478.817
598 0 52.0425 13.7196 714 63.1919 1089.59 478.235
599 0 55.0764 12.8004 705 64.3177 1089.6 479.712
600 0 55.0764 12.7278 701 126.748 1089.6 479.708
601 0 57.0614 14.2303 812 62.5246 1089.98 477.522
602 0 58.0439 14.5407 844 63.0415 1089.33 475.229
603 0 55.0714 10.3865 572 68.549 1089.45 469.645
604 0 63.0671 14.0327 885 63.426 1089.75 473.002
605 0 69.0418 13.0066 898 63.647 1089.71 471.875
606 0 68.0324 12.1707 828 66.0435 1089.87 470.129
607 0 72.0275 14.6194 1053 62.906 1090.31 468.41
608 0 71.0488 13.8919 987 64.7052 1089.57 466.505
609 0 75.1642 13.251 996 64.9157 1089.23 467.598
610 0 77.0468 13.1479 1013 65.3366 1089.51 465.892
611 1 37.0206 10.0755 373 67.7185 1089.91 483.3
612 0 40.0611 11.2328 450 65.4778 1089.21 485.307
613 0 39.0518 12.3682 483 65.3996 1089.59 483.507
614 0 41.0878 11.9257 490 66.0347 1089.34 481.58
615 0 40.0275 10.9175 437 67.8558 1089.21 481.247
616 0 43.1532 11.1927 483 67.323 1089.15 481.122
617 0 44.0428 11.784 519 66.8131 1089.3 482.16
618 0 47.0435 13.2643 624 64.367 1089.42 482.396
619 0 47.0431 12.9456 609 65.867 1089.23 478.706
620 0 49.0255 12.2589 601 65.6173 1089.17 479.709
621 0 51.1852 13.3828 685 64.3737 1089.39 478.724
622 0 52.0276 11.6477 606 66.3399 1089.42 480.19
623 0 51.0499 11.4202 583 67.446 1089.98 476.515
624 0 56.1139 12.7241 714 65.0476 1089.98 477.423
625 0 56.0689 12.0744 677 65.8567 1089.96 476.564
626 0 57.0302 11.0292 629 67.0318 1089.84 475.539
627 0 57.0302 11.0643 631 127.105 1089.87 475.228
628 0 64.1354 12.6295 810 64.5864 1089.64 473.967
629 0 65.0399 12.746 829 64.0688 1090.02 472.668
630 0 66.0655 13.6683 903 63.5238 1089.81 470.113
631 0 66.0702 11.4272 755 66.6238 1089.8 471.127
632 0 70.1602 12.9988 912 64.3213 1089.85 469.401
633 0 73.0757 14.4371 1055 62.5299 1089.91 469.413
634 1 35.0721 12.4601 437 63.389 1089.56 488.114
635 0 37.0994 10.6471 395 64.8101 1089.87 487.471
636 0 37.0831 12.054 447 64.264 1089.72 486.309
637 0 36.0815 11.3077 408 123.863 1089.71 486.774
638 0 41.0511 11.7658 483 64.5901 1089.32 486.532
639 0 41.039 12.4516 511 64.4677 1089.44 484.607
640 0 42.0945 12.2581 516 64.3178 1089.48 485.316
641 0 44.0298 12.378 545 64.1248 1089.81 482.987
642 0 44.0298 12.3553 544 126.079 1089.8 482.965
643 0 48.0514 12.1745 585 64.4923 1089.14 484.301
644 0 49.0478 11.9679 587 64.7291 1089.2 484.305
645 0 51.0222 13.0532 666 64.0315 1088.87 482.326
646 0 50.1337 11.4693 575 66.7739 1089.47 481.843
647 0 55.0888 11.9444 658 64.8511 1089.43 483.084
648 0 52.0271 10.6675 555 68.6324 1089.59 479.263
649 0 57.0504 15.9859 912 61.7686 1089.67 479.586
650 0 57.0252 13.2398 755 65.6278 1089.31 478.399
651 0 59.0565 11.4297 675 67.0074 1089.49 480.865
652 0 60.0554 11.556 694 67.9006 1089.66 477.203
653 0 62.0986 13.8167 858 65.866 1089.31 474.788
654 0 66.0734 13.0915 865 66.3202 1089.56 474.454
655 0 66.1445 11.2027 741 69.0715 1089.57 474.356
656 0 70.1092 13.3363 935 66.3626 1089.67 473.516
657 0 71.1921 10.9563 780 69.6962 1090.31 472.624
658 0 72.0626 12.4059 894 69.1946 1090.5 469.749
659 0 74.0615 12.4896 925 69.5524 1090.15 467.359
660 0 78.1187 11.2521 879 70.8908 1090.08 468.709
661 0 80.1029 12.8085 1026 69.5897 1089.68 463.482
662 0 83.1325 12.5583 1044 70.0527 1089.84 462.998
663 0 86.1312 13.0266 1122 69.8262 1089.72 460.44
664 0 88.0882 12.8508 1132 70.2403 1089.02 460.196
665 0 92.2177 10.4861 967 72.6422 1090.01 461.186
666 1 48.0689 12.2948 591 69.8663 1090.27 480.345
667 0 49.0668 12.432 610 69.4885 1089.62 480.987
668 0 51.0464 11.7344 599 70.0885 1089.83 478.91
669 0 53.0328 10.8423 575 70.6417 1089.73 480.838
670 0 55.0295 10.6488 586 70.8618 1089.04 478.333
671 0 56.0916 11.7486 659 70.2322 1089.17 478.076
672 0 59.0301 10.0118 591 72.0254 1088.96 477.176
673 0 63.092 12.8384 810 68.3654 1088.88 474.779
674 0 65.0733 12.3246 802 68.4526 1088.56 475.814
675 0 65.0834 11.9232 776 70.0696 1088.5 471.207
676 0 69.0541 12.034 831 69.9314 1089.51 470.659
677 0 70.103 11.4403 802 70.702 1089.18 470.641
678 0 75.0246 11.8095 886 70.2686 1088.79 466.837
679 1 35.0338 10.9894 385 72.2909 1089.14 484.969
680 0 37.0209 10.5346 390 72.059 1088.84 484.687
681 0 41.0193 11.6287 477 69.1908 1088.78 486.654
682 0 41.0486 9.86635 405 72.1901 1088.81 486.027
683 0 43.0175 11.5302 496 71.1512 1088.25 483.609
684 0 45.0411 13.3212 600 68.775 1088.87 483.595
685 0 46.0215 12.7332 586 69.5768 1089.1 482.816
686 0 47.1205 11.6722 550 71.3545 1088.73 482.82
687 0 48.0752 11.794 567 71.3545 1088.89 482.351
688 0 51.1323 12.2623 627 71.2839 1089.22 479.249
689 0 48.0545 10.8835 523 74.3518 1088.6 477.262
690 0 54.0446 12.2121 660 71.0712 1088.23 478.47
691 0 54.0435 12.4714 674 72.1825 1088.3 477.018
692 0 55.0752 12.1107 667 72.9535 1087.88 473.841
693 0 58.1452 12.9331 752 72.0412 1088.26 474.743
694 0 63.0612 11.9408 753 72.3533 1088.71 474.703
695 0 63.07 11.955 754 73.1127 1089.02 473.609
696 0 65.0895 10.7698 701 74.9472 1089.41 472.063
697 0 66.0405 10.1302 669 76.3154 1089 469.993
698 0 70.1117 11.2249 787 74.5362 1089.55 471.321
699 0 72.0888 13.6221 982 71.9226 1089.19 467.621
700 0 75.0739 12.9606 973 72.9157 1089.15 467.162
701 0 79.084 13.0368 1031 72.8652 1089.76 466.344
702 0 82.0834 12.67 1040 73.7327 1088.89 462.387
703 0 82.0834 12.7431 1046 130.702 1087.91 462.406
704 1 46.0329 11.8176 544 72.5386 1089 484.169
705 0 46.18 10.9788 507 74.1913 1089.41 482.619
706 0 49.0451 12.1929 598 72.2191 1089.91 480.896
707 0 52.0582 12.6973 661 70.6596 1089.86 480.766
708 0 52.0559 12.5058 651 70.384 1089.63 481.158
709 0 55.047 12.0806 665 71.6586 1089.29 477.035
710 0 61.0513 12.7106 776 69.5258 1089.53 475.492
711 0 58.0448 13.1795 765 68.0719 1089.49 476.107
712 0 61.0378 12.5332 765 68.5869 1089.59 472.718
713 0 62.0578 13.2135 820 67.4866 1089.9 471.028
714 0 66.0825 12.4087 820 68.0512 1090.23 471.695
715 0 67.0502 12.3042 825 68.257 1090.73 468.582
716 0 69.0688 10.9746 758 70.0726 1090.56 468.051
717 0 70.0895 11.043 774 69.8721 1089.99 464.952
718 0 70.038 8.99512 630 72.7429 1090.14 467.317
719 0 80.1004 14.0698 1127 64.8128 1090.2 466.374
720 0 78.1329 10.7509 840 69.925 1089.96 462.76
721 1 38.0687 12.0309 458 67.7358 1090.46 483.727
722 0 38.0687 12.0309 458 117.293 1091.46 483.727
723 0 42.1549 14.162 597 65.2529 1090.2 481.812
724 0 43.1817 10.5137 454 69.848 1090.19 480.363
725 0 44.0328 13.6262 600 66.1083 1089.93 478.48
726 0 45.1042 10.8859 491 69.6212 1089.99 478.593
727 0 46.0185 12.4081 571 67.7653 1089.97 478.037
728 0 50.1683 13.0162 653 66.4318 1089.76 476.746
729 0 52.0594 12.8507 669 66.8371 1089.75 474.54
730 0 53.0289 11.6352 617 68.5348 1089.46 473.674
731 0 53.0585 11.3083 600 68.925 1089.12 473.593
732 0 56.0501 13.7912 773 65.6675 1089.69 473.907
733 0 58.0776 13.6886 795 65.2541 1090.1 472.386
734 0 61.0732 13.1154 801 65.9925 1090.13 469.424
735 0 64.0369 11.0717 709 67.6121 1090.12 470.399
736 0 65.0331 12.7474 829 65.9324 1090.22 466.316
737 0 71.1846 11.6598 830 65.9084 1090.28 470.458
738 0 71.1846 11.716 834 111.712 1091.28 470.406
739 0 71.2476 13.6145 970 64.4361 1089.97 463.516
740 0 76.0341 12.547 954 65.3994 1089.74 464.824
741 0 78.0641 13.822 1079 64.0528 1089.96 461.572
742 0 76.128 12.8074 975 65.4205 1090.12 463.132
743 1 40.0473 11.5364 462 65.1753 1090.29 481.368
744 0 40.0203 11.819 473 65.5539 1090.32 479.858
745 0 44.161 11.843 523 64.6348 1090.53 477.224
746 0 44.0664 13.3889 590 63.1508 1090.28 477.681
747 0 51.0467 13.4583 687 60.6026 1090.19 480.3
748 0 53.0453 17.7773 943 45.8388 1090.26 480.493
749 0 47.1144 11.2492 530 64.9736 1089.87 473.477
750 0 50.0856 11.1409 558 64.5484 1089.54 475.608
751 0 52.1486 11.2755 588 64.4626 1090.32 472.216
752 0 54.0969 10.9618 593 64.6847 1090.03 473.293
753 0 55.0629 11.4051 628 64.0844 1089.94 467.562
754 0 57.0677 13.1598 751 62.1585 1089.7 467.515
755 1 67.075 10.6299 713 63.0463 1089.56 471.414
756 0 62.1556 11.986 745 62.9289 1089.7 467.91
757 0 64.1022 11.2321 720 64.1417 1090.06 465.051
758 0 72.1471 12.1696 878 62.0444 1089.46 466.656
759 0 68.0895 14.9215 1016 60.2461 1089.48 463.606
760 0 73.0895 12.6557 925 61.9708 1089.81 464.601
761 0 73.147 12.3997 907 63.366 1089.74 462.559
762 0 82.1201 13.3585 1097 60.6472 1089.49 462.487
763 1 41.0109 8.53431 350 66.9486 1088.99 440.629
764 0 37.0641 11.7095 434 61.1129 1088.91 481.528
765 0 47.0725 9.34728 440 65.2932 1089.4 436.473
766 0 50.0554 10.868 544 59.8879 1089.97 482.04
767 0 53.255 9.03202 481 60.8773 1089.74 482.389
768 0 53.1809 12.5233 666 57.5435 1089.49 483.902
769 0 56.2034 12.3302 693 58.0837 1089.11 479.945
770 0 51.0567 13.1227 670 59.3179 1089.74 477.579
771 0 53.1297 11.519 612 60.201 1089.33 477.217
772 0 52.0686 11.312 589 62.0985 1089.06 474.849
773 0 53.0664 13.8694 736 59.284 1089.46 476.467
774 0 54.1038 14.0286 759 59.4203 1089.89 474.657
775 0 63.0575 8.65876 546 66.7802 1089.96 409.022
776 0 66.0296 10.9193 721 65.0042 1089.8 409.214
777 0 66.1298 12.6418 836 59.2356 1089.54 473.794
778 0 69.0673 11.9159 823 59.9563 1089.96 473.358
779 0 70.1363 10.7362 753 61.51 1089.96 470.708
780 0 71.1578 12.7182 905 59.6166 1089.44 466.941
781 0 66.0692 12.8199 847 60.9563 1089.7 468.398
782 0 74.1711 7.69841 571 68.9264 1089.34 399.636
783 1 206.135 4.51647 931 79.8668 1089.22 360.713
784 0 206.135 4.48251 924 159.226 1089.23 360.876
785 0 200.169 7.45868 1493 79.8439 1088.7 341.688
786 1 223.163 10.0554 2244 69.6332 1088.73 402.549
787 1 50.0852 8.48554 425 63.2071 1089.2 478.581
788 0 53.0682 7.91434 420 63.6333 1088.93 479.462
789 0 55.1142 9.7797 539 61.2115 1088.84 478.79
790 0 55.0372 10.4838 577 60.2374 1089.35 480.974
791 0 51.0207 11.5835 591 63.2843 1089.18 426.963
792 0 59.1433 10.3308 611 61.0213 1089.52 475.25
793 0 62.1436 9.99298 621 61.5862 1089.34 475.548
794 1 12.0557 9.95384 120 46.65 1089.51 504.308
795 0 13.0102 11.9905 156 46.2949 1089.26 503.513
796 0 11.0022 4.63543 51 51.1569 1089.49 504.765
797 0 14.071 8.59922 121 48.1736 1089.74 504.851
798 0 14.0244 8.3426 117 48.6838 1088.94 503.59
799 0 14.0474 9.53912 134 47.9403 1089.81 502.955
800 0 14.006 8.06797 113 49.5841 1089.09 503.876
801 0 15.0228 10.1845 153 49.0719 1089.01 503.601
802 0 14.0097 10.8496 152 49.125 1089.59 503.414
803 0 15.0112 9.7927 147 49.7687 1089.61 503.122
804 0 14.0315 10.0488 141 49.8511 1089.55 503.78
805 0 13.0002 3.1538 41 54.8049 1089.02 505.829
806 0 16.0108 9.61849 154 50.9221 1089.79 504.279
807 0 16.021 10.299 165 50.4 1089.37 503.418
808 0 15.0037 10.7973 162 51.0494 1089.93 503.444
809 0 17.0347 9.92091 169 51.9645 1090.12 503.746
810 0 17.2361 11.0814 191 51.5236 1090.3 502.623
811 0 17.2361 11.1394 192 90.1771 1090.33 502.615
812 0 15.0063 9.52935 143 54.2587 1089.99 503.524
813 0 16.0296 10.3558 166 54.012 1090.4 503.476
814 0 17.0389 10.8575 185 53.3676 1090.63 502.946
815 0 16.0414 8.7274 140 55.2429 1090.56 503.221
816 0 16.0043 9.37251 150 55.5 1090.48 503.54
817 0 18.0262 8.09931 146 55.8904 1090.93 501.877
818 0 18.0413 7.15027 129 57.5039 1090.62 503.109
819 0 19.0377 12.449 237 53.616 1090.22 502.173
820 0 20.1503 13.3497 269 52.4758 1090.78 501.26
821 0 21.2446 11.6736 248 54.4355 1090.37 501.649
822 0 21.0701 13.2415 279 53.9319 1090.53 501.548
823 0 20.021 12.3371 247 55.9069 1090.2 501.409
824 0 22.0452 11.3857 251 55.9044 1090.44 502.179
825 0 21.1366 11.3547 240 56.9583 1090.33 500.946
826 0 24.019 11.4076 274 55.989 1089.62 502.004
827 0 23.1281 11.6741 270 56.4963 1089.84 501.8
828 0 24.1192 12.3139 297 56.734 1089.65 500.828
829 0 25.0877 11.9979 301 57.4884 1089.83 501.086
830 0 25.1824 12.0322 303 58.4125 1090.2 499.284
831 0 24.1734 11.9139 288 110.177 1091.23 498.872
832 0 24.1734 11.9139 288 109.639 1091.23 498.872
833 0 27.1147 14.0145 380 57.3974 1090.8 497.689
834 0 29.1801 15.6271 456 54.9101 1090.78 498.059
835 0 29.1675 12.1368 354 57.9802 1090.07 499.76
836 0 29.1702 13.0956 382 58.6911 1089.91 497.497
837 0 29.22 12.9363 378 59.254 1089.9 496.868
838 0 32.2316 13.9925 451 56.5543 1090.3 498.816
839 0 30.718 12.7287 391 58.7494 1090.19 497.609
840 0 29.6231 12.8616 381 60.2467 1090.02 496.105
841 0 31.2249 12.9384 404 60.5718 1090.09 495.644
842 0 32.2372 14.1141 455 59.2769 1089.98 495.941
843 0 34.4028 12.4408 428 60.7523 1089.96 496.044
844 0 35.4104 13.3859 474 59.9198 1089.6 494.517
845 0 35.3882 13.9029 492 60.0874 1090.22 494.589
846 0 35.369 13.5147 478 61.3368 1090.69 493.295
847 0 37.1664 11.8656 441 62.7551 1090.21 493.596
848 0 40.3273 12.2498 494 62.2247 1090.37 492.211
849 0 40.3273 12.225 493 119.88 1091.4 492.124
850 0 41.4067 11.2542 466 64.088 1089.65 490.079
851 0 39.1486 9.85986 386 67.0052 1089.99 490.611
852 0 43.5185 10.3175 449 65.6548 1090.08 488.755
853 0 45.2828 12.6096 571 62.6988 1089.91 488.608
854 0 46.1693 13.1906 609 62.8834 1089.79 486.383
855 0 48.3529 13.4428 650 62.5185 1089.93 486.394
856 0 49.5758 14.6039 724 61.1809 1089.94 486.847
857 0 49.292 11.2392 554 65.5794 1090.63 485.949
858 0 51.2346 11.7694 603 64.1526 1089.81 488.35
859 0 52.2464 12.6899 663 64.1146 1090.72 485.222
860 0 54.3209 13.0337 708 63.4675 1090.54 484.679
861 0 55.4091 13.0484 723 63.7427 1090.55 483.701
862 0 59.3252 12.9962 771 62.7782 1090.24 484.852
863 0 59.6894 11.1578 666 66.0435 1090.2 482.044
864 0 61.4792 12.5571 772 64.5492 1090.76 481.694
865 0 59.2105 11.5182 682 66.654 1090.67 483.677
866 0 59.216 11.9056 705 66.1801 1090.87 481.296
867 0 65.4056 10.6413 696 66.875 1090.37 477.046
868 0 67.3891 13.4888 909 63.6502 1090.2 479.059
869 0 68.3858 13.4238 918 64.0403 1091.15 479.362
870 0 70.2544 14.6183 1027 62.816 1090.55 478.36
871 0 72.2138 14.3463 1036 63.4199 1090.3 475.176
872 0 74.1445 13.8783 1029 64.1467 1089.47 474.989
873 0 77.2041 13.678 1056 64.3409 1090.13 473.552
874 0 76.4714 13.1553 1006 66.16 1089.9 471.798
875 0 78.13 11.6089 907 68.3451 1089.45 470.525
876 0 81.2462 14.6468 1190 64.626 1090.47 469.936
877 0 83.2161 13.6993 1140 65.2842 1090.43 469.547
878 0 84.3696 14.2231 1200 64.8825 1089.96 468.73
879 0 89.2495 13.4454 1200 65.5525 1090.2 468.696
880 0 89.1646 13.3349 1189 66.8654 1090.27 465.739
881 0 90.0962 11.8873 1071 68.8366 1090.17 463.288
882 0 94.1221 13.355 1257 66.568 1089.91 462.469
883 0 97.3018 14.4191 1403 65.4134 1089.63 463.12
884 0 99.1216 12.4998 1239 67.6965 1089.71 462.707
885 0 102.136 14.7647 1508 65.3966 1089.5 458.239
886 0 104.123 13.0326 1357 67.2012 1089.58 458.573
887 1 50.0128 10.5173 526 68.789 1089.79 488.871
888 0 51.0607 10.9282 558 68.914 1089.82 486.351
889 0 52.0463 9.87582 514 70.1323 1089.56 488.755
890 0 55.1077 12.1762 671 68.0119 1090.2 487.098
891 0 56.0568 12.3803 694 67.7608 1089.95 485.666
892 0 58.0601 13.8133 802 66.4713 1090.88 484.05
893 0 61.1262 11.7135 716 67.8757 1090.59 485.344
894 0 63.0559 12.7189 802 67.3454 1090.86 482.339
895 0 66.0676 13.6376 901 65.5794 1090.45 480.313
896 0 69.1271 13.1063 906 66.5883 1090.75 480.97
897 0 69.1056 13.6024 940 66.8585 1090.94 478.318
898 0 72.0615 12.5865 907 68.1069 1090.71 477.397
899 0 72.079 11.7787 849 70.0624 1090.76 475.026
900 0 78.1411 12.0935 945 68.8698 1090.9 474.622
901 0 79.0482 11.8282 935 69.4011 1090.63 472.919
902 0 83.0971 12.0822 1004 69.4323 1090.81 472.039
903 0 85.044 11.9468 1016 69.313 1091.01 472.468
904 1 43.0487 11.8238 509 68.3006 1091.18 492.305
905 0 41.0623 9.86305 405 71.3235 1090.85 491.743
906 0 45.0542 11.0977 500 68.08 1090.75 492.454
907 0 48.0384 11.5116 553 68.9584 1090.59 491.447
908 0 47.0828 11.0868 522 71.5268 1090.37 490.416
909 0 47.0236 10.8881 512 73.0117 1090.18 488.477
910 0 49.0695 10.9844 539 72.0835 1090.2 489.276
911 0 53.1066 11.4487 608 72.1908 1091 488.026
912 0 52.0788 11.0986 578 73.0657 1090.98 487.862
913 0 55.1197 13.3346 735 70.2014 1091.04 486.333
914 0 56.1194 12.2418 687 72.4483 1090.75 485.946
915 0 61.0619 13.3962 818 70.2359 1090.86 484.817
916 0 60.1352 11.8566 713 72.7588 1090.48 484.534
917 0 63.1989 13.1648 832 71.9471 1090.62 480.349
918 0 65.0878 13.6585 889 71.577 1092.26 479.407
919 0 67.1093 12.651 849 73.629 1091.47 479.284
920 0 70.0498 12.6196 884 74.0362 1090.51 478.732
921 0 70.0953 12.5258 878 75.3918 1090.95 476.958
922 0 74.0726 12.9467 959 74.6173 1090.41 476.545
923 0 74.1143 11.914 883 77.2922 1091.88 476.772
924 0 77.0982 13.2428 1021 74.8296 1091.68 475.485
925 1 40.0715 10.9305 438 74.8516 1090.99 495.256
926 0 40.0495 10.0126 401 75.3516 1090.75 495.945
927 0 40.0254 10.6932 428 75.4065 1090.04 494.617
928 0 41.0216 10.8236 444 76.1419 1090.05 491.383
929 0 45.1708 12.0875 546 72.9854 1090.2 491.084
930 0 46.2286 10.8591 502 74.8924 1089.93 490.743
931 0 48.0423 11.3858 547 73.9945 1089.74 490.627
932 0 48.1279 10.95 527 74.9507 1090.22 490.336
933 0 51.1613 13.5258 692 71.0202 1090.05 488.442
934 0 51.1538 12.0226 615 74.4488 1090.44 486.239
935 0 51.0743 11.6889 597 75.3769 1089.91 487.635
936 0 56.1876 14.0066 787 69.9263 1090.42 486.966
937 0 55.0358 12.5736 692 74.0448 1090.38 483.666
938 0 56.16 11.8056 663 75.5234 1090.43 482.76
939 0 58.0909 12.0673 701 75.0242 1090.67 483.576
940 0 61.0934 11.1796 683 76.0542 1090.42 482.817
941 0 61.1182 11.7805 720 75.8958 1090.42 479.894
942 0 65.1485 12.6634 825 73.7758 1090.73 479.962
943 0 66.0581 11.717 774 75.0349 1090.46 479.313
944 0 67.1213 11.3079 759 76.5178 1090.23 476.721
945 1 33.2384 8.69475 289 74.7682 1089.8 495.727
946 0 35.057 9.89818 347 75.0231 1089.97 493.251
947 0 35.1167 9.4257 331 75.5468 1089.46 493.671
948 0 39.0829 11.7443 459 71.2919 1090.2 493.068
949 0 38.0592 11.2719 429 72.9068 1089.99 492.462
950 0 40.1568 10.5088 422 72.6303 1090.38 493.19
951 0 41.0745 11.7104 481 71.0832 1090.69 493.212
952 0 42.1017 11.3772 479 72.1315 1089.99 490.835
953 0 42.1 11.4727 483 72.2319 1090.17 488.998
954 0 45.0836 11.8447 534 70.8914 1089.98 490.506
955 0 46.0831 11.6746 538 70.6896 1090.42 488.807
956 0 46.1015 10.7372 495 71.2061 1089.42 489.434
957 0 49.0568 11.0892 544 70.796 1089.72 487.426
