time division length width area intensity CMx CMy
0 0 51.0763 10.8074 552 57.5199 1187.17 483.216
1 0 49.0968 11.0598 543 58.1216 1186.75 485.738
2 0 52.0652 13.1566 685 55.5606 1188.01 488.634
3 0 51.0423 11.4807 586 58.5785 1187.21 496.126
4 0 55.0732 11.9296 657 56.1416 1187.33 505.018
5 0 55.0821 11.4193 629 56.849 1186.46 508.013
6 0 57.1468 11.9342 682 56.0455 1186.71 513.242
7 0 61.0678 11.6592 712 54.5506 1186.54 520.088
8 0 60.0577 10.7563 646 56.9969 1186.24 520.478
9 0 62.0487 10.4112 646 57.3839 1185.96 518.156
10 0 64.0576 11.396 730 55.9726 1187.01 518.319
11 0 65.0687 12.5099 814 55.2273 1186.27 514.919
12 0 67.1191 10.8166 726 57.0344 1186.5 515.059
13 0 71.0892 12.1397 863 54.6744 1186.59 515.684
14 0 73.3792 13.3553 980 53.5969 1186.93 513.038
15 0 72.115 12.1195 874 55.4119 1186.78 510.918
16 1 37.0407 8.82814 327 57.4862 1187.14 530.101
17 0 40.0653 8.83559 354 56.3588 1186.47 530.472
18 0 40.0566 9.3368 374 56.7192 1186.4 530.537
19 0 42.035 9.61103 404 57.4554 1186.46 528.943
20 0 44.0195 12.0174 529 54.4423 1187.02 528.762
21 0 45.0589 10.6305 479 56.5177 1186.63 527.522
22 0 46.1345 11.1847 516 55.8159 1186.55 528.31
23 0 47.0443 10.6708 502 57.1434 1185.94 527.161
24 0 47.0346 10.6305 500 57.948 1186.24 526.112
25 0 51.1367 10.8924 557 57.0305 1185.32 527.352
26 0 48.047 8.40843 404 61.4356 1186.3 526.634
27 0 49.0245 9.77062 479 60.3737 1185.91 525.34
28 0 52.0713 11.2154 584 58.7945 1185.8 525.776
29 0 55.0244 11.8129 650 57.74 1185.57 523.658
30 0 56.0934 11.3917 639 58.9405 1185.97 523.435
31 0 57.062 11.9694 683 58.3602 1185.82 522.731
32 0 59.0324 11.1125 656 59.6829 1185.21 521.72
33 0 61.1064 12.0937 739 58.4466 1186.38 521.127
34 0 60.1253 11.1268 669 60.275 1186.27 520.689
35 0 64.0542 11.0844 710 60.3437 1186.48 518.575
36 0 66.0634 11.0197 728 59.9931 1187.64 520.409
37 0 68.1418 12.7968 872 58.0034 1186.78 516.458
38 0 70.0723 11.9305 836 59.3433 1187.36 515.067
39 0 72.0442 13.0753 942 57.7017 1187.38 517.293
40 0 72.1875 11.7333 847 59.8359 1186.95 506.022
41 0 75.0757 12.1611 913 59.4118 1186.64 505.896
42 0 78.1385 10.6862 835 61.394 1187.35 507.828
43 1 38.1072 9.07966 346 61.9711 1187.65 528.662
44 0 39.1147 11.4279 447 59.2528 1187 525.385
45 0 41.1082 10.1926 419 60.5823 1186.83 527.322
46 0 44.2888 10.6348 471 60.0425 1187.42 528.82
47 0 45.0605 11.0962 500 60.696 1187.3 526.424
48 0 45.1365 10.5236 475 62.7579 1187.2 528.945
49 0 49.1719 10.7988 531 61.5047 1187.04 527.279
50 0 50.0728 12.6216 632 59.5775 1187.18 527.568
51 0 50.0828 12.2597 614 60.3436 1187.19 526.928
52 0 53.0814 11.8497 629 60.4913 1187.1 527.946
53 0 53.0811 11.0774 588 62.6156 1186.81 525.849
54 0 57.1458 12.4419 711 60.7215 1186.73 523.196
55 0 56.0579 11.4524 642 62.7321 1186.08 523.712
56 0 57.1442 10.7272 613 63.8613 1186.77 523.408
57 0 60.0869 11.3003 679 62.6848 1186.9 522.409
58 0 62.0956 11.5628 718 62.234 1187.17 521.348
59 0 64.0677 12.0498 772 62.0052 1186.98 520.891
60 0 65.0804 11.7547 765 62.6536 1186.8 518.086
61 0 67.1018 11.0131 739 63.3626 1186.9 518.943
62 0 70.0889 12.2273 857 61.4119 1186.66 516.691
63 0 70.0772 11.6586 817 62.5018 1187.5 515.435
64 0 73.139 11.2799 825 62.2424 1186.53 508.634
65 0 75.2855 11.4365 861 61.9512 1186.74 509.244
66 0 79.1066 12.2493 969 59.9608 1186.7 510.689
67 0 80.1294 13.1038 1050 59.5914 1186.63 506.716
68 0 81.0569 10.7085 868 62.1118 1185.99 507.233
69 1 43.0352 10.1545 437 60.4416 1186.03 529.002
70 0 44.059 9.66885 426 61.5211 1186.38 529.383
71 0 45.1036 12.5489 566 58.0336 1186.42 528.307
72 0 47.0977 10.9347 515 60.1709 1186.24 527.076
73 0 48.1173 10.2458 493 60.8053 1186.53 526.732
74 0 46.0442 10.8157 498 61.6446 1186.75 525.126
75 0 50.1305 11.8491 594 59.4394 1187.79 523.862
76 0 52.0302 12.7618 664 58.6084 1187.3 521.625
77 0 53.1464 12.776 679 58.6804 1186.57 522.345
78 0 54.1991 12.8046 694 58.5605 1186.67 520.974
79 0 55.0579 11.4243 629 59.6025 1187.36 522.277
80 0 57.0331 11.3268 646 59.5433 1187.22 522.831
81 0 59.1199 14.1408 836 56.8397 1187.52 521.402
82 0 61.0747 12.6075 770 58.3883 1187.08 520.261
83 0 62.1118 13.3147 827 58.1596 1187.23 520.272
84 0 64.0596 12.2854 787 58.9581 1187.5 521.004
85 0 64.0176 9.95039 637 61.8006 1187.21 520.078
86 0 66.0535 11.3544 750 60.28 1188.02 517.392
87 0 68.1467 11.035 752 60.6423 1187.98 517.287
88 0 71.0636 12.0174 854 59.7155 1188.36 516.158
89 0 70.1022 10.4134 730 62.5452 1187.01 513.578
90 0 73.1209 12.281 898 60.2572 1187.7 513.607
91 0 77.0825 12.3634 953 59.7796 1187.77 513.783
92 0 78.0393 13.5316 1056 58.9744 1187.31 513.458
93 0 80.0563 12.1165 970 60.4742 1187.17 510.802
94 0 83.0513 12.113 1006 60.5984 1187.21 509.843
95 0 87.217 11.9357 1041 60.5533 1186.78 507.922
96 0 88.1467 11.4922 1013 61.7394 1186.74 505.477
97 1 46.076 11.5678 533 59.7373 1186.98 527.126
98 0 49.147 10.8654 534 59.558 1186.78 527.858
99 0 47.0995 9.93642 468 61.8504 1186.34 526.564
100 0 49.1246 11.5421 567 60.2487 1187.24 526.19
101 0 51.0514 11.5374 589 60.7759 1186.2 524.25
102 0 51.1209 12.402 634 60.0962 1186.81 522.06
103 0 52.0301 11.8777 618 60.5324 1186.57 520.049
104 0 56.0577 10.0611 564 62.5372 1186.85 521.44
105 0 57.0732 10.3201 589 62.2801 1187.04 522.329
106 0 59.0601 12.1063 715 60.0965 1186.24 520.004
107 0 61.0546 11.7763 719 60.2448 1187.24 521.05
108 0 61.0546 11.8255 722 132.126 1189.23 521.105
109 0 63.0504 11.2133 707 61.5714 1187.46 518.255
110 0 65.0713 10.3118 671 62.5335 1186.94 518.379
111 0 68.128 13.049 889 59.2317 1186.74 516.927
112 0 71.1423 12.1166 862 60.7796 1187.72 512.529
113 0 71.0767 13.0282 926 60.3305 1187.79 512.524
114 0 74.1598 14.4013 1068 58.3099 1187.38 513.242
115 0 78.0894 13.126 1025 60.3034 1187.71 511.274
116 1 39.0203 9.40537 367 61.3161 1187.77 529.793
117 0 40.0474 8.91443 357 62.8768 1187.93 529.244
118 0 42.0399 11.275 474 61.3038 1187.55 526.939
119 0 41.0644 9.10764 374 64.6872 1187.67 526.564
120 0 46.0631 12.0704 556 59.7896 1187.31 524.827
121 0 45.0389 10.7019 482 62.5871 1186.76 525.413
122 0 49.0344 11.8284 580 61.219 1186.85 522.205
123 0 51.0509 10.989 561 61.4706 1187.59 523.116
124 0 51.0496 11.7533 600 61.195 1187.36 520.845
125 0 52.0341 10.2817 535 62.9178 1186.29 520.615
126 0 54.0583 12.0611 652 60.819 1186.08 519.821
127 0 54.0194 9.45957 511 63.7162 1187 519.536
128 0 58.0185 11.9789 695 60.5194 1188.26 518.132
129 0 58.0705 9.38515 545 63.622 1188.19 519.255
130 0 61.0752 12.0835 738 60.0908 1187.15 518.644
131 0 65.0218 10.7964 702 60.6182 1187.52 517.755
132 0 66.1052 11.9809 792 60.5076 1188.12 512.73
133 0 66.1391 12.3225 815 60.6577 1188.4 511.367
134 0 68.1303 10.8028 736 61.6454 1187.81 513.277
135 0 73.0664 12.3449 902 59.347 1188.15 510.62
136 0 76.1408 11.7939 898 59.8118 1188.22 511.192
137 0 79.0689 13.2543 1048 58.0649 1188.05 507.772
138 0 80.0428 10.8817 871 61.3398 1187.9 507.232
139 0 82.1673 11.6348 956 60.4916 1187.2 507.172
140 0 85.0809 11.0248 938 61.6727 1187.74 504.355
141 0 89.2428 11.8665 1059 59.6364 1187.37 506.285
142 1 48.0416 10.3036 495 58.8061 1187.8 525.424
143 0 49.0812 11.756 577 57.7522 1186.11 525.586
144 0 51.0415 10.8735 555 59.2144 1187.53 522.762
145 0 52.0433 12.1053 630 57.4921 1187.13 523.684
146 0 54.0862 13.9407 754 56.0928 1187.16 521.501
147 0 55.0408 11.8821 654 58.8104 1187.51 520.031
148 0 56.0832 10.2705 576 60.1406 1187.85 521.085
149 0 60.0819 11.7173 704 58.669 1187.68 518.71
150 0 59.0776 9.41136 556 62.1978 1187.78 518.007
151 0 63.1486 11.8768 750 59.4093 1188.15 515.309
152 0 63.1559 10.3395 653 62.0689 1188.54 514.386
153 0 65.0628 11.7118 762 60.3583 1188.74 515.276
154 0 69.0488 11.6729 806 59.861 1188.29 513.684
155 0 69.0862 11.2468 777 60.6731 1188.56 513
156 0 71.1 11.8847 845 59.0651 1188.79 515.121
157 0 73.0731 11.7964 862 59.8213 1188.13 512.196
158 0 75.2708 11.1863 842 60.7363 1188.11 507.557
159 0 79.1543 11.9892 949 59.529 1187.76 507.961
160 0 78.0945 10.1288 791 62.0721 1187.08 507.767
161 1 41.0564 11.2528 462 57.9697 1187.29 525.149
162 0 42.0848 9.3858 395 59.8911 1187.27 526.213
163 0 43.0734 11.3063 487 56.7413 1187.14 527.355
164 0 43.0362 10.3866 447 59.7942 1187.09 524.414
165 0 45.0864 9.82558 443 60.3725 1187.67 523.612
166 0 48.0907 10.8545 522 58.4291 1187.98 524.628
167 0 49.066 10.2107 501 59.509 1187.49 524.808
168 0 48.1133 12.0757 581 58.7676 1187.56 521.466
169 0 51.1357 10.5015 537 59.9516 1187.91 523.516
170 0 51.0922 9.06205 463 61.8963 1187.77 522.048
171 0 52.0348 10.2047 531 61.5744 1187.37 519.345
172 0 55.0519 13.3874 737 57.5427 1187.76 519.601
173 0 56.131 11.2594 632 60.4051 1187.71 518.375
174 0 59.1082 12.7055 751 58.1451 1187.83 518.166
175 0 61.0597 10.9565 669 60.4858 1187.05 517.961
176 0 62.1105 12.3007 764 58.9895 1187.16 517.967
177 0 63.0664 11.7495 741 60.1957 1186.93 516.885
178 0 65.0599 11.4202 743 60.2732 1186.94 516.734
179 0 68.0522 11.594 789 60.2573 1188.18 515.689
180 0 69.1762 12.7934 885 58.9638 1187.88 515.642
181 0 71.0618 11.4267 812 61.053 1187.77 513.339
182 0 73.1432 11.7304 858 60.3613 1186.55 515.84
183 0 75.1035 12.9821 975 59.7436 1186.36 511.632
184 0 76.1371 11.9521 910 61.2121 1185.82 511.315
185 0 79.1845 11.5679 916 61.2686 1185.97 511.008
186 0 80.0468 12.2428 980 61.0174 1185.95 509.054
187 0 82.0736 11.6115 953 62.6674 1185.59 506.78
188 0 85.0447 12.1113 1030 61.8544 1185.34 508.323
189 0 86.1409 11.2374 968 63.3946 1185.45 508.118
190 1 43.0126 7.71866 332 63.7349 1185.89 531.515
191 0 46.0618 10.8767 501 61.6866 1184.73 526.996
192 0 48.0768 11.7104 563 61.0089 1185.01 527.615
193 0 47.1146 10.952 516 63.0523 1185.48 527.729
194 0 50.0407 11.1909 560 63.1232 1184.67 526.966
195 0 51.0256 11.504 587 62.2453 1183.96 527.905
196 0 50.021 11.4552 573 63.8464 1185.23 525.932
197 0 50.0535 10.5287 527 65.5047 1185.1 523.706
198 0 54.0166 11.4224 617 63.2415 1184.72 525.925
199 0 55.0614 11.3328 624 64.3269 1184.26 523.986
200 0 56.0524 11.5785 649 63.792 1183.88 525.23
201 0 58.0665 12.5029 726 62.9545 1183.52 521.526
202 0 59.0539 11.6842 690 63.6667 1183.04 523.89
203 0 62.1133 11.1892 695 64.3194 1183.02 522.528
204 0 63.1272 10.6135 670 65.3836 1183.1 522.321
205 0 66.2116 11.7049 775 63.9871 1182.88 520.298
206 0 66.0879 10.4709 692 66.1936 1183.6 519.91
207 0 69.0411 11.4714 792 63.9369 1183.8 522.324
208 0 71.1092 12.2347 870 63.4218 1183.38 519.697
209 1 36.0268 11.547 416 61.3269 1182.87 537.606
210 0 35.0259 10.7635 377 62.9947 1182.04 537.499
211 0 38.0324 10.8066 411 62.5864 1182.45 537.311
212 0 39.034 11.1185 434 62.7327 1182.63 535.848
213 0 41.0258 11.7 480 61.8438 1181.77 534.838
214 0 41.0631 10.9587 450 63.5622 1181.59 535.462
215 0 44.0248 11.6752 514 62.7724 1182.11 532.757
216 0 43.0286 10.342 445 63.6045 1182.22 535.78
217 0 46.0396 13.1626 606 61.0082 1181.25 532.221
218 0 45.0316 12.1914 549 62.5774 1181.64 529.914
219 0 48.0732 12.7514 613 61.2431 1181.98 529.724
220 0 50.0651 12.1841 610 60.977 1181.32 529.977
221 0 51.0407 13.2051 674 60.1944 1181.03 528.703
222 0 52.0171 13.8801 722 59.4972 1181.81 528.651
223 0 54.0294 10.3277 558 62.1398 1181.78 530.188
224 0 56.0417 11.7591 659 61.5129 1181.61 524.344
225 0 58.0246 13.9251 808 58.9505 1181.37 524.464
226 0 58.1697 12.3948 721 60.9431 1181.6 523.646
227 0 60.0318 13.2263 794 59.5227 1181.79 523.567
228 0 61.0224 10.8649 663 61.8944 1181.92 523.394
229 0 61.0314 10.7158 654 62.6391 1182.18 519.868
230 0 65.0628 13.2026 859 59.0536 1181.85 519.423
231 0 67.155 11.6 779 61.1964 1182.42 516.217
232 0 66.0306 11.7218 774 61.8398 1182.81 514.291
233 0 70.1169 11.98 840 61.331 1182.24 515.346
234 0 69.0526 10.1082 698 63.5587 1181.49 512.421
235 1 35.0867 10.5738 371 61.4474 1182.81 529.146
236 0 37.0355 9.9094 367 61.9155 1183 530.747
237 0 39.0408 12.346 482 58.2759 1182.32 531.054
238 0 39.0124 11.3041 441 60.0408 1182.19 531.136
239 0 41.0474 11.2553 462 59.6537 1182.89 531.483
240 0 39.0252 12.0947 472 58.9047 1182.58 531.67
241 0 42.051 11.5812 487 59.9979 1182.23 527.774
242 0 43.0302 12.6888 546 58.9469 1182.8 527.802
243 0 43.029 10.6672 459 60.5403 1182.19 529.651
244 0 45.0816 11.9339 538 59.5688 1181.91 527.444
245 0 47.1023 11.9103 561 59.8253 1183.02 526.228
246 0 48.0276 12.1805 585 59.2889 1183.28 525.983
247 0 50.0514 11.628 582 59.3282 1183.24 525.572
248 0 50.0657 10.4862 525 60.4895 1183.97 528.535
249 0 54.072 12.3354 667 58.8771 1182.98 525.508
250 0 53.0604 11.1948 594 60.8081 1182.75 525.062
251 0 55.1108 11.9033 656 59.6601 1183.26 526.177
252 0 58.0354 13.0093 755 59 1182.89 525.032
253 0 60.0828 12.6659 761 59.4599 1182.47 523.946
254 0 62.0319 11.9938 744 60.0618 1183.19 522.198
255 0 64.0808 12.5779 806 59.9988 1183.51 521.842
256 0 66.0603 10.5661 698 61.9413 1182.69 523.769
257 0 67.1063 12.741 855 60.483 1183.43 518.515
258 0 70.1079 13.522 948 59.6118 1183.19 519.219
259 0 73.0764 12.7675 933 60.0011 1182.48 520.746
260 0 75.1309 11.8726 892 61.4731 1183.3 518.718
261 1 41.0934 10.464 430 60.4349 1182.6 534.658
262 0 41.0216 11.3355 465 61.1032 1182.28 533.802
263 0 45.0389 10.5464 475 61.3326 1182.29 533.701
264 0 47.0601 11.1134 523 60.9484 1182.32 533.291
265 0 46.0366 10.3396 476 63.1008 1181.66 532.555
266 0 48.0864 12.5191 602 60.1744 1181.12 532.154
267 0 49.0505 9.96932 489 64.4008 1181.28 532.8
268 0 52.0495 11.7004 609 62.9984 1181.99 530.757
269 0 51.0595 9.85125 503 66.1789 1181.54 530.093
270 0 55.1608 11.7293 647 63.1422 1181.72 530.08
271 0 57.0879 11.8589 677 63.8154 1182.32 529.146
272 0 59.082 12.3049 727 64.2517 1181.91 526.316
273 0 61.0232 11.1105 678 65.8304 1180.6 526.95
274 0 62.2219 11.7483 731 64.844 1180.24 526.309
275 0 65.094 13.0273 848 62.3054 1180.82 526.328
276 0 66.0657 11.8064 780 65.5167 1180.86 524.135
277 0 68.0237 11.9076 810 65.7062 1181.04 521.911
278 0 71.1035 12.6154 897 64.3601 1181.47 521.41
279 0 73.0748 12.0424 880 65.6693 1181.33 520.719
280 0 74.1052 11.5916 859 66.1746 1181.42 518.935
281 1 38.0457 8.9629 341 68.1496 1180.28 535.739
282 0 40.0462 8.71494 349 66.5301 1180.66 536.02
283 0 42.0824 11.9052 501 63.8104 1180.73 532.198
284 0 42.0116 10.6875 449 65.6882 1180.07 531.543
285 0 45.0619 9.60901 433 66.6351 1180.24 532.469
286 0 46.0215 11.7771 542 64.1199 1180.6 530.764
287 0 46.097 9.89219 456 67.9649 1180.5 530.421
288 0 49.0492 11.4783 563 65.1439 1180.1 527.734
289 0 50.1001 11.1577 559 66.1181 1180.54 529.005
290 0 50.0464 9.33135 467 68.9657 1180.09 524.916
291 0 45.1064 9.4665 427 70.445 1180.17 525.101
292 0 56.0662 10.7016 600 66.7383 1180.31 527.79
293 0 60.0794 12.4169 746 63.6394 1180.89 528.887
294 0 61.057 10.6294 649 65.3251 1180.81 529.028
295 0 64.0659 12.3467 791 63.5853 1180.68 524.597
296 0 64.0163 11.0909 710 64.4761 1180.51 526.41
297 0 65.1294 11.101 723 65.6916 1179.68 521.119
298 0 67.078 12.2842 824 64.0437 1179.46 520.591
299 0 72.063 13.3078 959 61.2669 1180.43 519.973
300 0 72.0799 11.5705 834 64.0552 1179.74 518.517
301 0 72.0714 12.0159 866 64.1201 1179.14 515.184
302 0 75.1443 11.3781 855 64.0012 1179.73 516.082
303 0 79.2671 11.1774 886 63.7043 1179.4 514.296
304 0 81.0868 10.8896 883 63.7067 1179.06 512.402
305 0 85.0858 12.3993 1055 61.7118 1179.2 511.405
306 0 86.095 12.4281 1070 61.715 1178.74 508.69
307 1 45.0485 11.4765 517 60.1161 1179.42 529.257
308 0 46.1481 10.7047 494 61.166 1180 530.634
309 0 50.0735 10.884 545 60.3596 1178.9 528.266
310 0 49.0666 11.1481 547 60.011 1179.58 530.165
311 0 52.0511 12.1419 632 58.9383 1179.35 526.957
312 0 52.0151 10.67 555 60.8504 1178.97 527.22
313 0 54.1115 12.0677 653 59.2159 1178.56 526.328
314 0 55.1733 9.71484 536 61.0243 1179.42 527.543
315 0 59.0631 11.293 667 59.1604 1179.27 525.174
316 0 59.0514 14.6144 863 56.3488 1179.82 523.775
317 0 62.0766 13.2739 824 57.3689 1179.95 521.278
318 0 62.2983 12.5525 782 58.2072 1179.11 522.639
319 0 64.1839 12.9939 834 57.783 1179.97 520.507
320 0 66.2741 13.3235 883 57.6206 1179.98 520.94
321 0 67.2103 13.2866 893 58.1724 1180.02 516.82
322 0 69.1225 11.4579 792 60.1452 1179.95 517.932
323 0 71.1337 13.9596 993 57.6405 1180.27 515.957
324 0 73.2316 13.0545 956 58.8044 1180.26 513.91
325 0 76.1281 11.2048 853 60.5557 1180.1 513.245
326 0 79.228 12.4199 984 59.3831 1180.55 513.742
327 0 81.1796 12.7125 1032 59.5058 1180.88 511.527
328 0 82.2201 14.1693 1165 58.3931 1180.59 509.925
329 0 85.0788 12.2592 1043 61.3615 1180.22 508.894
330 0 88.0951 12.8384 1131 59.8736 1180.11 508.446
331 0 90.1599 14.3301 1292 58.3491 1180.34 508.354
332 1 44.0738 10.8227 477 61.8742 1180.56 528.132
333 0 46.0657 12.6341 582 59.366 1180.71 528.266
334 0 45.0206 10.2842 463 63.0475 1180.47 527.89
335 0 49.0423 12.3363 605 60.2992 1180.02 526.157
336 0 50.0405 12.5698 629 59.779 1180.34 526.946
337 0 52.0301 12.4736 649 59.3498 1180.13 528.442
338 0 53.0259 11.1832 593 61.7909 1180.27 526.218
339 0 52.1013 11.612 605 62.438 1179.97 524.936
340 0 54.0457 12.8225 693 60.1602 1180.45 525.518
341 0 59.0547 12.8017 756 59.828 1179.8 524.508
342 0 58.0296 12.5798 730 60.7753 1180.12 521.895
343 0 60.0471 13.1896 792 60.0745 1180.55 521.208
344 0 63.0739 13.4921 851 58.7932 1180.43 520.858
345 0 64.0351 12.8211 821 60.2278 1181.03 520.397
346 0 65.21 13.7096 894 59.3982 1180.3 516.541
347 0 67.0388 12.008 805 61.6286 1180.96 517.981
348 0 68.0503 12.3291 839 61.2491 1179.94 517.433
349 0 73.0924 14.5706 1065 58.3258 1179.42 516.288
350 0 73.2347 12.7125 931 61.29 1180.39 515.435
351 0 75.1155 11.7552 883 61.59 1180.73 515.342
352 0 78.2127 14.0259 1097 59.7211 1180.33 510.595
353 0 80.1154 12.1824 976 61.9365 1179.99 511.915
354 0 83.0707 11.436 950 62.4716 1180.87 511.905
355 0 86.0672 12.4205 1069 62.0617 1180.47 509.369
356 1 42.0199 11.3756 478 61.6339 1180.79 528.751
357 0 43.0134 11.787 507 62.14 1180.84 529.901
358 0 47.0288 11.7162 551 62.0127 1180.7 528.372
359 0 46.0275 11.4062 525 62.4971 1180.69 529.966
360 0 48.0216 10.412 500 64.036 1180.39 527.482
361 0 51.0359 11.9328 609 62.1888 1180.22 527.68
362 0 52.1817 11.6516 608 62.5 1180.41 527.344
363 0 53.0648 12.2492 650 62.6169 1180.55 525.726
364 0 55.1742 13.0677 721 60.7074 1181.36 526.075
365 0 55.0682 11.4404 630 63.5095 1181.05 522.778
366 0 59.0931 13.2164 781 61.7478 1180.75 521.983
367 0 58.0724 13.2076 767 61.8631 1180.47 521.146
368 0 62.0244 13.801 856 61.4533 1180.46 519.558
369 0 63.0582 11.6083 732 63.903 1180.5 519.053
370 0 65.0675 11.3113 736 64.6277 1181.23 518.155
371 0 66.0895 13.9659 923 61.6901 1180.8 518.796
372 0 69.134 11.2246 776 64.8982 1180.84 518.869
373 0 71.0702 12.4384 884 63.4457 1180.57 519.636
374 0 74.0693 13.1228 972 62.822 1180.6 516.89
375 0 75.0856 12.599 946 64.5634 1181.01 513.425
376 0 78.1582 12.9737 1014 63.2544 1180.82 515.26
377 0 78.0932 11.6527 910 66.367 1180.71 511.704
378 0 84.0501 12.3974 1042 65.024 1180.05 511.141
379 0 88.0799 13.5332 1192 63.0126 1179.8 513.718
380 1 40.0748 10.4055 417 65.3789 1179.66 532.468
381 0 43.0494 10.2208 440 65.2932 1180.12 533.007
382 0 44.0324 11.1055 489 66.1452 1179.65 529.691
383 0 47.0999 11.2951 532 64.6466 1180.23 531.139
384 0 48.0414 11.5733 556 64.7194 1180.3 530.755
385 0 49.0272 10.5248 516 66.5736 1181.01 529.665
386 0 49.0224 11.4845 563 66.3481 1179.67 528.911
387 0 51.041 12.4018 633 65.0727 1179.82 526.523
388 0 51.0991 11.8006 603 66.6202 1180.2 525.899
389 0 54.0132 12.2933 664 66.0271 1179.82 526.277
390 0 57.059 12.1804 695 65.6446 1180.89 525.819
391 0 58.0451 14.3337 832 62.8341 1181.11 524.567
392 0 58.0922 12.2908 714 65.9888 1180.81 524.248
393 0 64.1058 12.3858 794 64.767 1180.87 522.827
394 0 64.0511 12.7086 814 64.5393 1180.29 523.197
395 0 63.1563 12.1603 768 66.5208 1179.82 520.03
396 0 68.0745 12.2807 836 65.2261 1180.25 521.018
397 0 70.0501 13.0764 916 63.9552 1180.27 521.456
398 0 73.0252 12.0369 879 65.4209 1180.63 520.273
399 0 74.0915 12.3766 917 65.2192 1180.5 519.655
400 0 75.1663 11.9069 895 66.5006 1180.77 516.911
401 0 80.1212 13.4047 1074 64.3641 1180.82 516.7
402 0 81.099 13.613 1104 63.8895 1180.72 517.053
403 1 40.0885 10.5018 421 65.8432 1181.31 534.96
404 0 44.0484 11.3285 499 64.7154 1181.64 533.992
405 0 43.0203 12.4825 537 63.5382 1181.22 534.145
406 0 44.0747 11.9797 528 63.6136 1180.79 534.076
407 0 45.0323 12.0802 544 63.7224 1180.74 532.756
408 0 46.0322 9.97128 459 65.1699 1180.14 533.935
409 0 50.0346 11.8718 594 64.3518 1180.15 529.446
410 0 49.0271 9.64773 473 66.074 1179.9 531.482
411 0 50.1311 10.6521 534 65.4082 1179.78 530.494
412 0 54.0314 12.5853 680 62.7721 1179.56 528.198
413 0 53.0607 10.7801 572 64.9126 1179.92 527.944
414 0 57.0935 11.4724 655 63.9985 1179.85 527.282
415 0 57.3181 11.3926 653 64.392 1179.44 526.051
416 0 60.0393 11.9255 716 62.9358 1180.69 525.715
417 0 61.094 12.2598 749 62.9252 1181 524.073
418 0 64.0524 12.3961 794 62.4962 1180.61 523.597
419 0 63.0756 10.0039 631 65.6688 1179.44 522.889
420 0 66.0623 11.0048 727 64.8157 1179.48 521.63
421 0 68.1079 11.1147 757 64.2827 1179.28 522.408
422 0 72.0738 12.5843 907 62.8324 1180.08 520.09
423 0 71.1485 11.7922 839 64.7187 1180 518.348
424 0 75.127 13.4838 1013 62.5114 1179.74 516.856
425 0 77.0936 11.8298 912 64.1382 1179.92 517.423
426 0 79.2048 13.282 1052 62.6854 1179.96 516.954
427 0 82.0704 12.5015 1026 64.1277 1180.6 514.268
428 1 42.0478 12.8663 541 61.5342 1179.94 532.967
429 0 43.0258 11.2258 483 62.4596 1179.59 533.874
430 0 42.0056 9.11783 383 65.0679 1180.38 534.893
431 0 44.1202 11.1967 494 64.2085 1180.33 531.708
432 0 45.0505 10.6547 480 64.2604 1180.15 531.925
433 0 47.0273 10.1005 475 64.9895 1180.19 529.992
434 0 48.03 12.2632 589 62.5874 1180.24 530.511
435 0 50.0522 12.7467 638 61.8934 1180.41 529.268
436 0 51.0976 11.5074 588 62.9592 1180.42 530.192
437 0 51.0269 9.73996 497 65.4608 1180.15 528.738
438 0 54.0442 10.4729 566 63.8922 1180.4 528.657
439 0 55.1036 9.52751 525 65.3714 1180.18 526.587
440 0 58.1074 10.3429 601 63.9834 1179.27 524.499
441 0 57.09 9.70397 554 64.1823 1180.46 525.013
442 0 62.0623 10.8762 675 62.8193 1180.89 524.153
443 0 63.1031 11.4416 722 62.392 1180.86 523.341
444 0 65.1046 10.8902 709 62.9647 1180.55 520.649
445 0 69.2075 12.2386 847 61.294 1180.61 518.798
446 0 70.0754 11.9443 837 61.865 1180.44 518.72
447 0 72.0453 9.49403 684 64.3567 1180.24 518.939
448 0 75.1291 12.605 947 61.4403 1180.32 513.527
449 0 77.0844 11.7144 903 62.4673 1179.97 515.279
450 0 80.1274 12.0184 963 62.3603 1180.35 512.282
451 0 83.1366 10.4888 872 64.2741 1179.63 511.999
452 0 87.1768 12.5951 1098 61.7231 1180.01 511.385
453 0 88.051 12.8562 1132 62.5689 1181.05 507.393
454 0 91.0811 12.4944 1138 62.7786 1180.01 508.136
455 0 93.0839 12.0966 1126 64.2496 1181.22 505.456
456 0 97.1267 12.4785 1212 63.0355 1181.01 508.375
457 0 98.0772 11.2972 1108 65.009 1180.7 505.277
458 0 102.235 12.1779 1245 64.0241 1181.13 504.328
459 0 104.12 12.6969 1322 63.6558 1180.66 499.876
460 0 110.134 12.7663 1406 63.6757 1180.68 497.248
461 1 53.0649 9.25283 491 65.6925 1180.76 526.66
462 0 56.0758 11.8946 667 62.051 1180.03 526.535
463 0 57.0454 11.7275 669 62.2451 1179.81 526.653
464 0 57.016 10.9443 624 63.6234 1180.06 523.723
465 0 59.1165 10.9952 650 64.1708 1180.06 524.783
466 0 64.0748 13.0785 838 61.1265 1180.3 522.264
467 0 66.1263 13.444 889 60.6974 1180.57 521.352
468 0 65.05 11.6372 757 63.745 1180.62 522.165
469 0 69.1481 11.0632 765 64.0654 1180.26 521.288
470 0 73.143 12.4687 912 62.045 1180.17 517.868
471 0 73.1941 11.8316 866 63.1547 1179.82 517.45
472 0 77.2371 12.986 1003 61.9282 1179.59 516.443
473 0 79.174 11.3421 898 63.4131 1179.52 516.582
474 0 83.1277 13.5093 1123 61.3277 1180.23 509.86
475 0 85.1383 12.7205 1083 61.9991 1179.95 512.584
476 1 41.2334 11.35 468 62.7115 1179.93 532.357
477 0 43.1057 10.9266 471 62.4013 1179.55 532.962
478 0 45.0613 11.096 500 62.61 1180.07 532.844
479 0 47.0974 11.4868 541 61.5102 1180.02 533.272
480 0 47.0655 12.642 595 61.5277 1180.14 529.445
481 0 49.0309 12.4207 609 60.908 1179.51 531.204
482 0 52.1201 13.4689 702 59.2066 1179.08 527.934
483 0 50.0659 11.3451 568 62.8609 1179.92 528.019
484 0 53.3963 12.6039 673 60.2407 1180.03 527.269
485 0 54.0927 11.85 641 60.8206 1180.26 527.148
486 0 57.0895 12.1038 691 59.8133 1179.8 526.161
487 0 58.0969 13.0816 760 58.9908 1180.54 522.779
488 0 59.3078 12.9325 767 59.1904 1180.25 525.06
489 0 60.065 10.2556 616 61.7078 1179.75 525.135
490 0 64.1594 13.56 870 57.8 1179.6 520.608
491 0 64.0646 12.3625 792 59.3245 1180.23 521.509
492 0 67.0666 12.0775 810 59.0506 1179.62 519.942
493 0 67.1878 10.9246 734 60.7452 1178.96 517.977
494 0 72.1715 12.3594 892 58.3969 1179.7 518.691
495 0 73.0615 10.6896 781 61.1255 1179.96 514.242
496 0 75.1211 10.3167 775 61.1497 1178.92 513.751
497 0 80.128 11.3568 910 59.9319 1179.76 513.803
498 1 39.0279 11.5302 450 57.6022 1179.85 533.613
499 0 40.0216 10.0446 402 59.6318 1179.77 532.928
500 0 43.0368 10.8744 468 58.1624 1179.62 533.269
501 0 41.0243 8.43403 346 61.7659 1180.49 533.856
502 0 43.1655 10.1933 440 60.0159 1179.58 532.38
503 0 46.0198 10.1913 469 59.678 1179.79 531.448
504 0 47.0512 11.4981 541 58.549 1179.92 529.547
505 0 49.0617 11.1085 545 58.7908 1179.77 530.615
506 0 52.0253 11.3791 592 57.6757 1179.72 529.164
507 0 52.1136 11.782 614 58.4104 1179.65 525.945
508 0 54.1049 12.1061 655 57.9817 1180.07 526.675
509 0 57.0817 11.8252 675 58.157 1179.88 525.836
510 0 57.1683 12.0521 689 58.1872 1179.15 524.007
511 0 59.1218 10.0809 596 59.995 1180.11 522.508
512 0 62.0371 11.6382 722 58.3241 1179.49 522.691
513 0 64.141 12.7843 820 57.1866 1179.77 520.222
514 0 66.0887 11.878 785 58.0611 1179.58 519.177
515 0 68.1911 11.981 817 57.9645 1179.45 517.185
516 0 73.0847 12.2734 897 56.7603 1179.15 518.197
517 0 75.0588 15.2547 1145 54.4061 1179.15 514.765
518 0 77.1693 11.2869 871 58.2572 1179.76 517.486
519 0 80.1566 12.3259 988 57.6488 1178.86 513.087
520 0 85.1035 12.3379 1050 57.4448 1178.72 512.533
521 1 43.1237 11.7105 505 56.6693 1179.6 532.03
522 0 44.0398 10.9901 484 58.8636 1179.64 529.393
523 0 44.0485 10.3976 458 60.5109 1178.74 530.273
524 0 47.096 12.7612 601 57.8253 1178.87 529.874
525 0 50.1257 12.9075 647 57.4575 1178.87 529.828
526 0 50.0953 11.8175 592 59.2635 1178.46 529.699
527 0 50.0564 11.4071 571 60.6095 1179.09 527.236
528 0 53.0435 12.1787 646 59.2957 1179.11 525.853
529 0 57.1112 12.9047 737 57.863 1179.05 526.634
530 0 57.1024 13.3094 760 57.9474 1179.04 525.949
531 0 59.103 12.5713 743 58.6339 1179.01 525.206
532 0 61.0888 12.1626 743 59.2894 1178.9 523.918
533 0 62.0706 12.808 795 58.966 1179.15 522.582
534 0 62.1767 11.5799 720 61.075 1179.66 520.636
535 0 64.07 12.2054 782 60.3939 1179.67 519.518
536 0 67.1081 13.3516 896 58.8259 1179.33 520.199
537 0 69.1627 12.8682 890 59.4214 1179.2 517.278
538 0 71.0394 12.1763 865 60.6578 1179.5 517.177
539 0 75.1869 12.3559 929 59.4521 1179.19 518.629
540 0 78.1181 14.2477 1113 57.9569 1179.57 515.495
541 0 79.1517 14.2385 1127 57.9476 1178.77 515.408
542 0 82.2432 12.6089 1037 60.2285 1179.47 514.492
543 0 84.1465 13.3101 1120 59.6607 1179.32 512.928
544 0 86.125 12.5747 1083 61.4229 1179.56 510.971
545 0 87.1744 13.0084 1134 61.1252 1179.07 511.194
546 0 91.0815 12.5163 1140 61.9412 1179.33 509.116
547 0 92.1016 11.4439 1054 63.926 1179.04 506.598
548 1 52.0365 11.6649 607 62.3707 1179.52 528.516
549 0 50.0771 12.2611 614 63.4023 1178.49 525.66
550 0 53.0261 12.7296 675 62.2282 1178.66 526.264
551 0 54.0396 11.8432 640 64.2859 1178.31 524.195
552 0 57.0848 11.7194 669 63.5755 1178.67 526.205
553 0 59.0857 15.1475 895 59.9464 1179.04 523.165
554 0 61.0744 11.3141 691 65.301 1178.49 522.575
555 0 63.1458 13.2075 834 62.6391 1178.79 522.185
556 0 62.0604 13.503 838 62.9785 1179.04 520.547
557 0 66.0298 14.4026 951 61.6246 1179.19 521.898
558 0 67.0704 14.0449 942 62.7781 1179.73 519.598
559 0 70.0914 13.4967 946 62.8869 1178.6 520.684
560 0 70.1283 13.1188 920 64.8272 1179.13 517.279
561 0 73.0836 13.0809 956 64.9948 1179.35 516.841
562 0 74.0322 13.6697 1012 65.0376 1179.5 515.33
563 0 79.2018 13.5098 1070 65.1514 1179.53 516.554
564 0 80.0415 13.443 1076 64.8792 1179.23 516.29
565 0 84.0548 14.8118 1245 63.1807 1178.89 512.554
566 0 85.1084 13.9117 1184 64.7838 1179.53 514.829
567 0 88.1049 15.5156 1367 63.1485 1179.97 511.251
568 1 42.0572 11.7459 494 66.5304 1179.63 533.109
569 0 44.0335 14.4663 637 62.595 1179.61 533.063
570 0 47.0458 12.2859 578 64.8304 1178.68 531.96
571 0 48.0751 13.3541 642 63.2009 1178.61 532.456
572 0 50.0536 13.6454 683 63.41 1179.4 530.051
573 0 48.091 11.3327 545 67.1119 1179.37 529
574 0 49.1216 10.9117 536 67.222 1179.8 529.588
575 0 52.0208 13.0909 681 65.5374 1179.54 526.267
576 0 54.0339 12.4737 674 65.503 1179.38 526.349
577 0 53.1209 12.2739 652 66.3773 1180.1 526.748
578 0 55.072 11.6938 644 67.2453 1180.59 525.351
579 0 58.1197 13.8163 803 64.3375 1180.85 523.785
580 0 59.0783 13.5752 802 65.394 1181.53 522.2
581 0 63.0645 14.3028 902 62.888 1181.38 524.722
582 0 65.0424 13.0377 848 63.7571 1181.08 524.484
583 0 65.1072 13.1783 858 65.2751 1180.94 520.188
584 0 68.0271 13.7298 934 64.0225 1180.78 520.611
585 0 69.041 13.3833 924 65.4805 1180.2 518.235
586 0 68.0852 10.8834 741 69.0351 1179.53 519.043
587 0 74.082 12.7426 944 65.9407 1179.5 518.712
588 0 76.0644 13.7515 1046 64.5994 1180.01 517.54
589 0 77.0933 13.114 1011 66.4876 1179.03 512.643
590 0 79.134 12.4978 989 66.6876 1178.48 514.699
591 0 79.1152 12.2985 973 68.37 1179.27 512.243
592 1 43.0554 11.822 509 67.336 1179.6 531.063
593 0 44.0856 12.0221 530 67.2585 1179.63 531.17
594 0 47.0714 11.6419 548 65.8285 1179.2 533.885
595 0 48.1017 11.0599 532 66.9756 1179.46 531.97
596 0 51.1085 12.3463 631 66.084 1179.73 531.339
597 0 47.0539 10.6049 499 70.1182 1178.39 527.106
598 0 53.0521 11.008 584 68.1079 1179.5 528.334
599 0 52.0318 11.493 598 67.9147 1179.28 528.726
600 0 54.066 11.6339 629 67.3657 1179.09 527.642
601 0 56.0448 12.5435 703 67.2888 1179.82 524.265
602 0 60.0326 12.2767 737 67.114 1179.8 523.513
603 0 61.0922 11.72 716 67.3506 1180.43 524.253
604 0 63.1225 13.7986 871 64.4719 1179.8 523.527
605 0 64.0944 13.8234 886 65.3217 1179.79 522.235
606 0 66.1447 10.6585 705 67.7489 1180.03 523.268
607 0 69.0902 12.433 859 66.9418 1180.48 519.427
608 0 70.0659 11.0039 771 68.0454 1179.82 519.669
609 0 73.0666 11.9754 875 67.752 1180.26 516.905
610 0 72.1133 12.2308 882 67.9943 1179.42 514.002
611 0 77.0607 11.6012 894 67.5582 1180.37 516.185
612 1 40.0082 11.8976 476 65.6092 1179.97 532.082
613 0 41.0398 11.9884 492 64.9675 1179.96 532.896
614 0 43.1336 10.5718 456 65.0351 1180.65 535.162
615 0 42.1543 12.478 526 65.0589 1180.38 531.901
616 0 42.0276 8.89891 374 69.5241 1180.46 530.428
617 0 47.0427 12.5418 590 64.0746 1180.6 529.856
618 0 46.0463 11.6622 537 65.7374 1180.1 529.464
619 0 49.0798 11.3692 558 65.1989 1180.11 530.439
620 0 50.0423 11.5702 579 65.6131 1180.44 525.971
621 0 52.0352 11.915 620 63.8177 1180.32 528.726
622 0 53.0465 11.801 626 65.2907 1179.64 525.776
623 0 56.1102 13.4557 755 62.5298 1180.17 525.996
624 0 56.0451 11.2945 633 65.0995 1179.92 524.303
625 0 60.0729 12.3683 743 63.323 1180.66 525.54
626 0 61.0616 10.8087 660 64.8758 1180.4 524.659
627 0 63.0148 11.2354 708 65.0975 1179.92 521.403
628 0 65.0534 12.1746 792 64.0568 1180.5 518.787
629 0 68.058 11.8428 806 63.9814 1180.51 521.463
630 0 69.1742 12.0565 834 64.1715 1180.13 518.222
631 0 71.0543 12.8212 911 63.2525 1179.42 517.311
632 0 72.0706 12.5988 908 63.9659 1179.85 516.07
633 0 76.0619 12.5819 957 63.72 1180.12 512.795
634 0 77.0591 13.3923 1032 62.9457 1179.78 511.142
635 0 79.0502 10.019 792 66.2904 1180.11 512.385
636 0 82.066 11.2592 924 66.026 1180.93 507.518
637 0 85.1124 10.4333 888 66.3559 1180.94 508.803
638 1 44.1054 11.994 529 61.5293 1180.72 530.096
639 0 45.0338 12.1242 546 62.4139 1180.29 528.522
640 0 43.0305 10.6204 457 65.2801 1179.9 527.527
641 0 48.0344 10.9088 524 63.0821 1180.44 529.063
642 0 50.017 12.5158 626 61.3403 1180.47 527.102
643 0 51.0684 11.1028 567 63.0335 1180.2 525.686
644 0 52.0384 12.1064 630 62.1921 1179.94 523.917
645 0 56.0413 14.2217 797 59.1706 1180.28 523.245
646 0 56.0269 12.4404 697 61.7661 1180.62 520.821
647 0 57.1346 11.3766 650 62.7246 1179.85 521.788
648 0 59.1124 12.6877 750 61.472 1179.25 519.743
649 0 62.0597 12.4719 774 61.2829 1179.96 518.899
650 0 64.0584 11.6925 749 62.8278 1181.23 517.437
651 0 65.1045 12.0422 784 62.0408 1180.58 518.403
652 0 69.0552 11.6284 803 62.3126 1180.49 517.735
653 0 70.0511 12.3481 865 61.7202 1180.37 515.98
654 0 73.0596 11.5659 845 63.097 1180.47 513.644
655 0 75.0722 12.5612 943 62.2545 1180.9 511.324
656 0 78.0864 13.1137 1024 61.4707 1180.38 509.47
657 0 80.0752 12.1261 971 62.6076 1180.55 511.255
658 0 82.0968 11.6326 955 63.3278 1180.25 511.259
659 0 85.0622 12.097 1029 62.7755 1180.22 509.397
660 0 88.2696 12.9376 1142 62.1077 1181 505.735
661 1 45.1293 10.06 454 62.4802 1180.67 529.934
662 0 47.1661 10.516 496 61.9052 1180.8 529.373
663 0 49.027 11.6874 573 62.0384 1180.34 526.9
664 0 51.2404 11.5729 593 61.398 1180.04 526.379
665 0 53.1001 11.2618 598 61.1856 1180.44 527.85
666 0 55.0734 9.47826 522 63.9272 1180.55 525.561
667 0 56.1408 12.1124 680 61.2074 1180.55 524.194
668 0 57.1551 10.9526 626 63 1180.39 521.259
669 0 58.2252 13.2417 771 60.4008 1180.2 521.652
670 0 63.0912 12.7435 804 60.3893 1180.65 520.394
671 0 64.2147 11.5861 744 61.9919 1180.85 518.726
672 0 66.0889 11.197 740 61.9595 1180.4 519.865
673 0 66.0492 10.2499 677 63.2068 1180.56 518.886
674 0 69.2926 13.6234 944 59.3729 1180.76 515.946
675 0 74.0553 13.2874 984 59.4156 1180.71 513.742
676 0 73.1279 11.7192 857 61.3839 1181.51 515.526
677 0 75.0803 11.1614 838 62.7064 1181.03 512.586
678 0 77.0665 11.3279 873 61.7824 1180.71 513.19
679 0 84.1047 12.0802 1016 60.1742 1180.13 510.804
680 0 85.1967 12.9113 1100 59.7818 1179.54 506.288
681 0 86.1486 10.2381 882 63.119 1180.72 510.12
682 1 44.0464 12.169 536 58.806 1180.88 529.83
683 0 47.0402 10.2466 482 60.9938 1180.95 530.149
684 0 46.1295 9.64676 445 62.5775 1180.94 528.33
685 0 50.0931 12.2971 616 58.9432 1180.77 526.648
686 0 51.0846 13.507 690 58.1971 1180.78 524.994
687 0 54.0587 11.2655 609 60.5484 1180.45 525.095
688 0 55.0634 10.043 553 61.8264 1180.44 522.832
689 0 55.0286 11.6848 643 60.0373 1179.86 520.025
690 0 58.0484 10.3707 602 61.4435 1180.54 520.414
691 0 62.0892 12.7881 794 58.1209 1180.93 518.831
692 0 62.2004 11.7523 731 59.3228 1180.51 521.822
693 0 65.2325 11.6506 760 58.7197 1180.4 520.255
694 0 68.2221 12.5766 858 57.7075 1180.77 518.469
695 0 70.025 12.4527 872 58.008 1180.82 516.101
696 0 72.2096 11.1066 802 59.0112 1180.46 514.853
697 0 73.2044 13.1686 964 57.0425 1180.42 513.164
698 0 77.0878 11.5323 889 58.811 1180.42 510.179
699 0 79.2683 12.4388 986 57.3286 1179.77 510.5
700 0 81.0962 10.95 888 58.9459 1180.86 510.472
701 0 84.1982 13.9789 1177 55.9779 1180.41 507.478
702 0 87.1262 13.1878 1149 56.6693 1180.07 506.766
703 0 89.0713 13.4836 1201 56.3639 1180.52 505.736
704 1 47.0529 10.0313 472 58.5106 1180.54 525.195
705 0 48.198 10.3116 497 57.658 1180.93 528.567
706 0 50.0622 10.3871 520 58.0404 1180.82 525.063
707 0 49.1365 9.93151 488 59.1475 1180.75 525.027
708 0 53.1314 10.841 576 57.8038 1179.9 522.137
709 0 53.073 11.3994 605 57.795 1180.37 521.702
710 0 57.0789 10.687 610 58.2885 1180.39 524.025
711 0 58.1174 10.4444 607 58.7133 1180.37 521.937
712 0 61.0806 11.624 710 57.5845 1180.92 521.748
713 0 62.0254 11.0439 685 58.4526 1181.03 521.664
714 0 65.191 11.5813 755 57.5298 1181.28 521.05
715 0 66.134 11.9454 790 57.6266 1180.85 518.794
716 0 70.0738 11.1026 778 58.401 1180.72 514.789
717 0 71.1339 12.5116 890 57.3865 1181.06 515.035
718 0 74.0366 12.764 945 56.6286 1180.81 515.29
719 0 76.1492 12.62 961 57.18 1180.91 514.856
720 0 81.0823 12.5798 1020 56.6745 1179.78 513.183
721 0 83.1742 11.3136 941 57.9586 1181.05 512.599
722 0 85.0676 11.9317 1015 57.6236 1179.36 506.64
723 1 43.0874 9.30667 401 58.1671 1179.82 530.254
724 0 48.1172 12.2825 591 55.5245 1180.42 528.843
725 0 49.0771 12.083 593 55.3997 1179.89 528.356
726 0 53.1807 12.2413 651 55.066 1180.64 526.936
727 0 51.1156 10.9164 558 57.1111 1180.08 526.712
728 0 54.1414 11.4515 620 56.4516 1180.16 525.966
729 0 52.0424 13.9694 727 54.9849 1179.99 524.985
730 0 56.1006 11.3011 634 57.2823 1179.62 524.393
731 0 59.1962 13.3961 793 54.7503 1179.34 523.042
732 0 59.1463 10.0091 592 58.8649 1179.95 521.632
733 0 61.0659 10.0056 611 58.8298 1179.91 522.182
734 0 65.1145 14.0982 918 54.5142 1179.68 521.151
735 0 65.082 11.0783 721 56.8668 1180.9 522.408
736 0 69.085 11.7681 813 56.5105 1181.26 519.779
737 0 70.1984 11.0259 774 57.4742 1179.85 519.118
738 0 70.2376 10.3791 729 58.4842 1179.73 516.765
739 0 74.1363 9.91418 735 58.6027 1179.27 518.473
740 0 78.0952 11.3067 883 57.8811 1179.63 512.783
741 1 41.0913 11.4136 469 56.5672 1179.91 533.691
742 0 41.0489 11.401 468 57.7991 1180.54 530.962
743 0 45.0156 10.9295 492 57.4573 1179.53 532.618
744 0 45.2552 11.2031 507 57.6252 1179.78 528.856
745 0 46.2267 11.2273 519 58.0116 1179.78 529.909
746 0 48.2 10.4357 503 58.6481 1179.73 530.211
747 0 50.1082 11.096 556 58.1942 1179.25 529.142
748 0 51.1242 12.0686 617 57.705 1180.62 525.995
749 0 50.0818 11.8606 594 58.5084 1180.15 526.498
750 0 53.1758 9.70366 516 60.0271 1180.19 526.762
751 0 55.166 12.5258 691 57.8712 1180.54 523.705
752 0 57.0627 10.5148 600 59.55 1180.97 525.25
753 0 61.109 10.9313 668 59.3114 1180.84 521.219
754 0 61.0183 11.6195 709 59.2863 1180.84 519.544
755 0 63.0652 11.2582 710 59.4014 1180.36 519.921
756 0 64.0721 10.9252 700 59.6871 1180.32 518.144
757 0 67.0535 11.6325 780 59.168 1180.47 518.535
758 0 70.0956 10.7995 757 58.9128 1180.95 520.486
759 0 74.2237 13.4189 996 56.5492 1180.59 517.296
760 0 73.0618 10.3337 755 60.2808 1180.91 515.527
761 0 72.0838 11.1259 802 60.3279 1180.33 509.64
762 0 72.0775 8.60185 620 62.5113 1180.4 504.874
763 0 59.056 2.64156 156 67.4808 1180.42 487.628
764 1 44.083 11.0473 487 57.8768 1180.25 531.265
765 0 43.0155 13.344 574 57.0523 1180.55 529.688
766 0 48.0557 12.4439 598 57.3395 1181.56 530.714
767 0 50.0255 12.7335 637 56.9686 1180.29 527.138
768 0 49.0397 12.0515 591 57.8663 1180.09 529.369
769 0 51.0895 10.785 551 59.5082 1179.54 526.51
770 0 52.048 12.9112 672 57.436 1179.33 526.823
771 0 53.0466 10.0478 533 60.4728 1179.9 525.919
772 0 56.0731 11.8417 664 58.2048 1180.53 524.342
773 0 57.1782 11.8227 676 57.4186 1179.68 526.843
774 0 61.1084 11.7987 721 58.3162 1180.17 521.049
775 0 61.0463 12.8919 787 57.2186 1180.35 520.241
776 0 64.0812 13.8418 887 55.8704 1180.6 519.441
777 0 64.0824 12.5619 805 57.6919 1180.06 517.34
778 0 68.0321 13.8611 943 55.6288 1180.02 517.422
779 0 71.181 12.5876 896 56.8404 1180.22 518.545
780 0 75.1682 13.7824 1036 55.4874 1180.22 513.637
781 0 77.1006 13.1257 1012 56.0464 1180.26 514.511
782 0 80.1501 12.9756 1040 55.5567 1180.26 514.78
783 0 81.1636 12.8383 1042 55.7025 1180.58 511.85
784 0 84.1257 12.1366 1021 56.0196 1180.16 511.12
785 0 84.1561 10.1478 854 57.904 1180.07 506.693
786 0 89.0835 12.449 1109 55.5194 1179.94 509.239
787 1 49.0809 12.9174 634 54.4811 1179.76 528.33
788 0 50.0772 11.6221 582 56.4467 1179.49 524.976
789 0 51.1012 10.5086 537 56.8007 1179.76 527.56
790 0 54.0439 13.0079 703 54.4125 1179.9 527.014
791 0 55.1134 11.2858 622 56.5257 1179.09 521.613
792 0 58.1073 12.2704 713 55.2749 1179.87 522.687
793 0 58.1304 12.9364 752 55.0758 1180.43 520.565
794 0 62.1273 12.571 781 54.7746 1180 519.832
795 0 63.051 12.8785 812 55.1293 1179.92 517.963
796 0 66.2263 10.7812 714 56.6527 1179.69 518.314
797 0 68.1176 11.9646 815 55.1742 1179.84 517.829
798 0 70.1929 12.5084 878 54.7175 1179.75 514.941
799 0 70.11 12.352 866 55.2922 1180.02 515.611
800 0 75.1976 13.5909 1022 53.7427 1179.37 514.898
801 0 76.0898 13.0241 991 54.8436 1179.61 513.944
802 0 78.0938 11.4606 895 56.0279 1179.2 513.494
803 0 80.1079 10.9727 879 57.273 1179.48 509.846
804 0 84.1774 12.3549 1040 55.8413 1179.56 510.397
805 0 84.1814 11.2733 949 56.9895 1179.61 512.017
806 0 87.1139 10.4231 908 58.2819 1178.84 507.848
807 0 92.1604 12.0117 1107 56.9964 1179.82 508.548
808 0 94.0638 9.82312 924 59.3322 1179.98 507.991
809 1 53.0835 10.6436 565 57.5788 1180.12 528.731
810 0 53.1528 11.6269 618 58.1359 1180.25 523.065
811 0 57.0666 12.9147 737 56.1954 1180.41 526.908
812 0 57.0528 11.9188 680 58.6809 1180.12 525.176
813 0 60.1601 13.597 818 56.9523 1179.62 523.566
814 0 58.135 10.8368 630 60.2238 1180.02 525.397
815 0 62.0672 11.3264 703 60.4324 1179.44 521.913
816 0 65.0625 11.8348 770 60.0753 1179.66 523.026
817 0 67.0783 13.4619 903 58.814 1179.69 521.27
818 0 69.0933 14.2706 986 58.3174 1179.63 519.768
819 0 70.0696 14.1145 989 58.9626 1179.09 517.826
820 0 74.1454 11.0998 823 61.5334 1179.17 517.989
821 0 73.1083 12.5841 920 60.9054 1179.49 514.835
822 0 76.0721 10.2797 782 63.1176 1179.17 516.019
823 0 82.0969 13.6546 1121 59.802 1179.79 512.172
824 0 82.0886 12.0358 988 61.8472 1179.47 512.729
825 0 89.1862 13.1971 1177 59.7307 1179.72 512.782
826 1 45.0879 13.8618 625 57.7664 1179.15 531.366
827 0 46.057 11.3555 523 61.1969 1179.34 532.352
828 0 49.0851 14.098 692 58.2948 1178.66 531.61
829 0 50.0582 14.0836 705 59.1234 1178.36 530.115
830 0 53.1789 11.922 634 61.3218 1179.08 529.125
831 0 53.0903 11.7347 623 62.0835 1179.38 528.648
832 0 55.2067 12.897 712 59.9017 1178.88 529.867
833 0 56.1744 13.9387 783 60.2427 1179.69 525.017
834 0 56.1053 11.5141 646 62.8947 1179.38 526.296
835 0 58.1255 11.6988 680 62.6971 1178.61 526.285
836 0 62.2183 13.083 814 60.8858 1178.19 525.21
837 0 64.1885 10.6561 684 62.9854 1178.51 525.172
838 0 66.1396 14.424 954 59.9402 1178.67 522.45
839 0 66.1377 13.2149 874 61.9863 1178.77 520.991
840 0 65.0529 9.40773 612 66.3824 1179.66 519.464
841 0 69.1458 13.4354 929 61.4672 1179.46 521.985
842 0 72.1695 12.0411 869 63.3659 1179.48 515.895
843 0 76.1441 13.2118 1006 62.0805 1179.09 516.384
844 0 78.2141 13.1434 1028 61.7665 1179 516.713
845 0 82.0514 13.4672 1105 61.3258 1179.8 515.021
846 0 83.0809 12.3855 1029 63.2439 1179.5 513.559
847 0 86.1339 11.5402 994 65.1207 1179.2 510.627
848 0 91.1797 12.5028 1140 63.6412 1179.74 510.467
849 0 91.1396 12.0694 1100 64.6309 1179.51 508.563
850 1 49.0386 12.8878 632 61.0712 1179.43 530.623
851 0 48.0807 11.5431 555 63.7964 1179.95 529.214
852 0 51.145 11.9269 610 62.8738 1179.94 529.041
853 0 52.1079 11.6105 605 63.6231 1179.78 527.878
854 0 56.059 10.3819 582 64.5241 1179.76 526.814
855 0 56.1696 11.5899 651 63.232 1179.77 524.108
856 0 57.094 12.7159 726 61.7906 1179.33 525.781
857 0 60.0878 12.3985 745 62.2832 1179.98 523.447
858 0 61.1193 11.0603 676 63.2056 1179.67 525.624
859 0 63.0761 12.6672 799 62.7009 1179.7 521.362
860 0 64.2161 12.4112 797 64.0389 1180.03 523.267
861 0 67.1235 12.1567 816 64.1201 1179.63 524.14
862 0 70.0786 12.3718 867 64.5063 1179.04 517.679
863 0 73.0397 12.2536 895 63.4659 1179.48 520.625
864 0 74.0789 11.6767 865 64.9376 1180.02 518.206
865 0 76.1013 12.26 933 64.5155 1179.95 514.765
866 0 78.0545 11.2101 875 65.1086 1179.88 515.193
867 0 82.258 12.2784 1010 63.9307 1179.55 513.51
868 0 83.2276 11.5226 959 65.0375 1179.49 513.181
869 0 84.0853 11.1316 936 65.5363 1180.03 511.031
870 1 46.0739 9.46306 436 64.1697 1179.2 531.94
871 0 48.0425 11.6147 558 61.224 1179.49 532.131
872 0 48.0608 12.2761 590 61.4712 1179.33 532.592
873 0 50.0898 10.8605 544 63.9596 1179.21 526.939
874 0 53.0346 9.91806 526 64.4848 1179.4 527.456
875 0 54.0616 11.7274 634 62.7476 1179.18 527.629
876 0 56.1878 12.1557 683 61.9034 1179.21 525.205
877 0 58.0894 12.5324 728 61.3104 1178.86 524.668
878 0 57.0925 10.4042 594 64.1633 1179.07 524.088
879 0 60.127 10.1785 612 63.3758 1178.75 525.657
880 0 65.1427 12.2654 799 61.562 1178.99 523.473
881 0 67.0773 12.5974 845 60.7527 1179.22 522.036
882 0 67.144 9.71047 652 64.523 1179.17 520.015
883 0 69.1694 10.149 702 64.104 1179.14 517.722
884 0 71.0469 11.1757 794 63.0491 1178.52 514.592
885 0 75.0859 11.1472 837 62.7897 1179.5 513.937
886 0 75.0501 9.68687 727 64.5488 1180.11 513.231
887 0 77.0474 11.4086 879 62.744 1180.12 510.701
888 0 74.0818 7.24875 537 67.0652 1179.94 508.562
889 1 49.0888 6.33546 311 67.6978 1179.42 489.138
890 1 84.1766 9.84835 829 52.9602 1178.43 510.128
891 1 45.0103 8.33143 375 67.5973 1179.74 483.021
892 0 48.0536 8.67782 417 66.8585 1179.98 480.624
893 0 48.0576 10.3834 499 64.8657 1179.57 478.058
894 0 50.0781 9.82464 492 64.7968 1179.73 474.839
895 0 52.0287 11.0708 576 61.3819 1180.08 526.194
896 0 53.0225 10.5804 561 62.1016 1180.14 523.886
897 0 53.027 9.20286 488 63.5082 1179.81 524.088
898 0 56.0433 9.90305 555 63.0613 1180.12 523.052
899 0 57.0886 10.1597 580 62.2224 1179.61 521.941
900 0 59.0645 10.7848 637 61.4662 1180.2 518.702
901 0 58.1059 8.84592 514 63.3619 1180.22 517.187
902 0 60.0869 7.78872 468 63.75 1180.51 513.583
903 0 64.0705 9.3959 602 62.7193 1180.17 516.907
904 0 65.1748 6.87382 448 64.7299 1179.85 511.797
905 0 71.119 10.7285 763 60.4142 1179.49 515.811
906 0 65.0621 7.34683 478 64.3619 1180.01 513.799
907 0 72.0864 7.46326 538 63.4089 1179.15 509.009
908 0 76.1199 8.72308 664 62.8645 1179.85 507.685
909 0 78.1018 10.2814 803 62.2055 1180.57 508.706
910 1 35.0223 7.25252 254 63.878 1181.03 530.055
911 0 38.0092 7.84021 298 62.8591 1181.29 525.886
912 0 48.1779 10.8141 521 58.7006 1182.07 533.885
913 0 47.0455 11.4357 538 58.0353 1181.42 532.903
914 0 49.016 10.568 518 59.1873 1181.33 532.313
915 0 50.0547 11.3276 567 58.9929 1180.81 529.441
916 0 51.0351 12.2857 627 57.8565 1181.34 529.431
917 0 52.0159 10.8236 563 58.6963 1181.4 532.638
918 0 54.0597 11.1543 603 59.0978 1180.77 527.973
919 0 56.1138 12.5459 704 58.0611 1180.56 526.584
920 0 57.0882 12.8923 736 57.9321 1180.65 527.197
921 0 58.1645 12.0176 699 58.8984 1180.65 525.13
922 0 60.0832 11.2511 676 59.0547 1180.55 527.666
923 0 62.0694 11.0521 686 59.7974 1179.97 525.074
924 0 64.1826 9.25485 594 60.9411 1179.86 525.939
925 0 66.0378 10.4183 688 60.0741 1179.77 526.115
926 0 68.0502 11.7413 799 59.0588 1179.64 523.24
927 0 71.0601 13.8897 987 57.0051 1179.99 519.973
928 0 72.0615 12.1979 879 59.0523 1179.94 522.362
929 0 75.2075 11.3021 850 59.9553 1179.73 520.627
930 0 79.0761 12.5322 991 59.1473 1180.07 515.585
931 0 80.1591 12.0011 962 60.2516 1179.82 515.522
932 0 81.1925 12.1563 987 60.9433 1179.94 511.673
933 0 85.0566 12.2036 1038 60.6638 1179.15 512.726
934 0 91.1026 13.4354 1224 58.5016 1179.24 514.068
935 0 91.1029 12.6121 1149 60.5292 1179.4 509.558
936 0 95.12 12.6577 1204 60.6869 1179.96 504.645
937 1 51.0481 12.1454 620 60.7806 1179.36 528.345
938 0 53.0607 12.4197 659 60.4826 1179.59 527.096
939 0 53.0082 12.0736 640 61.6594 1179.81 528.258
940 0 56.0799 11.5015 645 61.9287 1179.43 527.324
941 0 58.0415 12.2843 713 61.4137 1179.68 526.335
942 0 62.0513 12.9409 803 60.5318 1179.68 523.377
943 0 62.1908 13.5229 841 59.673 1179.95 525.536
944 0 63.029 10.868 685 63.2307 1178.96 523.016
945 0 67.0603 12.4515 835 60.9377 1179.92 521.472
946 0 68.065 12.5175 852 61.2653 1180.74 520.523
947 0 70.074 12.8578 901 60.4351 1180.35 517.358
948 0 73.0805 12.6436 924 60.3918 1179.91 518.815
949 0 74.1915 11.686 867 61.9527 1179.88 516.384
950 0 76.1854 13.3621 1018 59.9037 1180.12 516.33
951 0 80.1223 12.0815 968 61.6849 1180.33 513.856
952 0 83.0754 12.6873 1054 60.4023 1179.73 515.493
953 0 85.1024 11.9268 1015 61.6591 1179.02 513.355
954 0 89.0899 11.8083 1052 61.6806 1180.06 511.238
955 0 90.1864 12.7403 1149 60.6667 1179.71 513.061
956 1 47.0368 11.3528 534 62.0412 1179.14 532.067
957 0 50.0145 12.5364 627 60.9027 1180.06 530.707
958 0 48.1456 11.8599 571 63.2662 1179.5 525.368
959 0 52.1183 12.4908 651 62.3702 1180.36 527.596
960 0 53.0554 12.421 659 62.22 1180.52 529.765
961 0 57.0155 14.4698 825 59.6873 1180.92 527.029
962 0 57.0569 13.2499 756 61.7632 1180.23 525.082
963 0 60.0684 14.1672 851 60.3326 1180.23 524.687
964 0 62.0612 12.6166 783 61.9412 1180.43 523.637
965 0 60.0928 12.098 727 64.1183 1180.6 521.996
966 0 66.0708 12.6985 839 62.2729 1180.64 522.492
967 0 66.2594 13.7792 913 62.0526 1181.06 520.078
968 0 69.2357 12.8402 889 62.8976 1180.73 519.749
969 0 71.1928 13.1614 937 62.1804 1180.44 517.985
970 0 74.139 13.4207 995 61.6573 1180.47 518.696
971 0 75.2676 13.4454 1012 61.997 1180.25 516.429
972 0 80.1448 12.6771 1016 62.3711 1180.63 515.327
973 0 81.1655 13.6881 1111 61.4545 1180.44 516.431
974 0 82.1501 13.0249 1070 62.972 1180.94 514.161
975 0 85.3202 13.7248 1171 62.1016 1180.82 510.947
976 0 88.0885 15.6547 1379 59.4162 1180.33 511.954
977 0 90.1718 13.1194 1183 62.7134 1179.86 509.949
978 0 93.1773 14.3597 1338 61.1286 1180.28 508.514
979 0 97.0968 14.1508 1374 61.2052 1181.02 506.919
980 0 98.0974 13.9963 1373 60.7553 1180.65 509.266
981 0 103.072 13.6894 1411 61.5889 1180.47 506.001
982 1 55.0441 12.8624 708 62.8446 1180.59 525.302
983 0 57.143 13.3525 763 61.5033 1180.44 527.122
984 0 60.08 13.6485 820 61.5659 1180.49 525.282
985 0 60.0601 12.5707 755 62.947 1180.8 523.629
986 0 62.1099 12.4135 771 62.38 1180.54 525.444
987 0 63.0615 13.019 821 62.6285 1180.22 521.792
988 0 66.1706 13.2385 876 62 1180.89 521.543
989 0 70.0411 15.3481 1075 58.9665 1181.07 519.951
990 0 70.2371 14.6361 1028 60.4961 1180.82 518.949
991 0 71.1395 12.7496 907 62.6759 1180.3 518.318
992 0 74.108 12.7517 945 62.2169 1181.16 517.349
993 0 75.1377 14.3603 1079 61.1362 1180.83 512.907
994 0 78.2014 13.5547 1060 61.1972 1180.57 512.925
995 0 84.2626 14.0513 1184 60.3353 1180.75 514.312
996 0 83.3589 13.4839 1124 61.6361 1180.81 512.479
997 0 87.1123 15.2447 1328 59.8727 1180.28 510.886
998 0 89.2225 12.3287 1100 63.1782 1180.81 512.671
999 0 93.058 13.7549 1280 61.7422 1180.91 507.309
1000 0 97.3176 14.016 1364 60.5762 1180.48 508.956
1001 0 98.2294 13.0205 1279 62.1329 1180.12 507.181
1002 0 102.132 14.7358 1505 59.905 1180.34 503.942
1003 0 106.239 15.3898 1635 59.0453 1179.61 503.791
1004 0 108.141 14.703 1590 59.9748 1180.26 504.277
1005 1 55.1144 12.6646 698 61.9255 1180.44 528.156
1006 0 55.0562 10.9888 605 63.3372 1180.53 529.59
1007 0 61.0509 14.5125 886 59.3905 1180.63 528.077
1008 0 59.1325 14.4083 852 60.5211 1180.04 525.133
1009 0 61.2942 14.0796 863 60.7833 1180.92 524.56
1010 0 64.1495 13.4218 861 61.77 1180.07 522.776
1011 0 65.2304 15.4069 1005 59.6298 1179.94 525.115
1012 0 71.0583 14.8892 1058 59.7013 1179.99 522.071
1013 0 70.1125 13.8349 970 61.1402 1179.82 521.88
1014 0 73.1474 15.1748 1110 59.7622 1179.82 519.563
1015 0 76.0916 14.4563 1100 60.1955 1180.19 520.286
1016 0 79.1132 14.2075 1124 60.2073 1179.6 521.917
1017 0 78.1029 13.4438 1050 61.5724 1179.43 519.874
1018 0 82.2085 12.3102 1012 63.585 1179.57 514.151
1019 0 86.2824 14.2671 1231 61.169 1179.81 514.933
1020 0 88.1584 15.1319 1334 60.7046 1179.63 516.029
1021 1 43.0915 11.5568 498 62.3996 1178.96 537.868
1022 0 45.0705 11.8703 535 63.628 1179.63 534.221
1023 0 46.1802 15.158 700 60.41 1179.89 533.647
1024 0 50.0546 13.4453 673 60.8618 1179.45 534.031
1025 0 50.0306 14.3512 718 59.9986 1178.79 533.497
1026 0 49.1005 14.3176 703 61.1394 1179.27 534.306
1027 0 51.2624 12.2702 629 63.2114 1178.69 533.822
1028 0 52.0843 16.7037 870 59.7632 1179.26 532.297
1029 0 54.1192 14.6713 794 61.5239 1179.53 531.699
1030 0 56.2013 14.2879 803 61.5579 1179.42 532.169
1031 0 58.0481 13.8334 803 62.8057 1179.56 530.915
1032 0 60.4156 12.6623 765 63.6118 1178.69 532.08
1033 0 59.0469 13.8703 819 64.7582 1178.81 527.238
1034 0 59.1059 12.4353 735 67.0204 1179.27 528.908
1035 0 64.0762 14.0458 900 65.0944 1178.67 528.841
1036 0 65.0876 13.382 871 67.0092 1178.86 528.136
1037 0 68.2253 13.4408 917 67.5518 1179.16 525.829
1038 0 69.1785 14.0651 973 67.6814 1179.16 522.806
1039 0 72.0734 12.7925 922 69.2082 1178.8 524.936
1040 0 75.1787 14.4722 1088 66.886 1178.55 524.824
1041 0 76.1972 13.0582 995 69.1357 1178.73 521.267
1042 0 77.1732 12.4136 958 69.9582 1178.28 521.736
1043 0 81.0962 13.8724 1125 68.9431 1178.78 520.255
1044 0 83.0718 13.711 1139 68.9034 1179.1 519.457
1045 0 86.3096 14.2394 1229 68.4467 1178.68 518.854
1046 0 88.1126 13.165 1160 70.0112 1178.41 515.365
1047 0 92.3421 14.1756 1309 67.7005 1178.9 517.973
1048 0 91.0787 12.8131 1167 70.7892 1178.82 513.203
1049 0 95.3252 14.5922 1391 68.6585 1178.1 512.697
1050 0 95.3155 13.8383 1319 70.3184 1178.62 514.348
1051 0 100.198 13.4333 1346 70.2571 1178.66 513.014
1052 0 104.126 15.4332 1607 68.9042 1178.49 509.34
1053 0 108.2 14.9538 1618 68.8455 1177.92 511.866
1054 0 115.109 13.2483 1525 70.1449 1178.4 511.571
1055 0 114.174 13.3043 1519 71.6695 1178.44 505.304
1056 0 120.139 14.8744 1787 69.1511 1177.81 505.04
1057 0 124.249 14.4467 1795 70.7521 1178.32 499.135
1058 1 66.1882 12.8271 849 70.9022 1177.74 528.647
1059 0 69.0469 12.8029 884 70.2885 1178.19 528.257
1060 0 73.1508 13.8891 1016 68.8346 1177.93 527.036
1061 0 73.0776 11.8504 866 71.5462 1178.84 527.709
1062 0 78.2267 14.279 1117 68.8022 1179.27 524.262
1063 1 38.1068 12.4912 476 69.1198 1179.53 543.382
1064 0 37.0362 12.7173 471 70.1932 1178.57 542.28
1065 0 39.0292 12.8878 503 70.5427 1179.16 540.113
1066 0 41.0679 13.4168 551 69.1633 1178.88 540.931
1067 0 43.0327 13.7802 593 68.43 1178.81 538.975
1068 0 44.0943 12.0424 531 70.6215 1178.73 538.844
1069 0 46.1099 13.8582 639 68.9452 1178.75 537.329
1070 0 45.0934 15.2794 689 68.1161 1179.07 536.541
1071 0 48.0365 14.0935 677 69.5583 1179.8 537.492
1072 0 48.1694 13.0788 630 71.1667 1179.31 538.157
1073 0 51.1331 14.5698 745 68.643 1179.53 534.395
1074 0 53.102 15.216 808 67.422 1179.04 535.087
1075 0 54.1911 13.2863 720 69.6681 1179.08 535.889
1076 0 57.2399 14.1859 812 68.2328 1178.86 534.08
1077 0 58.4993 13.607 796 68.8869 1179.09 531.646
1078 0 60.0944 14.5771 876 67.8059 1179.09 532.541
1079 0 60.3113 13.878 837 69.4922 1179.92 529.27
1080 0 64.2408 13.9008 893 69.056 1180.14 529.138
1081 0 66.1741 15.5197 1027 66.629 1180.19 529.969
1082 0 67.1736 13.4279 902 70.0443 1180.03 526.922
1083 0 68.078 13.3083 906 70.7837 1179.35 526.046
1084 0 73.3617 13.4403 986 69.9026 1179.33 523.414
1085 0 76.2879 14.9041 1137 68.1557 1178.64 523.478
1086 0 76.0958 12.2872 935 71.8449 1179.1 522.64
1087 0 78.2183 14.6002 1142 69.7461 1179.02 521.585
1088 0 83.2489 14.2825 1189 69.2666 1179.72 519.14
1089 0 87.2608 14.0613 1227 70.3456 1179.66 518.197
1090 0 90.3716 13.4113 1212 70.3127 1179.84 519.189
1091 1 45.3694 13.9742 634 70.1325 1179.57 538.511
1092 0 45.3338 13.5881 616 71.125 1179.36 539.31
1093 0 48.2281 14.2655 688 70.6366 1179.24 536.16
1094 0 51.5526 14.1215 728 69.4354 1179 537.026
1095 0 51.1221 12.5973 644 71.5295 1179.91 536.941
1096 0 53.1528 13.6023 723 71.5602 1179.68 534.03
1097 0 55.1642 15.1729 837 69.5627 1179.55 532.527
1098 0 56.0707 14.1964 796 70.1734 1179.26 534.161
1099 0 57.0534 14.0395 801 70.7616 1179.92 532.216
1100 0 59.2094 16.0447 950 68.141 1180.27 530.996
1101 0 62.0809 14.6261 908 69.3568 1180.15 532.226
1102 0 65.103 14.5155 945 69.054 1180.12 529.856
1103 0 68.2094 14.1769 967 68.9669 1180.07 529.268
1104 0 68.1789 13.7286 936 70.3643 1179.68 527.065
1105 0 70.2117 13.8581 973 70.2086 1179.49 526.878
1106 0 73.1495 14.0671 1029 70.1506 1180.58 522.454
1107 0 74.1961 13.343 990 70.697 1180.85 520.802
1108 0 77.196 13.0577 1008 70.005 1180.4 522.666
1109 1 40.1684 12.9953 522 69.2759 1180.15 538.318
1110 0 41.3712 13.3668 553 68.9819 1179.84 537.66
1111 0 40.087 12.2234 490 71.202 1179.81 537.514
1112 0 43.1217 14.0069 604 68.3725 1180.03 537.007
1113 0 46.1458 14.7792 682 66.7845 1180.16 537.55
1114 0 46.0871 13.4745 621 70 1179.79 533.842
1115 0 50.0897 13.4359 673 69.3358 1179.95 533.141
1116 0 50.113 13.3498 669 69.009 1180.35 533.842
1117 0 54.1823 15.2633 827 65.659 1180.44 534.279
1118 0 54.1186 15.1334 819 66.6716 1179.91 532.002
1119 0 56.0939 16.3119 915 64.965 1179.96 529.769
1120 0 56.5946 14.7541 835 66.8048 1179.22 532.284
1121 0 60.0828 13.0154 782 68.0959 1179.56 530.385
1122 0 62.1441 14.9008 926 66.2646 1179.91 528.677
1123 0 65.2388 15.4203 1006 64.8807 1180.07 528.037
1124 0 67.3688 16.4765 1110 63.3649 1180.82 526.022
1125 0 68.2023 13.6359 930 66.5516 1180.21 526.381
1126 0 68.3354 15.0581 1029 65.6365 1180.75 525.03
1127 0 71.1543 13.5621 965 67.4953 1180.71 525.972
1128 0 71.3463 14.4927 1034 67.56 1180.07 521.855
1129 0 71.1941 14.6501 1043 67.5244 1180.1 523.5
1130 0 72.3921 15.2641 1105 67.2923 1179.65 520.909
1131 0 75.1294 14.0025 1052 68.8156 1180.2 521.849
1132 0 75.1296 14.9608 1124 68.0302 1180.98 521.443
1133 0 76.2177 14.7604 1125 68.7378 1181.02 519.816
1134 0 76.3101 15.437 1178 68.2131 1179.99 520.061
1135 0 77.3527 13.5354 1047 70.3056 1179.83 523.18
1136 0 79.4124 13.6377 1083 70.4635 1179.8 521.278
1137 0 79.3286 14.2067 1127 70.4357 1179.68 520.323
1138 0 79.1603 14.0601 1113 70.6954 1179.83 521.24
1139 0 82.4049 14.5744 1201 69.4022 1180.66 522.382
1140 0 84.4394 15.4312 1303 68.7951 1180.64 519.942
1141 0 82.3545 13.6119 1121 72.0651 1180.56 519.674
1142 0 85.208 16.712 1424 67.6805 1180.42 517.198
1143 0 85.1336 13.8488 1179 71.6539 1179.93 517.107
1144 0 87.2469 13.6738 1193 71.4971 1180.39 518.293
1145 0 87.3758 14.2946 1249 71.1377 1180.41 516.103
1146 0 86.3275 14.4218 1245 70.5799 1180.29 518.599
1147 0 88.3731 14.4954 1281 70.9399 1180.35 516.592
1148 0 90.3345 15.7636 1424 68.7324 1180.63 516.079
1149 0 90.3328 15.3543 1387 70.0678 1180.29 515.962
1150 0 91.3264 14.3004 1306 71.5383 1180.11 517.129
1151 0 91.3198 14.378 1313 71.1866 1180.16 516.275
1152 0 92.4578 14.4066 1332 71.5953 1179.91 516.387
1153 0 90.4394 14.0204 1268 72.2019 1181.03 517.289
1154 0 94.3858 14.5679 1375 70.7593 1181.3 517.984
1155 0 93.4175 14.7617 1379 70.3517 1181.05 517.567
1156 0 94.2652 14.1834 1337 71.3022 1181 515.044
1157 0 94.2898 14.7206 1388 70.5735 1180.52 513.403
1158 0 96.3347 14.7091 1417 70.1186 1179.96 513.619
1159 0 95.3233 13.6902 1305 71.9126 1179.76 514.303
1160 0 96.4153 14.4894 1397 70.4445 1180.37 514.571
1161 0 98.2852 15.1803 1492 69.4826 1179.54 513.094
1162 0 98.3361 15.3758 1512 69.0509 1180.06 511.891
1163 0 99.1691 14.4097 1429 70.443 1179.88 513.074
1164 0 99.1116 13.9439 1382 70.7062 1180.79 517.531
1165 0 101.236 14.5106 1469 69.0061 1180.22 514.791
1166 0 100.286 14.0598 1410 70.8071 1179.57 512.138
1167 0 102.251 15.4326 1578 68.5887 1179.91 511.42
1168 0 100.24 14.6648 1470 70.0551 1180.11 511.062
1169 0 100.171 15.0443 1507 69.6669 1180.7 510.75
1170 0 101.166 13.1665 1332 71.5646 1180.77 514.546
1171 0 102.224 15.3976 1574 68.7211 1180.37 510.934
1172 0 103.204 14.7862 1526 69.559 1180.13 511.082
1173 0 102.44 14.7793 1514 69.3923 1180.67 513.628
1174 0 102.115 14.5522 1486 69.6467 1179.79 511.135
1175 0 103.329 14.1684 1464 69.8818 1179.93 511.558
1176 0 104.198 15.4033 1605 68.2131 1179.84 512.341
1177 0 104.081 14.9596 1557 69.553 1180.99 510.469
1178 0 105.286 14.5983 1537 69.6005 1180.63 510.966
1179 0 106.205 14.8957 1582 68.9722 1180.63 510.018
1180 0 105.287 14.1423 1489 70.0739 1180.78 509.78
1181 0 106.092 14.3743 1525 70.0433 1180.78 509.522
1182 0 103.141 13.3895 1381 72.1347 1180.47 508.883
1183 0 107.159 16.0416 1719 67.8581 1180.18 510.018
1184 0 106.117 14.0034 1486 70.5989 1180.29 508.279
1185 0 104.265 14.4727 1509 69.7535 1180.54 509.426
1186 0 108.151 15.4136 1667 67.8638 1180.42 508.918
1187 0 107.156 14.9222 1599 68.6967 1180.34 507.497
1188 0 109.183 14.1964 1550 69.5148 1180.57 507.005
1189 0 107.27 14.664 1573 69.1138 1180.8 510.651
1190 0 108.3 16.0573 1739 67.211 1180.44 508.64
1191 0 109.372 15.3604 1680 68.3589 1179.77 508.73
1192 0 107.156 13.4477 1441 71.0632 1180.76 508.219
1193 0 110.174 15.8568 1747 67.2593 1180.54 505.331
1194 0 109.208 13.9551 1524 69.5807 1180.45 509.57
1195 0 108.355 13.7788 1493 69.8888 1180.58 509.499
1196 0 113.192 16.6001 1879 65.3784 1180.47 509.157
1197 0 109.191 14.1037 1540 69.8195 1180.47 508.96
1198 0 110.217 13.4008 1477 70.5437 1180.03 509.599
1199 0 111.282 15.4472 1719 67.8313 1180.16 508.097
1200 0 113.181 14.0306 1588 69.3205 1180.25 508.332
1201 0 110.179 14.5036 1598 69.3723 1180.19 504.626
1202 0 110.124 13.4485 1481 70.8987 1180.44 508.788
1203 0 112.137 16.4798 1848 66.4426 1180.3 504.924
1204 0 112.09 16.7365 1876 65.161 1180.24 510.713
1205 0 113.176 15.9309 1803 66.8153 1180.88 505.405
1206 0 112.158 14.6311 1641 68.6837 1180.27 505.655
1207 0 112.128 15.0542 1688 68.0053 1180.31 507.309
1208 0 111.173 15.5254 1726 67.8065 1180.73 504.097
1209 0 114.293 16.0114 1830 66.5301 1180.44 505.314
1210 0 112.111 13.4598 1509 70.0954 1179.92 507.64
1211 0 111.309 13.8533 1542 69.6803 1180.27 506.02
1212 0 112.228 13.9092 1561 69.303 1180.4 507.131
1213 0 116.151 16.0825 1868 65.8924 1180.37 506.164
1214 0 115.236 14.4226 1662 68.4531 1180.87 506.999
1215 0 114.143 15.0162 1714 67.923 1180.26 503.779
1216 0 114.305 16.036 1833 66.1544 1181 506.111
1217 0 116.245 14.9941 1743 67.37 1180.56 506.053
1218 0 113.167 13.0338 1475 70.7268 1180.61 506.323
1219 0 117.253 14.2853 1675 68.2836 1180.73 505.614
1220 0 116.156 17.1321 1990 64.4563 1180.77 505.288
1221 0 115.148 14.5726 1678 68.3194 1180.93 504.675
1222 0 118.134 15.4993 1831 66.5806 1180.22 505.52
1223 0 116.326 15.1128 1758 67.314 1180.08 505.09
1224 1 54.0833 12.98 702 70.2464 1180.85 533.986
1225 0 52.0638 15.7499 820 67.2244 1180.05 533.428
1226 0 54.0207 13.828 747 69.6292 1180.37 533.155
1227 0 53.0194 12.5992 668 71.6317 1180.49 533.921
1228 0 52.0474 14.2562 742 70.0674 1180.05 532.243
1229 0 54.1045 13.6587 739 69.797 1179.55 532.206
1230 0 52.1018 11.4967 599 72.4057 1179.63 535.389
1231 0 53.1105 13.8014 733 70.4352 1180.01 532.244
1232 0 53.066 13.1911 700 70.6914 1180 532.024
1233 0 52.3045 12.867 673 70.4547 1180.46 532.82
1234 0 53.1752 14.9882 797 68.1255 1181.07 531.4
1235 0 54.2227 15.0306 815 67.8736 1180.54 530.172
1236 0 55.1907 15.5099 856 65.8797 1180.4 532.299
1237 0 55.1265 13.6051 750 69.4307 1180.64 531.471
1238 0 53.1803 15.344 816 66.9228 1180.89 531.502
1239 0 53.3055 13.8072 736 69.1345 1180.6 531.495
1240 0 54.3336 15.2024 826 66.7567 1180.46 532.738
1241 0 52.1098 13.1261 684 70.8787 1180.36 531.436
1242 0 56.2449 14.0635 791 67.8597 1179.94 532.22
1243 0 55.2344 14.1578 782 69.1125 1180.2 529.338
1244 0 55.3008 13.743 760 68.5355 1179.91 532.643
1245 0 55.3039 13.2902 735 69.2558 1180.63 531.971
1246 0 56.2616 14.717 828 66.9312 1180.99 529.89
1247 0 53.1423 13.605 723 69.3776 1180.87 530.451
1248 0 54.4463 14.8587 809 67.6897 1180.23 531.397
1249 0 55.1237 15.0933 832 67.7079 1180.52 530.413
1250 0 55.229 16.0423 886 66.3115 1180.42 530.932
1251 0 54.3718 13.518 735 69.8789 1181 532.015
1252 0 55.1196 14.6409 807 68.0285 1181.03 530.514
1253 0 56.2611 14.9304 840 67.5024 1181.12 531.588
1254 0 55.1595 13.9051 767 69.2842 1180.96 531.635
1255 0 57.1646 14.7819 845 67.1811 1181.09 532.961
1256 0 57.1333 13.8098 789 68.1166 1180.91 531.992
1257 0 56.1125 13.0096 730 70.1904 1180.48 530.078
1258 0 55.127 14.4938 799 68.2778 1180.2 531.463
1259 0 58.053 15.0035 871 65.7956 1180.8 533.029
1260 0 55.1332 14.9638 825 67.5673 1180.61 531.501
1261 0 58.0982 15.1124 878 66.2369 1180.79 530.899
1262 0 56.2427 14.8108 833 66.8752 1181.04 530.564
1263 0 57.2617 14.9315 855 67.0667 1181.25 531.708
1264 0 56.2017 13.4871 758 68.9367 1180.86 531.554
1265 0 56.187 14.3627 807 68.2094 1181.11 531.498
1266 0 57.1978 15.0006 858 67.1527 1180.84 531.974
1267 0 55.219 13.6185 752 69.5891 1180.82 532.707
1268 0 56.3077 13.7281 773 69.194 1181.12 532.362
