time division length width area intensity CMx CMy
0 0 58.0164 10.7728 625 58.9664 1035.8 432.034
1 0 60.0759 11.9016 715 57.8965 1035.36 431.317
2 0 62.0808 11.4528 711 57.8453 1036.32 432.92
3 0 66.097 11.2864 746 57.6662 1035.31 436.151
4 0 65.1595 12.2776 800 56.6962 1035.48 438.216
5 0 67.0906 11.4174 766 57.5548 1034.59 443.022
6 0 70.0986 11.4553 803 57.4545 1034.88 445.9
7 0 71.1534 11.426 813 57.647 1035.05 449.844
8 0 75.2215 11.0873 834 57.4952 1034.68 456.058
9 1 38.0934 10.5005 400 58.14 1034.08 475.485
10 0 39.0304 10.4022 406 58.5025 1035.2 477.483
11 0 42.0745 12.8582 541 55.8318 1034.52 477.714
12 0 43.126 12.3823 534 56.5243 1034.89 478.466
13 0 44.0448 11.6245 512 57.6113 1034.9 478.299
14 0 46.027 11.4281 526 57.6559 1035.23 479.836
15 0 48.0674 11.255 541 58.1885 1035.2 479.412
16 0 47.0125 10.7631 506 59.6225 1035.38 480.599
17 0 50.0725 12.1024 606 58.637 1035.06 480.124
18 0 52.1141 14.2764 744 55.5336 1034.99 482.64
19 0 53.262 11.3589 605 58.757 1034.86 484.299
20 0 51.0726 11.2193 573 60.0227 1035.47 485.106
21 0 54.0447 11.731 634 59.0331 1035.13 485.177
22 0 57.0372 13.4824 769 56.9142 1035.23 488.879
23 0 59.0691 12.5108 739 57.8904 1034.39 491.636
24 0 58.1371 10.458 608 61.5822 1034.53 491.678
25 0 62.0801 12.0328 747 58.5944 1033.85 495.64
26 0 63.0585 10.8154 682 59.5425 1034.68 499.139
27 0 64.125 11.7271 752 59.7806 1034.34 499.532
28 0 66.1225 11.0552 731 60.7373 1034.35 499.661
29 0 70.2146 11.9776 841 58.7301 1034.19 504.509
30 0 70.1921 10.8844 764 60.2212 1034.41 508.618
31 0 73.1064 12.8443 939 57.6528 1034.2 513.875
32 0 74.0566 12.6525 937 58.8655 1033.55 514.431
33 0 76.0462 10.7698 819 60.188 1034.74 517.199
34 0 83.0528 9.48795 788 60.434 1034.6 519.511
35 0 81.092 8.54585 693 63.1659 1034.75 517.525
36 0 83.0433 12.2225 1015 60.8552 1035.87 511.881
37 0 83.0843 11.3379 942 61.9533 1035.11 513.03
38 0 84.1334 12.2781 1033 62.1171 1035.43 513.465
39 0 86.084 11.3842 980 62.5337 1035.65 515.074
40 1 170.229 13.4994 2298 66.2406 1035.49 473.049
41 0 172.278 12.741 2195 68.2497 1035.2 467.959
42 1 131.169 12.6249 1656 67.3092 1035.96 486.142
43 0 136.191 12.5559 1710 66.7193 1036.12 488.644
44 1 93.1188 11.5337 1074 65.2449 1035.62 508.95
45 0 95.1798 10.6115 1010 66.1644 1035.34 509.144
46 0 99.1165 11.8446 1174 65.4608 1035.9 506.725
47 0 102.145 11.9731 1223 66.0744 1035.98 501.991
48 0 104.131 11.7352 1222 67.0016 1035.74 502.8
49 0 107.109 12.3333 1321 66.3089 1035.56 502.801
50 0 109.153 11.8275 1291 66.0821 1035.91 505.967
51 0 115.113 12.049 1387 67.3107 1035.89 498.226
52 0 120.085 12.8243 1540 67.237 1035.73 494.491
53 0 123.3 11.8005 1455 68.7863 1035.44 490.212
54 0 127.164 12.1103 1540 68.5838 1035.27 492.829
55 0 131.123 12.8963 1691 68.4565 1034.56 490.135
56 1 69.0458 10.8624 750 70.524 1035.47 518.176
57 1 32.0067 9.15432 293 69.6758 1035.36 536.959
58 0 35.0117 11.7104 410 66.4463 1035.51 535.88
59 0 37.0228 11.8305 438 67.4041 1035.5 533.868
60 0 36.0666 10.0647 363 70.7934 1035.08 534.623
61 0 38.0213 11.178 425 69.3059 1035.31 533.981
62 0 40.0446 10.8629 435 68.5264 1035.1 535.2
63 0 41.0524 11.0103 452 69.8496 1035.78 531.571
64 0 43.039 10.6647 459 69.9259 1035.27 533.414
65 0 44.0399 11.2625 496 69.8004 1035.4 531.034
66 0 45.0355 12.2348 551 69.0399 1035.47 529.548
67 0 46.0295 11.7316 540 70.187 1035.55 530.363
68 0 46.0353 11.0133 507 72.1065 1034.89 528.414
69 0 49.0853 11.5106 565 70.6442 1034.95 529.432
70 0 51.0236 10.9949 561 70.795 1035.17 529.189
71 0 52.0769 12.6352 658 68.886 1035.03 527.846
72 0 53.0796 13.621 723 67.6432 1034.94 525.111
73 0 55.1051 11.6505 642 69.4486 1035.21 525.6
74 0 54.111 10.4785 567 72.2804 1035.37 523.88
75 0 58.093 11.8603 689 69.6705 1036.43 521.209
76 0 62.0748 14.2087 882 65.6814 1035.97 520.955
77 0 62.0796 13.4022 832 67.8786 1035.24 520.006
78 0 66.0173 11.6939 772 69.43 1035.36 519.89
79 0 66.0701 12.1689 804 69.2202 1035.93 518.779
80 0 67.0547 11.0358 740 70.7311 1035.95 519.978
81 0 68.073 10.1215 689 73.1437 1036.04 515.914
82 0 71.0569 10.3438 735 72.1578 1035.64 516.087
83 0 73.0848 11.1788 817 71.825 1035.88 513.72
84 0 77.1429 11.0833 855 71.4012 1036.14 512.971
85 0 78.0621 11.0809 865 71.7665 1035.81 509.639
86 0 79.1313 11.8032 934 70.9572 1036.71 510.937
87 1 39.0224 9.40484 367 70.891 1036.61 530.403
88 0 38.1414 8.83555 337 72.5875 1037.23 529.463
89 0 42.105 10.3313 435 70.3149 1035.9 528.356
90 0 43.0711 9.49593 409 71.4646 1036.71 528.56
91 0 43.0396 9.66551 416 71.4543 1036.89 529.01
92 0 45.0628 9.09842 410 72.1732 1036.41 527.493
93 0 47.0286 10.2066 480 70.3958 1036.18 525.923
94 0 46.0953 9.19834 424 72.375 1036.47 526.618
95 0 48.0663 9.21643 443 71.5485 1035.96 526.986
96 0 50.043 10.0913 505 70.5644 1035.77 525.743
97 0 50.1154 9.17882 460 72.8935 1036.1 524.839
98 0 40.0574 5.46715 219 77.4292 1036.08 518.58
99 0 53.0551 8.97181 476 72.9769 1035.53 521.172
100 0 55.0797 9.82212 541 71.8373 1036.42 519.592
101 0 57.0717 7.44677 425 74.7718 1035.42 518.781
102 0 59.0533 10.3974 614 70.6547 1035.75 517.116
103 0 60.217 9.53218 574 71.7666 1035.71 518.908
104 0 63.0538 9.9756 629 71.7202 1036.04 515.397
105 0 66.0726 8.1577 539 73.2987 1036.2 516.855
106 0 66.1811 8.74872 579 72.4024 1035.39 511.634
107 0 69.0653 10.9172 754 70.118 1036.29 511.483
108 0 69.0653 10.9172 754 92.7228 1036.29 511.483
109 0 73.0946 9.23461 675 72.3052 1036.61 510.484
110 0 79.1301 11.7402 929 67.9591 1036.05 513.631
111 0 80.1183 10.5844 848 70.0401 1035.75 511.886
112 0 84.3229 13.9108 1173 65.4365 1036.76 509.693
113 0 87.1336 11.2012 976 69.123 1036.76 509.461
114 1 45.0828 12.7987 577 65.4541 1036.42 528.412
115 0 45.0946 11.8639 535 67.6729 1036.58 527.019
116 0 46.0972 10.9551 505 68.3446 1036.72 526.826
117 0 49.0925 11.4274 561 67.4795 1036.94 524.453
118 0 50.0238 11.0347 552 67.933 1036.56 523.748
119 0 51.0512 10.6168 542 67.941 1036.88 524.893
120 0 53.0574 13.589 721 63.4355 1036.35 522.179
121 0 53.0217 12.3723 656 65.5518 1035.85 522.784
122 0 56.0384 11.9025 667 65.1289 1035.78 522.114
123 0 58.0936 12.2905 714 64.9552 1036.54 519.679
124 0 57.1136 12.5364 716 65.1718 1036.39 519.092
125 0 60.0337 11.2937 678 65.9351 1035.41 520.131
126 0 62.083 12.4511 773 65.0479 1035.03 515.868
127 0 63.0747 11.4467 722 66.1967 1036 516.507
128 0 65.1594 11.4642 747 66.004 1037.08 513.635
129 0 67.127 11.3516 762 65.9829 1036.84 516.005
130 0 71.0898 12.871 915 64.0197 1035.76 513.561
131 0 73.0907 13.6269 996 62.9719 1036.1 510.173
132 0 74.0555 11.4239 846 65.9267 1036.64 513.27
133 0 78.1179 12.4427 972 64.5329 1036.81 511.634
134 0 78.0991 11.575 904 66.3451 1036.15 507.162
135 0 81.0677 11.2375 911 66.5126 1036.69 507.025
136 1 43.1468 11.0089 475 64.099 1036.96 526.733
137 0 42.1007 11.3062 476 63.6597 1036.88 527.374
138 0 46.0335 13.2729 611 61.5925 1037.06 525.12
139 0 46.1427 11.4211 527 64.1594 1036.53 526.505
140 0 47.1061 12.6098 594 63.4815 1037.25 524.057
141 0 48.0235 12.0566 579 64.2452 1036.73 523.219
142 0 49.0215 11.8723 582 64.0378 1037.08 522.66
143 0 50.082 12.18 610 64.1262 1035.58 522.713
144 0 50.0278 10.854 543 65.7366 1037.01 522.667
145 0 54.0201 12.5139 676 63.2056 1036.67 520.808
146 0 55.1994 11.3588 627 64.3397 1036.61 521.108
147 0 53.0521 10.6876 567 66.1534 1036.74 517.852
148 0 58.0383 12.1127 703 63.4082 1036.83 517.764
149 0 59.0613 12.1399 717 63.2232 1036.67 518.929
150 0 64.0965 11.8571 760 63.371 1036.56 515.205
151 0 64.1018 13.1666 844 61.9301 1036.84 513.923
152 0 68.0659 13.6045 926 60.7613 1037.25 515.524
153 0 69.0659 12.6401 873 62.5544 1037.25 514.428
154 0 69.116 12.0522 833 63.6086 1036.72 511.474
155 1 34.0314 10.3434 352 62.2045 1036.96 531.628
156 0 36.1313 8.9673 324 64.1698 1037.21 530.843
157 0 36.0979 9.33572 337 63.6469 1036.88 530.406
158 0 38.1048 10.1824 388 62.8866 1036.81 529.66
159 0 38.1038 10.865 414 63.6642 1036.18 527.534
160 0 41.065 10.666 438 64.0639 1035.84 527.404
161 0 42.0316 11.1345 468 63.7671 1035.93 525.829
162 0 43.1221 11.7109 505 63.2931 1036.03 526.253
163 0 42.0351 9.80134 412 65.4927 1035.9 527.252
164 0 45.0532 10.6097 478 64.4331 1035.64 525.621
165 0 46.0366 12.4249 572 63.2343 1036.36 523.603
166 0 48.0865 11.3337 545 63.6697 1036.83 524.664
167 0 47.0278 10.2067 480 66.3354 1036.47 524.958
168 0 50.0932 12.1374 608 63.0757 1036.38 523.789
169 0 51.0951 12.4474 636 62.9025 1036.8 522.094
170 0 53.0153 10.7705 571 64.7898 1036.7 521.135
171 0 53.0323 10.4842 556 65.6421 1036.24 521.378
172 0 55.0484 10.4454 575 65.3809 1036.66 520.532
173 0 57.0353 10.2217 583 64.8559 1036.71 520.432
174 0 58.1159 11.4082 663 63.8054 1036.96 518.688
175 0 59.0719 11.4098 674 63.9199 1036.24 516.616
176 0 62.1898 11.2076 697 64.1105 1036.34 516.59
177 0 63.188 11.9485 755 63.3603 1036.06 517.244
178 0 66.1492 11.9729 792 63.2159 1035.99 516.45
179 0 67.0595 10.7964 724 64.8757 1037.19 515.152
180 0 66.0493 8.6602 572 67.4685 1036.67 516.598
181 0 70.0829 11.2724 790 64.7747 1036.49 514.089
182 0 74.1301 12.3836 918 63.2647 1035.36 514.202
183 1 39.0492 9.62887 376 65.0824 1034.96 531.572
184 0 40.0445 11.4373 458 63.4672 1034.72 531.376
185 0 41.1174 9.77688 402 65.5746 1034.95 530.711
186 0 40.0258 9.91859 397 66.3577 1034.8 528.66
187 0 42.0522 12.2705 516 63.4147 1034.58 528.025
188 0 43.089 11.6735 503 64.7853 1034.23 524.036
189 0 46.0252 11.5154 530 63.8472 1034.58 526.692
190 0 45.0864 10.4688 472 66.4258 1034.75 525.328
191 0 48.197 13.1336 633 62.049 1033.36 526.512
192 0 49.0607 11.0883 544 64.2371 1033.73 526.338
193 0 51.0388 11.9517 610 62.982 1033.89 524.336
194 0 53.0652 10.3834 551 64.9583 1033.25 523.964
195 0 55.1105 12.2481 675 62.5348 1032.5 523.739
196 0 57.0734 11.0209 629 63.1812 1033.71 523.142
197 0 58.1203 11.1837 650 62.7631 1033.85 523.049
198 0 58.0905 11.6198 675 63.1911 1033.65 520.434
199 0 63.0855 12.8873 813 60.3911 1033.19 523.198
200 0 64.0652 12.5809 806 60.7047 1032.8 522.574
201 0 67.1433 11.2446 755 62.0411 1032.25 521.751
202 0 69.1073 12.9219 893 60.112 1031.8 520.544
203 0 72.1259 12.09 872 61.3039 1031.86 519.377
204 0 73.0757 10.1949 745 63.2805 1031.71 519.012
205 0 74.0551 10.8568 804 63.2798 1031.74 518.774
206 1 42.0262 10.779 453 60.2031 1032.23 534.448
207 0 44.0211 13.3345 587 57.3356 1032.53 533.957
208 0 42.0259 10.5649 444 61.5473 1032.21 532.772
209 0 46.0626 12.2008 562 58.8968 1031.64 532.975
210 0 47.0451 10.9682 516 58.9186 1030.77 536.521
211 0 47.0476 11.2439 529 60.6692 1031.27 531.828
212 0 49.0568 11.6396 571 60.296 1031.45 531.884
213 0 49.0469 12.6614 621 59.0129 1030.8 533.304
214 0 52.0631 11.8318 616 60.3474 1030.51 531.584
215 0 51.0932 11.4888 587 61.8808 1030.99 527.75
216 0 53.056 12.5339 665 60.3985 1031.18 527.668
217 0 55.0472 12.3349 679 60.7879 1030.18 528.306
218 0 56.0432 11.7052 656 60.8598 1030.73 528.736
219 0 58.1013 11.6693 678 61.3938 1030.84 527.007
220 0 60.0718 11.453 688 61.3997 1030.17 526.868
221 0 63.0692 11.3843 718 61.8287 1029.79 524.465
222 0 64.0741 12.1266 777 61.4916 1030.71 522.27
223 0 67.0819 12.1195 813 61.2374 1030.58 520.925
224 0 68.0864 10.0461 684 63.5161 1030.42 520.472
225 0 68.0615 11.4602 780 62.2167 1030 521.356
226 0 71.1014 11.5188 819 62.7167 1030.49 519.07
227 0 74.1002 10.9851 814 63.4656 1030.52 516.898
228 1 38.1149 9.75995 372 61.3306 1030.78 534.121
229 0 38.0106 11.8914 452 58.9004 1031.28 534.431
230 0 39.0437 11.5256 450 60.1867 1030.77 531.451
231 0 40.0214 9.94468 398 61.7563 1031.57 533.04
232 0 42.0402 12.3453 519 59.5723 1031.95 528.828
233 0 43.1134 10.3448 446 61.5134 1031.13 531.043
234 0 43.1073 9.88231 426 62.5798 1030.32 530.401
235 0 46.0722 10.527 485 61.9402 1031.36 526.944
236 0 48.0838 11.272 542 60.7841 1031.53 527.489
237 0 47.0723 9.98464 470 61.8872 1030.86 529.628
238 0 50.0165 12.036 602 60.0847 1030.58 527.948
239 0 50.1262 10.8526 544 62.3934 1031.58 527.186
240 0 49.0952 10.3269 507 63.4596 1031.12 526.913
241 0 50.041 8.7728 439 65.0774 1030.63 525.226
242 0 53.0607 11.892 631 61.3962 1031.46 524.398
243 0 56.1136 11.3698 638 61.9592 1031.01 522.527
244 0 57.181 10.493 600 62.475 1030.79 523.917
245 0 58.1333 11.4564 666 62.1922 1031.81 522.032
246 0 60.1241 12.7237 765 60.1974 1032.22 521.618
247 0 60.0796 9.87024 593 64.0438 1031.99 519.438
248 0 63.0936 11.8554 748 61.8235 1032.92 520.267
249 0 66.0739 12.3347 815 61.4135 1031.84 521.055
250 0 66.0691 10.1106 668 64.5314 1031.74 519.897
251 0 69.1396 10.1823 704 64.4815 1032.2 519.317
252 0 72.0759 11.2937 814 63.1548 1031.85 519.897
253 0 75.1008 10.9852 825 63.8315 1031.22 519.632
254 1 39.03 10.351 404 61.7648 1031.87 534.876
255 0 39.0267 10.5056 410 62.1585 1032.39 536.076
256 0 41.0087 9.6321 395 62.7823 1031.66 535.99
257 0 41.0511 8.64776 355 64.4254 1032.26 533.701
258 0 45.0666 10.2959 464 62.75 1032.25 534.153
259 0 45.0838 11.8446 534 62.0992 1031.5 531.86
260 0 45.0974 9.82319 443 63.7562 1032.21 532.883
261 1 92.1248 11.6907 1077 65.4299 1031.62 510.617
262 0 95.1323 12.6771 1206 64.2015 1031.34 510.577
263 1 52.091 11.6335 606 61.7063 1031.1 532.381
264 0 52.1668 11.1948 584 63.6575 1031.26 529.197
265 0 52.2098 11.0516 577 63.3674 1030.49 531.861
266 0 55.0343 11.938 657 63.1065 1029.93 529.769
267 0 55.0215 10.4868 577 65.3258 1030.1 530.22
268 0 56.068 10.9153 612 65.4706 1030.73 529.444
269 0 59.232 12.7634 756 63.0966 1030.38 528.573
270 0 58.1862 12.2194 711 64.6273 1030.55 527.399
271 0 56.051 11.2398 630 66.5286 1031.19 527.294
272 0 58.2127 9.15607 533 67.1557 1030.69 531.876
273 0 59.2672 10.4949 622 67.082 1029.58 528.077
274 0 64.1304 11.0868 711 66.3516 1029.4 524.91
275 1 126.319 11.8985 1503 69.5136 1029.83 495.623
276 0 128.303 11.3404 1455 70.2096 1030.03 494.365
277 0 133.368 12.4018 1654 68.7062 1030.12 495.509
278 0 137.279 14.0153 1924 67.8207 1030.42 489.899
279 0 140.257 12.6625 1776 70.1413 1030.37 488.232
280 0 144.419 12.9346 1868 69.2998 1030.55 488.663
281 1 41.0883 9.80814 403 65.2432 1029.71 536.901
282 0 40.0819 8.45768 339 66.9174 1029.68 537.917
283 0 43.0839 8.98247 387 66.1525 1029.72 536.729
284 0 44.1325 10.967 484 63.8058 1029.29 534.341
285 1 126.334 11.7071 1479 69.2961 1029.47 496.859
286 0 133.179 10.8125 1440 70.2535 1029.53 496.188
287 0 132.209 14.1216 1867 67.3337 1029.51 493.444
288 0 136.302 11.5993 1581 70.5383 1029.09 487.338
289 0 139.207 11.4003 1587 70.7133 1029.42 489.31
290 0 144.402 12.3544 1784 69.6026 1029.12 486.847
291 0 147.44 12.4932 1842 69.956 1029.24 486.041
292 0 146.264 10.6861 1563 71.4734 1029.56 490.417
293 0 154.319 12.4483 1921 70.5216 1029.77 482.524
294 0 158.415 11.6403 1844 71.8335 1029.91 476.005
295 0 164.292 12.3804 2034 69.9897 1029.57 480.843
296 0 169.191 12.0515 2039 71.3306 1029.44 473.192
297 0 177.264 12.1457 2153 70.3288 1028.74 475.122
298 0 181.308 11.6211 2107 72.0228 1028.47 467.682
299 0 186.364 11.1073 2070 72.2353 1029.37 467.841
300 0 193.484 11.7581 2275 71.6558 1028.91 466.182
301 0 199.342 12.466 2485 71.6628 1028.3 458.425
302 1 140.365 11.4345 1605 69.8754 1028.75 484.611
303 0 147.226 11.4722 1689 69.2232 1028.4 484.75
304 1 80.1077 10.8978 873 66.858 1028.06 517.961
305 0 83.1538 12.3626 1028 65.6119 1028.35 514
306 1 42.0403 10.704 450 64.3889 1027.91 533.707
307 0 42.0353 10.5626 444 64.9347 1028.54 533.158
308 0 44.1373 11.0564 488 64.8033 1029.15 530.293
309 0 47.0813 9.83405 463 65.8963 1028.07 531.387
310 0 47.028 9.93025 467 66.2934 1028.48 530.983
311 0 50.0685 12.0235 602 62.9684 1028.54 530.603
312 0 48.0643 10.3403 497 66.0805 1028.26 530.477
313 0 53.1044 10.8466 576 64.7465 1027.81 530.101
314 0 51.0854 10.1595 519 65.9037 1028.67 530.455
315 0 56.0926 10.7323 602 65.2093 1028.53 526.708
316 0 56.026 9.54913 535 65.0916 1028.87 530.716
317 0 59.1289 10.9591 648 64.9198 1029.03 524.17
318 0 62.0633 10.4571 649 65.2234 1028.31 524.858
319 0 64.157 10.0846 647 65.3323 1028.97 523.832
320 0 65.1129 11.1192 724 64.8743 1028.94 523.584
321 0 65.1695 11.8767 774 63.8979 1029.15 524.882
322 0 68.1057 12.3925 844 63.3341 1029.02 523.129
323 0 68.1712 9.62283 656 67.4848 1029.27 522.959
324 0 71.2187 10.7135 763 66.6068 1029.27 520.165
325 0 73.1002 11.0807 810 65.7753 1029.21 520.343
326 0 73.1357 9.76267 714 67.8389 1029.74 521.559
327 0 72.1294 9.27499 669 68.864 1030.01 521.764
328 0 78.2505 10.6197 831 68.0409 1029.72 518.066
329 0 78.1363 10.7888 843 67.5777 1029.39 519.352
330 0 77.2233 8.14521 629 66.8792 1029.18 525.587
331 0 87.1726 11.9877 1045 66.71 1029.34 511.528
332 1 48.1428 9.9911 481 66.9044 1029.94 530.108
333 0 49.0412 12.6017 618 64.3884 1030.06 528.241
334 0 51.1136 13.4407 687 63.2809 1029.69 527.22
335 0 51.0387 11.0896 566 65.9806 1029.21 528.482
336 0 53.1022 11.2801 599 65.6661 1029.56 526.684
337 0 54.1258 11.1038 601 66.4293 1029.33 526.393
338 0 57.2659 12.4856 715 64.3678 1029.35 526.073
339 0 57.0406 10.5714 603 67.0514 1029.2 525.34
340 0 60.101 11.098 667 66.1709 1029.47 525.913
341 0 61.0434 10.6973 653 67.0352 1028.74 524.703
342 0 67.1501 12.6135 847 63.634 1029.12 522.359
343 0 64.0798 11.5949 743 66.0942 1029.51 522.677
344 1 35.0263 11.0203 386 63.3264 1029.38 536.464
345 0 35.1082 11.5073 404 63.9653 1029.73 536.723
346 0 37.0141 11.9684 443 63.7698 1029.16 534.894
347 0 37.096 11.8342 439 64.1708 1029.62 533.943
348 0 39.0202 11.0968 433 64.7113 1028.9 534.834
349 0 41.1614 11.5642 476 63.9286 1028.29 532.836
350 0 41.0453 11.2559 462 64.5173 1029.31 533.052
351 0 41.0317 12.6244 518 62.3012 1029.5 532.315
352 0 43.0157 11.5074 495 63.5172 1029.19 530.208
353 0 46.0521 12.5727 579 61.7582 1028.86 530.43
354 0 46.1253 12.4661 575 62.2922 1029.66 528.986
355 0 46.0146 11.692 538 63.6115 1029.54 528.751
356 0 49.1158 12.4603 612 62.1569 1029.84 527.815
357 0 49.0327 11.5841 568 64.2993 1029.62 527.4
358 0 52.0985 11.5934 604 63.7649 1029.67 526.603
359 0 51.1406 10.5005 537 65.6089 1029.64 525.264
360 0 55.0647 11.6772 643 63.0249 1029.43 525.607
361 0 55.116 11.9747 660 63.5227 1029.07 524.036
362 0 59.1009 13.5193 799 61.1039 1029.28 522.338
363 0 60.1596 14.927 898 59.7272 1029.54 522.013
364 0 61.1014 11.9146 728 62.6291 1030.2 523.146
365 0 63.0983 11.8862 750 62.9267 1029.89 519.439
366 0 66.164 12.469 825 62.5503 1029.73 518.83
367 0 66.0665 11.7003 773 63.3312 1029.28 517.599
368 0 69.0971 12.6489 874 62.3947 1029.39 515.301
369 0 72.0555 11.1025 800 63.83 1029.43 514.789
370 0 75.0895 13.4506 1010 60.7208 1030.24 515.339
371 0 78.2854 12.761 999 61.5085 1029.82 513.494
372 1 39.0301 10.0179 391 62.1688 1029.75 534.696
373 0 40.0774 10.2552 411 62.4428 1029.51 534.869
374 0 40.0399 9.74029 390 63.7077 1029.58 533.518
375 0 41.0345 10.9177 448 63.4598 1029.82 530.984
376 0 43.0683 10.7968 465 63.1376 1029.92 530.353
377 0 44.0788 12.3869 546 61.1941 1029.57 530.972
378 0 46.069 11.613 535 62.3981 1028.89 529.127
379 0 46.1088 12.7524 588 61.4388 1028.9 529.679
380 0 48.0418 10.8447 521 62.8445 1028.22 530.108
381 0 49.139 12.0678 593 62.4368 1028.81 528.808
382 0 50.0223 11.275 564 62.8422 1028.52 528.619
383 0 53.0743 13.3775 710 60.3507 1028.99 528.286
384 0 54.1903 12.4377 674 61.6973 1029.01 527.197
385 0 54.0686 12.3547 668 62.2156 1029.57 525.714
386 0 56.1005 12.7806 717 61.0446 1028.47 526.368
387 0 56.0795 12.411 696 61.954 1028.56 523.024
388 0 60.1549 11.9525 719 62.0626 1028.97 522.846
389 0 63.0377 12.4211 783 61.6603 1028.71 522.755
390 0 63.1165 10.3459 653 64.3645 1029.61 519.271
391 0 66.0685 11.0491 730 63.6945 1029.88 519.96
392 0 67.2027 12.1573 817 63.164 1029.59 518.192
393 0 69.0648 11.1779 772 63.4715 1029.56 519.025
394 0 73.0531 10.9646 801 63.9688 1029.05 517.958
395 0 74.0972 11.8763 880 63.2955 1028.72 516.051
396 0 75.1052 8.80099 661 65.1044 1029.01 521.632
397 0 80.252 13.5448 1087 62.3054 1029.22 513.923
398 1 38.0586 10.9831 418 64.3565 1029.36 534.029
399 0 44.134 12.8246 566 61.1343 1029.33 534.177
400 0 44.0277 11.8562 522 62.8697 1029.65 533.994
401 0 46.1086 12.7525 588 61.6939 1029.79 533.73
402 0 46.0226 12.7329 586 62.6058 1029.45 530.215
403 0 47.0815 11.2783 531 63.162 1030.14 534.441
404 0 49.0288 11.6258 570 63.6895 1030.64 531.567
405 0 51.0158 12.8392 655 62.6366 1030.22 530.36
406 0 49.1004 10.061 494 65.8968 1029.77 532.514
407 0 53.0791 13.5835 721 62.7656 1029.77 526.972
408 0 54.0994 11.7007 633 64.2607 1029.09 527.618
409 0 58.0351 12.5614 729 62.7654 1028.93 529.232
410 0 57.1305 11.3775 650 64.4831 1028.78 528.546
411 0 59.1238 13.4464 795 63.6164 1028.72 524.067
412 0 61.1015 12.422 759 64.2227 1028.65 525.627
413 0 62.0383 11.8959 738 65.2304 1029.04 523.843
414 0 66.0706 11.6996 773 64.9237 1028.84 524.96
415 0 67.091 12.2222 820 65.0159 1028.46 524.513
416 0 69.0834 11.0157 761 66.979 1029.7 520.886
417 0 72.069 13.0569 941 65.1137 1030.05 520.141
418 0 72.1791 12.3166 889 66.4421 1029.46 518.936
419 0 75.0673 12.1891 915 66.776 1028.4 519.503
420 0 76.1374 12.4906 951 66.8149 1028.26 519.077
421 0 77.0467 12.3951 955 68.9539 1028.13 515
422 1 89.1218 9.0438 806 69.3548 1028.9 523.017
423 0 90.0933 9.91194 893 70.1377 1028.86 519.639
424 0 91.2057 11.962 1091 67.9056 1028.7 518.568
425 0 89.1933 11.4695 1023 70.1232 1028.83 515.017
426 0 90.1127 12.9837 1170 68.7889 1028.75 513.772
427 0 91.0543 12.3772 1127 70.3301 1029.52 511.642
428 1 47.0837 11.6601 549 69.7559 1028.91 533.219
429 0 49.0664 11.7392 576 70.2274 1028.59 532.069
430 0 52.1834 10.8847 568 70.6496 1029.31 531.901
431 0 53.0419 13.0651 693 69.5354 1029.36 529.822
432 0 56.0731 13.4111 752 68.1769 1029.27 531.582
433 0 56.0351 12.3316 691 70.5745 1029.25 529.275
434 0 57.1437 13.6498 780 69.709 1029.25 528.854
435 0 62.0874 9.79265 608 74.2911 1029.46 529.515
436 0 63.1003 11.7591 742 71.376 1029.33 529.372
437 0 63.0438 12.5627 792 72.4748 1028.98 526.779
438 0 64.0999 13.1201 841 72.7848 1029.42 524.417
439 0 65.142 12.9563 844 73.9763 1029.16 522.276
440 0 66.078 12.3793 818 74.6626 1028.33 523.944
441 0 71.0403 12.3451 877 74.1824 1029.52 523.488
442 0 72.0832 13.5122 974 74.3131 1029.73 521.729
443 0 75.1022 13.5016 1014 74.1933 1029.76 520.749
444 0 78.0976 11.1271 869 77.374 1029.47 521.272
445 0 78.0454 12.5568 980 76.399 1029.53 521.311
446 0 81.0797 13.6162 1104 75.8197 1029.3 517.683
447 0 82.0569 13.6856 1123 76.3045 1029.2 515.967
448 0 86.1169 13.5978 1171 75.696 1029.42 515.7
449 0 88.0946 13.3947 1180 75.467 1028.97 517.175
450 1 46.0897 13.7992 636 75.2642 1029.5 533.706
451 0 49.0664 13.1862 647 74.7697 1028.6 534.85
452 0 48.0817 13.0195 626 75.7109 1029.06 534.807
453 0 49.0732 13.8568 680 76.6706 1030.03 532.566
454 0 51.1535 13.958 714 75.8277 1029.08 532.426
455 0 54.1635 14.2162 770 75.7234 1030.06 531.609
456 0 54.0315 13.3626 722 77.4986 1030.15 530.978
457 0 57.0438 13.3056 759 77.4282 1029.79 529.797
458 0 58.1327 13.538 787 76.7598 1030.08 530.177
459 0 60.1362 12.9706 780 77.2397 1029.6 529.322
460 0 61.0273 13.3547 815 77.7779 1029.61 527.601
461 0 62.0747 12.791 794 78.2947 1029.5 527.383
462 0 66.0797 13.287 878 76.2289 1028.79 527.786
463 0 66.1053 13.8416 915 77.6066 1028.78 523.73
464 0 73.1414 13.8362 1012 76.254 1029.04 522.192
465 0 74.0838 13.1338 973 77.7472 1028.99 523.325
466 0 72.0986 12.7326 918 79.2288 1028.99 524.239
467 0 77.134 13.5997 1049 77.4938 1029.31 522.968
468 0 77.0576 13.3407 1028 78.8103 1029.31 520.569
469 0 84.0917 13.3426 1122 78.7228 1028.99 517.782
470 0 82.106 13.3486 1096 78.5593 1028.94 518.94
471 0 82.1347 13.4657 1106 78.0732 1028.57 519.929
472 0 81.0894 11.3578 921 81.8415 1028.39 519.527
473 0 88.2047 13.378 1180 79.2932 1028.31 512.731
474 0 91.1605 11.3865 1038 80.2033 1028.99 517.319
475 0 93.1095 13.2962 1238 79.0234 1028.9 511.065
476 0 97.1107 13.912 1351 77.6062 1028.77 512.331
477 0 101.088 14.512 1467 77.1029 1028.45 508.414
478 0 103.162 12.8439 1325 79.4483 1028.89 509.356
479 0 107.131 13.4882 1445 78.1135 1028.81 509.088
480 0 110.157 14.679 1617 76.5739 1028.94 506.3
481 0 112.196 13.7617 1544 78.3394 1028.46 502.693
482 0 117.391 14.277 1676 77.2178 1028.01 501.771
483 0 120.281 13.9091 1673 77.7806 1028.88 499.516
484 0 124.362 13.4527 1673 77.838 1028.92 499.696
485 0 129.154 14.1381 1826 77.1457 1029.06 495.085
486 0 132.24 12.3336 1631 79.6658 1028.6 494.616
487 0 136.4 15.4032 2101 75.5302 1029.2 492.806
488 0 140.18 12.5196 1755 79.7088 1029.02 492.374
489 1 69.1655 13.4605 931 78.217 1028.37 523.971
490 0 72.133 13.8633 1000 78.288 1028.47 521.063
491 0 75.0748 12.7606 958 78.7954 1029.07 522.12
492 1 159.204 13.7497 2189 79.2759 1028.43 478.973
493 0 165.209 13.383 2211 79.2501 1027.87 479.7
494 0 170.244 14.1914 2416 78.5186 1028.66 477.851
495 0 173.26 12.4842 2163 81.6648 1028.83 472.262
496 0 183.321 13.9319 2554 78.6253 1027.8 471.57
497 0 187.355 12.6925 2378 80.1842 1028.71 471.978
498 0 193.21 13.198 2550 80.038 1028.4 468.804
499 1 94.2514 12.3606 1165 79.4652 1028.58 510.655
500 0 95.2249 13.2108 1258 78.523 1028.34 509.516
501 0 101.111 14.3506 1451 76.1999 1029.14 511.09
502 0 103.174 13.7825 1422 77.597 1028.35 509.966
503 0 107.059 13.3385 1428 78.334 1028.65 506.725
504 0 111.102 14.8063 1645 75.0644 1028.69 507.314
505 0 115.23 13.7985 1590 77.0811 1028.61 503.54
506 0 118.194 13.4524 1590 77.0082 1028.51 503.618
507 0 125.09 13.7581 1721 76.2969 1028.71 501.682
508 0 127.158 12.8029 1628 78.0946 1028.91 499.848
509 0 124.286 11.6747 1451 79.9256 1028.71 497.483
510 0 137.141 13.9054 1907 76.2669 1028.02 494.141
511 0 141.206 12.9881 1834 77.8604 1028.94 491.702
512 0 142.106 13.2858 1888 78.3019 1028.2 491.281
513 0 150.19 13.0901 1966 78.0814 1028.31 488.738
514 1 74.1087 14.2224 1054 77.0503 1028.35 521.878
515 0 75.125 14.4027 1082 77.2135 1028.27 519.968
516 0 79.1186 14.1433 1119 77.2931 1027.89 518.7
517 0 78.1495 12.86 1005 79.8328 1027.76 517.038
518 0 84.1373 14.9399 1257 75.712 1028.56 518.118
519 0 90.2069 14.3448 1294 75.1592 1027.67 517.563
520 0 90.1779 16.4342 1482 73.2881 1027.62 513.499
521 0 94.0609 14.8308 1395 75.1978 1028.39 514.806
522 1 45.1188 13.2761 599 77.2538 1028.45 534.045
523 0 46.0779 13.9329 642 75.229 1027.62 535.682
524 0 46.261 12.1052 560 78.7679 1027.75 535.573
525 0 48.0804 14.455 695 75.1137 1027.6 535.183
526 0 51.104 14.2455 728 75.3819 1027.29 533.18
527 0 52.1436 12.9834 677 76.5628 1027.75 533.907
528 0 53.1186 13.2157 702 77.4345 1027.82 531.383
529 0 54.0977 13.5496 733 76.8131 1027.73 532.548
530 0 56.0391 13.6333 764 77.1427 1027.63 530.713
531 0 58.0402 14.9552 868 75.4896 1027.8 528.07
532 0 59.0248 13.2656 783 77.6169 1027.78 527.751
533 0 62.1192 14.0053 870 76.0942 1027.88 527.345
534 0 63.1649 14.2009 897 75.2832 1028.41 528.14
535 0 65.0203 13.8418 900 76.1744 1028.39 525.951
536 0 67.0482 13.4381 901 77.4118 1027.99 523.64
537 0 70.1762 13.3236 935 76.738 1028.06 522.907
538 0 71.1187 15.2281 1083 74.5208 1028.29 520.442
539 0 75.0678 14.1472 1062 75.4011 1028.19 521.503
540 0 77.1526 14.1278 1090 75.3826 1028.34 521.178
541 0 77.1717 12.7637 985 77.9218 1027.6 518.296
542 0 82.113 14.3096 1175 74.8128 1028.33 517.288
543 0 84.0654 13.8464 1164 75.4716 1028.11 516.345
544 0 87.0901 13.8133 1203 75.6692 1028.36 515.618
545 0 89.0955 14.5911 1300 74.5854 1027.92 514.66
546 1 43.0998 13.0395 562 77.7473 1028.08 534.173
547 0 46.0429 14.139 651 75.5315 1027.98 533.946
548 0 46.0808 12.4347 573 79.4415 1028.13 533.045
549 0 48.0698 13.7092 659 77.2124 1027.33 532.472
550 0 47.0424 13.052 614 78.4039 1027.39 532.086
551 0 52.026 12.6475 658 77.8146 1027.09 531.979
552 0 53.0472 14.4211 765 75.4392 1027.44 531.307
553 0 53.089 14.8995 791 75.8609 1027.81 528.852
554 0 54.0558 14.8735 804 76.9316 1027.38 526.956
555 0 55.0488 12.1892 671 80.0253 1027.57 528.098
556 0 59.0348 14.4491 853 75.6495 1027.81 527.566
557 0 60.1222 13.5225 813 77.2276 1027.91 525.797
558 0 61.0752 13.819 844 77.1623 1028.51 525.364
559 0 62.0772 12.4361 772 78.5389 1027.53 523.624
560 0 65.1172 13.7905 898 77.1102 1027.92 521.96
561 0 65.0955 13.2421 862 78.7657 1028.28 522.546
562 0 68.099 13.216 900 78.8322 1028.38 519.579
563 0 70.0578 12.1614 852 79.8885 1028.41 521.281
564 0 72.0972 12.4693 899 79.8888 1028.03 516.16
565 0 76.099 14.2578 1085 76.87 1027.82 516.1
566 0 75.0888 11.4398 859 81.2398 1028.25 514.183
567 0 77.1011 9.935 766 83.0131 1028.76 512.841
568 0 82.1002 11.961 982 80.058 1028.38 512.224
569 0 82.0979 11.669 958 80.4342 1028.53 507.937
570 0 86.1111 11.009 948 80.8829 1027.67 504.829
571 0 86.1308 10.7163 923 81.6165 1027.37 505.337
572 0 91.1521 11.7167 1068 81.1807 1028.3 506.074
573 0 94.0932 10.3727 976 82.4375 1028.26 504.293
574 1 43.033 11.2007 482 82.3091 1028.69 527.228
575 0 45.0465 9.5235 429 85.0117 1028.57 525.643
576 0 44.04 10.059 443 85.0339 1028.31 526.196
577 0 48.0564 12.527 602 81.5349 1029.08 525.804
578 0 48.1553 10.4869 505 84.2257 1029.44 526.141
579 0 50.0629 10.7864 540 83.5926 1029.74 524.406
580 0 53.0348 11.9356 633 82.3902 1030.35 522.603
581 0 61.1984 11.4382 700 84.8886 1030.23 463.536
582 0 59.0915 9.91682 586 84.0154 1029.94 521.439
583 0 61.1319 11.1889 684 82.845 1029.88 519.298
584 0 63.0532 11.0859 699 83.392 1029.66 517.688
585 0 65.1416 9.7787 637 85.281 1029.02 518.011
586 0 67.0775 9.7052 651 86.1644 1028.39 515.401
587 0 68.0727 8.90225 606 86.8597 1028.33 516.678
588 0 71.0543 11.2168 797 84.1694 1028.85 513.981
589 0 74.0376 10.238 758 85.653 1028.14 513.606
590 0 77.1344 10.8642 838 84.8437 1027.54 513.732
591 0 78.1128 12.3923 968 83.6984 1028.33 512.886
592 0 82.1687 10.9287 898 85.0947 1028.58 516.669
593 1 35.0543 12.3237 432 83.8681 1028.71 535.954
594 0 38.0958 11.3923 434 84.2235 1028.16 535.495
595 0 39.1058 12.3 481 83.1746 1028.58 534.711
596 0 41.0549 13.8839 570 79.4175 1028.8 532.988
597 0 39.0513 13.4951 527 81.9393 1027.5 532.55
598 0 43.1063 14.5686 628 78.9729 1028.41 531.474
599 0 45.1982 14.5581 658 79.1748 1028.33 531.533
600 0 46.0232 15.7095 723 77.4232 1028.15 529.53
601 0 44.0244 14.8327 653 81.4579 1028.66 531.616
602 0 49.0387 15.8446 777 77.6126 1028.71 529.906
603 0 49.0868 15.2383 748 79.1925 1029.27 528.924
604 0 50.0149 13.7559 688 81.8328 1028.81 527.808
605 0 54.0742 15.5157 839 78.7485 1028.73 528.572
606 0 51.1549 15.111 773 81.8137 1029.02 528.605
607 0 54.0859 15.4014 833 81.1681 1029.5 527.738
608 0 60.0906 15.8594 953 77.4239 1028.86 523.715
609 0 61.1287 16.4407 1005 76.4786 1029.21 522.307
610 0 64.0212 13.4331 860 81.4198 1028.27 522.258
611 0 66.1076 14.1436 935 80.261 1029.2 521.686
612 0 68.1016 15.6531 1066 76.7167 1028.88 518.296
613 0 71.0651 15.1411 1076 77.6357 1028.83 519.327
614 0 74.0586 15.0692 1116 77.2061 1029.36 517.605
615 0 77.1293 15.6231 1205 75.4963 1029.25 516.045
616 0 79.1567 14.6545 1160 77.3069 1029.36 515.516
617 1 37.1057 13.2594 492 81.5528 1029.26 535.494
618 0 37.0217 13.1004 485 81.866 1028.81 534.975
619 0 38.0701 13.6065 518 82.3436 1028.87 533.093
620 0 41.1372 12.908 531 81.2166 1029.25 533.994
621 0 41.0216 13.2857 545 81.6606 1029.1 532.374
622 0 44.1208 13.4404 593 80.6492 1028.49 532.988
623 0 44.1112 13.2393 584 81.1969 1029.02 533.86
624 0 46.1931 14.5476 672 78.9688 1028.9 532.188
625 0 46.0326 12.9691 597 82.2228 1029.45 532.307
626 0 49.0817 13.284 652 80.9709 1029.13 530.285
627 0 49.092 14.4423 709 79.6474 1028.78 529.279
628 0 51.0905 12.4289 635 81.6866 1029.41 529.66
629 0 54.0623 14.0209 758 80.2322 1029.46 527.141
630 0 56.0979 13.619 764 80.0995 1029.09 526.993
631 0 59.1021 14.568 861 77.7282 1028.36 525.747
632 0 61.2764 13.8552 849 78.5395 1028.85 524.735
633 0 64.1094 14.0541 901 77.8557 1029.2 524.046
634 0 65.0898 14.165 922 77.8178 1028.87 521.244
635 0 67.1518 12.5388 842 79.8753 1029.2 521.643
636 0 70.0859 15.2812 1071 76.2222 1029.88 518.11
637 0 71.0969 13.9668 993 77.7795 1030.02 518.617
638 0 73.1006 13.16 962 78.8649 1029.6 516.413
639 0 77.0546 14.1588 1091 76.7956 1029.28 517.46
640 0 70.0442 10.6361 745 82.6309 1028.83 508.593
641 1 47.0274 5.48617 258 87.9147 1029.68 495.159
642 1 74.0955 7.47683 554 85.4495 1029.53 502.955
643 1 2 2 4 71 1029.75 466
644 1 71.0551 5.41833 385 85.3325 1028.83 491.042
645 1 49.0825 11.3482 557 80.1777 1029.13 487.165
646 0 55.0535 10.2809 566 78.9735 1029.67 434.449
647 0 54.0357 10.4931 567 79.9171 1028.8 483.317
648 0 55.0663 10.1332 558 79.853 1028.09 479.332
649 0 55.0492 10.209 562 79.4786 1028.82 480.557
650 0 49.1387 14.7134 723 73.5934 1029.84 529.71
651 0 50.2692 14.2433 716 73.3394 1029.34 529.927
652 0 53.2428 14.8377 790 71.6671 1029.21 529.68
653 0 54.0651 16.3137 882 69.5204 1029.17 528.189
654 0 54.1026 13.9735 756 73.8413 1029.31 524.704
655 0 57.0587 13.7402 784 72.0446 1029.72 528.467
656 0 59.0843 14.4539 854 71.5948 1029.26 525.694
657 0 62.0947 14.9932 931 70.7906 1029.57 522.998
658 0 62.1744 12.851 799 74.0426 1029.2 524.821
659 0 64.1688 13.9008 892 72.8845 1029.27 521.749
660 0 66.1104 12.8573 850 74.4176 1030.04 520.666
661 0 72.121 14.2677 1029 71.206 1029.66 521.861
662 0 73.067 14.3156 1046 71.608 1029.79 519.426
663 0 75.2238 14.0115 1054 71.5247 1029.36 521.646
664 0 78.0722 14.3201 1118 71.3113 1029 517.663
665 0 80.089 14.7086 1178 71.0374 1029.44 515.791
666 0 82.1811 13.6771 1124 72.5489 1029.48 514.818
667 0 84.1028 12.889 1084 73.3367 1029.57 515.823
668 0 88.2439 13.8706 1224 72.1863 1029.43 511.314
669 0 91.0964 13.7108 1249 72.5372 1029.21 511.244
670 1 47.0796 11.2788 531 74.5574 1029.61 530.508
671 0 49.1875 12.7878 629 72.1733 1030 529.951
672 0 51.1642 13.1342 672 71.4018 1029.34 530.929
673 0 53.17 15.4974 824 68.983 1029.51 528.659
674 0 54.0394 13.8973 751 71.4075 1029.66 528.208
675 0 56.1975 16.0505 902 68.4335 1029.76 527.033
676 0 58.0768 12.7934 743 71.5289 1030.51 529.33
677 0 57.1258 12.2362 699 74.4177 1029.89 527.295
678 0 59.1558 13.7772 815 71.4822 1029.64 524.982
679 0 63.204 13.7808 871 71.1206 1028.99 524.441
680 0 66.1425 12.9115 854 70.8232 1028.56 524.916
681 0 67.1549 13.0594 877 71.236 1029.66 522.701
682 0 69.1527 12.7833 884 71.5735 1030.01 521.518
683 0 73.2312 13.3277 976 70.123 1030.07 521.864
684 0 75.2486 13.3956 1008 70.127 1030.18 519.974
685 0 78.2243 13.4357 1051 69.3064 1029.79 518.457
686 0 80.0996 12.9214 1035 70.1488 1029.83 517.507
687 0 83.1886 12.7301 1059 70.1964 1029.68 516.742
688 1 43.1631 11.1438 481 71.2869 1029.64 531.84
689 0 45.1446 13.2906 600 66.79 1029.08 532.867
690 0 48.1579 13.3727 644 66.3245 1029.66 531.323
691 0 50.2526 13.3127 669 64.9462 1030.02 532.302
692 0 50.0984 12.8148 642 66.2227 1029.66 530.573
693 0 49.1559 12.2671 603 67.6932 1029.45 528.441
694 0 53.1788 12.4674 663 66.0814 1029.69 528.389
695 0 55.1742 11.9802 661 66.0787 1029.82 529.25
696 0 58.3053 12.3488 720 65.3236 1029.58 526.694
697 0 58.1253 12.301 715 66.1692 1029.46 524.78
698 0 59.2475 11.7136 694 66.8775 1029.37 524.268
699 0 62.1077 12.6554 786 65.6603 1028.87 521.519
700 0 65.2796 12.1477 793 66.0101 1029.83 521.527
701 0 68.0633 12.841 874 64.8547 1029.47 521.902
702 0 70.1882 13.7773 967 63.5398 1029.05 521.128
703 0 70.2047 12.2499 860 65.8 1029.55 519.972
704 0 74.1467 11.8549 879 66.4698 1029.46 517.017
705 0 75.1236 12.8455 965 66.0477 1029.72 517.607
706 0 80.2208 11.9046 955 66.4262 1029.82 516.377
707 0 80.2312 12.9501 1039 66.3734 1029.7 513.972
708 0 83.1867 11.7687 979 67.4923 1028.83 511.156
709 1 45.0704 12.5581 566 63.9046 1029.22 533.148
710 0 44.0463 11.5333 508 66.7008 1029.15 532.032
711 0 43.0425 11.1982 482 68.527 1029.1 530.851
712 0 46.0866 12.0642 556 65.8957 1029.62 532.3
713 0 48.0531 12.9648 623 65.0979 1029.69 529.971
714 0 49.3098 13.04 643 64.1384 1029.98 531.064
715 0 48.1121 10.3093 496 68.9335 1029.63 528.349
716 0 53.0583 12.1187 643 65.7885 1029.53 528.148
717 0 54.0788 12.4448 673 65.8484 1029.77 526.49
718 0 57.1423 11.7601 672 65.6101 1029.58 525.579
719 0 58.052 11.1107 645 65.9349 1029.83 527.667
720 0 58.2181 11.7317 683 65.7994 1028.64 524.687
721 0 61.0786 11.2314 686 66.4373 1030.09 521.994
722 0 63.1212 11.8819 750 65.2813 1028.5 520.036
723 0 67.1237 11.963 803 64.7435 1028.72 520.189
724 0 65.0822 9.15765 596 67.7215 1029.55 520.958
725 0 67.0409 10.7248 719 66.5049 1028.99 516.111
726 0 72.256 11.7084 846 65.2376 1029.56 515.512
727 0 74.0488 11.1818 828 65.4734 1028.93 517.256
728 1 39.0154 10.5599 412 65.0097 1029.17 533.403
729 0 41.1415 10.5003 432 64.9352 1029.1 532.382
730 0 41.0327 11.2837 463 64.6847 1028.71 531.512
731 0 44.0701 10.6648 470 65.0574 1028.12 531.572
732 0 48.134 13.3793 644 61.3432 1028.85 531.115
733 0 46.1876 13.1637 608 61.9918 1028.55 530.674
734 0 49.0909 11.7944 579 63.4732 1028.39 528.437
735 0 51.1259 13.3201 681 60.7548 1029.78 529.076
736 0 53.1678 12.9966 691 60.4298 1030.17 529.767
737 0 53.0389 12.4437 660 61.7833 1028.61 525.645
738 0 55.1098 12.5023 689 60.6154 1028.61 526.98
739 0 55.1417 10.6453 587 63.3884 1028.19 524.668
740 0 57.196 11.1721 639 62.5368 1028.56 524.745
741 0 61.0808 12.3607 755 61.2146 1028.84 522.128
742 0 61.0215 11.6189 709 61.787 1029.6 522.944
743 0 64.1667 11.7818 756 61.7222 1028.49 521.511
744 0 66.094 13.2085 873 59.9404 1028.65 519.729
745 0 66.1116 11.8739 785 61.5898 1028.75 519.683
746 0 69.1329 14.3202 990 58.9465 1028.64 516.043
747 0 72.0966 12.2197 881 60.6447 1028.27 518.173
748 0 75.069 12.5085 939 60.6816 1029.62 514.368
749 0 77.0747 13.6361 1051 59.7888 1029.26 512.918
750 0 79.1865 11.6308 921 61.759 1029.13 514.098
751 0 82.1354 13.6117 1118 59.5349 1029.74 511.962
752 0 84.1684 12.0473 1014 61.5306 1029.97 510.106
753 1 45.0655 10.7621 485 61.0845 1030.09 531.126
754 0 44.0796 11.4339 504 61.756 1029.77 531.175
755 0 47.069 12.3861 583 60.9211 1029.51 528.671
756 0 50.0676 13.4418 673 58.5037 1029.44 530.143
757 0 51.0249 11.6806 596 61.9799 1029.55 527.337
758 0 52.0815 11.866 618 61.4563 1030.13 526.293
759 0 53.1277 11.5194 612 61.9134 1029.77 523.404
760 0 55.1461 13.7272 757 59.8283 1030.24 523.852
761 0 58.0667 12.9334 751 60.3489 1029.67 523.522
762 0 61.0666 12.4782 762 60.8832 1029.84 522.718
763 0 62.0553 11.667 724 62.0318 1029.61 521.239
764 0 64.047 11.5696 741 62.6302 1029.4 519.128
765 0 66.1563 11.1856 740 62.5527 1029.8 520.2
766 0 67.0518 11.1854 750 63.1053 1030.86 519.076
767 0 71.1022 12.4891 888 61.0754 1029.57 517.814
768 0 74.0808 11.8519 878 61.8929 1029.3 515.956
769 0 77.1826 12.0882 933 61.6827 1029.03 516.197
770 0 79.1086 12.3628 978 61.7025 1028.64 511.213
771 0 81.1615 14.3541 1165 59.7442 1029.11 512.897
772 1 42.0334 11.253 473 59.5539 1030.01 532.416
773 0 43.0488 8.96657 386 61.2098 1029.45 533.207
774 0 43.0429 9.87386 425 62.1459 1029.52 529.868
775 0 47.0323 11.4389 538 59.7639 1029.71 530.349
776 0 48.0539 12.1114 582 58.9845 1029.87 529.73
777 0 51.0897 12.6444 646 58.2229 1029.17 529.073
778 0 52.1216 12.5092 652 58.6334 1029.21 525.722
779 0 53.1073 10.9778 583 60.1938 1029.7 527.952
780 0 53.065 11.5142 611 60.1964 1029.53 526.574
781 0 55.1533 12.4562 687 59.0058 1029.42 525.486
782 0 55.0383 11.174 615 60.9398 1029.37 521.405
783 0 59.0604 10.6332 628 60.1146 1029.89 524.365
784 0 64.0899 13.2314 848 56.8762 1029.55 522.928
785 0 63.0631 11.5916 731 58.7223 1029.37 521.659
786 0 65.1582 11.6639 760 57.9776 1029.02 522.111
787 0 68.073 11.6933 796 58.157 1028.9 519.508
788 0 70.1688 14.0091 983 56.0936 1028.65 514.405
789 0 73.0618 12.6605 925 57.3697 1028.92 516.458
790 0 74.0918 9.58271 710 60.5648 1029.06 516.297
791 0 77.0739 10.5872 816 59.7243 1028.16 512.714
792 0 83.1095 13.8853 1154 55.4627 1028.9 513.242
793 0 82.0939 12.3517 1014 57.6765 1029.51 512.725
794 0 86.2276 14.3921 1241 55.3554 1029.16 509.268
795 0 87.1189 11.6507 1015 58.7113 1028.93 508.386
796 0 92.0824 11.6526 1073 58.1957 1028.64 506.887
797 1 44.0437 10.535 464 56.3211 1029.25 528.948
798 0 44.0285 10.2888 453 56.2252 1029.08 529.892
799 0 47.066 10.071 474 56.6224 1029.32 527.287
800 0 48.0631 9.25866 445 57.3663 1028.7 529.903
801 0 48.0765 11.3777 547 56.2486 1029.03 527.426
802 0 51.1156 13.1467 672 54.058 1028.5 526.759
803 0 54.2449 11.7983 640 54.6969 1028.96 528.8
804 0 53.0609 11.7601 624 55.2676 1029.01 524.612
805 0 52.0808 9.12045 475 57.8632 1028.84 526.217
806 0 56.0486 10.9013 611 56.162 1028.27 524.087
807 0 59.104 11.0314 652 55.8405 1029.28 522.13
808 0 61.0944 12.7344 778 53.9974 1029.19 522.771
809 0 63.0584 11.2277 708 54.976 1029.22 520.449
810 0 65.038 11.4856 747 54.7858 1029.01 520.906
811 0 63.089 11.3807 718 55.0808 1029.47 522.84
812 0 69.1092 11.2141 775 55.2026 1029.08 519.957
813 0 70.0652 11.8604 831 54.7822 1028.46 519.333
814 0 73.1433 13.0156 952 53.6302 1028.95 516.791
815 0 76.1468 12.2789 935 54.2128 1028.39 516.846
816 0 77.1532 11.1467 860 55.1477 1028.38 518.714
817 0 81.1178 12.562 1019 54.265 1028.5 514.044
818 0 82.1012 11.7782 967 54.9131 1028.45 514.888
819 1 42.0199 10.2809 432 55.3102 1028.01 532.63
820 0 43.11 10.0441 433 55.6374 1028.15 530.912
821 0 45.0859 10.114 456 55.3268 1028.44 532.351
822 0 46.1241 12.2496 565 53.4124 1028.08 531.588
823 0 47.1165 9.40223 443 56.0158 1028.89 530.722
824 0 49.045 9.58304 470 55.8745 1028.42 530.368
825 0 51.08 10.0822 515 55.1806 1028.65 529.118
826 0 56.1097 11.2458 631 53.7654 1028.09 527.765
827 0 55.1002 10.2359 564 54.5993 1028.34 530.31
828 0 55.0163 12.7235 700 53.9586 1027.55 525.006
829 0 57.0538 11.1649 637 54.405 1027.3 528.593
830 0 59.0885 11.7451 694 54.6542 1028.21 523.004
831 0 61.0899 10.5746 646 55.5851 1028.54 525.13
832 0 62.0924 13.0612 811 53.6769 1027.86 523.924
833 0 64.0627 10.8019 692 56.1575 1028.37 520.324
834 0 67.1368 11.7819 791 55.445 1028.45 520.047
835 0 67.1595 9.41043 632 58.0601 1027.42 521.101
836 0 69.0856 10.1613 702 57.8134 1027.22 519.15
837 0 75.0875 12.6519 950 55.3158 1027.39 514.606
838 0 76.0357 11.2973 859 56.2852 1027.72 518.758
839 0 79.1202 13.7892 1091 54.4317 1027.77 517.109
840 0 79.1294 9.45288 748 58.9037 1028.52 515.104
841 1 42.0842 11.6433 490 55.6735 1028.5 534.888
842 0 40.0356 12.1642 487 56.0596 1028.52 533.604
843 0 42.0169 13.5422 569 54.5782 1028.03 532.348
844 0 46.0378 11.6861 538 56.5167 1028.03 531.794
845 0 45.116 10.9495 494 57.2571 1028.97 533.31
846 0 49.2166 11.8049 581 55.9931 1028.7 532.744
847 0 49.0389 10.6242 521 57.9923 1028.26 530.756
848 0 49.0379 10.4001 510 58.3529 1028.85 532.145
849 0 50.0428 11.8099 591 57.0322 1028.6 530.821
850 0 54.1312 12.5251 678 56.5177 1028.46 527.813
851 0 55.1482 12.276 677 56.678 1028.91 527.241
852 0 56.2499 11.0934 624 57.8125 1029.03 526.282
853 0 59.0448 13.5998 803 55.523 1028.99 524.585
854 0 60.0555 9.62444 578 59.2907 1028.71 525.192
855 0 62.0366 12.3959 769 56.5358 1028.86 525.127
856 0 65.1304 13.1889 859 56.3027 1028.42 520.028
857 0 65.0638 10.5435 686 58.828 1028.96 521.949
858 0 66.0959 11.5741 765 58.5647 1028.65 516.991
859 0 70.1568 12.5148 878 57.2779 1028.76 515.966
860 0 71.0822 9.07401 645 61.9876 1028.94 519.143
861 0 78.3072 13.0767 1024 57.8106 1028.7 517.208
862 0 78.1132 12.8019 1000 58.85 1028.05 515.929
863 0 83.1296 11.7287 975 58.679 1028.44 518.377
864 0 84.1386 12.1704 1024 59.084 1029.04 515.428
865 0 86.1508 12.0719 1040 59.5163 1029.01 512.254
866 1 44.018 11.3135 498 57.7309 1029.01 537.002
867 0 47.1016 12.887 607 56.8386 1028.67 534.532
868 0 46.0542 10.6179 489 59.7832 1028.54 534.16
869 0 48.0842 12.0206 578 58.8339 1029.15 531.194
870 0 50.2794 10.8593 546 59.9725 1028.41 530.637
871 0 52.0649 13.1567 685 57.5416 1028.55 530.372
872 0 53.0532 12.7042 674 58.1306 1028.38 530.641
873 0 55.1699 11.238 620 58.8436 1028.21 530.781
874 0 56.1249 13.9867 785 56.9134 1028.55 528.269
875 0 59.1502 12.6458 748 58.373 1028.19 527.603
876 0 60.0687 11.903 715 59.3832 1028.18 526.203
877 0 62.1295 14.4215 896 56.7679 1028.16 525.237
878 0 64.0734 14.2181 911 56.7717 1028.19 525.715
879 0 66.0549 13.625 900 57.9233 1027.8 523.601
880 0 68.151 12.9712 884 59.293 1027.99 522.605
881 0 68.1424 11.2558 767 61.3624 1028.33 522.681
882 0 71.0481 12.2875 873 60.016 1028.17 522.631
883 0 72.0461 12.0062 865 61.6509 1027.97 518.071
884 0 75.1801 13.3945 1007 59.5948 1027.54 520.349
885 0 78.2064 13.8096 1080 60.0982 1028.55 516.355
886 0 80.2341 11.1923 898 62.6904 1029.1 517.922
887 1 39.0581 11.4701 448 60.4308 1029.04 537.194
888 0 42.0456 14.4843 609 58.6223 1029.04 535.058
889 0 44.1683 12.1354 536 60.8358 1028.58 534.062
890 0 47.0784 13.127 618 50.089 1027.66 532.521
891 0 44.3289 10.2868 456 63.5044 1028.95 532.842
892 0 47.059 10.6675 502 62.4482 1029.17 532.464
893 0 49.1525 12.2883 604 61.6457 1028.73 530.08
894 0 48.063 10.5903 509 63.6012 1028.89 530.405
895 0 53.1369 13.8322 735 59.766 1029.2 528.201
896 0 52.0251 11.3407 590 62.6508 1029.18 529.071
897 0 53.2605 11.6409 620 62.0306 1028.7 529.555
898 0 58.0768 14.1537 822 59.8869 1029 527.258
899 0 59.0836 12.7785 755 60.9497 1028.57 526.56
900 0 60.0693 11.7864 708 62.5664 1029.1 525.809
901 0 63.102 11.9172 752 61.9614 1028.95 524.493
902 0 62.1642 11.357 706 63.3229 1029.23 522.275
903 0 67.2331 10.2628 690 64.3159 1028.96 520.986
904 0 69.2321 11.4831 795 63.239 1028.63 523.258
905 0 72.3226 13.5504 980 60.9378 1028.36 521.03
906 0 74.2064 12.4652 925 62.4227 1028.95 519.166
907 0 77.0674 12.6642 976 62.542 1028.21 515.673
908 0 78.1499 10.9661 857 64.6651 1028.79 516.674
909 0 81.254 13.304 1081 63.3201 1029.71 515.543
910 0 82.2772 10.9751 903 64.8328 1030.01 516.713
911 0 86.0922 11.3599 978 64.1943 1030.44 518.928
912 0 87.1494 11.945 1041 65.6494 1030.95 511.136
913 0 90.0394 12.0836 1088 65.0414 1030.24 510.64
914 0 92.1058 12.7679 1176 64.4872 1030.23 508.583
915 0 96.1832 12.341 1187 64.7178 1029.63 508.131
916 0 97.0968 12.3794 1202 64.6955 1030.04 508.254
917 0 102.22 13.8916 1420 63.3204 1030.15 504.613
918 1 52.0479 12.0274 626 62.8323 1029.65 532.169
919 0 54.0277 12.3825 669 63.1121 1029.27 530.054
920 0 54.0469 11.268 609 64.5895 1029.42 531.488
921 0 57.0684 13.7554 785 62.2331 1029.61 528.301
922 0 58.118 11.2013 651 64.4301 1029.5 529.759
923 0 61.2056 12.2538 750 63.3893 1028.9 528.437
924 0 62.0941 13.866 861 62.2834 1028.84 525.767
925 0 63.1432 11.276 712 65.2626 1028.79 526.205
926 0 62.1946 10.4832 652 66.7577 1028.6 524.775
927 0 63.1743 8.56361 541 66.6932 1028.9 529.209
928 0 70.0928 12.9543 908 65.0022 1028.89 521.403
929 0 70.2052 10.6687 749 67.5915 1028.62 521.685
930 0 74.1253 12.5193 928 65.9741 1029.03 520.113
931 0 74.1506 11.4632 850 68.8259 1028.8 515.504
932 1 40.058 9.96054 399 68.0501 1029.1 535.484
933 0 39.0848 11.0273 431 67.2274 1028.33 535.733
934 0 41.1247 10.8208 445 68.5461 1028.45 533.198
935 0 44.0306 11.5601 509 67.336 1028.7 530.855
936 0 46.0562 11.9854 552 66.6087 1029.22 528.884
937 0 45.0932 10.5559 476 68.6723 1028.53 528.765
938 0 47.0871 12.3388 581 67.2719 1028.73 526.921
939 0 50.0797 12.6399 633 66.6208 1029.11 527.529
940 0 51.1098 12.0329 615 67.4943 1028.62 527.54
941 0 52.1031 10.6328 554 68.63 1028.75 529.625
942 0 54.0912 11.2957 611 68.9754 1028.74 525.229
943 0 57.1053 11.6276 664 67.8404 1029.03 526.908
944 0 60.0877 11.3001 679 67.9028 1027.98 524.987
945 0 61.1733 10.789 660 69.1864 1028.89 521.879
946 0 66.0361 12.584 831 66.136 1029.63 523.598
947 0 68.0761 11.8397 806 66.9094 1029.19 520.726
948 0 69.061 11.3957 787 68.1296 1028.81 521.379
949 0 73.0667 11.688 854 67.3817 1028.86 518.046
950 0 76.194 12.7832 974 66.154 1029.02 516.893
951 0 79.0741 10.7621 851 68.4571 1029.37 516.961
952 1 42.0312 10.3019 433 66.8938 1028.86 534.453
953 0 42.0469 9.94128 418 68.9545 1028.14 532.474
954 0 44.029 11.6514 513 66.4561 1029.18 531.636
955 0 47.1637 11.0254 520 66.225 1028.87 532.54
956 0 48.0587 11.8813 571 65.9405 1028.22 530.921
957 0 48.2235 9.99512 482 67.8838 1029.08 529.759
958 0 53.1842 12.7669 679 63.701 1028.59 528.194
959 0 54.1163 13.8591 750 62.8907 1029.38 526.105
960 0 53.0574 10.4038 552 67.3659 1029.66 525.65
961 0 59.0482 11.1434 658 65.2629 1029.93 524.616
962 0 59.0388 12.1615 718 63.9248 1029.25 523.953
963 0 62.0955 11.9654 743 64.2032 1029.14 521.172
964 0 66.1669 11.607 768 63.8099 1029.3 522.009
965 0 65.0882 11.2002 729 64.2922 1029.49 521.263
966 0 69.0918 11.3472 784 63.8278 1029.41 517.087
967 0 71.0648 10.3286 734 65.2112 1029.73 518.674
968 0 76.1945 9.73824 742 64.9124 1029.56 517.721
969 0 78.0694 11.477 896 63.173 1029.27 513.206
970 0 81.1355 10.92 886 63.1287 1029.37 513.665
971 1 42.1046 13.0864 551 59.6007 1029.09 531.731
972 0 42.0386 10.2049 429 62.669 1029.48 528.839
973 0 47.1305 12.4548 587 60.1397 1029.28 529.394
974 0 48.1655 12.9761 625 59.3568 1029.91 528.349
975 0 49.0893 12.1615 597 60.0218 1029.89 528.382
976 0 52.0688 12.061 628 59.5812 1029.26 529.049
977 0 55.0893 12.6885 699 58.774 1028.96 525.046
978 0 56.0883 10.7509 603 61.2471 1029.24 523.975
979 0 59.0342 11.3324 669 59.6099 1029.91 523.928
980 0 60.1074 12.5442 754 57.9324 1029.66 522.618
981 0 61.0969 11.6864 714 59.1569 1029.47 522.112
982 0 63.069 10.4647 660 60.4015 1029.49 519.959
983 0 65.1452 12.971 845 57.5325 1029.45 517.473
984 0 69.0432 12.6732 875 57.5451 1029.52 517.791
985 0 71.1007 12.1799 866 57.7806 1029.77 513.82
986 0 72.0786 11.432 824 58.1262 1029.56 517.222
987 0 76.0937 10.8025 822 58.5304 1029.14 511.814
988 0 78.0793 11.8469 925 57.0951 1029.71 512.274
989 0 81.239 12.1493 987 56.766 1029.74 508.203
990 0 87.0606 11.7964 1027 56.6037 1029.56 506.406
991 0 88.1358 11.4255 1007 57.0506 1029.18 507.158
992 1 44.0514 11.078 488 57.7602 1029.88 528.531
993 0 48.1627 10.7137 516 57.0833 1029.69 527.829
994 0 48.037 10.5752 508 57.4724 1029.41 527.258
995 0 51.0479 11.3619 580 56.5345 1029.48 526.19
996 0 52.1294 13.0253 679 54.9912 1029.61 525.751
997 0 53.0308 14.1239 749 53.8411 1029.15 522.861
998 0 55.0656 12.6939 699 55.5036 1029.56 524.24
999 0 59.123 11.6368 688 55.7456 1029.82 523.574
1000 0 58.0851 10.8289 629 56.6264 1029.38 521.65
1001 0 61.0708 10.3814 634 57.0158 1029.02 519.95
1002 0 62.1026 11.1912 695 55.8086 1029.22 517.899
1003 0 65.0764 11.6632 759 55.1094 1028.53 517.25
1004 0 68.128 11.2729 768 55.3073 1028.96 514.273
1005 0 68.1242 10.7598 733 55.543 1029.42 516.685
1006 0 70.193 10.001 702 56.5456 1029.32 514.007
1007 0 78.1286 13.2218 1033 53.0658 1029.39 513.59
1008 0 78.2002 11.0741 866 55.0751 1028.82 510.178
1009 0 81.2012 11.6501 946 54.5085 1029.71 511.777
1010 0 83.0703 12.351 1026 54.1043 1028.86 509.905
1011 0 88.2489 11.3882 1005 54.5393 1028.73 510.168
1012 0 89.1444 11.1953 998 55.0501 1028.77 503.239
1013 0 93.1256 10.2228 952 55.3939 1028.59 507.627
1014 0 98.2027 13.7878 1354 52.1108 1028.61 505.775
1015 0 102.198 14.2273 1454 51.6004 1029.16 503.541
1016 0 101.11 10.0781 1019 56.1384 1028.51 500.73
1017 0 108.232 12.39 1341 54.1148 1028.35 497.57
1018 0 111.128 11.6803 1298 54.4476 1028.58 499.851
1019 1 57.1676 11.8948 680 52.7132 1028.83 526.281
1020 0 57.0483 9.64095 550 56.5327 1028.54 520.427
1021 0 62.1555 14.3028 889 52.315 1028.03 521.294
1022 0 63.03 10.3602 653 55.6631 1028.47 522.101
1023 0 64.0671 11.4255 732 55.3607 1028.81 518.219
1024 0 69.0569 12.4825 862 53.7169 1028.42 518.166
1025 0 68.1832 12.3931 845 53.8166 1027.73 518.651
1026 0 73.1063 13.8155 1010 52.9337 1028.24 516.161
1027 0 74.1112 12.6297 936 54.0417 1027.6 514.51
1028 0 77.1197 13.2392 1021 54.0343 1028.15 513.305
1029 0 82.211 13.1248 1079 53.4819 1028.47 510.642
1030 0 83.1371 14.3979 1197 52.9265 1028.49 509.576
1031 0 87.2461 13.376 1167 54.078 1028.65 508.714
1032 0 91.2129 11.4786 1047 55.4976 1027.56 509.887
1033 0 91.1782 11.6146 1059 56.1747 1027.65 509.219
1034 0 97.0625 12.4662 1210 55.686 1028.25 506.319
1035 1 48.0376 12.1363 583 55.2573 1027.5 528.314
1036 0 51.2395 9.99229 512 56.6523 1027.68 528.93
1037 0 52.0699 10.3131 537 56.3166 1027.77 530.16
1038 0 55.0596 13.4037 738 54.0745 1027.92 527.65
1039 0 58.048 13.0237 756 54.7698 1027.61 525.47
1040 0 58.1025 11.8412 688 56.2296 1027.31 521.888
1041 0 58.1002 12.4612 724 56.518 1027.51 520.758
1042 0 62.0737 13.8223 858 54.7587 1027.06 522.682
1043 0 63.105 13.9767 882 54.9376 1027.7 521.646
1044 0 65.0674 10.6966 696 58.1552 1027.91 520.707
1045 0 67.2985 12.1994 821 57.4117 1027.43 518.322
1046 0 70.1373 12.5611 881 56.8025 1027.22 517.804
1047 0 74.1626 14.6974 1090 54.3587 1027.66 517.017
1048 0 76.0869 13.984 1064 55.5987 1027.51 512.92
1049 0 80.1317 10.9944 881 57.9921 1026.88 515.102
1050 0 83.1501 12.5075 1040 57.2308 1027.4 509.803
1051 0 87.0713 14.0919 1227 54.9209 1027.55 513.206
1052 0 89.2617 11.6287 1038 57.8218 1027.17 510.652
1053 0 94.0696 12.9266 1216 56.6924 1026.69 508.825
1054 0 96.104 12.1951 1172 57.3831 1027.16 508.022
1055 1 49.0724 7.07119 347 58.9481 1027.15 529.749
1056 0 52.1394 11.6994 610 55.1443 1026.51 529.402
1057 0 52.0395 10.8187 563 56.4725 1027.07 529.675
1058 0 56.0673 12.271 688 55.3009 1026.74 527.972
1059 0 57.0311 11.5551 659 55.9014 1027.24 527.002
1060 0 59.0776 10.7994 638 56.2665 1026.89 528.495
1061 0 61.0386 11.0094 672 55.7857 1027.89 529.007
1062 0 60.1241 9.08122 546 58.4158 1028.33 526.187
1063 0 65.0825 12.6916 826 54.563 1028.47 525.599
1064 0 63.109 10.0303 633 57.7772 1027.66 521.34
1065 0 69.1351 12.4973 864 55.0012 1028.23 520.988
1066 0 70.1352 11.4351 802 55.4439 1027.95 523.319
1067 0 70.1336 11.364 797 55.9147 1027.8 519.42
1068 0 75.1562 10.5114 790 56.3722 1027.61 517.227
1069 0 78.0841 12.2816 959 54.7852 1027.62 516.551
1070 0 81.1907 14.5706 1183 52.765 1027.96 513.252
1071 0 83.1753 14.0907 1172 52.9915 1028.74 516.259
1072 0 89.2192 10.6255 948 55.8692 1028.24 514.286
1073 0 90.1751 11.8325 1067 54.9728 1028.46 510.825
1074 0 91.2296 10.7312 979 56.476 1027.95 510.868
1075 0 95.0909 13.6186 1295 53.9598 1028.34 506.297
1076 1 46.1457 11.7454 542 53.8266 1027.53 531.22
1077 0 53.0375 9.93637 527 53.649 1028.01 530.264
1078 0 52.0271 10.2639 534 54.588 1028.02 529.47
1079 0 53.0769 12.3594 656 52.9085 1028.77 528.412
1080 0 55.0903 11.0364 608 54.0888 1029.01 526.109
1081 0 56.0411 10.9027 611 54.5745 1028.95 525.332
1082 0 59.0449 9.60286 567 56.1305 1028.84 523.469
1083 0 60.1908 11.7294 706 54.6133 1028.15 525.133
1084 0 65.1307 10.6094 691 54.8509 1028.18 524.773
1085 0 64.1117 10.045 644 55.9286 1027.37 521.516
1086 0 67.0608 11.5418 774 54.5801 1027.76 519.553
1087 0 71.1021 12.3203 876 53.9315 1027.96 521.002
1088 0 71.0817 11.9721 851 54.1539 1028.67 516.88
1089 0 72.1091 11.0111 794 55.5453 1028.59 516.349
1090 0 73.0865 8.74307 639 57.7246 1028.8 514.695
1091 0 78.1447 11.4787 897 55.2854 1028.55 514.528
1092 0 81.2462 13.576 1103 53.4152 1028.28 512.289
1093 0 84.0833 10.894 916 55.4716 1028.18 510.048
1094 0 83.1456 11.2333 934 55.2013 1027.9 512.403
1095 0 86.1948 9.45532 815 56.5939 1028.81 509.827
1096 0 91.1082 11.1735 1018 54.9214 1028.56 511.528
1097 0 93.033 11.727 1091 55.2136 1028.42 507.11
1098 0 97.132 10.9027 1059 55.9471 1028.22 505.13
1099 1 49.108 11.0573 543 53.6667 1029.21 529.453
1100 0 51.0978 10.4701 535 54.529 1029.33 525.864
1101 0 51.0556 10.5179 537 54.8696 1029.38 525.142
1102 0 54.058 12.9675 701 52.4165 1029.31 524.548
1103 0 56.125 13.4699 756 51.5463 1029.51 525.979
1104 0 57.0776 13.1225 749 51.8118 1028.76 524.426
1105 0 59.0583 10.6336 628 54.6003 1028.38 522.769
1106 0 61.1622 11.118 680 53.9485 1029.81 519.057
1107 0 63.1742 10.7322 678 53.1799 1029.96 520.578
1108 0 65.1677 8.68529 566 55.0848 1029.45 516.445
1109 0 69.1037 11.5189 796 52.3002 1029.46 513.217
1110 0 71.0677 11.5805 823 52.2163 1028.95 517.036
1111 0 75.1796 10.6545 801 52.9938 1028.96 513.938
1112 0 76.29 9.90955 756 54.0212 1029.26 508.519
1113 0 83.1076 11.4189 949 52.5079 1029.22 512.234
1114 0 86.1933 10.9637 945 52.9407 1028.85 505.628
1115 0 87.153 12.1625 1060 52.1132 1029.14 505.471
1116 0 90.2434 12.2668 1107 52.5646 1029.58 504.734
1117 1 46.0687 9.39901 433 53.3857 1029.11 530.753
1118 0 48.0857 10.6684 513 52.9181 1028.76 528.324
1119 0 46.0078 11.5415 531 52.5386 1028.68 527.426
1120 0 50.0903 8.92388 447 55.0112 1028.09 529.707
1121 0 51.0918 12.9179 660 52.1409 1028.28 524.567
1122 0 52.0575 11.8331 616 53.5292 1028.57 524.828
1123 0 56.0516 12.3993 695 52.5712 1028.74 523.586
1124 0 56.1297 12.1682 683 53.2972 1029.54 520.458
1125 0 59.0837 12.9985 768 52.1862 1029.02 520.414
1126 0 61.0288 11.9779 731 52.803 1029.54 523.104
1127 0 62.1004 10.4347 648 54.1265 1029.57 519.685
1128 0 66.1268 12.1131 801 51.98 1028.88 522.392
1129 0 65.0566 12.1433 790 52.8722 1028.91 518.389
1130 0 69.0456 13.0059 898 52.0267 1028.49 517.8
1131 0 70.1302 13.6603 958 51.8528 1029.02 516.123
1132 0 73.1382 13.1805 964 52.445 1029.62 514.177
1133 0 75.0664 12.429 933 53.4394 1029.62 513.178
1134 0 76.0577 10.7681 819 55.3065 1028.65 513.81
1135 0 80.0994 12.3472 989 53.907 1028.65 512.283
1136 0 81.2127 11.7469 954 55.0073 1028.44 508.567
1137 0 85.0838 14.28 1215 52.6675 1028.45 506.69
1138 0 86.176 10.2929 887 56.9008 1028.51 506.505
1139 0 89.0801 12.6066 1123 55.3571 1029.43 509.291
1140 0 93.1631 12.7089 1184 55.0988 1029.43 508.318
1141 1 46.0453 14.0079 645 54.5287 1029.39 526.429
1142 0 45.0309 13.1465 592 56.3446 1029.43 525.625
1143 0 47.0686 12.28 578 56.7405 1028.76 528.211
1144 0 52.0991 11.6509 607 56.6211 1029.31 525.776
1145 0 54.2106 12.5068 678 55.8569 1029.34 524.332
1146 0 54.0713 12.8719 696 55.4986 1029.21 524.487
1147 0 57.1682 12.9268 739 55.7605 1029.36 521.943
1148 0 59.1264 12.2111 722 56.1468 1029.59 521.711
1149 0 61.1191 13.5801 830 55.1313 1029.13 521.582
1150 0 61.0397 12.0086 733 57.352 1029.08 521.274
1151 0 66.092 16.235 1073 52.3392 1029.27 521.205
1152 0 67.1086 12.2637 823 57.0219 1028.93 519.724
1153 0 67.123 14.4958 973 55.0771 1030.04 517.891
1154 0 73.0214 14.0096 1023 54.8387 1030.13 519.686
1155 0 72.0819 15.4963 1117 53.7108 1030.06 514.68
1156 0 80.152 14.0857 1129 54.0859 1029.92 516.83
1157 0 79.0646 12.6226 998 55.983 1029.48 514.516
1158 0 82.1504 12.6962 1043 56.094 1028.91 510.221
1159 0 83.086 11.2414 934 57.3844 1028.75 512.428
1160 0 86.1475 13.8483 1193 54.7938 1029.54 513.379
1161 0 92.158 12.9994 1198 55.0626 1028.33 510.78
1162 0 94.089 14.5075 1365 54.3919 1029.02 504.33
1163 1 50.0906 11.8984 596 56.0604 1028.61 528.153
1164 0 51.0904 10.6086 542 57.6531 1029.49 528.708
1165 0 52.3082 12.5219 655 55.8107 1029.14 527.079
1166 0 53.1847 12.2028 649 55.7781 1028.41 528.575
1167 0 56.0951 12.354 693 56.0029 1028.73 525.271
1168 0 56.051 12.4708 699 56.0672 1029.02 523.18
1169 0 57.1192 11.1521 637 57.416 1029.54 522.892
1170 0 61.0649 12.8716 786 55.5064 1029.55 522.135
1171 0 61.2103 12.1711 745 56.5611 1029.23 522.076
1172 0 66.2059 13.7903 913 54.1895 1029.01 520.284
1173 0 65.1831 10.7543 701 57.4479 1029.7 521.67
1174 0 68.122 11.2886 769 56.4954 1028.7 520.945
1175 0 73.1673 12.0409 881 55.3666 1028.79 519.072
1176 0 74.2256 12.7449 946 55.4736 1028.77 518.167
1177 0 76.049 12.0975 920 56.8728 1029.83 514.982
1178 0 80.1412 13.5261 1084 55.3902 1029.72 510.546
1179 0 82.1301 11.4574 941 57.3985 1029.57 510.972
1180 0 85.0632 12.7082 1081 55.4292 1029.64 513.409
1181 1 46.1276 10.7528 496 56.2903 1029.64 530.385
1182 0 46.0713 11.1132 512 56.3164 1029.53 530.436
1183 0 45.0419 11.6336 524 56.1107 1029.1 531.031
1184 0 49.1222 10.7691 529 57.0756 1029.21 529.225
1185 0 49.1804 13.542 666 54.1757 1029.44 529.48
1186 0 52.0846 12.1149 631 56.103 1029.34 525.079
1187 0 51.3117 11.8297 607 55.6293 1029.23 528.302
1188 0 56.1397 13.0567 733 54.9209 1029.41 525.172
1189 0 58.0375 12.1473 705 55.9816 1029.82 524.04
1190 0 60.1501 13.3167 801 54.6679 1029.34 522.424
1191 0 61.1798 11.36 695 56.5741 1028.63 521.646
1192 0 62.0557 11.2157 696 56.3491 1029.68 523.711
1193 0 66.0917 12.6491 836 55.2333 1029.32 522.352
1194 0 68.111 12.5971 858 55.4499 1029.47 519.228
1195 0 72.1181 14.088 1016 54.1555 1029.66 515.925
1196 0 71.0756 8.97636 638 59.1928 1029 515.721
1197 0 78.0814 12.8968 1007 55.1738 1029.38 514.608
1198 0 79.065 14.115 1116 54.5771 1028.94 512.726
1199 0 81.0493 10.7836 874 57.3066 1028.98 513.944
1200 0 86.0842 12.7898 1101 55.5995 1029.05 513.028
1201 0 88.1935 14.3888 1269 54.2435 1029.14 511.22
1202 0 88.0657 11.9456 1052 57.2548 1029.28 507.854
1203 1 48.1797 11.7269 565 56.0566 1029.02 530.496
1204 0 50.0248 12.8936 645 55.7473 1029.01 528.426
1205 0 52.0325 12.6267 657 55.621 1029.67 528.645
1206 0 53.059 11.6286 617 56.637 1029.17 527.995
1207 0 51.1196 11.9132 609 57.4828 1029.11 523.816
1208 0 56.0488 13.7023 768 55.4062 1029.54 526.112
1209 0 56.1136 12.2965 690 56.887 1029.24 524.18
1210 0 59.058 12.039 711 56.3952 1028.83 525.665
1211 0 61.0862 12.3596 755 55.9974 1029.1 524.285
1212 0 64.0613 11.6139 744 57.5188 1029.17 519.422
1213 0 66.2247 12.2915 814 56.0663 1029.26 521.351
1214 0 70.2688 12.2814 863 56.1437 1029.59 518.797
1215 0 71.1507 12.5508 893 56.196 1029 519.384
1216 0 74.0952 13.874 1028 54.751 1029.74 515.187
1217 0 73.078 10.2356 748 58.1337 1029.47 517.898
1218 0 78.0508 12.9531 1011 56.4233 1029.57 512.011
1219 0 80.1599 12.4376 997 57.0301 1029.58 512.159
1220 0 84.1527 12.7625 1074 56.1546 1029.52 513.718
1221 1 41.0697 10.9813 451 57.4568 1029.75 534.377
1222 0 43.0328 11.8282 509 57.5658 1029.15 531.187
1223 0 42.0297 8.96986 377 60.5093 1028.87 530.592
1224 0 46.0335 11.4482 527 58.5901 1029.78 528.799
1225 0 46.1775 13.5347 625 57.1648 1028.84 527.035
1226 0 49.0248 13.3198 653 56.5865 1029.18 528.57
1227 0 49.1061 12.0555 592 58.5541 1029.23 525.586
1228 0 52.1179 12.7403 664 57.6235 1029 523.876
1229 0 51.0588 11.0853 566 59.4329 1028.55 525.56
1230 0 57.1296 12.3579 706 57.3414 1028.67 526.091
1231 0 56.1268 12.8637 722 57.4501 1028.94 526.932
1232 0 58.1553 14.1518 823 55.2843 1028.92 526.311
1233 0 60.0488 11.0577 664 58.1717 1029.25 523.956
1234 0 64.048 12.9903 832 56.8882 1029.97 520.464
1235 0 67.0675 14.1648 950 55.7063 1029.43 518.875
1236 0 67.0971 11.7591 789 58.1027 1029.48 515.999
1237 0 69.0942 14.7046 1016 55.5128 1029.44 516.222
1238 0 75.0645 13.162 988 56.1994 1029.73 514.044
1239 0 76.0897 12.6035 959 56.8384 1029.4 515.503
1240 0 77.1003 11.2192 865 58.4069 1029.22 515.059
1241 1 42.019 13.1131 551 55.3085 1029.34 531.808
1242 0 44.0265 11.8111 520 56.6327 1028.82 530.767
1243 0 45.055 12.6068 568 56.9824 1029.09 527.736
1244 0 49.105 14.3977 707 54.181 1028.76 530.274
1245 0 50.0923 13.3753 670 55.6284 1029.65 527.945
1246 0 51.079 15.1922 776 54.3222 1029.89 527.842
1247 0 53.1583 13.2435 704 55.7841 1029.8 527.213
1248 0 52.0422 13.0471 679 57.3196 1029.15 525.209
1249 0 55.0736 13.491 743 57.0808 1029.43 523.694
1250 0 57.0653 16.0693 917 54.2192 1029.43 523.954
1251 0 59.0909 12.7939 756 57.1534 1029.76 524.471
1252 0 62.0803 14.2235 883 55.9309 1029.92 520.845
1253 0 65.14 14.6147 952 54.7931 1030.1 523.277
1254 0 65.0526 14.5267 945 55.5534 1029.95 520.035
1255 0 68.0996 13.2013 899 56.5973 1030.09 518.592
1256 0 71.0876 13.7577 978 55.5072 1029.71 519.05
1257 0 71.0672 13.6772 972 55.8714 1029.37 517.774
1258 0 76.1022 12.9825 988 56.2267 1029.07 513.412
1259 0 78.0455 11.9674 934 57.1424 1029.62 513.158
1260 0 81.1271 12.0921 981 56.9307 1029.47 512.331
1261 0 84.1368 13.0739 1100 55.4245 1029.63 513.479
1262 0 87.0813 10.7601 937 57.4589 1029.8 511.092
1263 0 92.3617 14.4107 1331 54.0165 1030.35 509.001
1264 1 44.0261 10.3575 456 58.1447 1029.8 528.842
1265 0 47.0424 14.3275 674 55.1958 1030 527.171
1266 0 48.1714 11.7497 566 57.3092 1029.66 527.36
1267 0 50.0198 11.3755 569 57.9209 1029.77 524.624
1268 0 51.0418 12.7738 652 56.2515 1030.11 527.218
1269 0 55.0642 13.6386 751 55.5766 1029.8 524.708
1270 0 55.0405 12.8088 705 56.8922 1029.5 524.56
1271 0 56.1865 9.87783 555 59.018 1029.44 524.405
1272 0 62.1344 13.5513 842 55.1924 1029.3 523.262
1273 0 63.0379 12.2625 773 56.6106 1029.61 521.473
1274 0 63.0891 13.8534 874 55.5023 1029.42 520.141
1275 0 65.0632 11.1276 724 57.779 1029.08 516.13
1276 0 68.0998 15.3158 1043 54.0249 1029.55 513.618
1277 0 70.1612 14.0106 983 55.1912 1029.76 513.264
1278 0 73.0846 12.6292 923 56.4659 1029.65 514.917
1279 0 77.1363 13.353 1030 55.3806 1029.48 513.57
1280 0 79.102 12.4523 985 56.5371 1029.8 513.735
1281 0 83.0832 12.5416 1042 56.1488 1029.74 513.095
1282 0 85.1742 12.2924 1047 56.5224 1029.55 508.147
1283 0 87.2365 11.188 976 58.0625 1029.1 507.082
1284 0 89.1638 10.8452 967 58.514 1029.34 508.492
1285 0 92.1423 13.9241 1283 55.4544 1029.45 508.892
1286 0 97.1346 13.507 1312 55.8803 1029.23 508.72
1287 0 102.243 13.2918 1359 56.4283 1029.7 502.815
1288 0 105.283 12.6991 1337 57.1062 1030.4 500.002
1289 0 106.159 13.9036 1476 55.6694 1030.17 505.517
1290 1 54.1127 11.7902 638 56.3605 1029.7 528.633
1291 0 55.2862 14.9043 824 54.0983 1029.1 526.034
1292 0 56.1022 13.8319 776 54.96 1029.28 525.454
1293 0 59.1319 13.0556 772 55.1308 1029.32 523.801
1294 0 59.0956 11.7098 692 56.7009 1030.22 523.536
1295 0 59.0584 13.8846 820 55.522 1029.21 522.174
1296 0 64.0586 12.8476 823 55.9077 1028.74 520.826
1297 0 66.0894 13.9962 925 54.7535 1029.65 519.716
1298 0 68.2005 12.8005 873 55.4651 1029.1 520.289
1299 0 70.216 11.9346 838 56.2554 1028.7 519.197
1300 0 75.1817 12.37 930 55.6366 1029.29 517.785
1301 0 77.0814 13.596 1048 54.9189 1029.91 515.247
1302 0 79.1251 12.3981 981 55.8675 1029.89 515.349
1303 1 42.1014 13.1587 554 54.6191 1029.52 533.699
1304 0 43.1479 12.2833 530 55.5396 1029.51 532.924
1305 0 42.0406 10.4899 441 57.6531 1029.2 531.58
1306 0 45.037 12.3676 557 56.1795 1029.49 530.126
1307 0 45.0508 11.8533 534 57.176 1029.36 529.966
1308 0 46.077 13.2604 611 56.0229 1029.7 529.473
1309 0 46.0273 13.4268 618 55.8123 1029.7 529.767
1310 0 51.0318 10.1701 519 57.8825 1029.21 525.301
1311 0 53.1119 14.1588 752 54.1117 1029 528.196
1312 0 54.0684 13.4644 728 55.0975 1029.52 526.843
1313 0 55.056 11.9151 656 55.8003 1029.41 528.55
1314 0 59.1844 12.6047 746 55.4544 1028.85 525.57
1315 0 59.0615 13.9008 821 54.4714 1029.09 524.184
1316 0 61.166 12.4906 764 55.8364 1029.97 524.202
1317 0 64.134 13.4718 864 54.7593 1029.23 523.524
1318 0 66.0786 12.7424 842 55.7055 1029.16 520.297
1319 0 70.1715 12.441 873 55.6323 1028.59 518.808
1320 0 71.0607 11.7646 836 56.5646 1028.66 516.221
1321 1 150.29 12.9217 1942 57.2503 1028.39 478.545
1322 1 80.0701 13.0261 1043 54.6174 1029.05 517.992
1323 0 79.2096 11.5643 916 56.1376 1029.37 517.767
1324 0 84.108 13.0309 1096 55.2181 1029.02 512.356
1325 0 85.1 9.51821 810 58.4753 1029.7 512.352
1326 0 88.1369 13.5131 1191 55.6919 1029.2 509.593
1327 1 46.0671 12.0477 555 55.827 1028.55 532.049
1328 0 46.1398 11.4652 529 57.4518 1028.48 530.189
1329 0 48.0858 13.2887 639 55.77 1029.49 528.714
1330 0 50.1123 13.4498 674 55.5905 1028.78 530.528
1331 0 48.0946 11.2071 539 132.996 1027.8 528.145
1332 0 54.1084 13.6208 737 56.0529 1029.3 528.617
1333 0 55.1511 13.0732 721 57.0222 1029.26 527.935
1334 0 55.1108 11.6674 643 58.9005 1028.96 527.753
1335 0 58.1663 11.725 682 58.1877 1029.1 527.853
1336 0 62.1148 12.8311 797 57.33 1029.29 524.627
1337 0 64.1177 14.7697 947 55.6241 1028.74 523.206
1338 0 63.0299 11.9467 753 58.587 1028.44 522.356
1339 0 65.1811 13.6236 888 57.1441 1028.41 523.463
1340 0 68.0517 12.7109 865 58.6624 1029.31 518.173
1341 0 73.0502 11.5948 847 59.0378 1028.29 519.314
1342 0 75.1622 14.1694 1065 56.6047 1028.55 518.769
1343 0 79.0999 14.3995 1139 56.4021 1028.77 516.716
1344 0 81.1172 13.1292 1065 58.061 1029.01 512.841
1345 0 84.0819 12.7376 1071 58.8413 1029.36 512.486
1346 0 86.191 12.4723 1075 59.1433 1028.55 510.859
1347 1 46.0997 11.8873 548 58.4343 1028.24 532.852
1348 0 47.1027 10.233 482 60.9917 1028.33 531.944
1349 0 46.1671 12.8013 591 59.2149 1028.92 532.205
1350 0 51.1666 13.329 682 58.0484 1028.18 529.927
1351 0 52.2926 12.1432 635 59.0882 1028.41 529.192
1352 0 52.1764 11.442 597 60.2479 1028.52 528.76
1353 0 54.1267 12.5631 680 59.1632 1029.36 527.743
1354 0 57.1021 11.3481 648 59.9429 1028.51 526.935
1355 0 59.1272 12.7014 751 58.9041 1028.13 523.487
1356 0 63.1832 13.6745 864 58.0799 1028.19 525.958
1357 0 63.2028 10.6166 671 60.5663 1028.45 525.322
1358 0 65.1546 13.2147 861 58.3333 1028.65 523.668
1359 0 71.3053 14.1224 1007 57.2155 1028.62 519.84
1360 0 70.5916 12.7919 903 58.9967 1029.07 521.965
1361 0 74.3682 11.5237 857 59.5531 1028.82 520.74
1362 0 76.077 14.3144 1089 58.1387 1028.88 515.578
1363 0 79.2763 14.3296 1136 57.8072 1028.72 515.504
1364 0 82.0821 12.2073 1002 60.0509 1028.73 514.795
1365 0 84.2335 12.3229 1038 60.0983 1028.65 512.315
1366 0 87.1834 13.5347 1180 59.2534 1028.67 510.474
1367 1 44.0384 13.352 588 58.8656 1029.22 533.274
1368 0 44.0384 13.3974 590 134.298 1028.2 533.27
1369 0 46.1597 12.1751 562 60.4644 1028.39 529.424
1370 0 48.0892 12.7679 614 60.8681 1027.82 530.06
1371 0 50.1447 13.4012 672 59.5387 1027.87 531.095
1372 0 51.0758 12.9024 659 60.5857 1027.8 529.524
1373 0 50.1181 13.0093 652 60.365 1029.28 529.945
1374 0 51.0988 12.3095 629 61.2083 1029.21 528.725
1375 0 55.2232 11.9153 658 60.6657 1028.27 528.318
1376 0 57.0988 13.3453 762 59.2992 1028.53 528.539
1377 0 60.1391 14.8655 894 57.8837 1029.15 526.125
1378 0 59.0717 12.0193 710 61.6901 1028.5 526.254
1379 0 62.1562 11.7607 731 61.3434 1028.5 526.938
1380 0 67.4054 13.6339 919 59.8139 1028.6 523.111
1381 0 66.0814 12.1668 804 62.4764 1028.64 523.787
1382 0 71.3441 12.5729 897 61.2731 1029.26 523.133
1383 0 74.0543 14.4624 1071 59.3978 1028.93 522.504
1384 0 74.0837 13.1473 974 62.0513 1028.66 518.234
1385 0 79.2103 14.7834 1171 60.5969 1028.37 518.861
1386 0 80.0563 13.4405 1076 62.5093 1028.37 516.999
1387 0 83.1703 14.3441 1193 61.4954 1028.38 515.016
1388 0 87.1038 13.0534 1137 62.6385 1028.57 516.618
1389 0 88.2392 12.5114 1104 64.5616 1028.21 513.902
1390 0 89.1059 14.0619 1253 63.1229 1028.68 512.163
1391 1 46.0742 11.6117 535 64.8523 1028.08 532.368
1392 0 48.2027 11.3272 546 65.022 1027.5 532.692
1393 0 48.1375 12.8382 618 64.6764 1028.64 531.871
1394 0 51.0785 13.1171 670 64.409 1029.13 530.397
1395 0 53.0704 13.4727 715 64.1287 1028.51 529.241
1396 0 54.313 12.5568 682 64.937 1029.09 527.177
1397 0 56.1193 12.5269 703 64.1835 1029.36 530.373
1398 0 58.1822 13.3546 777 62.9652 1029.48 528.236
1399 0 60.1563 14.1465 851 62.5687 1029.08 527.807
1400 0 61.1836 13.0264 797 63.6487 1028.36 525.898
1401 0 65.0951 13.8106 899 62.3092 1028.56 525.695
1402 0 67.1773 12.2661 824 63.1638 1028.92 527.535
1403 0 68.1301 11.6542 794 64.1146 1028.31 523.743
1404 0 73.1701 15.0745 1103 60.0426 1028.66 522.854
1405 0 74.1586 12.3384 915 63.4579 1029.01 517.77
1406 0 79.2004 13.4469 1065 61.0347 1029.09 520.529
1407 0 78.2397 11.5798 906 64.0993 1029.02 517.84
1408 0 83.114 13.8605 1152 61.6832 1028.72 513.854
1409 0 87.2135 14.1377 1233 60.957 1028.62 517.539
1410 0 89.2182 13.0467 1164 62.1228 1028.66 514.78
1411 0 89.2347 12.159 1085 63.1512 1029.09 514.094
1412 1 48.0665 13.3357 641 60.9688 1028.96 535.892
1413 0 48.1525 13.4572 648 61.5262 1028.35 533.482
1414 0 51.2137 13.8244 708 60.6653 1028.56 532.534
1415 0 51.2189 14.1159 723 61.4647 1029.35 531.142
1416 0 53.0621 12.7398 676 62.4852 1029.34 532.223
1417 0 55.1074 13.4283 740 61.5027 1029.51 530.693
1418 0 56.1651 14.4752 813 59.9016 1029.54 531.866
1419 0 57.2884 12.7425 730 63 1030.14 527.07
1420 0 59.314 13.791 818 61.8888 1029.74 528.356
1421 0 66.1452 14.6647 970 59.6722 1029.3 528.689
1422 0 65.1008 14.0858 917 61.6925 1030.14 526.462
1423 0 65.2419 10.714 699 65.226 1029.99 526.11
1424 0 68.1728 12.3803 844 64.0652 1029.48 524.418
1425 0 66.1847 12.1025 801 64.9001 1029.48 521.474
1426 0 71.1771 12.8272 913 64.1544 1029.19 522.054
1427 0 74.3728 12.1819 906 64.6015 1029.37 522.874
1428 0 76.3412 13.8588 1058 63.3847 1029.98 520.198
1429 0 77.1212 15.0542 1161 62.298 1029.58 517.4
1430 0 82.2214 13.4515 1106 63.9882 1029.74 517.731
1431 0 86.1542 13.9517 1202 63.5075 1030.51 514.73
1432 0 89.3461 14.0577 1256 63.5104 1029.98 515.752
1433 1 41.0538 14.6637 602 63.1163 1029.1 536.405
1434 0 41.1201 14.0077 576 63.6024 1029.57 535.839
1435 0 43.0454 12.2661 528 65.8428 1029.05 535.699
1436 0 42.0726 12.5022 526 66.5418 1028.86 534.778
1437 0 46.1984 12.6844 586 64.3993 1029.54 535.669
1438 0 46.1645 11.2207 518 66.6583 1029.32 533.212
1439 0 45.0467 10.922 492 68.0854 1029.46 531.15
1440 0 48.1571 12.127 584 65.9812 1029.49 530.551
1441 0 51.1312 13.2991 680 64.2191 1028.74 528.919
1442 0 52.398 13.4166 703 64.3314 1029.2 530.752
1443 0 53.1142 13.1227 697 64.9254 1028.56 526.044
1444 0 56.2802 12.9175 727 64.0935 1028.54 526.565
1445 0 56.1535 13.6056 764 64.1911 1028.64 527.297
1446 0 61.0892 14.9454 913 62.3056 1028.26 527.541
1447 0 61.2031 13.0712 800 64.5775 1029.4 527.221
1448 0 64.1227 15.4391 990 62.3101 1029.08 524.574
1449 0 66.2422 13.3299 883 64.5617 1029.4 524.691
1450 0 67.0614 14.1065 946 64.7939 1029.71 523.356
1451 0 70.1874 11.512 808 66.6621 1029.07 523.965
1452 0 71.1923 13.4425 957 65.628 1029.18 521.001
1453 0 75.1693 13.4896 1014 64.8156 1029 522.462
1454 0 77.1164 12.8507 991 66.8809 1029.25 518.829
1455 0 79.1581 14.869 1177 64.531 1028.66 519.064
1456 0 82.1266 15.1595 1245 63.6675 1029.19 517.032
1457 0 86.1235 13.1555 1133 66.1315 1029.29 514.841
1458 0 87.1533 14.3999 1255 64.8151 1028.67 512.14
1459 0 89.2355 12.9769 1158 67.2392 1028.81 509.1
1460 0 95.5231 14.384 1374 65.1223 1029.44 510.785
1461 0 96.0918 12.9251 1242 67.4686 1029.51 508.32
1462 0 101.167 13.5024 1366 66.9378 1029.48 507.938
1463 0 103.13 13.0128 1342 67.7712 1029.65 507.511
1464 1 55.3807 12.2064 676 69.0606 1028.66 529.93
1465 0 56.0737 16.4426 922 65.4371 1029.25 528.544
1466 0 60.1597 12.1842 733 69.1692 1029.5 530.233
1467 0 61.1279 13.709 838 68.3878 1029.52 527.473
1468 0 64.1506 12.4239 797 69.3827 1029.13 527.295
1469 0 66.261 14.2467 944 67.2341 1029.57 525.927
1470 0 69.0952 13.8504 957 67.6186 1029.2 524.42
1471 0 70.259 13.5641 953 68.7125 1029.6 524.099
1472 0 73.2181 13.453 985 68.0041 1030.13 523.428
1473 0 76.0926 13.4441 1023 68.6559 1029.61 520.995
1474 0 78.1797 13.0085 1017 69.2566 1028.54 519.03
1475 0 81.1463 13.8269 1122 68.6925 1029 517.225
1476 0 82.1213 13.5288 1111 69.2358 1028.82 515.771
1477 0 87.2815 13.5424 1182 68.4433 1028.68 515.673
1478 1 42.0705 13.7151 577 67.1889 1028.4 535.832
1479 0 41.0388 13.3776 549 69.7231 1028.39 533.721
1480 0 42.1569 12.8567 542 71.0775 1028.73 534.09
1481 0 48.112 13.8635 667 66.8936 1029.19 535.876
1482 0 46.1472 12.8935 595 69.684 1028.56 532.079
1483 0 47.0515 12.497 588 68.9677 1028.65 534.19
1484 0 50.0896 16.4106 822 64.7117 1028.62 533.579
1485 0 50.156 14.2755 716 67.8799 1029.07 530.677
1486 0 53.0649 15.3774 816 66.1385 1028.54 530.157
1487 0 53.1632 14.0135 745 67.5826 1028.11 531.168
1488 0 55.1846 14.9498 825 66.7539 1028.91 530.013
1489 0 56.0459 13.3105 746 69.0804 1028.8 528.031
1490 0 60.1498 14.6468 881 66.1373 1028.82 530.457
1491 0 62.0609 13.9218 864 67.5984 1028.34 527.516
1492 0 63.1258 14.1147 891 67.7205 1028.66 525.655
1493 0 65.1984 15.0464 981 66.2773 1028.04 525.435
1494 0 67.106 15.3936 1033 65.6544 1028.34 525.399
1495 0 70.1816 13.9068 976 67.3535 1028.62 525.471
1496 0 71.0958 15.1204 1075 66.5609 1028.85 522.878
1497 0 73.1946 15.0831 1104 66.5417 1029.12 522.268
1498 0 73.2159 13.2485 970 68.6732 1028.49 520.21
1499 0 76.1024 13.5607 1032 68.2655 1028.47 518.298
1500 0 79.3389 13.7007 1087 68.4738 1028.36 517.359
1501 0 79.0464 13.0936 1035 69.8348 1028.72 514.112
1502 0 85.1022 13.9362 1186 67.6535 1029.24 515.11
1503 0 85.2 12.6056 1074 69.1909 1029.06 513.993
1504 0 88.0583 13.3889 1179 67.6667 1028.98 513.907
1505 0 93.2024 12.1563 1133 68.8808 1029.3 511.559
1506 1 32.3349 10.6386 344 67.2238 1029.21 537.427
1507 0 31.3784 9.81568 308 68.9643 1029.24 537.607
1508 0 34.2148 14.2921 489 63.5726 1028.47 539.035
1509 0 35.0179 13.4503 471 64.9278 1028.46 537.227
1510 0 35.2226 13.8264 487 64.9754 1028.64 537.355
1511 0 36.1454 11.6474 421 66.4941 1028.97 536.938
1512 0 38.336 14.6598 562 62.9217 1028.69 536.82
1513 0 39.1682 12.9952 509 64.8959 1029.49 535.963
1514 0 40.2095 11.639 468 64.9103 1029.27 537.278
1515 1 124.162 14.0059 1739 67.7297 1028.98 494.218
1516 0 127.518 14.0058 1786 68.2665 1028.86 493.997
1517 0 131.529 14.3695 1890 68.6206 1029.16 487.297
1518 1 43.2565 13.7783 596 65.2483 1028.68 533.413
1519 0 44.1575 14.7653 652 65.069 1028.53 530.821
1520 0 46.2929 10.7144 496 68.3891 1028.74 532.73
1521 0 47.1601 13.1043 618 67.5971 1028.7 530.016
1522 0 50.1754 12.5759 631 67.2694 1029.6 529.849
1523 0 53.1649 11.9252 634 67.5079 1028.94 529.44
1524 0 55.1566 10.2617 566 68.6519 1028.98 529.64
1525 0 56.1227 12.4727 700 66.95 1028.52 529.641
1526 0 60.2667 13.0752 788 66.1751 1029.41 528.269
1527 0 60.3098 14.8898 898 65.304 1028.84 527.233
1528 0 60.4187 12.9596 783 67.5607 1028.78 526.289
1529 0 61.1195 11.7475 718 69.039 1029.16 526.877
1530 0 59.1758 12.7417 754 69.0411 1028.63 525.667
1531 0 58.2473 12.2066 711 67.0155 1028.84 529.935
1532 0 66.215 13.0937 867 67.5629 1028.54 524.075
1533 1 139.373 13.367 1863 72.1702 1029.33 488.717
1534 0 145.196 13.9398 2024 71.1206 1029.43 488.717
1535 0 149.243 13.0325 1945 72.4889 1028.74 487.097
1536 0 152.274 14.1652 2157 71.7524 1028.47 485.65
1537 0 159.273 14.3527 2286 71.1798 1028.93 484.01
1538 0 167.338 15.0534 2519 70.472 1028.87 480.268
1539 0 168.393 14.2643 2402 72.1336 1028.53 478.204
1540 0 174.38 14.7264 2568 71.447 1028.49 475.317
1541 0 178.25 14.9004 2656 72.3656 1028.02 469.929
1542 0 184.255 14.4419 2661 72.4919 1027.33 471.485
1543 0 189.32 13.7862 2610 74.0862 1027.93 468.211
1544 1 139.258 10.6062 1477 75.3934 1027.63 494.362
1545 0 145.202 13.2436 1923 73.3198 1028.16 489.365
1546 0 145.432 13.539 1969 73.678 1028.79 490.446
1547 0 153.516 14.5327 2231 72.0403 1028.43 487.784
1548 0 156.328 12.4802 1951 75.1517 1028.41 483.6
1549 0 159.184 11.2825 1796 76.9148 1028.6 483.516
1550 0 165.501 13.3594 2211 74.536 1028.73 479.813
1551 0 170.258 13.4854 2296 74.9251 1028.84 476.304
1552 0 175.173 12.6561 2217 75.3938 1028.56 474.913
1553 0 180.479 13.4032 2419 74.9917 1029.03 469.345
1554 0 186.599 12.9475 2416 74.4623 1028.5 473.417
1555 0 191.254 12.9775 2482 75.28 1028.7 468.295
1556 0 196.806 14.5219 2858 73.4388 1028.3 469.411
1557 0 204.519 13.896 2842 74.2488 1028.17 465.042
1558 0 210.791 15.2711 3219 73.4685 1028.12 458.874
1559 0 214.189 13.0399 2793 77.1883 1028.35 455.466
1560 0 221.368 12.0795 2674 78.7341 1028.1 454.08
1561 1 153.364 15.1861 2329 73.6943 1027.99 486.016
1562 0 157.475 14.1609 2230 75.8785 1028.15 478.803
1563 1 121.203 12.4255 1506 77.0392 1028.33 503.735
1564 0 122.245 15.8943 1943 74.9511 1028.5 497.346
1565 0 129.564 14.8266 1921 75.4576 1028.96 501.413
1566 0 131.358 13.3072 1748 78.0561 1028.61 499.874
1567 0 129.101 15.0967 1949 76.6691 1028.39 499.128
1568 0 138.13 15.1959 2099 76.5841 1028.42 494.366
1569 0 140.261 14.1308 1982 78.0883 1028.4 492.959
1570 0 145.294 15.362 2232 75.9798 1028.76 491.077
1571 0 149.248 15.0019 2239 76.4238 1028.44 489.766
1572 0 154.17 14.2505 2197 77.0264 1028.63 492.45
1573 0 156.322 13.7985 2157 79.2592 1028.61 483.499
1574 0 161.318 14.4559 2332 77.8212 1028.88 483.675
1575 0 166.269 14.3683 2389 78.9004 1028 481.149
1576 0 170.391 14.7367 2511 79.0868 1028.54 478.537
1577 1 54.138 15.6452 847 75.5667 1028.49 530.462
1578 0 54.0746 15.3122 828 76.3901 1028.79 530.087
1579 0 56.1856 15.0039 843 77.0783 1028.03 526.433
1580 0 57.0381 15.1478 864 77.4097 1028.49 527.589
1581 0 61.2131 15.8463 970 76.5 1028.52 527.846
1582 0 61.0635 14.4112 880 79.4011 1028.68 525.517
1583 0 61.1064 13.1901 806 82.2568 1028.37 524.43
1584 0 61.2556 15.1496 928 79.8147 1028.41 526.204
1585 0 64.2864 15.6332 1005 78.9811 1028.72 525.132
1586 0 65.1639 15.7756 1028 80.7101 1028.85 522.704
1587 0 63.3576 14.8838 943 84.0021 1028.67 524.372
1588 0 62.0628 16.016 994 83.6167 1027.92 522.576
1589 0 63.1515 15.2332 962 84.9501 1028.04 521.655
1590 0 67.3379 16.0385 1080 83.2046 1028.74 525.609
1591 1 202.264 16.5972 3357 73.3021 1029.3 472.277
1592 0 201.771 24.1561 4874 61.8593 1029.09 449.638
1593 0 204.058 20.156 4113 69.1272 1029.02 467.049
1594 0 201.901 22.3575 4514 66.9555 1028.87 458.745
1595 0 201.219 25.5543 5142 62.8574 1028.25 445.31
1596 1 211.585 19.3823 4101 72.1036 1028.72 460.043
1597 0 210.953 26.039 5493 63.9144 1028.42 445.542
1598 0 222.01 19.9901 4438 71.9615 1028.75 451.672
1599 1 35.1721 14.2727 502 83.6653 1027.94 536.741
1600 0 36.1397 14.0842 509 85.2868 1028.32 538.479
1601 0 37.1603 14.1011 524 85.0191 1029.02 539.878
1602 0 37.1452 15.4259 573 85.2042 1028.64 539.23
1603 0 41.1041 14.7187 605 84.5785 1028.6 540.693
1604 0 40.128 13.9553 560 88.9036 1028.62 539.43
1605 0 38.0888 14.7025 560 89.2696 1028.98 539.452
1606 0 41.2243 15.1124 623 85.5522 1028.3 540.976
1607 0 39.0453 16.1863 632 84.9842 1028.67 539.565
1608 0 46.6142 15.8321 738 80.7358 1028.82 534.867
1609 0 47.181 15.3452 724 83.1713 1028.45 535.297
1610 0 51.1175 16.4327 840 79.3179 1029.11 534.979
1611 0 50.2488 16.0601 807 81.7224 1029.79 533.627
1612 0 50.2664 15.9351 801 79.4969 1028.82 534.117
1613 1 14.1689 11.7864 167 70.5868 1027.68 555.467
1614 0 15.0038 12.3302 185 69.6108 1028.01 556.865
1615 0 15.021 11.1178 167 74.006 1028.71 555.922
1616 0 16.0171 10.8634 174 74.6264 1027.47 556.931
1617 0 17.0268 10.9827 187 75.6631 1027.75 556.112
1618 0 16.1159 9.80397 158 78 1027.48 556.038
