time division length width area intensity CMx CMy
0 0 44.0106 12.088 532 56.5564 884.445 526.953
1 0 45.1511 11.9155 538 57.0651 884.125 525.301
2 0 45.0422 11.7445 529 57.5444 885.098 526.465
3 0 46.0609 11.5282 531 58.2373 884.126 524.573
4 0 45.0652 11.6276 524 58.1947 884.452 525.395
5 0 45.0405 11.9004 536 58.7183 883.433 525.696
6 0 46.0478 11.2057 516 59.8333 883.793 525.558
7 0 49.0987 12.7702 627 57.0319 884.016 526.876
8 0 48.0527 10.9047 524 59.9332 883.611 526.065
9 1 162.38 12.4707 2025 60.8479 882.985 477.082
10 0 167.9 12.9065 2167 60.5902 883.974 476.196
11 0 169.378 12.782 2165 61.5312 883.281 474.635
12 0 168.512 12.2009 2056 62.9533 883.587 472.236
13 1 143.399 12.3711 1774 61.3929 883.766 483.634
14 1 112.347 11.6336 1307 60.0199 884.111 498.543
15 0 115.401 11.811 1363 59.8503 884.066 498.383
16 0 117.212 9.45299 1108 61.463 884.255 502.29
17 1 62.1274 13.585 844 57.7654 884.005 520.315
18 0 66.1285 13.4889 892 57.3442 883.898 519.058
19 0 67.2028 10.1484 682 59.7009 883.67 522.254
20 0 68.0972 10.9843 748 59.9545 884.29 520.207
21 0 66.1407 11.1278 736 60.6345 883.946 517.719
22 0 72.1137 12.6606 913 58.805 884.068 517.999
23 0 73.124 12.3899 906 60.372 883.523 514.163
24 0 80.1238 14.228 1140 57.6816 883.561 516.903
25 0 81.071 12.8529 1042 59.3052 882.679 516.87
26 0 84.0892 14.889 1252 59.0775 883.656 512.415
27 0 86.112 14.2953 1231 60.1243 883.283 511.666
28 0 87.1931 13.6249 1188 61.5968 883.314 511.616
29 0 88.0627 13.5245 1191 62.2141 883.14 512.903
30 0 88.1516 14.5772 1285 62.6179 883.479 511.233
31 0 89.097 13.3113 1186 64.4764 883.257 512.117
32 0 92.2022 13.8717 1279 64.2111 882.591 510.844
33 0 93.1647 12.5477 1169 66.5389 883.719 509.591
34 0 93.1714 12.1711 1134 67.567 883.595 510.333
35 0 96.1518 12.0955 1163 68.2545 883.691 509.875
36 0 99.1792 13.3092 1320 67.2735 884.92 508.394
37 1 143.271 12.5148 1793 70.1506 884.049 488.139
38 0 144.241 12.4167 1791 70.4472 884.369 490.449
39 0 153.232 13.411 2055 70.2404 884.647 485.32
40 0 157.261 13.7224 2158 70.2627 884.442 485.112
41 0 161.259 13.8287 2230 71.6753 884.067 479.342
42 0 160.282 12.8586 2061 74.067 884.83 480.918
43 0 166.303 13.5716 2257 73.9375 885.038 476.798
44 0 174.174 10.3574 1804 76.551 884.638 485.075
45 0 176.278 13.9326 2456 74.4625 884.33 472.405
46 1 248.551 14.5524 3617 74.4194 884.828 439.919
47 0 256.344 13.7511 3525 75.9583 884.913 439.367
48 0 260.584 14.0415 3659 77.0489 884.731 436.6
49 0 268.883 17.8591 4802 72.2963 884.513 431.66
50 0 271.461 13.8325 3755 78.8951 884.794 431.637
51 0 280.351 14.7351 4131 77.9969 884.807 426.942
52 0 284.357 15.1289 4302 78.5649 884.72 421.939
53 0 293.297 16.7373 4909 76.6136 884.423 417.247
54 0 302.406 15.8396 4790 78.0301 884.21 416.31
55 0 311.439 16.8636 5252 76.7538 883.541 413.639
56 1 222.307 14.2551 3169 82.1934 884.427 452.808
57 0 229.349 14.9336 3425 81.5638 884.352 448.933
58 1 243.506 13.1865 3211 82.8022 884.647 454.497
59 0 240.344 12.5528 3017 86.0626 884.405 451.128
60 0 247.327 15.7362 3892 82.8106 884.168 440.053
61 0 252.299 16.0167 4041 82.9245 884.299 441.215
62 0 256.156 14.905 3818 84.3968 884.048 447.679
63 0 263.495 16.5278 4355 83.7644 884.844 434.231
64 1 284.536 12.1496 3457 89.6977 884.308 441.968
65 0 281.36 10.858 3055 85.6422 884.554 453.062
66 1 76.143 13.8555 1055 75.6256 884.535 522.252
67 0 70.1179 15.8447 1111 71.1953 884.655 524.557
68 0 72.5635 19.9412 1447 62.8549 883.782 518.343
69 0 66.565 18.2979 1218 69.6856 884.336 523.759
70 0 68.2179 19.7749 1349 66.7035 884.351 519.046
71 0 66.1204 18.9049 1250 70.8896 884.228 521.837
72 0 71.5119 20.6959 1480 67.1473 884.032 518.236
73 0 71.0998 22.7286 1616 65.8014 884.559 517.728
74 0 73.062 19.3808 1416 70.9273 884.621 518.667
75 0 73.9351 22.8308 1688 66.4182 885.621 513.987
76 0 73.2119 25.1052 1838 65.6447 885.033 516.204
77 0 72.1983 17.5766 1269 77.8085 884.502 517.598
78 0 75.2219 19.1699 1442 74.5208 884.521 514.238
79 0 78.0998 18.1434 1417 76.374 885.347 514.697
80 0 78.1747 19.9041 1556 74.8258 885.454 516.326
81 0 78.32 17.0965 1339 80.0777 885.388 515.535
82 0 78.1169 17.2434 1347 81.1047 884.95 516.327
83 0 78.0817 15.6375 1221 85.0426 885.08 514.935
84 0 79.0473 15.2567 1206 86.5547 885.352 515.665
85 0 79.0802 15.9838 1264 86.1748 885.081 517.095
86 0 79.1722 15.7884 1250 87.7296 885.818 516.543
87 0 78.1788 14.5436 1137 91.54 885.761 517.333
88 0 80.1019 14.3942 1153 92.3643 886.243 517.196
89 1 359.475 16.5658 5955 86.8297 884.9 390.379
90 0 366.412 14.9395 5474 89.494 885.599 391.678
91 1 316.616 15.8394 5015 88.7075 885.718 416.093
92 0 321.449 15.7319 5057 90.277 885.334 410.02
93 0 331.465 15.0001 4972 91.0672 885.066 409.976
94 0 340.584 16.2721 5542 90.1577 885.239 397.582
95 0 351.506 15.6782 5511 90.992 884.787 397.361
96 0 362.596 16.5446 5999 90.3286 884.705 389.009
97 0 370.511 17.5244 6493 89.179 884.987 376.956
98 1 316.452 15.9202 5038 93.3821 884.865 405.171
99 0 326.666 15.75 5145 93.3442 884.415 405.343
100 0 337.508 15.9492 5383 93.8832 885.331 399.495
101 0 346.476 16.3417 5662 94.3993 884.271 391.803
102 0 354.681 16.4627 5839 93.7786 884.739 393.985
