time division length width area intensity CMx CMy
0 0 115.201 8.87147 1022 60.2446 875.278 433.189
1 1 74.2197 8.60958 639 58.0892 875.296 449.385
2 0 74.1315 8.29607 615 58.0065 874.637 449.691
3 0 78.3613 9.31582 730 56.8658 874.64 452.612
4 0 78.0869 7.86304 614 59.5456 874.109 445.531
5 0 80.1722 7.58368 608 59.8914 873.265 441.78
6 0 84.1331 8.17752 688 58.8576 873.369 443.491
7 0 86.2371 9.04483 780 57.7577 873.581 446.183
8 0 87.2443 10.6368 928 56.7241 873.345 443.849
9 0 89.1704 7.85014 700 60.0443 873.226 437.489
10 0 94.2931 9.38563 885 58.1627 872.901 437.749
11 0 95.3783 8.68122 828 58.6908 872.989 438.18
12 0 97.155 8.77979 853 58.6049 873.894 441.23
13 0 101.208 9.74234 986 57.4899 873.61 442.314
14 0 104.319 9.45182 986 58.6126 872.463 430.62
15 0 107.171 11.0571 1185 56.5553 872.617 440.759
16 0 108.357 12.3388 1337 55.3628 872.972 440.469
17 0 112.407 10.0082 1125 57.9751 872.636 434.442
18 0 115.146 9.20567 1060 59.0972 872.798 434.93
19 1 73.1657 10.3054 754 53.7905 872.499 458.48
20 0 73.1582 9.36327 685 55.0628 872.181 456.915
21 0 75.1846 8.19316 616 56.8019 872.239 454.383
22 0 76.122 9.72124 740 55.15 872.707 456.996
23 0 80.1783 8.95504 718 55.8649 872.514 452.265
24 0 82.1302 10.4225 856 54.5572 872.259 452.653
25 0 82.1824 10.5375 866 54.5912 872.218 453.064
26 0 85.2156 11.1482 950 54.2621 871.446 449.983
27 0 87.2635 10.4053 908 55.4956 871.512 447.138
28 0 91.2391 10.9602 1000 54.017 872.047 450.123
29 0 90.2257 9.87523 891 56.1807 872.236 446.101
30 0 94.1822 10.7133 1009 55.6333 872.178 440.908
31 0 97.1262 10.8107 1050 55.861 871.73 444.086
32 0 100.23 8.94941 897 57.8261 872.195 440.406
33 0 101.177 8.75695 886 58.4289 872.179 442.19
34 0 104.124 10.0361 1045 57.3062 872.234 440.677
35 0 106.198 10.4051 1105 57.5493 871.411 439.39
36 0 112.188 12.5771 1411 55.0794 871.371 441.481
37 0 115.206 12.4299 1432 55.9476 871.04 436.174
38 0 117.212 11.9015 1395 57.228 871.607 430.001
39 0 120.228 11.0207 1325 58.48 871.255 431.465
40 0 124.238 11.7195 1456 57.7995 871.675 431.185
41 0 127.314 11.6013 1477 58.2133 871.244 431.744
42 0 130.301 10.0997 1316 60.1998 870.685 427.438
43 0 133.235 11.1908 1491 60.1965 870.56 420.734
44 0 137.246 11.7308 1610 59.6671 870.752 422.952
45 1 80.1618 8.6076 690 59.9957 870.565 451.232
46 0 82.1588 9.72507 799 59.3029 871.429 447.088
47 0 83.1223 8.4093 699 61.6037 871.574 446.256
48 0 85.1398 10.6531 907 59.2591 871.402 445.432
49 0 87.2339 10.0993 881 60.3212 871.574 443.778
50 0 89.1039 7.55298 673 64.1293 871.401 440.798
51 0 94.1987 11.359 1070 57.857 871.614 445.487
52 0 95.3006 10.3567 987 60.2361 870.312 438.905
53 0 98.2616 11.7849 1158 58.4162 870.366 441.049
54 0 100.187 10.5303 1055 60.4995 870.041 437.215
55 0 103.358 11.5811 1197 58.9532 870.262 437.77
56 0 104.234 11.4262 1191 59.4819 871.51 436.176
57 0 109.238 12.2119 1334 58.497 871.436 437.065
58 0 110.147 11.4575 1262 60.0166 870.831 432.945
59 0 111.299 8.67935 966 63.4855 870.773 429.595
60 0 116.138 10.1948 1184 61.7247 871.227 426.835
61 0 120.278 10.1016 1215 61.4387 871.44 428.089
62 0 123.254 12.0564 1486 59.074 871.937 429.207
63 0 125.271 10.2099 1279 61.7811 871.267 424.317
64 0 130.369 11.9584 1559 59.0577 870.409 428.859
65 0 132.5 10.5585 1399 61.3774 869.967 420.575
66 0 137.168 11.0959 1522 60.0913 870.767 423.482
67 0 138.327 11.3138 1565 60.4377 870.28 418.739
68 0 140.378 9.98729 1402 62.2175 870.259 416.307
69 0 143.264 9.6465 1382 63.1194 869.87 412.78
70 0 150.391 11.1111 1671 60.7445 869.963 415.011
71 0 154.227 10.6466 1642 61.2284 871.049 412.929
72 0 145.558 12.9364 1883 59.7037 871.251 407.252
73 1 90.3104 10.6632 963 57.2845 871.205 439.422
74 0 85.0942 10.647 906 58.8146 871.44 437.006
75 0 93.1728 11.7631 1096 56.5602 871.443 437.976
76 0 99.3091 14.037 1394 52.6363 870.572 443.571
77 0 91.2138 12.1911 1112 57.7419 870.271 429.906
78 1 103.254 14.8953 1538 53.5338 870.659 433.028
79 0 95.1111 10.0409 955 60.3759 869.263 424.556
80 0 99.1872 10.4852 1040 59.4683 869.839 431.537
81 0 110.315 11.44 1262 57.7282 870.735 429.442
82 0 107.249 10.8812 1167 59.1011 871.085 430.444
83 0 112.31 11.3971 1280 58.6289 871.249 426.586
84 0 112.295 12.3603 1388 58.1052 870.653 425.836
85 0 112.261 10.6894 1200 61.1517 871.108 418.792
86 1 126.198 13.0826 1651 56.7196 870.852 426.251
87 0 120.287 11.9298 1435 59.8258 871.21 421.277
88 0 125.275 13.2828 1664 58.3834 871.066 421.108
89 0 126.322 12.1911 1540 59.7708 871.091 419.782
90 0 130.118 11.528 1500 61.0687 870.435 417.246
91 0 133.401 12.0614 1609 61.1467 870.5 412.296
92 0 136.364 12.2099 1665 61.2012 871.217 412.331
93 0 139.154 11.6203 1617 62.4867 870.382 407.903
94 0 141.335 10.4716 1480 64.598 870.398 405.434
95 1 153.426 12.3056 1888 61.1912 870.327 410.477
96 0 150.29 10.1737 1529 65.0386 870.362 401.122
97 0 156.474 10.9283 1710 64.1099 870.668 402.218
98 1 96.3929 9.79325 944 62.286 871.06 434.021
99 0 99.376 11.3106 1124 61.5845 870.31 430.865
100 0 102.236 12.1875 1246 60.7873 870.314 428.703
101 0 106.126 11.9104 1264 61.1582 870.654 426.8
102 0 108.239 10.5323 1140 63.1035 871.009 425.034
103 0 111.356 10.3003 1147 63.6216 870.836 420.866
104 0 114.282 10.6841 1221 63.0803 870.865 423.611
105 0 117.17 10.9158 1279 63.4253 870.421 420.198
106 0 120.343 11.5337 1388 63.3437 870.402 415.341
107 0 126.128 13.0582 1647 61.5962 870.594 416.21
108 0 129.136 12.9321 1670 62.0766 870.734 416.172
109 0 131.123 11.7371 1539 64.0604 870.044 414.72
110 0 137.215 11.5512 1585 64.7899 870.025 411.693
111 0 139.546 12.0892 1687 64.5489 869.961 404.793
112 0 145.244 12.269 1782 64.0617 870.19 410.398
113 1 25.007 5.83835 146 52.5685 871.555 471.089
114 0 27.018 6.73626 182 52.4066 872.434 471.214
115 0 25.0275 8.67046 217 51.4378 872.35 471.475
116 0 27.0673 10.4554 283 49.8622 872.703 469.746
117 0 23.0314 8.03251 185 50.6973 872.854 472.27
118 0 23.0146 5.56169 128 54.4141 872.195 472.039
119 0 27.0682 9.19899 249 50.7108 872.538 472.233
120 0 27.1007 6.1253 166 52.7048 871.855 474.337
121 0 27.1659 8.35605 227 50.467 872.04 476.357
122 0 30.0152 8.39576 252 50.9325 871.79 473.635
123 0 27.0409 9.79996 265 50.4642 871.853 471.551
124 0 26.0794 8.16737 213 50.8732 871.737 474.019
125 0 31.1622 7.76583 242 50.4504 871.69 474.839
126 0 27.0712 8.79163 238 50.7941 872.067 473.958
127 0 27.0262 7.77023 210 51.6429 872.524 475.31
128 1 128.291 10.6944 1372 69.086 870.928 414.522
129 1 76.1464 9.24534 704 64.3196 872.213 445.905
130 0 78.2299 10.009 783 63.5032 872.309 445.797
131 0 83.1935 10.6018 882 62.3209 871.693 444.85
132 0 83.2053 9.47055 788 64.0013 872.1 445.377
133 0 81.1255 7.7411 628 67.8535 871.333 437.686
134 0 88.1854 10.2285 902 63.4435 870.901 441.532
135 0 87.0568 8.59209 748 66.4372 871.622 439.742
136 1 20.0045 6.54851 131 52.3511 873.527 476.908
137 0 25.072 9.93141 249 48.2892 873.281 479.108
138 0 26.0456 7.14133 186 50.5484 873.027 479.328
139 0 23.0376 5.46932 126 51.9603 873.008 477.437
140 0 25.0516 9.81974 246 49.1829 872.305 477.598
141 0 24.0685 5.60898 135 52.3037 872.896 476.385
142 0 22.0148 4.13359 91 54.2637 873.451 476.802
143 0 22.2113 6.03296 134 52.3955 873.127 477.149
144 0 23.0058 7.25902 167 51.4731 873.497 478.036
145 0 23.0477 5.98759 138 52.1957 873.493 478.101
146 0 22.0132 5.45128 120 53.425 872.733 476.642
147 0 18.0055 2.83248 51 55.1569 872.902 478.569
148 0 22.0366 7.98672 176 51.0852 872.955 476.67
149 0 27.109 7.85716 213 51.3897 873.164 477.16
150 0 25.1694 8.14482 205 51.3707 873.093 478.541
151 0 26.127 5.66464 148 53.3986 872.041 478.318
152 0 24.0187 6.45331 155 52.7548 872.129 477.806
153 0 27.0303 8.50897 230 50.6478 873.248 478.17
154 0 23.0976 5.15206 119 54.9244 873.504 477.218
155 0 24.0131 5.62193 135 54.6148 873.378 478.422
156 0 25.0928 5.26047 132 54.2197 873.75 478.788
157 0 26.3125 6.65082 175 52.2343 872.994 480.909
158 0 27.0267 8.7321 236 50.8686 872.737 476.225
159 0 27.1289 7.74083 210 51.3095 872.781 477.462
160 1 92.2962 10.4988 969 63.0062 871.549 440.14
161 0 95.2118 11.6267 1107 60.9223 872.462 443.728
162 0 96.2576 9.67197 931 63.9216 872.568 442.979
163 0 98.4438 9.26417 912 65.477 872.292 435.981
164 0 96.2636 8.25857 795 67.9019 871.831 432.058
165 0 102.268 10.3062 1054 65.2211 872.08 434.842
166 0 103.2 10.6783 1102 65.3122 872.164 433.221
167 0 110.289 7.87928 869 68.328 872.092 432.931
168 0 110.173 10.8828 1199 65.5413 871.897 429.72
169 0 112.266 11.4371 1284 65.2734 871.361 427.435
170 0 113.293 8.94141 1013 69.4946 870.822 422.858
171 0 116.21 11.3243 1316 66.7234 871.419 420.523
172 0 120.276 11.1992 1347 66.9369 871.288 418.682
173 0 124.446 10.4784 1304 68.1066 871.31 415.785
174 0 130.384 9.8018 1278 67.8161 870.977 419.117
175 0 129.354 10.537 1363 68.1005 871.491 415.461
176 0 134.428 9.46232 1272 69.8082 871.535 411.095
177 0 138.358 12.5833 1741 65.3102 871.813 414.502
178 0 145.322 10.9412 1590 66.3371 871.969 415.54
179 0 146.481 10.7932 1581 68.2638 871.613 406.677
180 0 150.285 9.9411 1494 69.4672 871.752 404.169
181 0 153.298 9.79137 1501 70.4937 871.625 397.248
182 0 159.313 11.2672 1795 68.2451 871.93 399.765
183 0 164.383 11.315 1860 68.4952 871.472 396.095
184 0 166.309 10.1799 1693 70.7614 871.102 392.814
185 0 170.418 9.82288 1674 72.4241 871.505 382.165
186 1 39.0884 8.23773 322 54.941 872.854 459.034
187 0 37.2454 7.38347 275 56.1636 873.135 456.658
188 0 39.1267 7.64185 299 56.0368 872.452 458.274
189 0 39.0753 8.01017 313 55.9457 871.69 457.85
190 0 37.0589 5.42379 201 58.4279 872.189 459.871
191 0 43.3024 8.72932 378 54.8942 871.794 457.262
192 0 44.1349 9.08579 401 55.1771 872.536 456.506
193 0 43.0661 7.36077 317 57.2366 872.987 456.53
194 0 45.0364 9.37019 422 55.9526 872.934 455.481
195 0 48.1173 6.85824 330 58.2242 872.167 457.364
196 0 49.1313 8.75206 430 56.5698 871.879 452.847
197 0 49.2407 9.03724 445 57.0854 871.703 454.546
198 1 242.512 10.7994 2619 73.9553 870.596 352.835
199 0 249.616 11.8582 2960 72.3916 871.256 349.101
200 0 257.322 14.0719 3621 69.3615 870.603 343.148
201 0 264.514 13.0239 3445 70.9562 870.707 344.176
202 0 267.349 11.8983 3181 73.4571 870.747 335.275
203 0 272.267 10.4016 2832 74.8927 870.936 341.341
204 0 279.742 10.9529 3064 75.1361 870.461 327.034
205 0 288.381 12.4349 3586 71.792 870.359 338.417
206 0 294.357 12.0568 3549 73.5675 870.314 323.878
207 0 305.421 13.8563 4232 69.1767 869.289 325.292
208 1 75.1623 10.6835 803 53.4458 870.823 442.095
209 0 78.3997 17.7169 1389 45.9172 871.231 440.788
210 0 74.2531 17.4808 1298 47.2928 871.576 440.485
211 0 69.2103 11.9491 827 54.9117 871.614 445.133
212 0 67.1269 11.9922 805 55.9677 871.619 445.144
213 0 67.1075 10.6694 716 58.588 871.054 445.485
214 0 66.1368 9.48035 627 60.7863 871.394 446.938
215 0 66.1714 9.91365 656 60.7195 870.997 445.399
216 0 75.103 12.849 965 54.0477 871.728 440.259
217 1 46.0361 8.44988 389 61.9049 872.871 456.103
218 0 52.0457 10.6061 552 56.8659 872.592 457.522
219 0 49.0702 10.699 525 58.0152 872.406 456.181
220 0 50.0737 11.5829 580 56.7552 872.438 456.993
221 0 52.076 12.7506 664 54.5557 872.455 458.712
222 0 52.1474 11.5634 603 56.8856 871.755 456.123
223 0 50.044 11.4899 575 57.873 871.979 455.099
224 0 53.0988 11.7517 624 56.351 871.638 455.966
225 0 52.0689 10.8894 567 58.5732 871.933 452.914
226 0 52.0691 11.0238 574 58.1289 872.274 455.969
227 0 55.03 10.7941 594 57.9596 872.406 454.631
228 0 53.0236 10.2596 544 59.9596 872.333 454.094
