time division length width area intensity CMx CMy
0 0 42.084 10.6691 449 58.7127 1111.07 527.53
1 0 42.05 10.6302 447 59.038 1110.49 528.43
2 0 42.0378 11.6086 488 58.416 1111.44 525.791
3 0 44.0147 9.86034 434 59.7258 1110.46 527.562
4 0 44.0549 10.3961 458 58.9258 1110.8 527.419
5 0 46.0765 14.0853 649 55.5639 1109.98 523.889
6 0 47.1185 11.0572 521 58.7716 1110.16 526.939
7 0 46.1094 11.1257 513 59.6628 1110.31 525.179
8 0 50.1125 12.9109 647 57.2071 1110.08 525.827
9 0 51.0935 11.0777 566 59.7208 1109.41 524.837
10 0 52.1055 12.4555 649 58.6102 1110.44 522.545
11 0 51.0219 11.3481 579 60.7979 1109.83 523.136
12 0 52.0696 12.272 639 60.338 1110.24 522.618
13 0 56.196 11.6556 655 60.0473 1110.23 522.644
14 0 55.1494 10.5894 584 61.6798 1110.56 523.217
15 0 58.0699 12.3644 718 59.3635 1110.53 524.827
16 0 57.1951 11.3821 651 61.1613 1110.58 524.518
17 0 60.1407 11.789 709 61.3244 1110.26 521.563
18 0 58.1886 10.7066 623 62.4382 1110.33 522.446
19 0 61.1203 11.0765 677 61.1595 1110.15 524.133
20 0 62.2136 10.5122 654 62.893 1110.71 520.693
21 0 67.1181 13.2751 891 59.2435 1110.34 516.961
22 0 67.1177 10.2953 691 62.0999 1110.41 520.777
23 0 68.2826 12.7119 868 59.4839 1109.74 521.721
24 0 71.1993 11.7838 839 62.1406 1109.91 516.22
25 0 75.1568 12.2012 917 61.0807 1109.07 517.07
26 0 76.1142 11.7324 893 63.2161 1109.98 514.78
27 0 76.1711 12.2881 936 63.906 1109.54 513.744
28 0 79.1363 13.3188 1054 62.7638 1109.68 513.097
29 0 81.1986 12.1308 985 64.3726 1109.39 512.225
30 0 83.2496 11.2793 939 66.3674 1109.82 509.317
31 0 88.1779 13.1779 1162 63.0353 1109.67 512.333
32 0 91.227 14.0748 1284 62.3411 1108.97 508.078
33 0 91.1326 10.4463 952 66.4622 1110.18 512.849
34 0 94.173 12.2753 1156 65.3633 1110.13 509.497
35 0 104.249 10.6188 1107 67.0912 1110.14 507.758
36 0 104.088 10.1933 1061 66.9868 1111.37 509.314
37 1 52.0446 12.0281 626 64.7157 1110.59 528.139
38 0 56.1433 11.8803 667 66.1799 1110.96 524.862
39 0 57.0932 12.0855 690 66.0493 1111.24 525.475
40 0 60.0243 11.2954 678 66.9705 1110.92 525.274
41 0 59.1076 13.0102 769 66.5696 1110.57 521.176
42 0 62.026 12.0756 749 67.6208 1111.43 520.686
43 0 64.0519 11.9434 765 67.1085 1111.61 523.025
44 0 64.0573 10.7092 686 68.691 1111.21 523.595
45 0 68.0499 8.97871 611 71.6383 1110.91 519.64
46 0 71.0986 11.5473 821 68.4336 1111.39 518.548
47 0 73.062 12.1678 889 66.9618 1111.57 519.655
48 0 69.1015 12.5034 864 70.8831 1111.3 518.955
49 0 75.0627 11.8568 890 69.673 1110.96 518.473
50 0 76.1505 11.2934 860 69.9849 1111.35 517.233
51 0 81.0753 12.2602 994 69.0412 1111.47 515.28
52 0 81.0725 12.162 986 69.1288 1111.32 515.351
53 0 85.0721 12.0368 1024 69.3818 1110.94 512.543
54 0 87.1132 11.4564 998 70.0531 1110.75 511.77
55 1 44.0289 10.3568 456 69.0811 1110.35 530.842
56 0 46.0451 11.9231 549 67.1275 1111.2 531.097
57 0 48.0525 11.3001 543 67.6943 1111.19 530.031
58 0 48.1274 11.5527 556 68.0234 1111.46 529.032
59 0 49.096 12.0173 590 68.2881 1111.17 526.803
60 0 53.0854 12.1879 647 66.8377 1110.99 527.994
61 0 52.1202 10.5142 548 69.8942 1111.05 528.414
62 0 55.1235 11.1931 617 68.893 1110.79 525.843
63 0 56.1878 12.2802 690 67.3348 1111.53 525.313
64 0 58.0744 11.2786 655 68.9908 1110.92 523.902
65 0 59.1044 10.8114 639 70.0673 1111.25 522.814
66 0 63.0885 12.5855 794 66.7934 1111.25 521.316
67 0 64.1185 10.7769 691 68.9218 1111.36 523.643
68 0 67.1899 12.621 848 66.467 1110.64 520.12
69 0 69.1352 12.0633 834 68.2194 1110.71 516.953
70 0 71.0709 13.184 937 66.254 1110.95 516.572
71 0 76.2073 13.1221 1000 65.395 1110.79 517.572
72 0 75.0668 11.3499 852 68.5352 1110.69 514.351
73 0 76.0789 10.7783 820 69.7817 1111.15 510.439
74 0 81.2047 11.5387 937 68.286 1111.31 511.706
75 0 85.124 13.7681 1172 65.3157 1112.47 509.805
76 1 42.0264 9.89854 416 65.6659 1112.04 532.149
77 0 41.0509 10.9376 449 65.2049 1111.26 528.808
78 0 45.0542 10.8092 487 64.0246 1111.41 529.226
79 0 45.0705 10.8718 490 64.9429 1111.96 527.706
80 0 43.0955 9.25851 399 68.208 1111.75 528.261
81 0 48.0275 11.0145 529 64.4575 1111.93 529.556
82 0 47.0435 10.0333 472 66.3072 1111.49 527.68
83 0 48.0384 10.7414 516 65.5097 1111.68 525.736
84 0 52.0756 10.2543 534 65.6198 1111.96 527.006
85 0 50.0519 10.3493 518 66.6757 1111.57 523.819
86 0 53.0872 9.83287 522 65.5498 1112.39 525.925
87 0 53.0588 10.969 582 65.5206 1112.26 522.256
88 0 55.0304 10.267 565 65.8336 1112.65 521.007
89 0 58.0783 11.5706 672 64.5759 1111.46 520.119
90 0 59.0864 11.9147 704 63.8849 1112.14 519.996
91 0 60.1076 10.4812 630 66.127 1112.16 518.549
92 0 63.0854 11.8569 748 64.5495 1111.73 516.667
93 1 128.271 9.68266 1242 55.7367 1111.55 505.272
94 0 128.612 11.0488 1421 50.715 1111.47 491.658
95 0 126.612 9.77003 1237 54.4252 1111.11 501.627
96 0 123.944 10.4321 1293 54.7912 1110.91 500.273
97 0 121.667 8.6959 1058 60.2429 1111.38 507.739
98 0 121.614 10.7225 1304 57.3643 1111.38 505.084
99 0 115.332 15.1216 1744 50.922 1110.78 488.824
100 1 38.0136 10.1016 384 65.1042 1111.68 531.359
101 0 40.0609 9.53549 382 65.322 1110.71 531.212
102 0 41.0683 9.44769 388 66.0232 1111.22 529.621
103 0 41.039 11.3063 464 64.6185 1111.23 528.017
104 0 42.0274 10.1362 426 66.392 1111.4 530.293
105 0 44.1247 11.1502 492 65.7012 1111.59 528.327
106 0 44.0442 9.24071 407 67.9975 1111.25 528.526
107 0 46.09 10.9785 506 65.8281 1112.02 528.026
108 0 46.09 11.0219 508 148.933 1112.04 527.951
109 0 49.043 10.6641 523 65.6501 1112.35 527.977
110 0 47.0489 9.86207 464 68.1487 1111.93 523.578
111 0 51.0406 11.1676 570 65.4456 1111.46 526.258
112 0 53.1266 10.9926 584 65.5771 1112.32 525.647
113 0 51.0415 10.3641 529 68.1815 1112.45 523.512
114 0 54.1305 12.5807 681 63.8855 1112.12 523.824
115 0 56.1231 11.4391 642 66.0779 1112.26 521.908
116 0 57.1201 10.7493 614 66.9186 1112.52 521.103
117 0 58.0546 12.7811 742 64.9164 1112.59 519.95
118 0 60.0703 11.1203 668 66.9341 1112.17 520.377
119 0 60.0502 11.1573 670 68.0896 1112.53 519.024
120 0 64.1008 10.7019 686 67.2974 1111.99 518.362
121 0 66.1132 10.9963 727 67.3012 1111.44 517.381
122 0 68.0278 12.3773 842 65.8302 1111.42 516.181
123 0 69.045 11.3839 786 66.369 1112.19 517.802
124 0 71.1431 11.6526 829 67.0012 1111.99 514.305
125 0 73.129 11.9925 877 66.553 1110.9 513.949
126 0 75.1559 12.5206 941 66.6132 1110.65 510.984
127 0 76.0478 12.2423 931 67.5961 1111.65 508.498
128 0 78.1114 11.5348 901 68.6249 1112.69 508.797
129 0 81.0503 11.5977 940 67.9085 1112.42 511.524
130 1 41.0409 10.8916 447 65.0962 1111.43 529.414
131 0 45.0222 11.0612 498 63.7088 1111.78 528.462
132 0 45.0187 11.573 521 63.6891 1112.36 527.979
133 0 44.0875 12.4071 547 63.8062 1112.49 526.865
134 0 44.0971 10.8624 479 65.6326 1111.93 527.146
135 0 45.092 11.2659 508 65.1417 1112.29 526.421
136 0 52.1845 14.947 780 61.9103 1112.21 522.578
137 1 77.7064 9.27851 721 57.6283 1112.41 521.99
138 0 75.8713 17.991 1365 46.7223 1112.2 512.167
139 0 76.4315 13.4369 1027 52.6563 1112.14 518.506
140 0 65.3189 14.6359 956 54.908 1112.9 519.791
141 0 68.2899 16.9132 1155 51.4623 1112.4 515.319
142 0 66.381 18.3788 1220 51.0082 1112.18 514.716
143 0 64.1649 14.1822 910 57.9308 1111.25 520.098
144 0 63.099 16.8465 1063 54.6425 1112.27 512.557
145 0 63.0875 20.4161 1288 52.5559 1112.11 515.596
146 0 62.0627 15.4038 956 58.9728 1112.21 517.285
147 0 67.2177 18.1351 1219 54.1099 1112.24 511.262
148 0 68.1737 18.4529 1258 54.4658 1112.33 511.207
149 0 69.119 14.3955 995 60.1437 1111.91 515.886
150 0 72.1638 13.9266 1005 60.6925 1112.03 512.711
151 0 71.1775 18.6014 1324 54.9003 1112.3 506.624
152 0 74.2953 14.6577 1089 60.3526 1112.56 510.545
153 0 76.0718 16.0901 1224 58.5882 1112.69 510.183
154 0 80.1609 20.2468 1623 53.223 1112.36 506.061
155 0 81.0566 12.9662 1051 62.2246 1112.28 507.844
156 0 86.163 17.7338 1528 54.8783 1112.76 500.546
157 0 89.0932 13.8731 1236 60.0736 1112.3 502.759
158 0 87.1812 15.7718 1375 58.3876 1112.24 502.585
159 0 89.0871 15.5017 1381 59.0456 1111.81 501.048
160 1 41.0452 10.3301 424 67.1392 1111.08 527.679
161 0 43.032 11.8749 511 64.4736 1111.23 526.779
162 0 41.047 10.7681 442 67.0249 1111.26 525.609
163 0 43.0428 10.7335 462 66.1017 1111.01 527.461
164 0 43.0277 11.9923 516 65.5252 1110.83 525.578
165 0 44.02 12.4262 547 64.8318 1111.62 526.64
166 0 47.0123 11.5076 541 65.586 1112.04 524.691
167 0 48.0421 11.5732 556 65.3022 1111.51 525.02
168 0 50.0194 12.5551 628 64.1847 1111.43 523.436
169 0 49.0799 10.8802 534 66.6386 1111.99 524.431
170 0 52.0834 11.3088 589 66.3786 1111.9 521.255
171 0 56.0544 12.7019 712 63.8371 1111.53 523.017
172 0 57.0286 11.3978 650 65.7231 1111.9 521.734
173 0 57.0544 11.9185 680 65.4235 1111.94 519.994
174 0 60.1365 13.5026 812 63.1256 1112.14 518.826
175 0 60.0426 12.9408 777 64.2111 1111.41 520.723
176 0 61.0753 11.4613 700 66.8657 1111.4 517.066
177 0 66.0897 14.2231 940 62.5989 1111.2 515.466
178 0 65.0205 12.5345 815 65.6724 1111.22 514.799
179 0 69.0456 12.7742 882 64.9728 1112.3 513.617
180 0 70.0853 12.3278 864 65.75 1112.01 514.475
181 0 73.1117 13.2947 972 64.5484 1111.81 514.211
182 0 74.0682 12.178 902 66.3825 1110.76 513.654
183 0 78.053 13.1962 1030 65.3204 1110.45 510.225
184 0 80.0551 12.991 1040 65.725 1110.06 511.905
185 0 83.0783 11.098 922 67.8178 1110.24 512.849
186 0 83.0771 12.6991 1055 67.1147 1110.26 507.775
187 1 40.0118 10.3219 413 68.368 1109.86 529.32
188 0 41.1161 11.4067 469 67.6994 1109.65 529.392
189 0 43.0166 12.1813 524 67.3492 1110.1 528.12
190 0 43.0285 10.5976 456 69.3158 1110.16 529.114
191 0 47.0503 12.9436 609 65.376 1108.9 528.138
192 0 48.0392 11.6363 559 66.4723 1109.16 529.844
193 0 48.1505 13.0009 626 65.5974 1109.51 528.631
194 0 51.0414 11.9315 609 66.867 1108.78 527.921
195 0 50.0403 12.7097 636 66.9607 1108.03 525.225
196 0 54.0776 10.5219 569 68.9965 1109.35 527.668
197 0 57.0423 12.6573 722 66.0374 1109.54 527.344
198 0 56.0466 12.6145 707 66.7355 1109.22 527.24
199 0 58.0955 12.9442 752 66.8351 1108.7 526.638
200 0 61.1762 12.8481 786 67.1794 1108.49 525.123
201 0 61.0888 12.6537 773 68.6468 1107.86 523.573
202 0 64.1436 13.158 844 66.5 1107.38 526.507
203 0 68.1695 14.508 989 64.9292 1107.57 523.62
204 0 68.0283 12.6859 863 68.0568 1107.49 522.999
205 0 70.0639 12.7598 894 68.5034 1107.26 521.803
206 0 71.0741 11.9594 850 70.1835 1107.91 522.087
207 0 74.0644 12.5566 930 68.9946 1108.18 522.049
208 0 74.0544 12.2748 909 70.2508 1107.61 521.942
209 0 78.1412 13.0277 1018 69.5894 1107.15 519.986
210 1 41.07 12.6126 518 67.7664 1106.38 537.772
211 0 42.0502 11.7954 496 68.7964 1106.79 538.387
212 0 43.0923 12.9257 557 67.5117 1106.79 538.323
213 0 44.0725 11.9576 527 69.6869 1106.22 537.381
214 0 45.0632 13.4922 608 67.7681 1106.02 537.332
215 0 46.0612 12.5702 579 69.8048 1106.53 534.007
216 0 49.0634 12.5144 614 69.0489 1106.69 534.686
217 0 48.0933 11.6232 559 71.576 1105.62 534.1
218 0 49.0674 12.6561 621 69.6151 1106.05 533.57
219 0 53.1075 12.936 687 68.409 1106.3 532.549
220 0 53.0442 11.5187 611 71.108 1105.61 532.35
221 0 56.1478 12.1999 685 69.5883 1105.33 531.672
222 0 56.0885 12.0524 676 70.4157 1106.18 530.852
223 0 57.0562 11.9531 682 70.7009 1106 529.968
224 0 58.0317 11.5454 670 72.3582 1105.94 527.128
225 0 61.0798 11.8534 724 72.0691 1105.45 526.051
226 0 63.0682 12.2566 773 71.7555 1106 524.94
227 0 65.0265 12.4257 808 72.1398 1105.96 523.642
228 0 67.1228 12.8421 862 71.2517 1106.23 522.733
229 0 69.1503 13.2176 914 71.1225 1106.64 521.873
230 0 70.0797 12.0292 843 72.981 1106.11 519.67
231 0 73.1877 12.9257 946 72.1987 1106.78 518.637
232 0 74.0925 13.3212 987 72.1925 1107.07 516.994
233 0 75.0749 12.7606 958 73.5804 1106.65 516.253
234 0 78.0675 13.4755 1052 72.7243 1105.82 514.161
235 1 42.0605 11.0793 466 73.7511 1106.88 531.2
236 0 42.0617 11.3167 476 74.1155 1106.96 531.279
237 0 45.0781 12.1567 548 71.7865 1106.43 531.845
238 0 45.0274 11.7262 528 72.6345 1106.17 531.83
239 0 47.0847 12.9979 612 71.5768 1107.13 530.281
240 0 45.0581 10.3644 467 75.4047 1106.74 531.323
241 0 48.0575 11.507 553 73.859 1106.37 528.033
242 0 50.2977 11.6705 587 72.1721 1107.09 529.405
243 0 52.1145 11.6282 606 72.5677 1106.74 527.079
244 0 52.0764 11.4255 595 72.5193 1106.22 527.64
245 0 53.1306 11.1424 592 73.8091 1107.39 526.363
246 0 54.1283 11.1772 605 73.957 1107.75 523.512
247 0 55.0728 11.0763 610 74.1508 1107.52 522.592
248 0 59.0606 10.7517 635 74.1213 1108.51 522.608
249 0 60.0449 10.2423 615 75.2959 1107.63 521.616
250 0 59.0853 10.5272 622 75.2508 1107.15 521.461
251 0 62.0832 11.6457 723 73.0678 1107.75 521.82
252 0 63.0214 9.9014 624 75.625 1107.38 521.204
253 0 66.1431 11.4449 757 73.7741 1106.92 519.801
254 0 67.1076 10.729 720 74.4611 1107.61 518.164
255 0 70.0959 10.3715 727 75.0812 1107.96 515.565
256 0 73.1206 10.6947 782 74.5806 1107.2 516.313
257 0 73.1334 10.0911 738 75.9512 1107.69 512.511
258 0 79.055 12.1181 958 72.0491 1107.51 514.909
259 0 80.0884 10.0389 804 75.092 1106.82 511.373
260 0 85.0578 12.615 1073 70.014 1107.56 516.857
261 0 86.0802 12.8253 1104 70.7817 1107.18 511.663
262 0 90.1232 12.4829 1125 70.1209 1106.8 514.321
263 0 93.1454 11.8739 1106 71.2215 1106.73 511.978
264 1 51.0446 11.6565 595 70.2252 1107.03 531.743
265 0 50.1379 10.4911 526 71.3745 1106.12 532.84
266 0 54.039 12.6575 684 68.1213 1105.5 530.564
267 0 56.0542 12.3809 694 68.9337 1105.65 529.64
268 0 59.04 13.313 786 66.5967 1106.3 531.131
269 0 57.0507 11.2181 640 71.3203 1105.91 528.139
270 0 60.16 12.1676 732 69.3115 1106.18 525.562
271 0 59.0838 11.2552 665 71.5098 1106.95 524.668
272 0 64.1002 10.8736 697 71.2396 1106.39 526.189
273 0 64.0448 10.5707 677 71.5155 1105.2 524.594
274 0 66.1184 10.6778 706 70.9023 1104.8 523.994
275 0 71.0529 11.78 837 69.1804 1105.45 521.516
276 0 72.0743 11.9044 858 68.9965 1105.56 522.738
277 0 76.1187 12.9009 982 67.7261 1105.78 521.487
278 0 79.0746 12.6969 1004 67.504 1106.01 520.638
279 0 83.1124 13.4517 1118 67.068 1105.96 517.582
280 0 85.201 13.7322 1170 66.659 1106.07 516.375
281 0 86.0851 12.8477 1106 68.491 1105.22 513.907
282 1 44.0501 11.4642 505 68.5762 1105.3 536.125
283 0 45.0117 11.6636 525 68.6629 1105.31 534.625
284 0 44.0383 12.6708 558 68.2043 1104.91 531.93
285 0 48.0249 11.5149 553 68.3743 1105.18 533.872
286 0 49.149 11.4753 564 69.6879 1105.11 531.17
287 0 50.0391 12.8699 644 67.9301 1105.1 530.963
288 0 51.0433 12.1074 618 68.0032 1104.63 531.094
289 0 54.0626 12.2821 664 68.0964 1105.08 528.858
290 0 55.104 12.2859 677 68.0739 1104.7 528.722
291 0 56.0581 11.8627 665 69.0406 1104.85 529.744
292 0 57.0481 12.8488 733 67.9973 1105.08 529.3
293 0 61.1003 12.9787 793 66.8991 1105.4 528.826
294 0 62.1377 12.7459 792 67.7045 1105.27 526.141
295 0 62.0751 12.4043 770 68.4286 1104.98 526.469
296 0 63.0874 11.9041 751 69.743 1104.99 522.96
297 0 65.0933 12.9353 842 68.6485 1104.24 520.888
298 0 69.0998 13.3864 925 67.6086 1104.05 521.261
299 0 70.0863 12.2278 857 69.5239 1104.94 520.826
300 0 74.2429 13.5905 1009 67.1189 1104.42 519.755
301 0 74.1264 12.4922 926 69.8639 1103.78 517.424
302 0 76.0532 12.1362 923 70.1365 1104.23 517.592
303 0 80.0581 13.0031 1041 68.8511 1103.87 516.246
304 0 82.1649 13.7041 1126 68.286 1103.49 514.601
305 0 86.1631 13.0682 1126 69.5906 1103.72 511.01
306 0 88.2418 12.7604 1126 70.3535 1103.3 508.035
307 0 91.0948 13.4475 1225 68.7069 1103.8 510.21
308 0 92.1075 11.4974 1059 73.0604 1104.28 509.402
309 0 96.1211 13.7223 1319 69.9788 1103.38 507.957
310 1 49.0735 12.3081 604 70.0513 1103.79 530.965
311 0 52.052 12.2762 639 70.216 1103.79 530.413
312 0 53.0294 12.8797 683 70.7101 1103.6 528.157
313 0 54.0569 13.5043 730 69.8425 1103.1 527.3
314 0 56.0331 12.7603 715 70.9776 1104.02 526.427
315 0 59.1507 13.1359 777 70.0734 1103.88 525.127
316 0 58.033 12.1827 707 72.0141 1104.35 527.003
317 0 60.1043 13.1438 790 70.5 1104.45 524.849
318 0 63.0388 12.7223 802 70.6197 1103.81 524.212
319 0 67.0242 12.5626 842 69.9287 1104.56 523.033
320 0 67.0533 11.5132 772 72.5414 1104.56 522.573
321 0 68.064 12.5323 853 70.9578 1104.79 521.012
322 0 72.0393 13.7286 989 69.3033 1104.6 518.833
323 0 72.0713 12.2379 882 71.4399 1104.86 520.614
324 0 75.084 13.9444 1047 69.3515 1104.76 516.183
325 0 77.1169 13.1229 1012 70.1057 1104.57 516.127
326 0 78.0712 11.3742 888 73.08 1105 516.387
327 0 80.1021 11.7725 943 73.053 1105.4 514.53
328 0 83.0455 12.2824 1020 71.8314 1105.07 515.27
329 0 87.1405 13.0135 1134 71.328 1104.78 512.421
330 0 91.1897 14.1244 1288 69.6118 1104.67 508.703
331 0 92.0918 13.3237 1227 71.0375 1104.76 508.812
332 1 49.0361 11.1754 548 70.8741 1105.31 529.872
333 0 51.0255 10.9945 561 70.7576 1105.31 529.62
334 0 53.0144 12.5626 666 69.0105 1105.1 527.577
335 0 56.0878 11.8029 662 69.2009 1104.53 528.57
336 0 54.0845 11.0013 595 72.4908 1104.93 525.551
337 0 55.1083 12.5752 693 70.6421 1104.81 525.105
338 0 58.0558 11.3339 658 71.9848 1104.86 525.255
339 0 59.0584 13.3427 788 69.9162 1104.71 523.895
340 0 59.0219 11.1484 658 72.7568 1104.98 526.426
341 0 62.1491 11.569 719 72.3588 1104.42 523.477
342 0 62.0358 10.8808 675 72.8978 1104.7 522.972
343 0 64.0323 12.2594 785 71.3096 1105.19 520.843
344 0 67.1059 11.4148 766 71.5914 1105.14 520.691
345 0 69.0583 12.0623 833 70.6675 1105.56 522.077
346 0 69.1138 11.6764 807 72.1115 1104.9 517.955
347 0 72.088 12.8315 925 70.6022 1105.39 516.937
348 0 74.0874 12.8767 954 70.2254 1104.59 517.58
349 0 73.0904 11.1643 816 72.9792 1104.02 515.908
350 0 79.0955 13.1613 1041 69.3948 1105.1 516.606
351 0 80.0773 12.2881 984 69.9512 1105.39 516.43
352 0 80.0495 10.6809 855 73.4608 1104.97 512.687
353 0 82.073 11.0024 903 72.5061 1104.57 512.967
354 0 86.1212 12.5637 1082 70.573 1105.47 510.165
355 0 89.134 12.2288 1090 71.1349 1105.26 511.349
356 0 92.1348 11.8088 1088 72.0386 1105.69 509.046
357 0 92.1032 10.9768 1011 74.9001 1105.51 506.332
358 0 98.1828 12.0082 1179 72.3147 1105.42 507.899
359 0 98.2184 10.2527 1007 75.0576 1105.34 507.025
360 1 50.0154 9.85696 493 71.4483 1105.19 527.128
361 0 53.054 11.3281 601 70.3577 1104.87 525.075
362 0 56.1177 11.2799 633 69.4471 1105.11 527.904
363 0 55.0534 11.5706 637 70.4239 1105.21 526.419
364 0 58.179 11.224 653 70.5283 1105.93 524.784
365 0 58.0794 10.2618 596 72.3708 1105.56 524.084
366 0 60.0802 11.2683 677 72.1743 1105.57 521.873
367 0 62.1044 10.273 638 72.9295 1105.13 523.154
368 0 63.1331 11.357 717 72.371 1105.11 521.735
369 0 66.1282 11.5684 765 71.583 1105.22 521.094
370 0 68.0828 10.7222 730 72.4918 1105.74 521.73
371 0 70.1168 11.6662 818 72.0477 1105.46 518.638
372 0 75.2845 12.6985 956 69.5178 1105.42 518.852
373 0 75.0425 13.4857 1012 69.5583 1105.15 517.675
374 0 74.2292 12.192 905 71.7591 1105.22 517.635
375 0 79.2767 12.1726 965 71.97 1105.55 514.839
376 0 81.0892 12.8254 1040 70.7548 1105.41 513.668
377 0 83.1977 12.3561 1028 72.1381 1105.29 510.798
378 0 85.0448 11.1706 950 73.7379 1104.48 512.799
379 0 87.1644 12.1265 1057 72.9773 1104.31 509.653
380 0 92.1476 13.4567 1240 70.3871 1103.96 509.858
381 0 93.0964 12.0628 1123 73.7783 1104.48 505.63
382 0 98.0509 14.1151 1384 70.6301 1104.02 505.954
383 0 100.155 12.8101 1283 72.2884 1104.46 506.656
384 0 103.076 14.4262 1487 70.2784 1104.65 503.161
385 0 104.249 12.7484 1329 73.6208 1105.13 501.567
386 0 106.222 12.0503 1280 74.8633 1104.02 498.387
387 1 63.03 10.4871 661 74.292 1104.19 523.315
388 0 65.0311 10.5488 686 75.0146 1104.55 521.06
389 0 67.0527 10.4694 702 75.6667 1104.24 521.286
390 0 69.0523 11.4406 790 73.7557 1105.25 520.199
391 0 70.1476 10.8628 762 74.8832 1105.42 518.234
392 0 72.1299 11.9229 860 73.7733 1105.2 515.652
393 0 76.1344 11.3615 865 73.5387 1105.29 516.837
394 0 80.1478 12.7639 1023 71.0274 1104.73 515.683
395 0 78.1212 11.6998 914 73.5405 1104.2 513.12
396 0 83.1007 12.4187 1032 71.187 1104.62 513.53
397 0 84.1818 11.8197 995 72.9246 1104.6 511.654
398 0 86.1572 11.6879 1007 72.9305 1104.9 512.218
399 0 89.041 12.0843 1076 72.5976 1104.91 510.258
400 0 92.1156 13.1357 1210 70.8562 1105.07 509.116
401 0 93.1099 11.5133 1072 73.4095 1105.26 507.079
402 0 96.1397 11.8786 1142 72.7802 1104.98 504.51
403 0 100.092 12.7682 1278 70.9038 1105.73 505.994
404 0 102.093 11.3916 1163 73.3379 1106.13 503.698
405 0 105.244 13.0744 1376 70.9433 1105.72 503.403
406 0 108.218 12.6227 1366 71.7233 1105.23 499.743
407 0 109.068 11.3691 1240 73.7742 1105.17 497.403
408 0 114.048 12.4158 1416 70.9845 1104.57 497.177
409 0 116.074 11.9493 1387 72.5342 1104.58 495.975
410 0 120.08 11.9587 1436 72.523 1104.28 492.502
411 0 123.28 11.8186 1457 72.6308 1104.14 494.454
412 0 126.244 11.153 1408 73.8551 1104.2 486.826
413 0 133.209 12.8445 1711 71.1642 1104.47 487.769
414 0 136.323 13.0793 1783 71.1935 1104.3 486.322
415 0 139.164 11.641 1620 73.0426 1103.92 486.607
416 0 143.146 11.6734 1671 73.4117 1105.18 483.124
417 1 86.1697 9.35364 806 76.1886 1105.56 508.086
418 0 90.04 11.7281 1056 73.4347 1104.96 506.589
419 0 93.0846 11.4519 1066 73.7486 1103.91 505.526
420 0 95.2144 10.8807 1036 74.6593 1103.83 506.261
421 0 99.099 12.7247 1261 72.4084 1103.63 503.789
422 0 102.156 12.1187 1238 74.1947 1104.56 501.558
423 0 105.093 12.7982 1345 72.9457 1104.46 501.285
424 0 108.164 12.6567 1369 73.1855 1104.41 498.037
425 0 110.201 12.2231 1347 74.1849 1104.33 498.747
426 0 114.133 12.1262 1384 74.2471 1104.32 497.126
427 0 117.086 11.6837 1368 74.867 1105.07 496.323
428 0 121.18 12.4691 1511 74.2892 1104.39 492.637
429 0 124.205 14.0172 1741 71.3917 1104.05 492.337
430 0 127.128 12.8218 1630 73.7509 1104.81 490.184
431 1 66.1037 10.4835 693 71.8759 1104.9 521.315
432 0 67.1494 11.4223 767 70.4172 1104.78 521.181
433 0 68.0738 11.2231 764 71.6702 1104.71 517.217
434 0 71.0309 11.8681 843 70.503 1104.62 517.024
435 0 74.0918 11.5667 857 70.9848 1104.92 516.72
436 0 74.0823 12.3106 912 69.5724 1104.79 517.264
437 0 78.0457 11.6342 908 71.0793 1104.48 514.746
438 0 81.1203 12.2411 993 69.708 1104.84 514.458
439 0 81.1684 9.85605 800 73.5112 1104.58 511.679
440 0 84.0859 11.964 1006 70.7416 1103.79 510.019
441 0 87.0445 10.914 950 71.8874 1105.02 510.755
442 0 90.0531 11.6043 1045 70.1493 1105.31 513.6
443 0 93.1219 10.9104 1016 71.8435 1105.26 510.004
444 0 94.0747 11.9161 1121 71.1927 1104.94 506.46
445 0 99.1036 13.5414 1342 68.003 1105.05 508.076
446 0 100.168 12.8185 1284 70.4673 1104.8 502.004
447 0 103.154 11.1774 1153 72.0833 1104.7 503.036
448 0 106.115 11.6572 1237 70.523 1104.93 503.566
449 0 107.163 11.7205 1256 71.4021 1104.45 499.81
450 0 111.162 10.9749 1220 72.0434 1104.89 499.907
451 1 60.0672 10.2385 615 66.5431 1104.23 525.714
452 0 61.0571 11.8578 724 65.768 1104.49 523.529
453 0 62.0517 10.6846 663 67.994 1105.71 523.561
454 0 65.0565 11.3286 737 66.81 1104.62 520.885
455 0 64.1277 10.7598 690 68.2261 1105.8 521.455
456 0 65.06 11.4817 747 66.8407 1105.71 522.687
457 0 68.2904 11.949 816 66.3836 1105.43 522.226
458 0 67.0847 10.5538 708 68.5071 1105.78 520.367
459 0 69.1118 12.0385 832 67.2969 1105.18 516.136
460 0 72.1478 11.2408 811 67.8533 1105.19 517.619
461 0 74.1437 10.5606 783 67.9259 1105.07 519.867
462 0 77.4063 13.1514 1018 65.3792 1104.39 517.17
463 0 78.2452 11.4384 895 68.3687 1104.26 515.372
464 0 81.178 12.3309 1001 67.1259 1104.55 510.519
465 0 84.1755 11.9869 1009 67.559 1104.46 514.905
466 0 85.2598 12.4091 1058 68.0671 1104.57 511.867
467 0 86.2321 10.0659 868 71.1509 1104.85 513.207
468 0 90.1659 11.4012 1028 69.8998 1104.82 511.82
469 0 92.1613 11.2737 1039 71.2021 1104.62 508.904
470 0 94.2425 11.0141 1038 71.7563 1104.55 508.578
471 0 96.164 11.2204 1079 71.9008 1104.17 505.631
472 1 51.0528 9.63708 492 69.7866 1104.22 529.415
473 0 51.0207 9.32954 476 70.1807 1104.05 528.884
474 0 50.0611 8.38975 420 72.7857 1104.9 526.993
475 0 54.0417 8.69699 470 73.0511 1104.63 526.679
476 0 59.1594 10.0407 594 70.9293 1104.36 525.842
477 0 58.2743 10.073 587 70.7683 1104.05 527.802
478 0 60.1179 11.2446 676 71.0266 1104.42 524.678
479 0 61.1419 10.631 650 71.8908 1104.3 524.982
480 0 63.2623 9.6424 610 72.9574 1104.4 524.451
481 0 66.0923 10.44 690 71.4536 1103.98 524.216
482 0 66.2224 9.25668 613 73.8352 1103.66 523.509
483 0 69.2028 11.329 784 71.2143 1104.38 522.028
484 0 68.3589 10.6789 730 73.4274 1104.5 520.867
485 0 70.2277 8.91386 626 75.3323 1104.71 521.43
486 0 72.1816 10.626 767 73.1212 1104.18 518.518
487 0 74.2837 10.7291 797 73.877 1104.7 515.823
488 0 84.1175 9.55806 804 73.4515 1104.59 520.825
489 0 84.2181 10.1641 856 73.6776 1104.04 517.088
490 0 83.2243 10.8983 907 73.9041 1103.94 514.064
491 0 85.3102 10.4911 895 74.9296 1104.46 510.333
492 0 87.1698 11.7013 1020 72.5833 1103.83 511.068
493 0 90.286 11.4857 1037 72.8284 1103.24 509.272
494 0 92.1598 11.3715 1048 73.1002 1104.02 510.247
495 0 93.1269 11.028 1027 73.7264 1104.38 510.28
496 0 97.2684 11.1753 1087 73.5538 1103.25 507.373
497 0 101.141 10.4112 1053 74.8243 1104.12 506.299
498 1 52.111 10.516 548 71.4361 1103.81 528.02
499 0 52.1472 11.1224 580 71.0138 1103.97 526.845
500 0 54.1356 9.49468 514 73.5078 1103.7 528.372
501 0 57.141 11.8654 678 70 1104.5 526.56
502 0 57.2791 9.67194 554 74.5235 1103.56 524.975
503 0 61.1723 12.1624 744 70.2661 1103.99 523.622
504 0 61.0505 11.2038 684 72.0278 1103.95 522.386
505 0 64.1282 11.0248 707 71.5997 1103.86 522.727
506 0 64.1904 10.0794 647 72.4946 1103.86 521.997
507 0 69.0424 11.1091 767 71.1082 1103.94 520.829
508 0 69.1477 10.6873 739 72.5061 1104.22 518.518
509 0 70.2327 11.8606 833 69.898 1104.07 519.722
510 0 73.0729 11.1806 817 71.0477 1103.27 517.486
511 0 78.09 11.5508 902 69.4346 1104.24 516.732
512 0 78.0925 12.562 981 69.1825 1103.47 514.272
513 0 81.1112 11.7863 956 69.8891 1103.59 514.325
514 0 84.2199 12.3367 1039 68.6872 1103.68 514.008
515 0 86.1679 12.5337 1080 68.4306 1103.59 512.768
516 0 89.1132 11.3676 1013 69.5943 1103.19 511.688
517 0 92.2911 11.843 1093 69.1189 1103.13 511.562
518 0 92.0923 11.4776 1057 70.368 1103.81 508.402
519 0 96.0958 11.0203 1059 70.6043 1103.03 509.187
520 0 100.164 11.3813 1140 70.1561 1102.94 504.48
521 0 101.121 10.8385 1096 70.7682 1103.84 504.897
522 0 105.274 11.4653 1207 70.2585 1103.98 502.233
523 0 109.096 12.4752 1361 68.3916 1103.25 500.547
524 1 55.1287 9.32364 514 70.1868 1103.56 526.448
525 0 56.0921 12.9965 729 66.3731 1103.58 524.722
526 0 58.0284 9.78831 568 69.8574 1103.12 525.975
527 0 59.0868 11.61 686 68.6633 1103.62 521.717
528 0 61.0659 12.0198 734 67.842 1103.6 520.891
529 0 63.107 11.0764 699 68.8383 1103.32 521.36
530 0 66.0567 12.0654 797 67.3714 1103.34 520.154
531 0 66.0621 10.914 721 68.871 1103.28 519.86
532 0 70.0719 11.8022 827 67.4075 1103.11 518.677
533 0 70.0761 11.1736 783 68.6692 1103.34 518.955
534 0 72.0517 12.6853 914 66.5109 1103.87 517.291
535 0 72.0747 11.169 805 69.2907 1103.78 514.542
536 0 76.0561 13.1613 1001 66.1608 1103.45 513.073
537 0 78.0916 11.9091 930 66.7355 1103.45 515.22
538 0 79.1058 11.6426 921 67.6558 1103.79 513.246
539 0 83.0626 11.6057 964 66.86 1103.62 512.708
540 0 84.1263 11.3995 959 67.3556 1103.81 512.561
541 0 86.0673 11.2703 970 67.6031 1103.11 509.811
542 0 91.1067 12.0957 1102 66.1851 1103.94 508.207
543 0 91.0928 11.8231 1077 67.0548 1103.74 505.702
544 0 94.1511 12.6074 1187 66.3227 1103.99 504.412
545 0 95.0952 11.2834 1073 68.2945 1103.52 503.402
546 0 98.0567 12.4214 1218 66.4557 1103.71 504.46
547 0 101.093 11.5339 1166 67.717 1103.43 501.123
548 0 105.22 11.8704 1249 67.4532 1103.85 499.326
549 0 105.142 10.4905 1103 69.2203 1102.84 496.764
550 1 54.0729 9.45021 511 66.4227 1103.27 523.75
551 0 56.0911 11.2496 631 65.3011 1102.93 521.775
552 0 58.0336 10.2182 593 65.5649 1103.11 524.661
553 0 58.0567 10.2658 596 66.0369 1103.35 522.96
554 0 60.0427 9.84299 591 67.0812 1102.95 521.245
555 0 63.031 10.1855 642 65.7586 1102.97 522.657
556 0 64.0368 11.2123 718 65.1045 1103.18 520.767
557 0 65.0734 10.6649 694 65.4568 1103.29 523.107
558 0 67.037 10.9641 735 66.0694 1103.89 517.785
559 0 68.0471 12.4913 850 63.7859 1102.85 515.996
560 0 70.0483 12.6199 884 64.1335 1103.33 516.163
561 0 72.1324 12.6711 914 64.1849 1103.59 513.593
562 0 74.0279 12.6574 937 63.9562 1103.8 517.507
563 0 79.1172 12.1213 959 64.2419 1103.76 515.445
564 0 80.0549 12.6288 1011 63.7923 1103.53 513.746
565 0 82.0719 12.5012 1026 63.7554 1103.24 514.106
566 0 83.2238 11.4751 955 65.7309 1103.82 512.72
567 0 87.0673 12.4157 1081 64.5698 1104.33 508.739
568 0 89.1858 11.8068 1053 65.4796 1103.95 510.631
569 0 91.2193 12.8262 1170 64.8051 1104.12 509.701
570 0 93.1986 11.5345 1075 65.3646 1103.23 511.135
571 0 96.0941 12.2068 1173 65.0367 1102.93 507.635
572 0 99.1375 11.9934 1189 65.8394 1103.84 505.539
573 0 102.097 12.7036 1297 64.9376 1103.89 503.737
574 0 104.129 12.158 1266 65.8017 1104.15 502.244
575 0 109.141 12.4976 1364 65.4399 1103.87 500.392
576 0 110.141 11.6669 1285 67.2171 1103.72 499.057
577 0 113.077 11.4877 1299 66.9707 1104.5 500.511
578 0 114.138 9.94413 1135 69.5709 1104.81 497.006
579 1 66.097 12.2698 811 64.9938 1105.19 521.088
580 0 68.1289 9.93704 677 67.9276 1105.96 522.541
581 0 68.0592 10.3439 704 68.0554 1105.79 520.947
582 0 72.0691 12.0717 870 65.546 1105.4 518.892
583 0 72.1058 10.6788 770 68.5104 1105.43 513.37
584 0 76.0797 11.7771 896 67.01 1105.25 513.073
585 0 77.1751 10.9362 844 68.2737 1104.65 513.802
586 0 77.0916 11.1167 857 68.8705 1104.08 512.601
587 0 81.1112 11.4041 925 68.1178 1104.05 512.038
588 0 84.1911 10.0723 848 68.8314 1104.5 514.756
589 0 86.1197 11.9137 1026 67.0361 1103.62 511.578
590 0 87.1608 10.4864 914 68.9792 1102.98 509.766
591 0 90.197 12.262 1106 66.8038 1103.92 510.135
592 0 92.2619 10.8712 1003 68.1884 1104.18 510.957
593 0 93.1461 11.3156 1054 68.4981 1104.12 505.394
594 0 100.107 10.229 1024 69.6777 1103.73 505.806
595 0 99.2058 10.2111 1013 69.9773 1103.98 502.9
596 0 103.226 11.2374 1160 68.3302 1104.15 506.137
597 0 104.128 9.79566 1020 70.6471 1103 498.585
598 0 107.322 9.71841 1043 70.6769 1104.14 498.516
599 0 112.107 9.92801 1113 69.1644 1103.87 503.905
600 0 115.162 10.2899 1185 70.1494 1103.57 496.353
601 0 115.157 9.73454 1121 71.1409 1104.27 493.657
602 0 122.176 10.976 1341 69.7651 1104.28 490.892
603 1 62.2246 8.79074 547 68.1444 1105.14 523.358
604 0 63.0929 9.2879 586 66.9044 1104.57 524.686
605 0 66.1037 10.892 720 65.7208 1104.45 521.022
606 0 68.064 9.57922 652 67.3206 1104.74 518.552
607 0 70.0515 10.3638 726 66.7686 1105.13 517.729
608 0 71.1176 11.0943 789 65.9379 1104.49 515.707
609 0 75.2499 10.9635 825 66.0436 1104.78 514.332
610 0 77.1806 10.456 807 66.171 1103.74 511.914
611 0 80.1139 11.0593 886 65.2788 1104.74 510.221
612 0 83.25 10.979 914 64.6652 1104.37 511.515
613 0 83.0983 11.2277 933 65.0847 1104.21 508.564
614 0 87.3007 12.2909 1073 63.2498 1104.85 509.148
615 0 91.1662 12.8337 1170 62.594 1104.57 508.728
616 0 93.0979 10.8595 1011 64.6864 1104.68 508.425
617 0 96.0986 12.227 1175 63.1345 1104.73 506.683
618 0 99.201 11.8648 1177 63.9414 1104.33 504.873
619 0 102.261 12.605 1289 63.789 1104.39 503.283
620 0 106.322 10.5811 1125 66.4738 1104.62 500.785
621 0 107.298 12.1717 1306 64.9418 1104.56 497.272
622 0 110.284 11.4613 1264 66.038 1103.76 496.39
623 0 116.211 12.3741 1438 64.9701 1104.4 496.824
624 1 62.1764 11.8212 735 62.5401 1103.95 523.087
625 0 60.0729 10.3541 622 64.4341 1104.8 525.997
626 0 65.1721 11.2625 734 63.3965 1104.46 522.531
627 0 66.1021 9.83327 650 65.5815 1104.15 521.729
628 0 66.0299 11.4645 757 63.9762 1104.75 516.789
629 0 70.1354 11.0643 776 64.6224 1104.89 519.049
630 0 70.0829 10.8871 763 65.1127 1104.48 518.332
631 0 72.0668 12.8769 928 62.055 1103.82 517.515
632 0 74.1386 10.3994 771 65.3139 1104.26 515.624
633 0 76.1254 10.9162 831 63.8881 1104.68 516.07
634 0 80.2712 10.7386 862 63.5383 1104.3 511.037
635 0 83.1275 11.9696 995 61.7367 1104.63 509.51
636 0 84.0836 10.9891 924 62.9708 1105.38 509.943
637 0 88.1745 10.6153 936 62.3344 1105.67 511.219
638 0 92.3407 12.4647 1151 60.1633 1105.24 507.748
639 0 91.1649 11.4298 1042 62.4108 1104.83 505.063
640 0 94.0961 10.3086 970 63.1814 1104.41 506.416
641 0 98.1008 10.6115 1041 63.0538 1105.16 501.386
642 0 100.155 11.7318 1175 61.674 1105.21 501.801
643 0 105.171 11.9329 1255 61.1251 1104.78 498.953
644 0 107.262 10.2273 1097 62.8405 1104.76 502.36
645 0 112.329 11.3684 1277 61.989 1104.91 493.461
646 0 113.269 10.3559 1173 63.1194 1105.13 496.787
647 0 119.275 12.7018 1515 60.4818 1104.43 494.988
648 0 119.308 12.2373 1460 61.9041 1103.63 491.871
649 0 125.288 12.9382 1621 60.4405 1104.34 491.73
650 1 66.1785 10.6077 702 61.2621 1105.41 520.066
651 0 66.1804 12.3299 816 60.3235 1105.03 518.055
652 0 70.1035 10.3133 723 61.9419 1104.91 518.678
653 0 70.1309 11.8208 829 60.8878 1104.73 514.797
654 0 73.0671 10.4425 763 62.4587 1104.9 514.986
655 0 74.2166 11.8302 878 60.9169 1105.23 515.191
656 0 75.1499 10.2196 768 62.8047 1104.7 515.854
657 0 80.127 13.0044 1042 59.4587 1105.08 513.497
658 0 81.1235 10.7121 869 62.0794 1104.86 513.753
659 0 81.1592 11.9888 973 61.2826 1104.74 511.92
660 0 84.112 12.6141 1061 60.7257 1105.56 509.491
661 0 86.1711 12.1851 1050 61.2667 1105.19 509.67
662 0 90.1898 12.6511 1141 60.3707 1105.35 509.4
663 0 90.0901 12.876 1160 60.4284 1104.9 510.478
664 0 95.2035 11.9743 1140 61.4482 1104.63 507.146
665 0 95.1654 11.7795 1121 62.3372 1104.94 502.784
666 0 99.0993 13.1989 1308 60.7561 1105 505.073
667 0 102.328 12.2547 1254 62.0423 1105.27 502.649
668 0 105.097 13.0451 1371 61.3202 1105.08 501.03
669 0 110.251 12.4443 1372 62.1348 1104.78 498.119
670 1 55.0569 9.28131 511 63.9217 1105.41 524.583
671 0 57.0921 11.823 675 61.877 1105.48 522.276
672 0 60.0584 10.1901 612 62.884 1104.93 524.858
673 0 62.0609 11.811 733 61.0055 1104.97 523.847
674 0 64.075 12.2357 784 61.1467 1105.11 520.823
675 0 63.0902 11.0952 700 63.0857 1104.96 517.249
676 0 68.0721 11.2968 769 62.7204 1105.99 519.723
677 0 68.0637 12.121 825 62.2582 1105.29 518.901
678 0 71.094 11.6887 831 62.3718 1105 516.59
679 0 73.1202 12.2401 895 61.7765 1104.44 516.95
680 0 74.0907 12.2687 909 61.6788 1103.96 517.933
681 0 76.0916 13.1552 1001 61.4625 1105.03 515.551
682 0 76.0879 13.0638 994 62.332 1105.36 512.241
683 0 79.0893 12.3911 980 62.5724 1105.48 514.105
684 0 80.187 12.8325 1029 62.1944 1105.53 514.514
685 0 83.0648 13.1223 1090 62.0835 1105.27 514.403
686 0 82.0801 10.9771 901 65.3596 1105.24 513.314
687 0 88.1232 13.4584 1186 62.3634 1104.99 511.368
688 0 90.085 13.1875 1188 63.2256 1105.07 510.158
689 0 92.1109 13.0929 1206 63.4096 1104.63 507.551
690 0 93.0577 13.0349 1213 64.2432 1105.3 508.148
691 0 95.1652 11.7165 1115 65.878 1105.52 507.397
692 0 98.0598 13.5529 1329 64.1761 1105.14 506.4
693 0 101.113 12.214 1235 66.3328 1104.84 501.915
694 0 104.209 12.1678 1268 66.6364 1105.14 500.148
695 0 108.092 12.2951 1329 66.2965 1105.36 504.326
696 0 109.148 11.8188 1290 67.4961 1105.01 501.331
697 1 54.0325 11.6782 631 68.2948 1104.86 525.718
698 0 58.1293 11.0271 641 69.2168 1104.98 524.997
699 0 62.0553 13.8103 857 65.2672 1104.24 523.637
700 0 59.0538 11.9721 707 69.1938 1105.35 522.614
701 0 62.1646 12.5473 780 68.3795 1104.93 523.785
702 0 65.1922 12.3021 802 68.4638 1104.55 521.006
703 0 67.1048 13.7397 922 66.5716 1105.13 521.486
704 0 69.0936 14.2705 986 66.1471 1105.05 519.297
705 0 69.0882 11.8978 822 69.9781 1105.26 519.792
706 0 70.0846 12.3137 863 69.6756 1105.4 518.461
707 0 74.0669 13.4068 993 67.8922 1105.21 518.518
708 0 75.0986 13.2892 998 68.498 1104.42 517.787
709 0 79.0799 13.9985 1107 67.6305 1104.66 513.667
710 0 81.1404 12.4106 1007 69.8937 1104.61 518.764
711 0 85.1369 15.3752 1309 66.7143 1104.71 514.882
712 0 85.1248 14.4494 1230 68.3569 1105.07 513.643
713 0 87.1242 14.8064 1290 68.2922 1105.26 512.057
714 0 91.0677 13.21 1203 70.6833 1105.49 512.432
715 0 94.0995 13.1882 1241 71.44 1105.09 511.324
716 1 45.0189 11.8617 534 73.5337 1104.97 532.734
717 0 48.0686 12.3573 594 72.6044 1105.37 533.37
718 0 49.0334 13.5622 665 71.1774 1105.1 532.248
719 0 52.0967 12.2273 637 73.4757 1105.3 530.749
720 0 53.0739 13.5471 719 72.1836 1104.21 528.583
721 0 54.0731 13.7037 741 72.3131 1105.57 529.533
722 0 55.0455 12.7349 701 73.5164 1103.98 528.331
723 0 56.0671 13.0558 732 73.6844 1104.28 526.001
724 0 60.0515 13.0388 783 71.963 1104.89 528.688
725 0 61.1184 11.6332 711 74.5527 1104.46 527.016
726 0 63.136 13.0195 822 73.0742 1105 524.465
727 0 62.0699 12.4376 772 74.5039 1104.41 524.111
728 0 67.1089 13.5898 912 72.0735 1104.56 523.893
729 0 69.0557 12.4537 860 73.643 1104.39 522.64
730 0 68.1446 14.0583 958 71.8079 1103.96 523.394
731 0 72.1748 15.6426 1129 69.8733 1103.66 519.536
732 0 73.138 13.0575 955 73.91 1104.2 520.776
733 0 76.0329 13.8361 1052 72.4097 1104.05 518.644
734 0 78.1911 13.0705 1022 73.4961 1103.77 517.002
735 0 80.0758 14.0867 1128 72.1126 1105.09 516.934
736 0 85.1168 14.2393 1212 70.684 1105.51 516.927
737 0 86.1163 14.6314 1260 71.1198 1104.12 514.156
738 0 89.0419 12.9377 1152 73.3464 1104.03 513.602
739 0 92.12 12.538 1155 74.8407 1103.56 511.119
740 0 94.0856 13.1051 1233 73.9659 1103.88 510.807
741 0 95.1778 13.5536 1290 74.7287 1104.2 506.257
742 1 50.0157 12.3961 620 74.6645 1104.88 532.108
743 0 52.0188 13.3029 692 73.0477 1103.8 532.857
744 0 52.1186 13.3158 694 73.9856 1103.88 529.999
745 0 54.2112 12.728 690 74.6203 1103.94 529.38
746 0 55.1986 11.5583 638 76.0298 1103.99 529.84
747 0 58.1399 13.2611 771 74.594 1103.59 525.984
748 0 58.0683 13.9146 808 74.2092 1104.93 526.264
749 0 62.1337 13.4709 837 73.8734 1104.52 527.031
750 0 62.2362 12.5811 783 75.7395 1104.4 524.115
751 0 64.1045 13.6184 873 74.11 1104.86 523.606
752 0 66.0621 12.7456 842 75.6283 1105.27 522.362
753 0 67.0658 12.2119 819 76.8278 1105.19 520.841
754 0 74.0721 13.0009 963 73.7612 1104.93 522.124
755 0 74.2455 13.4284 997 74.6229 1104.56 517.391
756 0 75.1018 12.3299 926 76.0356 1104.45 519.369
757 0 79.1178 13.8907 1099 73.7689 1104.64 516.889
758 0 83.1254 14.2315 1183 72.0423 1105.33 517.68
759 0 84.1784 14.493 1220 72.1279 1104.97 515.648
760 0 87.0817 12.5399 1092 75.6969 1105.27 511.754
761 0 90.1625 14.1855 1279 73.6661 1104.77 509.199
762 0 95.219 14.0938 1342 73.1855 1104.83 511.002
763 0 96.2683 12.2159 1176 76.4311 1104.71 509.221
764 0 100.245 13.4571 1349 74.6264 1104.58 507.325
765 0 102.054 11.7389 1198 77.773 1104.97 506.669
766 0 104.075 13.1251 1366 76.5922 1105.99 502.694
767 0 109.175 13.8951 1517 74.0725 1104.78 503.946
768 0 112.167 13.7741 1545 74.1404 1104.49 503.827
769 1 57.2266 12.6689 725 74.8014 1104.33 527.137
770 0 55.0896 12.3617 681 76.7548 1103.95 527.855
771 0 59.1209 12.1277 717 76.643 1104.44 527.501
772 0 60.2085 12.9051 777 75.8636 1105.04 526.071
773 0 61.0586 11.6282 710 78.0338 1104.31 524.168
774 0 64.0571 12.7074 814 76.1204 1104.62 524.213
775 0 66.1259 11.7806 779 76.9692 1104.73 523.458
776 0 67.0844 13.2818 891 74.6914 1105.01 521.811
777 0 73.1357 13.9877 1023 72.0762 1104.57 521.941
778 0 72.2495 12.8582 929 74.2648 1104.57 520.118
779 0 74.1265 12.6945 941 75.5409 1104.92 516.925
780 0 78.112 14.1592 1106 72.3879 1104.83 517.561
781 0 79.0829 12.5944 996 74.8384 1104.92 517.417
782 0 82.244 12.8155 1054 74.4194 1104.96 514.374
783 0 84.1209 13.3379 1122 73.1346 1105.26 513.76
784 0 87.0699 13.782 1200 72.6383 1104.95 510.302
785 0 88.1727 12.4642 1099 74.2384 1104.71 511.533
786 0 91.2046 13.2998 1213 73.3916 1104.53 506.793
787 0 96.1845 13.4325 1292 72.5263 1104.37 508.264
788 0 101.247 12.5633 1272 73.8585 1104.1 506.55
789 0 101.133 13.7641 1392 73.6214 1104.44 500.65
790 0 106.08 14.4985 1538 72.3355 1104.68 501.032
791 0 107.115 13.8823 1487 73.7929 1103.72 497.465
792 0 114.184 13.6797 1562 72.8803 1104.45 500.334
793 0 116.204 12.7965 1487 75.3463 1104.93 496.854
794 0 120.078 13.0499 1567 74.5386 1104.68 494.093
795 0 124.196 13.6075 1690 73.9686 1104.47 491.467
796 0 130.201 14.4316 1879 72.2374 1104.23 490.954
797 0 131.212 12.3235 1617 75.8738 1104.38 488.713
798 0 132.066 12.5922 1663 75.9074 1104.18 483.314
799 0 139.155 13.5317 1883 73.6819 1104.43 488.681
800 1 74.1385 11.519 854 73.993 1103.89 518.557
801 0 74.1001 10.6613 790 76.4063 1104.2 516.299
802 0 79.1385 12.3834 980 73.3816 1103.71 515.942
803 0 80.2374 13.2357 1062 72.6836 1104.03 513.233
804 0 82.2538 11.5131 947 74.7666 1104.16 514.034
805 0 88.1373 13.0024 1146 71.856 1104.16 513.288
806 0 88.1372 14.954 1318 68.7079 1103.58 513.058
807 0 91.0891 12.9763 1182 72.6252 1104.52 509.365
808 0 95.3085 12.811 1221 72.3137 1104.58 509.268
809 0 95.2751 12.8995 1229 73.2978 1104.65 506.107
810 0 100.149 12.8608 1288 72.4488 1104.62 506.302
811 0 105.355 13.6016 1433 70.5143 1104.93 506.309
812 0 107.232 11.9368 1280 73.2672 1104.48 503.637
813 0 109.112 11.6485 1271 73.4611 1103.89 503.342
814 0 114.213 13.8688 1584 70.3422 1104.47 499.856
815 0 119.287 13.6394 1627 70.7376 1103.91 498.525
816 0 122.243 11.9598 1462 73.3803 1103.97 498.943
817 0 124.516 13.2111 1645 71.4857 1104.14 497.143
818 0 130.383 13.9895 1824 70.2434 1104.06 494.54
819 0 132.242 12.4166 1642 73.4458 1103.46 488.759
820 0 137.367 13.1545 1807 71.7261 1103.56 489.542
821 0 144.302 12.1482 1753 72.583 1103.76 487.191
822 0 144.292 12.551 1811 72.979 1103.49 481.639
823 0 149.491 12.6429 1890 72.864 1103.99 480.558
824 0 154.3 12.4239 1917 72.7872 1103.68 481.811
825 0 159.292 12.0659 1922 73.3574 1103.95 477.22
826 0 161.294 11.5503 1863 74.059 1103.34 476.152
827 0 168.295 11.5809 1949 73.6619 1103.61 474.727
828 0 172.345 11.7265 2021 73.1578 1102.99 474.512
829 0 181.394 13.0765 2372 70.8659 1102.75 470.685
830 0 185.399 12.136 2250 72.22 1103.41 466.719
831 0 191.481 13.0091 2491 70.8828 1103.82 465.869
832 0 197.443 12.4441 2457 71.9951 1103.26 460.494
833 0 201.394 11.8027 2377 73.2154 1104.02 455.08
834 0 208.216 12.2229 2545 72.5686 1103.76 454.351
835 0 214.359 12.759 2735 72.3265 1102.92 450.079
836 0 224.548 12.18 2735 72.958 1102.55 446.629
837 0 227.356 11.581 2633 74.1462 1102.92 444.478
838 0 234.62 13.0893 3071 72.1827 1103.08 433.445
839 1 181.215 12.2838 2226 72.0135 1103.37 468.253
840 0 186.493 12.0112 2240 72.6799 1104.13 467.827
841 0 192.171 12.6814 2437 71.9988 1104.06 464.625
842 0 198.428 11.5508 2292 73.8477 1103.98 456.229
843 0 204.474 10.95 2239 74.6271 1103.52 454.578
844 0 211.454 11.6668 2467 73.2829 1103.5 453.036
845 0 216.35 12.8773 2786 71.5754 1104.26 448.453
846 0 224.387 12.5409 2814 71.9662 1104.05 447.601
847 0 231.461 11.9675 2770 73.017 1103.65 442.439
848 0 238.444 11.6505 2778 73.6652 1104.18 439.224
849 0 244.317 11.0676 2704 73.4135 1103.87 442.063
850 0 253.46 11.6784 2960 72.9686 1103.84 438.061
851 0 261.395 12.877 3366 71.6988 1104.28 431.553
852 0 271.447 13.708 3721 70.8965 1104.38 421.544
853 0 279.449 13.1867 3685 71.3867 1104.28 424.38
854 0 287.694 11.8251 3402 73.8351 1104.13 421.346
855 0 296.37 12.4574 3692 73.1048 1104.18 413.544
856 1 336.435 4.15237 1397 76.723 1103.81 464.686
857 0 339.363 6.5505 2223 75.7715 1104.34 443.126
858 0 337.55 7.18412 2425 77.5472 1104.03 424.824
859 0 335.5 10.5037 3524 76.9696 1104.03 391.446
860 1 59.3165 8.26078 490 74.8184 1104.67 527.139
861 0 63.2141 10.7729 681 70.5639 1104.45 526.401
862 0 65.1934 10.86 708 71.8178 1103.8 521.968
863 0 67.1828 10.211 686 72.2886 1104.19 523.828
864 0 70.1663 12.2423 859 68.7311 1104.74 524.914
865 0 73.2371 12.084 885 68.9593 1104.6 522.806
866 0 72.326 11.8215 855 69.862 1104.52 520.818
867 0 74.1665 11.4877 852 69.9554 1104.21 520.554
868 0 76.3499 10.4257 796 71.7085 1104.26 514.961
869 0 79.2891 13.6463 1082 66.4584 1104.86 517.872
870 0 82.2467 12.1707 1001 67.3776 1104.26 517.966
871 0 84.3903 11.7431 991 68.4228 1104.24 514.976
872 0 87.261 12.2621 1070 67.4047 1104.08 515.193
873 0 89.3968 11.2532 1006 68.7177 1104.13 511.678
874 0 91.3796 11.6218 1062 67.9444 1104.22 509.135
875 0 93.5845 10.7603 1007 68.9076 1104 511.557
876 0 99.3613 11.2921 1122 67.8066 1103.84 508.183
877 0 104.393 12.769 1333 64.4231 1103.82 506.5
878 0 106.429 11.651 1240 65.525 1103.93 507.393
879 0 110.316 11.6483 1285 65.7611 1103.46 502.626
880 0 112.323 11.1909 1257 66.1321 1103.63 505.126
881 0 117.409 11.3961 1338 65.5725 1103.8 501.455
882 0 121.149 13.083 1585 63.8953 1103.69 497.182
883 0 123.258 10.8472 1337 66.9671 1103.52 495.746
884 1 67.0904 10.7467 721 63.6477 1102.93 526.609
885 0 68.2151 10.8187 738 63.8008 1104.04 525.332
886 0 69.1257 10.7485 743 65.463 1104.74 520.962
887 0 70.192 9.92991 697 66.0316 1104.64 521.512
888 0 75.1508 13.3731 1005 61.1831 1104.6 520.779
889 0 76.1847 11.984 913 63.0876 1104.16 518.3
890 0 79.2826 16.0691 1274 49.5235 1103.3 518.869
891 0 77.2264 11.149 861 64.7259 1104.65 514.084
892 0 84.183 12.1046 1019 63.0265 1104.96 514.735
893 0 83.3707 12.0786 1007 63.6048 1104.46 512.985
894 0 87.1608 11.8402 1032 63.7064 1104.56 513.038
895 0 92.2542 14.1457 1305 60.9648 1104.93 511.834
896 0 92.4482 12.4286 1149 63.2315 1104.73 511.768
897 0 94.1468 13.2984 1252 62.2756 1104.49 511.529
898 0 95.2966 11.8157 1126 64.976 1104.82 508.756
899 0 99.4179 11.2455 1118 65.195 1104.28 505.007
900 0 102.261 12.1258 1240 63.954 1104.87 506.965
901 0 107.202 12.4345 1333 63.1133 1104.76 508.036
902 0 109.144 12.2224 1334 63.9625 1104.98 504.578
903 0 113.154 12.9204 1462 63.277 1104.76 501.869
904 0 116.307 13.5934 1581 62.8596 1104.35 500.809
905 0 119.201 13.515 1611 62.9559 1104.03 499.236
906 0 121.401 11.8368 1437 64.8803 1104.59 499.243
907 0 127.193 14.8122 1884 61.3726 1103.82 493.813
908 0 130.181 13.6963 1783 63.129 1104.38 493.054
909 1 67.1057 10.5356 707 64.4272 1104.97 523.334
910 0 72.0734 10.6697 769 63.2029 1105.21 523.454
911 0 73.1782 10.6452 779 63.9153 1105.59 523.036
912 0 74.1083 11.7666 872 64.0333 1106.26 520.651
913 0 76.2197 11.5849 883 63.521 1105.61 520.508
914 0 78.2496 11.8467 927 62.9493 1105.55 519.624
915 0 81.0649 12.0274 975 63.0103 1104.89 519.202
916 0 81.1458 11.8429 961 63.1415 1105.3 519.285
917 0 85.2712 12.4896 1065 62.0075 1105.45 518.439
918 0 86.2321 12.7447 1099 62.7307 1104.98 516.616
919 0 90.1789 13.4399 1212 61.5429 1104.7 516.045
920 0 91.1795 11.5158 1050 64.4095 1104.86 515.302
921 0 92.1814 10.9675 1011 65.1108 1104.93 516.066
922 0 95.1245 12.3417 1174 63.948 1104.85 512.258
923 0 98.1507 13.4487 1320 62.8538 1104.24 509.114
924 0 102.139 13.1488 1343 62.7811 1104.32 510.276
925 0 105.214 13.4298 1413 62.6468 1104.1 511.582
926 0 108.22 12.8997 1396 63.8281 1104.05 510.279
927 0 109.192 12.3727 1351 64.4878 1104.31 510.4
928 0 112.363 13.4475 1511 64.5473 1104.27 506.117
929 0 115.237 12.6869 1462 65.4275 1104.04 507.215
930 0 118.316 13.633 1613 65.1525 1104.49 502.944
931 1 62.195 11.0941 690 67.6884 1104.23 530.093
932 0 64.0822 11.7193 751 67.988 1104.43 529.702
933 0 67.1796 13.2481 890 66.5067 1103.63 527.773
934 0 65.2658 13.6519 891 67.3794 1103.78 525.899
935 0 69.2845 13.1342 910 67.8275 1104.03 524.126
936 0 69.1026 11.4902 794 70.3123 1104.5 523.19
937 0 70.1345 13.7735 966 68.2557 1103.97 521.855
938 0 73.1097 12.9121 944 68.6621 1104.16 523.11
939 0 74.1623 12.594 934 69.5482 1104.4 525.016
940 0 77.3087 11.771 910 70.8615 1104.08 524.318
941 0 78.28 12.4808 977 70.7083 1104.05 523.053
942 0 81.367 13.4821 1097 69.5023 1104.07 521.528
943 0 83.0914 12.5163 1040 71.1067 1104.38 519.357
944 0 85.1941 13.0408 1111 70.5437 1103.48 518.233
945 0 88.1414 15.2823 1347 67.8048 1104.37 517.045
946 0 90.1731 13.2967 1199 70.4162 1105.13 517.155
947 0 92.2925 12.0595 1113 71.3845 1104.77 517.147
948 0 94.1767 12.9968 1224 71.3399 1104.41 512.928
949 0 97.1174 13.5918 1320 70.622 1104.3 510.925
950 0 100.103 14.2454 1426 69.5365 1104.56 509.244
951 0 102.255 12.4101 1269 72.5256 1104.93 506.617
952 0 106.232 11.8326 1257 72.4415 1104.35 508.85
953 0 109.219 13.1204 1433 71.2247 1103.74 506.434
954 0 113.291 13.3902 1517 70.2933 1104.81 507.188
955 0 117.274 14.5898 1711 68.9603 1104.53 505.376
956 0 119.129 13.8925 1655 70.6242 1103.85 501.311
957 0 119.292 12.834 1531 71.9837 1104.71 501.726
958 1 64.0731 14.265 914 70.5438 1104.06 525.775
959 0 65.1144 12.1171 789 73.8492 1104.8 525.663
960 0 67.2292 13.2829 893 72.009 1105.03 524.994
961 0 69.1616 13.0708 904 72.4779 1105.34 524.441
962 0 71.2097 12.6668 902 73.2461 1104.69 522.914
963 0 73.17 12.9425 947 73.2798 1104.57 521.022
964 0 75.2013 13.6567 1027 72.3924 1104.76 520.133
965 0 74.1182 13.0063 964 74.0944 1105.05 518.739
966 0 77.1538 13.2851 1025 73.4644 1104.97 519.474
967 0 81.0791 14.529 1178 71.6452 1105.26 519.597
968 0 84.1124 15.3128 1288 70.7826 1105.09 515.884
969 0 87.1154 14.2225 1239 71.9217 1104.68 517.476
970 0 88.1648 14.4956 1278 71.2966 1104.89 517.099
971 0 92.2337 13.1622 1214 73.3427 1104.59 513.676
972 0 94.1372 14.9463 1407 70.9012 1105.01 512.122
973 0 96.2754 15.1648 1460 71.2904 1104.77 510.258
974 0 96.1903 13.151 1265 74.77 1105.34 508.471
975 0 102.235 14.4276 1475 72.6976 1105.35 507.992
976 0 104.153 14.6227 1523 72.5102 1104.8 504.5
977 0 107.213 15.25 1635 71.644 1104.29 504.649
978 0 111.274 14.0105 1559 73.0058 1104.69 503.937
979 0 114.249 14.1007 1611 73.3749 1105.39 501.472
980 0 117.15 13.8625 1624 72.8953 1105.09 503.092
981 0 121.289 15.6156 1894 71.0744 1104.97 499.42
982 0 123.25 14.0689 1734 72.5738 1104.91 499.423
983 0 126.137 12.6529 1596 74.9023 1104.8 497.15
984 1 66.0975 14.5845 964 72.0218 1105 524.285
985 0 66.1434 12.8509 850 74.3871 1105.2 523.661
986 0 67.0878 12.7445 855 75.0784 1105 522.401
987 0 72.1895 14.4758 1045 71.8287 1104.56 523.287
988 0 72.2242 15.355 1109 71.0415 1105.22 523.569
989 0 74.1757 13.8455 1027 73.001 1105.23 522.769
990 0 75.3739 12.962 977 74.0307 1105.18 523.272
991 0 77.1129 15.1077 1165 71.7476 1104.68 518.724
992 0 79.1841 12.9445 1025 74.6946 1105.45 521.1
993 0 81.1802 14.6834 1192 72.4815 1105.18 518.45
994 0 84.162 14.8285 1248 71.9111 1104.92 515.482
995 0 86.2108 14.4529 1246 72.9181 1105.08 513.686
996 0 87.1404 13.4151 1169 74.3473 1105.21 514.099
997 0 93.0982 13.7811 1283 73.0039 1104.54 513.108
998 0 95.1926 14.0662 1339 73.3069 1105.12 510.84
999 0 97.1745 13.6456 1326 73.4781 1105.18 511.709
1000 0 100.158 14.0478 1407 72.3433 1104.88 509.315
1001 0 105.216 14.8742 1565 71.1438 1104.52 507.38
1002 0 107.206 13.7306 1472 72.142 1104.67 506.177
1003 0 111.38 12.381 1379 73.6483 1103.96 505.123
1004 0 115.424 14.4684 1670 70.7736 1104.57 503.61
1005 0 118.226 14.1762 1676 70.6235 1104.77 505.384
1006 0 122.456 13.6865 1676 71.9666 1104.93 499.561
1007 0 125.371 14.4691 1814 70.2238 1104.9 501.334
1008 1 61.0723 12.2314 747 71.5234 1104.29 527.333
1009 0 63.1833 11.9652 756 72.3201 1105.06 527.36
1010 0 65.2023 12.791 834 72.1727 1104.29 525.607
1011 0 65.1857 13.8374 902 71.6364 1104.13 525.799
1012 0 67.1236 12.6632 850 72.8788 1104.21 525.208
1013 0 70.1972 13.2626 931 71.9474 1104.02 524.974
1014 0 68.4097 12.7613 873 73.6403 1104.12 524.77
1015 0 72.2064 13.8907 1003 71.9541 1104.51 523.924
1016 0 73.1586 13.4229 982 72.7953 1103.93 525.484
1017 0 77.1753 14.318 1105 71.3819 1103.73 522.991
1018 0 76.0947 13.4701 1025 74.0927 1103.95 520.956
1019 0 79.2465 13.9438 1105 72.8063 1104.1 518.977
1020 0 81.2632 14.3115 1163 72.4454 1103.96 520.348
1021 0 83.2424 15.0164 1250 72.5736 1103.4 516.897
1022 0 85.2655 14.9533 1275 72.6839 1103.91 516.575
1023 0 89.2329 13.0445 1164 75.2826 1104.16 516.73
1024 0 91.3176 13.5133 1234 74.4692 1103.75 515.57
1025 0 94.3308 14.7248 1389 72.5803 1103.01 513.94
1026 0 95.1799 14.4673 1377 74.1147 1103.53 513.223
1027 0 99.3495 15.2089 1511 72.4765 1103 512.713
1028 0 100.242 13.198 1323 75.7422 1103.44 512.772
1029 0 101.392 13.936 1413 75.2838 1103.76 509.212
1030 0 106.116 12.6748 1345 76.5948 1103.82 509.375
1031 0 110.418 14.8799 1643 73.605 1104.02 508.523
1032 0 112.16 13.0439 1463 75.7471 1103.02 507.819
1033 0 116.215 14.8174 1722 73.939 1103.12 502.513
1034 0 119.352 14.009 1672 74.7943 1103.64 504.621
1035 0 120.268 13.8191 1662 75.858 1102.95 501.86
1036 0 126.44 14.1332 1787 75.0839 1103.26 499.428
1037 0 128.106 13.7152 1757 76.0717 1103.47 496.928
1038 0 134.22 14.8711 1996 74.739 1103.53 493.79
1039 0 136.321 13.8717 1891 76.6192 1103.2 495.428
1040 0 140.198 14.4581 2027 76.4702 1102.99 489.329
1041 0 145.339 14.8068 2152 75.8415 1103.06 489.331
1042 0 147.267 15.1629 2233 75.7152 1102.69 489.565
1043 0 153.425 15.2648 2342 75.7566 1103.23 489.438
1044 0 158.279 14.3734 2275 76.8782 1103.5 489.541
1045 0 165.366 13.5216 2236 78.3716 1103.16 486.411
1046 0 165.541 14.6912 2432 77.5485 1102.8 482.66
1047 0 170.551 16.5581 2824 74.7794 1103.35 481.153
1048 0 174.44 14.9966 2616 77.1334 1103.17 480.922
1049 0 178.394 14.9781 2672 77.5996 1102.57 481.915
1050 0 184.518 14.2317 2626 79.5606 1102.93 476.017
1051 0 189.441 15.1023 2861 78.3859 1103.02 472.218
1052 0 195.247 14.5662 2844 79.4156 1102.91 472.248
1053 0 201.499 16.6204 3349 76.5778 1102.37 469.425
1054 0 206.362 15.1433 3125 78.4682 1102.73 471.074
1055 1 104.22 15.1506 1579 80.3806 1102.85 514.92
1056 0 105.189 12.8626 1353 85.221 1102.17 511.773
1057 1 119.201 11.921 1421 84.4546 1102.74 512.887
1058 0 120.708 12.7498 1539 83.4509 1102.14 511.714
1059 0 119.378 13.1264 1567 84.037 1102.52 509.913
1060 0 119.435 14.1583 1691 84.0893 1102.28 506.696
1061 0 120.379 14.2965 1721 83.4643 1103.23 507.718
1062 0 124.422 14.9652 1862 83.0038 1103.55 503.858
1063 0 127.395 13.1481 1675 85.4752 1103.86 504.632
1064 0 132.382 15.1908 2011 82.8359 1102.95 499.103
1065 0 137.574 15.3663 2114 82.1831 1103.56 498.956
1066 0 140.309 14.0832 1976 84.3077 1103.36 498.971
1067 0 144.478 14.3067 2067 83.9028 1103.22 494.225
1068 0 147.324 14.0846 2075 84.8068 1103.12 493.341
1069 0 152.447 13.3883 2041 85.8192 1103.08 491.358
1070 0 157.428 12.9964 2046 86.7551 1103.33 490.82
1071 0 162.503 13.9075 2260 86.3535 1104.12 486.39
1072 1 80.4338 13.2407 1065 84.5878 1103.71 524.96
1073 0 81.3624 13.7656 1120 84.7357 1103.88 519.584
1074 0 86.4168 13.4233 1160 83.7931 1103.42 522.503
1075 0 86.3443 13.3072 1149 84.1462 1103.57 523.17
1076 0 89.5227 12.6002 1128 85.977 1103.26 520.288
1077 0 93.605 14.1445 1324 83.2961 1103.64 517.94
1078 0 95.353 14.0216 1337 84.0389 1103.57 517.502
1079 0 97.2636 13.047 1269 86.2151 1104.34 515.409
1080 0 100.399 12.6994 1275 86.2204 1104.55 517.227
1081 0 102.259 13.6418 1395 86.228 1104.51 512.221
1082 0 103.487 14.4559 1496 85.5956 1104.48 511.875
1083 0 100.312 13.9963 1404 91.3155 1103.8 511.335
