time division length width area intensity CMx CMy
0 0 50.0514 11.2884 565 61.8 808.639 329.54
1 0 52.0144 11.7083 609 60.4663 808.22 333.847
2 0 52.0522 12.7756 665 59.6346 809.367 339.665
3 0 51.0885 10.5699 540 61.8204 808.417 341.7
4 0 51.0521 11.028 563 61.7158 808.591 343.528
5 0 53.0517 10.8008 573 61.5742 807.625 346.161
6 0 57.0679 13.0371 744 58.6586 808.005 349.56
7 0 57.0494 13.3393 761 57.9895 808.359 353.653
8 0 62.0564 13.8261 858 55.7949 808.064 367.253
9 0 64.0749 14.5923 935 54.2695 807.82 367.447
10 0 63.0612 12.7654 805 57.1689 808.578 371.825
11 0 63.1007 12.4563 786 58.2214 807.985 373.454
12 0 65.0682 13.0786 851 57.9107 808.226 373.544
13 0 66.0688 11.488 759 59.4387 808.298 378.669
14 0 69.0392 11.182 772 58.6839 808.74 385.075
15 0 68.0342 12.2144 831 58.4585 808.55 390.028
16 0 72.122 13.3108 960 56.9062 808.749 392.593
17 0 76.0613 13.568 1032 56.7859 808.405 394.759
18 0 76.0315 12.1792 926 58.4633 808.416 400.6
19 1 41.05 12.0828 496 56.8427 808.044 423.349
20 0 42.0565 11.5321 485 58.0206 808.72 429.214
21 0 44.104 10.8154 477 58.0881 808.331 435.742
22 0 45.0331 11.858 534 57.5243 808.365 441.296
23 0 46.0374 10.9476 504 58.006 807.599 448.014
24 0 47.0716 10.1335 477 59.0168 807.767 456.996
25 0 48.0502 10.9261 525 58.9752 807.221 460.867
26 0 52.1027 13.4926 703 55.5832 808.034 468.866
27 0 52.1099 12.3585 644 57.5233 807.671 476.421
28 0 55.1378 11.9519 659 58.0212 807.687 483.628
29 0 56.0454 11.9546 670 57.4433 807.473 492.325
30 0 56.1171 11.1018 623 58.7335 807.811 500.035
31 0 59.0571 10.2443 605 58.9719 807.66 506.714
32 0 59.1262 12.2619 725 56.9241 806.988 515.054
33 0 62.1275 12.1202 753 56.7729 808.104 519.215
34 0 64.0753 12.8755 825 56.0121 808.178 521.382
35 0 63.1178 9.88628 624 59.7981 808.184 519.083
36 0 66.0275 10.9045 720 58.4417 809.357 515.389
37 0 68.0615 11.5484 786 57.7901 808.566 517.14
38 0 70.1355 11.2069 786 58.6145 808.983 514.916
39 0 72.1009 11.0123 794 58.6637 809.233 515.385
40 0 75.037 10.155 762 60.0289 808.959 511.383
41 0 79.0347 10.5776 836 59.9282 808.657 509.152
42 0 81.0592 12.2997 997 58.5246 809.396 508.778
43 0 83.0338 12.0794 1003 58.8913 809.674 510.527
44 0 85.1615 11.7541 1001 59.7542 809.278 508.174
45 0 90.0935 11.9431 1076 58.5864 808.982 510.619
46 1 43.0764 9.58762 413 60.6416 809.494 528.591
47 0 46.0715 12.0682 556 57.8939 809.48 527.484
48 0 46.0701 12.5678 579 57.4611 809.389 529.328
49 0 47.0129 11.6776 549 59.5738 809.157 525.854
50 0 49.0531 11.6201 570 59.0018 809.542 525.946
51 0 51.0468 9.95165 508 59.9016 809.423 528.61
52 0 51.0472 12.0281 614 59.3827 809.427 524.533
53 0 52.0533 10.8158 563 60.0426 809.126 525.607
54 0 54.0254 10.6802 577 60.5026 808.894 523.473
55 0 53.2269 10.5022 559 61.9445 808.141 523.599
56 0 57.0859 11.4389 653 60.6187 809.132 523.015
57 0 56.0655 11.5222 646 60.8437 809.025 523.933
58 0 61.0577 12.1033 739 60.521 809.276 520.283
59 0 63.0729 13.4131 846 59.5272 809.233 517.278
60 0 64.0613 12.691 813 60.4502 808.679 519.135
61 0 66.0392 12.4169 820 61.2646 808.913 517.668
62 0 66.0696 11.7452 776 62.799 808.695 515.14
63 0 70.1109 12.3946 869 62 809.497 515.033
64 0 73.0707 11.6052 848 63.0401 808.912 516.4
65 0 74.09 12.6063 934 62.4154 809.188 514.254
66 0 76.0659 10.8196 823 64.9903 809.199 512.776
67 1 39.0496 9.55195 373 64.7078 809.097 531.845
68 0 41.0464 12.0595 495 62 808.566 531.002
69 0 42.0434 10.3464 435 64.1609 808.807 531.623
70 0 41.0638 10.0575 413 65.3002 808.932 530.448
71 0 43.0265 11.2721 485 64.2103 808.703 529.973
72 0 45.1024 11.3519 512 63.5273 808.66 529.629
73 0 47.0145 11.5071 541 62.854 809.144 529.14
74 0 49.0531 12.354 606 62.9472 809.261 526.835
75 0 46.059 8.77137 404 67.1089 810.436 528.428
76 0 50.0501 12.0679 604 64.2434 809.836 523.541
77 0 52.0671 11.4852 598 64.0569 809.018 526.671
78 0 53.0474 11.895 631 64.5151 809.12 522.387
79 0 54.0682 10.6532 576 66.3212 809.806 522.632
80 0 57.0399 11.3079 645 65.5473 809.847 522.591
81 0 58.0618 11.815 686 65.0831 809.999 523.003
82 0 60.0278 11.8612 712 65.2669 809.459 522.287
83 0 63.1162 12.073 762 65.1089 809.609 521.894
84 0 62.0298 11.6234 721 66.6949 809.999 521.107
85 0 63.0588 12.8927 813 65 809.648 521.121
86 0 65.0895 9.44853 615 69.0293 810.389 521.047
87 0 69.0489 12.1943 842 65.8789 810.336 519.438
88 0 71.0794 12.4931 888 66.6836 810.741 517.143
89 0 70.0736 9.83252 689 69.6444 809.409 519.075
90 0 73.0432 13.4578 983 66.5819 810.253 515.705
91 0 76.0663 11.6477 886 69.2257 810.384 515.3
92 0 73.1193 9.91531 725 72.3517 809.883 513.497
93 0 77.1204 11.3718 877 70.3831 809.597 513.739
94 1 122.234 12.8606 1572 70.7087 809.801 493.184
95 0 124.213 12.6799 1575 71.1181 809.415 493.525
96 0 126.165 12.5471 1583 72.2735 809.246 489.507
97 0 132.347 13.2757 1757 71.2499 809.616 488.212
98 0 134.15 12.8662 1726 72.1721 809.546 485.304
99 0 140.197 13.7021 1921 70.8131 808.992 483.692
100 0 143.089 11.9087 1704 73.0933 809.948 481.921
101 0 148.178 13.0789 1938 72.3669 808.812 478.708
102 0 152.238 13.584 2068 71.6383 809.335 474.909
103 0 158.175 13.2196 2091 72.1688 809.264 475.363
104 1 57.0564 13.1975 753 68.3054 809.502 522.77
105 0 58.0574 12.5738 730 69.5452 809.63 521.378
106 0 59.0838 12.6092 745 70.004 808.954 519.903
107 0 60.0764 11.6518 700 72.1729 809.747 520.324
108 0 60.0764 11.6851 702 141.902 810.756 520.131
109 0 69.1035 10.0718 696 72.6394 810.102 522.224
110 0 69.0657 11.2791 779 72.4583 809.476 520.033
111 0 69.0604 12.9018 891 72.1964 809.176 516.221
112 0 70.0692 11.7741 825 73.977 810.171 516.522
113 0 78.0883 10.1424 792 75.8497 810.274 517.378
114 0 79.113 11.1107 879 74.6064 809.772 515.757
115 0 77.0801 10.1193 780 77.8308 809.995 513.713
116 0 76.1126 11.8509 902 76.2794 810.245 512.622
117 0 81.0842 11.8395 960 76.2104 810.403 510.562
118 0 82.0475 12.054 989 76.6916 809.981 509.617
119 0 85.1454 12.4845 1063 76.4788 810.324 507.801
120 0 86.1653 12.3716 1066 76.1632 809.834 507.176
121 0 88.1088 13.2677 1169 74.7596 809.205 509.058
122 0 92.1998 13.2972 1226 74.9527 809.311 505.781
123 0 95.1894 14.1928 1351 73.3753 810.076 504.613
124 1 49.0549 12.9447 635 71.7339 809.742 528.117
125 0 49.0123 12.8335 629 73.4102 808.712 526.789
126 0 50.0538 14.904 746 71.4477 808.521 524.635
127 0 52.078 12.0588 628 74.5717 809.339 523.979
128 0 50.1033 12.7736 640 74.9469 810.519 523.617
129 0 54.0341 12.8807 696 73.8118 810.303 523.842
130 0 56.0568 12.3625 693 74.7633 809.261 522.466
131 0 57.0456 13.0597 745 73.8953 809.584 522.14
132 0 60.1534 13.9809 841 72.8787 810.2 519.817
133 0 61.0302 12.3545 754 75.3568 810.336 521.411
134 0 63.1913 13.3088 841 73.5268 809.737 521.496
135 0 65.0952 12.3972 807 75.461 810.084 519.118
136 0 68.1044 14.1547 964 72.9886 810.308 519.044
137 0 69.1082 14.3977 995 73.1608 810.178 517.832
138 0 70.1523 13.1998 926 76.1955 810.374 514.873
139 0 72.0399 13.3537 962 76.1497 809.845 516.581
140 0 79.1003 12.9077 1021 76.3614 810.525 514.431
141 1 40.0245 12.8671 515 75.4427 809.913 531.097
142 0 40.0298 10.2174 409 77.1149 810.408 532.851
143 0 40.0577 11.3087 453 78.6115 808.821 530.274
144 0 46.0156 12.4523 573 75.3246 810.312 529.565
145 0 46.0561 13.5921 626 74.099 810.014 529.305
146 0 47.0556 13.771 648 74.4306 810.029 527.798
147 0 45.0691 12.27 553 77.4503 810.318 527.618
148 0 51.0982 13.5425 692 73.8598 810.228 526.753
149 0 51.1111 12.7565 652 75.7423 809.873 525.865
150 0 51.0249 14.0128 715 75.0993 809.95 524.435
151 0 52.0346 13.4141 698 76.1719 810.325 523.673
152 0 55.1278 14.6569 808 74.3614 810.636 522.884
153 1 109.101 13.0797 1427 79.3441 810.723 498.652
154 0 114.202 14.8509 1696 76.1669 810.43 497.983
155 1 61.0876 13.1942 806 76.8722 810.473 520.986
156 0 63.1066 13.4217 847 76.7674 810.772 520.799
157 0 67.0539 13.6756 917 76.7176 810.266 518.01
158 0 67.126 13.646 916 77.8253 810.321 516.986
159 0 70.0449 13.8054 967 76.5491 810.01 519.008
160 0 71.0647 12.6223 897 80.7436 809.36 516.331
161 0 69.0925 11.2024 774 82.7016 809.479 517.078
162 0 74.118 12.4801 925 81.4768 809.546 515.026
163 0 78.1111 13.0967 1023 80.7126 809.397 512.681
164 1 34.0426 10.5456 359 84.0195 809.212 532.245
165 0 39.0288 12.9392 505 79.899 809.77 531.651
166 0 41.0335 11.5272 473 82.3044 810.101 530.922
167 0 41.0644 12.9796 533 81.4053 809.752 530.27
168 1 88.0858 14.0658 1239 81.3866 809.788 509.007
169 0 91.0982 13.5019 1230 82.2325 810.15 508.403
170 0 93.1207 13.8208 1287 81.7296 810.124 507.312
171 0 95.1423 12.7073 1209 83.6096 809.608 506.13
172 0 99.1099 14.4688 1434 81.0523 810.059 503.704
173 0 101.085 13.4145 1356 83.0524 810.094 501.464
174 0 105.25 13.4917 1420 82.212 810.381 501.356
175 0 106.067 13.2181 1402 82.6869 809.568 502.149
176 0 109.192 12.739 1391 83.3695 809.641 500.137
177 0 113.191 13.5082 1529 82.1203 809.317 498.272
178 0 114.071 13.062 1490 82.6819 809.389 499.344
179 0 121.064 13.5962 1646 81.0067 810.597 498.002
180 0 120.205 12.8947 1550 82.3394 810.015 499.359
181 1 59.1091 13.3313 788 80.967 809.873 524.562
182 0 61.0802 12.6719 774 82.2571 808.824 522.889
183 0 62.1011 11.7228 728 83.897 808.441 522.54
184 0 66.0471 14.0506 928 80.3297 808.123 520.845
185 0 65.0582 11.6665 759 84.6495 808.373 521.112
186 0 69.0453 14.7729 1020 79.5706 808.3 519.372
187 0 69.0821 13.3175 920 83.3772 808.077 516.832
188 0 73.1813 13.3504 977 82.6479 807.718 516.876
189 0 71.0923 12.2235 869 85.5017 808.19 517.328
190 1 201.29 12.9117 2599 88.9411 808.278 457.38
191 0 204.118 11.802 2409 90.2449 807.037 459.978
192 0 211.139 11.4853 2425 90.5093 807.211 458.625
193 0 219.186 13.0529 2861 88.3296 807.518 451.163
194 0 226.206 13.2136 2989 88.1084 806.775 450.751
195 0 231.343 13.7588 3183 86.6343 806.145 451.63
196 0 238.318 14.2667 3400 86.2647 807.386 444.083
197 1 199.305 13.3715 2665 85.072 807.505 464.669
198 1 148.232 12.7975 1897 85.2873 807.262 485.785
199 0 153.19 13.3103 2039 84.5807 806.717 482.766
200 0 159.207 12.6627 2016 84.9152 806.405 481.197
201 0 163.25 12.833 2095 84.758 805.889 479.203
202 0 168.142 11.8947 2000 85.2025 805.46 480.925
203 0 173.218 12.4121 2150 85.2033 805.537 475.67
204 0 179.133 13.8779 2486 82.8214 805.424 474.923
205 1 54.0371 12.4174 671 80.8897 805.371 532.361
206 0 54.1109 11.7536 636 81.3333 805.903 533.387
207 0 56.0532 12.6665 710 81.0268 806.103 529.83
208 1 202.105 13.6662 2762 84.1369 805.633 463.127
209 0 208.221 12.213 2543 85.1781 805.123 468.734
210 0 213.182 12.9091 2752 85.1326 804.365 460.572
211 0 218.228 12.519 2732 87.0732 804.832 454.159
212 0 222.234 12.5993 2800 86.4729 804.899 460.204
213 0 230.398 13.2206 3046 86.0007 804.207 455.061
214 1 68.0748 12.736 867 83.0173 803.963 527.614
215 0 72.0972 13.1073 945 82.2667 804.457 525.041
216 0 73.0784 12.6166 922 82.6095 804.666 525.71
217 1 37.0495 12.7667 473 81.6342 803.556 540.706
218 0 38.0195 11.573 440 82.9636 804.084 540.439
219 0 41.1031 13.0647 537 79.7207 804.309 539.302
220 0 42.0308 13.3474 561 79.4831 803.677 538.053
221 0 40.0241 12.9172 517 81.3269 803.337 537.014
222 0 44.0535 13.302 586 78.7833 804.229 537.683
223 0 43.0388 12.7792 550 79.3364 804.085 537.827
224 0 47.043 13.2007 621 79.0596 803.878 534.33
225 0 47.0262 12.5887 592 80.8818 803.688 533.186
226 0 48.0361 12.6363 607 80.4185 804.071 533.132
227 0 49.0413 12.7647 626 80.1182 804.069 532.248
228 0 53.0884 12.093 642 80.0654 804.237 530.184
229 0 55.057 13.7676 758 77.8641 804.668 528.443
230 0 57.2167 13.143 752 78.1157 804.282 527.388
231 0 57.0441 12.0083 685 80.3577 804.942 527.835
232 0 57.0693 13.1594 751 79.3156 805.182 524.937
233 0 60.0382 11.7925 708 81.1229 804.77 525.469
234 0 65.0826 13.7518 895 77.6045 803.899 523.155
235 0 67.0337 12.7249 853 79.5029 804.933 520.781
236 0 68.0208 12.408 844 80.0924 805.104 520.534
237 0 71.1698 12.3086 876 80.3094 804.594 518.228
238 0 75.1008 13.5951 1021 77.8923 804.392 517.778
239 0 76.057 13.5951 1034 78.4565 805.31 516.309
240 0 79.0513 12.1061 957 78.9812 804.856 518.367
241 0 83.1927 14.2681 1187 75.7591 804.447 515.809
242 0 85.094 13.7377 1169 77.2096 805.224 511.896
243 1 40.0306 12.0658 483 78.3872 804.861 533.4
244 0 44.0184 12.722 560 77.2107 804.407 531.541
245 0 45.1477 12.3594 558 77.7491 805.572 532.355
246 0 47.0525 13.9844 658 74.4985 805.878 530.822
247 0 47.0907 12.89 607 76.084 805.7 530.618
248 0 48.0497 12.8617 618 75.8366 806.646 530.735
249 0 53.038 14.4048 764 71.9215 805.736 530.116
250 0 52.0605 14.9249 777 71.9369 805.38 529.561
251 0 54.0544 13.8749 750 73.1373 805.924 528.164
252 0 57.0994 12.6621 723 74.0373 805.53 529.071
253 0 58.0425 13.3523 775 73.0142 805.119 528.787
254 0 58.0553 13.5733 788 72.9835 805.72 528.703
255 0 62.0435 12.8619 798 74.2657 806.123 526.278
256 0 62.0532 13.9558 866 72.1189 805.331 526.726
257 0 66.0999 13.6309 901 71.7214 805.93 524.81
258 0 67.1114 13.1423 882 73.6179 805.78 522.837
259 0 70.1176 13.0923 918 73.4281 805.09 522.187
260 0 72.0911 14.3291 1033 71.1152 805.823 521.073
261 0 74.1136 13.6277 1010 72.296 805.362 519.55
262 0 75.0771 13.0133 977 73.5906 805.044 519.725
263 0 78.0458 13.2102 1031 73.322 804.942 518.762
264 0 81.0627 14.8157 1201 71.7344 805.15 514.657
265 0 86.0765 15.0564 1296 70.2199 804.306 516.71
266 0 87.0926 13.7555 1198 72.6244 803.745 514.829
267 0 90.0927 15.2843 1377 70.9513 803.943 513.317
268 0 92.1465 13.0444 1202 74.3486 804.476 512.913
269 0 96.2101 13.6784 1316 73.1998 804.168 511.292
270 1 47.0316 11.9069 560 74.6929 804.289 533.448
271 0 47.0716 12.8953 607 74.7199 804.888 531.11
272 0 49.0292 12.6047 618 74.1748 804.607 534.261
273 0 52.074 13.308 693 72.824 803.263 532.058
274 0 55.0422 11.3186 623 74.6308 802.979 532.056
275 0 57.0418 13.2534 756 70.6389 803.389 532.57
276 0 57.0584 12.0578 688 73.9811 803.567 531.283
277 0 58.0565 13.4352 780 71.9462 803.768 529.732
278 0 60.1007 13.3276 801 72.0012 804.08 529.851
279 0 62.051 13.7306 852 71.2066 803.962 529.61
280 0 66.0503 12.7933 845 72.0935 804.09 528.791
281 0 66.101 13.313 880 72.1705 803.183 528.022
282 0 68.0332 13.4199 913 72.7842 803.289 525.823
283 0 70.0687 13.1728 923 71.532 803.245 523.607
284 0 72.0315 12.2585 883 72.6116 802.835 522.81
285 0 75.0553 14.7358 1106 69.1917 803.068 522.016
286 0 79.0597 12.2439 968 72.5837 803.033 520.933
287 0 80.0862 13.5604 1086 71.9107 803.031 518.904
288 0 85.1244 13.2512 1128 71.2385 802.654 517.649
289 1 42.0203 11.7562 494 72.6255 803.002 536.905
290 0 44.0422 11.716 516 72.0116 802.849 536.516
291 0 45.0107 12.4859 562 71.4662 802.742 537.639
292 0 46.0263 12.7101 585 72.1538 803.089 535.689
293 0 49.0331 12.8281 629 71.9809 803.439 534.682
294 0 48.0212 13.0151 625 71.8592 803.405 533.744
295 0 50.0487 13.6267 682 70.3021 803.17 533.793
296 0 52.092 13.9369 726 70.1102 802.971 530.559
297 0 54.102 11.8295 640 72.4297 802.259 530.944
298 0 54.035 12.5474 678 72.2655 802.009 529.187
299 0 56.0544 14.0934 790 69.9684 802.981 526.82
300 0 58.138 12.6251 734 71.1757 802.42 528.356
301 0 62.0659 13.1151 814 69.6622 801.676 528.64
302 0 61.1219 12.7123 777 71.3076 802.275 526.463
303 0 65.1067 12.8405 836 70.5766 801.9 524.12
304 0 67.0348 14.3955 965 68.7907 801.448 522.754
305 0 69.0635 13.5383 935 69.723 801.627 522.118
306 0 72.0929 13.3023 959 70.17 801.251 520.766
307 0 73.1731 13.5159 989 69.9808 801.875 518.602
308 0 76.0684 12.7254 968 71.1002 802.357 518.376
309 1 37.0148 11.563 428 70.7407 801.297 537.096
310 0 40.052 12.5587 503 69.8091 801.704 535.93
311 0 41.1203 12.2567 504 70.3829 801.736 535.036
312 0 42.0844 12.3799 521 70.5298 801.537 534.392
313 0 47.1806 12.6323 596 68.7114 800.97 534.443
314 0 45.0202 12.2834 553 70.1447 801.807 534.127
315 0 44.1012 10.9521 483 73.2029 801.675 533.07
316 0 48.02 13.5152 649 68.1911 802.128 533.475
317 0 50.013 12.4767 624 69.1843 802.49 532.175
318 0 49.0597 12.3115 604 69.5497 801.685 531.286
319 0 52.1279 12.3734 645 68.7783 802.319 530.377
320 0 53.0523 12.2709 651 69.7404 802.326 529.538
321 0 54.0506 12.6548 684 68.4971 802.576 530.23
322 0 57.0921 12.7338 727 68.3563 802.461 528.794
323 0 59.0628 12.4105 733 68.7926 802.677 528.498
324 0 58.0196 13.2714 770 68.3675 802.634 527.666
325 0 61.1148 13.4501 822 67.4903 802.516 526.08
326 0 65.0453 13.0524 849 68.5854 802.942 523.497
327 0 66.134 13.3366 882 68.458 803.401 523.162
328 0 67.0488 12.2001 818 70.2176 802.995 524.017
329 0 70.1128 12.8935 904 69.4967 802.652 521.837
330 0 72.0579 13.0728 942 69.5902 802.529 518.231
331 0 75.1031 13.3017 999 69.1512 802.61 517.475
332 0 77.1021 12.8272 989 69.5531 803.249 518.928
333 0 79.1198 14.2821 1130 68.4894 803.344 514.309
334 0 81.1916 13.0925 1063 70.6416 802.972 513.643
335 0 84.1265 14.4544 1216 68.5888 802.638 513.758
336 0 86.0803 11.1408 959 72.5662 802.985 513.681
337 1 41.0531 10.1089 415 73.5205 802.651 532.981
338 0 43.0373 12.3846 533 70.4053 802.711 533.313
339 0 44.0328 11.1508 491 73.0285 802.605 531.868
340 0 48.0852 12.9146 621 69.868 802.874 532.322
341 0 49.0692 12.6352 620 70.5516 802.358 530.077
342 0 50.0129 11.777 589 70.9117 802.635 530.284
343 0 52.0379 12.3372 642 70.2103 803.159 529.656
344 0 53.0694 11.777 625 70.0096 803.024 529.315
345 0 56.0754 12.5724 705 69.4766 803.67 527.145
346 0 55.0152 11.415 628 72.2245 802.807 525.084
347 0 58.0498 12.472 724 70.192 803.417 525.199
348 0 59.1 12.4196 734 70.4264 802.402 523.354
349 0 64.0715 12.1583 779 69.9718 802.008 523.705
350 0 64.0277 12.5571 804 70.1244 803.045 521.545
351 0 67.0367 12.2769 823 69.4034 803.341 521.903
352 0 69.0634 12.6406 873 69.8614 802.837 519.065
353 0 72.0455 12.8669 927 69.1338 802.546 518.412
354 0 75.0568 13.6164 1022 67.316 803.41 517.818
355 0 78.1246 12.7745 998 68.9649 803.139 515.625
356 0 80.0991 12.6593 1014 69.6844 803.57 513.834
357 0 82.0706 11.1002 911 72.8617 803.392 513.75
358 0 85.1354 12.8384 1093 69.2626 803.321 513.812
359 1 41.0707 10.6158 436 71.5872 803.248 533.573
360 0 45.0266 12.0817 544 67.8658 802.989 532.09
361 0 46.0189 11.6691 537 70.5885 802.791 530.771
362 0 48.0884 12.3938 596 69.5487 803.035 529.591
363 0 48.0119 11.0181 529 71.5974 803.168 530.461
364 0 50.0423 12.6493 633 69.2765 803.834 528.709
365 0 51.0423 12.9892 663 68.8492 803.563 526.483
366 0 54.0439 11.8977 643 69.8336 803.432 526.728
367 0 54.0656 12.0039 649 69.3713 803.06 527.994
368 0 55.0607 11.5327 635 70.7622 803.057 524.764
369 0 58.1131 12.252 712 69.2556 803.062 525.584
370 0 59.0461 13.4302 793 68.1135 803.823 524.303
371 0 63.0729 12.2874 775 69.2116 803.461 521.434
372 0 63.0282 11.9153 751 69.3595 803.362 524.565
373 0 66.0613 12.549 829 68.8166 803.048 522.719
374 0 68.0734 12.7656 869 67.9229 803.208 522.646
375 0 71.0988 12.7569 907 68.0584 803.505 520.301
376 0 73.1239 12.1711 890 68.1685 803.46 519.56
377 0 77.2165 13.9607 1078 65.4722 803.348 518.737
378 0 77.0748 12.9874 1001 67.7223 802.666 517.124
379 0 79.1802 12.5284 992 68.127 802.216 516.33
380 0 84.1254 13.0163 1095 67.1689 802.162 514.218
381 1 42.0637 10.912 459 67.2244 802.597 534.251
382 0 45.1624 11.6911 528 65.572 802.013 534.146
383 0 46.0913 12.1281 559 65.9338 802.365 533.395
384 0 47.0265 11.972 563 66.3215 802.629 533.259
385 0 49.1792 11.0413 543 67.6759 803.158 531.136
386 0 51.1565 12.6866 649 65.0647 801.949 531.621
387 0 51.0423 12.0292 614 66.5879 802.05 530.564
388 0 53.09 11.8101 627 67.1132 802.451 528.579
389 0 54.1106 12.7517 690 65.3884 802.196 530.477
390 0 56.071 11.86 665 65.9729 803.08 530.571
391 0 57.0412 12.4822 712 66.6699 803.375 526.221
392 0 60.166 11.7508 707 67.5431 803.081 526.119
393 0 62.0696 12.3249 765 65.7359 802.995 526.075
394 0 63.0465 12.5622 792 66.0076 802.528 524.785
395 0 63.0723 12.3033 776 67.0335 802.112 524.209
396 0 64.0765 12.4226 796 66.8178 802.438 522.196
397 0 71.0327 11.9945 852 66.6913 802.534 521.243
398 0 72.1349 12.7816 922 65.7701 802.831 520.789
399 0 73.1004 12.4486 910 66.5758 802.858 520.865
400 0 76.1253 12.5845 958 66.6889 803.017 518.316
401 0 78.0896 11.8198 923 67.9274 803.295 516.728
402 1 40.0395 10.8143 433 66.0231 802.891 537.552
403 0 39.0531 12.4702 487 66.0226 803.534 534.474
404 0 41.0808 11.0027 452 67.281 803.878 536.035
405 0 43.0495 11.8933 512 65.7871 803.555 536.371
406 0 44.0229 11.5849 510 67.2098 803.267 534.588
407 0 43.0504 12.2879 529 67.6862 803.113 531.837
408 0 47.0157 10.0179 471 68.6709 802.493 534.034
409 0 49.0546 12.7205 624 66.0769 802.454 531.915
410 0 49.0535 11.1919 549 68.7523 802.188 532.009
411 0 51.0304 12.13 619 67.4782 802.086 530.263
412 0 52.1036 12.7055 662 66.2221 802.065 531.329
413 0 55.0639 11.8045 650 67.4323 802.406 529.36
414 0 55.0431 11.9179 656 68.1905 802.259 528.239
415 0 57.1653 13.6446 780 65.8026 801.946 526.156
416 0 58.0392 12.3537 717 67.4198 803.17 527.084
417 0 62.0255 12.1563 754 66.7334 803.456 526.241
418 0 63.2502 12.6166 798 66.6454 802.925 523.029
419 0 64.0347 11.0877 710 69.2296 802.041 522.089
420 0 66.0513 13.3835 884 65.6765 801.863 522.356
421 0 69.093 13.1851 911 65.9572 801.708 521.96
422 0 69.1209 11.9645 827 68.3748 802.571 521.12
423 0 73.0815 12.8897 942 66.8779 802.46 519.139
424 0 77.1073 13.773 1062 64.7665 802.251 518.78
425 1 39.0539 11.4969 449 66.2405 802.388 535.285
426 0 40.0711 11.0803 444 66.5698 802.32 536.468
427 0 41.0511 12.2774 504 65.9802 802.933 534.222
428 0 45.0826 12.6435 570 64.9088 802.263 534.193
429 0 44.0264 11.6521 513 66.2865 801.947 534.955
430 0 47.132 12.7514 601 64.589 802.722 533.339
431 0 47.0531 10.5413 496 68.2944 802.69 533.52
432 0 48.084 11.4383 550 67.4727 802.544 533.218
433 0 51.0212 13.1318 670 64.8209 802.509 531.019
434 0 51.02 12.1129 618 66.7573 802.456 530.291
435 0 51.1852 10.2764 526 69.2643 802.595 530.743
436 0 55.0327 12.1201 667 66.5607 802.594 528.072
437 0 55.071 12.6564 697 66.4405 802.275 528.055
438 0 58.074 13.0007 755 65.1033 802.585 527.605
439 0 60.0433 12.441 747 65.4779 802.323 527.214
440 0 62.0543 12.2796 762 65.7533 801.619 525.525
441 0 63.0938 12.2357 772 64.7422 802.642 525.946
442 0 66.0952 13.5865 898 63.2116 803.043 523.896
443 0 66.1094 11.5717 765 66.0627 802.984 524.614
444 0 69.092 13.0985 905 64.4276 802.673 520.148
445 0 71.1068 12.7977 910 65.0879 802.789 520.108
446 0 74.0768 14.512 1075 62.4447 802.729 516.169
447 0 75.1216 12.5264 941 65.1169 802.56 518.238
448 0 77.0902 12.427 958 65.6336 802.78 514.786
449 0 78.1016 12.0612 942 66.38 802.231 513.842
450 0 83.1268 12.8839 1071 65.0962 802.7 514.202
451 0 85.1621 14.2199 1211 63.5169 802.164 511.055
452 0 89.1062 11.9632 1066 66.2861 802.356 512.776
453 1 42.0685 9.34191 393 68.6158 803.466 535.013
454 0 45.0461 11.5215 519 65.0983 802.395 533.013
455 0 47.0868 11.5319 543 65.256 803.549 532.855
456 0 49.0581 11.7412 576 65.3594 803.625 531.071
457 0 48.0149 12.4336 597 64.9062 803.245 530.208
458 0 51.0784 10.944 559 65.6279 803.698 531.884
459 0 53.1245 13.026 692 62.7876 803.103 529.957
460 0 53.0615 12.3818 657 64.7976 803.177 527.504
461 0 54.0421 12.0092 649 65.3374 803.082 525.963
462 0 58.0551 12.1436 705 64.2426 802.252 526.248
463 0 59.0875 11.6945 691 65.1548 802.156 526.339
464 0 61.0501 12.7272 777 63.4698 802.386 525.324
465 0 62.0302 12.3488 766 65.0392 802.461 521.879
466 0 65.1175 11.9476 778 64.2057 802.554 525.326
467 0 66.0515 12.8839 851 64.1962 802.866 522.939
468 0 69.0434 13.1656 909 63.945 802.824 521.976
469 0 72.1442 12.4473 898 64.3029 802.637 522.968
470 0 74.1318 13.0174 965 64.1938 802.389 516.472
471 0 77.1468 12.5345 967 64.6701 802.199 515.733
472 0 79.1984 13.8387 1096 63.2464 801.953 514.641
473 0 81.0909 12.7018 1030 64.8689 801.822 513.192
474 0 84.1421 12.1342 1021 65.9833 802.473 512.306
475 0 87.1634 12.1267 1057 66.1769 802.296 512.397
476 0 89.1138 13.3201 1187 64.7372 802.313 511.682
477 0 92.0712 13.3918 1233 64.7518 801.928 510.075
478 0 93.0935 12.1491 1131 66.7595 802.365 509.828
479 0 97.1583 13.7508 1336 64.7425 802.269 507.653
480 0 100.069 14.2901 1430 63.9979 802.414 507.31
481 1 54.0619 11.9493 646 65.7755 801.991 528.254
482 0 53.0315 11.3517 602 67.196 801.645 527.728
483 0 55.0426 10.5191 579 68.8359 802.311 523.826
484 0 60.0302 11.5608 694 65.7406 802.301 527.153
485 0 60.0179 11.1967 672 66.4583 802.562 525.409
486 0 63.0505 13.2275 834 63.9341 802.019 523.462
487 0 63.1272 12.0233 759 65.7312 802.626 523.609
488 0 67.0677 11.2573 755 66.1815 802.495 524.538
489 0 70.0833 12.4566 873 65.5899 802.006 521.479
490 0 72.119 12.3823 893 65.4121 801.806 520.617
491 0 74.1213 11.6835 866 66.56 802.51 518.745
492 0 74.0512 12.4508 922 66.936 801.764 516.584
493 0 77.1603 11.7418 906 67.2318 801.354 518.086
494 0 79.0495 11.9672 946 67.8044 802.056 513.884
495 0 85.0563 12.38 1053 66.7911 802.356 515.385
496 0 85.172 13.8426 1179 65.9271 801.367 510.411
497 1 43.0822 9.70238 418 67.5144 802.203 535.115
498 0 46.033 10.7532 495 65.6404 802.071 535.461
499 0 46.0537 10.1838 469 67.661 802.036 533.817
500 0 47.0205 9.59155 451 68.7339 801.82 534.581
501 0 46.037 11.9469 550 67.1527 802.691 533.042
502 0 50.1107 12.3127 617 67.2561 801.815 530.755
503 0 51.111 12.5805 643 65.6579 802.219 532.302
504 0 52.034 11.9921 624 66.992 802.25 529.529
505 0 56.0762 12.4652 699 65.5608 802.037 529.923
506 0 57.0595 12.2504 699 66.2847 802.116 527.791
507 0 57.1059 11.8201 675 67.4385 802.259 526.364
508 0 59.0258 11.046 652 68.2623 802.52 527.113
509 0 61.089 12.49 763 65.9069 802.322 525.22
510 0 64.0388 12.5549 804 65.8943 801.667 524.323
511 0 64.077 12.1104 776 66.8144 802.465 523.116
512 0 65.0727 10.4345 679 69.0206 801.791 524.152
513 0 67.1189 11.2785 757 67.8983 801.869 521.045
514 0 71.157 13.1962 939 65.3578 801.945 520.162
515 0 75.0633 10.8841 817 67.6242 801.841 519.875
516 0 77.0797 11.313 872 67.2523 801.443 517.525
517 0 78.0611 11.6319 908 67.272 801.267 516.436
518 0 82.118 10.631 873 67.5315 802.003 517.639
519 0 82.1678 11.7321 964 66.9378 801.216 513.17
520 1 43.0406 9.27031 399 65.6792 801.123 533.784
521 0 44.0635 9.66786 426 65.2793 801.908 535.415
522 0 47.0368 10.056 473 64.2093 801.998 533.078
523 0 48.0306 11.1804 537 62.6443 801.324 532.482
524 0 50.0597 10.887 545 63.1963 801.439 529.839
525 0 51.0451 10.3634 529 63.7164 801.244 530.856
526 0 53.1278 9.29834 494 64.7227 800.905 529.269
527 0 54.0165 11.1447 602 62.3638 801.286 527.749
528 0 55.0378 10.52 579 63.1554 801.288 527.551
529 0 59.1368 12.9023 763 59.9672 801.054 525.685
530 0 60.0708 10.6541 640 62.8969 801.084 525.048
531 0 62.0397 12.3147 764 60.8626 801.37 523.881
532 0 64.0649 12.2532 785 61.0306 801.234 522.145
533 0 65.1576 11.7561 766 61.9426 801.366 521.71
534 0 68.0249 11.0401 751 62.3901 801.891 520.502
535 0 71.1559 11.0181 784 61.8036 801.856 519.196
536 0 73.0814 10.4951 767 63.0104 801.544 518.714
537 1 37.0164 11.3463 420 58.6619 800.971 536.419
538 0 37.0463 8.04399 298 62.9698 801.195 534.829
539 0 39.0277 8.91674 348 61.5546 800.989 535.96
540 0 40.0662 9.20976 369 61.4011 801.322 535.119
541 0 42.0265 10.7075 450 60.1467 800.493 532.504
542 0 42.1288 9.58965 404 62.7079 801.723 531.72
543 0 44.1033 9.29635 410 62.8439 801.432 532.059
544 0 47.0424 11.0113 518 60.4479 801.67 532.994
545 0 48.0893 11.749 565 60.1097 801.156 531.262
546 0 49.0926 11.8959 584 60.4692 801.502 529.168
547 0 50.1059 10.378 520 62.0615 800.938 530.196
548 0 52.1949 10.0393 524 62.8874 801.336 528.933
549 0 52.1548 8.89659 464 64.4159 800.056 528.526
550 0 57.0883 11.5085 657 60.3973 800.374 528.551
551 0 58.1148 11.2536 654 61.3685 799.985 526.798
552 0 59.0602 12.0047 709 60.5219 800.358 526.791
553 0 61.0751 11.5923 708 61.2189 800.847 524.609
554 0 63.0853 10.9851 693 62.2958 800.372 523.964
555 0 65.0861 12.7062 827 60.4607 800.791 521.311
556 0 67.1286 11.6642 783 61.3359 800.967 523.198
557 0 70.2439 11.7733 827 61.5961 801.12 521.817
558 0 70.1498 10.6344 746 64.2145 801.836 520.35
559 0 71.203 10.9265 778 63.9743 800.928 517.126
560 0 74.2669 10.5565 784 64.574 801.452 516.318
561 0 77.1155 12.6045 972 61.7623 801.817 517.058
562 1 40.1416 10.2637 412 61.7913 802.352 534.299
563 0 39.0839 8.62247 337 64.3917 802.306 535.671
564 0 40.127 10.3422 415 61.6578 802.075 535.178
565 0 42.0168 10.115 425 62.7459 801.151 533.584
566 0 43.0421 10.0832 434 62.3917 801.585 534.839
567 0 44.1266 11.3084 499 61.0902 802.146 532.178
568 0 45.0244 9.37269 422 62.0047 802.526 533.363
569 0 45.0435 10.5009 473 60.7696 802.476 532.63
570 0 47.1231 10.6105 500 60.694 801.694 532.072
571 0 49.0288 10.1777 499 61.0661 801.497 530.545
572 0 49.0989 10.652 523 61.2524 802.315 528.828
573 0 50.1248 12.5287 628 59.0303 802.135 527.858
574 0 52.0378 11.3571 591 60.3452 802.492 527.802
575 0 54.0335 10.9006 589 61.3497 802.273 527.092
576 0 54.1013 12.2548 663 59.7149 802.081 523.733
577 0 58.0666 11.5212 669 60.0419 802.964 525.456
578 0 58.0604 11.0058 639 61.2222 803.224 523.313
579 0 60.0261 10.3955 624 61.5577 803.574 523.481
580 0 62.0329 9.26928 575 62.3287 804.059 526.39
581 0 64.1734 10.4872 673 61.1947 803.562 523.979
582 0 66.2041 12.0536 798 59.188 803.238 522.756
583 0 68.1447 11.681 796 60.1922 803.116 520.008
584 0 69.2639 10.987 761 61.3719 802.9 518.083
585 0 73.1466 11.8119 864 60.4641 802.323 516.676
586 0 74.207 11.4949 853 61.2603 801.516 514.702
587 1 38.0117 10.1811 387 60.4419 802.036 534.953
588 0 41.0567 9.52342 391 60.5396 802.343 535.179
589 0 41.0099 12.3629 507 57.6903 801.462 534.176
590 0 41.0267 10.8222 444 60.4707 800.914 533.745
591 0 42.0727 12.1932 513 58.6803 801.76 533.953
592 0 46.1254 11.9891 553 58.302 801.98 534.078
593 0 47.0713 11.9393 562 59.2509 802.205 531.518
594 0 46.0288 10.8193 498 60.9478 801.641 531.982
595 0 48.0914 10.7296 516 60.7442 801.981 530.86
596 0 49.0486 11.9677 587 59.8143 802.041 531.76
597 0 52.1008 10.6332 554 60.713 800.758 530.843
598 0 50.0555 9.9889 500 62.32 801.786 527.928
599 0 54.0297 11.2346 607 60.486 801.669 528.259
600 0 55.0396 10.5742 582 61.5275 801.385 527.521
601 0 57.0515 10.3591 591 61.0169 802.042 527.552
602 0 57.017 10.9441 624 60.8862 802.178 527.258
603 0 59.1121 11.7235 693 59.938 802.801 524.623
604 0 61.0553 10.1547 620 61.2242 802.085 526.732
605 0 60.0299 9.89507 594 62.7761 802.04 524.377
606 0 63.0564 11.1487 703 60.7724 802.272 522.834
607 0 67.0698 11.898 798 60.3158 802.709 522.348
608 0 68.0898 10.5596 719 61.4701 802.074 522.029
609 0 69.0456 11.1665 771 61.358 802.497 519.396
610 0 71.1515 11.9745 852 60.7488 801.687 518.996
611 0 72.0567 12.0461 868 60.7074 802.553 519.703
612 1 38.0638 9.95697 379 61.5646 802.206 534.689
613 0 41.0359 11.1853 459 59.3028 802.196 535.612
614 0 40.056 10.3605 415 61.7518 802.81 533.884
615 0 41.0567 10.7656 442 61.7783 802.441 533.371
616 0 42.0506 12.7941 538 59.5112 802.758 533.619
617 0 44.0405 11.217 494 62.3462 802.702 530.636
618 0 43.0215 9.94853 428 63.8995 802.514 532.035
619 0 47.0383 11.9265 561 61.1408 802.458 532.187
620 0 48.106 10.851 522 63.4387 802.833 529.146
621 0 49.0979 10.4485 513 63.653 802.758 528.934
622 0 50.0994 11.1977 561 63.2103 802.15 528.777
623 0 54.0514 12.3956 670 61.8448 802.652 527.473
624 0 54.0603 11.8016 638 62.5846 802.508 526.464
625 0 54.038 11.2883 610 63.9459 802.959 525.234
626 0 57.0782 12.3865 707 61.976 802.608 525.515
627 0 57.034 11.5896 661 63.233 802.239 524.419
628 0 59.0901 10.4078 615 64.3301 802.82 524.45
629 0 61.1264 11.419 698 63.533 803.001 524.089
630 0 64.084 11.5786 742 62.779 802.398 523.013
631 0 64.0559 11.9115 763 63.3132 801.781 519.101
632 0 68.081 12.0592 821 62.5542 802.184 519.195
633 0 68.0625 11.4307 778 64 802.572 519.474
634 0 72.0766 12.0705 870 62.8184 802.229 516.652
635 0 74.1589 12.9721 962 62.2193 802.615 513.946
636 0 77.1138 11.9175 919 62.9641 803.305 515.188
637 0 79.0994 12.5538 993 63.0645 803.47 511.052
638 0 84.058 12.4557 1047 62.4183 803.054 512.71
639 0 85.1232 10.8196 921 64.7687 802.708 514.316
640 0 89.0964 12.4809 1112 63.6313 802.237 509.603
641 1 44.0492 9.80721 432 64.5139 802.674 532.514
642 0 43.0572 11.2873 486 63.9918 802.854 531.718
643 0 44.0209 10.6086 467 65.5889 802.495 530.248
644 0 47.0182 10.8469 510 64.8961 802.455 529.939
645 0 49.1189 11.4823 564 64.0585 802.592 529.08
646 0 50.0434 11.9097 596 64.0034 803.015 527.904
647 0 52.0316 11.4546 596 64.7315 802.307 526.611
648 0 53.0314 12.5398 665 63.9113 801.553 525.767
649 0 56.0521 11.971 671 64.5037 802.25 526.007
650 0 57.1394 13.3883 765 62.9386 803.354 524.434
651 0 58.0758 11.0029 639 66.3099 802.674 522.847
652 0 63.0707 12.6683 799 61.7547 802.564 526.04
653 0 64.0804 11.4075 731 64.9056 802.544 523.079
654 0 64.0448 11.367 728 65.5495 802.772 521.641
655 0 68.1043 11.8788 809 64.8146 803.094 520.697
656 0 71.0946 13.1515 935 62.1754 802.571 522.303
657 0 72.0771 12.2091 880 64.1682 802.932 520.309
658 1 38.0798 9.74271 371 65.0054 802.482 536.765
659 0 37.0466 10.6352 394 64.6548 802.284 536.086
660 0 38.0157 12.8631 489 62.4622 803.35 534.63
661 0 40.0707 12.3033 493 62.6045 802.886 534.42
662 0 41.0462 12.3032 505 63.3228 803.069 533.228
663 0 41.0235 11.53 473 64.7759 802.577 534.4
664 0 42.0325 10.9677 461 65.2473 802.62 532.881
665 0 44.0554 11.8941 524 63.7538 802.975 532.536
666 0 42.029 10.7545 452 67.2765 802.989 531.338
667 0 46.0999 11.9306 550 64.1418 803.113 531.207
668 0 47.0161 11.613 546 64.3883 802.929 530.932
669 0 47.0277 11.2274 528 65.7462 802.492 528.987
670 0 49.0183 11.5671 567 64.8131 802.884 528.395
671 0 50.0489 12.4478 623 63.7897 803.335 529.091
672 0 52.0545 12.9672 675 62.9941 802.64 526.837
673 0 51.0629 10.9081 557 66.3501 802.923 525.099
674 0 56.0508 10.4905 588 64.6378 803.129 527.716
675 0 57.0619 12.0571 688 63.939 803.094 522.411
676 0 59.0174 11.5559 682 63.6891 803.96 525.716
677 0 60.0251 12.628 758 63.2375 803.364 523.623
678 0 63.0439 12.9434 816 61.8725 803.021 521.379
679 1 29.0158 8.54708 248 64.4516 802.56 537.806
680 0 31.0069 9.09474 282 61.6631 801.993 539.957
681 0 34.0102 11.6436 396 59.9495 802.884 536.745
682 0 32.0171 9.83851 315 62.4413 803.375 536.416
683 0 33.0509 11.3159 374 61.0348 803.481 537.307
684 0 38.0842 10.188 388 61.6082 803.706 535.188
685 0 37.082 11.2993 419 60.0764 802.967 535.912
686 0 38.0257 11.3344 431 60.1694 803.021 536.845
687 0 37.0489 10.6886 396 61.596 802.871 536.379
688 0 39.064 12.0571 471 60.189 803.344 535.013
689 0 42.0183 10.9476 460 60.9109 802.548 533.135
690 0 42.0469 10.6548 448 62.6853 803.31 533.033
691 0 42.0893 11.1192 468 62.5064 803.639 532.038
692 0 44.0641 12.0279 530 61.4887 803.353 530.719
693 0 43.0199 11.5296 496 62.5746 802.99 531.177
694 0 45.0866 10.4909 473 63.8182 803.283 528.719
695 0 46.1712 9.94127 459 64.3203 803.285 530.248
696 0 49.1128 11.891 584 61.5034 803.046 529.604
697 0 48.0814 10.1911 490 64.5694 802.908 527.122
698 0 50.0707 10.1257 507 64.1933 802.746 527.688
699 0 52.2811 10.6731 558 64.1756 802.005 524.875
700 0 52.0763 10.1582 529 65.1323 803.11 526.641
701 0 55.0577 11.0611 609 63.7652 802.654 526.747
702 0 59.2786 12.9389 767 61.395 802.402 523.601
703 0 58.0841 11.0185 640 64.6484 802.875 524
704 0 64.0959 13.3706 857 60.8366 802.944 522.697
705 0 66.1014 12.5262 828 61.5193 803.217 525.682
706 0 67.1758 12.6087 847 62.0213 803.399 524.012
707 0 68.115 11.7448 800 64.3088 803.191 519.755
708 0 70.084 12.0142 842 63.8895 802.333 520.575
709 0 72.0852 11.0286 795 65.7635 802.699 518.397
710 0 76.0803 13.7355 1045 61.8038 802.606 519.789
711 1 41.0688 10.2511 421 64.3278 802.827 536.836
712 0 42.0662 11.1966 471 63.7325 803.297 533.671
713 0 43.0273 11.4811 494 61.498 803.559 536.091
714 0 45.0786 11.4689 517 62.0193 803.781 532.772
715 0 47.015 11.6346 547 61.0219 803.267 534.324
716 0 47.0759 10.5149 495 63.3091 803.384 531.481
717 0 47.0863 10.6188 500 63.372 803.666 531.622
718 0 50.0679 10.9651 549 62.2131 803.109 530.867
719 0 50.0464 11.2895 565 62.6389 803.281 531.085
720 0 52.0519 11.0083 573 62.3229 802.176 530.312
721 0 56.1044 11.3895 639 61.2394 803.56 530.164
722 0 57.1301 11.4651 655 62.4519 801.887 526.96
723 0 56.1242 10.6728 599 63.9265 802.192 525.125
724 0 60.0512 11.1072 667 62.0315 802.831 527.423
725 0 61.0834 11.116 679 62.4521 802.324 522.429
726 0 62.0851 11.7581 730 61.2342 802.881 525.227
727 0 65.1119 12.3633 805 60.6224 802.339 522.722
728 0 64.0392 10.3374 662 62.8051 802.509 523.544
729 0 67.1345 10.263 689 63.4543 802.299 520.493
730 0 70.0655 12.5454 879 60.9044 802.006 518.575
731 0 74.0392 11.5209 853 61.6413 801.657 520.302
732 0 76.1121 10.7999 822 62.9599 802.108 518.22
733 0 78.1509 11.5034 899 61.5473 802.062 517.503
734 1 37.0095 9.75424 361 62.2299 801.953 534.194
735 0 41.0406 9.67334 397 61.3375 803.302 534.438
736 0 44.2109 12.0106 531 57.4878 803.595 534.751
737 0 45.0682 10.9168 492 59.5671 801.967 534.018
738 0 45.0485 11.8539 534 58.4232 801.985 532.481
739 0 48.1838 10.6052 511 59.9667 801.333 533.155
740 0 48.1201 12.2402 589 58.4228 801.881 531.114
741 0 49.0328 10.7071 525 60.8533 801.989 531.152
742 0 52.0371 12.4719 649 58.5424 802.858 531.533
743 0 52.087 11.692 609 59.9146 801.877 530.297
744 0 52.1099 12.7423 664 58.7289 801.842 530.279
745 0 54.0804 11.7048 633 59.8483 801.949 528.292
746 0 56.1222 11.5819 650 60.0938 801.862 526.612
747 0 56.1142 11.3518 637 60.2135 801.557 526.484
748 0 60.072 12.1687 731 58.9316 802.856 525.956
749 0 60.0325 11.3772 683 60.2753 802.404 526.305
750 0 63.1254 11.2474 710 59.5662 802.286 526.427
751 0 65.0966 11.9208 776 59.7796 802.809 521.443
752 0 67.1293 12.0067 806 59.6489 803.177 523.024
753 0 68.1549 11.9581 815 59.7853 803.283 523.413
754 0 72.0843 13.8033 995 57.7688 802.912 519.049
755 0 73.1147 12.5966 921 59.4517 802.52 520.295
756 0 74.1442 13.204 979 59.1726 802.573 521.606
757 1 35.0397 8.67587 304 62.6579 802.467 539.74
758 0 38.0235 12.5186 476 59.0126 803.263 536.103
759 0 35.008 9.28358 325 64.04 802.951 535.855
760 0 41.011 11.4604 470 59.8191 803.094 537.379
761 0 43.0816 11.5363 497 60.5412 802.616 536.535
762 0 42.093 11.3796 479 62.1691 802.681 535.096
763 0 43.0996 13.1324 566 60.5848 802.661 533.021
764 0 46.0748 11.8937 548 61.3704 802.319 533.589
765 0 47.0398 13.1803 620 60.6774 802.827 531.008
766 0 48.0508 12.3827 595 61.1227 803.882 534.022
767 0 49.0751 12.7152 624 60.7564 802.712 532.077
768 0 51.0142 12.6239 644 60.913 802.486 530.357
769 0 49.1072 12.0145 590 62.5271 801.997 530.178
770 0 54.0247 12.2166 660 61.6 801.714 528.277
771 0 57.1432 14.2449 814 58.1671 802.377 530.545
772 0 55.0518 12.1159 667 61.1829 803.039 531.102
773 0 58.1175 12.0274 699 61.2217 802.167 528.684
774 0 59.0628 12.6814 749 60.4192 802.615 528.36
775 0 58.0357 11.2862 655 63.1038 802.617 526.78
776 0 62.1437 12.8734 800 60.5675 802.832 524.339
777 0 64.0494 14.6918 941 58.4687 802.421 523.355
778 0 67.1173 13.5584 910 59.4143 802.349 523.636
779 0 69.0995 12.9379 894 60.2953 802.774 523.004
780 0 71.1419 11.7793 838 61.7947 802.554 523.196
781 0 69.1327 10.7764 745 63.3544 802.864 521.958
782 0 74.0851 13.2955 985 60.6589 802.777 519.894
783 0 79.0549 12.8898 1019 60.5594 803.153 519.306
784 0 81.1574 14.3302 1163 59.0825 802.846 517.35
785 1 43.1226 12.9167 557 59.368 802.551 537.223
786 0 44.0224 12.2211 538 60.4238 802.336 536.368
787 0 45.0362 12.5677 566 61.053 802.357 535.71
788 0 46.0261 12.1236 558 61.9588 801.991 534.927
789 0 47.0456 13.7101 645 60.5814 802.335 531.527
790 0 48.1507 12.7101 612 62.1634 802.508 531.477
791 0 50.0373 13.1102 656 62.0183 801.636 529.312
792 0 52.0812 12.4421 648 62.1867 802.221 529.083
793 0 53.0637 12.1175 643 62.7916 802.89 529.171
794 0 58.0729 14.654 851 59.114 802.638 527.83
795 0 59.0988 14.6873 868 58.8399 802.513 529.332
796 0 60.1046 13.0439 784 61.1696 802.147 526.949
797 0 64.0756 13.8274 886 59.8138 802.274 526.176
798 0 65.0936 14.1181 919 59.5539 802.3 525.866
799 0 66.122 13.4146 887 60.823 802.451 525.023
800 0 69.0548 12.6421 873 61.6873 801.863 523.881
801 0 70.2453 12.556 882 62.6236 802.235 520.478
802 0 74.2354 13.2417 983 61.7609 801.568 519.752
803 0 76.1485 14.3667 1094 60.6298 802.027 519.331
804 0 78.1813 14.8629 1162 60.0284 802.066 518.422
805 0 80.1318 12.8663 1031 62.6702 802.158 518.713
806 0 82.1009 13.9828 1148 61.4887 801.389 515.368
807 0 86.2353 12.8602 1109 62.7935 802.431 516.289
808 0 90.1843 16.0227 1445 59.3135 802.477 514.16
809 1 45.0741 13.0674 589 62.8846 802.514 535.445
810 0 44.1651 11.0494 488 65.418 802.59 535.525
811 0 47.0614 13.3868 630 63.7143 802.722 533.906
812 0 50.1083 13.85 694 62.9121 802.517 532.977
813 0 50.0426 13.3087 666 63.8183 801.827 532.7
814 0 51.136 11.9681 612 66.183 802.431 531.458
815 0 53.0654 13.4362 713 64.9719 801.945 530.212
816 0 54.1086 12.1977 660 66.6242 801.833 532.091
817 0 56.0698 12.7163 713 66.3352 801.961 530.783
818 0 56.0972 11.1949 628 68.1911 802.003 531.194
819 0 58.0695 13.1739 765 66.7059 801.46 527.442
820 0 59.0444 12.0926 714 68.556 801.636 526.343
821 0 60.0507 12.5061 751 68.7483 801.877 526.125
