time division length width area intensity CMx CMy
0 0 40.0613 8.93629 358 48.6006 1336.98 523.816
1 0 41.087 9.66242 397 49.2141 1336.68 522.388
2 0 42.138 11.0352 465 46.3011 1337.61 524.376
3 0 43.1206 8.95163 386 49.5829 1336.62 524.337
4 0 43.0502 8.87336 382 49.0864 1336.64 524.654
5 0 45.1432 10.1012 456 49.8662 1335.95 524.746
6 0 43.1274 7.11844 307 52.5863 1335.95 523.414
7 0 43.1494 8.76027 378 50.4471 1336.16 526.577
8 0 47.0919 9.55579 450 50.9422 1336 523.976
9 0 47.1492 13.1285 619 48.525 1335.91 524.099
10 0 50.1562 11.0854 556 48.8579 1336.53 522.29
11 0 49.1458 9.88894 486 50.9095 1335.7 525.021
12 0 49.0877 8.92281 438 51.6918 1336 523.788
13 0 50.1376 9.45398 474 51.5886 1336.24 522.494
14 0 50.1505 10.9072 547 50.9104 1336.59 520.499
15 0 52.1037 10.3831 541 50.7301 1336.35 523.098
16 0 55.1147 11.2311 619 50.4184 1336.74 522.845
17 1 121.229 12.3897 1502 56.5047 1336.73 487.013
18 0 125.179 14.0998 1765 54.6748 1336.67 490.292
19 0 127.222 10.9572 1394 58.5481 1336.39 488.997
20 0 127.208 11.7209 1491 58.886 1337.09 483.028
21 0 134.291 12.1229 1628 58.9054 1336.74 484.01
22 1 63.1064 11.3935 719 53.758 1336.52 518.456
23 0 63.1762 12.0298 760 54.4066 1335.92 518.887
24 0 65.1528 9.3319 608 56.8438 1335.86 519.668
25 0 64.1146 8.57838 550 59.3582 1335.15 517.515
26 1 148.305 12.2181 1812 62.8135 1336.52 477.807
27 0 148.234 12.3318 1828 63.448 1336.17 481.751
28 0 154.145 13.4938 2080 63.8471 1336.2 473.962
29 0 159.242 13.244 2109 64.1754 1335.95 473.019
30 0 163.266 12.9727 2118 64.3787 1336.29 474.191
31 0 168.325 12.8323 2160 64.8361 1336.06 470.038
32 0 175.411 12.6389 2217 66.2494 1335.48 463.576
33 0 179.524 12.6668 2274 65.763 1336.53 461.195
34 0 186.23 13.2471 2467 65.3595 1336.52 458.984
35 1 138.309 11.431 1581 64.7255 1336.47 486.492
36 0 139.202 11.1852 1557 64.7797 1337.6 482.107
37 0 145.306 12.0367 1749 65.4763 1336.8 478.256
38 0 147.267 8.94974 1318 66.5986 1337.09 485.423
39 0 156.182 13.9452 2178 63.4793 1337.52 475.536
40 0 160.359 12.7401 2043 65.8899 1337.19 468.675
41 0 165.301 12.3653 2044 67.316 1336.92 466.506
42 0 173.205 11.2121 1942 68.6818 1337.55 461.839
43 0 175.219 10.9748 1923 67.8695 1337.8 466.643
44 1 147.312 9.96528 1468 67.5272 1337.25 479.782
45 1 116.159 10.7267 1246 65.4735 1337.08 490.202
46 0 122.299 10.8422 1326 64.5679 1337.58 491.294
47 0 124.186 9.84814 1223 67.2952 1337.49 483.497
48 0 131.209 13.3756 1755 63.2399 1337.58 487.921
49 0 133.295 10.548 1406 67.4467 1337.11 479.891
50 0 143.172 5.62959 806 66.9839 1337.19 498.168
51 0 144.223 11.3366 1635 66.1523 1337.62 480.226
52 1 109.188 11.5306 1259 64.8221 1337.4 493.055
53 0 112.209 10.3468 1161 66.733 1337.09 491.814
54 0 115.131 12.4815 1437 65.3347 1336.95 489.912
55 0 118.121 12.4787 1474 66.1289 1336.27 489.669
56 0 122.187 10.7049 1308 66.695 1337.16 490.57
57 0 126.245 11.5014 1452 67.1412 1337.09 483.152
58 0 129.171 11.9377 1542 66.8768 1337.33 481.72
59 0 134.175 11.1496 1496 68.2527 1337.17 481.782
60 0 137.215 10.8589 1490 68.6899 1336.93 480.911
61 0 142.221 11.1165 1581 69.2486 1337.03 473.439
62 0 146.216 10.5803 1547 69.4602 1336.82 475.755
63 0 152.258 11.4871 1749 68.3796 1337.69 470.065
64 0 157.326 10.9073 1716 69.9977 1337.19 460.837
65 0 162.236 12.1243 1967 68.4164 1337.38 465.576
66 0 168.174 12.3741 2081 68.3075 1337.43 462.382
67 0 172.294 10.5866 1824 71.1913 1337.44 452.945
68 0 181.33 12.6234 2289 68.972 1336.87 454.558
69 0 186.349 10.7809 2009 71.4933 1336.88 449.982
70 0 194.317 12.1091 2353 69.6991 1337.13 449.116
71 0 198.362 10.7228 2127 71.772 1336.99 446.753
72 0 206.404 12.6548 2612 69.4713 1336.94 441.958
73 1 174.338 10.7378 1872 70.3825 1337.32 452.775
74 0 180.266 10.1961 1838 71.2154 1337.43 452.752
75 0 183.263 12.7195 2331 67.8576 1338.62 449.819
76 0 188.185 10.596 1994 70.7202 1337.97 450.881
77 0 194.42 10.4568 2033 72.0841 1337.31 441.627
78 0 201.514 11.6319 2344 70.0166 1337.44 448.446
79 0 209.431 13.3552 2797 67.7533 1338.02 443.668
80 0 213.225 11.3354 2417 69.9119 1337.96 445.513
81 0 221.329 12.4837 2763 68.5299 1338.18 440.077
82 1 137.174 11.7369 1610 65.9497 1337.64 480.75
83 0 141.217 9.84299 1390 68.4597 1337.73 475.106
84 0 144.236 11.0583 1595 66.3893 1338.07 478.564
85 0 149.138 11.8816 1772 66.3296 1337.89 473.591
86 0 153.362 12.3303 1891 65.3342 1338.6 469.999
87 0 158.177 12.132 1919 65.7749 1338.51 468.615
88 0 166.144 13.6388 2266 63.041 1339.02 469.022
89 0 171.338 11.597 1987 67.2486 1337.68 463.706
90 0 177.194 11.0726 1962 67.525 1338.35 457.339
91 0 182.214 10.7236 1954 67.0855 1338.46 463.611
92 0 188.254 12.3078 2317 66.9029 1338.19 452.201
93 1 63.2078 9.96712 630 59.9064 1337.44 516.343
94 0 66.062 8.90072 588 60.3588 1337.54 516.782
95 0 67.1718 10.3466 695 60.2734 1337.3 513.976
96 0 71.1398 11.5407 821 58.2704 1337.36 516.847
97 0 72.1048 9.77744 705 60.3688 1337.6 513.898
98 0 75.2782 10.6272 800 60.4712 1337.63 510.361
99 0 80.1651 10.7403 861 60.1905 1337.07 511.48
100 0 77.069 9.29038 716 62.0405 1337.84 506.489
101 0 84.0825 11.2865 949 61.117 1337.07 506.549
102 0 87.1891 10.7468 937 60.5763 1337.38 506.062
103 1 41.0842 9.20063 378 57.0979 1336.96 525.146
104 0 44.1036 10.0219 442 55.4299 1337.27 525.321
105 0 44.0424 9.30921 410 56.2902 1337.19 526.141
106 0 47.1534 9.84022 464 56.4418 1336.66 524.718
107 0 47.1401 9.90664 467 55.7687 1337.45 522.974
108 0 47.1401 10.0127 472 125.992 1338.49 522.9
109 0 52.1661 11.3484 592 53.1267 1337.95 521.377
110 0 55.0976 11.2346 619 54.483 1337.46 520.931
111 0 53.0802 7.93139 421 59.7102 1336.78 519.67
112 0 58.187 11.3943 663 53.8884 1338 520.163
113 0 58.0798 9.19424 534 56.6798 1337.89 519.17
114 0 59.2035 7.71913 457 58.558 1337.4 518.486
115 0 63.1178 12.4846 788 54.0584 1338.15 517.468
116 0 65.0617 10.2826 669 56.2661 1338.22 513.933
117 0 67.188 9.73389 654 57.1575 1338.28 512.159
118 0 69.1557 12.508 865 55.4324 1338.34 510.588
119 0 71.1566 11.6223 827 56.4547 1338.47 507.88
120 0 76.0973 11.7481 894 56.34 1338.05 507.679
121 0 77.0684 10.8994 840 57.8631 1337.45 508.543
122 0 78.1324 9.04874 707 60.5516 1337.32 506.453
123 0 80.1525 10.1806 816 58.489 1338.27 501.06
124 0 84.1877 10.9755 924 57.6017 1338.02 502.354
125 0 86.227 10.6231 916 58.7063 1337.02 506.036
126 0 89.2195 9.01149 804 61.4229 1336.73 501.751
127 0 91.2308 10.9064 995 57.8332 1337.66 502.345
128 1 43.0535 11.4509 493 50.7262 1338.48 522.59
129 0 44.1634 8.71763 385 54.0753 1337.86 521.029
130 0 48.0874 10.4809 504 53.879 1336.95 522.5
131 0 47.087 8.81347 415 54.1855 1337.36 522.61
132 0 48.1278 8.80988 424 54.0377 1337.8 520.224
133 0 48.0835 8.83879 425 54.7812 1337.84 516.2
134 0 53.1008 10.094 536 54.0093 1337.45 516.409
135 0 57.0572 10.4281 595 52.8891 1337.97 518.266
136 0 56.108 9.76687 548 53.6861 1338.02 516.841
137 0 59.145 12.2411 724 51.6243 1338.17 516.546
138 0 62.1226 11.4773 713 52.2987 1338.21 513.066
139 0 62.1147 9.82054 610 53.9328 1337.54 515.257
140 0 64.0827 9.75302 625 54.0544 1338.26 510.35
141 0 69.1349 12.9891 898 51.412 1338.03 510.357
142 0 67.1003 9.19519 617 55.0194 1338.08 505.284
143 0 73.1071 10.9565 801 54.5518 1336.94 508.754
144 0 73.0701 10.0999 738 54.771 1338.2 500.932
145 0 78.1152 11.7135 915 52.7803 1338.02 506.116
146 1 38.0661 8.40643 320 51.775 1337.34 520.922
147 0 42.0442 10.4176 438 49.0525 1337.6 524.329
148 0 40.0872 9.80363 393 50.4555 1337.82 523.26
149 0 42.09 8.76692 369 51.6369 1337.57 522.29
150 0 43.0297 6.48389 279 53.6344 1337.27 522.566
151 0 44.0697 9.39422 414 50.7657 1337.95 519.812
152 0 46.0968 10.8033 498 49.4719 1338.35 517.251
153 0 48.0544 11.6327 559 48.5063 1338.45 520.002
154 0 49.1044 9.3678 460 51.2174 1337.9 515.785
155 0 51.1006 10.6848 546 49.9286 1338.22 516.333
156 0 51.0584 10.1452 518 50.0193 1338.32 516.158
157 0 54.1089 9.3515 506 51.8775 1337.96 512.314
158 0 57.0618 12.0921 690 49.3681 1338.17 515.609
159 0 59.1155 11.0123 651 50.7773 1337.67 513.255
160 0 62.1863 11.16 694 51.7781 1337.38 510.16
161 0 65.2168 8.80141 574 54.0801 1337.31 506.648
162 0 63.1291 7.74604 489 55.2004 1337.27 510.462
163 0 68.1545 10.2708 700 53.1214 1337.21 508.049
164 0 70.0865 9.68803 679 54.7128 1337.01 504.218
165 0 72.1117 12.023 867 52.1338 1337.92 505.352
166 0 75.1187 9.75788 733 53.5348 1338.15 505.557
167 0 77.1369 10.423 804 53.8072 1337.69 503.889
168 0 80.0907 12.798 1025 51.6459 1337.77 505.317
169 0 83.1219 11.5854 963 52.5099 1338.13 503.729
170 0 89.1509 13.6622 1218 50.9228 1338.25 500.168
171 1 41.1263 5.56821 229 53.7205 1336.53 524.127
172 0 44.0834 9.14177 403 51.0422 1337.63 522.536
173 0 43.129 8.90352 384 51.9635 1337.46 519.904
174 0 45.0619 8.98764 405 51.1728 1337.73 521.985
175 0 49.1011 12.1179 595 49.8521 1337.29 521.704
176 0 50.1092 10.2376 513 51.2047 1337.23 521.951
177 0 50.1012 10.4189 522 52.3793 1336.99 519.285
178 0 55.1991 13.8227 763 49.5767 1337.21 518.118
179 0 55.1622 11.0402 609 50.5796 1338.31 517.828
180 0 57.0711 10.8286 618 51.0178 1337.8 518.65
181 0 58.118 12.0273 699 50.9428 1337.78 517.157
182 0 62.1348 11.2176 697 53.6284 1336.74 514.333
183 0 65.1008 11.8278 770 53.5597 1336.55 513.873
184 0 68.0736 11.4288 778 54.4409 1336.14 515.955
185 0 70.1043 14.5212 1018 51.5638 1336.54 513.83
186 0 71.0627 13.1433 934 53.8683 1336.5 511.739
187 0 71.1225 11.0092 783 56.9004 1335.98 508.713
188 0 77.1528 11.393 879 56.2856 1335.83 510.799
189 0 78.0516 11.518 899 56.396 1336.36 509.052
190 0 80.1304 13.5279 1084 54.6725 1336.41 506.521
191 1 41.0947 10.6583 438 54.4794 1334.74 529.043
192 0 42.0479 11.3918 479 53.9228 1334.92 527.885
193 0 41.0362 11.5751 475 53.7979 1335.41 526.876
194 0 45.0728 12.8015 577 53.2253 1334.76 526.842
195 0 44.0604 11.5977 511 55.9667 1334.18 526.221
196 0 45.0493 10.3442 466 55.809 1335.08 525.479
197 0 49.1149 12.0737 593 52.6813 1335.39 527.528
198 0 50.0505 12.3076 616 53.0406 1335.22 527.971
199 0 54.0859 12.5356 678 53.9985 1334.8 525.26
200 0 53.0928 10.265 545 56.4495 1334.34 525.589
201 0 57.0748 10.5651 603 56.9038 1333.95 524.655
202 0 58.1423 11.8158 687 55.8763 1333.58 525.591
203 0 58.0637 11.3668 660 57.2364 1333.62 523.442
204 0 61.0646 12.6424 772 56.1244 1333.61 523.931
205 0 65.0978 13.3491 869 55.7871 1333.64 519.055
206 0 67.1051 12.6667 850 55.8082 1334.12 520.327
207 0 70.2107 10.7106 752 57.5133 1334.26 519.677
208 0 73.0625 13.6048 994 55.3742 1333.89 519.967
209 0 75.1168 12.2609 921 56.3268 1333.33 522.875
210 0 78.1655 12.384 968 57.5496 1332.69 519.424
211 0 78.0519 12.876 1005 57.0746 1333.07 520.16
212 1 42.0741 11.765 495 56.5899 1332.79 533.558
213 0 45.0617 11.2512 507 58.0454 1332.27 533.424
214 0 42.0334 10.2062 429 60.2867 1331.85 533.758
215 0 48.0321 12.0753 580 56.8586 1332.65 533.724
216 0 47.0673 11.6004 546 57.8388 1332.61 532.615
217 0 51.038 12.3829 632 58.5934 1331.84 530.949
218 0 52.1259 12.6233 658 57.9316 1332.26 530.549
219 0 53.0758 13.622 723 56.5159 1332.56 529.916
220 0 55.0731 11.1488 614 60.7818 1331.87 527.78
221 0 55.0645 14.0199 772 57.456 1331.65 529.934
222 0 58.0604 13.3482 775 57.1445 1332.4 529.001
223 0 59.0854 12.812 757 58.9802 1332.35 525.234
224 0 61.1116 11.7981 721 60.4716 1332.16 523.814
225 0 65.0453 12.7603 830 58.8916 1331.72 525.036
226 0 64.0542 13.1919 845 59.1065 1332.38 522.396
227 0 69.0655 14.5659 1006 57.1143 1332.45 522.337
228 0 66.0827 11.304 747 61.4632 1332.54 520.491
229 0 72.0637 13.5852 979 57.7896 1332.91 519.871
230 0 73.0594 13.797 1008 58.6409 1332.43 516.566
231 0 76.05 12.7153 967 59.5305 1333.02 515.364
232 0 80.1032 13.6324 1092 58.3379 1333.44 512.951
233 0 80.0343 12.4572 997 60.7352 1332.97 513.967
234 0 84.1368 13.8346 1164 59.5679 1332.19 513.876
235 0 85.1201 12.406 1056 61.0795 1333.28 510.387
236 1 40.0983 11.5217 462 58.7489 1332.88 530.24
237 0 42.0257 12.064 507 58.7988 1332.57 531.225
238 0 44.0482 12.0096 529 58.8601 1332.38 530.113
239 0 47.0544 11.4973 541 58.5268 1333.09 530.482
240 0 46.1205 13.0745 603 58.2753 1332.87 528.897
241 0 48.0392 11.8237 568 59.5 1332.46 529.188
242 0 47.0304 11.6095 546 59.8407 1333.02 527.042
243 0 49.0458 11.9684 587 58.8382 1332.77 528.511
244 0 52.0942 12.3622 644 59.1584 1332.54 526.717
245 0 55.1227 12.9166 712 57.0843 1333.57 526.132
246 0 55.0789 12.1644 670 58.2209 1333.99 523.27
247 0 56.1096 11.3171 635 59.3087 1333.63 523.978
248 0 57.2112 11.2391 643 58.3686 1334.42 521.515
249 0 58.0729 11.9333 693 58.7893 1333.65 522.195
250 0 60.0698 12.2691 737 58.8874 1333.44 520.528
251 0 66.0827 12.0607 797 56.5445 1333.92 524.186
252 0 65.203 11.8246 771 58.9559 1333.69 519.62
253 0 70.0906 12.9975 911 57.7464 1333.28 520.316
254 0 68.0562 13.3419 908 57.7852 1333.78 517.138
255 0 72.2135 11.0367 797 59.4918 1334.18 516.338
256 0 71.0929 9.03044 642 62.662 1333.37 516.224
257 0 75.0781 11.2416 844 60.1505 1334 515.522
258 0 80.088 12.8733 1031 58.1125 1333.84 516.181
259 0 82.2454 13.1314 1080 58.7806 1333.23 515.846
260 0 85.1696 13.9839 1191 56.8707 1334.06 515.29
261 0 82.0506 11.176 917 62.1996 1333.4 508.895
262 0 86.1665 11.1644 962 61.764 1333.2 510.192
263 0 91.0743 12.7369 1160 60.525 1333.12 509.209
264 0 91.0924 11.5158 1049 62.1897 1333.19 509.836
265 0 95.1819 12.765 1215 61.5243 1332.55 506.782
266 1 45.0677 10.1625 458 61.1463 1331.51 532.867
267 0 46.0959 12.9513 597 58.9648 1331.99 531.447
268 0 47.1702 12.9319 610 58.8557 1332.51 530.292
269 0 49.0809 11.7968 579 59.7219 1332.07 531.485
270 0 51.085 10.0617 514 60.8852 1332.03 530.761
271 0 54.1315 12.174 659 58.1745 1333.03 529.335
272 0 53.1031 12.052 640 59.3812 1332.58 530.056
273 0 56.0939 11.5877 650 60.9154 1331.43 529.254
274 0 57.1958 11.819 676 61.0281 1331.04 526.701
275 0 61.1814 11.1472 682 60.1056 1331.47 528.199
276 0 59.0972 11.168 660 61.6182 1331.75 524.608
277 0 64.095 13.7296 880 58.2182 1332.01 524.811
278 0 66.0573 11.7474 776 60.2822 1332.12 523.408
279 0 69.1077 11.2289 776 60.6869 1332.11 525.356
280 0 72.1666 12.194 880 59.4216 1332.31 524.459
281 0 71.1836 12.1236 863 61.8482 1331.55 519.674
282 0 75.1843 10.6937 804 62.694 1331.43 522.94
283 0 76.1295 11.9139 907 62.0915 1331.64 522.039
284 0 79.1458 11.7505 930 62.5151 1331.14 519.462
285 0 82.1984 12.8226 1054 61.5171 1331.39 518.205
286 0 83.1174 12.2477 1018 62.0904 1331.45 518.533
287 0 85.1144 12.8063 1090 62.3028 1331.54 516.895
288 0 88.1438 12.6498 1115 62.9085 1331.02 512.462
289 0 92.084 12.5538 1156 62.5009 1331.33 513.079
290 0 94.122 12.9088 1215 62.1045 1331.14 513.547
291 0 97.1708 13.0492 1268 62.3927 1331.24 512.603
292 0 101.106 13.1841 1333 62.5784 1331.5 507.67
293 0 101.188 10.5744 1070 65.3243 1331.64 507.188
294 0 106.281 11.94 1269 63.7762 1331.78 506.544
295 0 113.179 13.7305 1554 61.8475 1331.56 504.333
296 0 114.163 14.2691 1629 62.1289 1331.53 500.784
297 0 118.171 12.8627 1520 64.3145 1330.77 501.747
298 0 124.153 12.1463 1508 65.687 1330.47 499.613
299 0 126.19 12.7347 1607 65.4798 1331.42 494.482
300 0 132.135 12.2904 1624 65.8584 1330.96 494.794
301 1 69.1135 14.4111 996 61.9006 1330.36 521.628
302 0 70.0532 12.9758 909 63.4389 1330.78 520.672
303 0 73.2069 12.6081 923 63.7985 1330.44 520.974
304 0 74.051 11.6001 859 65.8813 1329.88 520.792
305 1 36.0393 11.8204 426 63.6831 1329.97 536.418
306 0 38.0243 11.1245 423 64.9551 1329.39 536.34
307 0 38.1149 12.3311 470 63.0085 1330.01 536.192
308 0 40.0184 10.2453 410 64.2732 1330.48 536.812
309 0 42.0652 11.8625 499 64.2365 1329.63 535.196
310 0 41.0228 12.0177 493 64.2941 1330.03 534.966
311 0 42.0396 12.6309 531 63.3917 1330.07 535.075
312 0 46.0381 11.9032 548 63.5949 1329.95 535.256
313 0 48.1249 12.4883 601 64.0183 1329.49 533.105
314 0 48.0608 11.3606 546 64.1923 1330.17 533.952
315 0 47.0829 11.7452 553 65.8535 1330.09 531.593
316 0 50.0732 10.5446 528 65.1231 1330.48 533.526
317 0 49.1955 11.0579 544 64.7996 1330.63 532.596
318 0 52.0936 11.0378 575 66.0191 1329.96 531.922
319 0 54.1904 11.9578 648 65.7778 1330.73 527.721
320 1 114.091 12.192 1391 68.8771 1331.01 501.935
321 0 118.165 13.845 1636 66.566 1331.18 500.152
322 0 122.089 12.8185 1565 68.678 1331.07 496.789
323 1 189.252 11.8202 2237 71.481 1331.23 466.784
324 0 196.272 12.7476 2502 69.4025 1331.29 469.264
325 1 64.1702 12.5759 807 65.7893 1330.97 523.988
326 0 65.1994 10.8897 710 67.8465 1331.26 524.716
327 0 68.0658 12.2529 834 66.0288 1331.68 524.252
328 0 69.0492 12.8749 889 66.6828 1331.46 522.492
329 0 69.1118 11.6044 802 69.8342 1331.23 520.535
330 0 77.0607 11.5364 889 68.4263 1331.09 520.155
331 0 76.1449 13.2379 1008 67.7946 1331.2 516.22
332 0 75.1063 12.2094 917 67.759 1331.73 520.615
333 0 80.13 13.1287 1052 67.7034 1331.84 515.193
334 0 83.1252 13.9549 1160 67.3095 1331.56 513.897
335 1 42.0692 12.3131 518 65.9286 1330.87 533.598
336 0 41.0912 11.3893 468 67.2286 1331.18 532.111
337 0 45.1113 11.7044 528 66.5208 1331.02 531.822
338 0 46.0528 11.7257 540 66.1852 1331.05 530.828
339 0 46.0846 12.629 582 66.2474 1330.95 529.326
340 0 49.0554 12.4757 612 64.3873 1331.29 531.962
341 0 50.071 13.8004 691 64.547 1330.72 528.698
342 0 52.0711 14.7491 768 62.5495 1330.97 527.21
343 0 56.0881 13.9245 781 62.79 1331.52 525.329
344 0 56.0425 13.1864 739 63.299 1331.41 526.31
345 0 55.1137 11.4309 630 65.5778 1331.7 525.243
346 0 61.2267 13.4908 826 62.7397 1331.14 525.011
347 0 62.0999 12.3511 767 64.2386 1331.57 523.21
348 0 65.0335 14.2696 928 61.6185 1330.84 522.857
349 0 64.1166 12.2277 784 65.0421 1330.3 521.969
350 0 66.0302 11.631 768 64.1432 1331.27 521.751
351 0 70.0757 12.4009 869 62.0978 1331.58 520.726
352 0 72.0528 12.1161 873 62.5452 1331.13 519.014
353 0 74.0875 11.8778 880 63.3443 1330.91 516.839
354 0 78.0899 11.8069 922 62.4393 1331.76 514.474
355 0 78.0437 12.7621 996 62.008 1331.49 513.75
356 1 40.027 12.4916 500 58.838 1331.64 532.212
357 0 39.089 9.7214 380 61.8158 1331.38 533.087
358 0 45.024 12.5711 566 58.129 1331.41 532.422
359 0 45.0646 12.3379 556 58.8993 1331.32 532.083
360 0 46.0225 12.2331 563 59.0693 1331.33 530.893
361 0 47.0764 13.2338 623 58.7175 1330.97 530.664
362 0 49.0549 13.7805 676 58.1849 1331.13 528.328
363 0 50.0531 12.9862 650 58.5062 1331.32 528.646
364 0 51.0472 12.1652 621 59.0531 1331.91 526.744
365 0 53.099 10.9607 582 60.3643 1331.56 526.557
366 0 55.1062 14.6626 808 56.7624 1331.62 524.728
367 0 57.0187 13.3991 764 58.373 1331.27 523.847
368 0 57.052 13.1108 748 58.7981 1331.27 524.822
369 0 58.2922 11.7683 686 59.2638 1331.32 526.055
370 0 61.1011 11.2273 686 59.9577 1331.98 521.141
371 0 65.0995 12.9033 840 58.0583 1331.7 521.677
372 0 68.05 13.8134 940 57.0628 1331.64 521.79
373 0 70.0785 13.2708 930 57.7086 1331.43 522.003
374 0 71.0475 11.3867 809 59.8195 1331.41 520.205
375 0 71.0939 11.731 834 59.7242 1331.77 519.092
376 0 75.1429 13.7338 1032 57.7568 1331.8 516.366
377 0 76.0857 12.7619 971 59.9454 1331.61 512.915
378 0 78.1297 11.0969 867 61.8454 1330.98 514.933
379 0 83.1038 12.346 1026 60.4581 1330.59 513.695
380 0 84.1963 11.9245 1004 61.6265 1330.46 512.712
381 0 89.0862 12.1231 1080 60.0852 1330.79 516.141
382 1 43.0266 11.7602 506 60.8142 1330.35 529.777
383 0 46.0845 11.6742 538 59.9517 1330.87 530.688
384 0 48.1437 13.8336 666 57.7793 1330.96 530.004
385 0 48.1006 11.1225 535 60.9084 1331.22 528.531
386 0 51.069 12.4537 636 59.6855 1330.33 528.764
387 0 52.0916 11.595 604 60.7036 1330.44 527.987
388 0 54.0376 11.6586 630 60.0365 1330.76 527.878
389 0 55.0371 12.7005 699 59.495 1330.4 528.732
390 0 58.1572 11.6581 678 59.5177 1331.44 527.229
391 0 57.0832 10.0029 571 62.0876 1331.52 524.035
392 0 60.1338 11.9567 719 59.3825 1331.36 526.14
393 0 61.1316 11.2544 688 60.7369 1331.35 523.483
394 0 64.2502 11.7198 753 61.3174 1330.92 520.718
395 0 66.1057 11.6631 771 61.5279 1330.71 521.206
396 0 69.1131 15.6989 1085 57.1124 1331.07 519.57
397 0 71.1672 12.9835 924 60.5952 1331.07 517.227
398 0 73.106 13.1179 959 60.6632 1331.44 516.722
399 0 75.074 12.6275 948 61.6561 1331.33 515.039
400 0 77.1985 11.6971 903 62.3865 1331.44 516.873
401 0 78.1762 10.7705 842 63.9097 1331.69 512.732
402 0 82.0768 11.3796 934 62.9829 1331.32 514.657
403 1 41.0889 8.59113 353 60.4901 1331.59 537.734
404 0 41.1076 10.8009 444 60.3581 1332.02 533.606
405 0 44.0248 12.493 550 58.3073 1331.74 533.965
406 0 43.1745 12.2063 527 60.0873 1331.56 533.596
407 0 46.1868 11.5834 535 61.3402 1331.3 530.918
408 0 45.0271 9.61644 433 63.9053 1330.79 532.483
409 0 48.0309 12.0547 579 62.1485 1330.77 530.577
410 0 49.0898 11.3669 558 63.509 1330.55 529.652
411 0 51.0194 12.2894 627 62.882 1330.57 527.987
412 0 54.0641 13.632 737 60.882 1330.58 528.292
413 0 57.037 12.4831 712 61.5393 1330.82 527.184
414 0 57.0687 12.1608 694 63.4294 1330.64 524.295
415 0 59.0197 13.6056 803 61.5766 1330.37 524.568
416 0 58.0641 10.764 625 64.4448 1331.38 522.52
417 0 62.1094 11.3992 708 63.3573 1331.68 522.123
418 0 66.1137 10.9357 723 63.1936 1331.25 523.656
419 0 67.1165 13.782 925 62.0897 1330.31 519.123
420 0 69.0891 12.7227 879 63.0501 1330.23 520.539
421 0 71.1407 11.92 848 64.9281 1330.06 516.741
422 0 74.0828 13.4039 993 62.5438 1330.94 517.422
423 0 75.1764 12.4108 933 64.089 1330.76 517.094
424 0 78.1505 13.1413 1027 63.1344 1330.78 513.91
425 0 79.1251 12.0063 950 64.6558 1330.7 514.36
426 0 83.0724 12.5794 1045 64.5407 1330.77 511.621
427 1 42.0467 11.6537 490 61.8224 1331.21 532.124
428 0 44.0483 13.0085 573 61.0908 1330.73 531.291
429 0 43.039 9.85152 424 65.2146 1330.32 529.776
430 0 47.0158 10.0179 471 64.017 1331.19 529.45
431 0 46.0755 8.78992 405 64.6642 1330.98 531.138
432 0 49.0305 11.605 569 62.768 1331.02 528.847
433 0 50.0897 11.16 559 63.3739 1331.08 527.478
434 0 52.0762 10.8687 566 63.3622 1331.04 526.668
435 0 53.0308 11.2388 596 63.2315 1331.31 527.116
436 0 55.028 10.9581 603 63.6086 1331.18 523.532
437 0 54.0389 10.6775 577 64.5927 1330.96 526.057
438 0 57.0511 11.218 640 63.7625 1331.25 520.702
439 0 58.0293 10.0639 584 65.2825 1331.11 518.896
440 0 62.0896 11.113 690 64.6116 1330.31 520.884
441 0 62.099 9.75862 606 65.1766 1331.44 518.97
442 0 66.1273 10.8276 716 64.0293 1331.77 517.318
443 0 69.0512 8.45749 584 66.2312 1331.8 514.461
444 0 71.0436 11.5704 822 63.2299 1331.49 515.515
445 0 73.1388 9.50248 695 65.1813 1331.49 514.278
446 0 77.0788 10.2103 787 64.8183 1331.37 510.399
447 1 42.0514 10.9628 461 59.7072 1331.32 533.232
448 0 43.0382 10.7811 464 59.25 1331.44 532.696
449 0 44.0382 11.9896 528 58.3333 1331.12 532.581
450 0 45.1967 12.1912 551 58.5263 1331.52 530.811
451 0 47.0651 10.8998 513 60.154 1330.62 529.725
452 0 48.0421 11.594 557 59.1023 1330.95 530.596
453 0 50.1176 10.4554 524 59.6221 1331.97 528.298
454 0 53.0471 12.2344 649 58.0755 1331.13 527.624
455 0 53.1853 13.2179 703 56.3556 1332.18 527.76
456 0 54.146 11.8568 642 58.4564 1332.06 525.38
457 0 57.0652 11.2853 644 59.1879 1331.72 525.404
458 0 60.0802 12.3835 744 56.8091 1332.28 526.005
459 0 61.0628 12.4626 761 57.6675 1331.54 523.499
460 0 59.0766 9.42844 557 62.0215 1331.55 520.752
461 0 62.0835 9.47111 588 61.665 1331.57 521.738
462 0 63.0413 11.9128 751 59.9334 1330.84 518.708
463 0 69.1174 11.7626 813 59.2103 1330.62 518.761
464 0 71.0825 11.1138 790 59.3633 1330.96 519.285
465 0 73.0948 12.4906 913 58.5893 1331.02 517.153
466 0 76.1636 11.5803 882 59.4444 1331.02 514.025
467 0 78.1526 11.1193 869 59.4338 1331.34 517.018
468 0 80.1686 10.3781 832 60.5938 1331.27 513.52
469 0 83.1344 10.6454 885 59.8113 1330.97 516.131
470 1 43.037 11.0603 476 57.9601 1330.73 532.414
471 0 45.0808 11.4239 515 58.2369 1330.42 530.767
472 0 49.0449 12.1317 595 57.0487 1330.21 530.686
473 0 48.1008 13.4093 645 56.276 1330.26 528.554
474 0 50.0806 10.5031 526 58.8479 1330.81 526.466
475 0 53.2619 12.7859 681 56.279 1330.66 527.361
476 0 52.1567 9.18386 479 60.4697 1330.53 525.875
477 0 57.0821 11.4397 653 57.4701 1330.18 527.263
478 0 58.2146 11.8012 687 56.6565 1330.76 524.431
479 0 61.0774 12.0339 735 55.966 1330.59 525.483
480 0 63.0584 10.7044 675 57.2341 1330.7 524.41
481 0 66.1405 12.035 796 56.1369 1330.33 520.992
482 0 66.1262 11.599 767 57.2177 1329.94 520.82
483 0 68.2037 11.319 772 57.0609 1330.68 518.461
484 0 72.1987 12.424 897 55.0446 1330.7 518.327
485 0 73.1713 12.0812 884 55.509 1330.96 516.527
486 0 76.144 12.0167 915 55.6951 1330.64 511.256
487 0 81.1284 14.0641 1141 52.2664 1331.06 517.464
488 0 81.0794 11.7416 952 55.458 1330.93 513.855
489 0 85.0723 11.4373 973 55.7359 1330.34 510.842
490 0 85.1439 11.6861 995 55.7236 1330.28 511.239
491 0 89.2251 11.6559 1040 55.6442 1330.98 508.269
492 1 43.033 10.9218 470 53.617 1329.84 533.438
493 0 45.1671 10.8043 488 53.8217 1329.48 532.283
494 0 43.0297 9.71422 418 55.1148 1330.2 530.617
495 0 44.0715 9.91571 437 55.119 1330.46 529.16
496 0 48.073 10.9417 526 54.0019 1329.52 528.679
497 0 48.1143 11.1194 535 53.7608 1330.44 526.06
498 0 51.1471 12.2588 627 52.4593 1330.12 525.404
499 0 52.0338 11.8961 619 52.874 1330.46 525.194
500 0 56.0946 11.2667 632 53.0744 1330.17 524.654
501 0 55.0516 11.9161 656 51.9726 1331.13 523.599
502 0 56.0973 11.9792 672 52.7381 1330.29 522.795
503 0 60.14 10.4922 631 53.5372 1330.51 521.586
504 0 60.1684 10.0884 607 53.9506 1330.56 519.741
505 0 63.1462 10.9112 689 52.9173 1330.47 517.34
506 0 66.2087 12.1434 804 51.6667 1330.42 519.388
507 0 66.0581 11.0206 728 52.8379 1330.56 516.154
508 0 69.0524 9.99241 690 53.9464 1330.75 514.933
509 0 71.1098 11.5455 821 52.3593 1330.68 513.197
510 0 73.1358 11.7726 861 52.2741 1329.91 517.027
511 0 76.2113 11.7043 892 52.0919 1330.97 513.104
512 0 80.1201 11.8322 948 52.1973 1330.25 513.92
513 0 81.1239 12.4994 1014 52.142 1330.35 509.614
514 0 85.0505 12.0752 1027 52.3272 1330.23 509.628
515 0 87.1728 12.5727 1096 52.0201 1330.23 508.112
516 0 88.1297 11.2675 993 53.5216 1329.9 504.502
517 0 94.1465 12.8098 1206 52.1774 1329.8 505.277
518 0 93.1312 9.10543 848 55.6592 1330.56 500.719
519 1 44.0177 9.79152 431 53.7471 1329.34 527.09
520 0 46.0696 10.0283 462 53.1732 1329.27 527.489
521 0 47.0482 10.8399 510 52.2451 1330.14 525.973
522 0 48.0704 8.38353 403 54.3424 1329.99 527.509
523 0 51.0342 8.58248 438 54.4132 1329.43 523.879
524 0 52.0602 9.81556 511 53.3366 1329.38 524.755
525 0 54.0518 10.675 577 52.5321 1329.37 523.678
526 0 58.0909 11.6369 676 51.0178 1329.12 524.882
527 0 56.0257 11.0306 618 51.89 1329.53 524.396
528 0 58.0839 10.3815 603 53.1791 1329.78 519.592
529 0 62.0584 10.5707 656 52.5762 1329.47 519.851
530 0 64.1039 11.9493 766 51.8473 1329.62 517.708
531 0 65.0584 10.9901 715 52.8853 1329.74 516.966
532 0 67.0292 11.5174 772 52.7552 1329.76 517.146
533 0 70.0562 12.5328 878 51.9203 1329.83 518.002
534 0 75.084 11.041 829 52.6393 1330.37 517.858
535 0 76.1387 12.8187 976 51.6117 1330.21 515.753
536 0 79.1558 10.3972 823 54.1154 1329.95 515.186
537 0 81.1431 12.4964 1014 52.0868 1329.96 514.069
538 1 42.0123 11.5918 487 50.9856 1330.01 530.975
539 0 42.0524 11.3906 479 50.7871 1330 532.712
540 0 43.0787 9.37818 404 52.9975 1330.18 531.228
541 0 48.0662 11.3801 547 51.0622 1329.54 530.982
542 0 47.0382 13.2658 624 49.6458 1330.25 529.905
543 0 49.1111 10.2828 505 53.2495 1330.09 527.154
544 0 49.0558 11.3544 557 52.2926 1330.46 528.664
545 0 51.0476 13.0858 668 51.1647 1330.12 527.742
546 0 53.1739 11.6034 617 52.3355 1330.24 528.149
547 0 55.063 12.9851 715 51.4042 1330 525.301
548 0 56.1098 12.0835 678 52.1652 1330.3 524.878
549 0 57.0368 11.5539 659 52.9135 1329.39 524.458
550 0 61.2136 11.9255 730 51.9521 1329.37 526.625
551 0 60.0969 12.3467 742 52.531 1329.21 524.438
552 0 63.113 11.8676 749 53.1455 1329.48 523.071
553 0 64.1521 12.1118 777 53.1634 1329.99 520.766
554 0 64.0933 12.6222 809 53.3894 1329.48 520.899
555 0 68.0766 12.0599 821 53.7564 1329.71 519.04
556 0 69.0925 11.3326 783 53.9936 1329.95 519.36
557 0 72.1234 12.9223 932 52.6878 1330.26 516.937
558 0 74.0537 11.2756 835 54.091 1330.73 517.465
559 1 35.0304 10.9619 384 51.612 1329.73 535.81
560 0 37.0554 11.4963 426 51.3263 1330.07 533.486
561 0 38.0848 11.7895 449 50.7305 1330.36 535.267
562 0 39.0263 10.0189 391 52.757 1330.52 534.141
563 0 39.1647 8.96215 351 54.4501 1330.33 533.276
564 0 41.029 11.9184 489 51.8671 1330.17 533.577
565 0 43.0334 9.59719 413 54.293 1329.72 533.642
566 0 43.1041 9.88304 426 53.6761 1330.13 533.636
567 0 45.0801 12.2671 553 51.5859 1330.85 532.372
568 0 44.1599 9.89586 437 54.286 1330.41 533.066
569 0 46.0653 11.2015 516 53.626 1330.33 529.306
570 0 46.0869 12.3246 568 53.118 1329.68 531.577
571 0 49.0368 11.6851 573 53.1501 1329.32 532.019
572 0 49.064 12.8404 630 52.9857 1330.33 527.924
573 0 50.0523 11.9875 600 53.9483 1330.3 527.175
574 0 53.0981 11.9967 637 53.2245 1330.58 527.411
575 0 53.0516 11.9883 636 54.4497 1330.27 525.805
576 0 56.0584 12.1837 683 54.1083 1330.18 523.82
577 0 57.0234 10.294 587 55.5264 1330.87 523.831
578 0 59.0918 13.1321 776 52.7358 1331.34 522.008
579 0 62.0592 11.2796 700 53.8229 1331.69 523.459
580 0 65.1232 11.0867 722 54.0429 1332.34 521.436
581 0 67.0943 11.387 764 54.555 1332.08 517.662
582 0 70.1025 12.7528 894 52.9664 1331.89 518.249
583 0 70.0423 10.8078 757 55.5944 1331.73 518.069
584 0 73.0718 12.563 918 54.8279 1331.56 514.246
585 0 76.1434 10.9267 832 56.6082 1330.96 514.133
586 0 77.136 11.5769 893 57.0291 1330.35 512.252
587 1 42.0126 10.9729 461 55.0542 1330.33 531.076
588 0 44.0104 8.97515 395 56.2101 1330.6 532.322
589 0 46.0266 9.69005 446 57.1323 1329.78 528.987
590 0 46.0786 10.9378 504 56.5218 1329.3 528.04
591 0 48.0381 10.3876 499 56.8016 1330.19 527.351
592 0 48.0782 10.0253 482 57.249 1330.13 528.313
593 0 51.1119 12.6194 645 54.707 1330.21 527.301
594 0 53.0264 11.8054 626 55.6773 1329.78 526.305
595 0 53.0749 11.5686 614 55.5293 1330.15 527.52
596 0 56.2777 10.999 619 55.9402 1330.38 526.969
597 0 60.0232 12.1453 729 55.2867 1329.12 525.224
598 0 61.0385 13.1392 802 53.9963 1330.2 522.17
599 0 63.0989 11.7435 741 55.4292 1329.99 524.544
600 0 64.051 10.8976 698 56.8682 1329.85 521.734
601 0 68.0761 14.5866 993 52.2669 1330.69 521.807
602 0 69.0278 12.0821 834 55.5252 1330.56 519.392
603 0 70.0379 11.2939 791 56.1631 1331.09 517.839
604 0 73.1608 11.4816 840 55.8857 1330.53 514.744
605 0 74.1166 11.6438 863 55.9988 1330.53 517.202
606 0 77.0903 11.519 888 56.0878 1330.82 512.311
607 0 80.1024 11.735 940 56.0117 1331.16 511.327
608 0 83.0835 13.36 1110 54.4568 1330.63 512.281
609 0 86.1711 12.3939 1068 55.9869 1331.09 507.193
610 1 42.0222 10.7086 450 54.5289 1330.21 531.347
611 0 39.1253 10.2491 401 54.7955 1331.08 531.476
612 0 45.0654 12.6261 569 52.6801 1330.62 528.432
613 0 43.0921 10.582 456 55.3268 1330.65 528.735
614 0 47.0445 10.1606 478 54.3138 1331.31 529.78
615 0 49.0814 10.9818 539 52.8238 1331.12 529.674
616 0 48.1225 12.5305 603 52.0498 1331.37 528.101
617 0 51.0914 13.2508 677 51.9778 1331.31 524.032
618 0 54.0765 10.9659 593 53.6796 1330.83 525.548
619 0 54.1442 11.0446 598 54.2057 1331.12 522.6
620 0 56.08 12.0186 674 53.2611 1331.31 519.887
621 0 58.1568 10.4373 607 53.883 1331.11 520.886
622 0 61.1084 11.0296 674 53.4629 1330.54 522.975
623 0 62.0501 12.0548 748 52.7072 1330.99 521.368
624 0 66.0457 12.0068 793 52.2106 1330.89 520.02
625 0 66.1056 9.15202 605 54.8777 1331.38 519.089
626 0 69.0419 10.7036 739 53.6441 1331.12 516.015
627 0 72.1467 13.6805 987 51.386 1330.79 512.212
628 0 72.0728 10.0176 722 54.8892 1331.33 510.508
629 0 78.1597 12.0778 944 52.822 1331.45 511.689
630 0 80.0731 11.6269 931 53.1482 1331.06 511.208
631 1 40.0346 8.39273 336 55.2113 1330.32 528.223
632 0 45.0926 10.9552 494 52.3623 1330.74 528.836
633 0 44.0329 8.87972 391 54.3913 1331.06 527.534
634 0 44.0404 8.1062 357 55.2213 1330.77 526.221
635 0 48.0452 10.5526 507 52.9231 1331.13 522.795
636 0 50.136 10.9901 551 52.3212 1331.95 520.973
637 0 49.1547 10.945 538 52.2658 1332.06 519.591
638 0 51.0358 11.2078 572 51.8601 1331.57 522.731
639 0 53.1848 12.2592 652 51.1718 1331.3 523.753
640 0 53.0768 11.3421 602 53.289 1330.8 521.412
641 0 55.0506 10.8627 598 52.6956 1331.42 523.191
642 0 58.1208 10.0308 583 53.6432 1331.38 519.448
643 0 60.0414 12.125 728 51.8571 1331.06 515.214
644 0 62.0784 10.5995 658 53.3921 1330.68 517.808
645 0 66.0468 10.9014 720 52.7986 1331.21 517.653
646 0 67.0697 9.25903 621 54.4911 1331.55 513.849
647 0 71.0965 11.9697 851 52.228 1330.81 512.429
648 0 74.0622 10.1536 752 54.4654 1329.97 510.766
649 0 77.1312 12.3945 956 52.091 1330.64 509.632
650 0 80.1225 12.2188 979 51.7375 1331.67 509.332
651 0 82.1543 9.84732 809 54.3585 1331.26 505.975
652 0 87.1122 11.1695 973 52.7451 1331.17 510.112
653 1 45.0343 10.814 487 51.347 1331.08 527.928
654 0 46.029 11.319 521 51.2035 1331.2 525.547
655 0 45.0155 11.0406 497 51.9054 1331.38 526.223
656 0 48.0433 11.5313 554 51.5596 1330.99 527.029
657 0 48.0202 9.97497 479 52.8038 1331.45 527.257
658 0 49.024 8.42445 413 54.8136 1330.99 526.16
659 0 52.045 9.91449 516 54.2636 1331.06 523.128
660 0 54.162 10.1547 550 53.1782 1331.67 521.607
661 0 56.0511 10.4904 588 52.767 1331.26 523.202
662 0 58.1949 11.324 659 52.0986 1331.65 520.208
663 0 63.0687 12.8748 812 50.2931 1331.14 522.629
664 0 61.1076 12.1425 742 51.1213 1330.83 521.852
665 0 62.0872 10.1148 628 53.1656 1331.12 518.382
666 0 66.0958 10.5756 699 52.7983 1331.28 518.014
667 0 68.2842 11.5254 787 51.9009 1331.43 516.428
668 0 70.227 13.1004 920 50.512 1331.32 515.809
669 0 73.0831 11.0696 809 52.0556 1331.02 516.57
670 0 74.334 12.2017 907 51.1103 1331.5 514.653
671 0 77.0815 10.5992 817 52.5104 1331.77 510.395
672 1 37.0587 8.17623 303 52.1122 1331.06 533.007
673 0 39.1196 9.04917 354 51.7825 1331.26 531.658
674 0 42.052 11.3431 477 49.7526 1331.44 529.681
675 0 42.0553 10.5813 445 50.6764 1331.58 529.038
676 0 40.0628 7.03895 282 53.0496 1332.2 529.089
677 0 47.2216 12.1766 575 48.9391 1331.78 526.459
678 0 48.0249 9.84905 473 50.5624 1331.59 528.457
679 0 50.0846 11.0812 555 50.2414 1330.91 527.535
680 0 52.0949 12.0933 630 48.7302 1330.5 527.851
681 0 53.1003 11.5254 612 49.4657 1331.56 523.645
682 0 55.1373 10.8275 597 48.737 1331.86 526.946
683 0 54.1393 10.8978 590 49.7322 1331.76 523.236
684 0 56.1211 12.8829 723 47.7427 1331.96 523.501
685 0 58.131 11.9386 694 48.9438 1331.62 521.323
686 0 62.0635 11.1821 694 49.4553 1331.73 521.703
687 0 63.1359 11.3406 716 49.9176 1331.47 519.008
688 0 62.0556 9.42703 585 51.4547 1331.53 520.06
689 0 69.0791 11.6388 804 49.4751 1331.05 516.364
690 0 69.0785 9.75701 674 51.1172 1331.57 516.941
691 0 73.1479 9.26889 678 51.0398 1331.89 516.537
692 0 72.1338 11.3262 817 50.1995 1331.62 513.77
693 0 75.1142 10.8102 812 50.8202 1331.21 514.332
694 1 38.0688 9.22015 351 49.8205 1331.13 531.675
695 0 40.0217 12.4682 499 47.3607 1331.24 531.531
696 0 41.0772 7.57112 311 51.701 1331.09 527.978
697 0 41.0257 12.1631 499 48.3126 1331.07 527.966
698 0 43.0579 11.1246 479 48.7808 1330.95 529.134
699 0 44.0458 10.7842 475 50.1137 1330.44 528.398
700 0 46.0616 11.7452 541 48.403 1331.37 526.36
701 0 46.1472 9.79475 452 50.4027 1331.1 526.261
702 0 48.0465 9.53243 458 51.3843 1330.68 523.845
703 0 46.0704 8.11801 374 52.8984 1331.17 523.056
704 0 50.2582 9.82925 494 50.8846 1331.01 522.648
705 0 53.0659 11.0617 587 49.7155 1331.4 524.78
706 0 54.019 11.533 623 49.1477 1331.69 522.568
707 0 53.0543 9.48084 503 51.0954 1331.45 523.489
708 0 58.0506 11.5244 669 49.5979 1330.73 523.284
709 0 58.1052 9.89584 575 50.9478 1330.99 522.555
710 0 59.1591 10.5478 624 50.633 1330.81 523.913
711 0 62.0217 11.2219 696 50.625 1331.12 520.937
712 0 63.0508 9.94437 627 51.5534 1331.37 517.735
713 0 65.1364 9.9637 649 51.1202 1331.53 519.75
714 0 69.131 12.1509 840 49.3607 1331.9 516.586
715 0 72.1059 10.6649 769 50.6268 1331.49 516.116
716 0 70.1891 8.10667 569 53.1845 1331.42 514.889
717 0 75.1396 12.7097 955 49.2262 1331.8 512.866
718 0 77.0881 9.7421 751 51.7364 1331.62 511.619
719 0 77.2008 9.45585 730 52.2164 1331.67 511.882
720 0 83.2138 11.2001 932 51.4989 1330.8 510.446
721 1 40.0769 11.6027 465 48.8645 1331.75 529.617
722 0 41.1019 10.0239 412 50.5801 1330.45 532.655
723 0 42.0866 10.7873 454 50.1057 1330.64 531.458
724 0 43.1293 9.76134 421 50.5796 1331.28 530.197
725 0 43.1228 9.27584 400 51.965 1331.08 526.515
726 0 47.0589 11.4112 537 48.0112 1331.45 527.443
727 0 50.0636 13.5228 677 47.1935 1330.9 526.628
728 0 48.1506 11.0487 532 50.1128 1330.85 526.838
729 0 52.0494 10.5477 549 50.5556 1330.58 525.905
730 0 53.0524 10.0844 535 50.9607 1330.36 523.987
731 0 54.0928 10.0198 542 51.5609 1329.93 525.319
732 0 55.0899 9.40281 518 52.3398 1330.45 524.257
733 0 59.3104 12.1395 720 49.5694 1330.4 523.419
734 0 59.0903 12.2355 723 49.8036 1330.17 519.311
735 0 62.0476 10.3308 641 50.2309 1331.31 520.87
736 0 63.0748 10.8443 684 49.9108 1331.68 519.98
737 0 66.061 12.2765 811 49.344 1330.55 519.027
738 0 69.0498 12.6286 872 48.6835 1330.55 517.682
739 0 70.0628 11.2899 791 50.4665 1329.97 515.13
740 0 71.1162 10.7852 767 50.5567 1330.42 516.005
741 0 75.2407 12.2407 921 49.4061 1330.66 511.413
742 0 77.195 11.3608 877 49.3672 1331.41 516.982
743 0 83.1939 13.8472 1152 47.816 1330.45 511.074
744 0 82.2238 11.2863 928 50.1961 1330.58 507.393
745 0 86.0871 13.0449 1123 48.3019 1330.73 510.902
746 1 43.0563 10.1727 438 49.9018 1330.63 528.288
747 0 47.0546 11.4548 539 48.9276 1330.43 526.852
748 0 49.0445 10.4191 511 48.2896 1331.61 529.407
749 0 49.0477 11.601 569 48.2179 1331.3 525.51
750 0 53.1217 12.0478 640 47.4625 1331.2 525.673
751 0 53.0637 14.3601 762 45.4908 1331.75 524.268
752 0 56.1263 11.8126 663 47.0452 1331.99 525.176
753 0 55.0918 10.5642 582 48.732 1331.88 524.711
754 0 60.1501 10.7897 649 48.094 1331.49 523.71
755 0 60.0724 12.9843 780 47.0154 1331.26 522.704
756 0 61.2342 11.4479 701 47.4294 1331.16 525.057
757 0 64.0425 13.0538 836 46.9318 1331.42 519.501
758 0 61.1056 10.4246 637 49.3893 1331.8 518.168
759 0 67.1079 11.9807 804 47.8308 1331.68 515.585
760 0 70.0638 11.1184 779 48.6393 1331.94 516.564
761 0 72.1589 10.172 734 49.3665 1331.31 518.862
762 0 76.0425 11.9144 906 48.6534 1331.48 514.068
763 0 75.1961 10.7053 805 50.3801 1331.37 512.742
764 0 80.1901 11.9092 955 49.245 1331.24 512.246
765 0 83.0859 11.9756 995 49.5025 1331.47 509.206
766 0 84.053 11.9567 1005 49.4746 1332.66 507.682
767 0 87.1961 11.7781 1027 50.1081 1331.52 508.354
768 0 91.1862 12.4909 1139 49.2441 1331.16 508.52
769 0 91.17 11.7253 1069 50.6155 1330.81 508.727
770 1 50.0788 10.144 508 50.0709 1330.3 529.862
771 0 51.1154 9.86004 504 50.5714 1330.79 528.804
772 0 49.0859 11.1845 549 49.5464 1331.29 527.097
773 0 52.1122 10.8228 564 49.2996 1330.65 529.426
774 0 56.0646 12.8245 719 47.6231 1331.02 528.337
775 0 58.0716 11.9508 694 48.8444 1331.18 524.618
776 0 60.0706 12.1524 730 48.6521 1331.38 522.981
777 0 61.0516 12.3175 752 48.9548 1330.84 520.146
778 0 64.0523 12.3493 791 48.5006 1330.97 521.344
779 0 65.2117 12.2064 796 49.1558 1331.27 517.621
780 0 67.205 13.8829 933 47.0397 1331.04 522.16
781 0 68.1187 12.3461 841 48.893 1331.22 517.69
782 0 71.0552 12.7647 907 48.5436 1331.33 516.117
783 0 74.172 10.4756 777 50.2407 1331.63 511.288
784 0 76.1111 12.1796 927 48.8857 1331.39 513.266
785 0 79.1764 11.7965 934 48.9914 1331.13 512.584
786 0 81.1645 11.7416 953 49.6653 1330.9 508.466
787 0 83.151 13.6018 1131 48.4359 1330.88 507.222
788 0 88.1139 14.2656 1257 47.4726 1330.54 507.858
789 0 90.1728 11.489 1036 50.0077 1330.69 509.133
790 0 94.1464 13.1922 1242 48.8977 1330.92 505.948
791 0 94.0978 13.6773 1287 49.3761 1330.13 500.344
792 1 44.1268 9.42737 416 50.8245 1330.67 527.058
793 0 47.0846 12.4881 588 47.7007 1331.19 527.446
794 0 49.0847 12.6516 621 47.9179 1331.15 526.288
795 0 50.0454 11.0899 555 48.9153 1330.94 529.667
796 0 51.195 12.5208 641 48.3292 1330.59 526.7
797 0 55.1472 11.3696 627 49.2903 1330.75 525.182
798 0 53.064 10.101 536 50.8097 1330.58 522.912
799 0 56.2088 9.71379 546 50.7967 1330.8 520.934
800 0 58.0616 11.815 686 49.7347 1330.18 522.932
801 0 62.1174 13.6999 851 47.9459 1330.77 521.843
802 0 62.0442 11.9109 739 50.2382 1330.2 519.503
803 0 64.2636 11.4684 737 50.1411 1330.5 521.153
804 0 68.1194 11.4945 783 49.6284 1330.6 522.234
805 0 68.158 11.9135 812 50.2635 1330.49 517.254
806 0 69.1175 12.1677 841 50.6492 1329.96 515.029
807 0 72.1332 9.49633 685 52.0686 1330.8 516.921
808 0 75.345 12.1441 915 50.2546 1331.05 516.106
809 0 75.157 11.6024 872 51.1743 1331.02 516.611
810 0 80.1775 12.3601 991 50.5288 1331.03 513.985
811 0 83.0856 12.3006 1022 51.1252 1331.22 510.85
812 1 39.0794 9.21202 360 52.1611 1330.55 532.933
813 0 43.1298 11.3147 488 51.0902 1330.28 532.662
814 0 44.1141 13.4424 593 48.9191 1330.84 532.573
815 0 42.1056 10.7587 453 53.2053 1330.24 531.543
816 0 45.0598 11.6512 525 52.2495 1330.37 531.545
817 0 49.148 12.3301 606 51.2475 1330.3 531.203
818 0 50.0708 13.3611 669 50.2347 1330.36 531.072
819 0 51.026 12.2095 623 51.7624 1329.82 530.926
820 0 50.0993 11.4573 574 53.2247 1329.99 527.739
821 0 50.0561 11.6869 585 53.3692 1330.25 524.61
822 0 54.0842 13.9042 752 51.2912 1329.93 524.71
823 0 58.0935 12.325 716 51.5726 1330.49 526.112
824 0 58.1382 11.0942 645 52.9612 1330.08 526.363
825 0 60.0409 10.5595 634 53.7666 1330.39 523.744
826 0 62.1106 10.7228 666 53.9069 1329.9 523.616
827 0 67.1079 12.6513 849 51.7656 1330.04 523.531
828 0 67.0823 14.2363 955 51.2576 1329.46 522.284
829 0 68.1162 12.097 824 53.5813 1329.27 521.567
830 0 73.112 13.1305 960 52.4229 1329.87 518.476
831 0 75.1999 12.8989 970 52.6144 1330.21 515.199
832 0 77.1789 12.4127 958 53.095 1329.74 516.574
833 0 82.3851 11.0942 914 53.7648 1330.29 515.756
834 0 84.3316 12.3678 1043 52.9051 1330.11 512.904
835 1 42.2593 10.5776 447 53.2595 1329.14 534.186
836 0 46.1158 10.4736 483 52.9959 1328.95 533.528
837 0 44.1505 10.736 474 54.2194 1329.19 531.964
838 0 47.1717 11.6807 551 52.3158 1329.44 533.492
839 0 49.1536 12.0439 592 52.6757 1329.58 529.417
840 0 50.0922 10.1413 508 53.9311 1330.36 530.299
841 0 51.1317 12.3798 633 51.7504 1330.3 532.446
842 0 52.1666 16.6774 870 48.4057 1330.25 527.823
843 0 55.0922 13.3957 738 51.0569 1329.87 529.022
844 0 55.0538 12.4061 683 52.2738 1329.87 528.223
845 0 56.177 10.6093 596 53.9312 1330.66 524.279
846 0 59.0854 12.1519 718 52.4457 1330.38 525.912
847 0 61.2446 12.4419 762 52.5814 1330.14 524.554
848 0 62.0653 12.7608 792 52.3119 1330.73 521.852
849 0 65.057 12.0663 785 52.4777 1330.43 524.076
850 0 67.2132 11.3966 766 53.5313 1330.31 517.664
851 0 68.1137 12.3764 843 52.5077 1330.93 518.155
852 0 72.1244 12.7835 922 51.9252 1330.98 517.721
853 0 73.3042 17.2569 1265 48.2356 1330.87 517.198
854 0 75.2592 12.4237 935 52.9112 1330.78 513.641
855 0 80.2493 12.9596 1040 51.8731 1330.85 515.609
856 0 81.2069 14.2476 1157 51.0778 1330.54 512.799
857 0 83.1392 11.7514 977 53.2938 1331.04 512.205
858 0 85.1767 10.6602 908 55.0837 1330.72 507.779
859 1 44.1339 8.88207 392 52.9719 1330.53 533.082
860 0 42.0715 9.81662 413 54.8789 1330.91 532.617
861 0 46.1496 12.7628 589 52.1171 1330.71 530.621
862 0 47.1471 12.0898 570 53.6053 1330.14 528.116
863 0 49.0816 10.4927 515 54.6796 1330.42 527.99
864 0 49.0876 11.8971 584 53.4589 1331.06 526.216
865 0 49.0457 10.6023 520 54.9981 1330.91 526.485
866 0 55.0349 11.738 646 52.3793 1330.92 528.703
867 0 57.2053 13.74 786 51.2672 1330.56 525.547
868 0 56.0497 13.0777 733 52.5061 1330.5 524.276
869 0 58.0707 11.2449 653 53.9709 1330.96 522.167
870 0 59.1241 13.5478 801 52.0599 1330.53 522.714
871 0 62.1953 13.329 829 52.07 1330.47 522.805
872 0 63.0752 10.7332 677 54.4638 1330.18 521.693
873 0 64.1069 11.2936 724 54.2569 1330.34 517.575
874 0 68.1656 11.4867 783 53.6079 1330.51 517.186
875 0 72.1272 11.5629 834 53.5252 1330.23 518.318
876 0 73.1726 11.671 854 53.7553 1330.18 515.741
877 0 74.1395 12.3686 917 52.9946 1329.97 516.048
878 0 76.1378 10.4679 797 54.0201 1330.19 516.141
879 0 82.2827 14.4745 1191 51.1201 1329.74 515.019
880 0 83.1383 12.2807 1021 53.3996 1330.01 513.589
881 0 86.2273 11.9684 1032 53.0795 1330.23 514.009
882 1 45.0328 12.8573 579 50.3541 1330.15 531.998
883 0 47.0682 9.77304 460 53.5196 1329.85 531.839
884 0 46.0669 9.1823 423 55.4775 1329.36 529.598
885 0 47.1372 9.5466 450 54.44 1330.39 530.518
886 0 49.0562 10.3759 509 53.6798 1330.95 528.01
887 0 51.1356 12.0464 616 52.3328 1330.92 525.042
888 0 53.044 12.5179 664 51.5527 1330.95 527.224
889 0 57.0476 13.9708 797 50.4153 1330.52 524.917
890 0 64.0274 10.8391 694 44.7291 1329.33 523.5
891 0 60.031 9.54507 573 53.3019 1330.81 526.185
892 0 60.1083 11.3795 684 52.8275 1331.25 522.936
893 0 62.1348 12.0383 748 52.0294 1330.74 523.735
894 0 67.2381 11.556 777 52.2355 1330.8 522.055
895 0 69.0561 11.5124 795 52.5434 1331.26 520.525
896 0 70.2436 11.8587 833 52.9076 1331.08 518.842
897 0 74.1103 12.4679 924 51.9383 1330.76 520.582
898 0 76.145 11.8852 905 52.7779 1331.01 518.534
899 0 78.157 12.5005 977 52.6295 1330.57 518.022
900 0 79.1466 11.1692 884 54.1244 1331.15 516.637
901 0 80.116 11.9577 958 53.882 1331.06 514.635
902 0 83.0755 10.027 833 55.605 1331.18 515.064
903 0 86.1218 9.8233 846 56.5709 1331.01 512.558
904 0 89.2337 10.6014 946 56.2759 1330.58 511.593
905 1 49.069 11.1068 545 54.7211 1330.22 530.435
906 0 52.1079 10.7469 560 54.5411 1330.74 529.368
907 0 53.1029 12.8242 681 53.627 1330.12 528.214
908 0 55.1185 10.1599 560 56.1018 1330.46 527.346
909 0 55.1193 10.5408 581 55.5955 1331.23 525.661
910 0 56.1864 11.8 663 54.3228 1331.82 522.831
911 0 62.0542 10.797 670 54.0194 1332.09 525.237
912 0 61.2188 11.3364 694 54.1268 1332.7 522.138
913 0 64.104 10.1554 651 55.1567 1331.9 522.174
914 0 65.2721 12.5168 817 53.1824 1332.1 521.485
915 0 69.0724 12.6389 873 53.2108 1331.46 520.305
916 0 72.0538 10.1313 730 54.2959 1331.8 520.982
917 0 75.2448 12.1603 915 53.6306 1331.99 516.187
918 0 78.1926 13.7481 1075 51.9405 1331.61 517.926
919 0 76.1234 11.8492 902 54.8259 1331.12 513.635
920 0 83.17 12.3001 1023 53.6628 1331.33 516.129
921 0 86.1624 13.1612 1134 53.0626 1331.36 514.978
922 1 42.0291 12.3724 520 51.9462 1331.25 533.306
923 0 48.0905 11.8526 570 51.5281 1330.55 535.821
924 0 46.1287 12.4868 576 51.816 1330.55 534.321
925 0 46.0977 13.2111 609 52.1839 1330.48 532.348
926 0 46.0633 11.9618 551 54.1089 1330.36 530.739
927 0 51.1893 10.9984 563 54.0853 1330.64 530.899
928 0 51.1461 10.8513 555 55.1784 1330.57 529.522
929 0 55.0826 11.6915 644 53.8773 1330.27 529.53
930 0 55.101 11.1069 612 54.464 1330.77 528.73
931 0 56.1859 11.3908 640 54.85 1330.55 526.238
932 0 59.0496 11.8883 702 54.0584 1330.77 525.943
933 0 60.0914 12.7306 765 54.1556 1330.19 521.75
934 0 62.207 12.4906 777 53.5393 1330.26 525.263
935 0 63.0429 11.0242 695 55.213 1330.52 522.308
936 0 66.1043 12.8131 847 53.3672 1331 517.767
937 0 67.0848 13.0432 875 53.7303 1330.44 519.406
938 0 71.2161 11.9776 853 53.6928 1330.6 519.263
939 0 74.1713 12.943 960 53.1365 1330.93 516.695
940 0 75.1028 12.5561 943 54.193 1330.57 515.501
941 0 75.157 11.7354 882 55.0624 1330.62 515.146
942 0 81.0586 11.9543 969 54.8803 1330.62 512.224
943 0 82.1433 11.0782 910 55.667 1330.94 511.529
944 1 44.0389 10.7178 472 53.1822 1329.77 534.078
945 0 44.1363 10.3769 458 54.0458 1330.59 531.55
946 0 44.074 11.163 492 53.0142 1331.56 529.537
947 0 44.0185 11.427 503 53.7634 1331.1 530.179
948 0 46.0738 10.1142 466 54.7124 1330.61 529.717
949 0 49.0434 10.9087 535 54.1888 1330.72 527.391
950 0 52.0812 15.8214 824 48.8252 1331.07 529.664
951 0 52.0755 10.8304 564 54.0071 1331.15 527.5
952 0 55.1138 12.0841 666 52.8498 1330.7 528.89
953 0 54.1713 10.393 563 55.9325 1330.15 525.853
954 0 53.1451 11.2334 597 54.727 1331.19 522.08
955 0 58.1559 10.6438 619 54.9225 1330.72 524.05
956 0 60.2494 9.64324 581 56.4492 1330.13 524.225
957 0 64.1449 12.0041 770 54.0429 1331.03 522.052
958 0 65.1183 13.8517 902 53.1452 1330.59 520.398
959 0 69.3078 11.3119 784 55.2143 1331.34 518.795
960 0 71.3115 12.789 912 53.9605 1331.48 516.798
961 0 75.2545 12.9826 977 53.5118 1331.75 516.051
962 0 75.1879 13.3665 1005 53.5224 1331.09 517.552
963 0 78.1939 13.198 1032 54.6473 1331.22 513.352
964 0 80.085 10.9509 877 56.5701 1331.23 515.877
965 0 82.3448 12.4234 1023 55.7019 1331.47 511.049
966 1 41.197 12.1125 499 54.1463 1331.14 531.731
967 0 41.1458 10.2562 422 55.3957 1331.25 532.526
968 0 44.0849 10.9788 484 55.4029 1331.18 530.444
969 0 45.0989 10.4881 473 55.8372 1330.83 531.076
970 0 45.1098 10.9954 496 55.3669 1331.13 530.895
971 0 48.1737 12.0605 581 54.58 1330.88 528.818
972 0 50.166 11.3424 569 54.9526 1331.17 527.199
973 0 50.0726 11.723 587 55.6814 1331 524.446
974 0 54.2281 12.1339 658 54.1216 1331.51 525.561
975 0 54.1289 10.863 588 55.534 1331.57 525.748
976 0 55.1422 11.7333 647 55.8099 1330.98 523.406
977 0 58.1088 12.2185 710 55.8239 1330.71 521.854
978 0 62.3373 12.2719 765 55.2353 1331.05 522.035
979 0 64.304 12.7053 817 54.7625 1331.69 519.444
980 0 64.1955 10.063 646 57.195 1331.37 519.896
981 0 67.0706 10.6157 712 57.625 1331.38 516.167
982 0 70.1118 10.4405 732 57.8224 1331.4 514.786
983 0 73.2552 12.8455 941 55.7141 1331.19 516.787
984 0 76.1517 12.0943 921 56.6026 1331.46 514.423
985 0 77.2424 11.8847 918 57 1331.67 511.826
986 0 80.0859 12.8112 1026 56.3811 1331.54 511.912
987 1 40.11 13.3383 535 54.415 1330.98 532.91
988 0 36.0434 10.0989 364 58.4945 1331.45 530.626
989 0 45.133 11.3221 511 55.2133 1331.51 532.724
990 0 45.2148 12.3632 559 54.6905 1331.52 532.401
991 0 48.2434 11.5456 557 56.2819 1330.92 530.294
992 0 47.1536 11.558 545 56.622 1331.79 529.508
993 0 50.1523 12.1031 607 56.1993 1331.43 528.631
994 0 50.1756 13.4727 676 55.6553 1331.28 528.281
995 0 53.1545 12.0968 643 56.6843 1331.42 526.059
996 0 54.0824 13.7013 741 55.726 1331.59 524.03
997 0 56.3286 13.652 769 55.9727 1331.01 525.745
998 0 56.1708 9.77376 549 60.0674 1331.37 523.787
999 0 61.1951 13.8573 848 55.7252 1331.71 523.629
1000 0 63.1104 13.9914 883 55.7928 1331.25 521.381
1001 0 65.1668 13.8721 904 56.6029 1330.86 520.804
1002 0 67.2697 13.1857 887 56.9053 1331.07 519.767
1003 0 69.0865 12.9548 895 57.2548 1330.42 520.254
1004 0 73.0909 13.7363 1004 56.7281 1331.05 518.255
1005 0 74.3068 12.2062 907 58.3208 1331.22 516.541
1006 0 79.3156 15.0538 1194 55.2538 1331.4 516.065
1007 0 80.1428 14.6364 1173 56.4237 1331.3 515.332
1008 1 42.0948 10.12 426 58.6925 1330.56 532.657
1009 0 42.1019 12.7073 535 55.9458 1331.32 533.508
1010 0 45.2832 11.8808 538 58.3922 1330.64 531.271
1011 0 46.2212 12.6349 584 58.375 1330.43 531.519
1012 0 48.1349 13.4414 647 57.8006 1330.76 529.09
1013 0 50.2221 12.5841 632 58.1709 1330.52 530.081
1014 0 49.3051 17.0571 841 54.6362 1330.61 528.875
1015 0 51.1857 13.2264 677 57.5805 1330.92 527.975
1016 0 54.1008 12.4582 674 58.7789 1330.21 527.95
1017 0 54.1485 12.4103 672 59.183 1329.96 527.863
1018 0 57.236 12.2825 703 58.9886 1330.28 526.393
1019 0 60.1916 12.8423 773 58.3208 1330.58 523.902
1020 0 62.1037 11.352 705 59.6496 1330.29 526.091
1021 0 65.2081 12.9125 842 58.7458 1329.84 524.833
1022 0 66.2269 13.4538 891 57.7901 1330.34 524.107
1023 0 69.2027 13.8289 957 57.5298 1330.61 522.217
1024 0 69.155 11.6261 804 60.4975 1330.08 518.504
1025 0 73.1426 11.7032 856 58.9241 1329.47 523.597
1026 0 75.2506 12.9966 978 58.8978 1329.96 519.679
1027 0 78.1788 14.1215 1104 57.865 1329.5 520.125
1028 0 81.3816 12.3861 1008 59.9107 1329.95 517.715
1029 0 82.4573 12.6854 1046 59.2744 1330.2 517.373
1030 0 85.2173 11.8755 1012 60.4951 1330.17 514.677
1031 0 85.2173 11.9342 1017 144.661 1331.18 514.895
1032 1 42.3624 14.7064 623 56.3612 1329.44 535.313
1033 0 43.239 12.4425 538 58.0799 1329.51 536.602
1034 0 45.2614 12.3726 560 58.4357 1329.74 535.87
1035 0 43.1272 12.7762 551 59.4247 1329.08 533.838
1036 0 46.2944 13.5654 628 58.0924 1329.48 532.742
1037 0 46.0792 11.6756 538 59.6784 1329.72 532.952
1038 0 49.1845 12.138 597 59.2697 1329.73 531.111
1039 0 51.1747 12.6821 649 59.2712 1329.4 530.248
1040 0 53.1156 11.4091 606 60.2657 1329.13 529.698
1041 0 55.4562 13.2176 733 58.6944 1329.38 526.607
1042 0 56.3572 13.8403 780 57.841 1329.06 529.673
1043 0 57.1432 12.2499 700 59.2129 1329.5 529.746
1044 0 59.1153 13.5667 802 57.8691 1329.83 526.613
1045 0 63.3498 12.944 820 57.9866 1329.48 528.024
1046 0 64.1456 12.7522 818 58.7518 1329.1 525.656
1047 0 67.253 12.3117 828 58.4565 1329.63 525.013
1048 0 70.2159 12.604 885 58.1785 1329.44 524.846
1049 0 72.2784 14.8039 1070 56.9187 1328.94 520.481
1050 0 75.2921 15.7785 1188 55.2315 1329.35 524.082
1051 0 76.3623 12.4538 951 58.8622 1329.33 520.339
1052 0 79.4107 15.1239 1201 56.2365 1329.33 520.584
1053 0 80.2417 11.8891 954 60.2338 1328.64 519.751
1054 0 84.2433 14.1732 1194 57.6549 1329.15 518.665
1055 0 84.3533 11.274 951 60.7855 1329.1 516.124
1056 0 90.317 13.6076 1229 58.7022 1328.67 516.991
1057 1 43.1932 12.8724 556 57.6169 1328.67 536.106
1058 0 42.2164 13.5256 571 58.5149 1328.34 535.037
1059 0 43.116 11.9213 514 59.8385 1328.75 535.492
1060 0 46.1231 13.3989 618 58.8592 1328.37 535.309
1061 0 47.2663 13.1595 622 58.5113 1329.3 536.399
1062 0 48.174 11.5415 556 59.0036 1329.45 538.309
1063 0 52.1643 12.1922 636 57.8789 1329.8 536.459
1064 0 53.1197 13.3096 707 57.6379 1329.23 537.127
1065 0 51.1303 12.2628 627 60.5136 1329.63 531.045
1066 0 58.1406 14.5509 846 57.4078 1329.58 531.941
1067 0 57.2127 11.4135 653 60.8116 1329.25 530.548
1068 0 56.172 11.6072 652 60.5736 1329.24 532.942
1069 0 60.2145 11.5753 697 62.5366 1329.37 526.508
1070 0 62.183 14.2483 886 59.6275 1329.61 528.227
1071 0 65.1502 13.231 862 60.2935 1330.26 526.988
1072 0 65.1072 12.5792 819 61.5617 1329.71 526.849
1073 0 68.204 14.4566 986 59.2596 1330.26 526.111
1074 0 71.349 12.5159 893 61.71 1329.52 525.197
1075 0 73.1605 15.1174 1106 59.0118 1329.87 526.119
1076 0 74.137 13.502 1001 61.7492 1329.59 523.732
1077 0 76.1008 13.1142 998 62.4148 1329.91 519.783
1078 0 79.217 13.4567 1066 62.1163 1329.86 520.838
1079 0 79.1791 13.299 1053 61.7151 1330.66 519.061
1080 0 81.4206 12.2451 997 62.6289 1330.81 519.575
1081 0 84.2178 13.6432 1149 62.1923 1330.84 514.354
1082 0 90.3119 13.4866 1218 61.6355 1330.86 516.393
1083 0 89.2271 12.8885 1150 63.2452 1330.08 514.099
1084 0 91.2203 13.8127 1260 62.3333 1330.15 513.903
1085 0 96.2341 14.6829 1413 61.6192 1329.37 514.621
1086 0 98.4552 12.2797 1209 64.2035 1329.79 510.256
1087 0 101.268 12.462 1262 63.8772 1329.96 512.652
1088 0 105.311 14.8227 1561 61.6528 1330.51 509.637
1089 0 106.255 12.0559 1281 65.7713 1330.32 505.472
1090 0 108.408 14.5561 1578 63.2313 1330.64 504.743
1091 0 114.351 14.0794 1610 64.4913 1330.31 503.414
1092 0 113.24 12.7341 1442 67.1255 1330.14 500.997
1093 0 119.582 14.0489 1680 65.1095 1330.06 502.87
1094 0 124.568 14.0566 1751 66.0303 1329.79 498.696
1095 0 127.317 15.2376 1940 64.6716 1330.62 497.762
1096 0 131.283 13.4367 1764 67.3101 1330.46 493.707
1097 0 134.43 13.9181 1871 67.6927 1330.26 493.567
1098 0 140.397 14.3807 2019 67.529 1330.1 491.816
1099 0 142.355 14.1477 2014 68.213 1330.78 485.405
1100 0 147.273 14.6395 2156 67.3353 1331.07 485.898
1101 0 154.505 14.9963 2317 66.9042 1330.95 486.508
1102 0 158.569 14.6245 2319 67.7137 1330.95 483.464
1103 0 160.581 14.4475 2320 69.1569 1330.86 476.777
1104 0 165.392 15.1579 2507 68.4531 1330.53 476.708
1105 0 172.422 15.288 2636 68.6779 1330.35 471.649
1106 0 177.346 14.4238 2558 68.948 1331.46 472.355
1107 1 136.387 13.5864 1853 68.9142 1331.6 491.879
1108 0 138.43 11.746 1626 71.174 1331.03 492.184
1109 0 144.61 13.6091 1968 70.3354 1331.02 485.443
1110 0 150.451 14.975 2253 68.2494 1330.73 488.473
1111 0 153.412 13.3366 2046 70.7053 1330.8 483.796
1112 0 159.203 14.2271 2265 69.9426 1330.98 481.715
1113 0 159.222 14.3071 2278 69.6852 1330.96 486.419
1114 0 166.543 12.9095 2150 72.9786 1330.68 475.308
1115 0 173.33 14.0252 2431 71.8959 1330.93 472.863
1116 0 179.44 13.9601 2505 71.7445 1331.26 473.834
1117 0 184.73 13.7552 2541 72.9689 1331.16 467.354
1118 0 187.496 14.4697 2713 72.5389 1330.79 467.067
1119 0 195.496 14.4811 2831 73.3723 1330.76 463.487
1120 0 199.687 15.1838 3032 73.344 1330.14 461.187
1121 0 204.272 13.7855 2816 75.0842 1330.39 460.17
1122 0 211.482 12.8616 2720 76.7585 1330.66 457.585
1123 0 216.717 13.7414 2978 76.0708 1330.78 452.981
1124 0 223.471 15.8768 3548 73.4611 1331.57 447.496
1125 0 226.566 14.2784 3235 76.1777 1331.03 445.644
1126 0 232.487 13.889 3229 76.9393 1331.46 441.958
1127 0 241.612 15.467 3737 74.1153 1331.51 445.535
1128 1 115.398 13.4231 1549 74.3544 1330.74 498.137
1129 0 120.373 12.9265 1556 74.7314 1330.74 498.044
1130 0 124.285 13.9196 1730 74.2988 1330.44 496.394
1131 0 126.413 15.2199 1924 72.4771 1330.89 496.914
1132 1 275.649 14.6672 4043 77.0087 1331.58 422.615
1133 0 279.701 13.972 3908 76.8219 1331.66 429.584
1134 1 247.6 13.6591 3382 76.6404 1330.67 445.41
1135 0 254.775 13.6199 3470 76.3012 1330.65 443.914
1136 0 263.746 13.8581 3655 77.2457 1330.48 432.696
1137 0 269.595 14.9409 4028 75.6509 1330.4 435.958
1138 0 280.44 14.1207 3960 76.9816 1330.58 428.751
1139 0 289.493 14.857 4301 76.2402 1331.42 420.342
1140 1 165.337 15.0299 2485 75.2414 1331.29 479.928
1141 0 170.363 15.9483 2717 74.4487 1331.21 474.453
1142 0 174.315 14.7606 2573 76.4547 1331.1 474.065
1143 0 181.658 15.4246 2802 76.1335 1330.65 470.641
1144 0 184.519 14.2424 2628 77.9235 1331.1 469.199
1145 0 190.481 14.2849 2721 78.4384 1331.12 465.852
1146 0 196.46 16.5632 3254 74.7634 1331.03 461.024
1147 0 202.458 14.808 2998 77.5057 1331.05 462.59
1148 0 209.665 14.919 3128 77.4648 1331.38 460.539
1149 0 216.645 15.2046 3294 77.5243 1330.96 457.294
1150 0 224.453 17.1172 3842 75.0245 1330.88 451.762
1151 0 229.555 13.9749 3208 78.8703 1330.87 454.857
1152 0 236.548 15.0244 3554 77.7071 1330.65 452.167
1153 0 245.69 14.7259 3618 76.7026 1331.72 451.159
1154 0 250.594 15.0203 3764 77.3472 1331.89 439.02
1155 1 206.185 5.06341 1044 87.2126 1331.79 360.972
1156 1 144.36 14.8172 2139 75.9986 1331.73 492.673
1157 0 146.587 12.9412 1897 79.7638 1331.17 486.716
1158 0 153.44 14.0771 2160 77.9333 1330.68 484.997
1159 0 159.533 15.326 2445 75.6241 1330.6 486.708
1160 0 161.494 14.465 2336 76.0976 1331.18 485.559
1161 0 167.405 14.9278 2499 76.3934 1330.25 481.976
1162 0 172.392 15.8244 2728 74.6488 1330.84 477.704
1163 0 177.504 13.7124 2434 76.721 1330.56 482.487
1164 0 180.532 15.543 2806 74.8193 1331.52 473.193
1165 0 185.423 14.3564 2662 77.0676 1330.96 468.501
1166 0 192.5 15.0026 2888 75.963 1330.43 470.984
1167 1 146.457 13.7925 2020 77.2941 1330.43 488.598
1168 0 149.27 14.169 2115 76.347 1330.84 487.802
1169 0 157.492 14.1721 2232 75.9306 1331.3 483.663
1170 0 161.333 12.8926 2080 76.5841 1331.41 486.406
1171 0 166.593 13.512 2251 76.6406 1331.03 482.844
1172 0 169.523 12.9894 2202 78.1894 1330.87 478.613
1173 0 176.322 14.1049 2487 75.8134 1331.48 479.404
1174 0 181.506 13.9996 2541 76.9732 1330.59 473.099
1175 0 185.401 15.8575 2940 74.5262 1330.7 475.43
1176 0 186.891 14.5486 2719 77.5377 1330.6 474.17
1177 0 186.606 14.11 2633 78.823 1331.74 472.543
1178 0 191.401 14.6812 2810 79.4851 1331.46 467.037
1179 0 197.569 15.1896 3001 77.8294 1331.48 469.97
1180 1 157.65 13.752 2168 80.536 1331.51 484.425
1181 0 162.423 13.4217 2180 80.7583 1331.58 483.491
1182 0 164.645 12.8397 2114 83.2077 1331.25 477.165
1183 0 173.47 16.4985 2862 77.3054 1330.97 475.716
1184 0 177.356 16.1483 2864 77.2661 1331.15 476.005
1185 0 184.569 15.0892 2785 78.2898 1331.34 471.31
1186 0 189.475 14.0704 2666 79.6317 1331.16 468.79
1187 0 198.384 15.097 2995 76.8915 1331.03 471.038
1188 0 200.492 15.8909 3186 77.2954 1331.42 460.642
1189 0 206.784 15.359 3176 78.2749 1331.65 457.895
1190 1 159.64 12.8853 2057 82.051 1331.05 481.929
1191 0 167.641 14.3819 2411 80.4272 1330.55 477.883
1192 1 120.407 13.3297 1605 78.2262 1331.31 503.859
1193 0 122.363 12.2668 1501 81.064 1331.1 500.136
1194 0 127.374 13.6919 1744 79.1152 1331.15 499.032
1195 0 131.452 13.1759 1732 80.1524 1331.32 496.517
1196 0 134.413 14.6117 1964 78.5392 1330.93 497.75
1197 0 136.292 13.5077 1841 81.673 1331.1 492.289
1198 0 143.472 14.3861 2064 79.9041 1330.75 492.152
1199 0 148.413 12.8964 1914 82.2889 1330.73 490.069
1200 0 151.397 13.6727 2070 81.4159 1330.88 488.242
1201 0 155.345 12.3854 1924 83.2167 1330.86 488.087
1202 0 158.578 12.7508 2022 83.7923 1331.18 481.573
1203 0 165.526 13.2608 2195 82.1822 1330.89 483.095
1204 0 164.357 9.67404 1590 84.3836 1330.74 494.712
1205 1 130.462 12.6244 1647 82.9035 1331.48 495.177
1206 0 130.435 12.6424 1649 82.4627 1330.96 498.465
1207 0 134.52 13.1802 1773 82.6678 1331.08 491.906
1208 1 42.4331 13.81 586 75.9608 1331.04 538.263
1209 0 38.4731 13.1001 504 81.3631 1330.8 539.05
1210 0 39.3026 11.8567 466 84.7167 1330.2 539.054
1211 0 39.3385 13.0152 512 82.8848 1330.63 537.123
1212 1 145.504 14.8174 2156 82.8738 1331.15 488.514
1213 0 149.519 14.7005 2198 82.6929 1331.13 491.111
1214 0 152.453 16.1099 2456 79.3514 1331.57 493.297
1215 0 153.363 14.5146 2226 83.04 1330.92 491.879
1216 0 156.699 15.0479 2358 81.8931 1331.69 486.699
1217 0 158.585 13.8159 2191 84.1579 1331.42 489.162
1218 0 162.708 14.7872 2406 83.1106 1331.62 484.743
1219 1 141.539 13.339 1888 85.3655 1331.57 495.075
1220 0 142.472 25.6332 3652 59.1024 1330.52 486.034
1221 0 147.006 22.7406 3343 62.1418 1330.97 494.036
1222 0 145.524 21.5566 3137 64.2273 1330.68 486.456
1223 0 149.231 24.9748 3727 60.3904 1330.07 484.129
1224 0 150.616 20.6353 3108 64.8449 1331.19 481.1
1225 1 84.3566 14.9722 1263 82.6405 1331.1 520.585
1226 0 84.4842 14.0618 1188 84.3249 1331.18 518.76
1227 0 86.4895 13.5508 1172 84.802 1331.51 518.254
1228 0 89.6149 14.8301 1329 82.6162 1331.11 516.234
1229 0 92.3004 14.3336 1323 84.3439 1330.61 513.051
1230 0 94.5213 13.1611 1244 85.3585 1330.82 512.674
1231 0 97.2692 14.3314 1394 83.2769 1330.92 508.792
1232 1 34.7929 7.73147 269 98.5762 1332.75 475.572
1233 1 12.0061 7.2463 87 65.9885 1331.06 463.483
1234 1 74.1238 18.0239 1336 65.8129 1331.61 385.103
1235 0 74.4878 13.9889 1042 73.0038 1331.02 381.537
1236 0 74.1576 15.0625 1117 71.4584 1331.36 381.458
1237 0 74.092 16.1961 1200 69.7225 1331 380.86
1238 0 79.8598 18.0692 1443 64.4331 1331.28 376.346
1239 0 76.2577 17.4671 1332 68.3116 1331.27 382.099
1240 0 78.3187 17.5054 1371 67.5711 1330.85 378.725
1241 0 69.3645 18.5253 1285 71.1541 1330.93 383.026
1242 1 162.34 10.5335 1710 65.2795 1329.89 366.925
1243 0 159.783 10.846 1733 64.8263 1330.08 359.488
1244 0 154.107 16.6832 2571 54.4341 1329.55 345.223
1245 0 156.852 14.7081 2307 57.0143 1330.46 347.958
1246 0 154.131 11.6654 1798 63.7141 1330.72 352.268
1247 0 152.064 10.8572 1651 68.4579 1331.2 366.238
1248 0 162.438 9.35124 1519 71.3377 1330.34 366.053
1249 0 151.601 7.95509 1206 79.937 1330.84 373.387
1250 0 155.288 15.4165 2394 57.3592 1330.39 344.778
1251 0 149.191 9.18288 1370 77.2985 1331.3 375.031
1252 1 75.3695 20.0877 1514 73.0264 1331.32 378.493
1253 0 74.1378 18.6275 1381 76.6676 1331.76 379.631
1254 0 75.3721 21.3076 1606 72.0274 1331.25 378.066
1255 0 75.17 21.8837 1645 71.8881 1331.65 380.513
1256 0 75.1904 20.0957 1511 75.0549 1331.38 380.506
