time division length width area intensity CMx CMy
0 0 14.0739 6.60797 93 65.0968 1267.23 519.914
1 0 16.0531 6.47848 104 62.5673 1266.62 519.817
2 0 15.1092 8.14074 123 59.122 1265.81 519.081
3 0 14.0467 7.75981 109 61.0367 1265.91 521.725
4 0 15.0725 7.03269 106 61.6038 1265.47 520.821
5 0 17.1113 10.6363 182 54.3187 1265.64 519.791
6 0 15.0394 5.9843 90 64.4778 1265.37 521.167
7 0 15.006 9.19632 138 58.413 1265.54 520.674
8 0 17.0299 8.74932 149 57.1678 1264.85 521.624
9 0 15.0207 7.92243 119 60.521 1265.03 521.319
10 0 15.0198 6.12525 92 63.75 1265.09 522.554
11 0 14.001 6.85667 96 63.5729 1265.46 522.969
12 0 16.0028 8.24854 132 57.303 1265.6 523.318
13 0 15.0761 6.89833 104 61.3077 1265.31 523.308
14 0 17.0294 8.98447 153 56.0784 1264.54 522.588
15 0 14.0042 6.71227 94 62.6064 1264.72 522.468
16 0 15.0607 9.0301 136 58.1765 1263.74 520.574
17 0 15.033 6.519 98 62.6122 1263.91 521.643
18 0 17.0493 7.62496 130 58.1 1263.35 520.915
19 0 15.0146 6.59357 99 62.0909 1263.71 521.374
20 0 16.0133 9.74192 156 55.5064 1263.76 521.199
21 0 16.0036 8.93548 143 56.4336 1263.36 521.427
22 0 17.0213 7.75501 132 58.3409 1263.48 521.576
23 0 16.0041 7.62305 122 58.6066 1264.18 522.377
24 0 17.0166 9.34381 159 55.6415 1264.3 520.289
25 0 16.0662 10.5189 169 55.0473 1263.83 519.533
26 0 17.002 8.76369 149 56.5235 1264.17 520.255
27 0 14.0197 7.13281 100 61.39 1263.99 520.56
28 0 16.0471 8.53739 137 57.2774 1263.54 520.307
29 0 16.0352 7.04698 113 61.0442 1263.93 520.558
30 0 17.0015 6.52882 111 60.8649 1264.07 521.198
31 0 16.1553 9.09917 147 56.9728 1264.17 520.946
32 0 14.0067 6.28269 88 63.2614 1264.73 522.75
33 0 15.0574 6.50843 98 62.7143 1264.55 523.704
34 0 16.0199 9.48818 152 56.3947 1264.45 523.059
35 0 15.0695 7.03407 106 61.4057 1263.52 521.849
36 0 15.0391 7.04827 106 61.4811 1263.6 523.906
37 0 14.0051 6.85463 96 63.8125 1262.59 522.635
38 0 17.0108 11.0518 188 53.7553 1263.2 522.91
39 0 16.0271 7.92407 127 59.6063 1263.37 521.134
40 0 16.005 8.37238 134 58.2612 1262.98 522.5
41 0 15.076 11.6078 175 54.6686 1263.49 522.263
42 0 16.0287 6.80031 109 60.8807 1262.4 523.101
43 0 15.0102 8.66078 130 58.9231 1262.72 521.038
44 0 14.0066 5.78299 81 65.9012 1264.15 523.185
45 0 16.0081 8.87051 142 58.4437 1264.32 521.57
46 0 14.0357 7.40966 104 61.9615 1263.57 521.731
47 0 16.0045 9.05996 145 57.0966 1263.61 521.338
48 0 15.0035 5.86531 88 64.3864 1263.81 522.648
49 0 16.0806 9.45238 152 57 1263.95 521.23
50 0 14.0384 5.91238 83 64.9759 1263.98 522.072
51 0 14.0064 4.71213 66 67.6667 1264.03 521.652
52 0 16.0055 7.99727 128 59.1719 1262.67 521.195
53 0 14.0243 7.05919 99 61.1919 1261.97 522.818
54 0 14.0055 5.14086 72 66.5556 1262.53 522.792
55 0 14.0319 8.12435 114 60.7281 1262.82 521.456
56 0 17.0631 7.20855 123 59.3496 1262.8 522.293
57 0 15.0637 7.56788 114 60.5877 1262.89 522.096
58 0 15.0368 9.17747 138 58.3623 1262.89 521.572
59 0 16.0127 10.8039 173 55.6416 1262.78 520.364
60 0 15.1059 9.06928 137 58.5985 1262.98 521.212
61 0 13.0005 7.6151 99 62.2323 1263.17 522.95
62 0 15.054 6.70916 101 61.4653 1263.15 524.079
63 0 15.0007 7.33301 110 60.5545 1263.24 523.373
64 0 16.0023 9.74861 156 56.5897 1263.04 521.596
65 0 15.0026 7.73201 116 60.4138 1263.23 522.138
66 0 15.0489 9.43593 142 57.1268 1262.77 522.761
67 0 16.0105 6.93297 111 59.9459 1263.48 524.514
68 0 16.0157 6.86824 110 61.4545 1263.39 523.673
69 0 15.0057 7.73038 116 59.9483 1263.06 523.431
70 0 13.0005 6.0767 79 64.8101 1263.23 525.633
71 0 13.0033 6.1523 80 63.6625 1263.66 526
72 0 13.0285 6.06365 79 64.5949 1263.99 524.253
73 0 15.0074 9.06222 136 58.2206 1263.09 523.051
74 0 15.0046 7.99755 120 60.325 1262.83 523.05
75 0 15.0047 9.19714 138 57.4348 1263.35 523.79
76 0 13.0049 6.92047 90 63.3889 1262.88 522.889
77 0 13.0092 5.91889 77 65.3377 1263.21 523.701
78 0 14.002 6.71333 94 63.1808 1262.93 523.777
79 0 14.0004 5.49984 77 63.7273 1263.65 524.675
80 0 15.0065 8.12981 122 60.3852 1262.43 523.107
81 0 14.0139 7.56394 106 61.5189 1261.62 523.632
82 0 14.0123 7.06523 99 62.1515 1263.89 523.384
83 0 14.043 8.11795 114 60.6842 1263.06 522.842
84 0 15.0013 6.13279 92 62.4891 1263.13 524.326
85 0 14.0045 7.28339 102 60.8431 1262.91 523.451
86 0 15.0044 6.53142 98 61.898 1262.26 523.806
87 0 16.0455 7.91501 127 59.5748 1262.33 523.032
88 0 16.0029 7.81108 125 58.376 1262.7 524.144
89 0 15.0024 6.86556 103 62.068 1263.92 523.66
90 0 14.0027 6.2131 87 64.023 1263.47 524.218
91 0 15.0222 7.85502 118 59.0932 1262.84 523.415
92 0 15.0522 7.44075 112 61 1263.14 521.991
93 0 16.0173 8.11625 130 59.2538 1262.68 522.285
94 0 14.0323 7.69651 108 61.3704 1262.72 523.25
95 0 15.0723 7.56355 114 60.5175 1261.85 523
96 0 13.008 7.84135 102 61.5686 1262.53 522.569
97 0 15.0018 5.19937 78 64.9872 1262.51 523.269
98 0 16.0042 7.3106 117 58.3077 1262.96 524.205
99 0 14.0117 8.9211 125 59.592 1262.16 521.592
100 0 14.0202 5.20679 73 65.6438 1262.75 523.452
101 0 15.0016 9.93229 149 56.7785 1263.11 522.336
102 0 13.0152 6.30035 82 64.5976 1263.68 523.939
103 0 14.0099 7.63747 107 61.4579 1263.35 522.411
104 0 14.003 9.35512 131 58.7634 1262.91 522.198
105 0 14.0192 7.91774 111 61.3514 1263.77 523.261
106 0 14.0085 9.06595 127 60.0866 1264.27 522.591
107 0 15.024 5.45793 82 64.3171 1264.51 524.476
108 0 14.0003 8.57122 120 61.3667 1263.7 523.45
109 0 16.0167 8.0541 129 60.1085 1263.46 523.062
110 0 15.0056 7.79708 117 61.9402 1263.77 522.419
111 0 14.0117 6.78006 95 63.8316 1263.47 523.211
112 0 15.106 6.88468 104 63.2115 1262.66 522.317
113 0 14.013 6.92215 97 61.9794 1263.61 523.505
114 0 13.0131 5.68656 74 66.3649 1264.46 525.216
115 0 15.0555 9.2325 139 58.6978 1262.94 522.54
116 0 14.0003 5.64275 79 65.3671 1263.63 522.886
117 0 13.0015 6.84535 89 64.764 1263.2 522.978
118 0 14.0137 10.2757 144 57.6597 1262.93 522.333
119 0 12.0005 5.33312 64 68.5938 1264.19 523.531
120 0 13.0112 6.68653 87 63.3563 1263.83 522.828
121 0 14.006 7.85379 110 61.8818 1263.91 521.718
122 0 14.0076 8.99511 126 59.1746 1264.18 522.913
123 0 14.0038 8.6405 121 59.7603 1264.46 521.884
124 0 15.0013 8.86589 133 58.391 1264.55 522.053
125 0 15.0019 7.79899 117 59.6581 1264.5 523.256
126 0 14.0212 6.13357 86 63.1395 1264.31 523.244
127 0 14.0171 6.7061 94 62.2553 1264.22 521.947
128 0 15.0268 6.58823 99 61.5859 1264.05 522.808
129 0 12.0097 5.82862 70 66.5 1264.07 524.186
130 0 16.0058 7.55974 121 59 1263.51 523.017
131 0 14.0135 8.20635 115 59.1826 1263.55 522.783
132 0 14.0106 6.56644 92 61.163 1262.79 522.5
133 0 12.0047 5.08135 61 67.7213 1263.39 523.213
134 0 14.006 9.78154 137 57.0219 1262.89 521.533
135 0 15.0169 6.99214 105 59.3524 1263.85 523.448
136 0 15.01 9.39376 141 56.8582 1263.33 521.468
137 0 15.0086 7.66228 115 59.0696 1264.03 522.835
138 0 15.0315 8.3824 126 58.1587 1263.15 522.198
139 0 15.009 6.86257 103 60.3689 1263.69 524.32
140 0 16.0038 5.68616 91 62.1319 1263.67 524.758
141 0 14.0035 9.64043 135 57.6741 1262.84 522.667
142 0 14.0129 6.99355 98 61.0816 1263.85 523.235
143 0 16.0011 11.4992 184 53.413 1263.07 523.223
144 0 13.0065 6.68899 87 61.8966 1263.85 524.759
145 0 14.0016 5.92787 83 62.1205 1264.06 525.41
146 0 15.0191 7.85667 118 58.4237 1263.19 524.025
147 0 14.0349 8.33635 117 58.7778 1263.62 524.128
148 0 16.001 7.12455 114 59.4386 1263.7 524.07
149 0 14.0013 6.99933 98 59.1633 1264.03 525.469
150 0 14.0413 6.05358 85 61.7765 1263.95 525.259
151 0 13.0102 6.45646 84 61.8333 1262.98 524.44
152 0 14.0265 6.84417 96 60.5 1262.81 524.594
153 0 13.0083 5.30429 69 63.7826 1263.87 524.725
154 0 14.0003 4.42846 62 65.871 1264.45 525.403
155 0 16.0192 8.7395 140 55.9143 1264.51 523.729
156 0 13.0161 6.99137 91 60.7472 1263.85 524.044
157 0 14.0048 10.7106 150 55.74 1264.11 522.713
158 0 14.024 6.48889 91 61.5275 1264.69 524.33
159 0 14.004 5.06997 71 63.5916 1264.99 524.704
160 0 13.0016 5.23012 68 64.8824 1264.93 524.265
161 0 13.029 9.901 129 56.5659 1264.57 523.496
162 0 14.0058 5.56913 78 62.0128 1264.36 524.808
163 0 14.0091 7.42377 104 60.0288 1264.17 522.779
164 0 15.0011 7.6661 115 58.4609 1263.97 524.052
165 0 15.0109 8.52716 128 56.1328 1263.95 524.43
166 0 15.0057 9.39645 141 55.9787 1264.4 522.993
167 0 14.0058 6.21171 87 62.2874 1264.47 523.977
168 0 15.0056 7.06402 106 58.8491 1264.01 524.302
169 0 12.0006 5.66637 68 64.4853 1263.44 525.088
170 0 13.0029 5.92176 77 62.974 1263.74 523.675
171 0 14.0087 8.92303 125 56.848 1263.46 523.064
172 0 13.003 6.84459 89 60.809 1264.17 523.775
173 0 15.0038 8.19792 123 57.2358 1264.35 523.439
174 0 14.0126 7.13641 100 59.67 1264.59 523.07
175 0 13.0062 8.38065 109 58.3394 1263.49 522.532
176 0 15.0008 6.19968 93 59.6129 1263.74 523.667
177 0 14.0682 6.68172 94 60.1277 1264.16 523.638
178 0 14.0102 5.56738 78 61.9615 1264.41 523.167
179 0 15.0203 7.39001 111 58.8018 1264.65 521.937
180 0 16.0329 9.29337 149 55.2819 1264.46 521.779
181 0 15.0036 6.79836 102 58.3431 1264.17 524.716
182 0 15.0179 5.32698 80 62.025 1264.72 522.65
183 0 14.0256 6.77331 95 60.6526 1264.55 523.442
184 0 15.0265 6.92111 104 58.0673 1264.04 522.962
185 0 15.018 6.25914 94 59.9894 1263.83 523.223
186 0 13.0012 8.30694 108 57.5648 1264.01 522.046
187 0 15.0123 8.32649 125 55.976 1264.36 521.896
188 0 16.0136 7.55609 121 56.9422 1264.12 523.132
189 0 14.0245 6.77387 95 59.5684 1263.87 522.747
190 0 13.0009 5.2304 68 63.0147 1264.21 523.426
191 0 14.0022 9.35568 131 55.3969 1263.21 520.962
192 0 15.0074 7.463 112 57.2054 1263.1 521.339
193 0 13.0004 5.84597 76 61.3158 1263.18 523.158
194 0 15.005 7.26426 109 57.422 1264.01 521.239
195 0 14.0037 5.35572 75 60.7867 1263.53 523.053
196 0 15.0027 7.33199 110 57.6182 1263.92 522.045
197 0 14.014 7.42113 104 58.4231 1264.51 521.163
198 0 15.003 7.1319 107 57.2804 1264.07 522.168
199 0 14.0013 4.42817 62 63.5806 1264.06 523.016
200 0 15.0195 8.25592 124 55.1048 1263.6 521.718
201 0 14.0089 7.20971 101 57.2772 1264.07 523.02
202 0 13.0022 5.38372 70 61.6 1264.26 523.557
203 0 14.0106 7.28022 102 57.1078 1264.37 523.402
204 0 14.0006 6.714 94 58.0532 1263.56 523.979
205 0 13.0018 9.3064 121 55.595 1263.8 522.521
206 0 14.0423 7.61985 107 56.2523 1264.22 523.832
207 0 15.0109 6.32872 95 58 1264.25 522.137
208 0 14.0159 6.20724 87 57.4828 1263.59 523.207
209 0 12.0056 5.99722 72 60.1389 1263.82 523.986
210 0 14.0139 7.77799 109 55.6147 1263.54 523.119
211 0 15.0059 7.66367 115 54.8522 1264.04 524.043
212 0 14.0113 7.77943 109 55.7615 1263.84 520.936
213 0 13.0029 4.92196 64 61.2656 1264.09 523.812
214 0 15.0161 6.65953 100 56.29 1263.81 523.42
215 0 15.0024 6.26566 94 57.3936 1262.41 522.84
216 0 11.0021 5.99884 66 60.4394 1262.59 523.379
217 0 13.0007 4.76898 62 61.4032 1262.82 523.565
218 0 15.0012 6.39949 96 55.8854 1262.91 523.24
219 0 14.0005 8.42826 118 54.2458 1262.84 522.814
220 0 16.0444 6.10806 98 56.5408 1262.89 523.276
221 0 12.0166 6.24138 75 58.2533 1263.39 524.56
222 0 15.0112 5.79566 87 56.3793 1263.06 524.023
223 0 13.0006 5.61514 73 58.1644 1263.67 522.164
224 0 14.0238 6.41767 90 57.1222 1263.01 522.089
225 0 13.0069 6.8425 89 56.6742 1262.62 521.989
226 0 14.02 6.9187 97 56.4227 1263.92 523.093
227 0 13.0092 4.9196 64 60.5469 1263.95 523.797
228 0 15.003 6.66535 100 55.38 1263.82 523.67
229 0 14.0131 8.56341 120 53.6 1263.18 523.033
230 0 14.0001 5.42852 76 57.1579 1264.14 524.921
231 0 11.0007 5.81783 64 60.4531 1263.56 523.203
232 0 15.0097 7.72831 116 54.0603 1264.05 523.578
233 0 14.0241 8.77061 123 54.0732 1263.57 522.203
234 0 14.009 6.63859 93 55.9355 1263.99 523.118
235 0 15.0042 7.86446 118 53.3559 1263.47 523.898
236 0 13.0011 5.76875 75 58.4667 1262.97 522.387
237 0 13.0023 5.92202 77 57.1039 1263.25 521.896
238 0 14.0069 5.28313 74 58.4324 1263.97 523.716
239 0 14.0028 5.28465 74 57.5676 1263.82 521.365
240 0 16.0035 5.62377 90 55.8222 1263.98 522.856
241 0 15.0227 7.4554 112 54.2143 1263.7 521.812
242 0 14.0034 7.85525 110 53.3182 1263.52 522.2
243 0 14.011 8.20783 115 53.0522 1263.23 521.478
244 0 13.0032 5.92162 77 57.2338 1263.44 523.597
245 0 15.0061 5.13126 77 58.5714 1263.27 523.026
246 0 15.0036 9.39776 141 51.9433 1263.13 522.858
247 0 13.0013 7.61464 99 55.6768 1262.74 522.444
248 0 15.007 6.93008 104 54.1731 1262.67 522.769
249 0 12.008 7.41171 89 56.1798 1262.47 521.067
250 0 14.0003 4.57132 64 59.8125 1263.44 522.203
251 0 15.0026 8.66517 130 52.7923 1262.96 522.308
252 0 14.0021 5.92767 83 57.6265 1263.66 523.277
253 0 13.0005 5.92286 77 57.8961 1262.73 524.208
254 0 14.0013 6.99935 98 55.3571 1263.37 523.49
255 0 13.013 6.83933 89 55.4045 1263.35 524.124
256 0 11.0001 3.81814 42 63.4048 1264.05 524.31
257 0 14.0016 7.0706 99 56.1414 1264.57 523.182
258 0 13.0011 4.84574 63 60.3333 1264.19 524.238
259 0 13.0005 5.769 75 57.7733 1263.67 523.507
260 0 14.0029 7.56988 106 54.5377 1263.08 524.283
261 0 13.0006 6.69198 87 56.5402 1263.36 522.988
262 0 13.0002 4.76915 62 59.6129 1263.6 523.823
263 0 14.0019 6.35629 89 55.573 1263.6 523.775
264 0 15.0141 6.92682 104 54.0673 1263.02 523.75
265 0 13.0002 4.99993 65 59.0923 1263.54 525.308
266 0 14.0014 6.78503 95 55.4 1263.19 523.516
267 0 14.0048 9.49677 133 51.4812 1263.4 523.925
268 0 14.0025 4.71343 66 59.6364 1263.24 524.621
269 0 14.0238 7.98642 112 53.3304 1263.12 522.92
270 0 14.0007 5.07118 71 58.4789 1263.38 524.197
271 0 13.0097 5.30374 69 57.6232 1262.7 523.594
272 0 15.0011 6.73284 101 53.7723 1263.04 523.327
273 0 13.0015 6.15312 80 56.375 1263.48 523.688
274 0 14.0007 5.85684 82 56.3293 1263.54 523.378
275 0 14.0007 4.99977 70 57.7571 1263.26 523.2
276 0 15.0162 4.06227 61 59.8852 1263.15 523.426
277 0 15.0032 4.93227 74 57.1081 1263.74 523.811
278 0 15.0004 5.59985 84 55.4167 1263.04 524.988
279 0 14.0039 6.14115 86 55.686 1262.83 524.256
280 0 14.005 5.92647 83 55.7349 1262.52 523.47
281 0 13.001 6.61489 86 55.5349 1262.65 523.14
282 0 15.0038 5.46527 82 56.8537 1262.67 523.11
283 0 13.0006 5.53821 72 57.2361 1263.04 523.847
284 0 14.0104 4.85353 68 59.1765 1263.22 521.721
285 0 15.0032 7.66505 115 53.8696 1262.87 522.583
286 0 13.0207 5.76007 75 57.3333 1262.05 522.507
287 0 14.0087 5.85352 82 56.4756 1262.32 523.61
288 0 14.0026 4.92764 69 58.058 1262.88 523.652
289 0 11.0002 4.54535 50 60.48 1263.28 522.58
290 0 13.0002 5.46144 71 57.7746 1262.15 522.366
291 0 12.0088 5.6625 68 57.3971 1262.56 523.985
292 0 13.0006 8.61499 112 52.7589 1261.49 521.473
293 0 15.0039 8.59775 129 51.5271 1262.29 523.046
294 0 14.002 4.57078 64 59.4062 1262.61 523.141
295 0 14.0059 7.21125 101 52.6238 1262.64 523.792
296 0 13.0028 6.61398 86 54.8837 1262.23 522.64
297 0 13.0007 6.15349 80 55.2125 1263.12 522.362
298 0 13.0136 7.30003 95 54.1895 1262.95 522.758
299 0 12.007 4.66394 56 58.25 1262.59 523.321
300 0 14.0031 4.35617 61 58.623 1262.44 523.033
301 0 14.0052 6.49759 91 54.3297 1261.79 521.945
302 0 13.0009 5.07656 66 57.0152 1261.98 523.606
303 0 12.0016 4.16611 50 60 1262.44 523.66
304 0 13.0016 4.99937 65 56.7077 1262.6 523.908
305 0 16.0105 4.93425 79 54.7975 1262.86 524.291
306 0 13.0248 6.52604 85 54.2353 1262.46 522.776
307 0 14.0142 5.92256 83 54.9036 1262.98 522.084
308 0 13.005 4.30603 56 58.25 1262.91 522.464
309 0 14.0143 6.20794 87 54.1034 1263.49 522.23
310 0 15.0008 6.99961 105 51.3905 1263.14 523.657
311 0 15.0017 7.53248 113 51.1062 1262.26 522.46
312 0 14.0012 5.4281 76 55.2368 1262.24 523.421
313 0 15.0031 6.46532 97 52.7732 1261.9 522.907
314 0 15.0039 6.99818 105 51.2286 1262.94 524.476
315 0 14.015 5.35141 75 54.6533 1263.64 524.013
316 0 15.0113 6.19532 93 53.6344 1263.87 522.355
317 0 15.0034 5.59875 84 53.9762 1263.18 522.476
318 0 13.0032 6.45994 84 54.0238 1263.07 520.964
319 0 15.0059 7.73027 116 51.5862 1262.46 523.138
320 0 14.0032 5.85579 82 54.3659 1261.98 521.89
321 0 14.0522 5.33723 75 55.1733 1262.37 522.067
322 0 13.0004 5.30752 69 55.1884 1262.23 522.174
323 0 14.0019 4.07086 57 56.2982 1262.68 523.737
324 0 13.0004 5.61522 73 54.6027 1262.52 523.178
325 0 15.0005 4.73319 71 54.5211 1262.24 523.282
326 0 15.0014 7.7326 116 50.5948 1261.71 520.741
327 0 12.0008 4.83301 58 57.3966 1262.48 521.345
328 0 14.0082 5.21124 73 54.0274 1262.53 524.671
329 0 13.0056 5.07474 66 55.7727 1262.11 522.227
330 0 13.0053 7.22782 94 52.1064 1261.78 520.543
331 0 14.0062 5.92597 83 52.7711 1262.34 521.084
332 0 11.0018 4.54472 50 57.86 1263 521.78
333 0 14.0057 5.35498 75 54.9067 1263.43 521.787
334 0 13.0007 4.69206 61 56.4262 1263.59 522.656
335 0 13.0008 6.84571 89 52.3483 1263.35 521.82
336 0 14.0024 5.85614 82 52.7927 1263.56 523.195
337 0 14.0072 6.21108 87 53 1263.39 521.805
338 0 16.0164 6.05631 97 52.0825 1262.84 522.052
339 0 14.003 4.64186 65 54.7077 1262.95 523.369
340 0 13.0006 5.07668 66 54.8939 1263.3 522.773
341 0 14.0028 6.28446 88 52.5909 1262.86 522.375
342 0 14.0502 5.97855 84 52.3214 1262.46 522.095
343 0 14.0136 7.13595 100 51.23 1262.36 522
344 0 15.0177 5.06069 76 53.6316 1261.97 522.158
345 0 15.003 5.79884 87 52.0575 1262.95 522.253
346 0 15.0029 5.06568 76 53.5 1263.01 522.553
347 0 14.0017 5.57075 78 53.5128 1262.67 521.397
348 0 14.0017 5.28509 74 53.7297 1262.43 521.514
349 0 15.0011 4.1997 63 54.873 1262.7 521.444
350 0 13.0075 5.07401 66 54.1364 1262.62 523.152
351 0 14.0019 5.71352 80 53.25 1262.35 521.275
352 0 13.0016 4.07643 53 55.4906 1262.38 523.075
353 0 12.0005 3.58319 43 58.814 1261.77 520.837
354 0 11.0007 5.27241 58 55.6897 1262.22 522.914
355 0 15.0074 6.99655 105 50.4571 1261.1 519.771
356 0 12.0001 3.91662 47 57.5532 1262.45 520
357 0 14.0009 6.35672 89 52.1236 1261.87 519.629
358 0 14.0026 5.85607 82 52.0854 1262.4 521.817
359 0 13.0034 3.99895 52 55.4423 1262.5 521.462
360 0 14.0023 5.07061 71 53.4084 1262.54 520.296
361 0 14.0107 4.42518 62 53.8871 1262.63 521.565
362 0 14.0032 3.85626 54 55.963 1262.87 522.815
363 0 14.0136 4.92378 69 53.5072 1262.48 524.304
364 0 15.0111 6.79499 102 50.0392 1263.17 522.088
365 0 14.0084 5.92504 83 51.759 1263.63 522.386
366 0 14.0255 3.77884 53 53.8679 1263.06 524.585
367 0 12.0055 4.08147 49 55.5306 1263.24 522.571
368 0 15.0005 4.99983 75 51.8933 1263.19 523.32
369 0 14.0009 4.92826 69 53.2464 1262.83 521.957
370 0 15.0073 5.66391 85 51.7529 1262.39 520.459
371 0 15.009 5.72989 86 51.1512 1262.7 521.523
372 0 14.0006 3.57129 50 55.82 1262.58 523.7
373 0 14.0055 3.78423 53 56.1887 1262.83 521.962
374 0 14.0174 5.84986 82 52.0732 1262.74 521.805
375 0 14.0104 4.85354 68 53.2059 1263.06 522.853
376 0 14.0015 4.71379 66 52.8636 1263.23 522.879
377 0 12.0058 4.66442 56 54.3036 1262.88 523.411
378 0 13.0006 5.23052 68 52.1912 1262.78 523.456
379 0 14.0531 6.54659 92 50.8152 1263.39 521.685
380 0 12.0035 5.99824 72 52.1667 1263.61 523.639
381 0 15.0012 6.59945 99 49.6061 1263.68 522.545
382 0 13.0007 5.6151 73 51.8356 1263.14 522.616
383 0 17.0274 3.81739 65 54.6923 1263.6 520.092
384 0 14.001 4.71394 66 53.1061 1263.24 519.788
385 0 15.0009 5.66631 85 51.1765 1262.68 520.612
386 0 15.0121 6.7945 102 50.5392 1262.77 520.48
387 0 13.0131 5.3792 70 52.0571 1262.8 521.771
388 0 14.0046 5.92662 83 51.3374 1262.72 520.819
389 0 13.005 4.99809 65 51.7385 1263.18 522.831
390 0 14.0044 8.28314 116 48.1983 1262.59 520.569
391 0 13.0102 6.53332 85 50.6 1263.2 519.706
392 0 12.0082 5.91262 71 51.493 1263.48 523.746
393 0 12.0005 3.49985 42 51.3095 1263.67 522.238
394 0 13.0074 3.92084 51 49.3529 1262.45 521.902
395 0 13.0009 3.69204 48 50.3333 1262.83 521.875
396 0 13.013 6.3014 82 47.3902 1262.96 520.305
397 0 11.0001 2.45453 27 54.3704 1262.44 522.481
398 0 14.0102 6.1384 86 47.314 1263.13 521.558
399 0 11.0004 3.45441 38 52.1579 1263.26 523.316
400 0 12.0074 4.58052 55 49.6545 1262.85 522.018
401 0 12.0019 4.74925 57 49.0526 1262.88 523.614
402 0 13.0142 5.76292 75 47.8533 1262.77 522.16
403 0 12.0005 4.66649 56 49.4107 1262.59 522.732
404 0 13.0041 5.07531 66 49.7727 1262.33 520.667
405 0 13.001 6.53795 85 47.6588 1262.33 520.706
406 0 11.0045 2.99877 33 53.0606 1263.18 522.182
407 0 13.0023 6.5373 85 48.5176 1262.87 520.859
408 0 12.0054 4.83114 58 49.3276 1262.28 521.897
409 0 12.0079 3.4977 42 51.6667 1263.6 521.833
410 0 11.0026 3.45371 38 52.0526 1263.13 522.105
411 0 13.0028 3.84532 50 51.14 1262.86 521.56
412 0 12.0011 3.08305 37 51.0541 1262.65 522.351
413 0 11.0018 4.9083 54 50.3889 1262.85 520.519
414 0 12.0011 3.9163 47 51.7234 1262.17 520.532
415 0 13.0049 6.99736 91 47.2088 1262.25 521.088
416 0 13.0033 1.76878 23 55.0435 1262.87 521.783
417 0 14.0006 4.49979 63 49.8095 1262.86 523
418 0 10 1.5 15 57.3333 1263.13 523.133
419 0 14.0017 5.14224 72 49.0139 1263.07 521.903
420 0 10.0014 4.09941 41 50.5122 1262.93 521.268
421 0 12.0021 4.83251 58 50.1379 1262.24 518.224
422 0 12.0004 4.83319 58 49.1552 1263.93 522.81
423 0 12.0004 3.49988 42 50.5952 1263.67 524.071
424 0 12.0008 3.49977 42 50.5952 1264.02 522.905
425 0 14.0099 4.92508 69 49.7971 1263.49 520.043
426 0 11.0004 1.81811 20 54 1263.45 523.15
427 0 12.002 2.66623 32 52.75 1263.69 523.688
428 0 14.0079 5.06858 71 49.3239 1263.68 522.197
429 0 11.0019 2.45411 27 51.963 1263.74 524.482
430 0 13.0035 3.46062 45 50.4 1264.04 523.978
431 0 13.0141 4.37988 57 50.2632 1264.07 523.386
432 0 11.0003 3.27265 36 51.9444 1264.06 523.333
433 0 13.0008 4.2305 55 50.6545 1264.29 521.909
434 0 13.0019 4.38397 57 49.1404 1263.89 521.07
435 0 12.0032 3.749 45 49.8667 1263.73 523
436 0 13.0007 3.84595 50 49.68 1262.9 523.04
437 0 11.0009 2.63614 29 52.3448 1263.66 524.138
438 0 15.0053 6.99751 105 46.8381 1264.19 521.933
439 0 13.0084 4.6124 60 47.75 1263.73 524
440 0 12.0004 3.74988 45 48.1333 1263.76 524.822
441 0 13.0054 3.46011 45 48.8222 1263.89 524.2
442 0 12.0014 5.08272 61 47.8525 1263.54 524.098
443 0 10.0006 2.99983 30 51.2 1263.7 524.4
444 0 13.0066 6.38139 83 47.4458 1264.3 520.494
445 0 14.002 4.85645 68 47.0147 1264.51 522.868
446 0 12.0011 7.41601 89 44.8764 1264.58 520.775
447 0 13.0017 4.1533 54 46.6296 1264.3 523.722
448 0 11.0015 2.9087 32 48.9375 1263.41 523.375
449 0 11.0005 5.36338 59 46.9322 1264.61 522.576
450 0 11.0023 2.6358 29 49.8966 1264.69 522.552
451 0 13.008 4.68942 61 47.2951 1264.25 521.721
452 0 13.0043 5.61354 73 45.4795 1264.23 522.685
453 0 11.003 3.36272 37 48.3514 1264.08 521.378
454 0 11.0012 2.18158 24 48.6667 1264.5 522.833
455 0 13.0084 5.07366 66 45.803 1264.2 521.273
456 1 59.089 10.9496 647 61.66 1262.7 495.516
457 0 59.0917 11.1014 656 61.8186 1263.16 495.436
458 0 61.0413 10.8779 664 61.6205 1263.05 496.812
459 0 63.0412 12.0873 762 60.4383 1263.37 495.211
460 0 64.0998 11.8721 761 61.3679 1263.18 491.059
461 0 66.0584 11.3384 749 62.2977 1263.83 491.778
462 0 67.1395 11.0367 741 62.6005 1263.42 492.706
463 0 70.0983 12.0973 848 61.7158 1263.18 489.651
464 0 66.0771 10.6391 703 65.1067 1262.74 486.471
465 0 71.1083 12.5724 894 61.8602 1262.77 488.435
466 0 67.1015 13.3827 898 62.5078 1262.67 485.026
467 0 70.0999 11.5549 810 64.2914 1263.1 486.578
468 0 71.0829 12.0423 856 64.6273 1262.91 482.298
469 1 38.0302 13.7785 524 60.8683 1263.06 500.187
470 0 38.0302 13.8311 526 135.523 1263.06 500.186
471 0 43.2306 12.9538 560 61.4036 1263.77 499.021
472 0 42.0367 12.2274 514 64.0778 1263.61 497.492
473 0 41.0132 12.3619 507 64.4655 1263.58 497.651
474 0 45.1133 11.8369 534 64.0524 1263.59 497.097
475 0 45.019 11.3508 511 64.7671 1263.23 495.679
476 0 46.1794 13.2743 613 62.7129 1263.33 496.768
477 0 45.1069 12.4593 562 63.8861 1262.7 496.802
478 0 48.0712 13.1264 631 63.3534 1262.81 493.908
479 0 50.0214 12.5946 630 63.8667 1262.51 493.389
480 0 50.0348 11.7518 588 65.4796 1262.69 491.884
481 0 51.0419 10.7559 549 66.949 1262.7 490.827
482 0 55.0409 12.3363 679 64.3711 1262.17 491.66
483 0 55.061 13.2762 731 63.8741 1262.87 488.893
484 0 56.0907 14.0487 788 63.1041 1262.83 489.189
485 0 60.1148 13.3245 801 63.2634 1263.62 488.576
486 0 60.0611 14.9515 898 61.8385 1262.87 487.692
487 0 64.0345 13.4303 860 63.6023 1263.15 487.41
488 0 65.1535 12.2019 795 64.9019 1263.21 485.76
489 0 66.1053 12.8885 852 64.6232 1263.95 484.745
490 0 68.0449 13.2706 903 63.6589 1264.16 486.639
491 0 72.1256 13.3517 963 63.6511 1263.79 483.181
492 0 72.2061 12.9075 932 64.9431 1264.17 480.219
493 1 40.0221 12.5931 504 63.4702 1263.27 497.448
494 0 42.1538 10.4143 439 65.4123 1263.5 497.749
495 0 42.0381 10.6808 449 65.2027 1263.9 497.183
496 0 44.0346 11.2866 497 64.9678 1263.93 496.304
497 0 48.0527 12.5279 602 63.2176 1263.82 493.4
498 0 48.0303 13.6997 658 62.0654 1264.41 494.479
499 0 50.0875 13.9556 699 61.4678 1264.22 493.339
500 0 48.1239 12.073 581 65.136 1263.54 490.778
501 0 52.066 13.6365 710 61.8662 1264.02 491.33
502 0 54.1787 11.9235 646 63.7895 1263.5 490.474
503 0 56.0745 13.8922 779 61.0013 1263.29 491.431
504 0 57.0479 13.3397 761 62.5269 1263.43 488.418
505 0 60.0878 14.329 861 60.3426 1262.84 488.926
506 0 59.0799 13.6933 809 61.9839 1263.21 486.583
507 0 60.1045 12.5116 752 64.0612 1263.17 484.664
508 0 62.0991 13.5268 840 61.9917 1263.45 486.007
509 0 64.0727 11.8927 762 63.9633 1263.31 482.869
510 0 71.0894 12.21 868 62.1164 1262.91 484.023
511 0 74.2114 14.2027 1054 59.2011 1263.26 485.039
512 1 41.0299 11.7719 483 59.3478 1263.65 499.77
513 0 36.0174 11.661 420 62.4619 1263.35 496.16
514 0 37.0252 9.26395 343 64.9242 1263.75 495.679
515 0 37.0908 11.5123 427 63.1592 1264.21 494.792
516 0 42.0671 9.7701 411 64.0681 1263.18 495.448
517 0 39.0819 10.8746 425 64.7153 1263.62 495.009
518 0 42.0266 12.0876 508 62.313 1263.49 496.026
519 0 43.0737 12.1884 525 62.8648 1263.63 493.684
520 0 44.02 11.7447 517 63.3946 1263.73 492.288
521 0 46.0343 11.9693 551 63.7877 1263.6 490.056
522 0 45.0657 11.3612 512 65.4277 1263.31 490.023
523 0 47.0602 10.9434 515 65.7262 1262.93 488.588
524 0 50.1775 13.2131 663 62.3454 1263.43 488.855
525 0 53.086 13.1296 697 62.132 1263.25 490.268
526 0 54.0688 14.759 798 60.5226 1262.6 488.273
527 0 55.0375 12.7004 699 62.3762 1262.37 488.34
528 0 56.054 11.3284 635 64.2709 1262.56 486.452
529 0 56.0517 9.81237 550 66.3055 1262.92 485.167
530 0 60.0431 13.3238 800 62.2312 1262.84 482.726
531 0 63.0767 11.6683 736 63.6019 1262.09 483.716
532 0 62.0614 12.7938 794 63.8577 1262.29 479.115
533 0 66.051 12.127 801 64.1149 1262.99 479.514
534 0 68.0997 12.6286 860 63.0767 1262.98 480.215
535 0 70.0765 12.0868 847 64.046 1262.98 477.731
536 0 74.0901 13.2406 981 62.1172 1263.11 478.694
537 0 76.0769 11.725 892 63.5718 1263.67 478.499
538 0 78.1206 12.4039 969 63.4314 1262.97 474.781
539 1 43.0494 11.9398 514 62.7782 1263.48 490.763
540 0 45.0314 11.8584 534 62.3708 1263.5 490.491
541 0 48.1112 12.097 582 62.1632 1263.42 489.375
542 0 50.0518 11.1485 558 62.638 1262.68 488.873
543 0 50.0753 12.4612 624 61.4631 1262.59 488.909
544 0 53.0746 13.7165 728 59.456 1262.88 488.383
545 0 52.1406 13.0608 681 61.1836 1262.42 484.65
546 0 55.1073 10.416 574 64.4268 1262.84 485.301
547 0 55.0651 11.7316 646 63.2306 1263.31 485.32
548 0 57.0905 13.1721 752 61.4029 1262.95 483.273
549 0 60.0712 13.2177 794 60.9836 1262.86 483.355
550 0 60.0812 11.1016 667 64.0075 1263.05 481.538
551 0 64.1012 11.9967 769 62.2796 1263.47 482.668
552 0 66.0974 14.1912 938 59.404 1263.52 483.193
553 0 66.1236 11.781 779 62.9782 1263.31 481.157
554 0 69.2173 11.8467 820 62.261 1263.02 482.484
555 0 71.0702 11.6082 825 62.9261 1263.24 477.728
556 0 73.0465 11.2394 821 63.8453 1263.08 475.644
557 0 75.1478 13.8793 1043 60.9875 1263.03 473.141
558 0 77.0898 11.4542 883 63.581 1263.14 472.439
559 0 81.1626 13.6023 1104 61.4475 1262.88 469.579
560 0 82.1087 11.0098 904 64.2677 1262.86 469.832
561 0 85.0581 11.4863 977 63.6612 1262.74 471.875
562 0 88.1512 10.8677 958 64.5616 1263.1 469.361
563 0 90.1365 12.6808 1143 62.6605 1263.15 466.08
564 0 93.1107 11.0406 1028 64.8891 1263.19 465.304
565 1 48.114 12.3249 593 61.3794 1263.99 487.86
566 0 50.076 14.1186 707 59.3083 1263.62 488.857
567 0 51.1243 11.2275 574 63.1864 1262.97 485.746
568 0 53.0909 10.7363 570 63.8228 1263.14 485.802
569 0 54.0599 11.5613 625 63.1312 1262.04 483.57
570 0 59.0856 12.3888 732 61.3566 1262.34 483.925
571 0 60.0972 13.3118 800 60.665 1262.57 484.549
572 0 58.0554 12.0402 699 63.3047 1263.43 480.189
573 0 60.1401 12.1383 730 63.4 1262.77 480.479
574 0 64.187 12.5415 805 61.6509 1263.15 481.068
575 0 65.0429 13.9139 905 60.7127 1263.03 479.198
576 0 67.0656 12.2417 821 62.5664 1263.57 478.877
577 0 71.1627 12.3098 876 62.0913 1263.1 476.339
578 0 73.0822 12.2875 898 62.0857 1263.19 475.3
579 0 75.1222 12.5928 946 61.9863 1262.53 473.227
580 0 78.1711 12.4087 970 61.9289 1262.6 473.832
581 0 79.0905 11.1897 885 63.4282 1262.42 474.377
582 0 83.1236 11.2122 932 63.6642 1261.91 470.456
583 0 84.0915 11.4637 964 64.0871 1261.52 466.404
584 1 43.0269 10.3424 445 63.2584 1262.13 487.778
585 0 45.0166 11.1737 503 61.5129 1262 489.421
586 0 45.1067 10.1537 458 64.4083 1262 487.869
587 0 44.0718 9.21224 406 65.7143 1262.51 486.874
588 0 48.1407 11.1964 539 63.0557 1262.87 487.727
589 0 49.0852 11.6736 573 62.6038 1262.76 486.51
590 0 52.0712 10.9658 571 62.9229 1262.84 486.483
591 0 53.1501 11.6651 620 62.3339 1262.85 482.994
592 0 58.0596 12.5216 727 60.7813 1263.06 482.547
593 0 56.1353 10.3678 582 64.1718 1263.18 481.457
594 0 59.0938 10.9148 645 62.8574 1263.02 482.366
595 0 61.1828 12.5199 766 61.2272 1262.65 480.524
596 0 62.1204 11.6387 723 61.5297 1263.02 481.279
597 0 64.1528 10.8491 696 62.8563 1262.63 476.994
598 0 66.1405 11.6721 772 61.456 1262.66 477.768
599 0 70.0386 13.2213 926 59.4374 1262.66 476.015
600 0 70.1467 10.478 735 62.3429 1263.02 475.005
601 0 73.1169 10.6268 777 62.1145 1263.14 473.494
602 0 74.1321 10.3869 770 61.8701 1262.83 472.603
603 0 79.0371 11.0707 875 60.7269 1263.3 473.104
604 0 81.1003 12.0098 974 60.2813 1262.49 468.762
605 1 40.0962 8.57936 344 62.5145 1263.6 490.012
606 0 46.0456 11.6624 537 57.9143 1263.64 490.814
607 0 46.0547 9.9447 458 60.4913 1262.75 489.011
608 0 46.0505 11.6177 535 59.5327 1263.31 485.344
609 0 48.0127 10.9138 524 60.4218 1262.88 482.886
610 0 51.1143 14.4382 738 55.8225 1262.9 484.371
611 0 53.1219 11.1254 591 59.1963 1262.71 485.827
612 0 54.0661 13.613 736 57.1332 1262.29 483.488
613 0 56.0531 12.7201 713 57.5161 1262.33 482.832
614 0 58.0788 11.7771 684 58.8918 1262.62 481.999
615 0 59.0507 14.6484 865 55.6555 1262.95 481.541
616 0 62.1639 13.384 832 57.4183 1262.54 479.038
617 0 63.0304 12.2798 774 58.7274 1262.93 480.04
618 0 65.1144 12.5011 814 58.6265 1262.13 478.345
619 0 67.04 11.6796 783 58.9285 1261.84 479.918
620 0 68.0776 10.5615 719 60.6384 1262.2 476.178
621 0 71.0837 10.8042 768 60.1315 1262.75 476.868
622 0 75.104 12.4228 933 58.5659 1262.99 473.808
623 0 75.0725 13.9865 1050 56.9848 1262.98 470.766
624 0 79.2088 13.2435 1049 57.4452 1262.98 471.479
625 0 80.128 13.3287 1068 57.5159 1262.9 474.163
626 0 85.066 13.0017 1106 57.6854 1262.35 467.071
627 1 42.0902 11.9981 505 57.6277 1263.02 491.574
628 0 46.0905 12.4321 573 56.5096 1263.02 490.665
629 0 45.028 10.7933 486 59.8868 1262.57 486.377
630 0 46.082 8.59338 396 61.3864 1263.28 489.823
631 0 48.0422 11.7813 566 58.6926 1263.26 488.184
632 0 49.057 11.0484 542 60.0277 1263.52 485.851
633 0 53.1516 12.6807 674 56.9763 1263.41 488.556
634 0 55.1447 12.3856 683 57.6164 1263.73 486.669
635 0 55.0649 11.7861 649 58.792 1263.43 483.285
636 0 56.0538 10.9894 616 60.0877 1262.88 483.648
637 0 60.1146 12.0437 724 58.1133 1262.22 479.876
638 0 62.067 11.0042 683 59.4261 1262.85 481.063
639 0 63.0697 13.3027 839 56.6996 1262.88 481.784
640 0 65.029 11.3026 735 58.6449 1262.89 482.158
641 0 64.0677 11.1445 714 59.1457 1262.89 480.514
642 0 67.1423 12.6597 850 57.5965 1262.38 478.172
643 0 71.2907 12.1474 866 57.5173 1262.26 478.206
644 0 75.1923 12.2087 918 57.7429 1262.73 476.183
645 0 76.1577 12.6842 966 57.4969 1262.3 471.938
646 0 80.1682 12.7108 1019 56.8479 1261.79 473.816
647 0 81.0958 12.5284 1016 57.2904 1261.69 471.459
648 0 82.1939 10.2562 843 59.8066 1262.74 469.16
649 0 87.1694 11.862 1034 58.0793 1262.96 467.9
650 1 48.1077 12.472 600 55.9167 1262.86 489.503
651 0 49.1123 11.0156 541 57.4935 1263.19 490.296
652 0 50.1757 11.4996 577 57.4974 1262.44 486.402
653 0 50.1798 12.2759 616 57.039 1262.77 486.091
654 0 52.1175 10.9752 572 57.6853 1262.41 487.673
655 0 55.0557 12.6054 694 56.0403 1263.61 485.197
656 0 59.1821 12.0814 715 56.0378 1263.41 483.615
657 0 60.162 12.1671 732 55.2896 1262.53 486.175
658 0 60.1298 11.7246 705 56.4199 1262.18 483.938
659 0 62.0811 12.8058 795 55.6969 1262.51 481.936
660 0 64.0781 12.5628 805 55.7789 1262.44 479.856
661 0 68.3193 11.7244 801 56.4557 1262.69 478.655
662 0 69.0922 12.3748 855 55.9088 1262.67 478.515
663 0 74.1455 13.487 1000 54.842 1262.9 473.871
664 0 76.1364 13.5415 1031 54.8952 1262.52 473.71
665 0 77.1409 13.2485 1022 55.6096 1262.01 472.229
666 0 81.1296 13.3367 1082 55.4926 1262.32 471.464
667 0 85.0708 12.0135 1022 56.5548 1261.9 468.235
668 0 86.0687 12.4668 1073 55.9105 1262.22 473.479
669 0 91.194 13.7509 1254 54.8501 1262.73 469.854
670 1 46.0381 13.1847 607 54.089 1262.94 489.677
671 0 48.0306 13.0125 625 54.496 1262.36 489.286
672 0 46.0993 11.1281 513 57.6121 1262.59 485.975
673 0 51.202 11.6597 597 55.7705 1262.31 488.044
674 0 52.1683 11.4437 597 56.8291 1262.05 484.24
675 0 56.1154 12.0644 677 55.9025 1262.61 483.709
676 0 55.0955 12.0336 663 56.2594 1261.87 484.57
677 0 57.1 12.1541 694 56.6657 1261.35 482.112
678 0 60.1211 12.7909 769 55.5566 1261.56 479.086
679 0 60.1723 11.2178 675 57.6133 1261.94 479.276
680 0 64.2113 11.6958 751 56.8322 1262.27 477.154
681 0 64.2113 11.6646 749 129.768 1262.27 477.124
682 0 63.1128 10.4416 659 58.3687 1262.11 473.851
683 0 70.3744 11.1973 788 56.6104 1261.94 475.409
684 0 72.1108 13.1187 946 54.8097 1261.74 473.595
685 0 74.0853 11.0413 818 56.9756 1262.01 472.284
686 0 77.247 12.4536 962 55.1029 1261.87 473.352
687 0 78.1436 12.8481 1004 54.5209 1262.85 472.901
688 0 83.1107 12.1164 1007 55.1539 1262.48 467.841
689 0 84.1705 11.0728 932 56.0622 1262.51 466.364
690 0 85.1576 10.5334 897 57.1472 1263.3 461.79
691 0 91.1233 11.6216 1059 55.4004 1263.17 466.71
692 0 95.1134 13.5207 1286 53.647 1262.81 461.43
693 0 94.0887 11.1491 1049 56.6263 1262.33 456.876
694 0 100.246 11.392 1142 55.6348 1262.6 462.597
695 0 99.1642 11.5162 1142 56.2968 1262.14 456.766
696 0 106.129 12.6355 1341 54.821 1261.18 454.526
697 0 110.344 11.0291 1217 56.4486 1261.61 451.588
698 1 59.1836 9.95208 589 55.7759 1261.95 478.559
699 0 58.1217 9.49731 552 56.1775 1262.11 479.937
700 0 63.0806 11.7152 739 54.4601 1262.4 477.567
701 0 66.1336 11.4012 754 54.8103 1263.01 475.771
702 0 66.1758 11.3788 753 55.0784 1263.15 474.79
703 0 71.1421 11.6949 832 54.3786 1263.4 474.528
704 0 72.1357 10.7021 772 55.6153 1262.46 467.308
705 0 75.0997 12.4368 934 54.1649 1262.65 466.88
706 0 80.1757 11.2628 903 54.8594 1263.44 469.48
707 0 84.1203 12.3395 1038 53.9807 1263.46 465.874
708 0 85.0961 12.5035 1064 54.2735 1262.72 463.326
709 0 88.1125 11.7577 1036 55.0077 1263.57 464.648
710 0 90.1363 11.8931 1072 55.3022 1263.86 461.01
711 0 95.1616 12.0216 1144 53.3768 1263.52 465.932
712 0 98.1909 11.8545 1164 53.9012 1263.15 459.882
713 1 52.1168 10.6684 556 54.7482 1262.7 482.007
714 0 54.0683 9.98737 540 55.6278 1262.61 481.572
715 0 55.0838 11.0559 609 55.1117 1262.72 481.256
716 0 57.0451 12.4112 708 54.0636 1262.27 478.472
717 0 61.0962 12.2102 746 54.1327 1261.97 474.898
718 0 62.0913 9.3894 583 56.9537 1262.32 478.019
719 0 62.0508 12.5865 781 54.2292 1262.8 474.882
720 0 66.0976 12.8749 851 52.9894 1262.87 479.631
721 0 67.1193 10.6676 716 55.8436 1262.31 475.113
722 0 72.0661 13.3488 962 53.0717 1262.89 473.14
723 0 69.0968 10.0005 691 57.1187 1262.63 467.987
724 0 74.0547 10.3842 769 56.3511 1262.35 468.588
725 0 78.0776 10.9763 857 55.6651 1262 463.447
726 0 81.1393 11.2523 913 55.6802 1261.97 461.267
727 0 85.1017 11.8212 1006 54.7008 1261.25 465.152
728 0 86.0688 11.0261 949 55.8219 1262.15 461.518
729 0 89.1147 11.5245 1027 55.2736 1261.39 460.402
730 0 91.1536 12.2431 1116 54.7482 1262.4 460.066
731 1 51.1507 10.9676 561 53.9697 1262.69 482.13
732 0 52.0618 9.54634 497 55.1932 1262.61 483.205
733 0 52.0573 10.9879 572 54.3234 1262.61 481.998
734 0 54.0861 9.70674 525 55.3257 1263 480.185
735 0 57.0775 14.1212 806 50.8238 1263.19 479.828
736 0 58.041 10.6993 621 54.0467 1262.48 479.121
737 0 61.0759 10.6589 651 53.6528 1262.53 478.931
738 0 60.0718 13.2342 795 51.8755 1262.65 477.86
739 0 64.0871 10.4701 671 54.0551 1262.83 474.61
740 0 66.1861 8.64229 572 55.7482 1262.42 475.61
741 0 67.0601 9.93139 666 55.0931 1262.05 473.56
742 0 69.2107 11.9635 828 53.1969 1262.52 472.139
743 0 72.0759 11.3908 821 53.6882 1262.25 470.99
744 0 74.0731 12.6362 936 52.719 1262.25 471.465
745 0 76.0556 12.2542 932 52.9399 1261.87 470.548
746 0 78.1764 10.8473 848 54.5212 1261.85 468.704
747 0 79.253 10.8135 857 54.8845 1262.48 465.75
748 0 83.2028 14.3024 1190 51.1218 1262.26 467.282
749 0 83.2325 10.1883 848 55.3502 1261.6 464.825
750 0 87.1805 12.5716 1096 53.1469 1262.36 462.557
751 0 92.1536 13.2388 1220 52.7754 1262.64 461.046
752 0 92.1444 13.3703 1232 52.9456 1261.64 461.044
753 0 95.099 10.4312 992 56.256 1262.24 458.339
754 1 46.0381 7.55895 348 58.6753 1263.19 483.333
755 0 50.0915 10.7803 540 54.6648 1262.68 482.196
756 0 50.089 9.1637 459 56.732 1262.79 480.715
757 0 53.0654 11.4199 606 54.604 1262.75 480.426
758 0 55.0238 9.95932 548 55.6442 1262.51 481.487
759 0 57.0783 10.4768 598 54.704 1262.65 480.664
760 0 59.1822 11.3041 669 53.9028 1262.45 481.184
761 0 60.1344 11.7736 708 53.9492 1262.77 477.014
762 0 61.1766 11.2625 689 54.9042 1262.36 475.084
763 0 67.163 12.2984 826 52.1029 1262.78 474.293
764 0 69.0615 12.9016 891 51.0842 1263.09 475.997
765 0 69.1801 11.6074 803 52.8568 1262.42 473.078
766 0 73.0995 14.5555 1064 50.2049 1263.01 470.605
767 0 73.1796 11.4376 837 53.1028 1262.19 470.314
768 0 75.057 12.0175 902 52.5033 1262.14 472.63
769 0 78.14 12.7464 996 52.1486 1262.54 468.13
770 0 81.4025 12.0635 982 52.6385 1262.82 464.402
771 0 86.1151 15.0148 1293 49.621 1263.02 467.225
772 0 87.0514 11.453 997 53.0381 1262.38 466.099
773 0 90.3186 11.6698 1054 53.056 1262.21 464.179
774 1 46.0209 10.9081 502 53.4402 1262.91 483.705
775 0 49.1606 12.0015 590 52.5644 1262.55 484.139
776 0 50.1024 12.1352 608 51.9095 1262.03 485.743
777 0 50.0378 8.55354 428 55.2897 1262.78 484.453
778 0 55.0321 10.5393 580 53.719 1262.59 482.912
779 0 56.0949 9.1987 516 54.6725 1262.09 483.395
780 0 56.0725 11.7526 659 52.4431 1262.24 481.463
781 0 61.0674 12.6418 772 51.5155 1262.04 480.199
782 0 59.0487 10.9571 647 53.7512 1262.58 479.139
783 0 63.2073 11.7708 744 52.6048 1262.34 476.624
784 0 65.0881 12.8748 838 51.8031 1261.59 476.995
785 0 67.0952 10.5224 706 53.9547 1262 473.952
786 0 70.0964 10.671 748 53.6471 1261.94 474.556
787 0 72.1275 12.2006 880 52.6932 1262.05 471.793
788 0 76.1506 12.1995 929 52.7707 1262.31 471.83
789 0 79.2012 13.1564 1042 51.3695 1262.38 472.685
790 0 82.2863 12.6996 1045 51.9158 1261.75 468.488
791 1 42.0644 10.5077 442 53.2489 1262.18 488.321
792 0 42.0685 10.6018 446 53.9215 1261.71 488.206
793 0 46.1286 15.2834 705 49.0979 1262.1 488.399
794 0 46.1337 10.3395 477 54.2683 1262.86 483.956
795 0 48.0982 11.0607 532 53.3759 1262.91 485.1
796 0 52.1157 12.9136 673 51.4339 1262.61 483.03
797 0 51.0642 11.5149 588 53.3588 1262.3 481.401
798 0 53.068 11.1366 591 53.775 1262.46 480.235
799 0 55.0266 9.59536 528 55.0114 1262.3 480.951
800 0 57.1363 11.6213 664 53.1626 1262.3 478.767
801 0 61.1672 13.7329 840 50.4238 1262.82 481.042
802 0 60.0841 11.9 715 52.9552 1262.95 476.476
803 0 63.1129 11.63 734 52.8283 1262.53 476.619
804 0 65.16 12.7532 831 51.5644 1263.08 478.61
805 0 62.1118 9.83709 611 55.4648 1262.92 472.959
806 0 69.0608 12.1632 840 52.8238 1262.03 472.346
807 0 71.2437 10.5553 752 54.0213 1262.4 471.697
808 0 75.1291 12.6449 950 52.2768 1263.16 471.652
809 0 77.208 11.061 854 54.1838 1262.75 467.953
810 0 80.2123 13.1401 1054 52.8178 1262.82 466.47
811 0 81.1365 12.4235 1008 53.4177 1262.87 468.903
812 0 83.2155 11.5123 958 54.9134 1263.38 466.121
813 0 86.2326 11.0051 949 55.3614 1263.08 466.418
814 0 91.1663 12.1207 1105 54.4787 1262.26 462.775
815 0 92.1873 10.7824 994 56.2435 1261.8 458.339
816 0 95.3532 14.2313 1357 53.2926 1261.93 459.119
817 1 52.0746 11.8292 616 55.4091 1261.91 479.424
818 0 53.0608 12.9851 689 54.344 1262.21 481.232
819 0 56.1127 11.6908 656 55.4787 1262.39 480.412
820 0 58.032 11.0801 643 56.1664 1262.88 482.566
821 0 60.1665 13.5624 816 54.8836 1263.01 477.577
822 0 61.1622 9.74459 596 58.4547 1263.06 480.297
823 0 62.2756 11.1119 692 57.6893 1263.04 477.447
824 0 66.2188 10.722 710 58.0084 1262.82 475.248
825 0 69.109 12.6322 873 55.9931 1262.87 474.317
826 0 69.0639 10.2369 707 58.6506 1262.9 474.259
827 0 74.2482 11.8117 877 57.2657 1262.45 470.961
828 0 78.2478 11.8342 926 57.0216 1263.02 470.167
829 0 81.0887 14.5766 1182 54.4171 1262.98 470.001
830 0 83.3084 12.7358 1061 56.3779 1262.89 468.812
831 0 85.1682 12.1289 1033 57.7696 1262.61 463.802
832 0 88.2746 11.2263 991 58.7023 1262.58 463.323
833 0 95.3857 13.6918 1306 55.67 1262.67 465.051
834 1 47.0965 10.7014 504 57.5754 1262.66 487.595
835 0 48.1049 12.057 580 57.2948 1262.77 486.126
836 0 52.1574 12.6923 662 56.1556 1262.54 486.219
837 0 51.0554 13.8477 707 56.3253 1263.29 482.965
838 0 53.0408 12.9523 687 57.5298 1263.61 483.294
839 0 54.0826 11.5749 626 59.1725 1263.49 482.76
840 0 56.2833 11.9574 673 59 1263.06 481.475
841 0 58.1886 13.6969 797 57.1129 1262.98 479.358
842 0 58.2363 10.0796 587 62.5741 1263.3 478.738
843 0 64.1261 14.6118 937 56.2914 1263.53 481.353
844 0 64.226 12.5027 803 59.2951 1263.06 478.098
845 0 66.0734 14.5293 960 57.5667 1262.82 476.441
846 0 66.0908 12.0592 797 60.527 1262.5 474.964
847 0 73.1233 12.4037 907 58.4642 1262.4 475.997
848 0 72.1467 11.9479 862 60.6972 1262.73 471.116
849 0 75.1949 13.7775 1036 58.2404 1262.51 474.32
850 0 77.1718 13.3857 1033 58.8248 1261.97 470.789
851 0 79.1504 11.6361 921 60.8219 1262.21 469.177
852 0 83.2314 11.0175 917 61.6423 1262.34 464.608
853 1 44.1238 11.649 514 59.4708 1262.7 484.463
854 0 45.048 10.8773 490 59.9347 1262.76 486.288
855 0 46.1192 10.5162 485 60.0289 1262.74 487.002
856 0 49.1039 12.7892 628 59.0175 1262.53 485.19
857 0 51.0733 13.1771 673 58.162 1262.65 483.679
858 0 52.1464 12.1197 632 59.8497 1262.81 481.31
859 0 55.1694 12.8695 710 58.5141 1262.39 480.306
860 0 58.0722 12.4328 722 58.615 1262.77 481.96
861 0 60.1132 12.4099 746 58.7748 1262.91 479.434
862 0 61.101 11.9311 729 58.9973 1262.68 479.306
863 0 61.1103 13.3529 816 57.7659 1262.35 479.173
864 0 64.0554 12.7702 818 58.7616 1263.34 477.342
865 0 67.1196 12.3362 828 58.971 1263.34 474.963
866 0 69.0248 12.4883 862 58.826 1263.54 475.441
867 0 68.0917 11.3964 776 60.482 1263.43 471.37
868 0 74.1108 14.3839 1066 56.9409 1263.07 472.039
869 0 74.2147 13.1106 973 58.702 1262.95 469.742
870 0 79.1082 13.273 1050 58.919 1262.78 470.794
871 0 79.2726 11.4289 906 60.7174 1262.38 468.429
872 1 38.048 9.69827 369 60.9594 1262.43 488.333
873 0 39.0537 12.5468 490 58.2429 1262.73 488.78
874 0 39.1083 10.8928 426 60.9014 1262.65 489.19
875 0 41.0212 10.7749 442 60.7624 1262.7 487.33
876 0 41.0217 12.0912 496 59.7137 1262.31 487.236
877 0 42.0697 13.7866 580 57.8897 1262.27 485.405
878 0 42.0757 9.36408 394 62.401 1262.12 486.802
879 0 44.0578 11.8027 520 59.7212 1262.71 484.942
880 0 45.0284 10.5045 473 60.7548 1262.93 486.211
881 0 44.0262 12.4244 547 59.6453 1263.13 483.463
882 0 47.039 12.0538 567 59.9418 1263.09 482.183
883 0 50.0446 12.349 618 58.8754 1263.53 482.536
884 0 51.1597 12.8617 658 59.1565 1263.26 480.413
885 0 53.0611 12.1935 647 59.8439 1263.18 479.753
886 0 55.1186 12.1919 672 59.3586 1263.31 479.991
887 0 56.0951 12.6749 711 59.3277 1263.38 480.698
888 0 60.0718 12.0522 724 59.261 1263.2 479.91
889 0 61.062 13.6746 835 58.2838 1262.53 476.414
890 0 60.0358 11.5098 691 60.8263 1262.66 477.59
891 0 66.0702 10.9883 726 60.8044 1262.4 475.924
892 0 64.1405 10.7576 690 61.7217 1262.71 474.797
893 0 69.1447 12.4088 858 59.7518 1262 473.582
894 0 71.3303 11.8743 847 60.8831 1262.43 469.341
895 0 73.134 10.9525 801 61.6742 1262.35 471.002
896 1 37.0162 9.80651 363 61.9697 1263.09 489.204
897 0 41.0576 12.1293 498 59.1506 1262.94 488.761
898 0 39.0127 11.2271 438 60.4292 1263.09 488.224
899 0 43.1171 11.4804 495 59.8727 1262.68 485.756
900 0 42.0361 10.8954 458 60.4716 1262.65 486.445
901 0 44.1489 10.9176 482 60.1577 1262.72 483.894
902 0 46.0884 13.7562 634 57.1199 1263.6 486.355
903 0 47.0549 11.1784 526 59.9468 1263.22 485.856
904 0 46.077 12.5659 579 59.5095 1263.07 482.478
905 0 52.2571 12.6299 660 58.2439 1262.65 480.106
906 0 52.0521 13.3904 697 57.5352 1263.1 479.99
907 0 53.0532 12.2519 650 58.7354 1263.16 480.465
908 0 57.1399 12.8457 734 57.1322 1262.89 483.594
909 0 57.0265 10.9949 627 59.7719 1263.28 479.207
910 0 56.0252 10.5667 592 60.6706 1262.97 476.388
911 0 63.1169 13.7839 870 55.5977 1262.85 481.612
912 0 64.1915 13.9894 898 56.4454 1262.82 475.943
913 0 66.0746 13.9237 920 56.612 1263.22 474.489
914 0 67.0673 12.7782 857 57.5916 1262.65 472.571
915 0 71.1216 12.3451 878 57.6822 1262.74 469.405
916 0 73.1533 11.4691 839 58.0012 1263.02 473.454
917 0 75.1482 12.4687 937 57.5144 1263.09 467.342
918 0 79.2765 13.5223 1072 56.1604 1263.42 470.973
919 1 42.122 12.7012 535 55.7009 1263.64 488.363
920 0 44.1473 12.5489 554 55.3574 1263.65 488.542
921 0 45.1507 11.0962 501 57.6427 1263.55 486.385
922 0 45.0379 12.3896 558 56.7849 1263.42 486.138
923 0 47.2086 11.3962 538 57.3718 1262.22 486.219
924 0 51.1775 13.2089 676 55.4556 1262.32 483.985
925 0 50.1007 12.1356 608 56.9161 1261.55 483.839
926 0 52.0901 13.3039 693 55.4921 1262.82 484.846
927 0 54.2256 10.5854 574 58.3554 1262.76 482.411
928 0 55.1419 12.5494 692 56.4754 1262.57 481.09
929 0 58.1233 11.6477 677 56.9321 1262.86 480.502
930 0 58.0555 12.8153 744 56.6532 1262.01 478.987
931 0 62.1715 12.5299 779 56.801 1261.79 476.137
932 0 64.081 12.4374 797 56.9385 1261.09 476.758
933 0 66.2041 12.7938 847 56.3211 1261.43 477.75
934 0 68.1078 12.5243 853 56.8839 1262.28 476.596
935 0 70.1842 11.8545 832 57.869 1262.69 474.671
936 0 72.0948 12.331 889 57.6783 1262.18 469.754
937 0 75.1252 12.2862 923 57.5677 1262.23 472.572
938 0 78.2217 11.9532 935 58.1711 1261.37 469.744
939 0 80.06 11.6538 933 58.9003 1261.93 467.194
940 0 83.1452 12.388 1030 58.4592 1261.72 467.633
941 0 86.0886 12.3245 1061 58.3968 1261.89 465.833
942 0 90.2431 12.9096 1165 58.236 1261.62 461.786
943 1 50.1049 13.4318 673 56.4948 1261.62 483.884
944 0 51.1761 11.7242 600 59.2867 1261.3 480.128
945 0 51.1477 12.415 635 59.1591 1260.81 480.151
946 0 55.1405 13.4747 743 57.8183 1260.97 481.545
947 0 56.1161 11.7079 657 59.7595 1260.13 478.318
948 0 59.1298 14.206 840 57.456 1260.44 477.351
949 0 60.076 12.2012 733 59.5512 1260.84 478.089
950 0 63.0485 11.1977 706 60.5538 1260.89 474.316
951 0 66.1644 12.1818 806 58.8586 1261.2 478.6
952 0 66.0869 11.5454 763 60.464 1260.7 475.109
953 0 69.0885 12.7807 883 58.7022 1261.14 475.408
954 0 72.0844 13.4842 972 58.5679 1261.11 472.366
955 0 76.1043 12.772 972 58.5895 1261.17 472.799
956 0 76.0416 11.6515 886 60.1569 1261.09 467.757
957 0 81.1199 12.8945 1046 58.2122 1260.98 468.751
