time division length width area intensity CMx CMy
0 0 66.5452 4.95903 330 30.7939 964.361 416.37
1 0 72.8274 12.4541 907 50.4388 963.865 350.294
2 0 76.2933 17.5245 1337 44.8422 963.489 354.544
3 0 80.7688 10.2886 831 54.0951 963.159 344.415
4 0 76.2712 13.7142 1046 51.3834 962.649 343.413
5 1 83.9928 16.4895 1385 44.9819 962.253 355.099
6 0 85.063 13.0256 1108 49.6516 962.48 348.001
7 0 93.3849 13.8031 1289 47.1924 961.512 352.535
8 0 94.1269 15.4897 1458 45.4355 961.418 354.099
9 0 92.1228 11.0071 1014 53.7604 961.953 340.688
10 0 89.3488 14.5497 1300 48.9377 962.14 345.489
11 1 167.797 16.0372 2691 48.3597 961.626 331.887
12 1 148.456 10.6496 1581 58.2347 962.266 313.925
13 0 146.976 11.1174 1634 49.6701 962.037 340.025
14 1 167.194 10.443 1746 54.5178 960.96 323.563
15 0 168.096 19.5424 3285 48.5963 960.998 315.264
16 0 170.899 16.536 2826 51.0382 960.352 312.959
17 1 180.683 11.1134 2008 56.7052 960.586 306.257
18 0 182.57 21.5533 3935 47.4727 959.461 308.477
19 1 73.1341 7.75289 567 65.7743 959.402 244.94
20 1 123.529 16.3524 2020 46.9663 960.241 340.979
21 1 72.7075 16.4632 1197 44.4327 960.645 356.34
22 0 70.5153 13.1603 928 50.139 960.864 350.328
23 0 74.3749 13.5395 1007 49.7656 960.963 349.031
24 0 79.0995 13.0342 1031 49.7527 961.316 349.844
25 0 84.4414 9.67534 817 54.8507 960.736 342.996
26 1 77.4681 15.0772 1168 49.6344 961.467 345.515
27 0 81.3366 12.7618 1038 51.8574 960.529 344.213
28 0 82.8375 13.5567 1123 51.9501 960.626 341.372
29 0 83.8074 11.3952 955 54.0398 960.941 342.977
30 0 90.3122 15.6125 1410 48.7716 961.111 345.584
31 0 95.6759 12.3751 1184 50.7981 961.438 346.156
32 1 71.0726 12.4239 883 57.7248 960.93 335.934
33 0 73.0805 12.6846 927 58.2449 960.782 334.398
34 0 77.0313 13.9683 1076 56.7714 961.077 332.612
35 0 78.1215 15.6039 1219 55.1788 960.189 335.337
36 0 82.1021 13.2762 1090 56.9642 959.91 335.553
37 0 83.1364 14.5544 1210 57.0818 959.11 329.774
38 1 46.054 12.3116 567 57.2028 959.631 349.256
39 0 45.1217 12.7876 577 56.4142 959.804 350.698
40 0 46.1801 13.5556 626 56.8994 959.888 349.388
41 0 50.0538 14.3645 719 56.5035 960.223 347.942
42 0 47.1616 12.701 599 58.7446 959.077 348.033
43 0 49.0652 13.8591 680 57.9985 959.593 347.46
44 0 50.1129 13.0306 653 58.8775 960.507 348.172
45 0 52.1938 13.9863 730 58.6973 961.118 344.049
46 0 57.1022 13.6422 779 58.4775 960.258 345.561
47 1 77.3434 13.0069 1006 53.7624 960.573 350.471
48 1 156.316 8.86663 1386 63.2374 959.998 315.97
49 0 156.262 10.6232 1660 62.4849 960.476 312.443
50 0 156.343 9.52391 1489 65.086 960.162 305.518
51 1 176.485 15.5708 2748 50.8373 960.05 333.201
52 0 183.703 10.468 1923 60.155 959.357 314.926
53 0 176.478 11.6105 2049 54.7877 958.548 333.418
54 1 196.6 10.7833 2120 63.4585 958.625 296.142
55 0 194.527 10.3173 2007 64.9078 959.216 291.195
56 1 218.64 10.0073 2188 58.5937 959.464 317.072
57 0 219.392 14.0935 3092 54.6106 959.358 315.298
58 1 81.1612 12.4444 1010 60.9465 959.708 338.317
59 0 85.1252 12.0763 1028 61.4669 959.965 337.306
60 0 87.1875 14.291 1246 59.2913 959.536 335.821
61 0 91.1629 12.8451 1171 61.3553 959.861 331.999
62 1 54.2911 12.9671 704 58.9375 959.939 352.774
63 0 56.2328 13.6575 768 59.9844 960.169 349.602
64 0 57.3555 12.0477 691 61.8177 960.065 349.776
65 0 58.2397 11.6415 678 61.9602 959.745 347.718
66 0 61.0885 13.6196 832 59.607 959.631 347.2
67 0 63.1428 12.5272 791 60.507 960.028 347.09
68 0 68.0699 13.6624 930 58.7516 960.234 348.196
69 0 67.2631 12.3247 829 60.5778 959.483 346.735
70 0 66.0516 11.2791 745 62.6604 959.549 342.369
71 0 70.2239 15.2512 1071 57.9757 960.018 342.533
72 0 75.2819 14.0273 1056 58.4735 959.996 340.922
73 0 78.1542 13.371 1045 58.7301 959.737 341.579
74 0 78.0946 12.9843 1014 59.3728 959.821 340.22
75 0 81.098 12.5774 1020 60.0412 959.877 336.225
76 0 86.0698 11.6766 1005 60.3095 959.283 338.19
77 1 44.0951 11.9061 525 58.8838 959.87 355.16
78 0 45.1201 12.9211 583 58.0292 959.66 355.331
79 0 47.1704 13.2074 623 58.5441 959.933 352.515
80 0 47.0982 11.2956 532 60.4417 959.293 354.707
81 0 50.1778 12.8144 643 59.6439 958.306 351.543
82 0 50.1519 12.1232 608 60.3355 960.475 352.067
83 0 49.0862 12.5901 618 60.678 960.052 350.238
84 0 52.0693 10.9854 572 61.6608 959.603 349.904
85 0 54.4666 12.2277 666 60.3198 959.402 347.104
86 0 57.3535 13.2511 760 59.1237 958.778 348.472
87 0 61.4985 12.7808 786 59.1768 959.3 348.767
88 0 64.1904 11.6217 746 59.7708 959.693 349.468
89 0 67.4567 14.3203 966 56.5476 960.506 348.422
90 0 66.3246 13.5093 896 58.5391 959.917 346.331
91 0 69.2241 14.1569 980 57.8173 959.55 344.107
92 0 72.5445 12.8611 933 58.8714 959.688 343.076
93 0 74.5088 12.4146 925 59.4941 959.396 343.15
94 0 74.352 13.073 972 58.9928 959.433 342.926
95 0 77.1915 13.2398 1022 58.4843 958.73 342.315
96 0 82.2567 14.4061 1185 57.7468 959.013 337.633
97 0 83.2486 12.817 1067 59.6392 958.935 336.886
98 1 43.1752 11.3491 490 60.4204 959.788 354.906
99 0 47.3893 13.5052 640 57.5172 958.852 353.67
100 0 46.3125 11.4656 531 60.1563 959.469 353.46
101 0 49.1912 11.3435 558 59.7993 959.634 353.796
102 0 50.3239 12.6381 636 58.3145 960.299 352.808
103 0 50.35 11.857 597 59.8677 959.93 350.122
104 0 52.1085 14.1052 735 57.3769 959.592 349.705
105 0 56.2428 12.1438 683 58.5842 960.239 350.857
106 0 60.1295 12.7392 766 57.8225 960.834 349.42
107 0 60.1152 12.2931 739 58.5792 960.585 346.422
108 0 63.1709 14.2946 903 55.9513 960.526 349.77
109 0 64.4805 12.0346 776 58.7126 960.396 346.896
110 0 66.1784 14.4156 954 55.9392 960.298 347.692
111 0 69.2841 13.7983 956 56.796 959.903 344.43
112 0 69.3998 13.026 904 57.3783 959.139 342.89
113 0 72.2842 13.7374 993 56.7341 960.133 341.068
114 0 73.1212 13.0879 957 57.4117 960.595 342.542
115 0 75.1131 11.05 830 59.4301 959.784 339.434
116 0 77.2237 12.0429 930 58.6022 959.835 336.203
117 0 79.1747 11.5567 915 59.3519 959.507 332.393
118 0 81.2471 13.2682 1078 57.5649 959.736 333.591
119 0 87.1963 13.1772 1149 56.3986 960.301 336.764
120 0 88.2548 12.9965 1147 57.1997 960.086 333.027
121 0 91.0682 14.7582 1344 55.4546 960.444 332.6
122 1 46.0524 10.7269 494 58.6721 960.852 351.664
123 0 44.0666 9.41756 415 60.4313 960.706 349.863
124 0 51.1489 9.83403 503 59.5547 961.083 349.934
125 0 51.0985 13.1315 671 56.7273 961.349 350.025
126 0 55.07 11.7668 648 57.1914 960.818 349.556
127 0 57.1764 13.3097 761 56.0237 960.595 348.325
128 0 60.0954 12.7464 766 55.829 960.561 348.598
129 0 62.1729 12.2401 761 56.4244 960.505 345.859
130 0 63.1719 13.6453 862 55.3457 960.253 345.396
131 0 64.3068 13.4511 865 55.8266 959.931 342.351
132 0 66.1539 11.9721 792 56.774 959.438 344.934
133 0 68.168 14.2736 973 54.9723 959.641 342.959
134 0 70.1815 14.491 1017 54.7316 959.489 340.853
135 0 73.306 12.0863 886 56.447 960.345 341.319
136 0 75.1492 14.7706 1110 54.018 960.082 341.757
137 0 77.2493 11.7024 904 57.5343 960.674 335.737
138 0 79.1586 12.5318 992 56.7732 960.162 338.131
139 0 81.0956 12.997 1054 56.8226 960.175 333.104
140 0 85.2212 14.4565 1232 54.9383 960.288 333.896
141 1 47.054 10.4986 494 57.6457 959.346 351.051
142 0 46.144 12.0709 557 57.3501 960.269 351.817
143 0 49.1018 9.95891 489 59.0552 959.922 349.585
144 0 54.1974 12.6943 688 55.641 960.371 352.719
145 0 54.1338 14.4087 780 54.1372 960.333 349.996
146 0 58.1604 13.4112 780 54.8449 959.996 349.682
147 0 59.0738 12.8991 762 55.4619 960.325 348.961
148 0 62.2157 13.7747 857 54.2065 960.32 349.209
149 0 62.1857 14.7783 919 53.3765 960.505 350.075
150 0 66.2409 12.6206 836 55.4916 960.474 347.856
151 0 68.4181 13.2275 905 54.8155 959.524 347.509
152 0 70.1173 13.3063 933 54.8199 959.148 347.054
153 0 69.2069 13.7703 953 55.0745 960.152 345.808
154 0 71.2005 13.6094 969 56.1569 960.671 340.28
155 0 75.1204 15.2156 1143 54.4541 961.385 342.749
156 0 77.3566 13.6899 1059 56.1199 960.402 340.783
157 0 79.1036 13.4634 1065 56.4385 961.137 342.366
158 0 81.1651 13.146 1067 57.597 961.097 337.27
159 0 83.3795 12.9408 1079 57.8489 961.357 340.677
160 1 43.0258 13.0155 560 56.4964 961.409 357.179
161 0 45.3041 13.3763 606 56.4521 961.465 357.84
162 0 47.1887 14.1559 668 55.5988 961.18 358.365
163 0 49.1136 13.9065 683 56.8199 960.851 354.764
164 0 50.1855 13.6095 683 55.9605 960.654 358.334
165 0 48.0523 14.5674 700 57.3029 960.826 355.43
166 0 48.0875 11.791 567 60.9206 960.843 354.797
167 0 52.3068 13.0002 680 58.9853 961.154 354.968
168 0 52.1063 11.6301 606 60.7409 960.929 355.827
169 0 54.1078 14.1384 765 59.0784 959.841 351.471
170 0 56.021 13.1379 736 59.4973 960.086 353.822
171 0 58.2547 11.7415 684 61.674 960.203 349.769
172 0 60.1223 13.3561 803 60.3549 960.923 351.349
173 0 62.0665 13.6144 845 59.7929 961.011 349.131
174 0 64.1006 12.9484 830 60.6867 961.175 348.299
175 0 65.0868 12.5217 815 61.7669 960.064 344.477
176 0 67.1142 13.4696 904 60.7876 960.385 348.874
177 0 68.2529 11.8676 810 62.9111 960.938 346.896
178 0 71.0847 13.5472 963 60.9169 961.023 345.896
179 0 76.0623 14.1463 1076 59.9805 961.161 344.576
180 0 78.1235 15.0019 1172 59.5 961.144 345.503
181 0 81.0966 14.5136 1177 59.989 960.952 345.71
182 1 42.1396 13.1705 555 60.0577 961.337 362.492
183 0 44.2123 10.5174 465 63.1656 961.351 362.649
184 0 44.0727 12.6836 559 61.8658 960.708 359.12
185 0 46.0784 13.0864 603 61.0282 960.303 359.874
186 0 47.129 13.0068 613 61.4209 960.615 360.385
187 0 49.0602 11.9445 586 62.4915 960.997 357.611
188 0 51.2977 12.0668 619 61.706 960.695 359.292
189 0 50.056 14.0842 705 60.2255 960.759 355.919
190 0 53.2078 12.0283 640 62.2422 960.531 356.395
191 0 54.2177 12.3576 670 62.1075 959.931 353.287
192 0 55.1435 11.8781 655 62.2595 959.808 355.018
193 0 59.2638 12.3516 732 61.123 959.896 355.944
194 0 62.3308 12.3695 771 60.6161 960.508 352.956
195 0 64.1277 13.5355 868 59.6671 960.031 351.724
196 0 66.2978 13.198 875 59.7509 960.803 353.794
197 0 68.3954 13.6559 934 59.0343 961.354 353.925
198 0 70.1586 12.9849 911 60.0274 960.678 351.74
199 0 72.1939 11.4414 826 62.2482 960.435 351.234
200 0 77.2499 13.5146 1044 59.0747 960.172 352.512
201 0 78.1947 13.4024 1048 59.4618 960.585 354.344
202 1 40.1907 10.3507 416 61.0192 961.046 370.837
203 0 44.2948 10.7462 476 61.0777 960.958 369.811
204 0 47.3057 12.8314 607 58.1549 960.442 370.613
205 0 43.1426 9.8974 427 63.1241 960.656 370.431
206 0 47.1757 12.1885 575 59.7722 961.214 371.993
207 0 47.2359 13.2738 627 57.9809 960.681 370.877
208 0 53.2111 10.9 580 58.781 960.355 371.731
209 0 51.1011 12.8569 657 58.1446 960.35 372.339
210 0 54.2262 10.5484 572 59.6521 960.483 371.073
211 0 56.1625 11.7338 659 58.2534 960.967 374.452
212 0 58.2393 12.6032 734 57.7793 960.448 369.963
213 0 58.2176 12.5563 731 57.8988 960.304 370.339
214 0 64.1952 11.247 722 56.7576 960.64 377.729
215 0 64.2092 13.3158 855 56.469 959.192 372.339
216 0 66.148 11.308 748 58.4024 959.024 373.693
217 0 65.2312 11.5742 755 59.2503 958.983 371.764
218 0 70.1505 12.9436 908 57.0628 959.261 375.41
219 0 74.2069 11.5757 859 57.681 959.759 376.781
220 0 74.3511 12.4141 923 58.1148 959.453 373.036
221 1 38.2842 9.82129 376 58.508 959.981 392.912
222 0 41.1994 12.1118 499 56.3166 960.016 393.08
223 0 41.2102 9.85193 406 58.0714 960.53 393.234
224 0 46.362 11.6259 539 56.5733 959.909 390.299
225 0 44.1475 10.6914 472 58.3941 959.951 390.746
226 0 48.1693 10.5254 507 57.4675 960.314 394.598
227 0 47.2916 9.2194 436 59.7729 960.417 393.33
228 0 49.1842 11.9144 586 57.0273 960.601 392.824
229 0 51.4081 11.9242 613 56.969 960.235 392.874
230 0 54.2449 10.7291 582 58.3007 960.527 391.058
231 0 55.3543 12.9348 716 56.4092 960.304 392.391
232 0 58.2046 12.8684 749 55.773 960.781 393.108
233 0 59.2712 12.5525 744 56.2984 960.425 392.727
234 0 59.2381 10.5169 623 58.8218 960.61 389.713
235 0 64.2647 12.6664 814 56.0823 960.455 389.478
236 0 64.1779 12.2784 788 57.2348 959.703 388.396
237 0 67.4077 11.2302 757 57.5905 959.711 387.295
238 0 69.3322 13.6012 943 55.6532 960.461 387.68
239 0 71.2386 11.2158 799 57.9262 960.275 387.058
240 0 75.3165 14.5254 1094 54.3126 960.451 387.059
241 0 73.1728 13.0513 955 56.8733 960.255 384.58
242 1 40.3465 11.9713 483 56.4141 960.269 399.95
243 0 40.4605 12.0859 489 56.501 960.045 400.994
244 0 42.3018 12.7418 539 56.18 960.265 400.609
245 0 42.3704 10.7386 455 58.0044 960.123 400.492
246 0 41.1189 10.9439 450 58.5733 960.044 399.364
247 0 46.1037 11.344 523 58.1912 959.665 398.937
248 0 46.1695 14.0569 649 55.5562 959.653 396.761
249 0 49.378 12.941 639 56.3036 959.266 396.031
250 0 47.0558 9.79687 461 60.2213 959.74 395.746
251 0 48.1162 10.8072 520 58.9423 959.687 397.89
252 0 53.1244 13.0825 695 56.3755 960.304 393.963
253 0 53.3128 10.1664 542 59.5609 959.5 395.33
254 0 56.1873 10.287 578 59.4965 959.668 392.941
255 0 59.459 12.0924 719 56.9958 959.926 395.209
256 0 57.1287 13.1633 752 57.4176 960.237 390.239
257 0 63.2884 12.4825 790 57.3709 960.956 392.576
258 0 63.188 13.8318 874 56.2506 960.251 390.458
259 0 66.1719 12.2862 813 57.3198 960.096 389.988
260 0 70.0999 11.883 833 57.7923 959.681 388.618
261 1 39.1661 11.6427 456 56.3947 959.836 405.105
262 0 36.2143 8.83628 320 59.8531 960.144 405.472
263 0 39.2398 10.3212 405 58.8568 960.328 402.963
264 0 40.1299 11.0142 442 58.9955 959.837 402.33
265 0 42.1261 10.9671 462 58.7835 959.883 402.102
266 0 43.0696 11.5627 498 58.9518 959.731 399.823
267 0 47.2518 12.5498 593 56.4115 959.858 401.116
268 0 46.2146 12.1607 562 58.2758 959.617 398.171
269 0 46.0504 13.3767 616 57.4708 959.881 395.456
270 0 48.0585 12.3391 593 57.8954 959.651 398.364
271 0 51.2451 12.7232 652 57.2653 958.977 395.541
272 0 53.2403 11.2509 599 58.8297 959.648 392.427
273 0 54.1653 11.1141 602 58.2492 959.772 395.44
274 0 56.1491 14.4081 809 55.4784 959.714 391.878
275 0 58.1528 11.6074 675 58.2193 959.514 389.767
276 0 60.2018 13.3385 803 56.2341 959.772 388.268
277 0 60.07 12.2357 735 57.4286 959.893 386.849
278 0 62.2109 12.9077 803 56.5131 959.41 386.031
279 0 66.1508 13.0913 866 55.5335 959.23 387.379
280 0 67.1619 11.033 741 57.6775 958.968 383.015
281 0 69.0567 12.1494 839 56.2277 958.931 381.501
282 0 72.0568 12.2681 884 55.8179 959.014 383.826
283 0 74.2022 11.3608 843 56.4211 959.181 383.954
284 0 79.0965 12.2635 970 55.5845 959.247 381.186
285 1 38.0622 10.2727 391 56.6394 959.724 399.747
286 0 39.0744 9.26437 362 57.4365 958.666 396.497
287 0 41.0705 11.1029 456 55.6535 958.895 397.759
288 0 42.0942 12.472 525 54.701 959.244 396.64
289 0 42.0477 11.9864 504 55.3571 959.393 394.786
290 0 47.0835 11.7663 554 54.9224 958.653 395.836
291 0 46.0656 12.4171 572 55.4266 959.171 393.537
292 0 48.1546 13.0829 630 54.9127 958.652 393.77
293 0 49.1488 11.3736 559 56.9267 958.818 392.535
294 0 50.1024 10.7979 541 57.939 958.978 390.793
295 0 51.0947 9.64875 493 59.4645 959.231 390.01
296 0 55.1532 12.1299 669 56.4006 958.767 388.229
297 0 58.2648 12.3917 722 55.5776 959.488 391.177
298 0 56.1045 12.2806 689 56.7939 959.62 388.395
299 0 60.1614 10.7877 649 57.433 958.972 386.824
300 0 61.3111 13.3744 820 55.2183 958.606 389.309
301 0 65.0666 11.9262 776 56.2384 958.716 386.26
302 0 64.0299 11.2447 720 57.5319 958.453 383.593
303 0 71.1412 12.9039 918 54.8595 958.914 384.205
304 0 72.1267 13.504 974 54.7608 959.024 384.002
305 0 73.1165 12.4732 912 56.1689 959.397 381.104
306 0 75.2191 12.3639 930 56.2011 958.961 381.019
307 0 76.0901 11.4995 875 57.3817 959.2 378.338
308 0 81.2947 14.429 1173 54.0895 958.935 379.023
309 0 83.1138 12.7536 1060 55.9387 959.366 378.777
310 1 37.0373 8.85593 328 58.1402 959.36 398.265
311 0 39.0168 10.6108 414 56.5314 958.737 396.408
312 0 43.0375 12.8725 554 53.8014 958.552 396.496
313 0 46.1093 11.9282 550 54.4873 958.365 396.182
314 0 47.0832 11.0018 518 55.0097 959.39 397.531
315 0 48.0923 11.6443 560 54.6321 959.745 397.198
316 0 50.0628 11.5655 579 55.0104 959.924 395.054
317 0 50.0508 11.3085 566 55.5477 959.454 393.403
318 0 52.0782 12.6733 660 54.553 959.367 391.294
319 0 52.0139 11.4969 598 55.8344 958.881 391.93
320 0 59.0493 11.0924 655 54.9191 958.064 393.098
321 0 60.1973 12.675 763 53.7667 958.354 391.547
322 0 59.1705 11.6105 687 55.6943 958.732 387.646
323 0 65.196 10.9823 716 55.0307 958.761 392.318
324 0 69.0728 11.886 821 53.6346 958.817 391.515
325 0 69.0804 12.319 851 54.1739 958.61 389.555
326 0 70.0781 13.1568 922 53.7777 958.089 387.351
327 1 31.0139 8.77025 272 57.114 958.82 401.798
328 0 34.0974 11.5844 395 53.9266 959.058 405.461
329 0 40.0548 12.8075 513 51.6433 958.581 404.959
330 0 39.1604 12.3084 482 52.9938 957.946 403.083
331 0 39.0328 13.2709 518 53.0869 958.471 400.515
332 0 41.1954 10.2681 423 55.513 959.09 402.18
333 0 43.0479 11.8705 511 53.7476 959.554 402.364
334 0 44.089 10.7737 475 54.6084 960.084 402.672
335 0 43.0368 13.5466 583 53.1098 959.928 400.684
336 0 46.1108 11.082 511 54.7476 959.984 401.746
337 0 47.0925 13.2505 624 52.7179 959.337 400.784
338 0 48.1855 14.1121 680 52.2897 959.257 399.416
339 0 49.034 12.3792 607 53.9918 959.311 397.316
340 0 51.1169 11.0727 566 55.1095 959.261 396.712
341 0 51.0288 14.0313 716 52.4651 959.103 396.948
342 0 53.1128 11.8804 631 54.7448 958.691 395.824
343 0 57.1237 14.0922 805 51.9578 958.969 395.004
344 0 56.0912 13.585 762 52.4908 958.286 395.875
345 0 58.0711 12.3469 717 54.1688 958.718 395.192
346 0 59.0824 12.2202 722 54.0125 959.17 395.105
347 0 60.0735 10.9033 655 56.2519 958.705 388.71
348 0 63.1684 9.57757 605 56.6397 958.888 391.797
349 0 65.1059 12.5949 820 54.65 958.72 387.534
350 0 67.0787 12.3139 826 54.7058 958.898 389.304
351 0 69.1016 11.3456 784 55.2577 958.662 385.32
352 0 70.2784 11.1841 786 55.8219 958.503 385.144
353 0 73.1885 11.163 817 55.5165 958.133 384.198
354 0 75.1822 11.3458 853 55.5346 958.516 383.034
355 0 77.0409 12.3311 950 54.7789 957.816 380.274
356 1 42.0426 11.8213 497 52.9396 958.501 397.787
357 0 42.0542 11.6041 488 53.9918 958.131 396.984
358 0 44.0229 9.35876 412 55.7015 958.604 398.515
359 0 44.0842 9.82212 433 55.8822 958.88 394.462
360 0 46.0797 13.1728 607 52.5058 958.649 395.806
361 0 48.0333 11.9292 573 53.7033 958.792 394.178
362 0 49.1141 12.7458 626 53.1917 958.899 394.97
363 0 46.0302 10.6017 488 55.4713 959.053 390.393
364 0 50.032 10.0136 501 58.8363 959.044 340.425
365 0 53.0487 11.1218 590 57.9797 959.493 338.558
366 0 51.141 9.48359 485 59.7608 958.975 336.262
367 0 55.0724 12.184 671 57.6587 958.855 330.987
368 0 59.0514 11.3799 672 57.9911 958.982 329.068
369 0 58.0739 9.31571 541 60.6599 958.591 325.525
370 0 63.0657 11.8607 748 58.5267 958.471 321.269
371 0 64.0721 12.4391 797 58.4442 958.689 318.454
372 0 61.0564 8.53309 521 63.5125 958.664 316.345
373 1 101.167 7.6705 776 62.4729 958.661 336.369
374 0 109.061 8.28891 904 62.6018 958.451 325.785
375 0 110.161 10.4574 1152 60.0955 959.053 333.083
376 0 116.05 11.2021 1300 59.9477 959.139 326.725
377 0 107.09 2.87607 308 67.737 958.714 331.091
378 1 86.1372 10.5413 908 59.8612 958.891 337.564
379 0 88.0429 10.6539 938 60.0032 959.543 335.837
380 0 86.0373 9.87943 850 57.8388 959.935 363.259
381 0 77.0312 9.68438 746 58.4075 959.65 356.44
382 1 91.1209 10.722 977 61.4084 958.996 326.493
383 1 58.0538 8.47489 492 60.3293 959.049 339.728
384 0 57.0351 10.4497 596 58.0721 958.822 340.289
385 0 57.0905 9.51121 543 59.5414 958.168 332.632
386 0 57.0708 14.3155 817 55.3843 958.745 332.521
387 0 59.0801 13.5071 798 56.208 958.434 332.583
388 0 59.0915 11.626 687 58.3755 958.483 330.247
389 0 63.0331 12.8028 807 57.1276 959.016 326.496
390 0 64.1084 12.4321 797 57.9787 958.595 323.782
391 0 66.0528 12.7322 841 58.0083 959.121 320.868
392 0 72.0704 14.4858 1044 53.7404 959.904 387.809
393 0 75.1132 13.5129 1015 55.0404 959.724 385.632
394 1 37.0234 10.2638 380 56.3237 958.676 404.874
395 0 40.1445 12.3803 497 54.7565 958.843 403.254
396 0 43.0767 14.9269 643 51.7667 959.092 403.462
397 0 43.1219 11.9893 517 55.6441 958.586 402.228
398 0 44.0331 13.0584 575 54.7635 959.216 402.325
399 0 43.1374 8.66996 374 59.2139 959.39 402.85
400 0 48.0788 11.7723 566 55.3922 959.072 404.06
401 0 48.0458 13.0084 625 54.8592 959.162 403.654
402 0 51.171 11.3736 582 56.3969 958.979 402.589
403 0 51.0468 12.5375 640 55.2688 958.914 405.009
404 0 53.0378 12.8399 681 55.2203 958.468 402.231
405 0 55.0617 11.7505 647 56.4714 958.918 403.151
406 0 57.1559 11.2324 642 56.9953 959.458 404.382
407 0 57.1351 11.4116 652 57.2561 959.064 405.529
408 0 61.1082 12.8133 783 55.9706 958.81 403.599
409 0 63.0499 12.1967 769 56.6255 959.779 406.226
410 0 65.1138 12.9619 844 55.6102 959.242 408.783
411 0 66.0879 13.5123 893 56.0347 958.638 406.282
412 0 68.0856 14.4671 985 54.9685 958.991 407.025
413 0 66.0798 12.3941 819 57.8291 958.965 404.182
414 0 66.0521 10.7188 708 59.8927 958.266 402.264
415 1 78.1777 12.7402 996 55.9147 958.675 411.559
416 1 41.0773 10.9306 449 56.4454 958.935 425.791
417 0 41.0488 12.4242 510 56.1843 959.302 428.508
418 0 43.0609 10.7058 461 58.0976 959.223 429.223
419 0 44.1067 10.9734 484 58.3884 959.076 427.818
420 0 45.0177 13.4169 604 56.3394 959.124 426.026
421 0 47.129 14.1102 665 55.2707 958.853 426.546
422 0 51.1769 11.8999 609 57.0148 960.11 427.949
423 0 52.041 12.2211 636 56.8318 960.104 428.047
424 0 52.0546 13.2745 691 56.5224 960.308 426.056
425 0 56.0255 11.941 669 57.0389 959.873 427.136
426 0 58.1284 13.1089 762 56.122 959.381 425.479
427 0 60.1516 10.6232 639 58.6072 959.884 425.426
428 0 62.0546 12.1184 752 57.3364 960.056 421.125
429 0 63.0748 12.1126 764 57.0524 959.959 421.708
430 0 66.0731 12.6375 835 57.0635 960.244 419.868
431 0 67.3203 11.0219 742 58.3221 960.077 420.482
432 0 69.1714 12.6931 878 57.2722 960.319 417.292
433 0 75.0739 12.3212 925 57.16 960.324 419.037
434 0 75.0389 10.6345 798 58.9699 960.301 416.907
435 0 79.1024 10.9225 864 58.5498 959.626 414.726
436 0 80.1086 10.1362 812 59.6441 959.086 415.265
437 1 40.1621 12.0263 483 56.0745 959.7 432.325
438 0 41.0229 8.60496 353 59.8414 960.323 432.89
439 0 42.0821 11.0974 467 57.6188 959.974 432.084
440 0 43.0404 9.80474 422 59.2678 960.102 430.936
441 0 46.0321 11.3834 524 57.4523 959.971 431.513
442 0 46.0468 10.4676 482 58.8693 959.919 429.434
443 0 49.0257 10.2803 504 58.3651 959.696 427.431
444 0 52.0555 10.8154 563 57.9201 959.975 425.604
445 0 55.0771 9.96784 549 58.2332 960.346 428.852
446 0 54.0854 10.3725 561 58.5116 960.321 425.988
447 0 56.0403 9.58238 537 59.0857 960.419 423.376
448 0 60.2426 12.8812 776 55.6843 959.82 423.037
449 0 60.0508 9.42535 566 59.3834 960.519 421.002
450 0 62.0251 11.0278 684 57.8348 960.417 420.344
451 0 64.0782 10.9398 701 58.0613 960.277 418.193
452 0 68.1252 9.89355 674 59.0104 960.42 416.181
453 0 70.0679 10.2472 718 58.454 960.057 416.809
454 0 71.0477 10.2889 731 58.3625 960.492 413.956
455 1 38.0781 12.8158 488 53.7152 960.014 432.615
456 0 39.1714 9.82861 385 56.5948 959.444 433.236
457 0 39.0144 12.5851 491 54.6375 960.163 432.727
458 0 41.0677 11.1036 456 55.8246 960.068 431.193
459 0 41.1054 9.46348 389 57.4961 960.231 429.018
460 0 42.0454 9.48975 399 58.0677 959.932 429.278
461 0 47.0318 11.758 553 54.7179 960.637 429.546
462 0 47.0688 9.53924 449 57.6414 960.294 426.684
463 0 48.1206 11.679 562 55.6566 960.05 425.786
464 0 51.0804 9.96469 509 56.3084 959.719 425.528
465 0 52.0775 12.347 643 54.3173 959.571 422.541
466 0 54.1027 9.5559 517 56.6867 959.6 422.679
467 0 57.1972 10.7173 613 55.2659 960.222 422.365
468 0 58.1296 11.5088 669 54.5456 959.906 420.747
469 0 62.1411 10.5405 655 54.8229 959.747 421.234
470 0 62.1411 10.5727 657 118.18 959.761 421.408
471 0 62.1411 10.6049 659 117.542 959.742 421.476
472 0 70.1791 11.8839 834 53.1247 960.618 418.367
473 0 72.2349 10.2997 744 54.1169 960.477 416.597
474 0 71.1622 8.68439 618 54.8867 960.366 418.01
475 0 76.2951 12.0322 918 52.7277 960.202 413.313
476 0 78.1435 10.839 847 53.7816 960.133 412.876
477 0 81.1339 11.1914 908 53.0782 959.736 411.279
478 0 83.2706 9.90746 825 54.4776 959.752 406.914
479 1 44.0398 9.58223 422 53.7749 959.78 427.912
480 0 46.0746 12.0891 557 51.6122 959.869 427.998
481 0 48.078 10.9614 527 52.5199 959.795 424.268
482 0 51.0592 12.4561 636 50.967 959.263 423.684
483 0 49.0502 9.58203 470 53.6085 959.923 423.551
484 0 54.1527 10.138 549 52.0656 959.967 423.463
485 0 57.2549 11.999 687 50.6288 960.639 424.713
486 0 58.0529 9.73251 565 52.4265 959.958 422.184
487 0 61.1206 13.1543 804 49.2587 960.144 420.999
488 0 63.3166 14.6091 925 47.9686 960.314 420.084
489 0 65.053 14.3883 936 48.3665 961.078 416.656
490 0 66.2265 13.3179 882 48.9705 961.266 417.486
491 0 68.2148 10.1151 690 51.1681 960.8 415.649
492 0 71.0251 10.4752 744 51.0067 961.255 414.047
493 0 74.1014 11.6732 865 50.0601 960.154 412.533
494 0 80.0437 13.3677 1070 48.2953 960.371 410.734
495 0 80.1307 11.8182 947 49.6294 960.847 408.431
496 0 82.1198 10.1194 831 51.0012 961.035 408.492
497 0 84.2006 8.20659 691 52.2055 960.764 405.194
498 0 86.1474 7.73093 666 52.6592 961.314 406.884
499 1 46.0808 7.68216 354 52.9407 960.912 384.11
500 0 39.0785 11.0547 432 50.0579 960.713 424.132
501 0 42.0716 10.1969 429 50.5175 961.145 425.564
502 0 42.046 9.70365 408 50.7279 960.6 424.338
503 1 57.0334 10.2571 585 51.4598 959.868 371.754
504 0 47.1293 9.69673 457 50.6958 960.418 426.208
505 0 47.0335 9.78027 460 51.0196 960.265 420.067
506 0 49.0621 11.2918 554 50.1534 960.28 420
507 0 53.0631 10.7231 569 50.3199 960.431 421.214
508 0 53.0702 10.0622 534 51.0449 960.605 422.245
509 0 56.2402 10.6152 597 51.0067 960.454 419.337
510 0 56.0623 11.184 627 50.7368 960.128 414.936
511 0 59.3034 12.3433 732 49.888 960.441 416.142
512 0 62.1693 11.8708 738 50.4038 960.648 415.486
513 0 64.1421 13.2986 853 49.3529 960.309 417.511
514 0 69.0537 10.7597 743 51.0861 960.849 417.583
515 0 71.0694 10.2154 726 51.7769 961.059 411.343
516 0 73.0926 10.1925 745 52.8497 960.109 410.905
517 0 77.0978 13.3467 1029 50.6113 960.673 411.944
518 1 42.0632 11.982 504 50.9841 960.544 428.938
519 0 40.0932 11.0742 444 51.8266 960.626 428.417
520 0 42.0673 12.4087 522 50.3755 960.701 429.287
521 0 48.1829 11.7054 564 50.6294 960.587 426.676
522 0 48.0932 11.6025 558 51.5179 960.459 424.292
523 0 50.0799 10.8227 542 51.7509 960.035 424.055
524 0 51.1416 7.74321 396 54.1793 960.394 422.136
525 0 52.0673 10.2752 535 52.6243 960.215 422.89
526 0 55.1289 12.498 689 50.3091 959.734 422.877
527 0 57.0652 10.4442 596 51.7785 959.221 420.982
528 0 59.0882 13.4037 792 49.2828 959.703 421.33
529 0 60.0652 7.27543 437 53.4668 960.114 420.268
530 0 63.1334 12.038 760 50.4316 959.955 417.691
531 0 66.0778 9.38287 620 51.7613 959.124 417
532 0 71.048 12.0482 856 50.1472 959.478 414.933
533 0 74.0992 14.4806 1073 48.1752 960.161 412.847
534 0 78.1513 11.7337 917 50.0305 960.076 411.052
535 1 36.0469 11.1521 402 49.8333 960.182 433.279
536 0 38.0342 10.0173 381 50.4593 960.268 429.992
537 0 37.0115 12.3745 458 48.9105 960.836 432.09
538 0 40.0613 10.9083 437 49.849 960.286 429.606
539 0 41.1623 9.59616 395 50.4101 960.451 431.215
540 0 45.2285 13.1775 596 47.646 960.554 429.045
541 0 45.0428 11.478 517 49.5242 960.4 427.089
542 0 46.0547 11.8338 545 49.4477 959.895 425.29
543 0 46.0408 13.1405 605 48.6215 959.726 423.661
544 0 50.0521 14.0653 704 47.5767 959.939 424.196
545 0 51.0402 13.1465 671 48.2697 959.662 423.507
546 0 50.0225 9.17587 459 51.3442 959.815 422.793
547 0 53.0914 11.678 620 49.5484 960.613 419.139
548 0 57.1581 11.3195 647 49.3369 960.068 418.025
549 0 58.0512 11.576 672 49.3244 959.963 420.427
550 0 61.1459 10.9083 667 50.1169 960.099 416.645
551 0 63.0935 12.0456 760 49.1461 960.521 417.212
552 0 64.1057 11.3562 728 49.7459 960.552 415.492
553 0 66.1006 11.543 763 49.9227 960.498 413.522
554 0 69.0851 9.98768 690 51.0681 960.054 412.146
555 1 33.0618 10.072 333 50.4805 960.483 431.468
556 0 36.0225 9.3275 336 50.8839 960.298 433.039
557 0 41.0574 10.5949 435 51.1747 960.209 384.71
558 0 38.1177 10.8611 414 50.2391 960.234 425.94
559 0 40.2676 10.2564 413 50.2034 960.341 429.247
560 0 39.06 7.9109 309 52.0065 960.162 425.227
561 0 42.0394 10.4188 438 50.0982 959.767 425.856
562 0 44.03 12.2871 541 49.0148 960.558 428.146
563 0 45.0503 9.54489 430 50.6977 960.407 424.467
564 0 47.0077 9.93454 467 50.2548 960.595 423.336
565 0 48.0703 9.83975 473 50.5941 960.797 420.953
566 0 49.0958 13.8097 678 47.7065 960.668 421.134
567 0 51.0214 8.72184 445 51.5326 960.085 420.593
568 0 53.0764 8.81748 468 51.8333 960.186 423.549
569 0 56.1529 10.5604 593 50.2344 959.037 416.118
570 0 58.0801 8.83264 513 51.1598 959.39 420.339
571 0 59.0279 12.1637 718 48.7813 959.609 413.401
572 0 61.0685 9.30103 568 51.4349 960.482 416.143
573 0 65.0959 13.7182 893 48.4994 959.948 414.11
574 0 69.095 9.6389 666 51.4264 960.066 413.602
575 1 33.0995 11.4503 379 49.4406 960.272 432.111
576 0 33.0551 11.738 388 49.3557 960.802 431.147
577 0 34.0313 11.9302 406 49.6527 960.517 430.232
578 0 37.0874 9.08664 337 51.3234 960.608 429.727
579 0 37.057 10.6862 396 50.6843 959.914 430.237
580 0 39.1044 11.5077 450 50.1422 959.893 426.982
581 0 40.0286 9.56817 383 51.4909 959.786 430.076
582 0 43.1017 10.1156 436 51.1147 959.456 428.867
583 0 43.0956 13.3656 576 49.7031 959.043 425.672
584 0 45.0708 9.16335 413 52.4165 959.109 424.356
585 0 48.069 11.7955 567 50.1199 958.933 422.762
586 0 50.1078 9.99843 501 51.8423 959.026 425.343
587 0 49.0848 8.43438 414 53.1812 959.618 422.203
588 0 52.0966 12.3233 642 49.9065 959.861 426.79
589 0 53.0421 10.4634 555 51.6523 959.589 424.523
590 0 57.084 9.28457 530 52.6528 959.843 419.521
591 0 56.0575 10.1325 568 52.0951 959.836 417.692
592 0 63.099 10.7133 676 50.713 960.101 420.987
593 0 64.1277 12.6155 809 50.1063 960.328 417.735
594 0 66.2032 10.1053 669 52.0613 959.852 413.211
595 0 66.0552 8.50803 562 52.8505 959.559 418.164
596 0 70.1298 13.0472 915 49.6328 960.025 414.828
597 1 38.0641 11.3756 433 49.5797 959.933 431.649
598 0 39.0708 12.5157 489 49.3252 959.996 430.751
599 0 38.0276 10.1768 387 51.8656 959.959 430.176
600 0 42.036 11.1809 470 50.6085 960.253 430.143
601 0 41.0863 9.56523 393 52.2519 960.489 429.992
602 0 45.2191 14.3081 647 48.3014 960.416 426.349
603 0 44.1028 8.34415 368 53.1793 960.611 424.56
604 0 47.0459 10.4791 493 51.284 960.028 422.357
605 0 50.1056 9.5199 477 52.0335 960.229 421.585
606 0 52.1494 11.5054 600 51.0433 960.282 422.63
607 0 53.0658 10.8168 574 51.5279 959.423 422.186
608 0 54.1333 11.2131 607 51.603 960.211 417.512
609 0 56.0706 10.4511 586 52.1195 959.759 417.529
610 0 60.0529 11.39 684 51.5073 959.826 420.784
611 0 61.244 11.3644 696 51.6753 959.645 417.599
612 0 63.039 10.4221 657 52.1339 959.3 418.948
613 0 65.1094 11.7187 763 50.9528 959.421 419.274
614 0 67.1242 11.2329 754 52.1061 959.749 414.623
615 0 69.0895 11.116 768 52.1888 959.982 416.195
616 0 73.0814 11.3572 830 52.8373 959.59 410.999
617 0 74.0971 10.5807 784 53.9082 959.948 412.036
618 1 39.1263 13.0603 511 50.681 959.593 432.569
619 0 39.0311 8.91596 348 54.6954 959.399 428.468
620 0 40.0166 10.0458 402 54.2711 959.321 428.821
621 0 43.0389 14.6147 629 50.5755 960.219 428.579
622 0 44.0246 11.698 515 52.9883 960.431 428.268
623 0 45.048 11.9872 540 53.2315 960.441 426.678
624 0 45.0761 9.38414 423 55.7565 960.395 427.196
625 0 48.0415 9.45016 454 55.3436 960.284 425.491
626 0 51.0509 12.3406 630 52.8016 959.937 421.66
627 0 52.0305 10.7629 560 54.1304 959.97 421.173
628 0 56.101 9.78592 549 54.4954 959.944 421.08
629 0 57.0954 12.2251 698 53.1103 959.898 419
630 0 61.0798 12.5246 765 52.3725 960.438 422.433
631 0 61.122 11.5997 709 53.9972 960.392 419.154
632 0 62.1351 13.3902 832 52.732 960.689 417.274
633 0 67.2106 12.6915 853 52.9472 960.547 417.416
634 0 68.2718 11.9815 818 53.6222 960.943 419.115
635 0 71.1473 12.1298 863 53.9316 960.574 415.678
636 0 71.1418 10.205 726 55.741 959.913 415.908
637 0 74.1535 9.17016 680 56.5044 959.418 411.531
638 0 79.1098 12.451 985 53.9777 960.053 411.79
639 0 83.1151 11.7187 974 54.3285 959.933 413.531
640 1 45.0465 11.255 507 54.1716 960.116 430.988
641 0 43.0255 8.739 376 56.6995 960.157 428.87
642 0 45.0444 11.7218 528 54.464 959.648 427.244
643 0 47.0298 11.6522 548 54.2007 959.507 426.447
644 0 48.0359 11.762 565 54.2973 959.979 425.949
645 0 49.0905 11.4482 562 54.9075 959.644 426.429
646 0 51.0254 12.7191 649 53.829 959.259 425.755
647 0 54.0696 13.0202 704 52.9773 959.304 423.81
648 0 54.1382 11.877 643 54.5801 960.263 422.939
649 0 54.0475 10.2688 555 56.3369 960.355 424.211
650 0 57.0509 11.516 657 55.0472 960.111 420.279
651 0 59.1717 11.6103 687 55.0233 960.281 422.023
652 0 58.0703 11.0039 639 56.2707 959.613 419.499
653 0 65.2414 13.3964 874 53.3352 960.121 419.181
654 0 64.0431 12.3667 792 54.5909 959.614 414.806
655 0 67.2051 11.9336 802 55.3504 960.698 416.044
656 0 68.1432 11.3731 775 55.8735 960.604 414.654
657 0 70.0728 11.9019 834 55.6859 959.517 413.294
658 1 32.0758 9.78932 314 56.8376 959.475 432.959
659 0 33.0837 11.7883 390 55.8897 959.726 432.1
660 0 34.0309 9.57952 326 57.6411 959.515 430.644
661 0 36.1589 10.8687 393 56.3282 960.064 430.73
662 0 38.0124 10.6018 403 56.8313 959.921 430.107
663 0 38.063 12.453 474 55.27 960.211 429.787
664 0 38.0294 10.0186 381 57.643 959.987 430.1
665 0 42.0439 12.2491 515 55.8233 959.447 427.097
666 0 43.0745 11.956 515 55.9107 959.662 427.513
667 0 44.1098 12.0835 533 55.9268 959.336 425.844
668 0 44.0562 10.5547 465 57.7075 959.441 426.228
669 0 43.0579 8.9879 387 59.7442 960.14 425.346
670 0 47.182 9.3256 440 59.2591 959.973 425.064
671 0 48.0919 11.5404 555 57.1405 959.35 421.613
672 0 49.0872 10.573 519 58.2062 959.751 422.561
673 0 50.0324 12.5918 630 56.8365 959.224 422.629
674 0 54.04 14.3227 774 54.9961 959.136 420.549
675 0 54.101 10.2586 555 59.191 959.723 421.259
676 0 59.172 11.0356 653 57.6631 958.876 417.93
677 0 63.1145 11.6613 736 56.5109 958.641 421.535
678 0 65.2718 12.4403 812 56.0554 958.759 419.741
679 0 67.147 12.5545 843 56.7473 959.129 414.183
680 0 67.0963 11.9828 804 57.6256 959.593 415.551
681 0 67.0963 11.9828 804 118.572 959.609 415.534
682 0 73.1296 10.4472 764 59.0772 959.492 413.08
683 0 74.1185 9.61972 713 60.2861 959.185 412.411
684 1 39.2283 11.0634 434 57.4401 959.371 429.558
685 0 41.1403 11.6431 479 56.7244 959.459 431.511
686 0 43.108 11.0884 478 57.8891 959.389 428.197
687 0 44.227 12.8428 568 56.5299 960.15 428.262
688 0 46.2887 8.44699 391 60.4731 960.207 428.55
689 0 46.043 12.5535 578 57.128 960.208 426.517
690 0 46.1304 10.557 487 59.423 960.852 425.384
691 0 50.1786 12.3957 622 56.9871 960.817 425.416
692 0 50.0927 12.4569 624 57.3333 960.54 424.276
693 0 52.1745 10.1774 531 59.5687 960.145 423.917
694 0 55.1543 13.3625 737 56.2754 960.282 424.277
695 0 57.1767 12.2427 700 57.4657 959.79 423.361
696 0 58.1703 13.9418 811 56.1911 958.91 420.406
697 0 62.3214 11.7616 733 58.2333 959.37 416.089
698 0 63.0564 11.6562 735 58.7415 959.34 414.761
699 1 129.525 12.3374 1598 60.3135 959.064 385.457
700 1 67.2347 10.8277 728 59.794 959.791 417.967
701 0 68.2779 10.4866 716 60.3031 960.392 418.693
702 1 37.1645 11.7854 438 58.9018 960.655 431.856
703 0 35.1 10.8262 380 60.9789 960.805 430.708
704 0 38.2709 12.8557 492 58.3638 960.321 430.811
705 0 40.1697 12.4472 500 58.704 960.23 430.656
706 0 40.0616 10.7834 432 61.8727 961.076 429.565
707 0 42.1744 12.0927 510 60.1059 960.969 428.608
708 0 44.2358 13.6089 602 57.9219 960.292 426.331
709 0 45.0888 10.2243 461 61.6139 961.252 426.536
710 0 47.0644 11.3674 535 60.8168 961.335 424.062
711 0 49.2531 12.1617 599 58.2988 960.952 424.11
712 0 52.1831 11.9579 624 57.5625 960.758 423.72
713 0 48.0193 9.70444 466 60.6652 959.618 419.659
714 0 53.1241 11.859 630 58.0698 959.546 421.26
715 0 57.0739 10.1272 578 58.9654 959.811 419.785
716 0 58.167 12.3094 716 57.0223 959.339 417.392
717 0 61.1492 12.494 764 55.9568 959.042 418.573
718 0 60.101 11.88 714 57.0112 959.532 416.992
719 0 65.0871 11.7996 768 56.75 959.964 415.109
720 0 66.1836 9.30744 616 58.5731 960.021 415.964
721 0 68.156 9.65432 658 58.6201 959.371 413.146
722 0 72.1503 12.8759 929 55.6319 960.08 411.975
723 0 74.2216 11.3309 841 56.214 959.966 412.886
724 0 78.2425 12.0523 943 56.3107 959.701 406.037
725 1 36.0396 11.7926 425 55.0259 959.452 428.668
726 0 36.0484 13.0935 472 54.7733 959.595 427.214
727 0 38.0524 10.6958 407 56.543 958.757 426.639
728 0 39.0239 11.4545 447 55.9754 959.588 424.557
729 0 40.1332 10.7642 432 56.4907 958.743 426.315
730 0 44.1103 14.1237 623 53.6613 959.796 424.355
731 0 44.0658 11.7551 518 55.8629 959.853 424.183
732 0 49.2185 10.7277 528 56.2386 959.64 422.197
733 0 49.0395 12.1535 596 55.1644 959.826 419.93
734 0 52.1072 11.4955 599 55.9215 960.262 420.391
735 0 52.1461 10.6432 555 56.5766 960.423 422.092
736 0 54.1435 12.6331 684 55.0439 959.741 420.501
737 0 55.0292 11.2849 621 56.6296 959.874 417.064
738 0 60.3243 12.9467 781 54.5775 959.912 416.563
739 0 60.145 14.2323 856 54.1051 960.113 415.988
740 0 62.2006 12.9902 808 55.5334 959.808 414.606
741 0 64.1426 13.4076 860 55.0256 959.453 413.52
742 0 67.1014 12.2352 821 56.1876 959.94 413.371
743 0 69.1979 11.8356 819 56.6947 959.691 410.524
744 0 71.1529 11.9039 847 56.4191 959.697 412.887
745 0 74.1379 12.6926 941 56.1668 959.252 407.038
746 0 77.1391 12.9377 998 55.9699 959.212 409.357
747 0 80.1763 11.3999 914 57.7505 959.911 403.499
748 0 81.1431 10.7218 870 58.6609 959.467 403.474
749 0 84.2202 12.4554 1049 57.2145 959.054 402.358
750 0 84.114 10.6879 899 59.505 959.749 398.69
751 1 43.1435 10.4998 453 58.2627 959.974 421.766
752 0 52.1443 13.7119 715 52.621 959.214 427.396
753 0 46.0444 11.25 518 57.8456 959.78 422.556
754 0 50.1519 12.2029 612 56.5245 960.332 420.492
755 0 50.1323 11.3699 570 57.3649 959.739 418.3
756 0 51.0909 10.8826 556 57.991 959.935 418.52
757 0 59.1514 13.4063 793 53.3518 959.898 423.13
758 0 64.18 11.3119 726 55.4614 959.536 418.158
759 0 65.0757 15.0901 982 51.4929 959.974 421.87
760 0 68.2044 11.8467 808 54.8651 959.75 415.573
761 0 72.239 13.746 993 52.9396 959.83 416.259
762 0 63.0621 10.3073 650 58.0908 959.589 410.58
763 1 75.1401 14.5595 1094 51.6197 959.952 413.449
764 0 78.129 14.5785 1139 50.9113 960.356 417.083
765 0 73.1438 10.5819 774 56.4755 959.913 406.756
766 0 84.1271 13.2062 1111 52.5545 960.262 411.64
767 0 85.079 13.9635 1188 52.638 959.499 407.015
768 0 89.2019 14.4055 1285 52.0311 959.615 408.396
769 0 92.371 11.6379 1075 55.0679 959.958 402.466
770 1 47.0759 10.345 487 53.306 960.372 428.823
771 0 50.1031 9.52036 477 55.0797 960.47 424.786
772 0 53.0692 7.80113 414 56.8333 960.01 422.766
773 0 53.2188 12.5144 666 52.0976 959.923 426.405
774 0 53.0798 9.87193 524 54.9103 960.116 424.744
775 0 55.0359 11.4107 628 52.9522 959.696 426.576
776 0 58.1602 12.328 717 53.2943 959.227 421.438
777 0 58.0736 13.3279 774 52.4289 960.018 422.318
778 0 68.4585 10.0499 688 54.5538 959.862 421.515
779 0 69.1124 10.8374 749 54.0668 959.462 416.935
780 0 62.2873 11.9447 744 54.6358 959.401 416.415
781 0 67.0878 13.4302 901 52.9933 959.172 416.802
782 1 78.1613 10.9005 852 54.4824 959.884 414.258
783 0 79.3388 9.73042 772 56.149 959.551 413.606
784 0 83.2194 9.85347 820 56.0695 958.757 410.565
785 0 85.2278 11.4751 978 54.9939 959.345 409.779
786 0 77.0835 10.9232 842 56.4952 959.011 411.176
787 1 11.0029 5.45313 60 44.0833 959.75 452.05
788 0 10.0003 2.79991 28 44.8214 959.964 451.679
789 0 11 0.818182 9 48.2222 961.222 451.333
790 0 11.0033 2.99909 33 45.5455 958.909 451.606
791 0 13.0022 7.4603 97 42.8351 959.505 451.278
792 0 13.0038 4.99853 65 43.6615 959.123 449.754
793 0 12.0026 10.2478 123 42.0163 958.894 450.463
794 0 14.0058 10.9954 154 41.1688 959.799 449.766
795 0 14.0073 7.78166 109 43.5138 960.468 451.11
796 0 13.0022 6.99883 91 43.4505 959.615 449.67
797 0 15.0125 8.85925 133 43.0451 959.865 451.97
798 0 15.0072 7.86288 118 43.0763 959.822 450.017
799 0 14.0436 8.40241 118 44.0169 959.602 451.025
800 0 13.0067 10.3793 135 43.8593 959.978 449.244
801 0 14.0009 7.57094 106 45.9623 960.302 450.755
802 0 16.0101 7.49525 120 45.875 960.65 448.133
803 0 17.0321 8.10233 138 45.9275 960.152 449.413
804 0 17.0359 11.5051 196 44.5867 960.352 448.52
805 0 19.1089 11.2513 215 44.9349 960.344 448.921
806 0 16.0439 10.1596 163 46.0368 959.626 448.571
807 0 16.0206 4.24453 68 51.1176 959.912 451.029
808 0 20.0383 9.38205 188 46.9734 960.463 450.947
809 0 19.0662 9.33587 178 48.0056 960.208 448.522
810 0 20.0297 11.9323 239 47.1715 960.41 448.038
811 0 19.0252 6.09717 116 51.8793 960.164 448.922
812 0 22.0747 10.1927 225 48.9733 961.031 448.12
813 0 21.0295 9.1776 193 50.1658 960.528 447.715
814 0 22.0349 11.2548 248 48.9274 959.81 447.093
815 0 23.0448 11.8465 273 48.3333 959.018 444.429
816 0 24.0443 10.3559 249 50.3373 959.386 446.309
817 0 23.0143 8.9075 205 52.3561 959.083 447.117
818 0 25.0402 11.8609 297 49.6397 959.387 446.074
819 0 24.0759 11.0484 266 50.5188 959.85 445.169
820 0 25.0287 9.54905 239 52.2971 960.18 447.452
821 0 26.0499 9.59697 250 53.636 960.512 447.152
822 0 27.0284 11.1734 302 52.1722 960.566 446.348
823 0 27.0214 11.2133 303 52.7228 960.446 446.218
824 0 28.0475 11.9084 334 52.0958 960.246 446.222
825 0 29.0256 12.4718 362 52.0497 960.307 444.986
826 0 29.0295 10.1621 295 54.7051 960.197 445.82
827 0 29.0306 12.1596 353 54.4844 959.819 444.059
828 0 31.0355 10.2786 319 56.511 960.605 444.806
829 0 31.0141 11.5109 357 55.944 960.319 443.826
830 0 34.0123 12.2603 417 54.6859 960.228 445.343
831 0 32.0282 10.2722 329 58.4164 959.988 443.97
832 0 32.0192 12.1802 390 57.1026 960.149 443.379
833 0 33.0424 12.6504 418 56.4402 959.871 442.301
834 0 33.0571 12.2213 404 57.646 959.76 441.743
835 0 35.0719 11.4622 402 59.1891 960.142 441.037
836 0 35.0132 11.1101 389 59.7506 959.473 443.491
837 0 37.0422 11.9863 444 59.4167 960.493 442.128
838 0 37.0292 13.5299 501 59.4391 960.868 440.477
839 0 39.0524 11.1133 434 61.341 960.532 441.069
840 0 37.0159 11.8328 438 62.5502 960.247 440.178
841 0 39.1033 10.0759 394 64.1624 960.203 438.421
842 0 41.0563 12.3245 506 62.5652 960.435 438.468
843 0 41.0469 11.4503 470 64.0745 960.689 437.998
844 0 44.0314 11.7189 516 64.1957 960.143 436.568
845 0 43.0548 10.6841 460 65.5543 959.783 436.707
846 0 42.0295 11.2302 472 64.8581 959.831 436.737
847 0 43.0535 11.4741 494 63.5972 959.488 438.318
848 0 43.0817 12.3254 531 62.4539 959.949 438.124
849 0 42.0672 11.5054 484 63.5764 959.694 437.421
850 0 42.0353 11.0621 465 64.6495 959.002 437.127
851 0 44.0447 11.9424 526 62.8745 959.413 434.384
852 0 46.032 12.2306 563 62.3694 959.481 434.014
853 0 46.0155 11.996 552 62.1685 959.659 432.342
854 0 47.0416 11.4154 537 62.6518 959.752 433.214
855 0 48.0191 11.9952 576 61.9167 959.568 431.342
856 0 49.0136 9.97681 489 64.9305 959.505 433.855
857 0 48.061 9.09261 437 65.7002 959.439 434.597
858 0 51.04 12.6763 647 59.966 959.895 431.317
859 0 53.0472 11.3484 602 61.588 959.199 434.472
860 0 52.0432 11.894 619 61.4701 959.543 432.01
861 0 53.116 9.77107 519 63.2524 959.829 432.929
862 0 55.2357 11.5505 638 61.2461 959.505 430.524
863 0 58.0802 11.4669 666 60.6937 959.252 431.565
864 0 59.0594 10.1593 600 63.0817 960.117 429.727
865 0 59.0332 8.978 530 65.117 960.149 429.764
866 0 58.0495 11.249 653 63.2144 960.513 429.79
867 0 65.0613 11.8657 772 61.0674 960.338 430.091
868 0 67.0586 11.1544 748 62.5521 960.056 424.501
869 0 67.0629 10.9151 732 63.1858 959.982 428.395
870 0 69.0787 13.8393 956 60.864 959.922 423.427
871 0 71.1178 11.2489 800 63.8825 959.551 426.448
872 0 71.0212 9.49013 674 66.954 959.248 427.39
873 0 74.057 13.1115 971 62.1009 959.654 421.046
874 0 75.1547 12.6406 950 63.6684 959.461 420.598
875 0 77.1102 11.5419 890 64.7135 959.613 421.258
