time division length width area intensity CMx CMy
0 0 37.3377 3.18713 119 41.395 880.118 474.277
1 0 34.3208 4.45793 153 34.5294 876.954 466.902
2 0 34.5908 6.64916 230 37.3435 880.539 475.826
3 1 153.157 12.0008 1838 77.9897 885.453 396.516
4 1 166.51 6.10776 1017 87.7974 884.99 397.882
5 0 166.176 5.01879 834 89.7602 884.306 399.11
6 1 153.17 9.25118 1417 75.5646 884.477 412.217
7 0 155.75 7.95504 1239 79.7966 884.472 408.751
8 0 153.06 9.0553 1386 79.6263 883.237 404.578
9 0 153.612 8.4629 1300 76.9885 883.315 409.788
10 1 72.0884 5.57649 402 78.8333 883.828 433.94
11 1 62.0867 10.0505 624 67.8494 884.386 439.615
12 0 64.926 12.3679 803 62.4932 884.574 441.349
13 0 64.2209 13.3913 860 60.7744 884.349 442.426
14 0 66.6391 12.5002 833 62.509 884.042 439.915
15 0 59.8549 13.2487 793 65.0353 882.943 436.797
16 1 75.5701 7.03982 532 75.4098 881.75 432.566
17 0 76.4072 7.82649 598 72.3829 882.161 435.124
18 1 67.0855 13.2518 889 60.8594 883.292 440.741
19 0 64.8374 12.3231 799 105.254 883.334 441.166
20 0 68.1417 11.9457 814 66.8501 882.957 433.921
21 0 75.3283 11.9477 900 64.6544 883.233 435.119
22 1 89.2752 6.7992 607 75.3196 882.257 427.862
23 1 74.6189 13.1066 978 63.3906 882.995 435.51
24 0 74.6189 13.2942 992 112.736 883.942 435.816
25 0 82.8643 12.1886 1010 65.3079 883.476 431.572
26 0 77.1723 11.727 905 69.1989 884.007 429.456
27 0 85.2756 13.3332 1137 63.9675 884.09 431.235
28 0 79.361 13.4449 1067 67.5801 883.966 426.49
29 0 80.7106 12.9847 1048 68.5534 883.779 426.734
30 1 65.032 3.49059 227 82.9736 882.833 437.115
31 1 58.0389 9.30411 540 66.2519 884.459 442.496
32 0 57.0221 9.73307 555 66.364 884.793 443.099
33 0 57.8529 9.17845 531 69.6836 883.802 440.81
34 0 62.8389 10.2962 647 66.9351 883.807 441.543
35 0 66.3272 11.4734 761 63.1708 884.193 443.36
36 0 60.5838 13.9146 843 61.9786 884.053 441.781
37 0 60.5838 13.9476 845 98.2734 884.037 441.766
38 0 53.5635 12.2658 657 71.0198 882.912 435.35
39 0 67.6363 11.0296 746 67.7131 883.877 437.398
40 0 74.5886 10.149 757 66.7147 883.45 437.91
41 0 73.9821 10.9891 813 67.4785 883.426 435.418
42 0 77.0186 13.6331 1050 59.2876 884.189 441.608
43 0 76.8845 12.5513 965 62.999 883.94 437.813
44 0 78.0267 11.9318 931 66.0537 884.439 433.809
45 0 80.3661 10.8628 873 66.6907 884.597 435.014
46 0 83.2438 12.1691 1013 64.7799 883.62 433.933
47 0 83.2438 12.1811 1014 110.419 882.619 434.029
48 1 86.1835 7.26357 626 77.5703 881.799 425.05
49 1 77.2127 11.2158 866 66.948 883.945 434.99
50 0 71.841 9.67414 695 74.3914 882.473 428.984
51 0 76.0836 7.8992 601 70.975 882.928 434.539
52 1 54.9414 8.42716 463 69.1296 883.685 440.527
53 0 54.8715 8.8935 488 71.3361 883.428 437.15
54 0 56.9788 10.8637 619 63.6317 884.761 442.081
55 0 62.312 10.7363 669 60.7175 884.954 444.744
56 0 65.2213 11.3 737 61.4545 884.285 441.882
57 1 77.2877 5.69301 440 76.2364 882.905 432.984
58 1 60.7204 11.8082 717 63.8884 884.254 439.403
59 0 63.6829 9.86135 628 67.8901 883.459 436.908
60 0 62.2136 10.689 665 64.9323 883.798 439.997
61 1 72.2724 5.34091 386 77.6062 882.293 433.427
62 0 72.2358 4.33303 313 78.722 881.473 434.99
63 0 73.1235 5.40182 395 77.2962 882.428 434.453
64 0 71.6896 12.7773 916 62.6725 884.05 435.212
65 0 69.5387 11.3174 787 66.8742 883.814 433.074
66 1 91.025 7.41555 675 71.9807 882.615 427.126
67 1 80.8531 12.4176 1004 60.747 883.444 436.545
68 0 79.0739 13.3293 1054 59.8027 883.795 437.975
69 0 81.3708 11.4169 929 66.7384 883.197 429.569
70 0 82.0488 16.0149 1314 58.9551 883.482 432.665
71 0 83.8768 16.8461 1413 57.7948 883.677 431.833
72 0 82.0118 12.1446 996 66.7078 883.421 427.156
73 0 87.8686 14.6469 1287 61.1134 883.528 428.639
74 0 88.7842 17.1427 1522 57.1682 883.777 431.269
75 0 92.4698 16.5027 1526 57.6887 883.496 431.373
76 1 57.8036 9.32467 539 63.1484 883.325 442.618
77 0 58.6256 7.48819 439 65.9954 883.572 442.656
78 0 57.9438 12.5121 725 55.211 884.581 447.108
79 0 60.0861 11.6 697 58.957 884.61 443.713
80 0 60.1602 10.0399 604 63.3427 884.041 440.71
81 0 62.083 11.9679 743 59.6972 883.549 441.366
82 0 67.3114 11.8553 798 58.6642 883.902 441.576
83 0 65.8678 10.9462 721 59.7143 883.129 442.911
84 0 66.2547 12.6029 835 57.4934 882.872 442.374
85 0 71.3572 13.7617 982 54.7189 883.04 444.129
86 0 71.1182 11.3614 808 62.1955 882.375 435.558
87 0 69.6081 12.24 852 60.3075 883.228 438.335
88 0 71.0564 14.1437 1005 57.201 883.528 440.089
89 0 75.0418 13.6591 1025 57.9415 884.001 438.871
90 0 74.0449 11.412 845 64.1136 882.802 432.645
91 0 76.0355 15.8742 1207 56.2659 883.233 436.851
92 0 78.5395 10.9372 859 65.2095 883.093 431.813
93 0 80.2243 13.8861 1114 59.3357 882.992 435.154
94 0 80.1992 15.5612 1248 57.0288 883.378 436.49
95 0 83.003 13.879 1152 59.6276 882.91 434.523
96 0 90.7863 15.1895 1379 55.4322 883.384 437.174
97 0 88.0401 12.5511 1105 62.6036 882.93 430.633
98 0 87.1764 14.052 1225 61.1339 882.779 429.394
99 0 86.9252 14.5182 1262 61.454 882.716 427.712
100 0 91.2697 13.5094 1233 63.0219 883.178 426.152
101 1 98.0872 8.19678 804 74.2301 882.662 417.918
102 0 71.1683 10.2574 730 76.1452 882.695 418.23
103 0 98.0622 13.8484 1358 62.4507 883.32 424.624
104 1 110.538 8.96526 991 71.9707 882.89 416.506
105 1 99.6946 15.9387 1589 60.5337 884.107 423.989
106 0 99.6683 13.7556 1371 65.903 883.98 417.695
107 0 108.351 13.7792 1493 63.8138 883.938 420.281
108 0 109.998 15.2912 1682 60.4084 883.519 423.763
109 1 115.259 8.78892 1013 74.5252 882.641 412.588
110 1 69.8789 14.3534 1003 57.5174 884.334 439.513
111 0 68.4885 15.9297 1091 57.3694 883.834 437.787
112 0 73.866 13.3079 983 58.5778 884.133 438.069
113 0 75.4046 11.9091 898 63.9432 883.563 431.131
114 0 76.5281 12.3484 945 64.0921 883.699 429.641
115 1 59.0537 11.8198 698 71.7779 882.758 423.89
116 1 80.1746 18.7591 1504 52.8783 883.688 437.369
117 0 83.0839 14.0942 1171 60.7882 883.887 430.556
118 0 81.8098 16.1717 1323 56.3673 883.892 435.907
119 0 83.7505 12.4775 1045 64.0746 883.976 428.332
120 0 86.6281 14.9951 1299 59.7236 884.015 431.276
121 1 31.8871 4.42186 141 28.7872 872.092 461.553
122 1 22.9718 2.52484 58 30.3103 883.569 466.448
123 0 19.435 3.49884 68 28.9853 872.426 459.25
124 0 19.6302 4.17724 82 28.3049 872.976 459.537
125 1 30.6619 5.31604 163 28.7485 872.448 462.074
126 1 97.9869 15.3898 1508 60.8853 884.859 426.239
127 0 97.8667 15.4291 1510 60.702 884.879 426.701
128 0 98.4851 14.2255 1401 65.0236 884.128 420.303
129 0 83.3085 12.9519 1079 72.4569 882.945 414.032
130 1 106.196 16.6766 1771 59.7962 883.873 424.238
131 1 109.264 6.79089 742 79.2102 882.563 412.822
132 1 82.2757 9.90572 815 76.7337 882.838 416.917
133 1 66.9373 16.7321 1120 55.7286 884.071 439.812
134 0 69.7341 14.7561 1029 56.8844 884.596 442.129
135 0 68.4359 12.245 838 64.6074 885.016 435.834
136 0 73.4935 13.838 1017 59.941 884.909 437.567
137 0 76.0354 14.993 1140 58.614 884.773 437.623
138 1 52.1272 12.5654 655 73.742 883.147 426.223
139 1 79.8709 11.6438 930 64.972 883.981 434.178
140 0 78.8517 14.3307 1130 61.7106 884.135 433.457
141 0 79.7806 13.2363 1056 64.1828 883.807 431.435
142 0 78.1461 13.334 1042 64.3388 884.172 433.707
143 0 81.9339 12.5955 1032 65.5911 883.977 432.06
144 0 84.4206 14.2501 1203 61.8047 883.821 435.496
145 0 86.7983 12.7652 1108 66.2554 883.768 429.431
146 0 85.8947 11.6189 998 68.3056 883.563 429.974
147 0 86.8503 12.2625 1065 67.0085 883.798 431.018
148 0 94.5575 14.9644 1415 61.5866 884.608 432.062
149 0 96.0795 12.729 1223 65.8504 884.159 429.007
150 1 147.301 13.8017 2033 74.0861 883.265 384.266
151 0 152.554 13.0708 1994 74.9323 883.65 386.262
152 1 303.99 19.1553 5823 68.2655 883.204 335.531
153 1 282.429 10.1512 2867 84.1151 882.67 337.112
154 1 302.147 12.1828 3681 74.0193 883.86 360.07
155 1 43.2802 10.2587 444 75.8896 883.865 434.865
156 1 67.2685 11.5359 776 60.9729 885.155 444.812
157 0 60.6164 10.7232 650 69.0738 884.294 437.132
158 0 69.0234 11.7931 814 62.145 884.986 442.115
159 0 69.0563 12.6708 875 61.16 885.551 442.443
160 1 49.2459 11.7979 581 73.6885 884.282 432.043
161 1 73.8268 13.5046 997 57.8626 886.499 444.822
162 0 71.4928 14.1133 1009 59.0317 885.418 442.196
163 0 73.992 13.8934 1028 59.394 885.321 441.722
164 0 77.6373 11.6696 906 63.7792 883.576 435.783
165 0 79.1296 9.88252 782 68.7148 883.687 432.215
166 0 82.301 13.3291 1097 60.9079 884.811 436.863
167 0 79.775 10.3917 829 69.0627 884.128 431.25
168 0 83.0133 13.4677 1118 61.8766 884.393 434.064
169 0 84.6972 10.4254 883 67.6172 883.888 431.28
170 0 78.6366 12.5005 983 67.6663 884.067 427.362
171 0 86.9757 15.0272 1307 59.1959 884.914 435.644
172 0 91.3299 13.7414 1255 62.3315 884.755 430.98
173 0 88.922 14.0123 1246 64.1156 884.16 426.933
174 0 94.873 14.7987 1404 59.9494 884.845 433.069
175 0 93.4991 14.4173 1348 62.8657 884.819 428.444
176 0 96.0027 16.4058 1575 59.4368 884.086 429.764
177 0 79.1884 11.1001 879 75.0239 883.275 417.259
178 1 64.9852 10.4024 676 61.0843 885.179 442.262
179 0 63.9316 12.7011 812 57.7635 885.164 442.833
180 0 66.9197 10.1614 680 64.5059 883.335 438.166
181 0 68.2426 12.309 840 58.9917 884.369 443.123
182 0 68.2335 10.7718 735 65.234 884.329 436.124
183 0 70.6844 12.1243 857 59.1879 884.972 442.702
184 0 67.5181 11.7006 790 62.1975 884.796 440.144
185 0 73.0788 13.4102 980 57.6276 885.031 442.814
186 0 69.6981 11.5211 803 64.1719 883.72 437.126
187 0 76.3528 12.7697 975 59.7005 884.29 440.027
188 0 70.4147 10.1967 718 68.2159 883.611 432.755
189 0 78.0504 14.8494 1159 58.0112 884.359 437.774
190 0 79.3557 13.9751 1109 59.3562 884.69 437.08
191 0 81.0632 14.3345 1162 56.9914 884.801 439.651
192 0 80.0848 12.2995 985 60.8142 884.878 437.031
193 0 84.451 12.2556 1035 61.629 884.484 434.749
194 0 84.8212 17.1066 1451 54.6203 884.208 438.053
195 0 84.9876 10.2485 871 68.4409 883.282 427.607
196 0 88.3752 16.3621 1446 55.5927 884.383 436.314
197 0 87.9939 16.8762 1485 56.4135 884.73 433.622
198 0 93.343 13.82 1290 60.0488 884.43 431.084
199 0 87.6063 12.7502 1117 65.3178 883.103 423.786
200 1 57.8058 9.16863 530 63.8868 884.311 441.625
201 0 61.3144 12.3625 758 55.8245 884.972 445.625
202 0 65.2569 11.9681 781 54.8643 885.375 447.62
203 0 66.65 9.01725 601 64.2845 884.266 438.918
204 0 67.16 10.6909 718 60.2103 884.081 440.616
205 0 65.5462 10.9999 721 57.6103 884.562 444.786
206 0 66.0352 10.0855 666 61.2988 884.105 440.923
207 0 67.4288 11.8199 797 57.0514 884.284 440.88
208 0 73.8492 9.54648 705 61.0284 883.542 436.569
209 0 71.3526 12.5433 895 56.5128 884.736 439.587
210 0 76.3042 16.6701 1272 49.3278 884.509 445.187
211 0 77.6001 14.2139 1103 52.6419 884.327 441.498
212 0 77.6708 9.92651 771 61.2672 883.485 433.371
213 0 77.6311 15.1615 1177 51.4095 884.509 442.866
214 0 80.9617 10.857 879 59.9056 883.856 432.983
215 1 0 0 0 -nan -nan -nan
216 1 84.1814 17.4504 1469 50.8237 883.476 437.283
217 0 85.6273 11.3866 975 59.3774 882.548 429.083
218 0 84.5767 11.0669 936 61.2329 882.981 430.231
219 0 86.9887 11.0704 963 60.8401 882.805 430.176
220 1 0 0 0 -nan -nan -nan
221 1 87.9824 10.3543 911 62.1921 883.322 429.464
222 0 90.5118 12.3741 1120 57.0839 883.229 434.126
223 0 84.7375 12.2024 1034 55.8327 884.409 437.308
224 1 3 4 12 65.6667 883.75 415.167
225 1 55.7377 10.4776 584 59.4332 884.156 439.524
226 0 62.7795 10.2581 644 56.5202 885.118 443.632
227 0 67.7312 12.2248 828 53.2174 884.163 444.209
228 0 65.2783 9.13015 596 60.9983 883.646 437.872
229 0 69.1878 9.68378 670 58.1179 884.136 439.936
230 0 66.6864 15.6554 1044 50.4052 885.022 444.18
231 0 71.567 9.41775 674 60.5044 883.647 435.432
232 0 68.6099 12.4035 851 55.0423 884.796 440.656
233 0 76.2642 12.955 988 52.4018 884.882 442.333
234 0 69.4809 11.9169 828 57.4879 884.382 436.229
235 0 69.5536 9.44596 657 61.761 884.099 432.837
236 0 76.9756 10.8866 838 58.4905 884.196 434.076
237 0 83.1456 13.9033 1156 52.2007 884.195 437.785
238 0 84.1545 18.0501 1519 47.605 883.809 442.073
239 0 82.1218 12.7493 1047 55.318 884.012 434.696
240 0 82.4774 14.5616 1201 53.8143 884.111 433.804
241 0 86.1018 13.7395 1183 54.8563 884.264 432.619
242 0 87.5804 11.7378 1028 59.3726 883.453 425.478
243 0 89.8083 12.8273 1152 57.2708 883.522 427.782
244 0 92.6878 14.3708 1332 53.3206 883.734 433.703
245 0 96.625 11.7982 1140 58.6053 883.411 425.39
246 0 99.1455 16.5111 1637 51.5528 883.633 429.938
247 1 0 0 3 59 883 378
248 1 63.8398 10.1034 645 56.8016 883.598 438.6
249 0 65.8201 10.0577 662 56.8731 883.521 438.074
250 0 68.0085 9.49881 646 59.0108 882.975 435.245
251 0 69.6088 16.4491 1145 48.6559 883.624 441.693
252 0 68.9806 12.3513 852 55.3169 883.766 437.09
253 0 73.3084 13.6956 1004 51.1663 884.072 441.254
254 0 75.2256 12.5223 942 54.4947 883.62 435.955
255 0 75.6925 9.35364 708 60.041 883.792 433.944
256 0 78.9629 11.651 920 56.1109 884.127 434.045
257 0 82.4456 12.9419 1067 53.0347 884.888 438.791
258 0 79.5498 10.572 841 59.1605 884.042 431.074
259 0 80.5581 10.39 837 59.0442 884.128 431.821
260 0 83.1791 13.8256 1150 53.8 884.141 435.022
261 0 88.4012 12.9297 1143 53.5713 883.996 434.955
262 0 84.1062 14.0655 1183 54.88 884.123 430.91
263 0 84.6803 13.3325 1129 57.0992 883.957 428.004
264 0 89.483 14.472 1295 55.9753 883.701 426.385
265 0 93.6713 11.8072 1106 58.8445 884.067 427.282
266 0 98.1602 14.9348 1466 53.56 884.061 430.505
267 1 45.1737 10.6478 481 64.4761 883.836 435.992
268 1 5 2 10 67.6 882.4 413.8
269 1 65.025 12.0108 781 52.3547 885.366 445.574
270 1 45.131 11.4112 515 64.7165 883.485 434.332
271 1 173.389 13.5303 2346 60.5563 883.534 396.829
272 0 156.312 8.6238 1348 70.9117 883.171 390.389
273 0 152.933 12.7376 1948 60.9281 883.982 403.516
274 1 48.0675 10.8805 523 66.1224 883.182 431.13
275 0 51.1673 12.1757 623 64.0337 882.965 429.539
276 0 53.3501 10.6092 566 66.5883 882.991 429.482
277 0 55.3537 11.4536 634 64.8391 882.596 428.659
278 0 55.3475 10.7864 597 66.1826 882.466 429.173
279 0 56.0668 12.1997 684 65.076 882.613 426.92
280 0 60.2065 13.2876 800 63.62 882.338 424.894
281 1 81.3318 15.3937 1252 51.8738 884.05 438.392
282 1 122.185 11.2453 1374 67.0553 882.93 397.837
283 0 126.308 12.1528 1535 66.4287 882.526 392.178
284 0 128.334 11.5713 1485 67.3502 881.836 389.598
285 0 133.343 12.1491 1620 65.9296 880.985 390.241
286 0 132.639 11.2636 1494 54.9137 883.162 428.228
287 0 132.156 13.3706 1767 57.0294 882.864 416.737
288 1 109.125 8.95305 977 68.7595 881.832 406.056
289 0 107.145 9.00649 965 68.7192 882.075 407.948
290 1 135.945 12.4462 1692 58.5095 882.53 415.395
291 0 128.578 11.6738 1501 58.6995 882.652 419.031
292 1 84.136 13.395 1127 63.8793 882.764 410.917
293 0 87.1829 10.6902 932 67.2479 882.138 411.922
294 1 109.925 11.0166 1211 61.5467 882.694 417.054
295 1 47.0569 10.3279 486 65.0617 882.074 431.817
296 0 49.1408 11.64 572 63.7675 882.198 430.593
297 0 52.0783 13.5757 707 60.8543 882.209 429.085
298 0 53.098 10.6784 567 65.7055 882.487 427.06
299 1 79.2455 11.8366 938 54.2377 883.726 437.611
300 1 52.1858 10.5776 552 66.7373 882.56 426.681
301 1 84.7505 9.93504 842 56.3587 882.969 435.766
302 1 62.2002 10.7717 670 64.7881 882.294 424.082
303 0 63.178 10.9215 690 65.0406 882.877 424.891
304 1 87.4332 14.5483 1272 52.5637 883.871 434.14
305 1 63.1248 12.0872 763 64.9948 882.848 420.721
306 0 66.3315 11.4576 760 64.7276 882.213 421.734
307 0 68.2774 12.4053 847 63.5809 882.339 421.982
308 0 69.1414 12.9879 898 63.9488 882.05 418.401
309 0 72.2087 11.2452 812 65.9126 882.312 418.055
310 0 75.0777 13.6658 1026 62.4854 882.341 418.145
311 0 75.0969 11.2388 844 66.4976 882.314 416.134
312 1 88.7598 12.6972 1127 61.551 883.169 419.454
313 0 97.8981 14.985 1467 55.1084 883.65 427.575
314 0 90.4911 11.6255 1052 62.8546 883.31 421.087
315 1 40.0097 7.27324 291 71.1581 882.206 386.454
316 0 48.251 10.9842 530 66.1811 882.951 429.866
317 0 50.1062 10.6973 536 66.8396 882.636 429.19
318 0 41.098 7.95659 327 71.7676 882.645 381.878
319 0 55.1447 12.4944 689 64.1263 882.565 429.244
320 0 55.1291 11.7542 648 66.1435 882.512 424.921
321 0 56.1159 10.1219 568 68.3803 882.437 426.067
322 0 58.0318 14.2163 825 62.7927 882.35 424.55
323 0 60.0658 12.6528 760 64.4145 882.274 424.533
324 0 64.1413 13.1273 842 63.7185 882.172 423.05
325 0 65.3469 13.7267 897 62.7837 881.428 420.394
326 0 66.1368 11.7484 777 66.0991 881.516 420.593
327 0 67.0777 11.5239 773 66.9043 881.737 417.745
328 0 69.0973 11.0713 765 67.8144 882.494 417.055
329 0 73.0474 12.3755 904 64.958 882.228 418.377
330 0 75.1214 12.2868 923 64.3174 881.445 417.872
331 0 78.1498 12.6552 989 64.2811 881.535 413.742
332 0 79.1162 12.1593 962 64.8846 881.828 413.681
333 1 106.467 14.3236 1525 55.0288 882.898 424.539
334 1 80.1009 10.6241 851 66.651 882.875 415.518
335 0 80.1178 11.1835 896 66.8225 882.109 410.403
336 1 69.8055 13.1508 918 51.7527 883.422 439.695
337 1 46.0372 9.70953 447 66.4116 881.778 427.562
338 0 49.0715 10.1077 496 64.7278 881.552 426.825
339 0 49.0838 9.7792 480 66.0354 881.562 428.352
340 1 76.1338 12.7276 969 52.2095 883.27 437.552
341 0 60.1888 9.08807 547 64.3474 881.837 428.316
342 1 79.354 9.08587 721 60.6865 881.818 428.151
343 0 82.3624 13.9505 1149 51.7041 882.591 434.012
344 1 58.0497 12.0242 698 62.8052 881.246 422.387
345 0 60.1114 11.8447 712 63.0632 881.612 419.6
346 0 62.1034 12.286 763 62.578 881.904 418.99
347 0 64.0522 14.0042 897 59.971 881.501 420.289
348 0 65.0731 12.4322 809 62.3634 881.7 418.739
349 0 68.2331 11.7245 800 62.555 880.984 419.329
350 0 70.1306 11.4215 801 63.794 881.17 415.623
351 1 93.3239 16.5981 1549 49.2046 881.831 432.001
352 0 74.3176 11.9487 888 62.9133 881.082 412.461
353 1 105.759 8.12221 859 57.3481 882.126 428.383
354 0 114.354 11.2283 1284 54.1745 882.045 427.198
355 1 85.1611 11.7659 1002 61.7974 880.825 412.899
356 1 101.334 12.9473 1312 56.2637 882.131 418.938
357 0 110.184 13.3141 1467 54.5896 882.27 419.907
358 1 43.0507 9.77916 421 67.696 881.622 383.083
359 0 49.1501 8.7894 432 63.8819 882.097 428.648
360 0 53.2629 9.98818 532 61.9718 881.776 426.549
361 1 255.698 13.6841 3499 58.7408 881.44 375.287
362 0 263.049 15.4648 4068 58.5986 881.63 363.292
363 0 270.996 13.0223 3529 63.5327 881.653 348.818
364 0 276.634 17.5539 4856 57.418 881.813 353.855
365 0 261.43 12.9021 3373 67.6531 881.551 324.919
366 1 285.968 13.6274 3897 59.8473 882.6 366.352
367 1 89.7111 11.8491 1063 54.444 883.485 428.545
368 1 65.1393 12.3888 807 60.1338 882.555 421.487
369 0 67.2077 12.0968 813 60.385 881.943 420.252
370 0 68.0774 12.8971 878 59.4146 882.036 417.79
371 0 71.1938 10.9139 777 62.1248 881.522 416.118
372 1 92.4483 14.2025 1313 53.5583 882.334 423.458
373 0 92.8229 12.0552 1119 55.2064 883.093 424.926
374 0 96.797 10.8164 1047 56.1671 882.864 424.929
375 0 95.7696 11.8931 1139 57.6348 882.622 417.445
376 0 105.671 17.0719 1804 48.7212 883.731 428.715
377 1 43.024 8.15823 351 66.5214 881.989 387.809
378 0 45.0852 10.713 483 61.3892 882.315 428.896
379 1 234.913 12.5706 2953 61.042 882.634 377.726
380 0 236.136 10.7861 2547 61.3871 883.169 383.837
381 1 210.32 14.9154 3137 57.0367 882.872 388.133
382 1 184.157 11.4902 2116 68.4664 882.327 358.153
383 0 192.127 11.737 2255 67.5197 881.91 360.624
384 0 198.218 12.8445 2546 66.8075 882.075 354.295
385 0 202.217 12.8575 2600 67.6331 881.644 346.287
386 1 229.066 13.8126 3164 59.8714 882.305 380.686
387 0 215.219 12.629 2718 68.3959 881.836 345.275
388 0 222.353 13.3751 2974 67.7048 882.012 344.126
389 1 245.418 15.3412 3765 59.7591 882.356 372.324
390 0 243.339 8.3546 2033 64.666 882.749 387.562
391 0 244.587 9.19509 2249 62.0227 883.021 390.656
392 1 222.287 7.88621 1753 74.1181 882.698 357.818
393 1 243.332 11.6836 2843 63.7527 882.389 374.074
394 1 222.244 8.36916 1860 72.8892 881.551 358.582
395 0 222.278 7.40063 1645 70.1939 881.414 375.338
396 0 223.464 8.4846 1896 71.4214 881.255 361.877
397 0 238.531 13.7215 3273 62.2594 881.225 369.46
398 1 81.1036 12.7121 1031 63.2745 882.342 414.591
399 0 84.1066 13.7088 1153 62.2767 882.565 410.209
400 0 86.0915 12.3473 1063 64.0452 882.367 409.856
401 0 89.2626 11.2813 1007 65.2711 882.017 411.405
402 1 44.0588 9.16957 404 65.9554 882.025 430.735
403 0 46.1075 9.9333 458 66.083 881.797 429.052
404 0 50.1267 13.1267 658 62.1778 881.871 428.155
405 0 52.229 11.8134 617 63.6175 882.047 427.467
406 0 50.0203 11.4953 575 65.56 882.056 425.991
407 0 55.0344 12.8465 707 63.5417 882.089 424.464
408 0 56.0859 12.2491 687 63.9651 882.099 425.93
409 0 56.2414 11.1662 628 65.3503 882.32 425.387
410 0 56.0995 10.1605 570 68.4018 882.228 423.505
411 0 61.2175 14.326 877 62.171 882.006 421.545
412 0 63.0262 11.9474 753 65.595 881.855 421.803
413 0 63.0304 11.9942 756 65.9127 882.119 422.364
414 0 67.0715 12.0319 807 65.6518 881.572 420.926
415 0 71.2452 12.4078 884 64.8971 882.04 421.69
416 0 71.0869 13.3499 949 64.4131 882.27 420.132
417 0 72.1868 13.4512 971 64.243 882.487 420.695
418 0 76.079 12.6053 959 65.732 882.511 416.969
419 0 78.3038 12.2727 961 66.7815 882.394 416.727
420 1 41.0911 10.4889 431 66.0626 882.545 435.882
421 0 43.0678 12.1901 525 65.7105 881.686 431.484
422 0 44.1076 11.4493 505 66.7406 882.675 433.453
423 0 44.1131 10.0877 445 69.8607 882.645 431.551
424 0 45.036 12.7232 573 66.089 883.058 433.044
425 0 47.0098 11.9975 564 66.883 882.785 432.762
426 0 49.1304 11.8867 584 67.012 882.776 432.327
427 0 53.1211 13.761 731 65.2107 882.666 430.261
428 0 51.109 11.4461 585 69.6444 882.696 427.024
429 0 54.0843 10.8164 585 69.6957 882.409 427.715
430 0 54.1897 10.2418 555 70.6522 882.796 429.728
431 0 56.1313 10.5111 590 70.6424 883.103 428.844
432 0 61.0373 12.5661 767 67.0274 883.03 427.615
433 0 63.1343 12.117 765 68.3908 882.986 425.697
434 0 63.1051 11.98 756 68.4854 883.237 425.995
435 0 67.096 13.3242 894 67.0593 883.443 422.053
436 0 68.0916 11.9104 811 68.6769 882.808 423.107
437 0 69.0367 11.8053 815 69.5791 882.595 422.115
438 0 72.1717 12.207 881 68.1907 883.116 423.885
439 1 36.0706 8.84376 319 70.2727 882.483 437.072
440 0 39.0671 11.877 464 66.3707 882.989 437.64
441 0 42.1155 11.3735 479 67.762 882.95 434.459
442 0 43.2227 11.7531 508 67.7539 883.096 434.898
443 0 43.0622 11.3557 489 69.2597 882.914 433.939
444 0 45.1451 11.8285 534 68.0506 883.022 431.976
445 0 47.0666 12.2805 578 67.3737 883.123 432.322
446 0 47.088 10.491 494 70.3198 883.376 432.781
447 0 47.0441 10.4158 490 71.602 883.18 429.994
448 0 50.0865 10.5018 526 71.6274 882.658 428.987
449 0 55.0871 12.5438 691 67.5543 883.512 428.915
450 0 54.1146 10.7549 582 71.232 882.701 428.057
451 0 57.07 12.5285 715 68.5958 882.929 426.962
452 0 58.1345 10.1317 589 72.5467 882.771 425.964
453 0 60.2184 10.1796 613 71.31 882.746 424.863
454 0 61.0595 12.0866 738 69.3049 882.615 423.732
455 0 63.157 10.6401 672 70.7768 882.379 424.073
456 0 64.073 11.1123 712 70.8118 881.827 421.216
457 0 67.1253 10.3538 695 71.1367 882.599 422.855
458 0 71.0978 13.3337 948 67.5211 882.532 418.058
459 0 70.0611 11.3901 798 70.8233 882.634 418.756
460 0 76.0753 12.0538 917 69.2584 882.844 417.979
461 0 78.0971 12.8814 1006 67.6362 883.483 420.031
462 0 81.2018 11.6007 942 70.0711 883.014 415.12
463 0 84.079 11.5368 970 69.7577 883.027 415.038
464 0 87.2129 11.4891 1002 70.3224 883.431 411.073
465 1 46.0793 10.4168 480 67.9229 883.552 432.802
466 0 49.0499 11.05 542 67.4078 883.146 431.199
467 0 51.0518 12.4579 636 65.2044 884.083 432.123
468 0 50.0239 11.6744 584 67.601 883.627 429.467
469 0 54.0743 12.039 651 67.1797 883.544 427.939
470 0 57.0276 12.9411 738 66.2656 883.702 426.359
471 0 57.0551 11.7781 672 68.439 883.546 425.565
472 0 59.0638 11.005 650 69.3262 883.909 425.217
473 0 61.0534 11.449 699 66.7482 883.179 426.515
474 0 62.0651 10.8918 676 69.5311 883.138 423.355
475 0 65.0405 11.07 720 69.0819 882.926 422.997
476 0 68.244 12.0304 821 67.8136 883.319 422.643
477 0 70.0582 12.6752 888 66.4448 883.453 423.332
478 0 72.0386 11.9797 863 68.1564 883.533 418.987
479 0 74.1217 12.9382 959 66.6684 883.614 417.166
480 0 76.12 12.0074 914 69.0153 883.154 415.883
481 0 78.0608 11.7601 918 69.6993 883.228 414.59
482 0 82.1328 11.8223 971 69.3656 884.124 413.546
483 0 84.0327 12.9473 1088 67.4182 882.963 413.084
484 1 50.1077 10.8167 542 68.1642 883.05 430.638
485 0 46.0154 9.62722 443 72.5734 883.244 428.716
486 0 50.0214 11.9149 596 67.9295 883.007 430.314
487 0 53.0228 11.7685 624 69.2356 883.317 426.804
488 0 53.0125 11.1294 590 70.5932 883.495 424.678
489 0 57.0409 11.9037 679 69.0957 883.73 426.134
490 0 57.0303 12.0287 686 67.8338 883.229 426.128
491 0 60.049 11.2408 675 70.8741 883.111 422.793
492 0 62.0446 12.1203 752 69.1011 883.701 422.816
493 0 63.0949 12.3782 781 69.2394 883.252 421.675
494 0 67.0864 13.6093 913 67.1073 882.84 420.022
495 0 66.2068 10.875 720 71.8389 883.125 419.781
496 0 71.1795 11.478 817 70.011 883.133 419.782
497 0 72.078 11.3488 818 70.3912 882.736 416.495
498 0 75.0874 11.0804 832 70.6178 883.139 418.308
499 0 76.0767 12.3691 941 68.9416 882.919 416.615
500 0 79.0858 12.2146 966 69.6201 882.984 412.405
501 1 40.0779 8.9326 358 70.1592 882.802 433.218
502 0 41.0897 11.2193 461 67.397 882.972 432.683
503 0 41.0081 10.4613 429 69.0793 882.995 431.499
504 0 44.0594 11.9838 528 66.7235 883.002 429.413
505 0 45.0404 10.9679 494 68.8745 882.615 428.146
506 0 46.1002 10.8026 498 67.7831 882.056 430.518
507 0 49.0507 10.7032 525 67.88 882.175 430.162
508 0 50.044 9.65151 483 69.8986 882.495 428.975
509 0 54.0501 11.6558 630 67.1079 882.446 426.592
510 0 53.0444 11.1982 594 69.1431 882.882 424.695
511 0 55.0734 11.9295 657 67.9087 882.592 425.259
512 0 57.072 12.4229 709 67.5614 882.886 425.223
513 0 57.0787 11.4053 651 69.427 882.596 422.344
514 0 59.1068 12.5028 739 68.4303 883.237 421.924
515 0 62.0859 10.5499 655 69.8824 883.403 423.924
516 0 66.1409 12.8362 849 68.073 883.314 421.081
517 0 68.0163 11.8648 807 68.8228 883.993 421.762
518 0 69.0604 11.7144 809 68.7824 884.226 421
519 0 72.2155 11.4103 824 70.0231 883.267 418.197
520 0 74.1755 11.9851 889 69.1788 883.372 418.337
521 0 76.0593 11.307 860 70.2151 883.112 415
522 1 41.0252 10.457 429 68.9674 883.331 434.797
523 0 43.0246 12.1558 523 66.1797 883.174 433.275
524 0 43.037 10.8976 469 67.9979 883.552 433.456
525 0 44.0823 11.9549 527 66.5104 883.37 433.135
526 0 44.0861 10.8878 480 67.8729 883.26 431.483
527 0 45.062 10.541 475 67.6884 882.514 430.389
528 0 47.1041 11.5701 545 66.4991 883.061 428.848
529 0 48.1875 11.2062 540 66.9167 883.58 429
530 0 50.0699 12.3228 617 64.765 883.481 430.12
531 0 51.0582 11.9471 610 66.0148 882.552 426.025
532 0 54.0294 12.2711 663 64.3952 882.483 426.035
533 0 56.0887 13.0864 734 63.0204 882.802 425.341
534 0 55.021 10.8322 596 66.4111 883.133 422.191
535 0 60.0119 11.531 692 64.3251 883.038 423.087
536 0 61.0664 10.6605 651 65.1598 882.785 421.015
537 0 62.0828 10.7115 665 65.0586 883.036 418.899
538 0 64.0338 10.4788 671 64.7079 882.493 420.238
539 0 66.0666 10.0202 662 65.3505 882.619 417.903
540 0 68.072 9.91597 675 64.7674 882.347 418.019
541 0 72.1098 11.9679 863 61.6883 882.846 415.929
542 0 74.1588 11.7586 872 61.8589 882.399 413.682
543 0 78.0681 11.6565 910 61.3571 882.048 415.198
544 0 80.0984 13.2587 1062 59.7382 882.423 413.069
545 0 83.0985 11.6729 970 61.334 882.107 410.307
546 1 44.0526 10.2832 453 60.9205 883.035 432.066
547 0 45.1376 8.88395 401 62.7506 882.773 430.155
548 0 46.0202 10.0391 462 61.8247 882.314 428.227
549 0 51.0551 11.4974 587 58.6934 882.419 429.233
550 0 48.0547 9.59324 461 62.3601 882.744 426.328
551 0 54.0511 10.8416 586 59.6212 883.275 426.904
552 0 52.1272 9.84132 513 61.5185 883.719 423.058
553 0 55.1308 11.3548 626 59.7188 883.506 424.796
554 0 58.0244 10.7886 626 59.9984 882.914 423.979
555 0 59.0285 11.9942 708 59.4873 883.253 420.465
556 0 61.0685 11.4462 699 59.4278 883.106 425.549
557 0 62.0662 10.4082 646 61.4783 883.017 421.644
558 0 65.1282 10.7634 701 60.9643 882.609 417.195
559 0 69.0525 10.6875 738 60.3997 882.835 421.019
560 0 70.0713 12.8441 900 58.9167 882.274 415.987
561 0 73.046 13.1287 959 57.9791 882.554 415.621
562 0 76.1042 12.6406 962 59.4969 882.817 414.434
563 0 77.1138 10.6336 820 61.8244 882.744 415.662
564 0 79.0819 11.5071 910 61.0176 882.625 411.357
565 0 81.0486 11.4129 925 61.8324 882.976 412.521
566 1 40.025 8.41974 337 64.2285 882.685 432.255
567 0 41.0091 9.43692 387 63.23 882.163 433.55
568 0 42.0324 8.56482 360 65.3056 881.964 429.572
569 0 47.0485 11.9876 564 59.7482 882.023 430.096
570 0 46.0283 10.6022 488 63.2828 882.812 428.607
571 0 49.0378 12.317 604 60.6821 882.692 430.891
572 0 52.0519 11.7191 610 62.0033 883.264 429.4
573 0 49.099 10.5501 518 64.8263 882.907 427.046
574 0 53.0275 11.1074 589 63.2173 882.759 427.548
575 0 52.0567 9.06703 472 67.3051 882.403 426.316
576 0 58.1746 12.0155 699 63.0372 882.597 424.383
577 0 58.0698 10.1946 592 66.1841 882.642 425.008
578 0 62.0438 11.3791 706 64.4249 882.746 423.076
579 0 62.0532 10.6521 661 65.8578 882.648 422.021
580 0 64.081 11.4855 736 64.9932 882.23 421.298
581 0 66.0284 11.4042 753 65.5113 882.276 418.827
582 0 70.0882 12.2703 860 64.3884 882.727 417.386
583 0 72.0821 11.7089 844 65.6185 882.218 415.884
584 0 72.1753 11.5413 833 66.4646 882.157 413.605
585 0 77.1001 14.0856 1086 62.1418 882.824 414.089
586 0 85.2144 11.254 959 55.7925 882.02 416.851
587 1 42.1022 11.6859 492 64.3191 882.992 429.27
588 0 41.0361 10.4786 430 66.0372 883.191 431.854
589 0 45.0365 12.7008 572 63.1154 883.086 429.83
590 0 47.0606 11.8571 558 64.7706 883.464 428.405
591 0 48.028 11.3684 546 65.9634 882.954 426.654
592 0 50.048 11.429 572 64.9545 883.35 426.864
593 0 50.0554 11.4673 574 66.3397 883.002 424.462
594 0 54.0805 11.15 603 65.5871 883.196 425.481
595 0 53.1561 12.0212 639 65.6698 883.106 424.366
596 0 54.0199 10.6812 577 67.9827 882.874 423.813
597 0 57.0549 10.411 594 68.2273 882.941 423.552
598 0 60.0548 12.5719 755 65.3854 882.72 422.723
599 0 62.0835 12.8053 795 65.3698 882.581 421.629
600 0 63.143 12.7964 808 66.1968 883.196 419.563
601 0 65.1122 12.0561 785 66.7771 882.661 419
602 0 67.0772 13.0596 876 65.5206 882.576 417.933
603 0 67.2282 12.4055 834 66.6858 882.923 418.878
604 0 69.1206 12.6735 876 66.8619 882.784 416.807
605 0 71.0933 12.7719 908 66.2863 882.84 417.871
606 0 73.2544 12.6545 927 66.9396 882.898 415.097
607 0 76.0877 13.2216 1006 65.6988 882.856 415.042
608 1 37.0339 9.77482 362 70.0774 882.903 429.674
609 0 40.0475 8.73963 350 70.1257 882.811 430.506
610 0 42.1009 11.3299 477 67.2495 882.654 430.962
611 0 44.0355 12.013 529 66.5728 882.9 428.677
612 0 46.0514 10.966 505 67.3683 882.905 430.459
613 0 47.1543 11.1761 527 66.797 882.67 430.08
614 0 47.0703 12.1308 571 66.0998 882.708 428.382
615 0 50.1712 12.7962 642 64.8972 883.201 427.964
616 0 50.0355 12.5311 627 66.9729 882.925 424.839
617 0 52.0597 13.0619 680 65.6118 883.157 426.144
618 0 54.1216 12.4904 676 67.1716 882.933 424.429
619 0 53.1092 11.2598 598 68.9649 883.079 424.508
620 0 56.0514 11.4181 640 68.575 882.936 423.823
621 0 59.0895 13.5219 799 65.9875 883.358 421.975
622 0 59.0607 11.2427 664 69.4111 883.19 422.324
623 0 61.0953 13.6017 831 65.9735 883.155 420.724
624 0 64.0615 13.4246 860 66.0756 883.049 420.081
625 0 66.1608 13.3312 882 66.1995 882.927 420.196
626 0 67.0743 14.1485 949 65.3793 882.459 419.538
627 0 69.1022 12.9663 896 67.019 882.715 420.239
628 0 71.2455 12.6043 898 67.9421 882.631 417.909
629 0 73.1135 14.3612 1050 65.3505 882.11 417.314
630 0 75.0713 12.7878 960 67.849 882.583 416.426
631 0 77.0483 14.0691 1084 65.8902 882.77 416.902
632 1 40.1241 12.3118 494 65.9453 883.21 434.682
633 0 41.1225 13.2288 544 65.5809 883.04 433.61
634 0 42.1015 13.6337 574 66.4896 883.277 432.819
635 0 43.0716 12.0961 521 68.8081 883.182 431.697
636 0 45.1044 13.5463 611 67.0131 883.033 430.462
637 0 45.1282 12.2762 554 69.1282 882.637 429.599
638 0 46.1283 12.1617 561 70.2727 882.916 429.533
639 0 48.1053 13.8238 665 67.8992 883.359 430.505
640 0 48.0747 13.5206 650 68.9462 883.211 430.283
641 0 51.0807 13.8408 707 68.1216 883.491 430.069
642 0 53.0944 13.0711 694 69.0115 883.127 430.271
643 0 54.1213 14.6523 793 67.9306 882.675 428.402
644 0 55.1052 14.1547 780 69.1551 883.055 428.014
645 0 57.0313 12.0285 686 71.5671 882.643 428.586
646 0 57.0679 12.4413 710 72.4183 882.994 426.955
647 0 62.1163 14.167 880 69.5011 883.059 424.952
648 0 63.2457 13.0128 823 72.1482 883.079 422.73
649 0 64.0766 11.8452 759 74.0224 882.826 423.282
650 0 66.151 14.5274 961 70.4953 882.838 422.272
651 0 69.0767 13.7094 947 71.6378 882.089 421.348
652 1 35.074 10.7202 376 73.7686 882.455 438.298
653 0 37.1016 11.2933 419 73.1814 882.828 438.134
654 0 37.0992 11.3749 422 74.1066 883 436.799
655 0 38.0763 11.083 422 74.846 882.708 435.936
656 0 37.0348 10.6386 394 76.0609 882.85 435.322
657 0 40.0714 11.3797 456 75.0724 882.919 433.351
658 0 41.057 11.6667 479 75.1774 882.146 433.219
659 0 42.0534 11.1763 470 76.3085 882.074 433.07
660 0 43.0289 13.2237 569 73.8418 882.45 430.517
661 0 46.0318 13.4038 617 72.4214 882.587 431.621
662 0 47.111 11.7382 553 74.5823 882.116 432.467
663 0 46.1084 12.6658 584 74.5702 882.515 430.637
664 0 49.053 10.8454 532 76.9192 881.87 428.372
665 0 50.0494 11.2889 565 76.869 882.547 427.49
666 0 50.0697 11.9633 599 77.0267 882.032 424.531
667 0 54.0548 12.4503 673 75.3819 882.33 425.04
668 0 57.0633 13.301 759 73.2951 882.345 425.406
669 0 58.2288 13.3611 778 73.2404 883.177 425.181
670 0 61.1147 12.6156 771 74.463 883.292 423.137
671 0 61.0632 12.9374 790 74.0924 882.7 423.657
672 0 63.034 12.9613 817 73.7687 882.876 423.813
673 0 65.0954 13.196 859 73.2352 882.62 421.69
674 0 67.0936 11.6256 780 77.1231 882.368 418.423
675 1 36.0816 10.3931 375 75.992 882.389 434.152
676 0 38.016 10.9954 418 76.0383 882.16 432.146
677 0 40.0256 12.1173 485 73.0062 882.109 433.186
678 0 39.0511 10.7295 419 76.4224 882.241 431.764
679 0 41.0332 11.3079 464 75.6789 882.427 430.802
680 0 42.0186 11.2569 473 74.5433 882.421 431.622
681 0 45.036 12.2791 553 73.0705 883.022 431.058
682 0 43.0564 10.4746 451 77.9468 882.33 429.195
683 0 48.0844 12.1037 582 73.8058 881.955 428.397
684 0 48.0221 12.5775 604 74.192 882.103 428.449
685 0 49.0909 12.4667 612 74.6732 882.111 425.962
686 0 51.1224 12.3234 630 74.7381 881.657 426.7
687 0 53.0715 12.3042 653 74.6524 882.845 426.968
688 0 54.0258 13.5306 731 73.1245 882.46 423.873
689 0 56.1814 13.5098 759 72.9236 883.03 424.524
690 0 59.0314 12.4849 737 74.6906 883.178 422.518
691 0 60.0442 11.9912 720 75.5014 882.685 423.303
692 0 63.059 13.2733 837 73.3883 882.834 421.624
693 0 63.1004 11.553 729 76.7256 883.048 421.422
694 0 65.0849 12.6297 822 75.0073 882.644 418.039
695 0 69.0366 12.2544 846 74.8818 883.475 418.656
696 1 35.0057 11.0553 387 75.155 882.054 431.235
697 0 37.0119 10.6182 393 75.0712 882.137 430.794
698 0 37.0596 10.4426 387 75.5943 882.853 430.708
699 0 37.0275 12.6122 467 72.7195 882.929 430.857
700 0 41.0363 12.5011 513 71.4444 882.768 429.848
701 0 41.0523 11.2052 460 74.663 883.083 428.854
702 0 42.0299 9.54083 401 77.3541 883.287 427.985
703 0 44.0634 11.6423 513 73.3548 883.384 428.164
704 0 46.023 12.1461 559 72.3059 882.893 426.912
705 0 47.0266 13.0564 614 70.816 883.129 426.267
706 0 48.0418 11.9687 575 73.2 883.205 425.518
707 0 49.033 11.3393 556 73.9406 883.439 424.511
708 0 51.0216 11.9361 609 72.33 882.365 424.905
709 0 54.0802 11.7233 634 71.623 883.169 426.38
710 0 54.0351 11.1224 601 73.5774 883.025 424.483
711 0 56.1319 11.9362 670 70.391 882.794 423.285
712 0 58.1242 12.8862 749 69.1162 882.616 421.546
713 0 59.0383 10.6541 629 71.9968 881.754 422.316
714 0 60.0523 13.2884 798 69.2606 882.197 418.084
715 1 31.018 11.0259 342 70.5497 881.675 433.175
716 0 33.0072 10.8764 359 70.4318 881.802 434.053
717 0 34.0146 10.1427 345 71.513 881.394 432.661
718 0 34.0833 10.2689 350 71.1571 882.086 434.683
719 0 36.0351 11.2946 407 70.2334 882.297 432.671
720 0 36.0242 9.21604 332 73.2078 882.521 433.289
721 0 39.1416 11.6245 455 69.1626 882.875 432.143
722 0 40.028 12.4913 500 68.846 882.866 431.494
723 0 41.0393 11.623 477 70.0231 882.499 430.503
724 0 41.0575 11.4474 470 71.5553 882.802 428.189
725 0 43.0717 10.3316 445 73.0157 882.674 427.897
726 0 46.0342 13.5551 624 67.5497 882.619 427.473
727 0 45.0124 12.1744 548 71.0401 882.613 426.505
728 0 48.0256 11.8687 570 70.4351 882.879 426.209
729 0 49.0745 11.7169 575 71.4017 882.019 424.541
730 0 48.153 10.6743 514 73.7724 882.693 424.488
731 0 52.0247 12.2442 637 70.7959 882.832 423.859
732 0 52.0527 11.8726 618 71.7087 882.694 421.286
733 0 56.0877 12.6766 711 69.2813 882.588 423.143
734 0 56.0915 11.8913 667 71.096 882.414 421.196
735 0 58.0369 10.7001 621 72.6296 882.87 420.338
736 0 60.0389 11.5259 692 70.9379 882.486 418.788
737 0 63.1073 12.9304 816 68.9032 882.529 418.259
738 0 63.0335 10.4548 659 72.6601 882.337 416.69
739 1 34.0031 11.0284 375 69.0693 882.949 432.899
740 0 35.1265 10.2487 360 70.1333 882.325 431.697
741 0 36.0202 10.2165 368 70.8777 882.533 432.905
742 0 38.0312 10.0444 382 70.9529 883.335 432.631
743 0 39.0126 10.8683 424 70 883.085 429.561
744 0 41.05 11.0597 454 68.5132 882.37 429.438
745 0 41.0365 11.5507 474 69.2806 882.131 427.766
746 0 43.0474 10.8717 468 69.218 882.169 428.553
747 0 44.0297 10.6519 469 69.8422 882.482 426.804
748 0 45.0375 11.0575 498 69.7771 882.43 423.677
749 0 49.0673 12.8803 632 65.6076 882.354 424.663
750 0 49.0276 12.0136 589 67.4295 883.027 423.418
751 0 49.0308 10.6464 522 69.795 883.571 423.586
752 0 53.0446 12.2915 652 67 882.876 423.152
753 0 54.0373 10.8444 586 68.6297 882.776 422.823
754 0 54.0252 10.273 555 70.3351 882.51 420.506
755 0 57.0269 11.5384 658 67.7888 882.368 420.678
756 0 61.0258 11.192 683 67.6179 882.774 421.366
757 0 60.0578 10.8229 650 69.1477 882.283 418.603
758 0 64.0315 12.5407 803 66.7347 882.316 416.721
759 0 65.0747 12.6316 822 66.5949 882.398 414.339
760 0 69.0759 13.5648 937 65.0523 882.464 415.017
761 0 70.1057 11.9534 838 67.1217 881.957 416.922
762 1 35.0169 10.4235 365 69.5178 881.86 429.005
763 0 38.0143 10.838 412 66.9757 882.745 429.053
764 0 40.0349 12.1144 485 64.0784 882.687 429.499
765 0 41.0343 11.5026 472 65.6208 883.197 428.504
766 0 42.0483 11.9149 501 65.0379 883.331 427.8
767 0 42.0167 12.3046 517 65.4371 883.133 425.236
768 0 46.0403 11.5985 534 64.8127 882.71 427.674
769 0 46.0333 10.5793 487 66.6838 882.901 426.825
770 0 51.0418 12.7738 652 63.3482 882.561 425.405
771 0 51.1196 11.7763 602 65.1944 882.615 424.535
772 0 52.0358 13.5099 703 63.6614 882.738 422.341
773 0 53.0653 12.7013 674 63.8131 882.258 423.2
774 0 55.0567 12.4781 687 64.508 882.745 422.968
775 0 57.062 11.8643 677 65.2688 881.628 421.947
776 0 57.0469 11.5519 659 66.4492 881.724 420.816
777 0 59.0368 12.7209 751 64.5499 881.879 420.684
778 0 61.0447 11.3032 690 66.3145 882.064 421.106
779 0 62.0613 10.8763 675 67.1304 881.473 419.467
780 0 64.0658 11.2072 718 66.3565 881.889 417.227
781 0 66.0593 13.0338 861 63.8513 882.204 417.854
782 1 35.0701 12.4037 435 63.4667 882.858 432.299
783 0 37.0141 11.1579 413 65.3414 883.128 432.165
784 0 36.028 10.5751 381 66.3596 882.234 431.748
785 0 38.0823 11.0025 419 66.8568 882.613 428.788
786 0 30.4762 17.0625 520 24.0865 880.306 553.927
787 1 40.0286 12.566 503 64.7356 882.849 429.147
788 0 41.0391 12.086 496 66.3306 882.722 426.079
789 0 44.118 10.4492 461 68.2994 882.892 426.011
790 0 44.0703 12.9112 569 65.2496 882.742 424.163
791 0 45.0234 10.75 484 68.062 882.715 423.138
792 0 48.0165 11.7668 565 66.2425 882.816 425
793 0 50.0444 13.1283 657 65.1644 882.995 423.192
794 0 52.1218 11.1661 582 67.5017 882.402 423.766
795 0 54.0339 11.4003 616 67.2857 882.36 422.481
796 0 57.1115 12.9746 741 65.5466 881.91 419.445
797 0 59.0411 12.3981 732 66.2746 881.742 420.199
798 0 60.0298 12.2273 734 67.1335 881.601 417.936
799 0 61.0558 12.4149 758 66.496 882.369 419.368
800 0 64.0414 12.2265 783 67.6654 882.272 414.755
801 1 33.0185 9.57039 316 68.576 883.076 433.301
802 0 36.0238 10.8262 390 65.8051 883.444 432.713
803 0 38.0349 11.3317 431 65.3504 883.299 431.961
804 0 38.0374 11.3572 432 66.0903 883.28 431.231
805 0 38.0407 10.1207 385 67.9844 883.361 429.745
806 0 43.038 11.5712 498 64.6024 882.863 429.514
807 0 42.0289 10.4214 438 67.4954 883.158 428.685
808 0 43.0865 12.4169 535 64.6355 883.809 429.658
809 0 45.0135 11.8631 534 65.6142 883.532 428.378
810 0 47.0622 11.5804 545 66.6569 883.598 426.47
811 0 49.0787 12.5105 614 65.4316 883.581 424.5
812 0 48.0859 10.1693 489 68.8487 883.877 425.814
813 0 49.0304 12.6452 620 65.5726 883.9 424.902
814 0 52.1492 13.5956 709 64.1636 883.889 422.67
815 0 54.0734 12.0392 651 66.0261 883.631 421.433
816 0 54.0504 11.0267 596 67.9413 883.134 420.007
817 0 58.018 12.2031 708 65.7444 883.364 418.314
818 0 61.0241 12.7818 780 64.5449 883.733 418.617
819 0 60.0362 10.4603 628 68.1911 883.884 419.105
820 0 63.1247 11.5644 730 66.226 884.27 418.164
821 0 66.2128 11.8406 784 65.0204 884.232 417.226
822 0 67.0821 10.8822 730 67.2027 883.694 416.168
823 0 69.077 11.4655 792 66.255 883.7 415.514
824 0 72.0666 11.8085 851 65.9295 883.456 411.847
825 1 36.1605 10.3704 375 65.9413 883.152 430.075
826 0 37.0621 10.4959 389 66.4139 883.314 427.496
827 0 38.0222 10.8095 411 65.7616 883.08 427.538
828 0 40.0904 11.2745 452 65.7257 883.551 427.648
829 0 43.0233 11.0405 475 65.5242 883.358 427.065
830 0 41.0478 10.9628 450 66.7933 883.298 424.973
831 0 46.0301 11.9922 552 64.6069 882.978 422.944
832 0 46.0329 12.0349 554 64.4296 882.897 424.785
833 0 48.0453 12.738 612 63.7827 882.505 422.554
834 0 51.0691 10.7501 549 65.7851 883.189 424.275
835 0 52.0237 10.7259 558 65.9158 883.237 423.254
836 0 54.0733 10.5412 570 66.7772 883.261 420.479
837 0 57.0615 13.4592 768 62.6094 883.059 419.211
838 0 56.0415 10.9562 614 66.5147 883.783 421.451
839 0 57.0509 11.5686 660 66.553 883.42 417.283
840 0 62.0443 10.3474 642 67.2819 883.659 416.656
841 0 62.0693 11.5838 719 65.993 883.56 414.174
842 0 64.0778 11.6733 748 66.762 883.623 412.398
843 0 68.1273 12.9023 879 64.5586 883.494 413.041
844 0 71.0498 12.0479 856 65.1484 883.711 413.106
845 0 74.0849 12.7961 948 63.8882 883.574 412.351
846 0 75.0437 11.6732 876 65.2146 883.55 411.469
847 0 78.0498 13.7604 1074 62.6918 883.306 409.23
848 1 42.0274 10.0411 422 66.1398 882.858 426.536
849 0 46.0494 10.4236 480 65.225 882.935 424.267
850 0 45.0217 10.9503 493 65.0669 882.01 422.471
851 0 47.0813 11.7669 554 64.4332 882.816 421.487
852 0 50.0504 11.4285 572 64.5594 882.573 419.79
853 0 52.1022 11.3815 593 64.7538 883.244 419.447
854 0 55.0962 11.7249 646 63.3576 883.159 422.105
855 0 56.0314 10.7618 603 65.073 882.852 420.161
856 0 59.0325 13.2639 783 62.0485 883.534 419.129
857 0 58.0886 11.3619 660 65.5803 883.45 416.732
858 0 61.0561 11.9071 727 64.3962 883.597 417.278
859 0 63.0665 12.907 814 63.5467 883.692 416.028
860 0 64.0686 12.034 771 65.1128 883.924 413.352
861 0 69.0699 12.205 843 64.2586 883.652 415.274
862 0 67.0917 12.237 821 65.4032 883.41 412.163
863 0 71.161 11.0735 788 65.3541 883.425 415.637
864 0 74.1017 12.6448 937 64.5763 884.472 411.336
865 1 39.0769 9.85238 385 67.1169 884.036 426.829
866 0 41.0209 10.1655 417 66.1439 884.257 428.218
867 0 39.0284 10.3258 403 66.3127 883.878 429.494
868 0 42.0386 11.2991 475 66.9558 884.044 425.777
869 0 46.0582 11.8546 546 65.9396 884.33 426.712
870 0 46.1168 12.2298 564 65.977 884.087 424.897
871 0 47.0523 12.6455 595 65.1193 883.924 425.503
872 0 47.0323 12.5446 590 66.861 883.322 422.01
873 0 49.0606 11.4552 562 68.6762 883.81 423.34
874 0 51.0804 11.7462 600 68.6367 883.35 422.982
875 0 53.0264 10.5042 557 70.7092 883.336 422.698
876 0 56.0779 14.3907 807 65.0917 884.182 420.791
877 0 58.0237 12.3915 719 68.4924 884.534 419.478
878 0 59.0853 12.4058 733 68.6398 884.033 418.109
879 0 59.0842 12.9984 768 68.6458 884.57 417.901
880 0 62.0328 12.3806 768 69.125 884.159 418.911
881 0 62.0276 12.9942 806 69.6985 883.676 414.102
882 0 64.0474 12.4908 800 69.8638 884.122 416.256
883 0 66.0922 15.2817 1010 66.2079 884.093 415.255
884 0 66.0173 12.2847 811 71.4501 883.994 412.673
885 0 70.0661 13.6443 956 69.2123 883.831 412.458
886 0 72.0366 11.869 855 72.0433 884.113 412.25
887 0 73.0268 12.694 927 70.8177 884.036 410.173
888 0 76.1964 13.0846 997 70.2217 884.158 408.159
889 0 79.0862 11.3926 901 72.7159 883.313 407.19
890 0 83.1135 13.5598 1127 69.0949 883.848 407.164
891 1 39.0584 9.5754 374 72.5508 884.136 428.308
892 0 40.0217 10.1695 407 72.9042 883.712 426.091
893 0 43.0173 11.2513 484 70.6198 882.95 426.556
894 0 43.0268 9.97053 429 73.3683 883.385 424.364
895 0 46.03 11.9705 551 70.5118 883.327 423.18
896 0 48.0563 12.2565 589 69.6842 883.733 424.316
897 0 49.0479 14.3737 705 67.3192 883.806 422.861
898 0 48.0902 11.2081 539 73.1206 883.366 422.05
899 0 49.032 11.9106 584 72.1832 883.274 419.442
900 0 53.0277 12.8235 680 69.0691 883.629 420.671
901 0 57.0284 13.3442 761 68.2484 883.641 418.147
902 0 57.0866 12.3672 706 70.2705 883.667 418.578
903 0 56.0486 10.9013 611 73.2651 883.501 417.573
904 0 60.0742 14.1658 851 67.8237 883.615 416.324
905 0 60.0797 11.2351 675 72.3718 883.163 414.804
906 0 63.0322 12.216 770 70.4701 883.596 415.858
907 0 66.0689 11.9118 787 70.1919 883.607 413.391
908 0 70.0718 13.1722 923 68.7703 883.795 410.61
909 0 74.0488 13.5721 1005 67.6617 884.169 410.403
910 0 74.1402 12.7326 944 69.5667 883.912 408.648
911 1 39.0121 12.1244 473 67.6638 883.328 427.323
912 0 38.0229 10.3885 395 70.4608 883.073 427.061
913 0 40.0602 11.6075 465 69.1914 883.422 426.31
914 0 40.0145 9.79645 392 72.4464 882.35 423.482
915 0 44.0788 11.8878 524 67.9275 882.66 424.597
916 0 44.0161 11.723 516 68.3585 884.064 425.496
917 0 47.085 11.1288 524 69.416 883.653 422.099
918 0 49.044 13.0903 642 66.8131 883.846 421.419
919 0 50.0447 12.5688 629 67.8394 883.849 421.405
920 0 50.099 10.8585 544 71.4062 883.421 419.029
921 0 53.01 11.9223 632 69.0111 883.921 420.163
922 0 55.0226 11.5589 636 69.6777 884.481 420.344
923 0 56.0617 11.309 634 70.4306 883.71 418.249
924 0 58.0519 13.5741 788 67.2246 883.754 417.853
925 0 60.0992 12.1299 729 69.022 883.184 417.427
926 0 61.0359 11.8455 723 69.6764 884.093 415.519
927 0 65.0572 12.8349 835 68.182 883.709 414.766
928 0 65.0256 12.5182 814 69.2961 884.071 414.052
929 0 70.0802 13.4703 944 66.5985 884.034 416.747
930 0 72.1181 14.3515 1035 64.9382 883.936 416.332
931 1 37.0185 10.4272 386 68.8601 883.176 428.363
932 0 39.0321 10.9141 426 67.1362 882.669 430.183
933 0 38.0593 12.2703 467 67.3019 882.546 428.621
934 0 41.0187 11.9458 490 66.8796 883.131 428.847
935 0 41.108 11.0684 455 68.7912 883.365 429.352
936 0 41.027 11.5534 474 69.2595 882.878 427.449
937 0 44.0237 12.3115 542 68.1439 883.24 426.812
938 0 44.0169 12.2453 539 68.5028 881.892 425.052
939 0 47.1114 13.5848 640 65.8094 882.741 426.286
940 0 48.025 12.5768 604 68.3593 882.5 424.18
941 0 47.0158 11.6982 550 70.6236 882.711 423.135
942 0 51.0684 11.749 600 69.9583 882.688 423.673
943 0 51.0435 11.7743 601 69.8686 882.389 424.078
944 0 51.0121 9.72319 496 74.0907 882.375 421.657
945 0 55.0716 12.2931 677 68.9217 882.288 422.294
946 0 56.0427 12.0801 677 70.5864 881.902 420.851
947 0 58.0525 12.9021 749 68.7744 881.907 419.824
948 0 59.0345 12.6875 749 69.6355 881.9 418.975
949 0 61.1147 13.2374 809 69.3053 882.25 415.205
950 0 64.0576 14.5338 931 66.594 882.431 417.126
951 0 66.0852 13.7247 907 68.3572 882.918 416.033
952 1 36.0131 9.08003 327 72.0917 882.202 431.547
953 0 37.0173 11.7783 436 68.4174 882.839 430.814
954 0 38.0627 9.48434 361 71.9917 882.183 430.978
955 0 40.0492 11.1862 448 68.558 882.489 430.35
956 0 41.035 9.43097 387 70.9922 882.481 429.692
957 0 43.0414 11.245 484 67.9587 882.081 427.81
