time division length width area intensity CMx CMy
0 0 45.1306 9.55006 431 63.0998 1037.96 470.821
1 0 47.079 8.89993 419 63.2434 1037.06 470.11
2 0 50.1335 12.6063 632 59.1282 1035.98 467.965
3 0 49.0614 10.4563 513 62.4678 1036.23 466.616
4 0 53.0727 8.78041 466 63.3326 1036.11 467.972
5 0 53.1461 9.18224 488 62.9057 1035.38 463.518
6 0 55.1313 9.86736 544 62.0974 1034.76 467.07
7 0 59.0584 10.7182 633 60.9368 1035.22 465.158
8 0 61.2265 11.3513 695 59.7741 1034.07 465.132
9 0 61.1473 10.2866 629 60.6645 1033.91 466.366
10 0 62.0903 11.8537 736 59.6291 1034.43 464.452
11 0 64.1332 11.5853 743 59.7052 1034.36 464.984
12 0 65.0855 10.1712 662 61.2583 1034 462.304
13 0 70.4873 10.5551 744 60.5121 1033.54 463.156
14 0 74.3428 10.3843 772 60.6645 1033.3 459.185
15 0 75.3621 10.4429 787 60.4689 1033.17 461.15
16 0 81.5476 10.5583 861 60.2938 1032.71 458.136
17 0 79.3684 10.5458 837 60.6679 1033.18 458.007
18 0 84.3695 10.0984 852 60.7582 1032.48 459.33
19 0 84.3695 10.0155 845 116.393 1032.49 459.308
20 1 43.0365 11.4786 494 59.9798 1033.29 476.879
21 0 50.0481 9.33102 467 60.9101 1033.4 479.101
22 0 45.205 10.9501 495 61.8949 1033.21 473.386
23 0 48.4439 9.49552 460 63.6435 1032.95 475.385
24 0 48.4439 9.4336 457 126.221 1032.93 475.398
25 0 53.3326 11.7377 626 61.6118 1033.72 472.002
26 0 54.4343 12.8044 697 60.7274 1034.62 472.44
27 0 55.3641 11.6321 644 61.7484 1034.43 473.261
28 0 53.0967 12.8822 684 62.1213 1034.43 470.304
29 0 58.1678 12.9797 755 61.3391 1034.42 470.082
30 0 59.6041 12.8347 765 62.0248 1034.04 468.71
31 0 61.3339 13.9238 854 60.6815 1034.22 469.683
32 0 64.4557 13.1718 849 61.3946 1034.51 468.009
33 0 64.2799 12.4145 798 62.4198 1033.87 468.554
34 0 66.2011 12.9605 858 62.0804 1033.69 465.655
35 0 65.0863 12.0763 786 63.6069 1033.54 465.083
36 0 73.7507 12.3117 908 61.7269 1034 469.639
37 0 75.779 13.0115 986 123.717 1034.01 468.093
38 0 76.3587 13.0961 1000 61.756 1033.53 464.6
39 0 76.2781 12.5986 961 63.0978 1034.02 461.75
40 0 78.3268 11.8223 926 63.8963 1033.25 458.834
41 0 81.4376 10.6339 866 65.2321 1033.76 459.801
42 0 86.4373 10.7245 927 64.8177 1033.55 457.888
43 1 47.4475 10.3904 493 63.4158 1034.22 479.235
44 0 46.4452 12.1864 566 62.6678 1034.95 478.862
45 0 50.6304 11.3963 577 62.5737 1034.83 478.066
46 0 47.1791 10.5343 497 64.994 1033.29 472.684
47 0 47.1791 10.5343 497 129.646 1033.29 472.684
48 0 53.3519 12.5394 669 61.2377 1032.75 471.689
49 0 53.1651 10.8154 575 63.9635 1033.63 471.503
50 0 54.0969 12.4961 676 61.7855 1032.91 471.457
51 0 55.3208 9.45396 523 65.1147 1032.71 470.382
52 0 61.8509 12.8697 796 60.3618 1033.42 468.559
53 0 60.5763 11.0604 670 62.5328 1033.9 470.587
54 0 59.289 12.4644 739 61.797 1033.75 468.696
55 0 59.289 12.4475 738 116.341 1033.75 468.732
56 0 65.386 13.7032 896 60.1663 1033.4 464.545
57 0 68.8196 9.76466 672 64.003 1033.64 465.531
58 0 69.3363 13.0091 902 60.9224 1034.16 465.054
59 0 71.1743 11.9847 853 62.2157 1033.58 460.818
60 0 75.411 12.16 917 61.5354 1033.38 462.623
61 0 73.2314 9.8182 719 64.9847 1033.04 459.951
62 0 81.5921 12.2683 1001 60.7203 1032.58 464.288
63 0 82.4175 11.5752 954 62.5597 1033.24 460.831
64 0 81.1332 13.1512 1067 61.94 1033.88 457.892
65 0 85.1654 12.7869 1089 62.3278 1034.08 457.739
66 0 91.4209 11.2119 1025 62.801 1033.49 458.657
67 0 91.4524 10.0927 923 64.7053 1032.99 454.688
68 0 93.2323 9.9 923 65.4106 1033.22 452.978
69 1 45.1219 9.90649 447 63.9978 1033.61 476.606
70 0 45.0927 9.02586 407 65.4717 1033.51 475.17
71 0 46.13 10.9256 504 63.873 1033.7 476.026
72 0 51.359 11.0983 570 62.3368 1034.03 475.989
73 0 51.2919 11.5613 593 62.1838 1033.71 474.725
74 0 53.2035 12.1609 647 61.5719 1033.88 472.845
75 0 47.164 9.56237 451 66.051 1033.29 471.756
76 0 54.2732 11.4605 622 62.5402 1032.99 470.064
77 0 57.4033 10.313 592 63.647 1033.23 469.956
78 0 56.1556 11.8777 667 62.4453 1033.29 468.177
79 0 61.4625 11.4053 701 62.3367 1033.89 468.909
80 0 64.3758 10.6251 684 63.3977 1033.7 467.288
81 0 64.2604 9.04133 581 64.6592 1033.24 468.01
82 0 67.3188 11.9432 804 62.041 1033.49 466.81
83 0 69.2662 11.5785 802 62.4052 1032.16 462.687
84 0 72.1448 13.6808 987 60.155 1032.21 462.895
85 0 73.3134 11.7032 858 62.2669 1032.29 463.029
86 0 77.3915 9.8202 760 64.2118 1032.79 464.041
87 1 35.0275 10.1064 354 64.0904 1033.14 478.958
88 0 39.2271 10.1461 398 63.6834 1033.13 478.284
89 0 38.1563 11.1908 427 62.5902 1034.03 479.311
90 0 40.1692 10.2317 411 63.7786 1033.11 478.2
91 0 42.1241 11.5848 488 62.0287 1033.35 475.986
92 0 43.1143 10.9012 470 63.1362 1033.33 475.774
93 0 45.1149 10.5508 476 63.1513 1033.19 474.418
94 0 46.042 11.4895 529 62.3724 1033.05 475.31
95 0 48.1578 9.86341 475 64.0063 1032.92 475.166
96 0 49.1869 10.7549 529 63.4802 1033.08 471.966
97 0 50.0891 10.2617 514 63.8852 1032.96 470.842
98 0 51.0563 11.0662 565 63.3628 1032.77 470.547
99 0 52.0903 12.0176 626 62.3994 1032.85 468.54
100 0 58.2351 12.7243 741 60.8812 1033.55 470.042
101 0 61.4409 15.5271 954 57.2694 1033.94 470.814
102 0 61.297 10.5715 648 63.4769 1033.87 467.96
103 0 61.3627 11.815 725 62.4179 1033.58 466.412
104 0 66.2088 8.68465 575 65.2713 1033.94 467.012
105 0 68.3592 10.7081 732 63.3087 1034.28 463.436
106 1 32.0734 10.8189 347 62.1556 1034.97 483.772
107 0 36.3748 11.0516 402 60.8308 1034.69 483.192
108 0 36.0998 9.72305 351 63.8177 1034.19 481.219
109 0 37.1928 8.84579 329 64.5714 1033.95 480.632
110 0 37.1105 12.9344 480 60.5833 1034.18 478.331
111 0 41.3311 12.0007 496 60.6573 1033.96 479.3
112 0 41.0811 9.88289 406 62.9433 1033.79 475.877
113 0 44.2069 13.2106 584 59.1233 1034.27 479.555
114 0 45.2657 10.118 458 62.7729 1034.31 477.998
115 0 46.253 10.7885 499 62.1242 1033.99 475.431
116 0 49.3409 11.0659 546 61.4231 1034.08 474.13
117 0 48.2868 12.198 589 60.9168 1034.1 473.401
118 0 49.2012 11.6867 575 61.6035 1034.11 474.617
119 0 51.2825 10.9004 559 62.127 1034.42 472.971
120 0 54.4973 12.0923 659 60.5539 1034.53 473.643
121 0 53.1189 13.2345 703 59.9531 1034.41 472.023
122 0 56.1279 10.0307 563 62.6075 1034.22 468.526
123 0 60.2745 10.6845 644 61.587 1034.37 471.764
124 0 60.1435 9.5771 576 63.434 1034.12 468.653
125 0 65.3904 11.3472 742 60.7965 1034.71 469.023
126 0 62.1918 9.29382 578 63.8581 1035.16 468.559
127 0 66.2725 11.3471 752 61.6702 1034.84 463.226
128 0 66.1198 10.4205 689 62.7634 1034.48 462.308
129 1 34.0647 11.0085 375 60.5227 1034.23 480.747
130 0 36.1437 10.4306 377 61.305 1034.13 480.292
131 0 32.1342 11.5765 372 61.4651 1033.55 483.005
132 0 35.096 10.2006 358 63.0112 1033.93 479.12
133 0 38.2688 13.1961 505 59.5525 1033.71 480.43
134 0 41.1946 9.97703 411 62.8151 1034.52 479.577
135 0 42.3262 12.4037 525 59.84 1035.33 481.714
136 0 42.3829 11.9624 507 61.0986 1034.52 479.14
137 0 43.2458 10.66 461 63.243 1034.63 477.056
138 0 42.0897 11.9982 505 61.9822 1034.19 477.853
139 0 46.1612 11.2649 520 61.9635 1034.15 479.479
140 0 44.1709 9.19157 406 65.0369 1034.37 476.919
141 0 51.291 10.8011 554 62.565 1034.26 474.962
142 0 50.1871 10.3612 520 63.3981 1034.32 475.102
143 0 53.4646 12.2885 657 61.1933 1034.4 475.661
144 0 54.2233 11.5448 626 62.1965 1033.58 474.657
145 0 53.1056 11.0723 588 63.5221 1034.03 473.328
146 0 56.3564 13.2372 746 60.6153 1034.03 474.668
147 0 56.2161 9.35675 526 66.1407 1034.15 472.405
148 0 57.2445 10.5862 606 64.6865 1034.59 471.962
149 0 59.1712 10.833 641 63.9953 1034.4 472.694
150 0 63.191 11.7897 745 63.4242 1034.29 468.042
151 0 64.147 11.5516 741 64.3144 1034.81 466.511
152 0 67.0677 13.1956 885 62.2904 1034.4 466.181
153 0 72.4174 12.4418 901 62.7325 1034.28 465.464
154 0 70.1699 11.0731 777 65.2291 1034.93 463.77
155 0 75.3218 11.4442 862 64.4965 1034.76 462.827
156 0 78.3312 12.9961 1018 63.0236 1034.42 462.187
157 1 39.3744 10.87 428 64.6005 1034.85 481.054
158 0 39.0165 12.0462 470 64.3489 1034.77 479.838
159 0 42.3414 12.352 523 62.6922 1035.39 483.386
160 0 43.2698 11.671 505 64.0436 1035.31 480.291
161 0 43.3563 11.9014 516 64.3818 1035.69 479.614
162 0 46.5799 11.3783 530 64.4038 1034.84 478.657
163 0 46.1169 12.6418 583 63.7513 1034.9 476.815
164 0 47.1001 11.9533 563 63.4902 1033.73 477.048
165 0 54.4901 11.0846 604 63.7086 1034.35 477.109
166 0 50.1136 14.4272 723 61.3416 1034.77 476.968
167 0 55.5147 11.7086 650 63.8585 1034.79 474.168
168 0 56.3108 13.8339 779 61.5237 1034.68 474.531
169 0 56.2213 14.9587 841 60.9596 1034.52 473.699
170 0 61.3953 12.1671 747 63.3052 1034.95 473.53
171 0 60.3152 12.6999 766 63.3029 1034.83 473.988
172 0 62.1788 12.7857 795 63.7472 1034.8 468.977
173 0 62.1254 10.3983 646 66.9412 1034.58 469.111
174 0 69.3298 11.5102 798 64.787 1034.92 468.67
175 0 66.2248 11.4459 758 66.0422 1034.97 466.172
176 0 69.1601 12.6518 875 64.4434 1034.02 464.759
177 0 70.1273 11.7358 823 66.045 1034.35 462.499
178 0 76.0882 14.4438 1099 62.3057 1034.68 464.019
179 0 77.0441 13.5247 1042 63.8292 1034.47 460.314
180 1 39.3668 11.1769 440 66.3591 1033.87 479.657
181 0 40.0517 12.1593 487 64.2916 1033.98 482.242
182 0 42.2907 10.4988 444 66.8018 1034.82 480.311
183 0 43.3096 10.3672 449 67.2205 1034.76 481.648
184 0 45.1797 12.0629 545 65.5706 1034.74 479.028
185 0 44.1268 12.3734 546 66.5293 1034.57 475.614
186 0 45.1027 13.946 629 64.7234 1033.98 476.812
187 0 46.207 12.444 575 66.7635 1033.94 475.028
188 0 49.1217 13.4156 659 64.6176 1034.14 475.05
189 0 49.0526 13.3122 653 65.7335 1034.22 474
190 0 51.0246 14.0128 715 64.8112 1034.49 474.712
191 0 55.0528 13.3145 733 64.8759 1034.38 472.199
192 0 54.0427 12.8602 695 66.6043 1034.56 469.899
193 0 58.2391 11.676 680 67.1176 1034.32 470.849
194 0 56.0406 13.2226 741 66.6991 1033.86 467.887
195 0 59.086 12.778 755 66.6291 1033.72 470.272
196 0 60.1832 12.3124 741 67.691 1034.36 469.291
197 0 63.0479 14.5762 919 64.6855 1034.79 466.111
198 0 65.1202 12.2235 796 67.6583 1034.41 466.607
199 0 66.1419 14.7108 973 64.4132 1033.65 465.845
200 0 69.2066 12.9178 894 66.5324 1034.26 465.668
201 0 70.1491 12.4592 874 67.5389 1034.11 462.784
202 0 74.1684 16.2873 1208 62.6424 1034.71 460.894
203 0 75.085 11.8266 888 68.4245 1034.45 463.599
204 0 77.1028 12.412 957 68.1212 1033.96 459.39
205 1 35.0294 11.7616 412 67.8131 1033.73 481.672
206 0 38.0354 12.1991 464 67.1595 1034.2 480.565
207 0 43.5194 10.7768 469 66.0917 1034.19 481.286
208 0 38.0635 11.6647 444 67.8198 1033.82 477.23
209 0 48.6634 10.7267 522 66.4636 1034.6 479.111
210 0 43.068 14.6745 632 63.5032 1033.93 477.351
211 0 44.0556 14.2093 626 64.0367 1033.92 477.489
212 0 45.0862 13.7514 620 64.7952 1033.83 474.629
213 0 48.1362 10.6365 512 68.1836 1033.95 474.744
214 0 47.051 13.6235 641 65.3604 1034.09 473.693
215 0 54.4704 11.1253 606 66.2921 1033.77 474.772
216 0 50.07 12.4626 624 66.9551 1033.5 472.79
217 0 60.5551 13.4258 813 61.9274 1033.35 474.295
218 0 56.0628 13.0925 734 64.9796 1033.35 469.895
219 0 57.0736 14.2973 816 63.4081 1033.27 471.085
220 0 59.088 15.4008 910 62.0231 1032.66 469.893
221 0 60.0486 13.3392 801 65.2135 1033.72 466.635
222 0 61.0679 13.9189 850 64.8494 1033.16 466.167
223 0 59.0293 11.9771 707 67.8232 1034.31 465.198
224 0 67.2356 13.6832 920 64.7522 1034.08 464.074
225 0 68.0941 13.452 916 65.2838 1034.37 466.119
226 0 69.0644 13.3499 922 66.1226 1034.69 464.451
227 0 72.0903 12.845 926 66.4622 1033.89 463.268
228 0 73.0728 13.7397 1004 66.0966 1034.06 460.957
229 0 76.0862 13.7476 1046 66.3881 1034.04 460.838
230 0 77.2423 13.4382 1038 67.2216 1034.56 457.039
231 0 82.1271 13.8079 1134 66.5168 1034.08 457.921
232 0 89.5047 12.9379 1158 66.6563 1034.57 456.975
233 0 91.5985 11.4412 1048 68.8798 1034.58 456.793
234 0 93.352 10.2622 958 70.7077 1034.5 452.971
235 0 98.3674 11.7112 1152 67.8976 1034.61 457.635
236 1 56.6209 9.3605 530 69.9415 1034.27 473.6
237 0 57.3783 10.1084 580 69.3862 1033.79 472.022
238 0 61.4153 11.2513 691 66.7713 1034.42 475.87
239 0 60.6744 10.235 621 70.066 1033.94 468.163
240 0 60.1484 7.79738 469 73.7463 1033.97 467.84
241 0 66.1357 9.90388 655 69.6137 1034.09 466.704
242 0 61.2095 13.1515 805 66.6932 1033.88 466.436
243 1 11.0139 8.71626 96 52.0833 1035.31 498.885
244 0 11.0041 8.36051 92 52.3913 1035.12 498.478
245 0 11.0032 13.4506 148 49.7365 1034.84 498.101
246 0 12.0311 8.06243 97 52.5773 1035.63 498.464
247 0 11.0404 10.054 111 51.6757 1035.05 497.063
248 0 13.0022 7.22954 94 53.2128 1035.19 497.362
249 0 13.0228 10.52 137 51.0365 1034.6 497.526
250 0 13.0234 8.13918 106 53.5755 1033.95 497.651
251 0 15.0517 12.4239 187 50.7914 1034.56 497.684
252 0 16.0799 12.7488 205 51.3317 1035.09 498.185
253 0 14.1829 6.27515 89 54.2472 1034.45 497.045
254 0 16.0374 9.16608 147 53.449 1034.73 499.476
255 0 17.0365 8.45244 144 54.5278 1035.15 499.118
256 0 15.0061 6.66395 100 56.62 1034.58 500
257 0 18.059 8.58299 155 54.9032 1035.46 499.555
258 0 15.0214 12.7817 192 53.7604 1034.92 497.26
259 0 18.1424 11.9058 216 53.9954 1035.13 497.315
260 0 17.1623 11.77 202 54.3911 1034.38 497.564
261 0 16.0073 8.55859 137 57.3723 1034.39 497.832
262 0 18.0559 10.4675 189 56.4656 1034.39 497.513
263 0 18.0598 9.91152 179 56.9721 1034.71 498.324
264 0 20.1923 10.1524 205 56.3854 1034.27 497.595
265 0 19.0124 10.9403 208 56.2692 1034.78 499.5
266 0 18.3262 9.93116 182 58.4341 1034.57 497.066
267 0 19.078 8.12455 155 59.8065 1034.8 498.432
268 0 21.2302 9.37345 199 59.2864 1034.32 498.09
269 0 21.2777 9.49351 202 59.802 1034.81 496.97
270 0 19.058 12.5406 239 58.6402 1034.29 495.916
271 0 19.1414 9.247 177 61.1582 1034.23 497.299
272 0 20.0382 11.2785 226 60.2965 1034.7 497.137
273 0 20.1178 9.04672 182 62.5275 1034.76 496.484
274 0 18.3776 10.121 186 63.1505 1034.27 497.376
275 0 21.2163 10.4637 222 62.7523 1034.53 497.514
276 0 20.1517 11.7608 237 62.4937 1034.18 496.127
277 0 20.0546 8.57657 172 66.0174 1034.14 495.012
278 0 22.0219 9.8084 216 62.8426 1033.68 496.755
279 0 24.1759 10.9613 265 61.8 1033.78 496.075
280 0 25.1563 11.3292 285 62.0491 1033.78 494.986
281 0 26.2684 10.0882 265 64.1208 1033.65 493.762
282 0 26.0195 14.5275 378 60.119 1034.36 492.392
283 0 28.1956 10.2144 288 62.8646 1033.84 494.944
284 0 27.2538 9.3932 256 66.0547 1033.02 491.285
285 0 28.0551 11.513 323 63.5511 1032.27 492.034
286 0 28.0876 8.93632 251 66.988 1033.09 492.59
287 0 31.0645 12.8764 400 61.4 1033.27 493.29
288 0 31.1565 12.7742 398 62.6231 1033.1 489.193
289 0 32.0633 12.0699 387 63.6331 1033.42 490.186
290 0 32.046 12.2948 394 63.8325 1032.9 491.279
291 0 35.4367 10.9773 389 63.8098 1033.3 491.201
292 0 36.12 12.2093 441 63.3673 1033.9 490.297
293 0 35.0651 13.7459 482 62.4772 1033.25 489.496
294 0 37.1717 13.9084 517 61.7292 1033.37 488.901
295 0 36.2315 11.9509 433 64.8129 1033.01 488.42
296 0 37.0923 11.1883 415 65.8602 1033.06 488.248
297 0 37.1143 10.4811 389 66.9974 1033.16 488.766
298 0 41.0806 14.1186 580 61.9828 1033.75 487.509
299 0 40.1521 11.3319 455 65.4703 1033.44 489.097
300 0 41.287 11.2142 463 65.9546 1033.7 487.151
301 0 41.1893 12.4304 512 65.4648 1032.87 484.742
302 0 44.1551 11.7314 518 66.1042 1033.43 484.903
303 0 44.3044 11.6918 518 66.5232 1033.91 485.575
304 0 47.0308 11.2054 527 66.9146 1033.75 486.065
305 0 45.0266 10.1718 458 69.5175 1033.91 484.904
306 0 50.3053 14.412 725 63.6331 1033.39 482.161
307 0 50.4592 13.5357 683 65.6984 1033.4 481.111
308 0 51.1816 11.5667 592 67.9341 1033.26 480.655
309 0 53.2469 11.3997 607 67.9819 1033.68 480.766
310 0 53.1804 11.3952 606 68.7954 1033.49 481.178
311 0 54.1325 12.8573 696 67.5503 1033.47 478.832
312 0 55.2187 11.6446 643 69.776 1033.96 477.46
313 0 58.1718 13.7008 797 66.5784 1033.87 479.001
314 0 61.0812 13.5721 829 66.5802 1034.22 477.954
315 0 63.2123 13.3044 841 66.6029 1033.81 478.426
316 0 62.2672 11.82 736 69.5082 1033.88 476.817
317 0 64.1901 13.647 876 67.1587 1033.8 476.009
318 0 67.3603 12.2327 824 68.9806 1033.79 475.644
319 0 67.2137 12.5867 846 68.4255 1033.62 477.553
320 0 70.3144 13.9232 979 67.5935 1033.9 473.291
321 0 72.2089 12.6854 916 69.4094 1033.68 472.9
322 0 71.2623 14.2572 1016 68.2933 1033.54 469.685
323 0 75.3363 13.0614 984 68.6169 1033.56 472.209
324 0 75.2174 12.6699 953 69.7167 1033.22 470.981
325 0 77.1864 13.9273 1075 67.9098 1032.66 470.446
326 0 78.2325 12.4756 976 70.3115 1032.69 469.171
327 0 79.1932 13.7133 1086 69.395 1033.05 466.718
328 0 83.2659 13.1506 1095 69.2557 1033.81 471.867
329 0 85.2444 13.08 1115 70.5049 1033.27 466.117
330 0 84.2096 13.122 1105 71.3276 1032.56 464.387
331 0 87.1047 12.8351 1118 71.7147 1032.72 464.591
332 0 89.2318 15.9248 1421 67.4609 1032.82 463.982
333 0 88.3341 11.864 1048 74.2395 1033.1 463.223
334 0 91.229 12.7152 1160 73.175 1034.03 463.866
335 0 91.1604 13.2404 1207 73.3977 1033.31 462.715
336 0 93.3553 12.7898 1194 74.0452 1032.95 464.303
337 1 42.0366 9.80099 412 78.6359 1033.03 487.284
338 0 46.1663 11.5452 533 75.4841 1032.62 486.225
339 0 46.0923 11.0648 510 77.5 1032.56 486.545
340 0 48.1514 12.5438 604 74.6656 1032.93 484.808
341 0 48.0505 12.9863 624 74.399 1032.65 486.588
342 1 100.18 14.8632 1489 72.7381 1032.54 462.447
343 0 100.267 12.2173 1225 77.1208 1032.8 460.015
344 0 101.092 13.3147 1346 75.9027 1032.31 460.111
345 0 103.224 13.1462 1357 76.5387 1032.7 456.712
346 1 50.0553 12.7659 639 75.5352 1032.95 483.557
347 0 49.0345 11.9712 587 78.2896 1032.41 481.818
348 0 49.1346 10.5425 518 80.4054 1032.6 483.371
349 0 51.1524 11.1236 569 78.3286 1031.87 484.845
350 0 49.0811 11.3078 555 79.3946 1032.23 484.685
351 1 110.339 13.1503 1451 79.9972 1031.75 450.769
352 0 112.33 13.2911 1493 79.5244 1032.09 453.326
353 0 115.355 12.3532 1425 81.1621 1032.15 451.885
354 0 115.398 12.8685 1485 81.0586 1032.05 452.286
355 0 116.321 12.9728 1509 80.9443 1031.66 452.318
356 0 116.309 11.8564 1379 83.1392 1032.5 448.566
357 0 119.489 13.6163 1627 80.2969 1032.64 449.484
358 0 120.43 13.1446 1583 80.3007 1032.63 451.156
359 0 122.328 12.3602 1512 83.2156 1033.28 447.701
360 0 122.405 12.8181 1569 83.0217 1032.9 446.83
361 0 123.331 13.3462 1646 82.37 1032.34 448.183
362 0 125.476 11.9385 1498 84.3178 1032.74 449.568
363 0 126.492 13.1076 1658 84.1695 1032.96 442.967
364 0 129.241 13.3472 1725 84.0087 1033.19 440.74
365 0 131.437 12.2264 1607 85.4941 1033.06 445.836
366 0 134.323 14.2939 1920 83.1542 1033.67 440.485
367 0 137.413 13.4704 1851 83.685 1033.69 442.398
368 0 138.448 12.3801 1714 86.0881 1033.41 438.925
369 0 142.489 13.5449 1930 84.7181 1032.83 432.253
370 0 145.352 12.6727 1842 85.5049 1032.94 433.71
371 0 150.668 13.3207 2007 84.4858 1032.6 433.93
372 0 152.234 11.3312 1725 87.8481 1032.66 435.139
373 0 157.383 13.3052 2094 85.2593 1033.39 428.103
374 0 162.302 12.4521 2021 86.2053 1033 429.353
375 1 134.074 10.5166 1410 88.9674 1033.27 441.102
376 0 136.216 11.7827 1605 86.8355 1033.95 440.155
