index division length width area intensity CMx CMy
0 0 43.0353 12.9196 556 154.396 1230.56 503.863
1 0 44.0233 13.1975 581 153.706 1234.49 502.231
2 0 46.0336 13.0557 601 149.933 1234.12 501.952
3 0 45.0152 13.8176 622 153.217 1235.24 500.542
4 0 48.1342 12.9845 625 151.794 1234.97 499.331
5 0 50.0259 13.1132 656 149.534 1235.56 500.264
6 0 51.0531 13.5545 692 146.337 1236.68 501.064
7 0 51.0686 13.6679 698 158.295 1237.57 502.577
8 0 52.0167 13.265 690 146.581 1236.37 503.141
9 0 53.0233 13.8995 737 144.129 1237.67 503.141
10 0 56.0597 13.4321 753 141.647 1235.32 503.624
11 0 56.0355 14.0982 790 144.165 1235.46 503.981
12 0 58.0594 14.0029 813 140.83 1231.59 503.766
13 0 58.0435 13.5932 789 152.411 1230.45 504.171
14 0 59.0316 14.128 834 142.197 1231.37 504.494
15 0 60.0617 14.2354 855 146.86 1230.05 504.566
16 0 64.0637 13.7675 882 145.827 1229.74 503.762
17 0 65.161 14.1803 924 149.221 1228.8 503.291
18 0 68.0765 14.0283 955 150.976 1229.06 502.435
19 0 70.0508 13.9185 975 154.501 1227.72 502.231
20 0 73.0794 13.8753 1014 148.861 1225.58 500.227
21 0 74.1736 13.8729 1029 144.68 1225.99 499.589
22 0 78.0578 13.6694 1067 148.187 1225.83 498.2
23 0 81.1475 13.6295 1106 140.394 1226.79 496.762
24 0 83.0919 13.816 1148 147.384 1224.21 494.21
25 1 41.0774 12.3426 507 145.363 1225.94 515.365
26 0 42.0221 12.4934 525 147.171 1224.4 514.891
27 0 43.0516 12.5895 542 145.83 1225.36 513.64
28 0 45.0415 13.0102 586 136.235 1225.41 512.626
29 0 47.1069 12.3124 580 140.229 1225.73 511.469
30 0 49.046 12.8451 630 140.3 1226.3 509.079
31 0 49.0245 12.6467 620 142.111 1226.62 507.768
32 0 49.0502 12.742 625 147.122 1227.69 506.245
33 0 52.1709 12.5166 653 145.611 1229.74 503.181
34 0 53.146 12.7385 677 146.446 1229.17 501.081
35 0 55.0715 12.5655 692 147.462 1230.78 499.718
36 0 56.0403 13.1513 737 141.003 1230.55 497.803
37 0 57.0411 13.166 751 144.188 1231.5 496.124
38 0 60.0849 13.0648 785 144.58 1231.65 495.085
39 0 61.0932 13.5203 826 151.896 1232.73 494.418
40 0 65.0264 13.1639 856 147.389 1232.05 492.807
41 0 67.0949 13.2499 889 149.972 1233.3 491.559
42 0 68.0711 13.6034 926 146.296 1232.76 490.029
43 0 70.0544 13.8749 972 151.437 1233.52 488.812
44 0 74.08 13.4449 996 158.038 1234.07 487.995
45 0 78.0393 13.2882 1037 150.242 1232.51 487.84
46 0 80.0483 13.267 1062 154.315 1233.4 486.558
47 0 82.173 13.143 1080 157.583 1235 485.84
48 0 85.0848 13.2691 1129 152.763 1233.83 484.502
49 0 87.0942 13.296 1158 152.609 1235.74 483.826
50 0 91.0856 13.3171 1213 142.17 1234.19 482.943
51 0 94.1142 13.8343 1302 150.376 1234.1 481.592
52 0 98.0537 13.5028 1324 152.587 1235.44 480.982
53 0 101.128 13.4285 1358 154.098 1232.35 480.027
54 0 105.07 13.2768 1395 157.687 1233.45 478.928
55 0 108.195 13.7807 1491 153.758 1232.86 476.986
56 0 114.115 13.6091 1553 148.411 1233.77 473.954
57 0 119.184 13.777 1642 150.062 1232.2 472.809
58 0 119.184 13.777 1642 175.448 1231.2 472.809
59 0 119.184 13.777 1642 175.448 1230.2 472.809
60 1 133.209 13.8204 1841 152.496 1229.7 466.5
61 0 139.189 13.9235 1938 156.126 1229.93 463.369
62 0 142.16 13.8295 1966 155.957 1228.69 461.001
63 0 148.191 13.739 2036 153.201 1229.51 459.236
64 1 75.1094 12.9411 972 162.175 1230.75 493.988
65 0 79.0696 12.7609 1009 157.848 1230.93 492.342
66 0 81.126 13.0414 1058 158.791 1228.79 490.193
67 0 84.1059 12.948 1089 166.659 1229.67 488.888
68 0 88.0267 13.0869 1152 161.486 1231.53 487.3
69 0 90.0766 12.9112 1163 167.642 1229.69 485.194
70 0 97.11 12.975 1260 167.308 1229.24 482.397
71 0 97.0864 13.1841 1280 159.68 1230.48 481.916
72 0 103.092 13.3473 1376 163.859 1230.09 479.429
73 0 102.087 13.224 1350 171.602 1230.01 478.265
74 1 50.0597 12.8047 641 162.15 1230.32 502.546
75 0 53.0982 12.637 671 172.258 1230.63 500.884
76 0 56.0987 12.6563 710 164.99 1229.87 499.541
77 0 58.0269 13.1835 765 169.238 1228.99 498.128
78 0 59.0348 13.3311 787 158.868 1231.95 496.764
79 0 62.0251 13.0431 809 170.595 1232.03 495.974
80 0 63.1271 13.0055 821 172.175 1232.87 495.357
81 0 66.0984 12.7083 840 170.298 1232.69 493.877
82 0 69.0381 12.8769 889 168.35 1232.68 492.415
83 0 69.0381 12.8769 889 175.252 1232.68 492.415
84 0 73.1096 13.172 963 167.668 1233.56 489.879
85 0 76.1151 12.6256 961 168.231 1233.64 489.783
86 1 40.0058 12.1482 486 167.185 1232.56 505.712
87 0 43.0888 11.952 515 163.734 1232.18 505.233
88 0 42.0247 12.3499 519 171.291 1233.34 505.019
89 0 45.0698 12.0258 542 167.751 1233.49 503.976
90 0 46.1216 12.1201 559 166.381 1232.11 503.352
91 0 47.0395 12.4789 587 164.956 1231.95 502.838
92 0 50.0175 12.0558 603 167.663 1231.27 502.468
93 0 52.0791 12.2122 636 164.948 1232.49 501.028
94 0 53.0283 11.9182 632 163.392 1234.1 500.658
95 0 55.0407 12.409 683 168.596 1234.85 499.952
96 0 57.0519 12.5149 714 170.083 1232.03 499.395
97 0 58.0495 12.7133 738 168.702 1232.53 498.104
98 0 60.0316 13.0598 784 163.556 1231.12 496.444
99 0 63.0251 12.7251 802 165.546 1229.17 496.025
100 0 65.063 13.0181 847 168.593 1231.24 494.817
101 0 65.0975 13.257 863 162.898 1230.36 494.287
102 0 70.0889 12.7124 891 168.355 1229.71 492.952
103 0 73.0427 12.6912 927 158.53 1231.34 491.503
104 0 76.0544 12.8461 977 166.72 1228.89 489.184
105 0 78.1683 12.8825 1007 160.77 1231.25 487.487
106 1 42.0177 11.6855 491 161.338 1230.46 506.136
107 0 43.0354 11.6648 502 163.363 1234.22 505.257
108 0 43.0207 12.2499 527 167.102 1232.12 504.431
109 0 45.0283 12.0813 544 167.16 1232.91 503.278
110 0 46.1063 12.7314 587 152.828 1231.31 502.053
111 0 49.0125 12.1398 595 158.753 1231.45 501.161
112 0 51.0296 12.5613 641 157.048 1230.67 500.256
113 0 52.0262 12.7051 661 155.431 1231.98 498.731
114 0 53.077 12.7739 678 154.704 1230.58 497.959
115 0 54.0563 12.9125 698 160.91 1230.59 497.451
116 0 57.0682 12.5464 716 160.335 1231.39 496.191
117 0 59.0353 12.772 754 155.646 1230.29 495.208
118 0 60.0318 12.7766 767 156.956 1232.71 494.016
119 0 63.0615 13.0983 826 140.148 1233.79 492.354
120 0 65.1256 13.0824 852 149.824 1232.44 491.072
121 0 68.0639 13.0025 885 144.331 1233.75 489.663
122 0 70.0685 12.7875 896 147.842 1234.36 489.575
123 0 73.1192 12.6232 923 146.159 1231.32 487.915
124 0 75.0978 12.8632 966 141.224 1233.2 485.261
125 0 77.0715 12.975 1000 143.579 1233.7 484.545
126 1 37.0371 11.286 418 146.665 1233.54 503.919
127 0 39.0579 11.3677 444 144.052 1232.11 503.367
128 0 41.0395 11.8179 485 133.295 1232.78 502.868
129 0 41.0723 12.5875 517 139.567 1231.8 501.489
130 0 43.0127 12.5312 539 144.375 1232.8 500.978
131 0 46.0436 12.1841 561 142.203 1233.25 500.203
132 0 47.0686 12.2799 578 148.266 1232.58 499.599
133 0 49.0105 12.079 592 144.777 1232.97 498.581
134 0 50.0299 12.1128 606 140.342 1232.93 498.284
135 0 51.0514 13.2807 678 134.004 1232.92 496.645
136 0 54.0696 12.7058 687 143.921 1231.56 496.578
137 0 55.1591 12.5455 692 144.173 1231.91 495.91
138 0 57.0986 13.0651 746 141.701 1229.75 495.032
139 0 57.1191 12.9204 738 145.462 1231.94 494.766
140 0 60.07 13.0015 781 139.77 1231.16 494.223
141 0 61.0463 13.5307 826 132.539 1230.81 493.006
142 0 64.0585 13.2067 846 134.699 1230.69 491.506
143 0 65.0148 13.4739 876 134.223 1231.47 490.379
144 0 69.0658 13.1903 911 133.885 1231.14 489.325
145 1 45.0164 10.8405 488 138.852 1231.83 499.041
146 0 48.0455 11.1769 537 133.953 1231.86 498.911
147 0 48.0624 11.7347 564 142.176 1231.84 497.952
148 0 49.1452 12.575 618 132.036 1231 497.05
149 0 52.0973 12.1312 632 127.9 1231.71 497.391
150 0 52.1015 12.1878 635 135.099 1231.3 496.802
151 0 56.072 11.9311 669 136.386 1231.07 495.547
152 0 56.0616 12.5576 704 123.996 1231.6 495.288
153 0 57.0603 12.4079 708 134.867 1230.89 494.898
154 0 60.0544 12.1889 732 130.984 1231.68 493.788
155 0 60.043 12.8075 769 128.043 1231.1 492.283
156 0 63.0813 12.6504 798 129.08 1230.82 492.524
157 0 66.1013 12.3901 819 127.921 1230.26 490.961
158 0 67.0889 12.7145 853 130.989 1230.11 490.811
159 0 70.0508 12.4053 869 129.25 1229.67 488.875
160 0 72.0848 12.8598 927 122.005 1229.74 486.921
161 0 77.1156 12.4099 957 123.809 1228.81 485.829
162 0 79.067 12.8625 1017 120.879 1229.12 484.587
163 0 82.1875 12.0821 993 126.895 1229.19 484.217
164 0 84.0972 12.6164 1061 128.657 1229.64 482.873
165 1 43.0655 10.8904 469 136.501 1229.38 503.729
166 0 45.033 11.2362 506 140.101 1229.42 502.464
167 0 47.0695 11.4087 537 139.75 1230.62 501.557
168 0 46.0301 12.2963 566 140.493 1230.3 501.3
169 0 47.0198 12.4841 587 139.695 1232.67 500.845
170 0 51.0574 12.3978 633 135.272 1230.79 499.54
171 0 51.0349 12.4817 637 138.535 1230.34 499.135
172 0 55.1154 12.5736 693 132.636 1230.2 498.472
173 0 56.0435 12.3297 691 139.64 1230 497.67
174 0 57.2073 12.9004 738 131.763 1230.15 496.715
175 0 59.0906 12.117 716 142.86 1231.02 496.74
176 0 61.0484 12.6785 774 143.464 1231.22 495.406
177 0 63.0951 12.7427 804 135.307 1230.21 494.66
178 0 65.0347 12.6855 825 138.657 1230.93 493.983
179 0 65.0697 13.2473 862 139.791 1230.06 493.216
180 0 69.1393 12.7713 883 143.373 1231.4 492.548
181 0 70.0495 13.0051 911 144.94 1232.76 491.65
182 0 73.1111 13.3495 976 137.608 1233.63 489.935
183 0 75.1668 13.2239 994 139.276 1231.04 488.156
184 0 80.0901 12.848 1029 132.916 1231.74 487.622
185 0 81.0474 12.8197 1039 142.672 1230.74 486.172
186 0 83.1784 13.1044 1090 142.238 1231.59 484.316
187 0 87.0818 13.0108 1133 143.363 1232.69 482.951
188 0 89.1315 13.0257 1161 143.007 1229.82 482.025
189 0 93.1479 13.2048 1230 144.524 1229.54 480.033
190 0 95.1357 13.2653 1262 143.559 1230.75 479.315
191 0 98.0484 13.0854 1283 144.454 1230.09 477.807
192 0 101.097 13.1458 1329 140.822 1231.68 476.339
193 0 104.175 13.2565 1381 146.602 1231.08 474.639
194 0 108.19 13.0604 1413 145.638 1231.63 473.443
195 0 113.243 13.184 1493 150.301 1231.13 471.204
196 0 115.105 13.3618 1538 149.368 1231.2 469.287
197 0 120.177 12.9476 1556 145.497 1231.29 467.456
198 0 125.134 13.3936 1676 144.125 1232.14 463.911
199 0 129.095 13.1298 1695 147.999 1232.08 461.787
200 0 134.167 13.118 1760 148.493 1230.72 459.565
201 0 135.146 13.2079 1785 147.507 1230.21 457.471
202 0 142.136 13.0931 1861 140.218 1230.51 454.756
203 0 147.251 13.494 1987 151.496 1229.91 451.441
204 0 153.182 13.5068 2069 145.604 1232.07 448.564
205 0 157.217 13.5355 2128 144.534 1230.26 445.486
206 1 86.152 12.0949 1042 145.495 1231.21 480.699
207 0 87.1318 12.5557 1094 153.967 1230.9 479.16
208 0 94.0503 12.2275 1150 144.114 1231.59 477.375
209 0 97.091 12.1329 1178 144.85 1231.61 476.368
210 0 99.0644 12.184 1207 147.472 1231.43 474.38
211 0 102.163 12.206 1247 147.746 1233.51 473.004
212 0 107.144 12.6278 1353 148.202 1231.56 470.473
213 0 114.169 12.7705 1458 146.907 1231.8 466.949
214 0 114.151 12.6762 1447 149.489 1232.32 466.164
215 1 61.0963 11.3427 693 148.843 1232.37 492.694
216 0 62.0784 11.5499 717 146.099 1233.97 491.651
217 0 64.0512 11.5376 739 149.853 1233 491.009
218 0 66.0453 12.2795 811 144.205 1231.87 489.277
219 0 67.031 11.711 785 145.413 1230.75 488.363
220 0 67.031 11.711 785 161.411 1229.75 488.363
221 0 74.1058 11.9964 889 138.298 1232.21 485.188
222 0 75.2306 12.1493 914 147.822 1231.27 483.957
223 0 79.1051 11.845 937 146.424 1233.34 482.796
224 0 80.0917 12.1486 973 144.104 1231.77 481.501
225 0 82.1651 12.3775 1017 142.813 1230.92 479.987
226 0 87.216 12.5206 1092 143.13 1230.59 478.571
227 0 90.203 12.0506 1087 148.424 1232.04 476.272
228 0 93.0913 12.4716 1161 143.906 1231.27 474.876
229 0 96.1102 12.3192 1184 146.052 1231.3 473.248
230 0 101.166 12.2768 1242 151.354 1232.37 471.021
231 0 104.205 12.1011 1261 142.67 1232.2 469.342
232 0 106.145 12.4264 1319 145.303 1233.35 468.215
233 1 54.0542 11.5255 623 145.518 1233.75 493.135
234 0 57.0349 11.379 649 137.479 1232.47 492.476
235 0 60.0334 11.6269 698 138.468 1233.84 491.364
236 0 61.1079 11.2424 687 139.607 1233.35 490.47
237 0 62.1334 11.3787 707 139.375 1233.05 489.446
238 0 65.0929 11.5988 755 136.203 1231.62 488.637
239 0 67.1216 11.4121 766 140.154 1231.56 487.523
240 0 69.0819 11.6818 807 137.18 1233.55 487.823
241 0 71.0518 11.5127 818 143.031 1233.33 486.435
242 0 73.1261 11.8973 870 133.53 1233.36 484.977
243 0 75.1079 12.0493 905 140.813 1234 483.965
244 0 78.1098 11.7015 914 137.818 1232.13 482.786
245 0 83.1114 11.7072 973 136.275 1232.26 481.265
246 0 85.1441 12.0267 1024 139.269 1235.04 479.112
247 0 88.1027 11.9747 1055 139.073 1233.94 477.359
248 0 90.0515 11.9265 1074 133.787 1233.34 476.241
249 1 48.0611 10.6531 512 136.611 1234.62 496.172
250 0 50.0645 11.3853 570 136.474 1234.22 496.018
251 0 52.0934 11.2298 585 138.451 1233.39 494.783
252 0 53.033 11.3703 603 136.254 1233.5 494.426
253 0 53.0178 11.7885 625 137.07 1229.94 493.544
254 0 55.0788 11.4563 631 141.718 1232.7 492.223
255 0 57.0561 11.7603 671 141.852 1231.72 491.408
256 0 60.0545 11.4729 689 132.448 1232.09 490.257
257 0 62.0616 11.6014 720 139.969 1231.41 489.515
258 0 61.034 12.2227 746 139.008 1231.47 488.288
259 0 64.0892 11.8741 761 138.903 1233.83 486.898
260 0 67.0263 11.8909 797 132.592 1233.3 486.429
261 0 67.0368 11.9785 803 139.159 1233.33 485.512
262 0 71.1152 11.7696 837 139.857 1234.01 484.588
263 0 73.0447 11.7736 860 131.086 1231.94 483.278
264 0 76.0511 11.8999 905 134.171 1232.31 481.358
265 0 78.1055 12.2783 959 128.211 1230.91 478.94
266 0 82.0831 11.8173 970 132.781 1232.28 478.435
267 1 43.0237 10.8777 468 130.062 1230.68 496.878
268 0 45.0683 11.0721 499 136.369 1231.13 495.842
269 0 45.0526 11.0759 499 134.501 1232.02 496.525
270 0 47.0517 11.4767 540 132.254 1232.48 495.826
271 0 48.0278 11.3892 547 129.422 1233.5 495.318
272 0 48.0909 11.8525 570 119.884 1231.87 494.333
273 0 51.0316 11.679 596 133.29 1231.53 493.688
274 0 52.0589 11.7367 611 136.82 1231.21 493.586
275 0 52.0748 12.0404 627 141.614 1230.78 492.344
276 0 54.0759 12.0386 651 137.058 1232.58 492.453
277 0 56.134 11.8288 664 140.78 1230.39 491.944
278 0 57.0409 12.044 687 143.723 1233.56 491.103
279 0 57.0604 12.3729 706 138.857 1233.59 490.218
280 0 58.0413 12.405 720 142.479 1231.49 490.821
281 0 59.0429 12.6857 749 138.961 1232.9 489.932
282 0 63.0648 11.956 754 145.255 1232.97 489.098
283 0 63.022 12.7257 802 140.113 1232.61 488.517
284 0 67.0385 12.4108 832 141.826 1232.44 487.982
285 0 67.0404 12.4701 836 145.01 1232.74 487.367
286 0 68.1679 12.3959 845 145.896 1233.22 486.173
287 0 72.0795 12.3475 890 148.288 1232.17 485.376
288 0 74.1167 12.3049 912 148.604 1231.92 484.273
289 0 77.1397 12.0949 933 152.194 1231.56 483.319
290 0 80.1056 12.3712 991 148.354 1230.27 482.316
291 1 40.0275 10.5677 423 150.345 1231.45 502.421
292 0 41.0604 11.1543 458 150.459 1232.47 501.998
293 0 41.0494 12.0099 493 151.637 1231.89 501.4
294 0 44.051 11.4186 503 143.342 1232.09 500.151
295 0 46.0155 11.7352 540 147.444 1232.38 499.987
296 0 47.0776 11.9165 561 146.339 1231.75 498.982
297 0 48.0317 12.3668 594 138.719 1232.38 498.468
298 0 49.0378 12.2966 603 141.761 1233.02 497.721
299 0 51.0368 12.442 635 145.476 1232.65 496.572
300 0 52.0898 12.0753 629 134.588 1229.78 496.42
301 0 52.0547 12.41 646 138.324 1231.25 495.481
302 0 55.0895 12.4888 688 135.327 1230.5 494.455
303 0 58.0368 12.2336 710 135.645 1232.36 493.889
304 0 60.0891 12.1986 733 132.492 1231.24 492.839
305 0 60.0324 12.36 742 133.368 1231.51 492.144
306 0 61.0311 12.6329 771 136.594 1230.93 491.728
307 0 61.0311 12.6329 771 171.591 1229.93 491.728
308 0 64.0947 12.8872 826 132.961 1231.49 489.706
309 0 69.0621 12.6263 872 131.116 1231.83 488.214
310 0 71.0515 12.6106 896 139.513 1231.31 487.503
311 0 72.0824 12.7493 919 136.545 1232.16 486.428
312 0 76.0584 12.4115 944 134.512 1233.64 485.374
313 0 76.1892 12.8627 980 131.876 1232.17 484.017
314 0 78.0989 12.9323 1010 143.65 1230.99 482.69
315 0 81.0921 12.8373 1041 137.496 1229.82 481.63
316 0 83.1847 13.1635 1095 137.889 1231.05 479.595
317 1 41.0327 11.3081 464 148.901 1230.43 501.224
318 0 43.036 11.8738 511 135.924 1229.16 500.431
319 0 43.0126 12.3685 532 145.09 1230.34 499.737
320 0 45.0258 12.2152 550 141.849 1232.21 499.675
321 0 47.0403 11.4157 537 146.246 1230.77 498.765
322 0 49.0507 11.5798 568 144.169 1231.67 497.951
323 0 50.0684 11.9437 598 145.985 1231.07 497.396
324 0 52.0668 11.6773 608 141.349 1231.76 496.824
325 0 52.0148 12.1504 632 146.546 1231.7 496.296
326 0 52.0148 12.1504 632 172.237 1230.7 496.296
327 0 55.0912 12.089 666 145.485 1232.69 494.191
328 0 55.0565 12.6052 694 144.053 1231.46 493.532
329 0 58.042 12.0775 701 148.582 1231.41 492.705
330 0 58.0392 12.5949 731 149.43 1231.22 491.222
331 0 62.078 12.1299 753 145.422 1230.92 490.595
332 0 64.0305 11.9006 762 145.669 1230.37 489.79
333 0 66.0691 12.3356 815 145.453 1230.2 488.934
334 0 69.0572 12.0335 831 150.29 1231.01 487.106
335 0 72.1228 11.7993 851 140.783 1231.96 485.362
336 0 74.1244 11.8584 879 145.323 1233.64 484.671
337 0 76.0684 11.9892 912 145.252 1233 482.6
338 1 40.0386 10.3151 413 149.743 1232.32 500.799
339 0 41.0495 11.0842 455 148.114 1233.89 499.934
340 0 43.1267 11.0604 477 149.87 1230.42 498.964
341 0 43.0355 11.6183 500 141.284 1232.38 498.792
342 0 45.0507 11.1652 503 144.382 1232 498.841
343 0 47.1311 11.415 538 144.23 1231.5 497.428
344 0 49.0792 10.86 533 146.098 1231.63 497.242
345 0 49.0988 11.2834 554 148.211 1232.64 496.247
346 0 50.0544 11.6473 583 138.021 1232.71 495.782
347 0 50.0507 12.0078 601 144.313 1231.33 495.403
348 0 54.0503 11.5078 622 145.928 1230.65 493.505
349 0 55.0543 11.6794 643 144.812 1232 493.233
350 0 57.0418 11.6932 667 143.088 1232.19 492.498
351 0 59.1297 11.8215 699 138.754 1233 491.006
352 0 60.1067 12.012 722 140.605 1231.46 490.262
353 0 61.0737 12.0183 734 139.166 1232.3 489.041
354 0 64.0521 11.3345 726 143.762 1229.94 488.627
355 0 66.0454 11.6587 770 144.996 1230.9 487.63
356 0 70.0621 11.8609 831 130.042 1231.55 485.661
357 1 37.0364 10.5842 392 143.934 1230.33 501.526
358 0 37.0519 11.3624 421 133.363 1231.79 500.482
359 0 38.0784 11.2662 429 140.697 1232.94 500.578
360 0 38.0234 11.5718 440 136.011 1231.69 499.802
361 0 40.05 11.6355 466 142.124 1232.97 499.189
362 0 42.0299 11.4442 481 145.765 1231.49 498.351
363 0 43.0879 11.9059 513 140.77 1231.53 497.571
364 0 45.0573 11.5187 519 145.062 1232.06 496.744
365 0 47.0511 11.5619 544 137.998 1230.91 495.761
366 0 48.0654 11.7964 567 137.578 1232.03 495.938
367 0 49.0377 11.9296 585 135.745 1231.94 494.716
368 0 52.08 12.0776 629 137.221 1231.54 494.308
369 0 52.0564 12.2367 637 140.254 1230.13 493.311
370 0 54.0497 11.8965 643 143.904 1230.9 492.667
371 0 56.0161 12.1572 681 138.445 1229.75 492.141
372 0 58.0281 11.9597 694 139.421 1231.26 491.468
373 0 60.117 12.1929 733 145.277 1231.68 489.865
374 0 61.0233 12.6018 769 137.7 1230.75 488.159
375 0 61.0233 12.6018 769 169.537 1229.75 488.159
376 0 66.0369 12.5536 829 141.568 1231.29 486.105
377 0 68.0906 12.5274 853 138.477 1229.62 485.648
378 0 69.0829 12.6804 876 137.193 1232.12 483.696
379 0 73.0481 12.5808 919 144.424 1231.32 483.266
380 0 75.0943 12.7573 958 144.795 1232.82 481.818
381 0 78.1042 12.4961 976 145.758 1232.59 480.274
382 0 80.0571 12.591 1008 145.367 1230.95 478.535
383 1 44.0099 11.202 493 146.68 1230.59 497.061
384 0 46.0492 11.4877 529 146.563 1229.98 496
385 0 46.0492 11.4877 529 167.73 1228.98 496
386 0 48.0339 12.2205 587 139.181 1231.12 495.014
387 0 50.0393 11.8307 592 143.108 1230.21 494.215
388 0 51.0495 12.3018 628 137.107 1232.24 492.839
389 0 53.0581 12.4769 662 141.927 1229.86 492.653
390 0 55.1039 11.9774 660 139.93 1231.88 491.558
391 0 57.0538 12.199 696 141.303 1231.11 491.036
392 0 59.0825 12.1694 719 137.95 1231.47 489.983
393 0 61.0553 12.1693 743 146.868 1232.52 489.171
394 0 60.1388 12.6208 759 145.436 1232.88 488.891
395 0 64.0701 12.3615 792 143.725 1231.72 487.456
396 0 64.0701 12.3615 792 159.141 1231.72 487.456
397 0 66.0913 12.634 835 143.731 1231.28 486.259
398 0 69.0865 12.8245 886 142.72 1231.08 484.673
399 0 70.0387 12.7786 895 140.258 1231.12 483.607
400 0 74.0415 12.3039 911 151.265 1230.71 483.316
401 0 76.1058 12.6272 961 149.398 1230.59 481.842
402 0 79.0455 12.3726 978 143.67 1230.66 480.369
403 1 39.0424 11.1929 437 145.089 1231.57 498.979
404 0 43.1081 11.274 486 147.8 1231.36 497.936
405 0 43.0528 11.4278 492 150.366 1232.03 498.492
406 0 44.0489 11.8505 522 146.23 1232.55 496.306
407 0 47.134 12.1568 573 141.27 1231.09 496.443
408 0 49.0704 11.8401 581 140.75 1232.9 495.978
409 0 50.0678 11.9638 599 143.341 1233.79 495.618
410 0 52.1437 11.9286 622 143.01 1232.88 494.539
411 0 52.1029 12.2066 636 141.308 1230.83 493.569
412 0 55.036 12.4101 683 140.843 1230.58 492.846
413 0 57.0434 12.1837 695 134.593 1232.11 492.981
414 0 56.0443 13.3823 750 136.789 1231.34 492.504
415 0 60.053 12.7554 766 136.953 1231.8 491.479
416 0 61.1284 12.2365 748 138.666 1231.25 490.524
417 0 64.1579 13.0459 837 136.455 1230.66 489.624
418 0 66.1647 12.8316 849 137.841 1231.05 488.715
419 0 68.0366 13.2429 901 133.782 1231.89 488.039
420 0 70.0545 13.4038 939 136.455 1230.46 486.787
421 0 72.1407 13.4044 967 139.26 1231.39 485.352
422 0 74.0644 13.2587 982 143.113 1230.94 485.04
423 0 77.0602 13.4959 1040 138.754 1231.55 483.688
424 0 81.1776 13.0455 1059 138.913 1231.88 481.706
425 0 82.0542 13.2473 1087 146.215 1229.58 480.872
426 0 87.0393 13.086 1139 134.053 1229.69 479.182
427 0 89.0855 13.2569 1181 138.996 1231.73 477.853
428 0 93.2776 13.1007 1222 140.777 1231.04 475.966
429 0 97.1795 13.2332 1286 138.111 1230.03 473.69
430 0 101.135 12.7651 1291 134.848 1230.33 472.349
431 0 0 0 0 -nan -nan -nan
432 1 53.0942 12.8451 682 128.172 1229.4 494.663
433 0 55.0348 12.9009 710 127.501 1229.97 493.876
434 0 56.074 12.7688 716 131.36 1231.38 492.296
435 0 58.0579 12.5047 726 134.669 1230.92 491.977
436 0 59.1251 12.8034 757 133.835 1230.83 490.993
437 0 63.0718 12.5571 792 136.703 1230.38 489.712
438 0 64.0656 13.0491 836 131.972 1230.47 487.968
439 0 67.0941 12.7731 857 130.572 1231.9 486.91
440 0 69.1611 12.8251 887 129.486 1231.79 485.776
441 0 71.1241 12.8648 915 125.868 1231.89 484.481
442 0 72.2024 13.0744 944 128.414 1233.75 483.561
443 0 76.1021 12.7986 974 135.915 1232.63 482.427
444 0 80.0674 12.8142 1026 132.545 1233.42 480.724
445 0 82.0614 12.7222 1044 137.09 1231.97 479.127
446 1 43.0566 10.6836 460 139.963 1232.74 498.309
447 0 44.0159 11.4958 506 141.555 1231.92 497.496
448 0 46.088 11.7167 540 145.552 1232.84 497.009
449 0 48.0659 12.2332 588 136.357 1231.56 496.131
450 0 50.0707 12.5223 627 142.935 1231.66 495.372
451 0 50.0738 12.7412 638 139.232 1232.55 494.77
452 0 53.058 12.59 668 139.398 1231.79 493.675
453 0 55.075 12.3831 682 140.204 1234.19 493.768
454 0 56.0725 12.8405 720 143.246 1231.03 492.297
455 0 55.0436 13.0624 719 142.316 1232.65 492.242
456 0 58.0395 12.7844 742 140.086 1232.52 491.016
457 0 61.1508 13.0006 795 142.652 1232.23 489.825
458 0 62.0409 12.6691 786 142.924 1232.82 488.861
459 0 63.1194 12.9913 820 145.173 1232.06 487.641
460 0 67.0365 12.8736 863 135.377 1231.41 486.475
461 0 69.0346 13.2542 915 138.459 1231.23 485.879
462 0 68.1827 13.5812 926 142.93 1231.56 485.016
463 0 74.0494 13.0318 965 142.052 1231.56 483.942
464 0 76.1271 13.2804 1011 140.169 1232.53 482.243
465 0 79.08 13.088 1035 142.887 1232.48 481.561
466 0 80.0905 13.4098 1074 136.27 1232.02 480.38
467 0 84.1277 13.4082 1128 137.894 1233.2 478.306
468 0 87.149 13.1499 1146 140.132 1232.4 476.956
469 0 91.1038 13.1169 1195 138.549 1232.11 475.474
470 0 93.1178 13.5098 1258 136.677 1233.43 473.479
471 0 96.0731 13.1671 1265 139.206 1232.51 472.242
472 0 99.3063 13.0103 1292 132.646 1232.22 470.854
473 0 100.162 13.6978 1372 134.708 1232.38 469.447
474 0 105.052 13.6027 1429 137.334 1234.41 468.349
475 0 107.114 13.5464 1451 141.186 1232.11 466.912
476 0 110.203 13.6384 1503 135.065 1231.14 465.353
477 1 61.0593 12.3323 753 138.811 1232.3 489.946
478 0 61.0634 12.659 773 139.812 1232.74 488.336
479 0 63.1506 12.1456 767 143.977 1230.88 488.352
480 0 67.03 12.666 849 138.841 1231.61 486.631
481 0 69.0498 12.1796 841 145.036 1230.35 485.747
482 0 71.0309 12.572 893 146.557 1231.98 485.31
483 0 75.0264 12.6489 949 142.936 1232.7 483.246
484 0 77.0831 12.7784 985 142.344 1231.73 481.677
485 0 79.1869 12.7041 1006 141.582 1231.28 479.764
486 0 81.1195 12.6973 1030 147.159 1231.24 478.867
487 0 84.196 12.6491 1065 146.967 1230.26 478.177
488 1 43.0217 11.7383 505 152.657 1232.25 498.044
489 0 44.0245 12.1069 533 152.191 1230.12 497.229
490 0 46.0428 12.4232 572 151.551 1232.85 496.016
491 0 49.0314 11.9719 587 141.62 1230.86 495.128
492 0 48.0466 12.3006 591 153.037 1231.41 494.861
493 0 50.0135 12.3567 618 147.589 1231.73 494.887
494 0 51.0347 12.5209 639 147.038 1231.31 493.952
495 0 53.0324 12.3698 656 150.238 1231.79 493.218
496 0 56.0209 11.8884 666 148.182 1230.68 492.902
497 0 55.0543 12.3514 680 143.881 1231.14 491.766
498 0 58.0113 12.3079 714 144.162 1231.69 490.661
499 0 60.0456 12.2407 735 146.509 1231.2 490.582
500 0 62.0527 12.4572 773 146.331 1232.43 488.845
501 0 63.0616 12.6226 796 144.977 1231.91 488.636
502 0 66.0241 12.6015 832 142.458 1230.02 486.636
503 0 68.061 12.4594 848 145.18 1232.2 486.136
504 0 70.0622 12.1892 854 151.573 1231.17 484.765
505 0 74.0693 12.3398 914 150.047 1230.36 483.562
506 0 74.0693 12.3398 914 177.556 1229.36 483.562
507 0 78.0651 12.2462 956 145.418 1229.79 481.388
508 1 41.0136 11.3865 467 146.786 1230.72 499.064
509 0 43.0467 11.5688 498 150.488 1231.27 496.942
510 0 44.0196 11.4722 505 138.253 1230.93 497.699
511 0 46.0773 11.6109 535 146.733 1230.02 496.695
512 0 48.0391 11.8237 568 148.412 1230.99 495.06
513 0 50.1074 11.8745 595 148.906 1230.45 494.319
514 0 50.1033 12.2547 614 138.016 1230.4 494.024
515 0 53.1295 12.1213 644 143.073 1232.89 493.006
516 0 53.0449 12.1595 645 147.147 1231.53 492.416
517 0 55.0376 12.3915 682 141.579 1231.8 491.176
518 0 57.0692 12.038 687 144.661 1231.07 491.095
519 0 59.0827 12.491 738 146.317 1230.09 489.073
520 0 60.0845 12.8153 770 145.786 1230.82 487.879
521 0 63.0664 12.7326 803 141.158 1233.21 487.45
522 0 63.0561 12.8298 809 143.522 1231.81 487.047
523 0 67.2344 12.7465 857 141.403 1230.72 485.4
524 0 67.0522 13.0943 878 144.23 1230.76 484.604
525 0 70.1568 12.7144 892 142.535 1231.23 483.987
526 0 72.0856 13.1926 951 137.368 1231.4 482.511
527 0 75.1546 12.7205 956 139.387 1230.34 482.273
528 0 79.1237 12.9418 1024 139.284 1232.9 479.909
529 0 81.1582 13.1718 1069 140.489 1230.65 478.991
530 0 86.1122 12.5998 1085 142.913 1232.02 477.547
531 0 88.073 12.9665 1142 141.652 1232.01 476.119
532 1 46.0797 11.9142 549 141.519 1231.65 496.945
533 0 48.0525 12.0285 578 143.002 1231.1 496.09
534 0 50.0903 12.5573 629 141.162 1229.79 494.372
535 0 53.1632 12.2829 653 140.966 1229.92 494.505
536 0 53.144 12.7013 675 144.48 1230.44 493.55
537 0 57.1692 12.6467 723 141.42 1230.36 492.932
538 0 58.0955 12.5827 731 136.323 1228.95 491.609
539 0 58.1018 13.0116 756 142.795 1229.19 491.192
540 0 61.1844 12.9118 790 143.611 1231.53 490.491
541 0 62.152 13.1935 820 137.934 1231.52 489.654
542 0 65.1082 12.8862 839 139.442 1232.57 488.299
543 0 66.0548 13.0952 865 141.721 1232.51 487.694
544 0 68.141 13.1492 896 142.977 1231.58 486.873
545 0 70.0753 12.9718 909 142.118 1232.04 485.994
546 0 72.0984 13.0516 941 134.403 1231.6 484.854
547 0 75.1627 13.1581 989 139.649 1230.77 483.724
548 0 75.1627 13.1581 989 171.705 1229.77 483.724
549 0 80.1292 13.3534 1070 135.596 1230.41 481.088
550 0 83.135 12.8827 1071 141.95 1230.19 479.743
551 0 87.0973 13.2725 1156 135.383 1230.52 477.888
552 1 42.0817 11.5014 484 146.647 1229.67 499.43
553 0 43.0353 12.362 532 141.079 1231.54 498.692
554 0 45.0348 12.568 566 135.97 1231.74 497.928
555 0 46.0384 12.6633 583 141.554 1231.97 497.571
556 0 45.0301 12.9025 581 144.635 1232.35 497.033
557 0 48.0626 12.6086 606 146.749 1232.23 496.733
558 0 49.022 12.6066 618 147.663 1233.07 495.971
559 0 51.0437 12.8517 656 143.857 1231.64 494.985
560 0 52.0648 12.8302 668 146.03 1231.72 494.573
561 0 54.2128 12.5801 682 147.081 1230.96 493.743
562 0 54.0425 12.9343 699 145.764 1230.89 492.944
563 0 58.1376 12.6424 735 136.356 1232.41 491.629
564 0 58.0356 13.285 771 144.566 1232.08 491.012
565 0 59.0668 13.4255 793 145.521 1230.86 490.552
566 0 62.0873 12.8046 795 146.848 1231.4 489.801
567 0 63.0424 13.0706 824 143.47 1231.63 488.791
568 0 65.0448 13.0372 848 146.887 1230.57 487.034
569 0 67.0987 13.2044 886 141.38 1231.46 485.912
570 0 69.1302 13.0623 903 140.39 1231.54 485.434
571 0 72.0792 12.6111 909 147.164 1231.63 483.429
572 0 74.1108 12.9131 957 140.088 1230.99 482.307
573 1 40.1189 11.0173 442 142.876 1231.56 500.262
574 0 40.027 11.792 472 146.193 1229.54 499.288
575 0 42.0378 11.9179 501 137.561 1229.87 498.196
576 0 44.0405 11.8981 524 139.124 1230.95 497.781
577 0 43.067 12.5386 540 144.519 1230.78 497.333
578 0 47.1468 12.5141 590 141.724 1230.73 495.729
579 0 47.1001 12.5902 593 141.927 1230.59 495.368
580 0 48.0537 12.9438 622 142.101 1231.17 494.053
581 0 51.0593 12.4365 635 140.82 1231.84 493.546
582 0 52.0638 12.6383 658 136.874 1230.86 492.891
583 0 55.0552 11.879 654 141.546 1229.6 492.399
584 0 55.0552 11.879 654 166.783 1227.6 492.399
585 0 59.0962 12.3697 731 139.194 1231.52 489.346
586 0 61.1256 12.5316 766 131.957 1230.59 488.193
587 0 63.1388 12.3537 780 132.477 1230.63 487.208
588 0 62.1304 12.8439 798 134.459 1230.27 486.194
589 0 66.1163 12.6141 834 132.302 1228.62 484.164
590 0 69.145 13.0161 900 126.784 1230.07 483.082
591 0 72.1033 12.8843 929 122.882 1229.03 481.629
592 1 38.0881 11.2634 429 126.949 1230.23 498.005
593 0 39.1032 11.5336 451 131.479 1230.01 497.645
594 0 41.0224 12.1397 498 126.112 1230.83 496.229
595 0 43.0443 11.9644 515 123.944 1230.91 495.33
596 0 44.0771 12.2966 542 122.651 1230.19 495
597 0 45.0574 11.9847 540 121.48 1230.86 494.498
598 0 46.0568 12.2457 564 124.518 1231.44 493.83
599 0 47.0776 12.3201 580 127.345 1231.76 492.74
600 0 49.0854 12.5088 614 125.894 1229.94 492.047
601 0 51.2344 12.7258 652 125.739 1232.03 490.736
602 0 52.1043 12.5134 652 130.719 1233.34 490.411
603 0 53.0383 12.7644 677 130.016 1232.39 490.05
604 0 56.1471 12.3604 694 131.646 1232.05 488.702
605 0 58.1325 12.5231 728 124.14 1231.02 487.408
606 0 60.095 12.63 759 128.769 1231.98 486.207
607 0 63.1122 12.7234 803 122.856 1231.9 485.245
608 0 66.0978 12.6177 834 120.393 1233.92 484.032
609 0 66.0626 12.7606 843 123.878 1233.31 483.412
610 0 68.1011 12.7017 865 127.906 1231.73 482.082
611 0 73.138 12.5243 916 127.041 1231.62 480.68
612 0 75.1234 12.2865 923 127.26 1232.25 479.819
613 0 77.0557 12.5494 967 125.127 1230.29 478.716
614 1 38.017 11.0214 419 130.255 1230.81 497.325
615 0 39.024 11.8901 464 127.095 1230.18 496.552
616 0 41.0145 11.7519 482 129.154 1230.66 495.797
617 0 41.0228 12.0908 496 127.931 1231.61 495.121
618 0 44.0998 12.0409 531 130.492 1231.39 493.996
619 0 45.0461 12.4317 560 123.289 1230.95 493.993
620 0 46.0141 12.2571 564 132.931 1231.41 493.622
621 0 48.0181 11.9955 576 130.186 1231.24 492.391
622 0 48.0247 12.202 586 137.131 1229.85 492.705
623 0 50.015 12.2363 612 135.482 1232.13 491.557
624 0 53.0357 11.9542 634 139.035 1230.34 490.817
625 0 55.0302 12.3932 682 134.257 1231.22 490.607
626 0 55.0216 12.3043 677 141.442 1232.16 489.721
627 0 57.0332 12.7119 725 135.665 1232.7 488.8
628 0 59.0261 12.5538 741 138.059 1233.43 487.39
629 0 61.0715 12.4935 763 134.465 1232.54 486.604
630 0 62.0281 12.8329 796 139.548 1233.48 485.775
631 0 64.0402 12.336 790 141.495 1234.4 485.922
632 0 65.1253 12.9289 842 143.242 1232.62 484.42
633 0 69.0522 12.5992 870 139.405 1232.04 482.625
634 0 72.1258 12.7 916 145.545 1231.69 481.793
635 0 73.0644 12.7285 930 141.651 1231.3 480.657
636 0 76.223 12.6996 968 146.399 1232.55 479.216
637 0 78.0873 12.7293 994 149.685 1231.87 477.82
638 1 40.0491 11.2112 449 147.408 1231.72 497.601
639 0 39.0293 11.7348 458 142.236 1229.96 497.434
640 0 42.0515 11.367 478 144.305 1231.04 496.201
641 0 43.1234 11.7801 508 144.289 1231.57 495.789
642 0 45.0296 11.8144 532 147.4 1232.56 495.049
643 0 45.0229 11.6163 523 144.912 1232.34 494.767
644 0 47.0742 12.1085 570 142.514 1233.62 493.632
645 0 47.0336 12.2466 576 143.278 1231.92 493.797
646 0 49.016 11.7513 576 147.087 1232.25 493.625
647 0 51.0385 12.0301 614 147.52 1231.55 492.946
648 0 53.056 12.27 651 148.705 1232.29 491.028
649 0 55.0994 12.0147 662 144.051 1233.61 491.305
650 0 55.1193 12.355 681 148.044 1232.08 490.407
651 0 58.0423 12.2497 711 147.35 1231.69 489.909
652 0 59.0726 12.3238 728 145.955 1233.34 488.444
653 0 59.2052 12.8705 762 139.487 1232.07 488.077
654 0 63.0801 12.1433 766 145.548 1231.83 486.922
655 0 65.0571 12.1739 792 135.313 1231.45 486.194
656 0 66.0508 12.339 815 137.188 1232.7 485.845
657 0 71.0396 12.0637 857 135.656 1232.03 484.291
658 1 37.0864 11.244 417 137.177 1233.73 500.978
659 0 37.012 11.6449 431 139.095 1234.15 500.784
660 0 39.0196 11.6608 455 132.04 1232.54 499.829
661 0 40.0089 11.6474 466 130.82 1232.45 499.659
662 0 41.068 11.4688 471 134.539 1231.63 499.2
663 0 43.0426 11.6861 503 131.69 1233.55 498.928
664 0 42.1072 12.1832 513 126.203 1231.45 498.023
665 0 44.0499 11.941 526 122.941 1232.33 497.565
666 0 46.0761 11.9585 551 125.615 1233.54 497.314
667 0 48.0298 12.0134 577 130.321 1231.92 496.345
668 0 47.04 12.1599 572 133.219 1232.96 496.295
669 0 50.0436 11.7897 590 134.898 1230.69 495.636
670 0 51.0449 11.7935 602 131.193 1232.79 494.977
671 0 52.0963 12.3617 644 132.984 1232.08 494.365
672 0 54.0776 12.2417 662 133.322 1232.55 493.591
673 0 56.1074 12.4582 699 128.169 1232.71 492.625
674 0 57.0521 12.7077 725 136.455 1233.39 491.926
675 0 60.1288 12.8724 774 137.279 1232.46 490.965
676 0 62.1669 12.6112 784 133.955 1232.07 490.24
677 0 64.122 12.9441 830 134.865 1231.55 488.959
678 0 65.0596 12.7422 829 137.381 1231.32 487.575
679 0 69.0512 12.7007 877 136.9 1230.39 486.387
680 0 72.0493 12.7552 919 141.499 1231.25 485.044
681 0 75.0934 12.9439 972 138.262 1231.12 484.276
682 0 75.0934 12.9439 972 177.689 1230.12 484.276
683 0 81.0644 12.4716 1011 140.948 1231.59 480.911
684 1 41.0335 12.0146 493 138.671 1231.24 498.787
685 0 44.0222 11.7668 518 143.405 1231.14 498.185
686 0 43.0137 12.5774 541 139.606 1233.43 497.786
687 0 43.0137 12.5774 541 176.142 1235.43 497.786
688 0 47.0308 12.141 571 144.254 1232.57 496.215
689 0 50.0259 12.2736 614 145.884 1234.01 495.329
690 0 51.0373 12.1284 619 150.15 1233.84 494.672
691 0 53.1291 12.4226 660 141.58 1232.61 493.614
692 0 54.0852 12.7577 690 144.857 1231.63 492.722
693 0 56.1115 12.5465 704 147.594 1231.63 491.487
694 0 58.0192 12.6854 736 145.557 1229.72 490.659
695 0 59.0516 12.8024 756 143.619 1230.93 489.991
696 0 61.0926 12.8002 782 148.165 1231.98 488.272
697 0 62.0303 12.9775 805 146.629 1231.86 487.847
698 0 64.033 13.0402 835 145.927 1231.36 486.32
699 0 67.1218 12.7231 854 151.585 1231.44 485.258
700 0 67.0996 13.2341 888 147.519 1231.83 484.362
701 0 72.0749 12.9587 934 146.475 1232.24 483.077
702 0 73.1052 13.1865 964 143.978 1233.78 481.452
703 0 78.0438 12.8133 1000 147.531 1233.49 480.461
704 0 80.0901 12.5484 1005 142.875 1232.74 478.837
705 0 83.1218 12.7283 1058 146.3 1231.47 477.025
706 1 46.093 11.3032 521 144.95 1231.98 495.098
707 0 46.0785 11.6757 538 140.996 1232.83 494.268
708 0 50.0267 11.3939 570 142.411 1229.45 493.263
709 0 50.1152 11.6931 586 145.37 1231.88 492.985
710 0 51.0488 11.6947 597 149.204 1232.1 492.221
711 0 54.1251 11.7506 636 148.459 1231.74 491.681
712 0 54.0664 12.1887 659 150.199 1232.3 490.727
713 0 56.059 11.9695 671 117.595 1233.22 489.623
714 0 56.0628 11.9152 668 154.213 1233.39 489.615
715 0 59.0667 11.8679 701 151.595 1232.85 487.923
716 0 61.071 12.2972 751 139.354 1232.42 487.527
717 0 62.0808 12.5804 781 147.736 1233.61 486.488
718 0 64.0796 12.2036 782 147.233 1231.74 485.664
719 0 66.0308 12.7819 844 149.917 1230.58 484.696
720 0 67.0487 12.3791 830 148.564 1230.35 483.999
721 0 72.1099 12.1759 878 155.711 1232.04 481.692
722 0 76.0264 12.5483 954 141.413 1232.27 480.198
723 0 80.1796 12.4096 995 152.526 1232 478.844
724 0 82.1198 12.4939 1026 146.968 1231.47 478.325
725 0 83.0521 12.3657 1027 148.086 1230.59 476.94
726 0 87.1236 12.6028 1098 150.646 1232.08 474.727
727 0 93.1056 12.2871 1144 147.593 1230.76 472.705
728 0 95.1432 12.4759 1187 149.388 1231.14 470.722
729 0 99.0912 12.544 1243 142.897 1231.26 469.113
730 0 101.097 12.6512 1279 136.782 1231.22 468.445
731 1 57.0952 11.98 684 146.947 1233.03 489.213
732 0 57.0461 12.2708 700 141.847 1230.91 488.299
733 0 60.1737 12.3642 744 147.806 1231.4 487.231
734 0 62.0773 12.71 789 140.398 1231.93 486.302
735 0 64.0398 12.5235 802 140.671 1231.5 484.946
736 0 66.0365 12.5234 827 137.181 1231.1 483.566
737 0 67.0441 12.7528 855 138.975 1232.49 482.924
738 0 71.0438 12.9498 920 123.868 1229.75 480.94
739 0 75.0601 12.6565 950 132.516 1230.66 479.531
740 0 76.045 12.7424 969 131.899 1232.23 478.628
741 0 79.1088 12.8936 1020 132.373 1230.93 476.65
742 0 84.0759 12.798 1076 129.984 1231.65 475.145
743 0 86.0835 12.9642 1116 126.906 1232.79 473.034
744 0 89.0517 13.1497 1171 122.629 1230.03 472.128
745 1 46.0521 11.8561 546 124.982 1231.65 493
746 0 47.0208 12.2924 578 128.163 1230.01 492.107
747 0 45.0256 13.0815 589 124.163 1231.85 492.306
748 0 50.0068 12.1184 606 131.221 1231.28 491.381
749 0 50.0597 12.6049 631 132.033 1230.39 491.071
750 0 51.083 12.9593 662 129.653 1231.42 490.282
751 0 51.083 12.9593 662 172.793 1232.42 490.282
752 0 56.0388 12.42 696 126.162 1230.89 488.376
753 0 57.0548 12.637 721 131.354 1229.6 487.546
754 0 59.0508 12.4638 736 128.812 1231.4 486.384
755 0 60.116 12.6256 759 127.383 1232.72 485.847
756 0 61.0759 12.8201 783 122.649 1229.24 484.614
757 0 62.0711 13.0818 812 124.651 1231.39 484.057
758 0 63.0272 12.9309 815 121.6 1231.54 483.633
759 0 69.0806 12.29 849 121.367 1232.17 481.796
760 0 69.0903 12.8238 886 121.194 1231.94 480.57
761 0 72.0821 12.4164 895 122.284 1232.18 479.89
762 0 76.0246 12.759 970 114.934 1230.64 478.087
763 0 75.0819 12.6262 948 112.978 1230.75 476.942
764 0 80.0224 12.4465 996 114.839 1228.93 475.727
765 0 83.0358 12.4404 1033 116.477 1229.79 474.538
766 0 87.0744 12.4147 1081 115.204 1229.36 472.513
767 1 42.1008 11.1637 470 116.883 1229.98 493.274
768 0 44.0308 10.9469 482 115.409 1231.24 493.309
769 0 45.0646 12.005 541 118.908 1230.97 492.468
770 0 47.0259 11.8445 557 121.386 1229.91 491.831
771 0 48.0814 12.4164 597 123.147 1230.72 489.99
772 0 51.099 12.1724 622 126.74 1230.32 489.785
773 0 52.0503 12.5263 652 125.64 1230.33 489.043
774 0 53.0532 12.5157 664 126.355 1231.28 488.202
775 0 57.0452 12.3937 707 127.571 1230.02 487.325
776 0 58.0643 12.1589 706 125.683 1229.05 486.533
777 0 60.1095 12.7101 764 122.806 1229.82 485.648
778 0 64.046 12.2412 784 125.055 1229.74 484.514
779 0 66.0483 12.2637 810 124.722 1230.49 483.22
780 0 67.0772 12.5974 845 122.059 1227.33 482.154
781 0 69.081 12.7966 884 115.258 1228.34 480.952
782 0 74.0339 12.5888 932 119.967 1227.77 479.558
783 0 76.0394 12.2963 935 122.976 1230.09 478.57
784 0 77.0814 12.4414 959 125.199 1229.32 477.481
785 0 82.1467 12.0638 991 123.105 1228.06 475.892
786 1 41.0162 10.7762 442 123.993 1231.22 496.097
787 0 43.0412 11.4541 493 122.126 1232.76 494.832
788 0 45.0669 11.7825 531 126.606 1230.18 494.075
789 0 47.0447 11.691 550 124.475 1230.21 492.96
790 0 47.0422 11.7979 555 128.467 1232 493.09
791 0 48.0151 12.2462 588 124.003 1231.3 492.764
792 0 49.0565 12.6181 619 132.032 1231.39 491.845
793 0 52.048 12.0466 627 132.416 1230.95 491.092
794 0 52.1235 12.3553 644 136.658 1230.34 491.019
795 0 55.0586 12.0962 666 135.14 1230.18 490.877
796 0 57.0628 12.162 694 138.722 1231.12 489.412
797 0 58.1008 12.857 747 131.485 1230.65 489.024
798 0 60.1502 12.635 760 130.386 1230.3 488.175
799 0 61.0266 12.8141 782 132.279 1231.1 487.717
800 0 64.1022 12.2773 787 136.576 1232.28 487.083
801 0 66.0404 12.5378 828 130.25 1230.61 486.042
802 0 68.0934 12.2626 835 133.636 1230.77 485.153
803 0 70.0432 12.5779 881 130.952 1232.37 483.603
804 0 71.0313 12.7972 909 132.646 1230.51 483.155
805 0 74.0668 12.4212 920 136.74 1229.15 482.433
806 0 77.0415 12.993 1001 134.152 1229.22 480.702
807 0 79.0601 12.9016 1020 130.047 1228.68 479.518
808 0 80.0647 13.0395 1044 135.716 1228.76 478.555
809 0 85.0441 12.323 1048 129.742 1228.37 477.922
810 0 86.0302 13.0071 1119 133.999 1228.93 476.729
811 0 89.0305 12.7147 1132 136.451 1230.71 476.424
812 0 90.1111 13.1948 1189 135.244 1229.95 475.087
813 0 94.1085 12.9425 1218 138.099 1229.39 473.906
814 1 50.0435 12.4292 622 143.952 1230.46 495.183
815 0 52.0799 12.2312 637 143.209 1230.48 494.367
816 0 53.0476 12.4982 663 144.454 1230.37 493.36
817 0 55.0888 12.9972 716 146.2 1229.98 492.689
818 0 55.0286 12.7207 700 144.884 1229.02 492.229
819 0 59.0493 12.3456 729 140.684 1229.97 491.255
820 0 61.0355 12.7303 777 146.672 1231.14 490.19
821 0 63.0544 12.9253 815 139.521 1229.77 488.58
822 0 66.05 12.8842 851 135.199 1231.34 487.825
823 0 67.0578 13.0186 873 133.045 1229.62 486.769
824 0 69.07 12.7407 880 141.666 1230.95 485.986
825 0 72.0404 12.8955 929 139.315 1230.68 483.966
826 0 74.0752 12.9463 959 141.818 1231.71 482.697
827 0 78.0474 12.7743 997 136.325 1232.02 480.984
828 0 80.0341 13.0319 1043 134.988 1231.43 479.738
829 0 81.1133 13.1298 1065 138.935 1231.08 478.674
830 0 84.1116 12.8163 1078 135.629 1232.22 476.948
831 0 87.0452 12.9243 1125 139.932 1233.55 475.235
832 0 92.0342 12.4736 1148 141.57 1232.22 474.013
833 0 96.0889 12.9047 1240 138.896 1231.08 471.432
834 0 98.0686 12.787 1254 138.18 1231 470.684
835 1 51.117 12.2073 624 143.657 1231.47 492.096
836 0 52.0558 12.6595 659 145.587 1232.48 491.285
837 0 54.0397 12.2503 662 141.835 1231.53 490.243
838 0 56.0537 12.2204 685 142.978 1231.85 489.269
839 0 58.0501 12.248 711 146.761 1231.28 488.505
840 0 60.0637 12.3369 741 140.826 1231.31 487.684
841 0 61.1444 12.7567 780 134.717 1232.41 486.267
842 0 64.1062 12.1361 778 139.265 1232.66 484.765
843 0 66.1082 12.177 805 134.863 1232.3 483.796
844 0 67.0191 12.295 824 133.449 1233.06 482.201
845 0 71.0456 12.1049 860 133.847 1231.76 480.546
846 0 75.0704 12.2418 919 128.255 1231.59 478.342
847 0 76.0518 12.2022 928 133.058 1230.82 477.878
848 1 39.0247 9.68618 378 132.558 1229.68 495.418
849 0 39.0542 10.3958 406 134.222 1231.18 495.313
850 0 43.0185 10.4374 449 129.528 1231.43 493.559
851 0 43.0366 11.2927 486 121.858 1231.88 493.432
852 0 45.0592 11.1631 503 122.08 1231.06 491.992
853 0 46.0864 11.7388 541 124.654 1232.81 491.336
854 0 47.0522 12.0717 568 122.431 1231.41 490.005
855 0 50.0811 11.4814 575 128.758 1230.91 489.19
856 0 52.075 11.7139 610 123.403 1231.23 488.023
857 0 54.0471 11.564 625 123.253 1230.89 487.123
858 0 56.062 11.2554 631 128.074 1230.16 486.063
859 0 57.0513 11.6912 667 126.706 1230.59 484.745
860 0 59.1592 11.8325 700 126.684 1230.99 483.093
861 0 61.0731 12.0184 734 123.866 1229.63 482.072
862 0 60.0448 12.4407 747 117.838 1230.18 481.608
863 0 64.0479 12.4438 797 121.231 1229.25 479.422
864 0 67.0309 12.1735 816 116.928 1230.04 478.776
865 0 68.0723 12.2958 837 111.286 1229.8 476.994
866 0 73.0648 13.098 957 117.939 1230.29 477.78
867 0 77.0641 12.522 965 115.053 1229.15 476.484
868 0 79.1187 12.7277 1007 116.285 1230.32 475.35
869 0 81.0787 13.0984 1062 117.255 1232.31 473.843
870 0 84.0988 12.9728 1091 112.408 1230.36 472.367
871 0 88.0789 12.9202 1138 116.617 1230.42 470.861
872 0 92.0774 13.0325 1200 116.982 1228.87 468.492
873 1 47.057 11.4542 539 115.147 1230.37 491.594
874 0 48.111 11.9307 574 115.997 1231.05 490.085
875 0 47.1088 12.1209 571 116.954 1230.56 490.061
876 0 51.1316 12.2234 625 123.053 1231.53 489.664
877 0 52.1456 12.3117 642 126.221 1230.81 488.447
878 0 53.1212 12.1232 644 130.262 1229.55 487.991
879 0 56.0631 12.5394 703 123.213 1230.33 487.095
880 0 57.0896 12.5242 715 128.292 1229.62 485.906
881 0 59.0896 12.7264 752 125.996 1230.99 484.951
882 0 61.1451 12.5603 768 128.746 1231.85 483.703
883 0 61.1458 13.1489 804 125.68 1230.94 482.988
884 0 63.1198 13.3397 842 125.754 1232.38 482.221
885 0 68.0875 13.3505 909 122.326 1231.94 480.287
886 0 70.1198 13.1489 922 125.712 1231.29 479.136
887 0 73.0874 13.477 985 118.612 1231.32 477.856
888 0 77.057 13.0034 1002 120.984 1230.26 477.194
889 0 79.0955 13.2498 1048 127.006 1230.31 475.332
890 0 83.0851 13.3116 1106 127.251 1230.17 473.847
891 0 84.1223 13.2664 1116 129.667 1229.61 472.745
892 1 44.0924 12.3831 546 126.791 1231.21 492.288
893 0 47.0782 12.2137 575 121.48 1230.39 490.73
894 0 50.0943 12.177 610 129.793 1230.71 490.275
895 0 51.0969 12.5448 641 126.037 1230.54 489.008
896 0 52.0662 12.5033 651 126.516 1230.37 488.677
897 0 53.1484 12.7003 675 130.834 1229.68 488.391
898 0 56.1672 12.3738 695 131.46 1229.02 486.974
899 0 58.1412 12.676 737 134.075 1231.72 486.312
900 0 58.1412 12.676 737 175.172 1233.72 486.312
901 0 60.0868 13.1144 788 134.53 1231.14 484.93
902 0 62.0614 12.8099 795 139.355 1230.21 484.57
903 0 63.1139 13.1984 833 138.02 1230.33 483.758
904 0 66.0287 12.9489 855 142.48 1229.92 482.313
905 0 68.0633 13.0761 890 136.363 1228.48 480.979
906 0 68.0633 13.0761 890 179.3 1227.48 480.979
907 0 72.0792 13.0551 941 132.736 1230.97 479.281
908 0 77.0676 13.2222 1019 136.667 1230.26 477.078
909 0 78.1095 13.3018 1039 135.475 1230.88 476.047
910 0 82.1137 13.0429 1071 136.992 1230.08 473.95
911 0 85.0792 13.0937 1114 137.908 1229.48 472.011
912 1 46.0522 11.9212 549 141.118 1230.63 491.271
913 0 49.0156 11.9758 587 141.857 1229.68 489.685
914 0 49.0812 12.3061 604 139.616 1231.01 489.49
915 0 50.0174 12.5556 628 134.139 1231.28 488.225
916 0 54.0899 12.5347 678 138.92 1232.44 487.627
917 0 54.0863 12.4616 674 142.901 1232.21 487.022
918 0 56.125 12.8463 721 140.75 1230.93 485.857
919 0 56.0595 12.897 723 137.704 1230.27 485.654
920 0 59.1191 12.5171 740 143.859 1231.21 485.732
921 0 60.0951 12.9295 777 135.97 1230.54 483.55
922 0 64.0401 12.8357 822 140.47 1230.19 482.17
923 0 65.068 12.8174 834 140.989 1230.75 481.468
924 0 67.1067 13.0538 876 145.015 1232.42 480.95
925 0 70.1096 13.1223 920 141.085 1229.99 480.012
926 0 72.1196 13.3667 964 141.478 1231.52 478.001
927 0 76.0339 13.323 1013 137.653 1232.21 476.967
928 0 76.0769 13.276 1010 141.09 1230.4 476.161
929 0 81.0986 12.8979 1046 141.406 1230.63 474.971
930 0 82.06 13.3804 1098 138.971 1230.64 473.291
931 1 42.0178 11.7807 495 142.366 1230.87 493.721
932 0 44.0313 11.9006 524 138.859 1230.34 493.418
933 0 44.0159 12.0638 531 135.403 1230.72 493.19
934 0 47.032 11.8643 558 133.618 1230.23 492.238
935 0 49.0365 11.3589 557 140.917 1230.04 491.917
936 0 50.0937 11.3787 570 139.218 1230.21 491.435
937 0 50.0705 11.9432 598 146.657 1233.23 490.64
938 0 51.0564 12.3001 628 141.373 1231.61 490.629
939 0 52.0643 12.4462 648 145.355 1233.52 489.644
940 0 55.0426 12.0271 662 143.586 1230.64 489.346
941 0 55.0829 11.9638 659 140.859 1231.05 489.121
942 0 57.0252 12.6435 721 138.458 1229.42 487.086
943 0 59.0565 12.6997 750 143.999 1229.79 486.309
944 0 61.031 12.4855 762 139.621 1229.09 485.787
945 0 64.0529 12.3023 788 141.22 1227.79 485.26
946 0 66.0461 12.0673 797 144.202 1229.37 484.654
947 0 66.0418 12.0984 799 141.234 1229.78 484.016
948 0 70.0471 11.8634 831 143.933 1229.94 482.373
949 0 72.073 12.2931 886 134.401 1230.74 481.426
950 0 73.0876 12.1772 890 145.567 1230.84 480.201
951 0 76.0965 12.2476 932 143.423 1231.82 478.758
952 0 79.069 11.686 924 144.965 1231.1 478.013
953 0 80.0571 12.0539 965 148.576 1229.69 476.658
954 1 42.0332 10.2776 432 142.31 1229.36 497.241
955 0 42.0226 11.0655 465 143.684 1230.03 496.419
956 0 43.0199 11.1809 481 143.886 1231.55 496.17
957 0 45.0157 11.3294 510 145.124 1228.63 494.916
958 0 46.0624 11.3542 523 145.816 1231.68 494.052
959 0 47.0262 11.4404 538 143.268 1230.4 493.773
960 0 50.0298 11.3532 568 145.75 1230.52 492.979
961 0 50.0577 11.6665 584 140.541 1230.06 492.14
962 0 51.0384 11.5991 592 144.834 1229.23 492.169
963 0 54.0799 11.483 621 142.43 1232.91 490.432
964 0 55.0295 11.2667 620 148.156 1230.34 490.06
965 0 58.0227 11.7713 683 144.608 1231.54 487.246
966 0 60.0621 11.5214 692 137.24 1229.28 486.412
967 0 61.0216 11.7172 715 135.731 1231.33 485.634
968 0 63.0641 11.6548 735 136.207 1230.27 484.894
969 0 65.0357 11.9627 778 134.865 1231.34 483.22
970 0 69.1247 11.906 823 131.779 1229.41 481.321
971 0 72.1014 12.2744 885 131.629 1230.61 480.467
972 1 37.0066 10.6468 394 134.569 1231.47 496.287
973 0 40.0401 10.5644 423 135.355 1231.53 495.816
974 0 42.0311 10.5398 443 136.011 1230.55 494.996
975 0 43.0519 11.1261 479 130.313 1230.54 493.422
976 0 44.0607 11.1664 492 127.215 1230.79 493.744
977 0 45.0712 10.9604 494 129.571 1230.61 493.389
978 0 46.0315 11.6442 536 124.42 1231.9 491.834
979 0 49.0515 11.4166 560 128.711 1229.98 491.143
980 0 50.026 11.7539 588 128.786 1230.38 490.758
981 0 51.038 11.6972 597 132.02 1228.69 490.139
982 0 54.0898 11.7582 636 127.524 1231.25 489.154
983 0 55.1221 11.919 657 130.883 1229.8 489.088
984 0 56.0346 11.8677 665 128.525 1229.45 488.126
985 0 58.0387 11.5268 669 130.061 1228.52 487.13
986 0 60.0692 12.2525 736 127.425 1230.99 486.387
987 0 61.0515 12.1864 744 122.528 1230.02 484.581
988 0 62.0771 11.9851 744 124.117 1230.37 484.055
989 0 66.0696 11.8814 785 129.154 1230.28 483.116
990 0 67.1021 11.937 801 125.33 1229.02 481.662
991 0 70.0528 12.1337 850 122.82 1230.82 480.829
992 0 73.036 11.8572 866 122.602 1230.78 479.663
993 0 76.0627 12.161 925 121.141 1230.18 477.145
994 0 78.0858 12.5247 978 121.151 1227.97 475.603
995 0 80.0443 12.2182 978 113.005 1228.45 474.978
996 1 44.0376 10.8544 478 116.379 1228.96 492.713
997 0 45.0459 11.3662 512 115.637 1228.62 491.721
998 0 48.0357 11.658 560 117.18 1230.51 490.586
999 0 50.0213 11.4951 575 119.057 1228.07 490.217
1000 0 52.0552 11.7952 614 118.207 1229.07 489.026
1001 0 53.0211 11.8066 626 116.609 1228.4 488.768
1002 0 55.0323 12.1565 669 124.975 1230.12 487.985
1003 0 56.041 12.0804 677 130.484 1230.01 486.573
1004 0 60.0974 11.6478 700 126.614 1231.08 486.317
1005 0 61.1307 12.1216 741 130.12 1230.16 484.773
1006 0 63.0881 12.3954 782 128.705 1231.55 483.999
1007 0 63.0872 12.3638 780 126.96 1230.12 483.799
1008 0 67.0739 12.2253 820 126.999 1230.14 481.93
1009 0 69.1025 12.7058 878 123.853 1229.4 480.605
1010 0 70.0646 12.517 877 125.804 1229.13 480.036
1011 0 72.046 12.728 917 128.574 1228.54 479.402
1012 0 74.0482 12.4784 924 126.608 1229.27 477.804
1013 0 78.0583 12.606 984 124.184 1226.66 476.386
1014 0 80.0586 12.6532 1013 129.056 1228.36 475.003
1015 0 83.0766 12.6991 1055 128.93 1229.74 473.676
1016 0 86.0792 13.2552 1141 126.254 1228.65 471.958
1017 0 89.1416 12.9457 1154 122.705 1230.14 470.851
1018 0 92.073 12.9571 1193 131.712 1229.63 470.016
1019 0 92.073 12.9571 1193 155.894 1229.63 470.016
1020 1 50.0088 11.258 563 131.751 1228.84 491.226
1021 0 50.0464 12.4085 621 137.882 1229.06 489.989
1022 0 54.0196 12.4029 670 134.219 1229.39 489.163
1023 0 55.0217 11.9589 658 136.965 1228.98 488.88
1024 0 56.0678 12.0568 676 129.885 1229.21 488.555
1025 0 59.064 12.2748 725 130.554 1228.71 487.67
1026 0 60.0897 12.4647 749 132.53 1228.44 487.143
1027 0 60.0512 12.5226 752 136.447 1229.45 485.936
1028 0 63.0618 12.7494 804 130.748 1230.23 484.896
1029 0 63.0618 12.7494 804 162.893 1231.23 484.896
1030 0 66.0662 13.1232 867 131.262 1230 483.633
1031 0 69.0738 13.4639 930 131.315 1229.81 482.476
1032 0 71.092 13.5318 962 123.707 1229.27 480.764
1033 0 76.1313 13.0958 997 127.63 1229.12 479.876
1034 0 77.0523 13.2118 1018 129.98 1228.97 478.767
1035 0 81.0434 13.5977 1102 131.497 1226.54 477.389
1036 0 83.1324 13.3642 1111 127.258 1229.12 475.885
1037 0 86.0552 13.5959 1170 131.395 1227.68 473.584
1038 0 89.0557 13.5982 1211 133.955 1229.73 472.261
1039 0 92.1173 13.2223 1218 138.888 1227.98 471.45
1040 0 95.1001 13.5541 1289 133.059 1225.86 469.877
1041 1 47.0914 12.8898 607 128.596 1228.03 492.262
1042 0 51.082 12.5484 641 131.688 1229.38 491.179
1043 0 52.0899 12.8048 667 137.291 1228.96 490.525
1044 0 55.067 12.5847 693 135.771 1228.32 489.532
1045 0 56.1639 12.5881 707 133.506 1228.68 489.328
1046 0 57.1246 13.2167 755 135.197 1229.38 487.987
1047 0 61.0363 12.5171 764 138.323 1229.45 487.199
1048 0 62.1179 12.75 792 131.253 1229.18 485.731
1049 0 66.052 12.2479 809 133.87 1230.62 484.666
1050 0 66.0953 13.0418 862 135.281 1229.42 483.926
1051 0 66.0953 13.0418 862 166.697 1228.42 483.926
1052 0 72.0841 12.5825 907 135.287 1231.07 481.397
1053 0 74.1256 12.7621 946 135.795 1228.77 480.424
1054 0 77.0434 12.9408 997 135.183 1227.82 478.217
1055 0 80.0433 12.6432 1012 134.395 1228.06 476.961
1056 0 82.1449 12.8675 1057 134.402 1228.69 476.028
1057 0 85.059 13.1321 1117 128.902 1229.02 474.524
1058 0 88.1413 13.0586 1151 136.412 1229.51 473.396
1059 0 91.0523 12.7729 1163 126.275 1228.7 472.719
1060 1 48.0347 11.804 567 129.238 1229.25 493.607
1061 0 50.0458 11.989 600 129.268 1230.96 492.772
1062 0 51.0399 12.4412 635 133.97 1231.6 492.298
1063 0 52.0649 12.3308 642 132.369 1230.1 491.481
1064 0 53.0284 12.4273 659 130.973 1230.78 490.15
1065 0 56.06 12.2904 689 134.824 1229.39 490.109
1066 0 57.049 12.3052 702 132.063 1229.14 488.893
1067 0 60.0449 12.3741 743 133.232 1228.65 488.466
1068 0 59.0856 12.9304 764 134.253 1229.58 487.666
1069 0 64.092 12.7161 815 130.07 1228.87 486.119
1070 0 66.0629 12.5487 829 130.31 1230.5 484.82
1071 0 68.0257 12.8334 873 132.293 1228.73 483.32
1072 0 70.0801 12.871 902 126.299 1231.27 482.683
1073 0 73.1385 12.7566 933 131.372 1230.32 481.801
1074 0 75.0672 13.0017 976 138.07 1229.77 480.293
1075 0 77.1327 13.0943 1010 128.312 1229.36 478.576
1076 0 81.1685 13.281 1078 133.149 1229.48 477.379
1077 0 84.0584 12.7173 1069 127.106 1228.8 476.158
1078 0 86.0706 12.7686 1099 123.497 1229.65 475.045
1079 1 42.0556 12.1744 512 125.514 1228.66 495.992
1080 0 44.0153 12.0413 530 116.611 1229.25 495.011
1081 0 46.0198 11.8645 546 111.755 1227.76 494.877
1082 0 48.0163 11.6627 560 125.946 1228.29 493.752
1083 0 50.07 11.7635 589 57.5399 1229.13 492.559
1084 0 51.0796 12.1575 621 121.47 1230.22 492.295
1085 0 53.0675 12.1166 643 118.317 1230.32 491.101
1086 0 53.0675 12.1166 643 174.16 1231.32 491.101
1087 0 57.0219 12.2234 697 117.432 1231.08 488.879
1088 0 60.0703 11.9527 718 119.799 1230.34 488.159
1089 0 59.0925 12.7935 756 117.976 1231.72 486.528
1090 0 62.0595 12.4397 772 114.766 1230.06 486.635
1091 0 65.0621 12.3728 805 114.161 1230.36 484.924
1092 0 66.1314 12.6566 837 112.33 1232.03 484.293
1093 0 68.0477 12.8145 872 108.983 1230.56 483.788
1094 0 70.0212 12.9104 904 109.752 1230.92 482.642
1095 0 72.0661 13.0852 943 105.919 1231.09 480.772
1096 0 74.0589 13.2057 978 113.633 1230.66 480.103
1097 0 77.0361 12.6954 978 119.628 1232.05 478.689
1098 0 79.0688 12.976 1026 115.126 1230.61 477.79
1099 0 80.0583 13.3028 1065 119.05 1231.37 476.429
1100 0 83.0932 13.2863 1104 112.313 1231.45 474.695
1101 0 86.0643 13.1181 1129 116.791 1230.16 473.257
1102 0 91.0984 12.8103 1167 109.566 1231.06 471.656
1103 0 93.0802 13.4293 1250 101.066 1229.67 469.632
1104 0 95.1555 12.9788 1235 107.009 1229.61 468.67
1105 1 52.0248 11.6099 604 109.704 1231.51 490.599
1106 0 54.0361 12.0475 651 108.547 1230.95 490.128
1107 0 55.0831 12 661 109.206 1229.07 489.328
1108 0 55.0961 12.0698 665 110.662 1229.92 488.783
1109 0 59.0883 12.1851 720 107.76 1230.18 487.21
1110 0 61.0619 12.1352 741 108.063 1230.67 486.185
1111 0 62.0647 12.4225 771 104.161 1230.37 485.562
1112 0 66.0426 12.1891 805 99.3963 1230.91 483.884
1113 0 67.0811 12.3135 826 104.246 1229.82 482.682
1114 0 70.1356 12.3903 869 99.5109 1228.87 481.871
1115 0 71.0661 12.5095 889 101.079 1229.25 481.196
1116 0 73.0832 12.5747 919 104.041 1228.03 479.242
1117 0 76.1268 12.4923 951 93.6414 1228.97 478.691
1118 0 79.0664 12.6349 999 96.7137 1229.22 477.55
1119 0 82.107 12.569 1032 107.052 1227.97 475.154
1120 0 84.1073 12.4127 1044 107.191 1228.14 474.748
1121 0 87.0881 12.2864 1070 106.04 1228.57 472.29
1122 0 92.0487 12.8193 1180 104.085 1229.37 470.042
1123 0 95.149 12.4857 1188 100.438 1227.82 468.586
1124 1 49.123 11.0539 543 108.727 1229.92 491.271
1125 0 51.1248 11.3448 580 106.083 1231.63 489.638
1126 0 54.1045 11.6626 631 110.517 1229.37 489.239
1127 0 56.0229 11.888 666 116.171 1232.45 488.845
1128 0 56.0338 12.2248 685 116.258 1230.36 487.663
1129 0 59.0388 12.026 710 108.614 1229.66 486.616
1130 0 61.0306 11.8793 725 117.658 1231.34 485.708
1131 0 62.0677 12.3253 765 119.74 1229.13 484.341
1132 0 65.0598 12.1734 792 116.514 1231.85 483.614
1133 0 68.1337 12.0792 823 116.61 1231.8 481.979
1134 0 70.1093 12.2095 856 109.952 1229.37 480.743
1135 0 72.101 12.2467 883 111.366 1231.28 479.476
1136 0 74.1228 12.1555 901 107.266 1230.05 478.095
1137 0 77.1098 12.4498 960 116.911 1231.23 476.569
1138 0 81.0537 12.0044 973 112.904 1230.86 474.715
1139 0 82.0376 12.3846 1016 109.894 1231 474.07
1140 1 44.0352 10.3554 456 100.257 1233 493.557
1141 0 44.0194 11.6312 512 109.488 1230.2 492.004
1142 0 47.0225 11.654 548 115.453 1230.84 491.005
1143 0 50.0288 11.2735 564 108.977 1230.87 490.229
1144 0 50.0428 11.3103 566 112.057 1230.34 489.58
1145 0 53.0537 11.6297 617 106.898 1230.21 489.058
1146 0 54.0762 11.4838 621 102.436 1230.11 487.499
1147 0 55.0156 11.8148 650 101.651 1230.85 486.794
1148 0 57.0307 12.1163 691 103.962 1229.05 486.42
1149 0 60.0701 12.2024 733 111.727 1229.58 486.135
1150 0 61.0812 12.1478 742 115.791 1229.65 485.283
1151 0 62.0944 12.481 775 118.092 1229.53 484.686
1152 0 64.0697 12.5176 802 114.277 1230.98 484.185
1153 0 66.0563 12.2926 812 110.919 1230.99 483.539
1154 0 68.0427 12.9037 878 112.294 1231.04 481.671
1155 0 70.0422 12.9065 904 105.507 1230.36 480.893
1156 0 72.0361 12.7991 922 104.76 1230.83 480.667
1157 0 73.0583 13.5234 988 99.4464 1230.44 479.01
1158 0 76.0677 12.8307 976 98.4334 1229.68 477.954
1159 0 78.0672 13.1938 1030 99.2922 1231.39 476.355
1160 0 83.1074 12.7546 1060 97.9349 1229.23 475.305
1161 0 83.0605 12.9183 1073 95.8472 1229.41 474.634
1162 0 88.1455 12.6722 1117 97.5953 1230.97 472.677
1163 0 90.1662 12.5435 1131 98.611 1231.64 471.472
1164 1 45.0388 10.4132 469 100.9 1233.28 494.58
1165 0 47.0599 11.3472 534 93.2154 1232.02 493.193
1166 0 49.0392 11.603 569 91.058 1231.03 492.497
1167 0 50.0337 11.5322 577 88.435 1231.02 491.913
1168 0 51.1143 11.8166 604 107.881 1231.32 491.29
1169 0 53.0426 11.8395 628 101.409 1231.8 490.525
1170 0 54.0286 12.1047 654 102.946 1230.54 490.344
1171 0 56.0365 12.0279 674 106.007 1230.55 489.236
1172 0 57.0408 12.3596 705 105.04 1230.5 488.664
1173 0 59.0975 12.877 761 98.9987 1230.88 486.924
1174 0 60.0613 12.3374 741 102.026 1231.97 486.355
1175 0 60.0613 12.3374 741 164.359 1233.97 486.355
1176 0 63.0503 12.72 802 106.137 1231.27 485.141
1177 0 64.0401 12.8045 820 105.155 1232.65 484.221
1178 0 68.0947 12.6882 864 99.2188 1232.05 483.159
1179 0 70.1272 13.2473 929 93.3638 1230.25 481.003
1180 0 73.1144 13.2806 971 88.9794 1230.53 480.347
1181 0 75.1316 12.9905 976 110.057 1232.59 478.486
1182 0 78.057 12.9905 1014 112.435 1230.55 477.273
1183 0 80.1081 13.1947 1057 101.889 1232.06 476.281
1184 0 84.0718 12.8105 1077 110.767 1230.06 474.649
1185 0 86.0952 12.9392 1114 112.438 1230.92 473.505
1186 1 45.047 11.0773 499 101.808 1231.68 493.904
1187 0 47.0488 11.8175 556 104.133 1231.39 492.701
1188 0 49.0805 11.7154 575 98.127 1231.66 492.17
1189 0 50.1485 11.6454 584 91.9623 1231.33 491.601
1190 0 50.0234 11.9944 600 97.2967 1229.54 491.213
1191 0 51.0533 12.3988 633 91.5529 1230.77 489.698
1192 0 54.0668 12.1332 656 90.8598 1230.91 489.087
1193 0 56.0373 12.0634 676 86.8254 1231.25 487.837
1194 0 58.0841 12.4819 725 105.286 1232.13 487.189
1195 0 60.1636 12.599 758 102.148 1230.79 486.773
1196 0 60.0716 12.5683 755 103.14 1230.55 485.584
1197 0 62.1251 12.6036 783 107.427 1232.24 485.047
1198 0 64.1445 13.0331 836 103.244 1230.69 484.142
1199 0 66.0995 12.6779 838 105.643 1230.77 482.936
1200 0 67.0998 13.2936 892 99.0067 1229.55 482.802
1201 0 69.0925 13.0839 904 93.8296 1231.55 481.279
1202 0 72.0906 12.9975 937 91.8218 1230.88 479.94
1203 0 74.1082 12.6302 936 94.735 1231.1 479.084
1204 0 77.1284 13.2636 1023 89.9198 1231.45 477.788
1205 0 79.1097 13.1589 1041 94.2949 1232.2 476.296
1206 0 80.1015 12.996 1041 96.1518 1232.15 475.695
1207 0 84.0803 12.9043 1085 93.729 1232.29 474.664
1208 0 87.0792 13.149 1145 97.4131 1232.23 473.101
1209 0 92.111 13.4403 1238 93.0477 1231.59 471.622
1210 1 47.1394 10.9463 516 98.8469 1230.4 493.293
1211 0 48.0643 12.0047 577 99.435 1231.62 492.44
1212 0 49.0682 11.8407 581 96.2238 1229.85 491.814
1213 0 50.0212 12.4547 623 98.488 1230.98 491.356
1214 0 51.048 12.3021 628 101.126 1231.33 491.247
1215 0 54.0338 11.6964 632 103.967 1230.84 490.146
1216 0 52.0366 12.5873 655 102.834 1232.06 489.576
1217 0 55.0626 12.4404 685 94.8 1232.42 488.515
1218 0 57.0291 12.2744 700 99.0657 1231.11 488.184
1219 0 58.0775 13.1032 761 96.9777 1230.71 486.813
1220 0 62.0946 12.6581 786 96.8003 1231.22 485.72
1221 0 61.1193 12.6474 773 97.9288 1230.8 485.94
1222 0 65.0502 12.6364 822 98.562 1230.47 484.44
1223 0 66.0502 12.3845 818 100.262 1230.62 483.44
1224 0 67.0552 12.9296 867 88.481 1231.53 481.984
1225 0 70.0547 13.2753 930 94.3151 1230.99 480.308
1226 0 72.1078 13.0222 939 93.4814 1229.08 479.214
1227 0 75.0758 12.8404 964 94.5654 1230.39 478.217
1228 0 75.0758 12.8404 964 152.116 1232.39 478.217
1229 0 80.1115 12.4701 999 97.7167 1231.44 476.453
1230 0 83.0458 12.764 1060 92.366 1230.32 474.592
1231 1 42.0337 9.89682 416 92.5 1231.34 494.404
1232 0 42.0337 9.89682 416 154.149 1233.34 494.404
1233 0 43.0435 10.5939 456 91.9276 1232.1 493.594
1234 0 47.0383 11.0761 521 88.6891 1232.36 492.28
1235 0 48.0952 11.2693 542 85.7122 1232.38 491.873
1236 0 50.0505 11.4684 574 86.6272 1229.65 490.913
1237 0 52.1254 11.8944 620 53.8113 1231.15 489.984
1238 0 52.0613 11.6401 606 89.4472 1229.72 489.629
1239 0 54.0701 11.892 643 87.2908 1229.25 488.44
1240 0 57.054 11.866 677 87.6263 1230.45 487.892
1241 0 59.0748 11.8155 698 85.1719 1231.76 486.728
1242 0 60.0314 12.127 728 82.8558 1230.69 485.636
1243 0 60.0435 12.0746 725 81.5655 1231.87 485.108
1244 0 62.0813 11.8715 737 79.81 1231.35 484.566
1245 0 65.0447 11.8226 769 78.6944 1229.13 483.718
1246 0 67.0665 11.8539 795 83.4956 1230.14 483.153
1247 0 70.0278 12.7806 895 81.5039 1231.2 481.499
1248 0 72.1471 12.3082 888 77.5698 1230.99 480.086
1249 0 72.1471 12.3082 888 141.839 1229.99 480.086
1250 0 77.0737 12.4556 960 81.8865 1231.18 477.892
1251 0 79.0661 12.4706 986 81.4716 1230.11 477.119
1252 0 84.1425 12.3719 1041 82.5005 1229.89 475.28
1253 1 46.0188 10.7782 496 83.0686 1231.78 494.278
1254 0 47.0652 11.1972 527 82.7002 1232.18 493.381
1255 0 50.0171 11.2961 565 83.7416 1232.17 491.614
1256 0 51.0475 11.6558 595 89.9429 1230.28 491.358
1257 0 52.0134 12.1507 632 89.1424 1230.8 490.101
1258 0 53.101 12.0148 638 90.174 1230.36 490.246
1259 0 54.035 12.5659 679 88.6922 1231.41 489.602
1260 0 56.019 12.353 692 88.4104 1229.34 489.032
1261 0 60.195 11.8614 714 87.2955 1228.7 487.94
1262 0 60.1889 12.3445 743 87.5182 1227.18 487.187
1263 0 62.0894 12.627 784 86.5944 1230.93 485.73
1264 0 64.0729 12.7355 816 83.6471 1230.48 485.2
1265 0 66.0515 12.9293 854 83.452 1228.56 484.002
1266 0 71.0417 12.0915 859 82.7555 1229.3 483.644
1267 0 74.0568 12.3824 917 83.0502 1229.16 481.866
1268 0 75.0706 12.1086 909 84.066 1229.74 480.978
1269 0 77.1262 12.1489 937 83.9562 1229.07 479.104
1270 0 80.1084 12.3583 990 80.6485 1229.77 478.535
1271 0 84.1189 12.2921 1034 82.1896 1229.91 476.552
1272 1 43.0157 11.1122 478 77.41 1228.75 497.048
1273 0 46.0421 11.1203 512 80.8047 1229.5 496.018
1274 0 47.0243 11.6323 547 81.8592 1229.39 494.548
1275 0 47.0225 11.1861 526 94.5038 1229.86 493.795
1276 0 49.1083 11.7292 576 92.7726 1229.82 493.33
1277 0 50.089 11.7591 589 90.7216 1230.01 492.667
1278 0 53.0191 11.411 605 110.274 1229.99 491.911
1279 0 55.0713 11.7666 648 106.108 1230.03 491.181
1280 0 57.0812 11.7727 672 112.353 1230.44 490.051
1281 0 56.0692 12.11 679 106.826 1232 489.396
1282 0 59.0337 11.8915 702 103.339 1230.22 488.55
1283 0 61.0256 11.995 732 102.828 1230.39 487.854
1284 0 61.0488 12.2361 747 100.098 1230.7 487.639
1285 0 65.0653 12.28 799 95.9412 1230.6 485.757
1286 0 66.1084 11.9652 791 97.7231 1229.22 484.694
1287 0 69.06 12.3226 851 96.6628 1227.81 482.948
1288 0 72.026 11.6763 841 94.937 1229.3 482.749
1289 0 74.0413 11.9393 884 93.2636 1230.45 480.942
1290 0 77.0369 12.2409 943 90.2768 1227.49 479.707
1291 0 79.0726 12.2799 971 83.1751 1227.91 477.725
1292 0 82.0354 12.2752 1007 82.2552 1229.87 477.232
1293 0 85.0595 12.2032 1038 80.7726 1228.38 476.014
1294 1 43.0212 10.1578 437 83.8352 1228.89 496.616
1295 0 45.0355 11.169 503 87.7853 1229.65 495.376
1296 0 46.0894 11.4126 526 96.4658 1228.02 494.703
1297 0 46.0894 11.4126 526 150.608 1226.02 494.703
1298 0 51.0637 11.143 569 86.6239 1231.4 492.706
1299 0 51.0439 11.6762 596 79.8574 1229.24 492.034
1300 0 53.0576 11.8174 627 84.016 1230.09 491.494
1301 0 55.0863 11.7271 646 80.9721 1227.86 491.076
1302 0 55.1322 11.9894 661 84.0333 1229.92 490.638
1303 0 55.1322 11.9894 661 153.44 1231.92 490.638
1304 0 59.1764 12.2853 727 92.9326 1229.2 488.51
1305 0 61.0304 12.1579 742 95.7911 1229.71 488
1306 0 61.0866 12.9161 789 94.3118 1229.37 487.432
1307 0 65.1177 12.1933 794 96.4584 1229.82 486.199
1308 0 67.086 11.8952 798 95.2293 1229.51 484.922
1309 0 68.0737 12.1045 824 92.8034 1229.76 484.973
1310 0 71.1001 12.1659 865 90.3595 1229.3 483.149
1311 0 72.1124 12.328 889 89.0529 1229.48 483.34
1312 0 74.2157 12.3963 920 86.3456 1230.05 480.987
1313 0 77.1139 12.5269 966 110.315 1230.17 479.589
1314 0 80.1367 12.4163 995 112.925 1229.56 478.692
1315 0 83.1353 12.0286 1000 123.517 1229.48 478.296
1316 0 87.188 12.2035 1064 119.727 1227.3 476.18
1317 1 48.0863 10.4396 502 120.711 1229.52 495.5
1318 0 47.0699 11.0262 519 118.337 1228.1 495.146
1319 0 48.1014 11.8292 569 113.963 1228.4 493.937
1320 0 52.1095 11.7445 612 108.145 1227.85 493.132
1321 0 53.0881 11.3962 605 104.192 1228.64 492.765
1322 0 55.1448 11.769 649 100.587 1227.65 491.98
1323 0 54.0442 12.0827 653 100.041 1228.12 491.19
1324 0 55.0719 12.1659 670 98.8672 1227.89 490.667
1325 0 57.0799 12.2986 702 91.2664 1229.09 489.65
1326 0 60.0978 12.7292 765 96.4366 1229.43 488.102
1327 0 62.0735 12.6141 783 97.9987 1228.67 487.646
1328 0 65.0745 12.2321 796 99.5025 1229.02 487.152
1329 0 67.1042 12.8606 863 99.6234 1229.6 485.455
1330 0 68.1054 12.4366 847 98.8867 1228.99 484.592
1331 0 70.0758 12.6149 884 100.999 1229.45 483.416
1332 0 74.0507 12.2754 909 92.6986 1229.15 482.816
1333 0 76.1662 12.2626 934 111.261 1227.84 481.504
1334 0 76.0918 13.1157 998 116.691 1228.32 480.072
1335 0 79.1035 12.8819 1019 112.026 1227.59 478.721
1336 1 40.1371 11.4109 458 106.878 1227.67 498.234
1337 0 41.042 11.8659 487 111.795 1226.85 497.478
1338 0 44.0542 12.4619 549 98.2914 1227.29 496.168
1339 0 45.08 11.9343 538 105.574 1228.92 496.048
1340 0 46.0815 12.0873 557 104.086 1228.21 495.847
1341 0 48.0695 12.4403 598 108.801 1228.85 494.49
1342 0 48.0695 12.4403 598 164.855 1229.85 494.49
1343 0 50.0451 12.5287 627 109.561 1228.59 493.469
1344 0 52.0562 12.5057 651 105.605 1229.64 492.651
1345 0 54.0576 12.7272 688 107.666 1226.14 492.041
1346 0 55.0455 12.3897 682 110.199 1229.13 492.12
1347 0 56.1356 12.5411 704 111.678 1228.38 491.457
1348 0 57.0628 12.9857 741 106.177 1227.88 490.42
1349 0 59.1169 13.2788 785 104.346 1227.01 488.896
1350 0 61.0764 12.5908 769 109.765 1227.62 488.964
1351 0 64.1725 12.6534 812 111.787 1227.59 488.073
1352 0 65.0607 12.9571 843 115.178 1228.4 486.432
1353 0 67.1652 13.0425 876 114.365 1228.33 485.686
1354 0 69.0571 12.8444 887 104.043 1229.4 484.996
1355 0 71.1614 12.9846 924 109.58 1226.61 483.846
1356 0 74.1513 13.3376 989 102.317 1228.5 481.949
1357 0 78.1719 13.0098 1017 103.683 1228.48 480.904
1358 0 80.1232 12.693 1017 134.356 1228.65 479.642
1359 1 45.0532 11.6973 527 124.343 1227.7 496.827
1360 0 45.0376 11.99 540 130.326 1228.12 496.046
1361 0 45.1179 12.4784 563 126.996 1230.09 495.444
1362 0 49.0791 12.0418 591 125.973 1226.64 494.643
1363 0 51.0228 12.0926 617 127.603 1227.27 493.861
1364 0 51.0324 12.4627 636 124.258 1227.22 493.05
1365 0 54.0445 12.2677 663 117.142 1227.45 492.653
1366 0 55.0938 12.3789 682 117.189 1228.65 492.167
1367 0 54.0615 12.6892 686 112.843 1226.8 491.962
1368 0 59.1692 12.5234 741 115.574 1228.01 490.888
1369 0 60.0923 12.2145 734 117.014 1227.26 489.917
1370 0 61.1116 11.9454 730 109.592 1228.12 488.447
1371 0 64.044 12.4914 800 107.352 1226 486.224
1372 0 66.0242 11.9956 792 113.121 1226.73 485.909
1373 0 69.164 11.8848 822 117.625 1227.68 484.805
1374 0 72.0733 11.9323 860 122.192 1228.75 483.437
1375 0 74.1737 11.8236 877 118.704 1228.44 483.046
1376 1 42.0213 11.0182 463 121.361 1229.49 498.192
1377 0 43.0311 11.5498 497 118.592 1227.93 497.425
1378 0 44.0563 11.5534 509 119.026 1229.16 497.242
1379 0 44.0563 11.5534 509 171.055 1231.16 497.242
1380 0 47.1121 11.9078 561 118.991 1226.93 495.014
1381 0 49.0241 11.7697 577 119.023 1228.24 494.783
1382 0 50.0835 11.6805 585 121.053 1229.04 494.212
1383 0 51.0449 12.2833 627 114.303 1228.42 493.292
1384 0 54.0199 12.1992 659 106.184 1228.34 491.341
1385 0 55.0409 11.9548 658 103.155 1229.17 491.424
1386 0 58.0312 12.3554 717 99.0781 1227.66 489.953
1387 0 59.021 11.9788 707 105.195 1230.02 489.144
1388 0 59.0712 12.4595 736 109.45 1227.94 488.81
1389 0 63.0112 12.3946 781 108.028 1228.43 487.787
1390 0 63.0744 12.5249 790 109.524 1227.45 486.444
1391 0 67.025 12.5177 839 103.636 1228.28 484.733
1392 0 69.0224 12.3873 855 107.725 1228.07 484.544
1393 0 73.0327 12.8025 935 105.539 1228.59 482.489
1394 0 73.03 12.7756 933 112.316 1228.04 481.308
1395 0 78.0322 12.5589 980 108.391 1227.32 480.031
1396 0 79.024 13.1353 1038 107.984 1228.97 477.703
1397 0 84.1745 12.878 1084 106.119 1227.6 476.869
1398 1 44.0244 12.0161 529 99.3989 1227.46 495.51
1399 0 45.0296 12.2586 552 103.828 1228.07 495.563
1400 0 48.0162 12.0792 580 111.26 1226.14 494.309
1401 0 49.0551 12.7612 626 111.532 1228.39 492.462
1402 0 51.0348 12.5405 640 114.675 1227.87 492.294
1403 0 54.0545 12.0434 651 113.616 1228.57 491.075
1404 0 55.0816 12.5995 694 114.934 1229.5 490.509
1405 0 56.0308 12.7608 715 111.386 1230.26 490.564
1406 0 57.0259 13.1519 750 107.623 1228.82 489.701
1407 0 59.0467 13.1591 777 101.705 1228.42 488.363
1408 0 62.0908 13.0132 808 98.0148 1229.74 487.468
1409 0 63.0467 13.149 829 110.24 1226.22 486.527
1410 0 65.0361 13.4541 875 113.472 1225.58 485.729
1411 0 65.0361 13.4541 875 167.622 1224.58 485.729
1412 0 68.1576 13.2487 903 106.398 1227.63 484.292
1413 0 69.1438 13.5225 935 106.21 1226.16 483.904
1414 0 74.0615 13.5158 1001 103.79 1225.26 482.988
1415 0 76.149 13.3948 1020 107.063 1228.28 481.439
1416 0 78.1088 13.5708 1060 107.186 1227.43 480.47
1417 0 80.0766 13.7618 1102 105.07 1228.79 479.117
1418 0 83.071 13.2898 1104 108.012 1226.96 477.506
1419 0 87.1078 13.3398 1162 105.472 1228.97 476.991
1420 1 46.0727 12.6756 584 105.526 1228.55 495.885
1421 0 48.0191 12.3492 593 103.627 1229.43 495.31
1422 0 50.0725 12.3421 618 109.665 1227.71 494.665
1423 0 52.0762 12.6353 658 98.3374 1226.7 493.409
1424 0 54.0611 12.7448 689 97.7358 1226.89 492.608
1425 0 54.0676 12.6693 685 93.4467 1226.88 492.273
1426 0 55.1148 13.0818 721 103.803 1228.24 491.592
1427 0 57.0849 13.296 759 106.444 1226.75 489.984
1428 0 60.0621 12.92 776 101.202 1229.32 489.35
1429 0 62.0983 12.8828 800 103.924 1228.26 489.37
1430 0 61.1644 13.3247 815 115.039 1227.52 487.556
1431 0 65.1296 13.0663 851 113.761 1226.55 487.061
1432 0 68.0692 13.0015 885 115.171 1228.71 485.586
1433 0 68.0929 13.276 904 115.675 1229.67 484.61
1434 0 72.0757 13.0002 937 117.313 1228.14 483.731
1435 0 72.0846 12.9431 933 123.895 1227.78 482.535
1436 0 76.0311 13.1262 998 129.224 1227.91 481.418
1437 0 79.0327 12.653 1000 127.061 1227.24 480.457
1438 0 81.0252 13.107 1062 125.53 1225.24 478.4
1439 0 84.0643 12.5737 1057 131.284 1226.64 478.124
1440 0 87.0585 13.0028 1132 128.889 1227.38 475.597
1441 1 48.0209 11.7032 562 128.315 1227.06 495.041
1442 0 48.0262 12.4307 597 131.564 1227.2 493.807
1443 0 51.0328 12.2862 627 123.845 1226.58 492.99
1444 0 52.0326 12.1655 633 119.209 1226.62 492.703
1445 0 54.036 12.3992 670 109.628 1226.54 491.367
1446 0 56.0276 12.2618 687 106.945 1227.55 490.949
1447 0 57.0438 12.2713 700 108.373 1228.45 489.881
1448 0 58.0526 12.5748 730 109.856 1229.01 489.108
1449 0 61.0596 12.758 779 106.244 1227.97 487.913
1450 0 63.0814 12.9198 815 104.575 1227.66 486.973
1451 0 64.0176 12.6059 807 106.771 1228.3 486.594
1452 0 66.0662 13.2292 874 101.443 1226.75 485.402
1453 0 70.0784 12.8856 903 101.707 1228.41 484.198
1454 0 71.0752 12.6486 899 102.228 1227.77 484.452
1455 0 72.0541 12.671 913 105.421 1228.01 482.282
1456 0 75.0475 12.7652 958 108.001 1228.64 481.103
1457 0 79.038 12.8419 1015 107.693 1227.46 480.385
1458 0 82.0494 12.9556 1063 103.273 1228.24 478.76
1459 0 84.0399 13.089 1100 106.645 1230.09 477.522
1460 1 44.0587 10.9853 484 106.785 1227.2 496.919
1461 0 45.0367 11.4795 517 107.269 1227.92 495.739
1462 0 47.0347 11.4809 540 111.026 1227.31 494.963
1463 0 48.0388 12.594 605 105.78 1227.59 493.089
1464 0 49.027 12.5033 613 101.325 1227.31 492.377
1465 0 51.04 12.8331 655 103.427 1227.1 491.957
1466 0 53.0256 12.824 680 104.369 1226.53 491.179
1467 0 54.135 12.6905 687 108.22 1225.99 490.326
1468 0 56.122 12.9183 725 111.634 1225.52 490.177
1469 0 57.0372 12.6233 720 114.094 1227.4 489.112
1470 0 60.0433 12.9906 780 108.812 1226.63 487.964
1471 0 62.0365 12.8312 796 92.5716 1226.45 486.927
1472 0 63.0756 13.4918 851 95.5593 1229.36 486.101
1473 0 66.1443 13.2438 876 102.462 1228.05 485.191
1474 0 69.0903 12.9106 892 99.8845 1226.19 484.438
1475 0 70.0784 13.2138 926 98.5551 1226.67 483.114
1476 0 72.046 13.3804 964 98.7697 1225.85 482.207
1477 0 76.0545 12.9381 984 98.6423 1225.96 481.41
1478 0 76.1375 13.1735 1003 105.206 1225.92 480.01
1479 0 80.1575 12.7125 1019 104.637 1225.8 479.066
1480 0 84.0624 13.0498 1097 104.713 1226.77 477.137
1481 0 86.0694 13.1173 1129 108.163 1227.94 475.763
1482 0 90.1422 12.8131 1155 107.263 1226.48 474.117
1483 0 93.0738 12.5599 1169 106.694 1226.49 472.956
1484 1 49.0428 12.0915 593 100.902 1225.96 494.233
1485 0 51.0406 12.0297 614 103.95 1225.18 494.204
1486 0 52.0528 12.2568 638 105.398 1227.27 493.218
1487 0 55.0166 12.578 692 101.211 1225.23 492.591
1488 0 55.1264 12.8976 711 104.28 1226.73 490.821
1489 0 58.0965 12.6342 734 102.797 1226.48 490.456
1490 0 59.0245 12.5202 739 102.391 1227.41 489.314
1491 0 62.094 11.9335 741 108.435 1226.47 488.734
1492 0 64.018 12.4028 794 109.675 1225.98 487.121
1493 0 67.049 12.4238 833 103.862 1227.27 485.74
1494 0 69.0687 12.6541 874 110.645 1227.04 484.228
1495 0 72.0763 13.014 938 112.577 1226.9 483.261
1496 0 75.1096 12.5816 945 113.564 1225.7 482.16
1497 0 77.0923 12.6472 975 104.983 1226.25 478.869
1498 0 80.1439 12.49 1001 96.7692 1226.15 477.898
1499 1 41.0442 10.8663 446 101.121 1226.9 496.726
1500 0 43.0562 11.125 479 101.743 1226.19 497.282
1501 0 45.0622 11.5174 519 106.647 1226.25 495.698
1502 0 44.0321 11.9685 527 104.924 1227.65 494.56
1503 0 47.0241 11.5685 544 103.175 1226.86 494.335
1504 0 48.0163 11.6419 559 96.7943 1227.57 494.023
1505 0 51.1163 11.6793 597 103.32 1228.48 492.363
1506 0 52.0258 11.9172 620 90.3323 1228.65 492.023
1507 0 54.0291 12.0676 652 83.6718 1226.31 491.523
1508 0 56.0418 12.3122 690 77.158 1226.92 490.268
1509 0 57.0688 11.9855 684 82.7749 1226.83 488.727
1510 0 58.0188 12.427 721 76.1831 1226.04 487.522
1511 0 61.1436 12.1517 743 77.646 1226.64 486.591
1512 0 62.0629 12.1651 755 73.8848 1225.5 486.436
1513 0 65.0563 12.543 816 74.0453 1226.18 484.842
1514 0 68.0928 12.3802 843 75.8007 1226.76 483.878
1515 0 70.0213 11.8821 832 73.6827 1225.08 482.101
1516 1 47.0267 10.7598 506 93.2372 1227.97 493.929
1517 0 48.0351 11.6373 559 99.7048 1226.05 492.485
1518 0 48.0468 11.6137 558 91.0143 1226.05 493.685
1519 0 49.032 11.829 580 88.8828 1225.9 492.776
1520 0 52.1325 11.7969 615 85.735 1224.58 492.226
1521 0 53.1154 11.9363 634 88.0615 1226.69 491.976
1522 0 56.0473 11.4546 642 87.0218 1228.55 490.942
1523 0 57.053 12.0765 689 83.9028 1224.12 490.122
1524 0 58.0985 12.0657 701 91.9016 1224.89 489.344
1525 0 59.081 12.5421 741 87.7341 1225.24 488.217
1526 0 63.182 11.9971 758 91.5805 1224.55 488.04
1527 0 65.144 12.434 810 88.0506 1224.12 487.109
1528 0 66.0867 12.4685 824 90.5218 1224.87 486.237
1529 0 69.148 12.6396 874 90.4725 1225.29 485.339
1530 0 70.1021 12.5103 877 86.6705 1225.11 484.511
1531 0 72.0738 12.737 918 91.5545 1224.33 483.817
1532 0 74.1245 12.8568 953 96.6128 1224.97 481.684
1533 0 78.0874 12.5757 982 89.9542 1225.62 480.261
1534 0 80.1106 12.62 1011 84.6548 1223.27 479.411
1535 0 84.1253 12.422 1045 87.5694 1225.39 477.744
1536 0 87.1064 12.3871 1079 90.5663 1226.29 476.443
1537 1 47.0228 11.0159 518 93.9093 1227.52 496.822
1538 0 49.0169 11.3226 555 89.8955 1225.71 495.991
1539 0 51.008 11.4884 586 86.5648 1226.82 495.051
1540 0 50.0232 12.914 646 87.9536 1225.86 494.127
1541 0 55.0231 12.3403 679 88.0898 1225.28 492.962
1542 0 55.0649 12.6941 699 96.7954 1226.48 492.306
1543 0 57.1331 12.4271 710 97.3408 1226.93 491.401
1544 0 59.0282 12.4517 735 99.6639 1226.41 490.103
1545 0 61.0408 12.5817 768 100.745 1226.19 489.413
1546 0 63.1423 12.4164 784 100.792 1226.79 488.885
1547 0 64.0691 12.627 809 105.7 1226.72 487.784
1548 0 67.1296 12.677 851 100.42 1226.65 486.846
1549 0 68.0402 12.6837 863 96.7115 1225.23 486.039
1550 0 71.0411 12.4998 888 96.4482 1223.5 484.735
1551 0 73.1418 12.7014 929 98.4241 1223.68 483.724
1552 0 76.0371 12.9148 982 96.3992 1224.53 482.428
1553 0 77.1064 13.1507 1014 96.859 1225.7 481.615
1554 0 80.1798 12.7464 1022 99.775 1225.46 480.043
1555 0 84.305 12.7276 1073 113.492 1222.54 478.722
1556 0 85.1478 12.907 1099 124.202 1221.68 476.945
1557 1 45.0866 11.2894 509 126.69 1222.24 495.935
1558 0 49.0943 11.5696 568 123.364 1222.8 495.271
1559 0 51.0235 12.3081 628 116.18 1223.32 495.412
1560 0 50.078 12.82 642 116.055 1223.58 495.246
1561 0 53.1001 12.4482 661 110.814 1222.95 494.275
1562 0 54.0278 12.401 670 113.058 1221.36 493.579
1563 0 56.0888 12.6228 708 128.75 1221.99 492.965
1564 0 57.0692 12.5637 717 120.195 1221.26 492.139
1565 0 59.0863 12.6256 746 116.965 1221.42 491.496
1566 0 59.0508 12.9211 763 113.832 1222.12 490.583
1567 0 62.0506 12.9088 801 114.189 1223.73 490.41
1568 0 63.0551 12.9411 816 116.702 1223.33 489.678
1569 0 65.1407 12.9873 846 117.695 1222.02 488.604
1570 0 67.0347 13.0679 876 117.304 1222.44 487.389
1571 0 70.0631 13.0882 917 116.72 1223.89 486.619
1572 0 70.0631 13.0882 917 171.689 1225.89 486.619
1573 0 76.094 13.3913 1019 113.143 1220.99 484.029
1574 0 77.1791 13.3197 1028 113.839 1224.08 481.904
1575 0 79.1526 13.5182 1070 115.233 1223.9 480.686
1576 0 84.0763 13.3331 1121 116.616 1222.8 479.665
1577 0 87.1009 13.0653 1138 117.686 1223.58 477.825
1578 0 91.1288 13.2889 1211 115.916 1223.98 476.556
1579 0 95.19 13.2262 1259 116.743 1224.07 474.45
1580 0 95.0522 13.4873 1282 116.705 1223.75 474.084
1581 0 101.114 12.9359 1308 112.476 1222.64 471.729
1582 0 104.141 12.944 1348 111.583 1225.28 469.923
1583 0 108.135 13.3721 1446 107.999 1225.86 467.194
1584 1 56.0315 11.8505 664 107.023 1226.15 493.206
1585 0 57.0295 12.2393 698 112.907 1224.63 492.304
1586 0 59.0345 12.2301 722 110.305 1225.4 491.428
1587 0 60.034 12.7261 764 113.143 1227.48 490.492
1588 0 64.0362 12.1962 781 110.987 1227.19 489.575
1589 0 66.0457 12.5065 826 107.318 1225.45 487.987
1590 0 67.0551 12.4823 837 110.628 1225.28 486.572
1591 0 70.0484 12.4057 869 114.055 1223.22 485.15
1592 0 71.0877 12.7589 907 115.768 1225.55 484.401
1593 0 75.0881 12.3721 929 113.265 1226.82 483.414
1594 0 76.0514 12.6362 961 107.127 1225.42 482.209
1595 0 79.0836 12.5943 996 111.516 1223.71 480.41
1596 0 80.1433 13.0891 1049 113.731 1224.27 479.567
1597 0 85.108 12.678 1079 111.272 1223.23 478.718
1598 0 86.1194 12.8078 1103 109.983 1223.49 477.741
1599 0 90.0386 12.7723 1150 105.756 1225.92 476.417
1600 0 93.0998 12.4168 1156 99.7509 1224.43 475.228
1601 0 96.0695 12.7616 1226 124.679 1222.98 473.022
1602 0 98.2029 13.0444 1281 113.702 1223.12 471.781
1603 1 52.0208 11.8991 619 115.313 1224.38 494.179
1604 0 55.0646 11.5864 638 111.044 1225.88 493.853
1605 0 56.0785 11.5374 647 123.55 1223.96 492.876
1606 0 57.0826 11.7374 670 117.388 1222.86 492.702
1607 0 58.101 12.2201 710 116.515 1221.59 491.463
1608 0 62.0937 11.9175 740 114.978 1224 490.214
1609 0 63.0731 12.2239 771 113.445 1222.37 488.934
1610 0 66.0833 12.1967 806 116.509 1223.4 487.88
1611 0 68.0544 12.1814 829 121.054 1221.82 487.526
1612 0 69.0611 12.1342 838 114.069 1221.9 486.956
1613 0 72.0581 12.4344 896 111.18 1224.06 485.74
1614 0 72.0581 12.4344 896 171.628 1226.06 485.74
1615 0 77.0767 12.9352 997 120.589 1223.25 482.678
1616 0 80.0967 12.6222 1011 121.114 1223.6 481.984
1617 0 81.07 12.8901 1045 116.672 1225.1 480.579
1618 0 82.0722 13.0495 1071 120.88 1224.02 479.216
1619 0 85.1217 12.9462 1102 115.535 1224.79 477.659
1620 0 90.0361 12.7171 1145 112.582 1223.92 476.025
1621 0 93.0902 12.6974 1182 113.32 1223.22 475.22
1622 0 95.0971 12.9026 1227 114.239 1224.16 473.075
1623 0 98.0977 12.8749 1263 107.933 1223.63 471.191
1624 0 102.133 12.3467 1261 102.883 1223.37 470.429
1625 0 104.071 12.8662 1339 102.549 1222.25 469.187
1626 1 57.0523 11.7261 669 100.381 1223.1 492.614
1627 0 59.0202 11.9451 705 99.0582 1222.68 491.302
1628 0 61.0621 11.693 714 97.0308 1223.54 490.66
1629 0 61.0526 12.1862 744 102.067 1223.24 489.456
1630 0 64.0981 12.0752 774 100.366 1223.16 489.057
1631 0 66.0664 11.8214 781 102.292 1222.88 488.177
1632 0 68.052 12.0937 823 104.107 1221.63 486.552
1633 0 71.0486 12.0059 853 99.5522 1224.04 485.523
1634 0 73.0969 11.8473 866 98.8672 1223.19 484.962
1635 0 74.0712 12.0965 896 100.53 1223.15 483.342
1636 0 76.0544 12.2412 931 108.17 1222.23 482.255
1637 0 76.0544 12.2412 931 156.569 1221.23 482.255
1638 0 83.2812 12.0675 1005 103.765 1223.86 479.727
1639 0 85.0629 12.2262 1040 104.17 1223.56 478.509
1640 0 87.0623 12.359 1076 104.513 1222.22 477.664
1641 0 89.196 12.6463 1128 109.137 1222.25 475.437
1642 0 93.1294 12.4451 1159 108.615 1222.83 474.105
1643 0 95.1131 12.6796 1206 101.82 1223.45 472.14
1644 0 98.2628 12.5683 1235 102.339 1225.6 471.126
1645 0 101.084 12.6529 1279 95.9202 1222.86 469.837
1646 1 57.0666 11.4253 652 101.587 1223.31 492.133
1647 0 59.0717 11.8839 702 118.802 1224.39 491.107
1648 0 60.0859 12.1326 729 119.193 1224.44 490.587
1649 0 64.0246 11.9017 762 108.823 1224.23 489.375
1650 0 65.0749 12.0477 784 110.448 1224.07 488.454
1651 0 67.0631 11.7501 788 115.011 1225.19 488.325
1652 0 68.0361 12.17 828 111.295 1225.58 486.912
1653 0 73.0453 12.1295 886 109.423 1224.04 484.755
1654 0 75.1032 12.0767 907 110.085 1226.23 483.553
1655 0 77.0924 12.4915 963 112.593 1225.37 482.475
1656 0 77.0601 12.4838 962 116.374 1224.36 481.553
1657 0 77.0601 12.4838 962 152.456 1223.36 481.553
1658 0 86.1056 11.8227 1018 111.114 1225.21 478.305
1659 0 88.0765 12.5119 1102 107.339 1224.27 477.299
1660 0 91.0862 12.7023 1157 100.78 1223.67 476.096
1661 0 94.0392 12.7713 1201 97.8193 1223.24 474.217
1662 0 98.0997 12.681 1244 108.948 1223.58 472.909
1663 1 51.0159 11.4474 584 109.572 1224.33 494.366
1664 0 52.0632 12.1967 635 99.8331 1225.34 493.413
1665 0 55.0716 12.057 664 100.732 1225.61 493.178
1666 0 55.0352 12.4284 684 102.379 1224.57 492.053
1667 0 57.0693 11.9854 684 99.1184 1224.94 491.573
1668 0 59.1234 12.0933 715 106.154 1223.37 490.849
1669 0 62.0881 11.6609 724 120.439 1224.43 490.097
1670 0 61.0667 12.5928 769 123.576 1224.81 488.918
1671 0 65.1021 12.1502 791 124.277 1223.51 487.761
1672 0 65.0671 12.3411 803 123.091 1222.32 488.237
1673 0 68.0693 12.5313 853 126.193 1223.71 486.945
1674 0 71.0784 12.2541 871 122.268 1222.18 486.076
1675 0 73.0409 12.4314 908 117.891 1224.33 484.824
1676 0 74.0754 12.5953 933 119.2 1223.51 483.81
1677 0 78.089 12.601 984 106.016 1224.6 481.925
1678 0 80.0529 12.9414 1036 104.798 1225.02 480.837
1679 0 81.0587 12.9782 1052 110.392 1225.52 480.431
1680 0 85.1948 12.7355 1085 113.657 1223.56 478.923
1681 0 87.1088 12.8345 1118 106.486 1224.26 477.58
1682 0 88.1522 13.1591 1160 47.6534 1225.04 476.072
1683 0 94.1326 13.0985 1233 105.541 1224.06 474.311
1684 0 95.1402 13.0019 1237 107.536 1222.24 473.423
1685 0 99.1118 13.4192 1330 106.917 1223.52 471.368
1686 0 102.124 12.9059 1318 108.164 1220.67 470.421
1687 0 106.182 12.9212 1372 102.653 1221.69 468.885
1688 1 57.1246 11.5362 659 103.737 1223.14 492.933
1689 0 60.0659 12.0534 724 101.087 1221.48 491.62
1690 0 62.0674 12.2125 758 100.575 1221.86 490.123
1691 0 63.1063 11.8372 747 98.7229 1223.06 490.71
1692 0 66.1508 12.0482 797 97.8281 1223.36 488.709
1693 0 67.0511 12.5874 844 99.6493 1225.71 487.283
1694 0 68.0751 12.6919 864 99.1875 1224.5 486.977
1695 0 72.1096 12.2314 882 95.1893 1224.47 486.728
1696 0 74.0554 12.7337 943 99.2047 1222.99 483.968
1697 0 75.1152 12.9135 970 107.673 1222.63 482.985
1698 0 79.0765 12.4436 984 104.981 1221.55 481.582
1699 0 82.1092 12.6661 1040 107.603 1222.68 480.664
1700 0 84.2589 12.6396 1065 111.14 1223.13 478.88
1701 0 88.0614 12.321 1085 98.7659 1223.51 477.919
1702 0 91.0781 12.5936 1147 106.248 1222.46 475.925
1703 1 49.0524 11.2737 553 100.116 1220.78 495.602
1704 0 50.1168 11.2138 562 101.591 1223.94 495.728
1705 0 53.039 12.1986 647 93.5487 1223.76 494.261
1706 0 54.0308 12.0857 653 94.1593 1224.17 493.484
1707 0 56.1038 12.3521 693 92 1222.99 492.986
1708 0 55.0458 12.2444 674 101.328 1223.49 492.479
1709 0 59.0929 12.2011 721 104.784 1222.65 491.58
1710 0 61.0622 12.43 759 102.499 1221.57 490.025
1711 0 64.0736 11.9706 767 102.215 1222.33 489.081
1712 0 65.0491 12.1447 790 105.186 1222.68 488.184
1713 0 66.0943 12.6789 838 109.64 1222.62 486.933
1714 0 70.0443 12.5349 878 108.071 1221.49 485.913
1715 0 72.0954 12.4141 895 109.121 1223.56 484.742
1716 0 74.0702 12.7447 944 103.733 1222.51 483.59
1717 0 75.0803 12.813 962 95.2162 1222.45 482.89
1718 0 78.0954 12.7536 996 100.04 1222.6 481.631
1719 0 80.1107 12.4453 997 99.8174 1225.01 480.684
1720 0 83.1718 12.4802 1038 94.9721 1222.89 478.984
1721 0 86.1085 12.5539 1081 99.1656 1222.32 477.502
1722 0 88.1108 12.7113 1120 94.8679 1225.15 475.854
1723 0 92.1082 12.3876 1141 95.5478 1223.93 474.198
1724 1 50.0724 10.8443 543 102.832 1223.17 495.302
1725 0 54.1084 11.0334 597 102.704 1222.87 494.57
1726 0 55.0817 11.5828 638 103.817 1221.83 493.113
1727 0 57.1289 11.6228 664 113.31 1224.31 492.774
1728 0 58.031 12.1142 703 119.572 1222.36 491.644
1729 0 60.0413 12.2582 736 121.698 1223.24 491.315
1730 0 61.0277 12.4206 758 122.586 1222.67 490.43
1731 0 64.012 12.2946 787 117.008 1220.88 488.742
1732 0 65.0423 12.2228 795 115.799 1222.54 488.618
1733 0 65.0423 12.2228 795 158.946 1223.54 488.618
1734 0 70.1464 12.4739 875 111.887 1225.14 486.601
1735 0 72.0945 12.2755 885 106.581 1224.27 485.765
1736 0 75.1326 12.1918 916 120.052 1223.33 484.253
1737 0 75.1326 12.1918 916 155.658 1222.33 484.253
1738 0 79.0736 12.52 990 99.9232 1223.17 481.016
1739 0 82.1248 12.8463 1055 98.1014 1224.8 480.197
1740 0 84.1058 12.6388 1063 98.1674 1224 478.56
1741 0 86.0819 13.0341 1122 117.018 1224 477.701
1742 0 86.1648 13.0564 1125 115.703 1223 476.891
1743 0 91.2207 13.2207 1206 118.543 1224.85 474.933
1744 0 95.2674 13.3309 1270 103.928 1222.91 473.652
1745 0 98.2064 13.0643 1283 100.784 1222.43 472.188
1746 0 102.135 12.9045 1318 99.8392 1223.38 470.055
1747 0 105.111 12.9482 1361 101.595 1223.47 468.714
1748 0 109.207 13.0578 1426 105.237 1221.72 467.357
1749 0 111.139 12.9567 1440 109.146 1223.27 465.155
1750 0 116.151 13.4222 1559 101.264 1222.98 463.372
1751 1 67.1336 12.4081 833 104.505 1224.31 487.878
1752 0 68.0344 13.0228 886 117.825 1224.38 486.545
1753 0 73.1325 12.3885 906 115.437 1222.88 484.896
1754 0 75.0862 12.3991 931 112.29 1224.11 483.772
1755 0 78.128 12.6971 992 110.587 1223.96 481.969
1756 0 81.0915 12.603 1022 111.245 1224.46 480.331
1757 0 83.0602 12.8581 1068 105.732 1224.31 479.56
1758 0 86.1703 12.5333 1080 104.694 1221.73 478.104
1759 0 89.1154 12.8822 1148 105.024 1220.78 476.206
1760 0 92.0629 12.5132 1152 105.67 1222.72 475.206
1761 0 95.0933 12.6613 1204 104.769 1221.91 473.533
1762 0 100.173 12.8578 1288 101.369 1222.2 471.874
1763 1 51.0664 11.0444 564 104.374 1221.55 496.186
1764 0 55.0841 11.3826 627 99.1499 1220.93 494.774
1765 0 55.0622 11.8048 650 100.402 1220.61 493.551
1766 0 55.0622 11.8048 650 158.7 1219.61 493.551
1767 0 59.0492 12.1594 718 111.614 1221.39 491.655
1768 0 61.1371 11.8586 725 118.103 1222.37 491.821
1769 0 61.059 12.7582 779 117.815 1220.32 490.893
1770 0 63.0626 12.2418 772 115.084 1219.56 489.394
1771 0 65.0634 12.3725 805 125.03 1221.71 488.164
1772 0 68.0856 12.073 822 126.049 1222.48 487.482
1773 0 70.0422 12.6923 889 123.767 1223.04 485.996
1774 0 72.0935 12.789 922 122.877 1222.31 484.889
1775 0 74.0718 13.0279 965 121.981 1221.9 484.228
1776 0 76.0876 12.893 981 121.704 1220.26 482.788
1777 0 79.0921 12.5676 994 127.391 1221.19 481.997
1778 0 80.0492 12.6422 1012 119.46 1223.32 480.903
1779 0 81.0651 13.3843 1085 115.538 1221.71 480.124
1780 0 86.1914 13.0871 1128 117.366 1219.41 478.174
1781 0 87.1492 13.2072 1151 120.632 1220.94 476.854
1782 0 91.1586 13.3284 1215 120.105 1221.29 475.364
1783 0 93.1315 13.4434 1252 121.391 1220.21 473.316
1784 0 98.1237 13.6257 1337 119.521 1222.61 471.141
1785 0 98.1932 13.8401 1359 118.845 1221.72 470.412
1786 0 104.254 13.2273 1379 121.988 1223.6 469.294
1787 1 54.0353 12.2883 664 127.901 1222.85 492.946
1788 0 56.1133 12.5995 707 119.041 1222.03 492.021
1789 0 58.0801 12.4655 724 121.693 1221.63 490.804
1790 0 60.0856 12.5488 754 119.325 1220.94 490.797
1791 0 62.0487 12.7481 791 114.731 1222.43 489.156
1792 0 63.0696 12.7954 807 117.42 1223.03 487.762
1793 0 67.1206 12.2764 824 113.981 1222.25 487.267
1794 0 68.128 12.5499 855 112.664 1221.99 485.526
1795 0 71.0755 12.5641 893 118.286 1222.12 485.03
1796 0 71.0696 13.0576 928 115.984 1221.78 484.01
1797 0 73.071 13.3158 973 113.838 1222.79 482.441
1798 0 76.1672 12.8796 981 112.833 1221.84 481.313
1799 0 79.1825 13.0205 1031 123.203 1221.91 480.306
1800 0 81.1807 12.7986 1039 124.791 1221.17 479.628
1801 0 85.2201 13.1542 1121 123.526 1222.78 478.122
1802 0 87.1154 12.9139 1125 118.476 1223.44 476.744
1803 0 90.2398 12.9211 1166 112.709 1222.66 475.299
1804 0 92.1245 13.0584 1203 123.647 1223.43 474.572
1805 0 96.2092 13.2732 1277 119.073 1220.89 472.558
1806 0 99.2092 13.2951 1319 123.33 1221.37 470.185
1807 0 103.117 13.218 1363 121.917 1220.49 469.481
1808 1 57.086 11.9118 680 126.018 1222.33 492.465
1809 0 59.0391 12.3816 731 116.892 1221.5 491.382
1810 0 61.1362 12.7093 777 114.29 1221.91 490.566
1811 0 62.2012 12.6525 787 114.061 1222.13 489.662
1812 0 64.2015 12.7567 819 118.542 1223 489.138
1813 0 67.2188 12.7197 855 115.273 1223.83 486.964
1814 0 67.2078 13.2574 891 13.9169 1223.97 486.155
1815 0 69.1349 13.5243 935 115.031 1222.29 485.549
1816 0 71.0424 13.1612 935 112.849 1225.18 483.988
1817 0 74.0692 13.2984 985 105.659 1223.5 482.538
1818 0 76.1082 13.1129 998 104.969 1225.76 482.016
1819 0 79.1564 13.2396 1048 108.501 1222.86 480.6
1820 0 83.1989 13.2454 1102 110.898 1222.71 478.962
1821 0 85.1467 13.3064 1133 107.84 1222.38 477.402
1822 0 90.2963 12.913 1166 107.237 1222.96 475.859
1823 0 90.1297 13.7136 1236 105.627 1222.99 474.832
1824 1 51.1229 11.7364 600 103.523 1221.41 494.68
1825 0 52.0843 11.827 616 106.07 1224.39 494.106
1826 0 55.117 12.156 670 110.076 1222.78 492.961
1827 0 57.0628 12.4775 712 102.785 1223.67 491.669
1828 0 57.1002 13.0648 746 100.552 1222.24 490.676
1829 0 58.0754 12.7593 741 103.142 1225.19 490.238
1830 0 61.1829 12.4381 761 104.707 1224.68 489.452
1831 0 61.108 13.0752 799 103.2 1224.42 488.464
1832 0 65.0692 13.0169 847 105.439 1223.92 487.414
1833 0 67.0841 13.0582 876 102.878 1222.26 485.75
1834 0 69.0921 13.0695 903 106.791 1223.3 485.44
1835 0 72.2401 12.9706 937 104.887 1222.93 484.684
1836 0 72.0811 13.4709 971 92.4923 1222.59 483.273
1837 0 76.185 13.1391 1001 94.6643 1223.73 482.185
1838 0 79.2129 13.3943 1061 99.3384 1222.93 481.627
1839 0 82.0972 13.3378 1095 90.9808 1222.17 479.859
1840 0 85.1398 13.2018 1124 100.281 1223.91 478.028
1841 0 88.0964 13.3604 1177 95.5353 1222.48 476.962
1842 0 92.2092 13.4802 1243 96.8946 1223.39 475.299
1843 0 95.1474 13.0114 1238 97.4814 1224.97 473.896
1844 0 95.1474 13.0114 1238 172.96 1226.97 473.896
1845 0 95.1474 13.0114 1238 172.96 1228.97 473.896
1846 0 95.1474 13.0114 1238 172.96 1230.97 473.896
1847 1 57.0568 12.4963 713 101.704 1222.18 491.628
1848 0 57.0568 12.4963 713 177.133 1212.18 491.628
1849 0 60.0205 12.9456 777 104.972 1222.54 490.949
1850 0 60.1332 12.9546 779 104.023 1223.74 490.564
1851 0 63.0972 13.2653 837 103.215 1223.74 488.631
1852 0 68.0732 12.8979 878 105.261 1223.34 487.13
1853 0 68.136 13.1795 898 98.0067 1222.44 486.242
1854 0 70.0653 13.0878 917 102.222 1223.23 485.022
1855 0 73.048 13.1968 964 101.478 1223.73 483.93
1856 0 77.1596 13.2582 1023 99.4614 1224.48 482.51
1857 0 78.0792 13.0509 1019 96.894 1223.97 481.425
1858 0 81.0772 13.111 1063 108.86 1222.7 480.182
1859 0 85.1464 12.8954 1098 106.859 1222.66 479.056
1860 0 86.0538 13.3521 1149 111.218 1222.53 476.964
1861 0 92.0874 13.0311 1200 114.373 1222.9 475.046
1862 0 94.0916 13.37 1258 109.714 1223.88 472.989
1863 0 98.0841 12.8767 1263 111.738 1223.05 471.585
1864 1 52.0832 11.7888 614 111.78 1222.91 492.961
1865 0 55.0687 12.1303 668 107.383 1221.58 492.094
1866 0 56.0734 11.9486 670 104.621 1222.56 491.461
1867 0 59.068 12.511 739 108.793 1222.55 490.629
1868 0 60.0642 12.3202 740 111.305 1223.05 490.37
1869 0 61.0566 12.6113 770 124.46 1222.51 489.355
1870 0 64.0518 12.5211 802 123.921 1222.78 488.172
1871 0 67.0729 12.643 848 110.571 1224.15 486.919
1872 0 66.0618 12.9878 858 121.239 1224.04 486.388
1873 0 71.0503 12.3012 874 121.376 1223.35 486.121
1874 0 74.0705 12.8121 949 118.512 1225.21 483.741
1875 0 74.032 12.8323 950 126.613 1227.18 482.482
1876 0 77.1051 12.3987 956 127.836 1223.88 481.986
1877 0 81.1272 12.7701 1036 129.42 1224.31 480.383
1878 0 81.1272 12.7701 1036 167.34 1224.31 480.383
1879 0 87.0463 12.3957 1079 133.566 1222.88 477.559
1880 0 88.0514 12.7085 1119 129.117 1222.81 476.089
1881 1 51.0203 11.2896 576 132.028 1223.24 494.543
1882 0 52.0412 11.4525 596 120.96 1222.47 493.681
1883 0 52.0461 12.4505 648 122.333 1223.91 492.529
1884 0 55.0353 12.4647 686 120.662 1222.73 491.662
1885 0 58.0588 12.074 701 120.535 1221.95 491.713
1886 0 58.123 12.2843 714 116.818 1221.79 490.342
1887 0 62.07 12.1476 754 120.462 1222.13 489.802
1888 0 64.0887 12.3891 794 117.644 1222.18 488.94
1889 0 65.0186 12.6272 821 114.519 1222.14 487.68
1890 0 65.0228 12.4879 812 122.353 1224.61 486.096
1891 0 69.0499 12.7299 879 121.286 1222.91 485.225
1892 0 71.1824 12.9245 920 112.303 1222.45 485.701
1893 0 73.0654 12.5914 920 117.095 1223.91 484.003
1894 0 76.0398 12.8748 979 116.715 1223.92 483.065
1895 0 78.1166 12.635 987 117.899 1220.94 482.481
1896 0 81.0343 13.1056 1062 116.122 1222.05 479.226
1897 0 85.0659 12.4727 1061 111.664 1222.4 478.638
1898 0 87.0857 12.6542 1102 111.009 1221.65 477.106
1899 0 90.1802 12.7855 1153 112.631 1221.84 475.032
1900 0 94.2654 12.5815 1186 110.185 1222.65 474.017
1901 1 53.0282 11.4845 609 121.007 1222.61 494.11
1902 0 53.0617 11.8541 629 115.353 1221.52 493.545
1903 0 54.0782 12.3525 668 134.305 1220.63 492.522
1904 0 58.1762 11.8777 691 135.34 1221.73 491.185
1905 0 61.0616 12.0534 736 142.474 1221.55 489.806
1906 0 63.179 12.2826 776 133.871 1221.06 488.839
1907 0 65.0586 11.9738 779 139.415 1223.66 487.674
1908 0 66.1084 11.9198 788 146.019 1222.54 486.868
1909 0 69.08 12.073 834 141.125 1224.34 485.399
1910 0 72.0746 12.1818 878 140.986 1224 483.833
1911 0 74.0166 12.5377 928 134.252 1224.15 482.24
1912 0 78.1237 12.237 956 137.626 1223.4 481.172
1913 0 80.0371 12.2818 983 135.503 1224.02 479.885
1914 0 84.1305 12.338 1038 123.048 1223.6 478.434
1915 0 87.1041 12.2956 1071 141.482 1222.59 477.184
1916 0 90.089 12.6431 1139 136.501 1220.42 475.902
1917 1 47.054 11.4549 539 136.757 1221.95 495.673
1918 0 50.0506 11.9079 596 128.332 1222.12 495.092
1919 0 52.0361 11.665 607 140.015 1221.35 494.46
1920 0 53.1084 11.6178 617 137.005 1222.15 494.068
1921 0 53.0191 11.8825 630 138.438 1222.19 493.559
1922 0 56.0655 12.2 684 81.3962 1221.27 492.287
1923 0 56.0537 12.2918 689 136.023 1221.89 491.107
1924 0 59.0778 12.2381 723 138.26 1222.48 490.942
1925 0 60.0782 12.2673 737 136.543 1222 489.84
1926 0 62.0437 12.3139 764 145.196 1221.71 489.524
1927 0 65.042 12.4535 810 139.717 1222.49 488.238
1928 0 65.0343 12.455 810 138.075 1221.16 488.028
1929 0 67.0716 12.9116 866 142.702 1223.58 486.792
1930 0 70.161 12.8276 900 140.477 1222.72 484.631
1931 0 71.2074 12.8217 913 145.875 1223.07 483.093
1932 0 73.11 12.4607 911 139.613 1224.08 482.393
1933 0 75.1532 12.7872 961 142.528 1223.43 481.38
1934 0 80.3336 12.4481 1000 136.818 1222.04 480.607
1935 0 81.1067 12.5514 1018 139.63 1222.74 478.54
1936 0 84.199 12.5655 1058 141.35 1223.4 477.563
1937 0 86.1538 12.6982 1094 142.602 1223.4 477.24
1938 1 45.0375 11.2795 508 143.449 1222.21 496.961
1939 0 47.0561 11.5607 544 138.507 1222.57 495.684
1940 0 47.1323 12.4967 589 136.183 1222.94 494.896
1941 0 51.1034 12.4258 635 127.794 1222.63 494.126
1942 0 51.1034 12.4258 635 170.649 1221.63 494.126
1943 0 51.1034 12.4258 635 170.649 1220.63 494.126
1944 0 53.1014 12.9752 689 131.745 1222.81 491.711
1945 0 56.0828 12.6955 712 141.369 1221.47 490.07
1946 0 56.0828 12.6955 712 167.037 1220.47 490.07
1947 0 60.0673 12.8023 769 138.203 1224.92 489.581
1948 0 61.0764 12.9183 789 142.8 1223.37 489.117
1949 0 62.1094 13.2025 820 138.17 1224.03 487.559
1950 0 63.1518 13.3646 844 143.679 1223.19 487.493
1951 0 65.1019 13.2101 860 144.44 1223.09 486.342
1952 0 68.1544 13.2053 900 143.698 1224.26 485.378
1953 0 70.088 13.1692 923 139.739 1224.6 484.412
1954 0 71.1343 13.5518 964 137.213 1223.32 484.021
1955 0 73.1315 13.5373 990 131.199 1223.09 482.591
1956 0 75.0985 13.7419 1032 147.834 1222.82 481.633
1957 0 78.2844 13.4382 1052 141.779 1224.9 480.055
1958 0 79.2056 13.4334 1064 139.878 1222.55 478.947
1959 0 83.1547 13.6733 1137 144.864 1222 478.574
1960 0 84.1055 14.0776 1184 145.454 1222.71 477.036
1961 0 88.1674 13.8487 1221 141.195 1224.41 475.365
1962 0 90.1725 13.452 1213 139.921 1224.4 473.694
1963 0 93.123 13.4983 1257 146.28 1224.62 472.711
1964 0 96.1212 13.4726 1295 149.137 1223.45 471.263
1965 0 100.123 13.4234 1344 146.996 1223.97 470.228
1966 1 54.0803 12.4075 671 146.931 1222.71 493.14
1967 0 54.0757 13.0373 705 144.872 1221.72 491.936
1968 0 54.0811 12.8141 693 148.925 1222.92 492.019
1969 0 54.0811 12.8141 693 167.815 1223.92 492.019
1970 0 58.0722 13.0699 759 136.564 1221.79 489.466
1971 0 60.056 13.0545 784 137.091 1222.83 488.327
1972 0 60.056 13.0545 784 166.578 1223.83 488.327
1973 0 66.0817 12.8931 852 144.353 1221.33 485.951
1974 0 66.1468 13.2735 878 141.653 1222.79 485.274
1975 0 69.1151 12.8771 890 144.682 1223.41 483.451
1976 0 72.1269 12.4087 895 141.155 1223.45 482.412
1977 0 75.0796 12.7332 956 137.429 1223.72 481.301
1978 0 78.0734 12.6932 991 129.76 1224.63 480.523
1979 0 79.0988 13.047 1032 129.285 1223.65 478.65
1980 1 43.0136 11.7637 506 136.435 1222.47 496.354
1981 0 46.0316 12.209 562 130.911 1222.24 495.477
1982 0 47.0193 12.5268 589 131.107 1222.74 494.426
1983 0 49.0462 12.4169 609 120.212 1222.96 493.86
1984 0 51.0639 12.0437 615 123.437 1223.47 493.392
1985 0 52.0378 11.9913 624 116.646 1223 493.159
1986 0 54.1589 12.2233 662 112.595 1221.84 491.399
1987 0 56.0354 12.7241 713 116.311 1223.08 490.942
1988 0 55.0938 12.996 716 110.461 1223.77 490.534
1989 0 59.0644 12.3763 731 116.408 1223.72 489.466
1990 0 61.1288 13.0544 798 113.054 1223.74 488.455
1991 0 63.0207 12.8053 807 117.359 1224.21 488.341
1992 0 66.0859 12.3324 815 115.504 1223.92 486.84
1993 0 66.1889 13.2348 876 108.12 1224.34 485.328
1994 0 70.0427 12.7494 893 112.957 1221.85 484.05
1995 0 72.049 12.6719 913 111.312 1222.78 483.097
1996 0 72.0579 13.1006 944 110.88 1220.48 481.953
1997 0 78.1055 12.6496 988 108.564 1223.19 480.518
1998 0 78.1055 12.6496 988 161.144 1225.19 480.518
1999 0 83.1426 12.7973 1064 115.852 1222.02 477.726
2000 0 86.0695 12.9314 1113 111.751 1222.39 475.867
2001 0 89.1089 12.7597 1137 109.6 1221.82 474.734
2002 0 93.2187 12.7764 1191 103.148 1225.74 473.62
2003 1 54.0864 10.9639 593 115.175 1224.09 491.583
2004 0 54.0864 10.9639 593 153.912 1224.09 491.583
2005 0 56.1207 11.5287 647 114.983 1222.83 489.893
2006 0 60.1163 11.5443 694 122.11 1224.13 489.354
2007 0 61.0379 11.7632 718 112.954 1221.89 488.922
2008 0 63.0395 11.9132 751 116.437 1222.19 488.68
2009 0 64.1322 12.3027 789 118.594 1223.18 487.535
2010 0 67.1284 11.9175 800 119.596 1222.21 486.482
2011 0 68.1104 12.0099 818 116.529 1221 485.054
2012 0 72.032 11.842 853 120.421 1222.29 483.825
2013 0 74.0692 12.1508 900 116.349 1222.27 482.382
2014 0 75.1296 12.2987 924 115.434 1223.19 481.252
2015 0 79.0216 12.2498 968 121.801 1224.96 479.796
2016 0 82.0838 11.9268 979 114.661 1222.56 479.078
2017 0 83.0508 12.5827 1045 110.5 1222.62 477.75
2018 0 88.0502 12.3112 1084 112.229 1222.69 475.812
2019 0 89.109 12.3108 1097 114.359 1222.23 474.603
2020 1 48.1001 11.3097 544 111.43 1221.26 494.085
2021 0 53.0964 11.0365 586 108.287 1221.42 494.009
2022 0 53.0446 11.6883 620 106.574 1221.67 492.794
2023 0 56.0525 11.8282 663 108.256 1220.58 491.499
2024 0 58.0188 11.7376 681 112.686 1220.93 490.959
2025 0 59.0782 12.1365 717 108.498 1222.17 489.308
2026 0 61.1968 12.0921 740 113.595 1221.65 489.841
2027 0 63.1649 12.5386 792 109.167 1220.84 487.952
2028 0 62.1505 12.6306 785 108.662 1222.87 487.929
2029 0 65.2326 12.7084 829 121.767 1223.33 487.186
2030 0 66.1205 12.6285 835 116.365 1221.32 485.966
2031 0 71.0792 12.4087 882 117.222 1221.01 483.72
2032 0 73.11 12.7479 932 121.777 1221.53 483.339
2033 0 76.2131 12.7668 973 118.035 1221.73 481.877
2034 0 75.1436 13.401 1007 121.234 1223.05 480.865
2035 0 79.1681 12.8966 1021 125.865 1222.72 480.512
2036 0 82.1608 13.0841 1075 122.883 1222.87 479.667
2037 0 84.1246 13.0164 1095 123.215 1222.7 478.111
2038 0 87.0568 13.2672 1155 123.562 1223.27 476.597
2039 0 90.0992 13.2632 1195 121.379 1222.46 474.826
2040 0 93.2426 13.2128 1232 117.672 1223.66 474.192
2041 0 95.0841 13.4513 1279 123.465 1223.97 473.104
2042 0 98.0736 13.5816 1332 128.143 1224.54 470.587
2043 0 98.0736 13.5816 1332 170.176 1225.54 470.587
2044 0 105.166 13.3693 1406 128.529 1224.21 468.684
2045 0 108.209 13.2151 1430 125.567 1222.69 465.637
2046 0 111.247 13.3307 1483 123.681 1221.76 464.535
2047 1 61.1339 11.7284 717 129.047 1224.13 489.93
2048 0 63.0589 12.1474 766 122.211 1222.9 488.625
2049 0 65.0844 12.0613 785 124.083 1222.52 487.845
2050 0 67.1891 12.2937 826 124.814 1222.33 485.507
2051 0 71.1685 11.9856 853 125.233 1222.96 484.858
2052 0 74.064 12.3137 912 118.143 1221.93 483.292
2053 0 75.1016 12.29 923 114.894 1222.61 483.046
2054 0 78.1717 12.1527 950 119.055 1222.1 482.028
2055 0 81.1127 12.3778 1004 118.329 1220.63 479.568
2056 0 83.09 12.4564 1035 119.322 1222.83 478.814
2057 0 87.1559 12.4031 1081 113.833 1221.06 477.435
2058 0 89.1348 12.7784 1139 118.551 1221.51 476.179
2059 0 90.0946 12.5202 1128 113.48 1222.45 475.4
2060 0 95.0938 12.6086 1199 106.576 1218.33 473.579
2061 0 97.1119 12.4907 1213 103.188 1219.34 472.54
2062 0 102.128 12.4157 1268 103.009 1221.47 470.726
2063 1 56.1757 12.0871 679 127.738 1220.81 492.1
2064 0 60.1129 12.3767 744 124.81 1220.43 490.195
2065 0 60.1129 12.3767 744 171.188 1219.43 490.195
2066 0 63.1484 12.5419 792 124.461 1220.04 488.628
2067 0 65.1539 12.5088 815 128.01 1220.53 487.61
2068 0 67.0426 12.5741 843 124.687 1222.34 486.907
2069 0 68.0775 12.9411 881 125.84 1220.45 485.303
2070 0 72.0806 12.8329 925 124.735 1221.76 484.468
2071 0 73.1653 12.916 945 122.108 1222 483.259
2072 0 76.0947 13.1021 997 120.68 1221.97 482.441
2073 0 79.0924 12.9216 1022 122.508 1223.75 480.742
2074 0 82.1205 12.9687 1065 122.277 1223.21 479.362
2075 0 85.1771 12.8556 1095 120.775 1223.75 476.944
2076 0 88.186 12.9272 1140 119.082 1223.35 476.021
2077 0 89.1256 13.3071 1186 121.973 1222.19 474.691
2078 0 95.1554 13.1259 1249 119.475 1221.71 473.126
2079 1 52.0522 12.2377 637 122.339 1221.42 493.476
2080 0 53.0265 12.5786 667 120.169 1223.33 492.804
2081 0 56.0865 12.5342 703 116.343 1223.81 492.249
2082 0 58.0757 12.2599 712 120.928 1223.04 491.555
2083 0 59.0634 12.6136 745 119.86 1221.75 490.272
2084 0 60.1302 12.6559 761 119.436 1224.4 489.001
2085 0 63.0889 12.9975 820 117.087 1223.28 488.161
2086 0 65.0861 12.7062 827 114.445 1222.91 487.803
2087 0 67.115 12.933 868 116.078 1223.37 486.66
2088 0 68.1138 13.0957 892 113.187 1225 485.718
2089 0 70.0816 12.9135 905 113.106 1224.25 484.305
2090 0 72.1609 12.8186 925 117.638 1223.09 483.136
2091 0 76.1455 12.8176 976 104.589 1222.7 482.347
2092 0 76.1147 12.9541 986 103.613 1222.59 481.374
2093 0 79.1509 13.0258 1031 108.1 1222.86 479.214
2094 0 83.1677 13.1782 1096 105.631 1221.31 477.761
2095 0 86.0991 13.0663 1125 106.552 1221.42 476.301
2096 0 90.1302 13.07 1178 106.154 1221.94 473.659
2097 0 92.185 12.9088 1190 101.427 1220.11 473.632
2098 0 97.1623 12.8136 1245 107.82 1221.31 470.767
2099 0 101.221 12.774 1293 105.633 1221.36 469.161
2100 0 103.165 12.6399 1304 107.219 1220.82 468.053
2101 1 56.0975 11.0878 622 106.334 1220.49 491.183
2102 0 58.0766 11.8637 689 97.4819 1222.67 489.759
2103 0 60.0744 11.6189 698 103.547 1222.53 489.017
2104 0 61.0589 11.8902 726 103.309 1222.7 488.559
2105 0 64.1253 11.6179 745 104.04 1222.15 486.478
2106 0 64.1253 11.6179 745 151.336 1222.15 486.478
2107 0 70.1267 11.7074 821 103.324 1221.06 484.792
2108 0 71.099 11.9973 853 99.3036 1221.1 483.801
2109 0 73.0937 12.2993 899 94.4772 1221.76 482.889
2110 0 76.0858 12.2099 929 97.0527 1222.44 481.55
2111 0 78.1144 12.2001 953 99.9486 1222.41 480.304
2112 0 82.0731 12.3061 1010 99.0713 1223.03 478.687
2113 0 84.093 12.2127 1027 98.443 1222.1 477.147
2114 0 88.172 12.022 1060 99.5264 1221.55 476.507
2115 0 90.1154 12.5173 1128 96.0319 1221.51 474.137
2116 1 51.0551 10.7335 548 95.4672 1222.62 494.035
2117 0 54.0255 11.5316 623 93.7978 1220.81 493.021
2118 0 54.0352 12.2883 664 94.8946 1221.04 492.078
2119 0 58.0579 12.3153 715 94.021 1223.76 490.13
2120 0 60.0385 11.7924 708 95.0678 1222.57 488.968
2121 0 63.076 11.6526 735 95.3633 1221.15 488.744
2122 0 64.0933 12.279 787 98.0851 1221.31 486.956
2123 0 66.2275 12.0343 797 97.2873 1222.21 487.035
2124 0 66.1234 12.5069 827 94.9444 1221.66 486.178
2125 0 69.0311 12.1829 841 93.9631 1223.57 484.973
2126 0 71.1749 12.6309 899 89.6919 1221.77 483.44
2127 0 73.1068 12.639 924 89.2727 1222.54 482.614
2128 0 74.1886 12.6704 940 94.5968 1222.19 481.777
2129 0 78.0496 12.5817 982 92.6395 1222.7 480.36
2130 0 81.3222 12.7886 1040 95.0308 1221.74 478.852
2131 0 84.0669 12.264 1031 95.7682 1222.27 477.804
2132 0 88.2492 12.4534 1099 94.9108 1222.64 476.181
2133 0 91.2408 12.593 1149 93.8346 1222.48 474.268
2134 0 93.1534 12.7532 1188 94.1035 1222 473.181
2135 0 97.1133 12.6965 1233 92.4347 1221.66 470.868
2136 0 101.088 12.6326 1277 92.7424 1222.53 469.061
2137 1 57.0979 11.8043 674 89.1439 1224.15 490.967
2138 0 59.1134 12.1292 717 92.0251 1221.74 489.392
2139 0 62.1009 12.85 798 91.0213 1222.69 487.921
2140 0 64.1109 12.2132 783 96.696 1221.66 487.241
2141 0 65.0825 12.6301 822 93.8455 1220.85 486.745
2142 0 66.159 12.8478 850 95.0529 1221.62 485.974
2143 0 70.1887 12.4094 871 91.1538 1222.22 484.455
2144 0 72.1636 12.6934 916 91.5917 1222.05 482.939
2145 0 73.3237 12.9017 946 91.5349 1223.47 482.446
2146 0 76.2333 12.9602 988 92.2429 1222.78 481.149
2147 0 78.2946 13.066 1023 91.131 1221.8 479.917
2148 0 82.2169 12.8684 1058 91.8752 1221.77 477.938
2149 0 86.1867 12.763 1100 91.5691 1221.95 476.493
2150 0 89.2603 12.8837 1150 92.8487 1222.4 475.141
2151 0 91.2136 12.7613 1164 92.4794 1221.91 473.706
2152 0 93.2674 12.9091 1204 94.8812 1222.04 472.076
2153 0 97.2412 13.41 1304 91.3006 1221.62 469.622
2154 0 101.339 13.144 1332 91.1592 1221.13 468.574
2155 0 104.188 12.9574 1350 96.8296 1220.89 467.566
2156 0 107.309 13.3353 1431 97.8288 1221.62 465.976
2157 0 112.167 13.2035 1481 93.7718 1221.13 463.269
2158 0 115.215 13.3402 1537 93.622 1220.57 461.504
2159 0 119.303 13.2269 1578 96.4766 1220.76 459.97
2160 0 121.251 13.3938 1624 97.7475 1220.81 457.748
2161 0 127.349 13.5847 1730 94.5642 1221.75 455.557
2162 0 130.2 13.2642 1727 96.6838 1222.86 453.896
2163 0 135.253 13.6855 1851 93.3593 1221.26 451.898
2164 0 140.183 13.8105 1936 93.3161 1220.26 448.426
2165 0 146.206 13.5083 1975 89.8278 1220.41 447.369
2166 1 78.1625 11.8983 930 89.8495 1222.88 480.318
2167 0 82.1369 12.4548 1023 90.393 1224.06 478.344
2168 0 84.2107 12.6943 1069 92.2872 1222.76 476.608
2169 0 86.162 13.1032 1129 88.4411 1221.7 475.431
2170 0 90.1209 12.9493 1167 89.3453 1222.6 474.271
2171 0 91.1399 12.991 1184 96.8226 1221.78 473.34
2172 0 96.1855 13.1309 1263 94.6104 1221.97 470.654
2173 0 99.2461 13.2197 1312 96.5846 1222.31 469.146
2174 0 103.238 12.97 1339 94.7356 1222.17 467.63
2175 0 105.129 13.317 1400 93.4336 1222.61 465.624
2176 0 109.151 13.156 1436 97.6386 1222.98 465.001
2177 0 112.218 13.055 1465 98.4608 1221.92 462.8
2178 0 117.155 12.8292 1503 98.6693 1222.06 460.948
2179 0 121.158 12.7107 1540 98.6552 1222.62 457.921
2180 0 125.13 12.9705 1623 94.8681 1222.15 456.381
2181 1 68.1153 11.4071 777 95.1596 1221.77 485.364
2182 0 69.0518 12.0924 835 92.2719 1222.7 484.745
2183 0 70.068 12.3166 863 96.2468 1221.2 483.056
2184 0 74.1908 12.3061 913 90.5904 1222.7 481.685
2185 0 76.0591 12.1879 927 96.7357 1224.09 480.082
2186 0 78.0981 12.3947 968 93.1157 1221.91 479.06
2187 0 80.1086 13.0698 1047 94.6609 1223.1 478.121
2188 0 83.0948 12.3594 1027 96.074 1221.58 477.331
2189 0 86.2175 12.6193 1088 94.5846 1221.75 475.92
2190 0 89.1642 12.6957 1132 98.1988 1221.88 474.156
2191 0 92.0756 12.7395 1173 98.6701 1221.87 473.403
2192 0 94.2243 13.0752 1232 94.7419 1221.64 471.846
2193 0 98.1315 12.8603 1262 102.444 1222.64 470.393
2194 0 101.07 13.0107 1315 93.4411 1221.68 468.705
2195 0 104.116 12.8895 1342 98.0194 1223.28 467.828
2196 0 105.124 13.4032 1409 101.045 1223.51 466.092
2197 0 109.128 13.223 1443 97.5385 1222.39 464.311
2198 0 114.154 13.5256 1544 99.489 1221.02 461.863
2199 0 116.186 13.4784 1566 98.2005 1223.74 460.872
2200 0 121.144 13.5872 1646 98.9417 1223.59 458.592
2201 0 124.362 13.5089 1680 101.486 1221.62 456.86
2202 0 129.275 13.4751 1742 103.29 1220.29 454.282
2203 0 135.299 13.8878 1879 102.655 1221.19 451.669
2204 1 75.0744 12.5476 942 104.4 1223.51 480.727
2205 0 80.0772 12.3756 991 103.243 1221.36 479.225
2206 0 82.1004 12.8258 1053 102.047 1221.26 477.988
2207 0 85.1639 12.6814 1080 98.4454 1221.28 476.784
2208 0 89.0914 12.8295 1143 95.1207 1221.47 474.544
2209 0 91.0943 12.8877 1174 97.7973 1222.62 473.578
2210 0 94.1454 13.0968 1233 98.3301 1223.86 472.627
2211 0 98.1461 12.9501 1271 96.1251 1223.75 470.415
2212 0 100.134 12.9327 1295 93.5259 1222.79 468.68
2213 0 105.091 12.9316 1359 95.9625 1222.55 467.542
2214 0 107.168 12.6624 1357 94.5696 1221.98 465.335
2215 0 110.196 13.2401 1459 92.4133 1221.45 464.288
2216 0 111.134 13.5242 1503 98.3886 1223.65 463.246
2217 0 114.215 13.4134 1532 99.374 1222.59 461.818
2218 0 120.231 13.158 1582 99.9709 1221.78 459.745
2219 0 123.14 13.3832 1648 94.1074 1221.61 457.148
2220 0 127.097 13.4464 1709 98.426 1221.93 456.057
2221 0 131.138 13.4667 1766 98.2673 1221.45 453.472
2222 1 73.1259 12.2939 899 99.2703 1222.63 481.721
2223 0 75.0503 12.5915 945 98.4688 1222.31 479.354
2224 0 78.315 12.935 1013 95.6387 1222.99 477.562
2225 0 79.0833 12.7966 1012 97.7698 1221.15 476.623
2226 0 79.0833 12.7966 1012 171.011 1219.15 476.623
2227 0 87.2451 12.7113 1109 96.2101 1223.81 473.794
2228 0 89.0929 12.9303 1152 94.1693 1223.06 472.103
2229 0 92.1243 12.7762 1177 91.2336 1222.62 470.626
2230 0 95.1414 13.296 1265 93.3455 1222.24 469.843
2231 0 99.183 13.2482 1314 92.4886 1222.71 468.126
2232 0 100.113 13.335 1335 90.803 1222.05 466.965
2233 0 105.151 13.0955 1377 90.4205 1221.25 466.118
2234 0 107.248 13.5387 1452 91.0227 1221.15 464.408
2235 0 110.227 13.5266 1491 92.1603 1223.59 463.501
2236 0 113.089 13.0605 1477 94.2911 1223.52 461.879
2237 0 115.088 13.3202 1533 92.0111 1223.03 460.954
2238 0 119.089 13.4353 1600 89.8088 1223.82 458.57
2239 0 123.087 13.5108 1663 90.6049 1223.45 456.796
2240 0 127.127 13.8523 1761 89.427 1222.48 454.532
2241 0 130.097 13.6129 1771 90.6002 1222.76 452.866
2242 0 134.156 13.6483 1831 93.3708 1223.53 451.105
2243 0 140.214 13.6506 1914 85.6139 1220.97 449.059
2244 0 146.236 13.2799 1942 86.4686 1221.39 445.814
2245 1 81.0821 11.9878 972 86.4403 1223.29 478.392
2246 0 83.1775 12.6236 1050 89.9248 1223.46 475.744
2247 0 86.0795 12.6046 1085 87.3926 1223.11 474.287
2248 0 89.1117 12.6022 1123 86.7355 1221.39 473.118
2249 0 93.1215 12.6072 1174 90.4072 1222.62 471.78
2250 0 95.1289 13.0455 1241 89.8171 1221.46 469.771
2251 0 99.0836 13.0496 1293 85.9768 1222.38 468.031
2252 0 103.267 13.1117 1354 89.4719 1222.73 466.639
2253 0 105.182 12.8349 1350 85.8615 1221.49 465.884
2254 0 108.114 13.1805 1425 89.2653 1220.81 463.818
2255 0 113.165 13.034 1475 89.6637 1222.24 461.861
2256 0 115.142 12.793 1473 88.3204 1221.75 461.064
2257 0 119.07 12.732 1516 89.7856 1221.26 458.249
2258 1 65.1433 11.2828 735 89.4544 1221.25 484.746
2259 0 67.0479 12.2897 824 89.267 1220 482.933
2260 0 72.0861 11.8192 852 86.8298 1221.97 481.404
2261 0 74.1116 12.1439 900 83.8111 1221.92 480.724
2262 0 76.0715 12.0807 919 85.6496 1222.68 479.779
2263 0 78.0732 12.1424 948 86.6941 1222.32 478.785
2264 0 80.0406 11.9689 958 85.8852 1223.8 477.787
2265 0 82.043 12.2131 1002 87.985 1223.62 476.82
2266 0 87.0639 12.6344 1100 83.7955 1224.6 474.953
2267 0 88.1086 12.3597 1089 78.4114 1223.29 473.947
2268 0 92.0808 12.5433 1155 83.5351 1224.12 472.167
2269 0 94.1322 12.5993 1186 85.4039 1223.16 470.757
2270 0 98.1098 12.853 1261 83.2442 1223.7 469.909
2271 0 102.089 12.8613 1313 80.4425 1222.01 467.107
2272 0 106.104 12.6857 1346 82.633 1222.93 465.316
2273 0 110.164 12.8536 1416 80.5403 1223.5 463.018
2274 1 61.1415 11.0727 677 81.61 1222.9 487.592
2275 0 62.1559 11.4551 712 81.573 1223.82 487.409
2276 0 65.1484 12.0494 785 78.4026 1223.94 484.912
2277 0 65.1069 12.3489 804 79.0759 1224.2 484.092
2278 0 68.079 12.1476 827 78.1717 1222.84 483.374
2279 0 71.0524 12.54 891 79.5668 1224.55 482.281
2280 0 75.1399 12.1374 912 77.1151 1222.53 480.685
2281 0 75.1006 12.8095 962 77.9979 1223.82 479.348
2282 0 79.0372 12.7788 1010 81.8842 1223.08 478.441
2283 0 81.1117 12.9328 1049 80.6234 1224.68 477.179
2284 0 83.1654 12.4811 1038 81.6561 1224.48 475.319
2285 0 87.1156 12.7417 1110 79.8892 1224.95 474.191
2286 0 90.2648 12.563 1134 82.963 1224.78 473.332
2287 0 92.1189 13.0484 1202 88.2887 1223.96 472.75
2288 0 96.2605 12.809 1233 86.0041 1222.98 470.088
2289 0 98.0846 12.7747 1253 89.3144 1222.9 468.434
2290 0 102.328 13.144 1345 88.51 1221.52 466.995
2291 0 105.162 12.9229 1359 88.9448 1223.35 465.586
2292 0 107.249 12.9326 1387 88.018 1224.35 463.419
2293 0 112.143 13.2241 1483 85.0357 1222.07 461.775
2294 0 115.127 12.7512 1468 89.4755 1222.57 459.262
2295 0 119.217 12.9092 1539 89.5718 1222.04 457.262
2296 0 124.184 12.4895 1551 90.5964 1223.05 455.411
2297 0 127.155 12.6224 1605 92.676 1223.92 454.52
2298 1 72.1121 11.1493 804 86.6741 1223.87 482.062
2299 0 74.1394 11.856 879 87.8305 1222.51 480.416
2300 0 77.1154 11.8135 911 87.2733 1223.16 479.233
2301 0 78.105 12.0479 941 88.7131 1221.37 478.468
2302 0 82.1297 11.9689 983 88.5137 1223.23 476.601
2303 0 83.1577 12.2298 1017 89.4975 1222.52 475.688
2304 0 87.1341 11.97 1043 87.929 1222.88 474.876
2305 0 89.149 11.9799 1068 89.4185 1223.65 472.934
2306 0 93.2952 12.3479 1152 88.7908 1223 470.201
2307 0 95.0911 12.3566 1175 85.503 1223.54 469.521
2308 0 98.2193 11.7696 1156 90.7976 1223.4 468.928
2309 0 99.1062 12.2798 1217 88.7346 1221.94 467.696
2310 0 104.203 12.2549 1277 86.0932 1222.13 465.63
2311 0 107.166 11.9908 1285 89.6973 1222.65 464.956
2312 0 110.171 12.2174 1346 90.4019 1222.7 463.294
2313 0 115.189 11.9022 1371 90.1896 1223.51 461.861
2314 0 119.131 12.2219 1456 92.4506 1223.51 460.228
2315 1 69.1353 10.776 745 94.1436 1224.12 485.358
2316 0 68.1471 11.9154 812 89.1502 1225.49 484.239
2317 0 71.0676 12.2278 869 91.9218 1223.49 482.651
2318 0 73.0982 12.3669 904 98.6383 1223.76 481.905
2319 0 76.154 12.5535 956 96.1192 1223.51 479.964
2320 0 79.0797 12.6834 1003 90.7747 1223.86 479.172
2321 0 81.1145 12.3899 1005 95.8438 1223.75 478.568
2322 0 84.2799 12.4585 1050 97.0676 1225.11 477.264
2323 0 88.0997 12.6448 1114 96.7397 1223.89 474.879
2324 0 90.0838 13.0101 1172 95.2346 1223.78 474.158
2325 0 93.1035 12.6311 1176 95.1573 1224.36 472.989
2326 0 94.1354 13.4593 1267 94.6559 1222.67 471.169
2327 0 98.1177 12.9334 1269 94.8818 1224.72 470.983
2328 0 99.0673 13.2334 1311 97.0603 1223.91 468.636
2329 0 104.23 13.0385 1359 93.4577 1223.44 466.737
2330 0 108.149 13.204 1428 95.8726 1223.23 465.732
2331 0 110.11 13.1595 1449 95.4652 1223.07 464.77
2332 0 113.114 13.5438 1532 95.5294 1224.59 461.851
2333 0 117.139 13.7273 1608 96.5883 1222.96 459.936
2334 0 120.165 13.8559 1665 92.5628 1224.93 457.699
2335 0 123.131 13.4653 1658 93.8908 1224.79 456.133
2336 0 128.22 13.508 1732 95.9706 1223.11 455.599
2337 0 131.227 13.7548 1805 95.3634 1225 453.367
2338 0 135.209 13.7121 1854 96.3447 1223.8 451.231
2339 0 140.132 13.7299 1924 98.1856 1222.43 448.726
2340 0 144.369 14.1997 2050 99.0137 1222.33 446.742
2341 0 146.155 14.0057 2047 99.4441 1221.96 444.901
2342 0 151.224 14.1776 2144 96.1395 1223.29 443.014
2343 0 157.154 14.1453 2223 101.229 1222.25 439.359
2344 0 161.145 14.2976 2304 99.3086 1222.02 437.367
2345 0 168.194 13.9839 2352 102.06 1221.01 434.874
2346 0 170.258 14.1021 2401 105.538 1221.08 432.009
2347 0 177.296 14.2869 2533 98.6076 1221.87 429.262
2348 0 182.238 14.3768 2620 103.416 1222.22 426.944
2349 0 188.155 14.5253 2733 100.865 1221.76 424.142
2350 0 192.402 14.4125 2773 102.696 1221.5 422.208
2351 0 197.373 14.2016 2803 104.411 1223.18 418.118
2352 0 203.393 14.3958 2928 104.559 1221.58 416.611
2353 0 206.378 14.6237 3018 102.93 1223.25 414.341
2354 0 210.335 14.3961 3028 107.468 1222.07 411.401
2355 0 215.34 14.4609 3114 107.276 1222.08 409.796
2356 0 221.39 14.8697 3292 103.137 1221.78 405.283
2357 0 227.31 14.6364 3327 103.361 1221.74 403.179
2358 0 237.397 15.6278 3710 99.2267 1220.04 396.582
2359 0 241.548 14.345 3465 105.436 1220.31 396.792
2360 0 248.402 15.4105 3828 95.4501 1222.06 391.379
2361 0 255.396 14.2759 3646 104.154 1221.05 390.748
2362 0 261.589 14.6145 3823 103.756 1221.74 386.792
2363 0 270.483 14.4741 3915 97.2891 1221.85 382.986
2364 0 277.751 14.5022 4028 101.464 1221.71 379.239
2365 0 287.544 14.2448 4096 104.397 1223.28 376.218
2366 1 205.559 13.2371 2721 109.341 1222.08 416.954
2367 0 208.487 13.4925 2813 108.502 1223.67 413.921
2368 0 213.609 13.6324 2912 105.234 1224.24 411.667
2369 0 218.612 13.3341 2915 109.68 1223.11 410.885
2370 0 222.447 13.774 3064 107.323 1222.62 407.391
2371 0 227.623 13.619 3100 106.839 1220.91 405.905
2372 0 233.504 14.4708 3379 103.426 1221.51 400.732
2373 0 237.473 13.492 3204 106.269 1222.65 400.411
2374 0 241.441 14.778 3568 98.9355 1221.68 394.28
2375 0 245.653 14.1948 3487 98.3768 1222.85 394.562
2376 0 249.875 13.8749 3467 102.447 1220.97 392.539
2377 0 256.464 15.5538 3989 97.2971 1220.67 386.695
2378 0 257.645 14.5588 3751 97.5055 1221.07 387.252
2379 1 43.3274 10.4322 452 13.0177 1222.32 494.942
2380 0 44.3705 10.7955 479 82.9541 1221.91 494.973
2381 0 46.266 10.5909 490 84.6735 1222.69 495.8
2382 0 45.1329 10.9011 492 82.6504 1222.7 497.654
2383 0 46.2407 10.6616 493 79.4219 1222.9 497.793
2384 0 45.1176 10.6832 482 82.6224 1223.73 497.349
2385 0 47.233 10.7128 506 38.8913 1222.76 497.579
2386 0 47.0186 10.7192 504 79.6528 1223.57 496.784
2387 0 47.1234 11.0349 520 84.6038 1224.21 497.158
2388 0 46.0722 11.3735 524 83.25 1225.56 497.036
2389 0 48.0807 11.5639 556 84.3525 1225.02 497.108
2390 0 48.047 11.2806 542 86.8063 1225.29 497.443
2391 0 48.0475 11.0308 530 86.6358 1224.63 496.662
2392 0 47.0278 11.6952 550 88.5782 1223.72 497.253
2393 0 48.0462 11.0519 531 90.2825 1222.51 497.143
2394 0 48.0533 11.2167 539 91.5844 1223.63 496.627
2395 0 47.0343 12.0125 565 84.931 1222.7 496.943
2396 0 48.1035 11.3921 548 87.9799 1222.45 497.106
2397 0 47.0351 11.8635 558 90.6165 1224.35 497.504
2398 0 47.0908 11.6159 547 91.9415 1223.16 497.6
2399 0 48.0334 11.5961 557 91.5978 1222.64 497.535
2400 0 48.1625 11.5027 554 92.5848 1222.42 497.305
2401 0 49.0535 11.7015 574 91.8397 1222.57 496.627
2402 0 48.0826 11.4387 550 91.1855 1223.81 497
2403 0 49.0334 11.8491 581 88.4854 1222.91 496.639
2404 0 49.0072 11.182 548 90.0474 1223.24 496.779
2405 0 50.0364 11.6515 583 90.7153 1223.19 496.928
2406 0 48.0346 11.7415 564 86.1844 1222.64 496.422
2407 0 49.0139 11.4661 562 90.7331 1221.94 496.742
2408 0 49.012 11.9971 588 89.301 1223.72 496.524
2409 0 48.0194 12.2242 587 84.0528 1222.92 496.642
2410 0 48.0194 12.2242 587 171.124 1221.92 496.642
2411 0 49.0436 12.7641 626 88.4201 1222.02 495.995
2412 0 50.1209 12.829 643 84.154 1223.35 495
2413 0 51.079 12.3926 633 84.7962 1222.31 495.498
2414 0 50.0376 11.931 597 86.2395 1221.37 495.201
2415 0 50.0954 12.0969 606 83.835 1224.49 495.578
2416 0 49.0957 11.7933 579 87.9931 1222.73 495.642
2417 0 50.0903 11.7987 591 89.1523 1222.01 495.641
2418 0 51.0415 11.7747 601 85.0982 1222.92 495.341
2419 0 50.0261 11.8938 595 86.8857 1222.85 495.588
2420 0 50.1564 11.6236 583 85.8508 1223.24 495.573
2421 0 50.0795 12.1008 606 85.5561 1223.18 495.188
2422 0 48.0944 12.4131 597 84.593 1222.67 495.523
2423 0 49.0254 12.2386 600 87.3683 1223.81 495.38
2424 0 49.0369 12.1745 597 83.134 1224.29 495.015
2425 0 50.0441 12.1693 609 86.3284 1223.48 494.982
2426 0 50.0262 12.2935 615 82.7285 1223.71 495.324
2427 0 49.0444 12.193 598 88.1756 1223.5 495.261
2428 0 50.0486 12.308 616 82.4416 1224.27 495.206
2429 0 51.0558 12.1436 620 82.6242 1225.58 494.726
2430 0 50.0506 12.0278 602 84.8887 1224.83 494.434
2431 0 52.023 11.4373 595 89.9126 1223.84 494.466
2432 0 52.0393 11.7988 614 87.127 1221.84 494.961
2433 0 50.081 11.6811 585 87.1094 1222.39 495.544
2434 0 51.0572 12.3195 629 85.3307 1223.86 495.14
2435 0 50.0248 12.4338 622 88.5804 1222.51 494.736
2436 0 49.0768 12.6536 621 84.7568 1221.3 494.787
2437 0 51.0594 12.3973 633 86.2022 1222.68 495.281
2438 0 51.0277 12.1503 620 86.9629 1222.74 494.887
2439 0 51.0523 12.732 650 82.6569 1223.64 494.012
2440 0 52.1017 11.823 616 83.9821 1222.23 494.321
2441 0 52.1527 12.0416 628 89.9076 1223.38 494.699
2442 0 51.0508 12.3798 632 84.0111 1223.23 494.464
2443 0 51.0344 12.521 639 84.241 1223.78 494.394
2444 0 51.0454 12.3811 632 83.7896 1222.66 494.574
2445 0 51.0345 12.3642 631 86.6133 1223.12 494.607
2446 0 51.0265 12.7189 649 83.5886 1223.13 494.022
2447 0 51.0348 12.4425 635 82.378 1222.43 494.167
2448 0 50.0306 13.012 651 84.1045 1225.6 493.969
2449 0 51.056 13.0053 664 83.253 1224.2 494.706
2450 0 51.0241 12.4647 636 82.3318 1224.15 494.956
2451 0 51.1047 12.5429 641 84.8315 1225.83 495.686
2452 0 51.0736 12.2177 624 87.6955 1224.82 495.184
2453 0 51.1348 12.379 633 87.0095 1223.89 495.062
2454 0 50.0487 12.348 618 89.2799 1222.46 495.008
2455 0 49.0104 12.3035 603 88.1144 1224.58 495.481
2456 0 51.0535 12.0658 616 86.026 1223.64 495.586
2457 0 49.0306 12.2373 600 89.4583 1223.8 496.518
2458 0 48.0381 12.9064 620 90.1194 1223.04 495.91
2459 0 51.0326 12.0903 617 85.5122 1223.65 495.801
2460 0 50.0512 12.4472 623 88.1669 1223.57 495.024
2461 0 51.015 12.1925 622 84.9502 1223.84 495.143
2462 0 50.0878 12.2984 616 90.1688 1223.05 494.43
2463 0 49.0332 11.7064 574 89.1307 1224.3 495.099
2464 0 50.0146 12.3964 620 84.0823 1223.87 494.532
2465 0 51.0512 12.3601 631 84.1236 1223.13 494.422
2466 0 51.0589 12.5345 640 80.4531 1222.56 495.039
2467 0 50.0698 12.2829 615 86.7984 1222.58 494.475
2468 0 51.0796 12.6273 645 85.9209 1221.61 493.887
2469 0 50.1435 12.8033 642 85.6698 1222.21 493.312
2470 0 50.0393 12.71 636 84.4198 1223.37 493.574
2471 0 50.0792 12.5002 626 83.492 1223.27 493.966
2472 0 51.1341 12.0468 616 86.9416 1222.9 492.909
2473 0 51.1149 12.6186 645 80.2744 1224.12 493.126
2474 0 50.089 12.6774 635 83.2913 1224.76 492.098
2475 0 51.0685 12.121 619 84.6882 1224.03 492.816
2476 0 52.0517 12.5836 655 80.6076 1225.04 492.759
2477 0 50.0459 12.1488 608 85.1118 1224.31 492.702
2478 0 51.1431 12.2206 625 87.368 1224.24 492.426
2479 0 50.0624 12.7441 638 82.464 1224.91 492.201
2480 0 50.0267 12.5933 630 82.5064 1224.98 492.395
2481 0 52.0761 12.2513 638 81.9608 1223.58 491.89
2482 0 51.1292 12.7716 653 76.0521 1224.66 492.369
2483 0 52.0579 12.1211 631 82.5927 1224.55 491.75
2484 0 50.1194 12.989 651 80.3241 1224.92 492.1
2485 0 51.1024 12.7783 653 81.4089 1224.86 492.288
2486 0 52.0977 12.419 647 79.272 1224.95 492.459
2487 0 52.0652 12.638 658 79.2644 1224.07 491.638
2488 0 51.0606 12.4558 636 75.772 1223.92 492.08
2489 0 51.0478 12.5569 641 78.0265 1223.49 491.816
2490 0 51.0515 12.3013 628 75.8424 1223.83 492.174
2491 0 52.0919 12.2092 636 77.2123 1223.18 492.429
2492 0 51.0657 12.5133 639 75.9358 1223.1 491.723
2493 0 52.1472 12.6373 659 74.1958 1224.61 491.508
2494 0 51.0864 12.6648 647 73.4019 1223.56 491.556
2495 0 50.0664 13.0027 651 75.3779 1225.45 490.916
2496 0 50.0664 13.0027 651 157.129 1226.45 490.916
2497 0 50.0664 13.0027 651 157.129 1227.45 490.916
2498 0 52.0558 12.3137 641 73.6162 1222.51 491.738
2499 0 53.0704 12.6436 671 73.5693 1223.34 491.468
2500 0 53.046 12.2347 649 72.8475 1223.74 491.103
2501 0 51.0613 12.7494 651 73.2596 1221.21 490.997
2502 0 52.0532 12.4104 646 73.4984 1223.97 490.607
2503 0 53.092 12.6196 670 71.4343 1224.53 490.742
2504 0 50.0717 12.9814 650 73.3938 1224.83 491.038
2505 0 52.0882 12.978 676 68.716 1225.04 490.118
2506 0 54.1038 12.2173 661 75.4796 1223.89 491.183
2507 0 52.0414 12.7206 662 73.426 1225.58 489.221
2508 0 51.11 12.5024 639 73.7887 1224.99 490.371
2509 0 51.0218 12.4849 637 76.5353 1226.28 490.493
2510 0 51.0423 12.9304 660 73.4864 1225.2 490.329
2511 0 52.1134 12.5496 654 75.3838 1224.64 490.991
2512 0 52.1072 12.647 659 71.4476 1223.99 490.385
2513 0 52.3416 12.8578 673 73.9391 1225.1 488.899
2514 0 52.0507 12.8913 671 73.2384 1223.57 489.888
2515 0 51.0859 13.2522 677 70.0148 1224.93 488.736
2516 0 53.0724 12.5677 667 69.9445 1225.64 488.13
2517 0 53.0281 12.3331 654 71.8624 1224.71 487.161
2518 0 53.0799 12.7544 677 71.8095 1224.2 486.245
2519 0 54.0517 12.5251 677 69.9764 1224.56 485.486
2520 0 52.1399 13.3487 696 71.8405 1224.98 485.263
2521 0 52.0293 12.9734 675 69.6252 1226.16 484.622
2522 0 56.0637 13.0387 731 76.4268 1225.31 486.791
2523 0 53.1358 13.1362 698 68.7522 1224.29 484.762
2524 0 53.0156 12.7698 677 70.3279 1224.23 484.74
2525 0 52.0116 13.1701 685 68.0496 1222.07 485.28
2526 0 53.0114 12.7331 675 70.0518 1222.96 484.572
2527 0 51.0355 13.3045 679 66.7761 1222.94 484.429
2528 0 52.017 12.5151 651 71.9124 1224.23 483.882
2529 0 54.1052 12.0506 652 71.3037 1223.35 484.568
2530 0 53.0422 12.6315 670 72.2642 1223.58 484.334
2531 0 52.1024 13.0512 680 70.7397 1224.3 484.229
2532 0 52.0847 13.0941 682 67.5499 1223.38 485.425
2533 0 53.0686 12.3614 656 70.2942 1223.83 484.761
2534 0 53.2324 12.6427 673 72.3551 1223.79 485.037
2535 0 53.057 12.3075 653 66.6401 1222.47 485.13
2536 0 54.0371 12.3619 668 71.2635 1223.21 485.614
2537 0 54.0371 12.3619 668 178.46 1224.21 485.614
2538 0 53.1198 12.6695 673 73.0535 1223.7 485.453
2539 0 53.022 13.2398 702 70.5342 1223.55 484.036
2540 0 54.1014 12.1254 656 72.875 1222.86 483.852
2541 0 52.0491 12.8532 669 72.0747 1222.98 484.136
2542 0 53.0664 12.8707 683 69.9868 1223.83 483.379
2543 0 53.109 12.785 679 74.1326 1224.64 484.333
2544 0 54.1381 12.9853 703 72.3016 1224.84 483.639
2545 0 52.2158 12.7931 668 76.1138 1224.25 484.714
2546 0 52.0666 12.8489 669 75.5321 1223.42 483.738
2547 0 53.064 12.9278 686 73.3571 1224.39 483.643
