index division length width area intensity CMx CMy
0 0 52.1201 13.9869 729 180.125 1197.58 501.919
1 0 53.1024 14.2931 759 124.891 1204.56 500.825
2 0 55.074 14.5259 800 132.326 1205.47 500.174
3 0 55.074 14.5259 800 181.735 1206.47 500.174
4 0 58.099 14.6646 852 119.73 1206.71 498.412
5 0 59.0654 14.3231 846 123.979 1208.66 498.924
6 0 58.0548 15.382 893 120.764 1208.21 499.25
7 0 61.0532 14.8886 909 121.714 1207.62 499.912
8 0 64.0313 15.0239 962 125.085 1206.91 499.625
9 0 66.064 14.819 979 122.874 1206.93 499.191
10 0 67.0882 15.0101 1007 116.544 1207.62 499.477
11 0 69.0673 15.941 1101 118.878 1207.47 498.897
12 0 70.1301 15.1433 1062 122.819 1206.78 499.435
13 0 74.0866 14.9285 1106 125.152 1206.81 499.074
14 0 76.1059 15.0974 1149 121.558 1206.18 498.043
15 0 79.081 15.0226 1188 114.505 1203.68 497.836
16 0 81.1113 15.1643 1230 121.767 1203.63 497.206
17 0 82.0771 15.4611 1269 122.738 1202.67 496.173
18 0 87.1078 15.0159 1308 124.216 1202.39 494.393
19 0 88.1271 15.3755 1355 121.773 1201.98 493.131
20 0 92.0573 14.9907 1380 119.051 1200.93 492.254
21 0 94.1639 14.9633 1409 127.365 1199.84 491.812
22 0 98.1418 15.0395 1476 121.824 1200.83 489.497
23 0 101.131 15.0696 1524 121.919 1199.11 487.968
24 0 104.105 14.8504 1546 118.488 1198.05 486.286
25 0 107.144 14.8025 1586 121.454 1199.46 485.211
26 0 109.164 15.1881 1658 126.488 1200.76 483.013
27 0 115.206 15.1033 1740 124.938 1201.31 480.887
28 0 120.077 15.2736 1834 121.514 1201.5 477.862
29 1 62.0542 14.3101 888 130.269 1200.35 503.868
30 0 64.049 14.0518 900 130.918 1202.53 501.993
31 0 66.0802 14.2705 943 131.564 1200.15 499.923
32 0 70.0644 14.2298 997 131.619 1202.51 497.563
33 0 72.0529 14.3228 1032 128.41 1203.15 494.682
34 0 74.084 14.4431 1070 126.501 1203.45 492.244
35 0 74.0682 14.8917 1103 132.955 1203.55 490.294
36 0 78.1496 14.6514 1145 129.759 1203.47 487.557
37 0 83.0661 14.6389 1216 133.544 1204.07 485.616
38 0 83.1918 15.2779 1271 134.179 1203.97 483.739
39 0 88.1431 14.7941 1304 135.368 1203.04 481.975
40 0 91.0456 14.8387 1351 137.694 1204.01 480.274
41 0 93.1124 15.0141 1398 138.856 1206.28 479.117
42 0 96.1193 15.0022 1442 137.513 1206.44 477.621
43 0 100.138 14.8894 1491 142.427 1208.1 476.021
44 0 102.186 15.3544 1569 142.016 1206.83 474.709
45 0 105.233 15.0713 1586 144.704 1205.99 473.676
46 0 111.162 15.0052 1668 137.571 1207.27 471.753
47 0 115.248 15.1586 1747 143.164 1205.43 468.736
48 0 120.164 15.096 1814 140.518 1207.11 467.253
49 0 124.284 15.2232 1892 148.471 1207.34 466.166
50 0 129.19 15.156 1958 147.878 1207.09 463.993
51 1 73.0316 14.0487 1026 150.634 1207.42 492.287
52 0 74.0903 14.2259 1054 149.984 1206.2 491.315
53 0 79.0817 13.8844 1098 152.731 1205.77 490.316
54 0 83.1156 13.7038 1139 150.373 1205.65 489.197
55 0 85.1904 13.91 1185 149.276 1204.53 488.916
56 0 87.1361 14.2191 1239 156.876 1205.06 488.135
57 0 91.1559 13.8993 1267 159.16 1204.52 486.388
58 0 93.2517 14.0802 1313 160.189 1203.71 484.836
59 0 97.1612 14.0591 1366 154.607 1202.71 483.107
60 0 101.127 13.844 1400 161.387 1201.57 482.094
61 0 105.197 14.0974 1483 156.22 1203.99 480.007
62 0 109.167 13.9328 1521 164.368 1204.62 478.041
63 0 111.256 14.1206 1571 158.263 1203.51 476.958
64 0 116.276 14.2678 1659 161.046 1203.64 474.723
65 0 120.186 14.3777 1728 157.657 1203.91 471.854
66 0 125.164 14.5329 1819 160.736 1203.18 468.743
67 0 130.114 14.0877 1833 162.606 1203.66 466.651
68 0 136.259 14.0395 1913 161.806 1202.96 463.387
69 0 141.225 14.0201 1980 160.501 1203.09 461.166
70 1 65.1103 12.7015 827 161.495 1203.13 497.401
71 0 68.0524 13.1222 893 160.316 1201.5 496.371
72 0 69.1345 13.5244 935 161.951 1203.73 494.321
73 0 72.0468 13.4496 969 154.608 1203.52 492.939
74 0 73.12 13.5804 993 156.182 1204.6 491.095
75 0 75.0739 13.8797 1042 158.028 1204.38 489.655
76 0 78.1444 13.7694 1076 155.813 1204.35 488.154
77 0 81.1208 13.7696 1117 157.244 1204.34 486.588
78 0 83.1173 13.8359 1150 155.105 1204.85 484.569
79 0 88.123 13.9578 1230 153.357 1204.24 482.128
80 0 91.1238 13.542 1234 155.831 1204.97 481.434
81 0 94.0774 14.0629 1323 150.405 1204.5 479.121
82 0 97.196 13.7043 1332 151.216 1205.65 477.613
83 0 100.216 13.8401 1387 154.83 1206.13 475.867
84 0 103.09 14.075 1451 148.128 1206.74 473.733
85 0 107.396 14.0228 1506 39.0139 1205.67 472.898
86 0 110.365 13.6729 1509 142.616 1205.29 471.573
87 1 62.0476 12.845 797 151.652 1204.27 495.28
88 0 62.0389 13.2981 825 146.445 1204.48 494.128
89 0 66.0514 13.005 859 136.166 1205.64 493.164
90 0 68.0996 13.4068 913 144.716 1205.59 492.338
91 0 72.1054 13.2168 953 145.398 1207.41 491.594
92 0 73.1335 13.6873 1001 144.754 1205.83 490.338
93 0 77.1084 13.4356 1036 143.069 1207.32 488.805
94 0 79.0803 13.5685 1073 145.51 1207.43 487.286
95 0 82.0526 13.662 1121 145.146 1205.98 486.688
96 0 87.0794 13.3671 1164 148.461 1207 484.861
97 0 88.1296 13.7411 1211 145.143 1206.4 483.423
98 0 92.0765 13.4888 1242 145.014 1204.36 481.485
99 1 49.0413 12.255 601 136.431 1204.33 503.539
100 0 50.0706 12.3226 617 144.844 1205.06 503.404
101 0 52.1058 12.6665 660 139.855 1204.83 502.648
102 0 54.0739 12.8343 694 140.719 1204.7 501.771
103 0 55.1719 12.8326 708 143.424 1204.77 500.549
104 0 57.0555 13.2327 755 138.559 1205.21 499.489
105 0 57.1499 13.3334 762 137.988 1205.9 499.031
106 0 59.0998 13.4011 792 136.179 1205.19 497.814
107 0 60.0922 13.7455 826 134.982 1204.71 497.352
108 0 64.1112 13.2114 847 137.096 1205.88 495.564
109 0 65.1449 13.6772 891 132.279 1204.98 494.513
110 0 67.0841 13.6992 919 133.956 1205.83 492.897
111 0 70.1974 13.519 949 138.141 1204.66 491.259
112 0 71.0463 13.7657 978 130.345 1205.2 490.335
113 0 76.114 13.1251 999 132.442 1204.72 489.014
114 0 79.1357 13.3189 1054 135.846 1205.99 487.477
115 0 80.0443 13.2427 1060 130.925 1205.3 486.024
116 0 84.0777 13.2734 1116 129.623 1205.48 484.005
117 1 45.0668 11.3165 510 123.706 1204.69 503.324
118 0 47.0666 11.6431 548 130.985 1205.31 502.755
119 0 48.0469 12.3837 595 127.602 1205.68 501.145
120 0 49.1496 12.7366 626 128.011 1207.09 501.228
121 0 50.1099 13.0513 654 125.847 1207.37 500.369
122 0 51.181 13.0322 667 124.999 1207.33 500.133
123 0 52.0925 13.2841 692 127.935 1207.82 499.286
124 0 55.0925 12.9963 716 132.592 1205.53 497.894
125 0 56.116 13.5434 760 126.268 1205.12 497.601
126 0 56.1122 13.7225 770 129.735 1205.36 497.408
127 0 60.1253 13.3887 805 133.688 1206.99 496.286
128 0 61.0824 13.5882 830 131.923 1206.68 495.684
129 0 64.077 13.8115 885 127.162 1207.07 494.419
130 0 66.1137 13.5524 896 126.893 1207.59 493.599
131 0 67.1181 13.4688 904 129.426 1208.35 492.642
132 0 70.0501 13.7473 963 129.622 1206.3 491.588
133 0 72.0606 13.7107 988 128.814 1207.5 489.855
134 0 75.0998 13.3822 1005 123.943 1207.02 489.148
135 0 78.1092 13.7372 1073 124.758 1206.89 486.957
136 0 80.1179 13.3054 1066 130.875 1206.93 486.113
137 0 84.039 13.2439 1113 127.896 1205.76 484.795
138 1 45.0431 11.2781 508 134.65 1205.32 504.419
139 0 46.0445 11.9884 552 124.375 1205.48 504.147
140 0 49.0356 12.2972 603 128.177 1204.07 502.947
141 0 49.0188 12.9746 636 129.286 1203.39 502.286
142 0 51.0393 13.3623 682 127.468 1206.27 501.302
143 0 52.1276 13.1984 688 131.222 1205.41 501.247
144 0 55.0785 13.2538 730 128.41 1206.94 500.042
145 1 69.1544 13.7085 948 124.999 1206.83 492.265
146 0 71.1542 13.7026 975 121.392 1205.87 491.561
147 0 74.158 13.9028 1031 121.958 1206.32 490.387
148 0 77.1589 13.9452 1076 119.477 1205.24 489.258
149 0 79.0782 13.7206 1085 121.373 1204.55 489.003
150 0 81.1441 14.2216 1154 122.919 1205.27 487.439
151 0 84.1091 14.3028 1203 121.677 1205.55 486.476
152 0 87.2085 13.9092 1213 125.46 1205.51 485.384
153 1 50.1978 13.407 673 124.783 1205.26 503.698
154 0 51.0821 13.5077 690 120.803 1205.31 503.117
155 0 53.1328 14.0403 746 126.81 1205.14 501.192
156 0 53.0325 14.2177 754 126.052 1204.89 500.623
157 0 56.0587 13.8961 779 126.983 1205.83 499.605
158 0 58.121 14.1773 824 121.528 1206.99 498.848
159 0 59.1228 14.1401 836 120.122 1206.57 497.606
160 0 60.1214 14.5539 875 126.101 1206.85 496.761
161 0 63.1177 14.2591 900 124.568 1204.31 495.734
162 0 63.102 14.7063 928 125.258 1205.78 494.901
163 0 65.047 15.2813 994 123.314 1206.47 494.326
164 0 67.0809 15.3695 1031 124.576 1205.16 493.674
165 0 68.0873 15.6123 1063 129.879 1206.4 492.863
166 0 73.0744 14.971 1094 128.61 1206.17 491.685
167 0 72.1436 15.6216 1127 129.116 1206.81 490.958
168 0 75.0572 15.5215 1165 134.778 1206.54 489.805
169 0 79.1697 15.3847 1218 128.787 1207.09 488.975
170 0 82.0907 15.4829 1271 125.971 1205.34 487.046
171 0 85.1011 15.2407 1297 128.653 1206.08 486.82
172 0 86.2441 15.5837 1344 132.3 1205.42 485.666
173 0 91.292 15.193 1387 136.269 1204.41 483.853
174 0 94.1546 15.294 1440 132.999 1206.92 483.386
175 0 98.1551 15.3023 1502 128.632 1205.89 481.334
176 1 48.1004 15.0934 726 144.311 1204.42 505.635
177 0 49.0387 15.7223 771 137.062 1206.74 503.931
178 0 51.1052 15.38 786 148.253 1205.93 503.457
179 0 50.1945 16.3364 820 150.266 1206.65 503.244
180 0 54.0938 15.7689 853 143.628 1207.75 502.579
181 0 56.0873 15.5472 872 146.827 1206.31 501.704
182 0 58.0685 15.895 923 152.388 1208.21 500.828
183 0 60.0536 15.686 942 146.532 1206.57 499.034
184 0 62.1378 15.5783 968 146.369 1208.15 498.879
185 0 64.0737 15.8724 1017 146.017 1206.3 497.235
186 0 66.0382 15.7182 1038 145.241 1205.39 496.646
187 0 67.2036 16.2938 1095 148.94 1207.18 494.965
188 0 70.1079 15.847 1111 149.867 1206.73 493.926
189 0 74.0698 15.6609 1160 144.16 1206.34 492.193
190 0 77.167 15.8876 1226 147.101 1207.28 490.91
191 0 79.2495 15.6342 1239 143.496 1207.87 490.167
192 0 83.1962 15.5656 1295 145.122 1206.33 488.396
193 0 86.0901 15.2747 1315 145.571 1206.65 486.884
194 1 37.0675 15.755 584 155.908 1207.76 509.38
195 0 38.1334 16.0752 613 149.127 1208.08 508.918
196 0 37.1589 17.0619 634 154.006 1207.86 507.943
197 0 41.0987 15.9616 656 148.027 1208.07 507.12
198 0 41.1216 16.7309 688 148.132 1206.96 506.305
199 0 44.2459 16.2049 717 147.909 1207.1 505.124
200 0 44.0874 16.8756 744 148.05 1206.62 504.785
201 0 45.4327 17.0362 774 150.503 1207.67 504.674
202 0 45.4327 17.0362 774 180.457 1208.67 504.674
203 0 49.3682 16.8732 833 142.418 1207.21 502.612
204 0 53.0918 16.4621 874 152.186 1207.62 500.243
205 0 55.1478 16.0115 883 152.579 1208.56 499.262
206 0 56.1944 16.3895 921 154.084 1207.07 498.356
207 0 59.2202 16.0587 951 153.35 1206.42 497.055
208 0 60.0826 16.3275 981 159.616 1207.46 495.864
209 0 64.1791 16.0644 1031 159.523 1208.13 494.876
210 0 66.5268 16.0537 1068 157.049 1207.76 493.452
211 0 67.2337 16.3609 1100 154.495 1208.28 492.581
212 0 69.7204 16.3367 1139 162.478 1209.25 491.398
213 0 72.471 16.1582 1171 165.33 1207.32 489.76
214 0 77.4093 15.7991 1223 159.072 1205.3 487.89
215 1 33.3038 16.5747 552 166.792 1207.41 507.98
216 0 35.4325 15.8612 562 171.135 1207.83 506.767
217 0 36.371 16.6067 604 168.964 1207.09 506.545
218 0 37.4426 16.3183 611 171.943 1206.22 506.255
219 0 38.6667 16.2672 629 167.315 1207.79 506.169
220 0 38.8419 16.7088 649 175.929 1209.12 505.854
221 0 41.4778 16.7319 694 171.713 1206.74 504.517
222 0 42.58 16.7919 715 171.15 1207.32 503.604
223 0 45.513 16.325 743 170.871 1206.44 503.001
224 0 47.3908 16.5644 785 171.712 1206.01 502.354
225 0 46.3897 17.4392 809 164.977 1207.72 501.59
226 0 48.4684 17.0214 825 173.145 1207.99 500.567
227 0 51.4663 16.6711 858 172.357 1207.09 499.386
228 0 51.3501 17.2931 888 169.268 1206.61 499.16
229 0 53.6057 17.2743 926 168.931 1208.1 498.406
230 0 56.3892 16.6876 941 163.985 1208.35 497.385
231 0 58.5318 16.7772 982 172.437 1207.32 496.545
232 0 58.883 17.1017 1007 172.405 1207.97 495.927
233 0 61.5885 16.6589 1026 173.083 1209.07 495.07
234 0 63.7169 16.5262 1053 167.925 1207.43 494.432
235 0 65.9419 16.56 1092 165.901 1208.99 492.984
236 0 66.6681 16.8596 1124 172.555 1209.82 492.333
237 0 68.4077 16.9864 1162 169.21 1208.13 491.621
238 0 72.7279 16.4586 1197 171.185 1208.75 490.313
239 0 75.2524 16.1457 1215 171.072 1208.6 488.761
240 0 77.3322 16.2933 1260 174.043 1207.8 487.891
241 0 79.5657 16.3261 1299 163.764 1207.83 486.419
242 0 83.5469 16.1706 1351 168.142 1206.75 485.025
243 0 85.5999 16.3435 1399 169.864 1208.25 484.208
244 0 87.2289 16.4968 1439 169.344 1206.95 482.678
245 1 38.1851 16.3676 625 177.053 1208.76 505.134
246 0 38.273 16.931 648 178.216 1209.28 504.915
247 0 39.4248 16.969 669 172.486 1209.94 504.196
248 0 41.3994 16.6911 691 175.598 1210.31 504.097
249 0 43.3022 16.3271 707 175.788 1207.39 503.191
250 0 42.5872 17.517 746 169.127 1208.32 502.708
251 0 43.3812 16.8045 729 171.818 1207.94 502.635
252 0 46.2508 16.7997 777 174.696 1206.61 502.602
253 0 47.3145 16.7391 792 175.253 1208.06 501.899
254 0 49.3359 16.7018 824 177.152 1207.09 501.029
255 0 50.3187 16.8923 850 179.598 1209.06 500.544
256 0 50.2268 17.1622 862 176.896 1208.7 499.727
257 0 53.6245 16.9699 910 181.22 1208.96 498.814
258 0 53.3619 17.1096 913 184.522 1209.14 498.149
259 0 56.2856 16.8071 946 179.199 1208.87 497.1
260 0 56.4313 17.3308 978 175.959 1207.94 496.358
261 0 56.5137 17.4294 985 172.07 1207.77 495.862
262 0 56.2928 17.5688 989 169.536 1209.78 495.724
263 0 55.1913 17.684 976 180.506 1208.27 495.301
264 1 68.307 16.2062 1107 167.571 1207.91 491.565
265 0 71.5856 16.2602 1164 163.508 1206.3 489.733
266 0 74.3473 16.0732 1195 172.508 1207.16 488.543
267 0 75.4657 16.1133 1216 170.3 1207.33 487.453
268 0 79.5357 16.2946 1296 172.268 1208.38 485.262
269 0 82.4701 15.7027 1295 169.746 1207.85 484.408
270 0 84.3972 16.0076 1351 160.408 1208.41 483.17
271 0 87.6686 15.9806 1401 162.672 1208.11 481.889
272 0 89.4962 16.023 1434 161.184 1207.86 480.741
273 0 93.6212 15.8832 1487 166.005 1207.8 479.581
274 0 95.4971 15.9272 1521 165.804 1207.79 477.714
275 0 98.6749 15.6575 1545 162.924 1208.55 475.708
276 0 102.599 15.4679 1587 163.335 1209.78 475.233
277 0 106.323 15.547 1653 158.867 1208.1 472.836
278 0 109.253 15.5419 1698 170.213 1208.55 471.323
279 0 114.342 15.1563 1733 164.735 1208.49 469.504
280 0 117.45 15.5726 1829 164.89 1208.72 467.419
281 0 118.206 15.4138 1822 169.743 1207.53 466.395
282 1 175.655 15.2914 2686 159.788 1207.5 439.833
283 1 59.2925 15.1284 897 166.807 1208.91 493.479
284 0 69.3671 13.7241 952 158.96 1209.53 489.433
285 0 72.6279 13.8514 1006 156.525 1209.11 488.22
286 1 33.1758 12.69 421 149.713 1209.38 507.083
287 0 31.1593 13.9605 435 152.368 1210.11 507.43
288 0 33.1413 13.8498 459 149.734 1209.35 506.985
289 0 35.1345 14.4303 507 140.11 1207.82 505.671
290 0 37.2387 14.9307 556 141.459 1209.49 505.318
291 0 36.2036 15.0537 545 141.866 1207.31 504.848
292 0 38.2568 15.213 582 144.569 1209.21 504.031
293 0 39.1377 15.9693 625 137.818 1209.85 503.082
294 0 42.2404 16.122 681 133.902 1209.44 501.283
295 0 44.3881 16.3107 724 132.55 1209.79 500.767
296 0 45.4629 16.299 741 132.622 1208.04 500.335
297 0 48.1942 16.3713 789 131.119 1210.68 498.269
298 0 48.1942 16.3713 789 144.177 1213.68 498.269
299 0 52.5444 16.9952 893 129.953 1208.61 495.003
300 0 54.299 16.6302 903 135.231 1208.55 494.862
301 0 56.3361 17.9104 1009 128.637 1208.83 492.725
302 0 56.3054 16.6414 937 130.771 1209.4 492.86
303 0 59.2912 17.1695 1018 133.735 1208.95 491.767
304 0 62.5678 16.9256 1059 144.665 1209.58 490.714
305 0 61.498 16.8786 1038 148.074 1210.5 490.441
306 0 60.4324 17.4575 1055 147.191 1211.24 490.162
307 0 66.3321 17.5481 1164 142.058 1210.88 486.822
308 0 66.3321 17.5481 1164 148.784 1209.88 486.822
309 0 77.1618 16.7052 1289 143.823 1209.71 482.881
310 0 74.4706 17.3357 1291 141.538 1210.57 483.041
311 0 77.7652 17.4242 1355 144.984 1209.7 479.503
312 0 79.3015 17.0236 1350 147.219 1209.28 479.199
313 1 38.3548 13.2708 509 166.705 1210.07 501.039
314 0 38.0532 13.6914 521 172.557 1208.86 500.868
315 0 41.1705 13.189 543 175.197 1207.99 501.099
316 0 42.2273 14.0431 593 165.042 1210.3 498.216
317 0 43.2093 13.4925 583 165.611 1208.93 498.027
318 0 46.3457 13.0972 607 168.715 1208.98 496.679
319 0 47.4366 13.6603 648 167.75 1209.48 496.267
320 0 48.325 13.2437 640 175.777 1210.2 496.045
321 0 50.6212 13.4133 679 171.069 1210.93 494.679
322 0 51.4624 13.2913 684 173.772 1208.38 494.281
323 0 52.6283 13.3008 700 175.979 1209.37 494.087
324 0 54.4012 13.7313 747 166.956 1210.06 492.715
325 0 56.5705 14.5129 821 169.096 1210.43 488.559
326 0 57.3281 14.5304 833 167.792 1209.99 487.279
327 0 59.5853 13.8289 824 166.239 1208.76 487.118
328 0 62.6937 13.4463 843 168.038 1208.68 486.851
329 0 62.6095 13.8477 867 169.955 1209.32 486.364
330 0 65.4524 13.4907 883 169.579 1209.13 486.185
331 0 68.5129 13.5303 927 169.291 1208.63 485.868
332 0 70.5655 13.406 946 174.726 1208.64 484.011
333 0 73.557 13.255 975 171.779 1209.87 482.961
334 0 74.5511 13.427 1001 167.264 1208.68 483.05
335 0 76.4827 13.2187 1011 166.533 1209.43 482.188
336 0 79.376 13.1652 1045 170.475 1209.76 481.217
337 1 45.1636 12.8865 582 167.265 1211.49 497.84
338 0 47.1949 12.6073 595 170.388 1211.82 496.966
339 0 50.2833 12.4693 627 163.742 1211.28 496.198
340 0 50.3503 12.8698 648 173.394 1211 495.563
341 0 52.4482 12.7364 668 175.156 1210.44 495.415
342 0 53.1467 12.9453 688 169.337 1208.8 494.17
343 0 55.2558 12.6684 700 174.076 1209.46 493.774
344 0 57.297 13.0722 749 170.559 1209.86 492.307
345 0 59.3554 12.9895 771 175.741 1209.19 491.266
346 0 60.3197 13.1466 793 167.815 1209.15 490.421
347 0 63.586 13.0689 831 173.237 1209.7 489.533
348 0 66.5884 12.5998 839 169.212 1210.13 488.81
349 0 67.28 13.481 907 166.536 1210.39 487.193
350 0 71.5472 12.9425 926 159.835 1210.78 485.532
351 0 73.4291 13.0874 961 163.538 1208.38 484.136
352 0 75.3992 13.1036 988 158.76 1209.03 482.016
353 1 40.3127 12.5023 504 164.379 1209.82 498.724
354 0 42.3068 12.0548 510 157.89 1209.99 498.849
355 0 43.3854 12.0778 524 161.473 1208.35 497.786
356 0 46.3189 11.9174 552 153.667 1208.52 497.355
357 0 46.2862 12.1418 562 154.091 1208.78 496.728
358 0 47.3017 12.2829 581 151.645 1209.62 495.31
359 0 49.3319 12.3855 611 163.108 1209.96 494.7
360 0 52.4176 12.3623 648 155.248 1208.56 494.142
361 0 54.346 12.4388 676 158.929 1210.93 492.8
362 0 55.5384 12.4058 689 161.431 1209.39 491.544
363 0 57.2547 12.3309 706 158.242 1207.82 490.782
364 0 59.2552 12.6571 750 157.633 1209.07 489.107
365 0 61.4613 12.756 784 151.67 1209.24 488.624
366 0 63.3915 12.7462 808 154.078 1209.27 487.759
367 0 65.3197 12.5843 822 153.112 1210.61 486.738
368 0 68.4247 12.6416 865 159.504 1208.85 485.884
369 0 69.2383 12.6231 874 153.649 1209.24 484.93
370 0 73.2505 12.587 922 153.461 1209.12 482.941
371 0 73.2967 13.1247 962 149.868 1208.27 481.815
372 0 76.2283 13.2497 1010 152.752 1207.83 480.769
373 1 39.1161 11.1207 435 142.559 1207.25 498.883
374 0 43.0776 11.5141 496 144.633 1207.79 498.25
375 0 43.2111 12.1959 527 150.07 1209.08 497.541
376 0 44.0862 12.0446 531 146.968 1209.62 496.955
377 0 47.2449 11.9166 563 145.789 1206.38 495.993
378 0 50.0844 12.2393 613 142.506 1208.12 494.845
379 0 51.3076 12.1619 624 136.622 1208.09 493.998
380 0 53.1324 12.8735 684 139.969 1207.6 492.436
381 0 53.1464 13.0018 691 143 1208.77 491.974
382 0 56.084 12.7309 714 134.951 1207.81 490.95
383 0 59.1081 12.824 758 139.132 1208.54 490.476
384 0 59.2027 13.192 781 131.357 1206.43 489.43
385 0 62.1243 12.7808 794 141.771 1209.11 489.11
386 0 62.1733 13.1085 815 141.87 1208.18 488.475
387 0 66.1478 12.8349 849 142.638 1206.97 486.84
388 0 66.1256 13.2475 876 129.497 1206.3 485.953
389 0 68.1651 13.1005 893 135.138 1206.01 485.392
390 0 71.1814 13.2759 945 134.68 1205.33 483.707
391 0 74.0937 13.213 979 132.974 1207.01 483.031
392 0 75.2007 13.2313 995 147.095 1206.18 481.961
393 0 77.1567 13.5957 1049 137.948 1207.09 480.561
394 0 82.1272 13.3817 1099 142.598 1204.11 479.012
395 0 85.1053 13.1954 1123 143.261 1206.75 477.272
396 0 87.1397 13.1742 1148 143.558 1204.86 475.515
397 0 92.2304 13.1735 1215 143.066 1206.07 474.938
398 1 48.1133 12.2627 590 136.536 1205.23 494.724
399 0 50.2624 12.4347 625 145.57 1204.08 494.048
400 0 50.2624 12.4347 625 170.65 1203.08 494.048
401 0 54.109 12.6042 682 140.295 1204.98 492.811
402 0 56.1245 12.6148 708 148.141 1205.52 492.275
403 0 56.1245 12.6148 708 168.496 1206.52 492.275
404 0 59.0545 12.9541 765 143.988 1205.19 490.263
405 0 60.1107 12.6766 762 154.573 1205.17 490.482
406 0 61.0807 12.9665 792 150.114 1205.03 488.929
407 0 63.0753 13.2699 837 140.815 1204.89 487.947
408 0 63.0753 13.2699 837 160.683 1204.89 487.947
409 0 67.202 13.5859 913 142.012 1205.32 485.998
410 0 70.1984 12.9348 908 142.809 1206.64 485.01
411 0 73.1261 13.2784 971 142.028 1206.08 484.15
412 0 74.1194 13.2894 985 132.431 1204.65 482.753
413 0 78.2175 13.0406 1020 143.638 1206 481.29
414 0 79.1076 13.5385 1071 139.129 1205.11 480.444
415 0 82.1424 13.2696 1090 143.197 1205.01 479.192
416 0 86.2325 13.0809 1128 144.406 1206.51 477.924
417 0 89.2143 13.518 1206 142.546 1207 476.032
418 0 91.3008 13.3843 1222 149.23 1205.04 474.857
419 0 91.3008 13.3843 1222 165.347 1203.04 474.857
420 0 98.1992 13.4115 1317 143.321 1204.46 471.686
421 0 102.128 13.4244 1371 143.169 1206.11 470.046
422 0 105.12 13.3752 1406 138.235 1206.36 467.763
423 0 110.131 13.4477 1481 143.757 1207.34 466.12
424 0 110.131 13.4477 1481 165.086 1208.34 466.12
425 1 57.0724 12.3352 704 140.375 1206.39 492.303
426 0 60.0477 12.107 727 138.019 1206.09 491.629
427 0 60.1754 12.4968 752 136.024 1205.59 490.727
428 0 61.0334 12.6816 774 126.494 1204.4 489.203
429 0 64.1222 12.4294 797 141.987 1206.85 488.263
430 0 66.068 12.7747 844 129.05 1207.69 486.992
431 0 70.0229 12.7815 895 134.869 1208.46 485.65
432 0 70.1817 13.1943 926 131.973 1208.04 484.65
433 0 74.0813 12.7293 943 132.279 1208.41 483.158
434 0 75.0683 13.0148 977 132.414 1208.11 482.107
435 0 76.2161 13.1731 1004 136.778 1209.34 480.973
436 0 81.0843 13.0111 1055 130.391 1209.06 479.334
437 0 81.1321 13.0158 1056 129.372 1209.5 477.643
438 0 84.1362 13.1335 1105 137.554 1209.11 476.458
439 0 89.3047 12.8997 1152 131.404 1207.99 474.915
440 0 91.2069 13.5077 1232 131.448 1210.58 474.501
441 0 95.1549 13.2941 1265 127.491 1211.41 473.193
442 0 96.2825 13.3358 1284 135.939 1210.97 471.247
443 0 100.272 13.3138 1335 129.809 1209.56 469.301
444 0 102.383 13.4593 1378 130.539 1206.64 468.202
445 0 107.274 13.7219 1472 126.715 1205.91 465.475
446 0 112.256 12.8902 1447 137.295 1209.12 463.235
447 0 116.392 13.6092 1584 135.552 1207.62 461.091
448 1 60.1842 12.0297 724 127.198 1208.42 489.731
449 0 64.2963 12.1002 778 127.098 1208.53 487.672
450 0 66.1629 11.8949 787 134.384 1207.44 486.718
451 0 67.2638 12.0719 812 132.403 1208.63 484.97
452 0 70.1954 12.2658 861 125.848 1207.69 483.422
453 0 71.2259 12.4955 890 129.389 1210.22 481.967
454 0 75.2123 12.1656 915 129.486 1209.29 480.639
455 0 78.3701 12.9896 1018 131.808 1208.83 479.441
456 0 81.3565 12.857 1046 131.954 1208.65 478.089
457 0 84.3142 12.7736 1077 125.645 1208.32 476.834
458 0 86.3568 12.981 1121 129.921 1208.77 474.42
459 0 87.5387 12.9657 1135 135.521 1209.02 474.147
460 0 92.2225 12.9144 1191 126.603 1209.29 471.547
461 0 95.2872 12.9188 1231 131.878 1209.51 470.667
462 0 98.2301 12.8983 1267 133.557 1208.5 468.865
463 1 51.1648 11.16 571 127.762 1209.57 492.799
464 0 54.2528 11.4095 619 125.575 1209.01 491.609
465 0 55.48 11.6619 647 125.864 1209.93 490.567
466 0 57.2195 12.3559 707 125.076 1209.07 489.641
467 0 59.1507 12.3583 731 129.156 1209.49 488.185
468 0 62.0674 12.4059 770 129.84 1208.47 486.409
469 0 65.1418 12.5572 818 127.518 1209.04 485.44
470 0 66.0934 12.8152 847 127.642 1210.15 484.829
471 0 66.1887 13.114 868 129.217 1208.69 483.699
472 0 71.1633 12.8999 918 127.431 1209.2 482.016
473 0 71.203 12.8506 915 132.33 1207.83 480.934
474 0 74.1414 13.0022 964 132.245 1208.16 480.193
475 0 78.1853 12.9948 1016 131.811 1208.78 479.519
476 0 81.2193 12.9403 1051 140.32 1209.13 477.181
477 0 84.1946 13.0293 1097 132.757 1208.92 475.479
478 0 85.2593 13.3241 1136 142.871 1209.46 474.361
479 0 90.4372 13.3242 1205 136.929 1208.96 472.705
480 0 92.3101 13.3572 1233 141.621 1209.11 471.25
481 0 96.4284 12.8178 1236 141.56 1209.48 469.5
482 1 50.1468 11.3866 571 137.729 1209.9 492.588
483 0 53.1452 11.3275 602 142.743 1208.2 491.909
484 0 56.1403 11.6316 653 141.087 1210.04 490.548
485 0 57.1236 12.0966 691 135.123 1208.59 489.278
486 0 56.1138 12.4034 696 138.609 1208.61 488.639
487 0 58.1566 12.1568 707 144.757 1209.38 488.396
488 0 61.1597 12.2957 752 137.338 1209.71 486.878
489 0 62.1399 12.5845 782 139.867 1209.26 485.753
490 0 63.1649 12.6336 798 145.068 1210.23 485.249
491 0 66.298 12.9114 856 140.589 1207.74 483.769
492 0 69.0877 12.8532 888 140.012 1208.76 482.916
493 0 71.1901 12.7405 907 143.232 1207.82 481.851
494 0 72.2247 12.3642 893 137.54 1208.08 480.769
495 0 75.0514 12.5647 943 142.042 1210.42 479.727
496 0 76.0925 12.8791 980 139.023 1211.24 478.231
497 0 80.1086 12.8076 1026 132.702 1210.11 476.759
498 0 83.0413 12.5961 1046 142.47 1208.94 475.327
499 0 84.0875 12.8081 1077 134.699 1210.89 474.022
500 1 44.0191 10.4954 462 141.913 1210.22 495.357
501 0 46.0772 10.9382 504 134.97 1209.99 495.397
502 0 48.0687 11.2339 540 136.346 1210.37 493.881
503 0 49.0625 11.8013 579 137.028 1210.61 492.658
504 0 51.0686 11.6902 597 132.05 1211.08 492.052
505 0 52.1691 11.7503 613 131.116 1210.75 491.599
506 0 53.2071 12.1976 649 137.529 1210.54 491.376
507 0 54.1244 12.1757 659 128.982 1209.36 490.51
508 0 56.1146 12.2072 685 131.21 1207.92 489.855
509 0 58.0589 12.4184 721 128.068 1210.56 488.688
510 0 61.0796 12.3118 752 128.477 1207.06 487.399
511 0 61.0813 12.7699 780 132.844 1208.17 486.978
512 0 65.0506 12.5594 817 123.099 1208.89 484.718
513 0 64.051 12.9116 827 121.647 1209.59 484.435
514 0 66.1379 12.9729 858 127.77 1210.09 484.104
515 0 68.0806 13.2049 899 130.366 1209.26 482.898
516 0 71.0601 12.6372 898 128.551 1209.35 481.865
517 0 74.1887 12.94 960 129.739 1209.08 480.509
518 0 76.0942 13.2205 1006 127.805 1208.94 479.914
519 0 79.1168 13.2336 1047 133.376 1210.56 478.787
520 0 81.1278 13.4479 1091 131.03 1207.48 476.274
521 0 85.1667 13.0685 1113 131.851 1206.77 475.252
522 0 86.1833 13.0884 1128 134.482 1207.75 475.077
523 0 89.383 13.3023 1189 131.184 1208.83 472.872
524 0 93.3477 13.1123 1224 129.289 1207.59 471.202
525 0 97.3092 12.9998 1265 132.84 1208.37 469.166
526 0 99.1697 13.0282 1292 125.645 1208.36 468.512
527 0 103.269 12.879 1330 127.681 1208.38 466.308
528 0 106.383 13.0942 1393 128.047 1209.07 464.44
529 0 110.259 13.2415 1460 128.947 1207.86 462.616
530 0 112.403 13.6117 1530 122.419 1207.27 460.829
531 0 117.275 13.0548 1531 127.569 1207.19 459.122
532 0 120.36 13.5759 1634 129.752 1207.84 457.696
533 1 62.1542 10.9566 681 130.742 1208.4 487.2
534 0 63.1123 11.5508 729 133.104 1209.27 487.623
535 0 65.0506 12.1444 790 130.31 1209.73 486.914
536 0 66.1499 12.5321 829 126.443 1209.43 485.987
537 0 70.0925 12.5263 878 128.133 1208.45 483.525
538 0 71.1261 12.7661 908 129.326 1209.91 483.87
539 0 74.0548 12.5177 927 130.859 1208.73 482.304
540 0 76.0716 12.7117 967 124.891 1209.4 480.629
541 0 80.1529 12.4512 998 133.796 1209.47 479.528
542 0 82.1493 12.4895 1026 134.016 1210.24 478.975
543 0 83.1645 12.6737 1054 138.16 1211.14 477.757
544 0 86.3663 12.5165 1081 139.359 1209.2 476.702
545 0 89.1492 12.4398 1109 138.738 1207.9 475.007
546 0 93.0777 12.6668 1179 136.073 1207.74 472.439
547 0 96.0733 12.8027 1230 130.476 1208.25 471.002
548 0 98.1425 12.7977 1256 137.14 1209.01 469.109
549 0 103.256 12.7256 1314 138.344 1208.84 467.409
550 0 106.067 13.0578 1385 132.722 1210.28 465.999
551 1 59.0955 10.6776 631 139.458 1209.71 490.471
552 0 60.2055 11.4441 689 132.94 1208.28 488.189
553 0 61.1719 12.0317 736 124.505 1208.98 484.802
554 0 65.0448 12.3146 801 135.519 1210.38 481.958
555 0 67.0752 12.404 832 132.934 1212.74 481.879
556 0 70.0643 12.5599 880 132.453 1212.51 479.982
557 0 72.0302 12.4253 895 135.655 1210.21 483.836
558 0 74.054 12.2073 904 139.921 1210.14 482.673
559 0 76.1636 12.7489 971 138.794 1211.02 482.199
560 0 76.0759 12.895 981 139.58 1210.47 480.56
561 0 79.1684 12.8587 1018 138.637 1210.35 478.849
562 0 83.1462 12.9651 1078 136.651 1211.28 477.225
563 0 84.1941 13.0057 1095 140.973 1210.95 476.454
564 0 89.0952 12.7729 1138 139.549 1210 475.048
565 0 91.1481 13.0886 1193 139.852 1210.88 473.142
566 0 95.1129 12.5745 1196 134.157 1209.61 471.926
567 0 98.0793 13.0507 1280 132.009 1209.21 470.361
568 1 52.1687 10.8494 566 139.41 1211.33 493.223
569 0 53.1184 11.7662 625 127.094 1211.02 492.675
570 0 53.1177 12.4252 660 131.794 1210.21 491.503
571 0 56.0988 12.3176 691 130.776 1211.34 490.766
572 0 57.0378 12.3602 705 129.557 1210.3 489.448
573 0 59.0905 12.1678 719 131.878 1211.12 488.783
574 0 61.0672 12.5108 764 126.418 1211.01 488.205
575 0 62.0826 12.3384 766 124.954 1210.29 486.645
576 0 64.0581 12.7384 816 125.391 1208.49 484.9
577 0 66.1483 12.7139 841 125.438 1210.52 484.375
578 0 69.1144 13.0798 904 120.209 1209.49 481.81
579 0 69.1128 13.1814 911 128.098 1207.83 481.598
580 0 73.1914 13.13 961 121.668 1209.63 478.14
581 0 76.1742 12.6421 963 127.39 1209.65 478.843
582 0 77.2574 13.1508 1016 126.046 1211.14 477.53
583 0 82.1658 12.9129 1061 124.669 1209.36 476.488
584 0 84.1809 12.8889 1085 122.181 1210.31 474.557
585 0 87.2688 12.7193 1110 126.668 1211.59 472.368
586 0 91.1658 12.8338 1170 120.772 1210.25 471.595
587 0 94.4702 12.8612 1215 125.252 1210.09 469.072
588 0 97.6242 12.8145 1251 125.686 1209.51 467.71
589 1 51.2864 11.27 578 119.261 1209.27 488.87
590 0 54.3406 11.9248 648 122.688 1209.98 487.914
591 0 54.1328 12.026 651 128.275 1209.15 488.625
592 0 55.1678 12.4167 685 122.613 1209.41 488.047
593 0 60.167 12.3323 742 122.92 1209.49 487.321
594 0 60.2048 12.4575 750 126.216 1211.6 485.839
595 0 61.2208 13.0348 798 119.89 1211.09 485.525
596 0 63.1613 12.7768 807 122.917 1210.81 485.221
597 0 65.1966 13.4209 875 123.869 1210.44 482.726
598 0 68.1598 13.1896 899 124.731 1209.08 482.61
599 0 68.2691 13.6079 929 119.721 1209.64 481.705
600 0 72.1865 13.3404 963 128.489 1209.89 480.544
601 0 74.2835 13.5966 1010 124.086 1211.06 479.694
602 0 77.2203 13.3644 1032 124.637 1211.65 478.337
603 0 79.156 13.606 1077 119.537 1211.15 477.455
604 0 81.3034 13.8986 1130 120.273 1212.62 475.687
605 0 86.243 13.3576 1152 123.061 1211.15 474.162
606 0 88.1971 13.5152 1192 121.364 1212.18 472.789
607 0 91.4425 13.6479 1248 117.293 1211.2 471.814
608 0 92.2661 14.3281 1322 116.905 1211.44 469.958
609 0 97.2754 14.0118 1363 114.235 1213.32 468.423
610 0 101.38 13.6811 1387 115.853 1213 466.983
611 0 103.227 14.2598 1472 110.932 1211.35 465.579
612 1 52.2364 12.5392 655 108.805 1211.04 490.06
613 0 54.1786 13.1048 710 111.254 1210.74 489.152
614 0 58.0624 12.986 754 106.428 1211.81 488.578
615 0 59.1102 13.1449 777 109.925 1210.12 487.035
616 0 61.1685 12.7517 780 108.458 1211.38 486.379
617 0 63.1513 13.4756 851 104.546 1211.32 485.341
618 0 66.138 13.0031 860 101.283 1210.47 484.274
619 0 68.1882 13.0374 889 104.213 1210.04 483.872
620 0 69.2427 13.3732 926 102.3 1208.11 483.031
621 0 73.1909 13.5263 990 104.396 1209.93 481.509
622 0 75.1687 13.024 979 107.61 1211.44 480.606
623 0 75.0736 13.7731 1034 106.542 1211.35 479.116
624 0 80.2073 13.4028 1075 109.825 1210.29 477.9
625 0 83.3332 13.524 1127 104.965 1210.22 476.667
626 0 84.0785 13.4993 1135 110.945 1211.58 475.202
627 0 87.1088 13.5233 1178 109.134 1210.24 473.778
628 0 91.2989 13.527 1235 109.847 1211.21 472.534
629 0 92.2761 13.7739 1271 106.456 1211.24 470.75
630 1 48.1348 12.3819 596 107.688 1208.44 493.139
631 0 51.1042 12.3669 632 110.759 1209.16 492.559
632 0 50.1662 12.6778 636 107.98 1210.09 492.204
633 0 53.0585 12.7972 679 102.769 1209.09 491.049
634 0 54.1295 12.6918 687 105.089 1208.04 490.162
635 0 56.0912 12.3371 692 109.591 1209.86 489.61
636 0 56.1068 13.0644 733 106.011 1210.16 488.868
637 0 59.1443 12.9176 764 107.547 1210.06 487.331
638 0 62.2322 12.9033 803 100.112 1210.24 486.285
639 0 63.128 13.1004 827 106.683 1211.35 485.607
640 0 66.1191 12.8405 849 104.15 1209.69 484.55
641 0 68.1088 13.2729 904 105.077 1211.47 483.717
642 0 70.1296 12.8049 898 109.895 1210.98 482.584
643 0 72.2303 13.0693 944 105.709 1212.77 481.568
644 0 73.2573 13.2683 972 109.57 1210.72 480.024
645 0 74.2634 13.4656 1000 110.78 1210.41 479.14
646 0 78.3654 13.1946 1034 111.781 1210.38 477.681
647 0 80.4075 13.1953 1061 108.061 1209.93 476.671
648 0 83.3787 13.5046 1126 111.972 1208.6 474.511
649 0 88.26 13.0523 1152 114.113 1209.78 473.201
650 1 45.0725 11.182 504 112.958 1209.91 495.2
651 0 48.0868 11.3753 547 113.923 1211.16 494.272
652 0 49.044 11.9281 585 110.214 1211.8 494.039
653 0 50.1478 12.2039 612 113.641 1213.4 493.902
654 0 53.1083 12.1262 644 113.806 1211.13 492.425
655 0 53.0866 12.376 657 115.737 1210.75 492.642
656 0 54.0848 12.4619 674 117.208 1212.16 492.335
657 0 55.2169 12.5143 691 115.881 1211.88 491.576
658 0 57.1391 12.9158 738 111.973 1210.49 490.822
659 0 60.1348 12.9875 781 108.545 1212.18 490.163
660 0 61.1934 13.1713 806 117.908 1210.11 489.509
661 0 65.163 12.7526 831 115.414 1209.66 488.762
662 0 67.1943 13.2005 887 116.546 1210.08 487.723
663 0 67.1293 13.5261 908 113.567 1210.56 486.88
664 0 70.1674 13.2255 928 116 1210.28 486.025
665 0 72.2304 13.3323 963 98.8349 1210.05 485.108
666 0 75.2585 13.1015 986 122.529 1209.21 484.323
667 0 77.2949 13.4808 1042 122.154 1210.74 482.132
668 0 81.1995 13.3006 1080 125.491 1211.28 481.002
669 0 83.3323 13.0922 1091 125.751 1210.3 479.912
670 0 87.2231 13.219 1153 124.474 1210.9 477.942
671 0 90.2214 13.1454 1186 122.266 1210.5 476.648
672 1 47.0717 11.5143 542 116.446 1209.81 497.635
673 0 50.0628 11.7652 589 123.907 1209.49 496.576
674 0 51.0595 12.554 641 116.345 1209.76 495.551
675 0 51.093 12.6632 647 119.226 1212.21 494.799
676 0 53.0689 12.9831 689 116.528 1211.66 494.044
677 0 55.1027 12.7943 705 118.753 1210.35 493.606
678 0 55.1373 12.9858 716 119.75 1210.87 492.943
679 0 58.115 12.7678 742 114.91 1210.1 492.073
680 0 60.1205 12.8243 771 116.656 1208.85 491.204
681 0 60.0545 13.1547 790 110.778 1209.23 491.057
682 0 63.1085 12.835 810 118.014 1209.32 489.43
683 0 66.0604 13.0335 861 109.844 1208.5 488.538
684 0 67.1639 12.8789 865 109.482 1210.72 487.541
685 0 70.1151 13.0357 914 111.954 1209.78 486.306
686 0 72.1861 13.1743 951 111.158 1210.44 485.458
687 0 72.2173 13.044 942 113.452 1210.27 484.791
688 0 74.2932 13.1102 974 114.197 1208.76 483.655
689 0 77.2188 13.1574 1016 70.5335 1210.88 482.324
690 0 80.4313 12.806 1030 113.97 1211.73 481.183
691 0 82.3168 12.9743 1068 110.958 1210.3 480.079
692 0 85.2833 13.1679 1123 115.533 1210.03 478.552
693 0 87.1915 12.937 1128 108.51 1209.78 476.789
694 0 90.2921 13.4896 1218 107.246 1209.57 474.471
695 0 92.1812 13.3433 1230 116.509 1210.23 473.361
696 1 47.171 12.1685 574 117.064 1211.21 495.624
697 0 49.2526 12.8115 631 113.013 1211.5 494.829
698 0 50.1155 12.571 630 116.903 1210.95 494.16
699 0 53.1717 12.3186 655 117.373 1210.82 493.769
700 0 53.0901 13.0156 691 119.575 1209.65 492.822
701 0 54.1457 13.242 717 121.577 1211.78 492.262
702 0 56.0552 13.0764 733 124.261 1211.6 491.266
703 0 57.1121 13.5173 772 120.497 1211.3 490.418
704 0 58.0519 13.7636 799 121.049 1209.46 489.446
705 0 60.0727 13.7999 829 121.509 1210.64 488.659
706 0 62.1205 13.5221 840 124.025 1211.28 487.574
707 0 66.294 13.4703 893 123.798 1211.41 486.105
708 0 66.161 13.7241 908 127.335 1210.93 485.809
709 0 70.3021 13.3709 940 129.751 1208.74 485.137
710 0 71.3088 13.8412 987 129.722 1209.39 483.443
711 0 73.1851 13.664 1000 127.024 1209.47 482.284
712 0 77.3014 13.5444 1047 137.392 1211.54 481.173
713 0 80.3219 13.6575 1097 131.638 1210.93 479.373
714 0 81.2766 13.7555 1118 134.547 1211.88 478.216
715 0 86.2605 13.4245 1158 133.946 1212 476.125
716 0 88.3456 13.6509 1206 133.405 1211.4 474.495
717 0 90.2647 13.7928 1245 127.497 1211.26 473.818
718 0 94.1961 13.249 1248 124.947 1209.94 472.083
719 1 49.0289 12.2377 600 126.788 1210.6 493.945
720 0 50.0616 12.3248 617 127.321 1211.52 493.407
721 0 52.0459 12.8156 667 118.505 1210.01 491.69
722 0 53.0589 12.9479 687 125.112 1211.07 491.345
723 0 56.1046 12.6015 707 127.294 1210.12 490.693
724 0 57.1109 13.0273 744 120.856 1210.32 489.441
725 0 59.1305 12.9206 764 123.004 1211.21 489.045
726 0 60.1194 13.074 786 119.71 1211.04 487.828
727 0 63.0518 13.021 821 121.943 1210.33 486.625
728 0 65.0906 13.0741 851 127.925 1211.43 485.482
729 0 65.064 13.4329 874 126.937 1211.52 484.587
730 0 68.0692 13.4716 917 125.346 1212.52 483.393
731 0 69.1015 13.2703 917 129.306 1210.74 481.862
732 0 74.0849 13.1606 975 126.426 1210.94 480.889
733 0 76.1062 13.1001 997 124.92 1209.42 479.16
734 0 77.1769 13.2293 1021 128.171 1210.3 478.313
735 0 82.1909 12.9576 1065 122.792 1208.21 475.857
736 0 83.257 13.4043 1116 124.254 1210.98 474.795
737 1 44.0504 11.169 492 126.811 1211 495.935
738 0 45.0238 11.4384 515 121.588 1210.96 494.92
739 0 45.0238 11.4384 515 153.307 1210.96 494.92
740 0 49.0908 12.4667 612 122.933 1213 492.864
741 0 50.0371 12.4708 624 122.968 1212.54 492.034
742 0 50.035 12.7911 640 122.792 1209.83 491.186
743 0 53.0594 12.5708 667 119.357 1211.41 490.874
744 0 52.0745 13.1734 686 126.703 1210.69 489.496
745 0 55.1035 12.8667 709 125.697 1211.05 488.994
746 0 58.102 13.2353 769 120.707 1210.71 487.666
747 0 60.0545 13.0049 781 125.593 1210.71 486.868
748 0 61.031 13.1409 802 128.638 1210.02 486.143
749 0 63.0819 13.0465 823 132.615 1209.76 485.65
750 0 65.1569 13.2296 862 134.908 1211.56 484.964
751 0 65.0992 13.3028 866 143.054 1210.48 483.883
752 0 67.025 13.3234 893 140.356 1209.35 483.063
753 0 70.0673 13.8153 968 137.528 1208.93 481.59
754 0 74.1159 13.8162 1024 142.906 1209.67 480.231
755 0 75.1297 13.683 1028 145.38 1210.63 479.778
756 0 76.0959 14.1663 1078 140.524 1211.15 479.136
757 0 80.1299 13.9274 1116 143.141 1211.26 477.076
758 0 82.171 14.1777 1165 135.003 1210.69 476.001
759 0 84.1684 14.1858 1194 145.181 1209.98 474.312
760 0 88.128 13.9797 1232 146.372 1208.99 473.274
761 0 91.1711 13.9628 1273 142.709 1207.49 471.823
762 0 93.078 14.4288 1343 142.146 1209.68 469.908
763 0 95.2136 14.4727 1378 150.226 1211.31 469.202
764 0 98.1548 14.0696 1381 146.382 1208.14 468.412
765 0 103.11 14.2469 1469 149.357 1210.52 466.511
766 0 106.243 14.4951 1540 146.087 1209.33 464.719
767 0 107.184 14.825 1589 146.819 1210.85 463.562
768 0 112.149 14.8463 1665 148.679 1210.97 461.456
769 0 116.243 14.7794 1718 144.602 1211.12 459.273
770 0 121.204 14.9004 1806 152.795 1211.77 457.063
771 0 125.119 14.4742 1811 155.708 1212.81 455.276
772 0 128.126 14.6418 1876 147.8 1209.95 452.628
773 0 133.153 15.0578 2005 147.611 1210.95 450.07
774 0 137.29 14.728 2022 154.052 1210.94 448.028
775 0 142.288 15.0118 2136 153.645 1208.87 445.779
776 0 142.288 15.0118 2136 177.934 1206.87 445.779
777 0 142.288 15.0118 2136 177.934 1204.87 445.779
778 1 159.164 15.104 2404 150.136 1210.32 437.318
779 0 163.148 15.0416 2454 145.215 1210.61 434.642
780 0 171.269 14.6787 2514 153.144 1212.02 430.85
781 0 178.357 15.2559 2721 143.416 1209.26 427.988
782 0 183.46 15.0387 2759 144.037 1210.48 424.71
783 0 191.476 15.182 2907 153.337 1211.22 421.264
784 0 198.543 14.9036 2959 149.258 1211.71 418.046
785 0 205.316 14.9964 3079 145.516 1209.45 414.697
786 1 155.086 13.6569 2118 157.448 1209.1 440.805
787 0 160.279 13.9632 2238 150.394 1210.29 436.828
788 0 165.414 13.699 2266 148.993 1208.53 434.917
789 0 171.359 14.1049 2417 153.086 1208.85 431.996
790 0 179.375 14.0432 2519 152.311 1209.98 428.464
791 0 186.393 13.8417 2580 149.498 1208.33 425.747
792 0 194.355 14.1339 2747 151.312 1209.47 421.605
793 0 200.321 14.1473 2834 150.207 1208.05 417.857
794 0 209.338 14.2019 2973 154.577 1208.98 414.23
795 1 49.0565 11.1504 547 144.559 1209.63 494.636
796 0 51.0447 11.6369 594 139.584 1209.89 494
797 0 53.1516 12.2292 650 143.702 1211.41 492.795
798 0 54.1642 12.3882 671 144.611 1210.64 491.887
799 0 56.1827 12.3348 693 139.085 1210.84 491.061
800 0 58.2028 12.2675 714 145.151 1209.56 490.801
801 0 61.1351 12.6768 775 141.99 1209.93 488.898
802 0 64.1066 12.2452 785 138.085 1206.58 488.004
803 0 66.0481 12.1124 800 142.526 1210.08 486.894
804 0 68.1025 12.8042 872 140.346 1210.32 485.993
805 0 69.0296 12.6612 874 135.991 1208.8 485.181
806 0 73.0656 12.3724 904 143.521 1207.64 484.75
807 0 72.0805 12.6941 915 139.042 1206.93 484.144
808 1 37.0368 10.6381 394 136.662 1209.55 500.985
809 0 39.0279 11.1202 434 140.765 1208.14 499.468
810 0 40.0147 11.9956 480 138.9 1209.69 500.381
811 0 42.0295 11.8964 500 143.222 1209.51 499.79
812 0 43.044 12.2665 528 137.189 1208.96 499.28
813 0 43.0304 12.3866 533 144.94 1209.62 498.934
814 0 46.0234 12.3633 569 138.659 1209.4 498.643
815 0 45.0239 12.3268 555 142.632 1208.23 498.258
816 0 47.1198 12.5425 591 142.423 1208.64 497.887
817 0 49.0729 12.4101 609 141.722 1209.14 496.933
818 0 50.0319 12.8518 643 143.425 1206.99 496.565
819 0 49.0258 13.0952 642 135.919 1208.74 496.584
820 0 52.0831 13.3825 697 137.422 1207.87 495.204
821 0 53.1923 13.6674 727 137.913 1207.49 494.73
822 0 55.0877 13.3968 738 137.629 1208.52 493.572
823 0 57.1356 13.3017 760 137.884 1209.02 492.891
824 0 59.1393 13.1216 776 143.932 1209.83 491.722
825 0 60.1983 13.4555 810 139.732 1209.08 491.074
826 0 61.1524 13.9488 853 136.85 1210.18 490.769
827 0 63.217 13.9203 880 140.35 1208.81 489.193
828 0 64.2703 13.9878 899 131.121 1207.85 488.326
829 0 65.1485 14.6435 954 134.549 1208.38 487.042
830 0 68.1965 14.4729 987 132.098 1209.9 486.097
831 0 69.1851 14.772 1022 137.106 1209.14 484.926
832 0 74.1809 14.4512 1072 137.423 1208.61 483.397
833 0 75.1428 14.8118 1113 135.089 1208.31 481.831
834 0 78.2623 14.5153 1136 140.602 1207.12 480.464
835 0 80.1647 14.6823 1177 140.715 1207.09 478.466
836 0 84.2005 14.4298 1215 140.376 1208.93 476.64
837 0 87.3584 14.389 1257 138.913 1207.58 475.232
838 0 89.2479 14.6558 1308 133.396 1210.17 473.093
839 0 92.233 14.6585 1352 133.077 1208.88 472.055
840 0 95.1271 15.0641 1433 136.469 1210.7 469.983
841 1 50.0786 13.5786 680 141.231 1211.55 492.3
842 0 53.0841 13.4315 713 138.135 1210.51 491.705
843 0 54.0869 13.6632 739 137.143 1210.88 490.985
844 0 53.0488 13.8363 734 144.916 1210.38 490.301
845 0 56.1129 13.9006 780 138.978 1212.78 489.368
846 0 58.1137 13.6112 791 132.45 1209.25 488.761
847 0 61.1697 13.6015 832 143.02 1209.41 487.763
848 0 63.066 13.8744 875 139.478 1209.32 486.686
849 0 64.0402 13.7101 878 137.625 1209.26 485.262
850 0 66.0642 13.7594 909 135.019 1210.34 484.748
851 0 69.088 14.0111 968 138.674 1210.4 483.316
852 0 70.1468 13.6428 957 146.369 1210.53 482.628
853 0 71.134 13.9455 992 137.234 1210.33 481.971
854 0 72.0864 14.1636 1021 143.958 1210.39 480.713
855 0 76.1097 14.3083 1089 141.099 1209.22 479.58
856 0 76.1097 14.3083 1089 180.59 1208.22 479.58
857 0 82.1834 13.8471 1138 144.066 1209.16 477.213
858 0 85.0911 14.0438 1195 139.986 1211.56 474.795
859 0 87.2134 13.8855 1211 143.92 1209.8 473.249
860 0 91.1864 13.9714 1274 145.327 1209.34 472.362
861 0 92.1194 14.1121 1300 139.948 1209.42 471.035
862 0 98.1969 14.196 1394 141.63 1208.76 468.87
863 0 100.242 13.8963 1393 136.991 1209.35 467.096
864 0 104.215 14.0383 1463 140.154 1210.17 465.666
865 0 106.289 14.2724 1517 135.657 1209.53 463.615
866 0 110.17 14.1962 1564 140.777 1210.68 461.326
867 0 113.144 13.8938 1572 137.066 1211.51 460.854
868 0 119.275 14.2779 1703 125.455 1211.16 457.771
869 0 121.321 14.5646 1767 134.938 1210.06 455.63
870 0 126.305 14.3384 1811 128.044 1209.77 453.711
871 0 132.258 14.1542 1872 137.197 1210.55 452.094
872 0 135.207 14.5185 1963 130.287 1209.29 450.003
873 0 141.364 14.5864 2062 132.448 1208.27 446.587
874 0 146.274 14.9172 2182 137.705 1209.83 443.526
875 0 150.186 14.6485 2200 141.032 1208.81 441.725
876 0 155.125 14.7945 2295 141.991 1209.77 439.735
877 0 160.342 14.5189 2328 148.101 1209.77 437.595
878 0 166.124 14.736 2448 142.44 1210.55 434.846
879 0 170.306 14.7441 2511 144.652 1209.22 432.099
880 0 176.184 14.7346 2596 146.592 1209.05 429.12
881 0 183.316 15.0232 2754 139.152 1209.44 426.398
882 0 188.232 15.0347 2830 133.029 1210.46 423.116
883 0 194.33 14.9642 2908 139.532 1209.25 421.03
884 0 199.286 15.1792 3025 160.778 1210.21 418.038
885 0 205.359 14.9981 3080 163.644 1209.2 415.378
886 0 211.409 15.2075 3215 158.273 1210.47 412.319
887 0 214.514 15.365 3296 159.473 1210.62 408.846
888 0 221.269 15.4066 3409 150.858 1210.45 405.791
889 0 228.332 15.3198 3498 158.669 1210.28 402.823
890 0 235.305 15.414 3627 165.484 1209.79 398.945
891 0 240.332 15.5535 3738 161.555 1210 396.224
892 0 246.447 15.2934 3769 163.219 1209.1 392.739
893 0 254.375 15.0958 3840 166.152 1208.22 389.236
894 0 263.406 15.4172 4061 156.861 1208.19 383.992
895 0 266.518 16.2165 4322 157.952 1209.11 380.053
896 0 274.508 15.6826 4305 157.211 1210.4 376.741
897 0 279.397 15.7482 4400 162.202 1211.46 373.669
898 0 286.493 15.6967 4497 161.032 1210.54 369.734
899 0 293.799 15.4902 4551 163.334 1209.24 366.295
900 0 299.453 15.535 4652 155.793 1207.85 362.785
901 0 307.673 15.6302 4809 159.736 1209.46 359.225
902 0 314.408 15.6962 4935 161.377 1208.26 355.843
903 0 320.613 15.4672 4959 157.809 1209.34 353.249
904 0 327.642 15.6543 5129 164.452 1209.97 349.281
905 0 334.648 15.6045 5222 161.242 1207.7 345.083
906 0 342.033 15.2705 5223 163.761 1209.3 343.427
907 0 349.916 15.578 5451 162.997 1207.09 338.984
908 0 356.657 15.5808 5557 158.548 1206.82 334.996
909 0 362.863 15.5183 5631 157.036 1207.95 331.218
910 0 370.014 15.5994 5772 160.488 1209.31 327.359
911 0 377.033 15.1737 5721 155.156 1210.11 323.33
912 0 383.874 15.4843 5944 161.772 1209.72 320.283
913 0 391.935 15.4362 6050 156.046 1208.09 316.082
914 0 398.139 15.5925 6208 160.338 1207.2 311.666
915 0 404.884 15.3155 6201 159.108 1207.98 310.083
916 0 412.066 15.3204 6313 156.484 1207.51 304.231
917 0 419.07 15.4103 6458 157.827 1205.81 302.706
918 1 396.97 13.1773 5231 171.586 1206.62 316
919 0 395.011 12.906 5098 174.024 1207.7 316.292
920 0 77.3926 17.4177 1348 30.2455 1199.15 530.872
921 0 47.1107 20.887 984 22.0478 1213.58 539.709
922 0 44.4519 9.71837 432 23.6273 1182.94 535.78
923 0 81.8416 19.6721 1610 23.2689 1190.71 564.375
924 0 49.1476 26.7155 1313 24.7342 1190.62 566.253
925 0 93.2818 11.1383 1039 25.6901 1197.17 568.691
926 0 85.4776 17.3145 1480 22.4135 1191.76 573.122
927 0 60.3106 22.7158 1370 22.0445 1177.8 571.24
928 0 40.5826 35.6557 1447 20.4561 1174.54 559.058
929 0 61.0278 26.4797 1616 21.9938 1161.71 555.846
930 0 42.6135 45.5255 1940 21.0577 1161.6 557.375
931 0 46.056 24.3182 1120 22.4062 1157.11 558.369
932 0 38.8802 40.2261 1564 21.9361 1156.88 559.217
933 0 62.8037 33.8993 2129 20.5721 1153.63 559.102
934 0 62.46 33.1733 2072 21.5449 1151.96 559.14
935 0 86.0374 23.3038 2005 21.4434 1147.04 529.147
936 0 81.8161 31.2652 2558 21.6704 1147.89 533.305
