index division length width area intensity CMx CMy
0 0 67.2273 14.8749 1000 159.341 1141.41 278.07
1 0 69.0262 14.748 1018 161.822 1140.45 278.209
2 0 71.1131 14.9058 1060 160.814 1144.26 279.63
3 0 73.0637 14.9459 1092 152.043 1146.01 280.919
4 0 74.0572 15.0289 1113 150.637 1144.78 282.024
5 0 77.0662 14.5978 1125 158.454 1145.49 282.675
6 0 81.0413 14.7456 1195 159.12 1144.75 283.694
7 0 82.153 15.2885 1256 144.418 1144.21 284.422
8 0 84.0872 15.0677 1267 160.028 1144.41 285.743
9 0 88.0805 14.8274 1306 158.426 1144.5 286.675
10 0 91.0713 14.7577 1344 162.001 1145.46 287.278
11 0 92.0477 15.3181 1410 155.944 1143.55 288.061
12 0 95.0746 14.9146 1418 151.815 1143.72 289.082
13 0 99.1747 14.8727 1475 150.603 1142.47 288.603
14 0 104.153 14.7668 1538 161.448 1144.54 288.951
15 0 107.14 14.9337 1600 161.439 1143.83 288.121
16 1 55.0329 13.3738 736 169.639 1142.83 315.743
17 0 57.1347 14.2645 815 163.14 1143.7 316.004
18 0 58.0521 14.5042 842 163.23 1142.79 316.475
19 0 62.0828 14.2874 887 163.365 1140.91 317.184
20 0 65.0427 14.1907 923 164.314 1141.75 317.852
21 0 66.1536 14.4512 956 163.659 1142.13 317.783
22 0 69.103 14.529 1004 159.22 1143.31 317.849
23 0 71.0591 14.7201 1046 154.488 1142.56 318.248
24 0 74.1628 14.8997 1105 157.557 1140.53 318.16
25 0 76.0645 14.5403 1106 152.24 1141.54 318.682
26 0 79.266 14.7226 1167 155.405 1141.96 318.127
27 0 82.0846 14.7896 1214 156.92 1142.87 318.47
28 0 85.0871 14.7143 1252 148.724 1142.8 318.03
29 0 88.0531 14.6616 1291 157.129 1142.94 317.81
30 0 89.1421 14.8751 1326 162.75 1141.77 316.981
31 0 93.0325 15.0055 1396 158.304 1141.82 316.08
32 0 96.1959 14.8239 1426 162.559 1141.48 316.139
33 0 97.0589 15.2073 1476 162.405 1144.69 315.233
34 0 103.093 14.8021 1526 159.708 1147.15 315.075
35 0 107.136 14.7289 1578 164.054 1144.06 315.821
36 0 111.12 14.6869 1632 156.451 1145.89 315.562
37 1 60.1339 13.6861 823 166.175 1146.87 342.739
38 0 63.1448 13.7145 866 158.924 1146.31 344.841
39 0 65.1319 13.8795 904 168.504 1145.92 346.518
40 0 65.0531 14.3268 932 166.088 1147.13 348.25
41 0 70.0366 13.7928 966 162.948 1147.38 350.401
42 0 73.0328 13.7883 1007 163.04 1147.18 351.91
43 0 74.0194 14.0909 1043 165.594 1147.09 354.543
44 0 78.0555 14.4513 1128 159.058 1149.56 356.678
45 0 80.0321 14.3692 1150 169.723 1148.35 358.752
46 0 82.0758 14.4988 1190 170.698 1147.92 361.295
47 0 85.092 14.4079 1226 166.501 1148.45 363.028
48 0 89.2083 14.2139 1268 168.284 1148.38 365.744
49 0 92.095 14.029 1292 169.007 1147.24 369.025
50 0 95.2402 14.1117 1344 168.876 1149.53 370.852
51 0 99.1919 14.3762 1426 167.863 1151.55 373.781
52 0 101.101 14.0454 1420 165.932 1149.23 378.131
53 0 106.257 14.0321 1491 171.504 1148.18 380.17
54 1 52.0616 13.6377 710 169.732 1148.75 410.465
55 0 54.027 13.3452 721 163.108 1146.46 414.309
56 0 57.0654 13.7036 782 164.393 1146.89 417.535
57 0 60.1488 13.4832 811 164.962 1149.07 420.824
58 0 59.0423 13.8375 817 160.431 1146.79 424.29
59 0 63.0848 14.1238 891 158.397 1148.77 427.036
60 0 65.027 13.7789 896 159.408 1146.26 431.087
61 0 67.1082 14.0668 944 161.284 1146.02 433.901
62 0 70.0368 14.164 992 163.039 1146 437.271
63 0 73.0919 13.8045 1009 157.636 1146.64 440.671
64 0 74.0527 14.2601 1056 150.997 1146.34 443.578
65 0 77.0789 14.1673 1092 159.082 1147.68 446.908
66 0 79.0899 14.5404 1150 159.064 1149.14 449.915
67 0 83.0983 14.3806 1195 155.453 1148.01 453.414
68 0 86.1362 14.1056 1215 166.401 1146.02 456.809
69 0 87.033 14.6037 1271 161.238 1145.91 459.477
70 0 90.0571 14.4797 1304 157.595 1146.98 462.267
71 0 93.0807 14.3209 1333 166.728 1146.8 464.769
72 0 96.0491 14.3677 1380 158.984 1146.84 467.364
73 0 100.093 13.907 1392 153.454 1147 470.2
74 0 101.073 14.168 1432 163.448 1147.79 472.029
75 0 103.187 14.0037 1445 161.459 1144.78 471.058
76 0 109.169 14.1341 1543 120.047 1145.66 468.11
77 0 113.239 14.3148 1621 163.576 1147.88 466.574
78 0 116.17 14.3066 1662 162.173 1148.2 465.06
79 0 121.137 14.3474 1738 166.729 1149.28 462.696
80 0 125.367 14.1903 1779 167.154 1147.97 460.836
81 0 128.105 14.6911 1882 167.83 1147.42 458.032
82 0 133.262 14.2952 1905 163.486 1149.18 455.46
83 0 138.135 14.3193 1978 164.687 1149.13 452.505
84 0 144.24 14.462 2086 165.119 1148.04 450.807
85 1 77.0898 12.5568 968 159.085 1148.83 483.6
86 0 80.1338 12.8785 1032 163.141 1149.02 482.672
87 0 81.169 12.7881 1038 155.079 1149.52 481.614
88 0 86.1257 12.9694 1117 151.192 1148.77 479.404
89 0 87.1761 13.1229 1144 157.589 1148.05 478.448
90 0 93.1164 12.522 1166 161.212 1149.3 477.839
91 0 95.1391 13.1912 1255 157.268 1149.62 476.006
92 0 99.0501 13.2963 1317 155.773 1150.22 474.125
93 0 101.086 12.8703 1301 158.543 1150.19 472.507
94 1 52.0502 11.6426 606 155.114 1149.67 496.206
95 0 54.0391 12.1393 656 153.473 1149.54 496.203
96 0 57.1203 11.6421 665 145.998 1150.63 495.253
97 0 59.0995 12.0136 710 151.199 1146.54 494.486
98 0 61.1415 12.1194 741 144.015 1148.15 493.358
99 0 61.0843 12.4746 762 145.192 1150.23 492.408
100 0 63.1844 12.2815 776 151.276 1146.62 491.514
101 0 66.1388 12.3528 817 148.58 1146.88 490.384
102 0 67.1962 13.4383 903 149.741 1148.76 488.941
103 0 71.2222 12.8331 914 151.126 1147.45 487.143
104 0 71.1288 12.9202 919 149.62 1148.84 485.861
105 0 76.1586 13.1699 1003 146.678 1146.52 484.176
106 0 78.223 12.9374 1012 149.068 1146.55 483.58
107 0 81.1609 12.8633 1044 143.398 1146.65 481.56
108 0 83.2573 13.3322 1110 138.369 1147.4 479.559
109 0 86.1225 12.9351 1114 147.086 1146.95 478.329
110 0 90.1612 12.9324 1166 146.329 1148.32 476.222
111 0 92.2639 13.2663 1224 147.431 1148.88 474.151
112 0 96.1799 13.4332 1292 145.958 1148.47 471.712
113 0 99.1363 13.8496 1373 142.865 1148.63 470.224
114 0 103.217 13.7284 1417 137.712 1147.35 467.414
115 0 106.234 13.7432 1460 137.501 1145.72 465.473
116 0 111.345 13.5614 1510 135.603 1149.99 462.345
117 0 115.29 13.8 1591 138.019 1145.69 461.646
118 1 62.2456 12.2418 762 134.084 1149.43 486.995
119 0 65.3474 12.0127 785 135.335 1148.05 485.381
120 0 67.3196 12.656 852 131.332 1147.12 483.69
121 0 70.2955 12.7746 898 132.155 1147.67 482.277
122 0 72.3029 12.5306 906 130.331 1147.12 481.225
123 0 74.274 12.9117 959 123.481 1147.95 480.128
124 0 76.4702 13.0901 1001 127.92 1147.63 478.668
125 0 78.3487 12.9038 1011 126.327 1146.36 476.839
126 0 82.3918 13.4844 1111 126.57 1148.19 475.691
127 0 85.3873 13.0113 1111 122.615 1147.6 474.021
128 0 88.2923 13.0476 1152 127.464 1147.79 472.802
129 0 90.1886 13.0726 1179 123.721 1150.12 471.048
130 0 93.3078 13.3644 1247 126.024 1149.48 469.536
131 0 99.1804 13.4099 1330 123.079 1149.45 467.523
132 1 52.1979 10.6518 556 127.567 1152.06 490.782
133 0 56.1373 11.1334 625 126.778 1148.45 490.358
134 0 55.1521 12.0032 662 123.005 1148.99 491.769
135 0 58.1604 12.775 743 123.346 1148.4 490.197
136 0 60.1667 12.4654 750 127.996 1148.97 490.011
137 0 60.138 13.1531 791 116.808 1148.48 488.946
138 0 64.1531 12.7975 821 120.906 1149.59 487.724
139 0 65.2266 12.8782 840 38.0583 1149.2 487.004
140 0 66.1918 12.8868 853 129.921 1149.06 486.096
141 0 69.2114 12.9314 895 104.602 1147.34 485.569
142 0 71.2219 12.8893 918 124.793 1146.43 483.527
143 0 72.1005 13.0512 941 124.276 1145.62 482.764
144 0 75.2925 13.2018 994 124.201 1145.74 482.09
145 1 51.1845 11.058 566 129.138 1149.33 494.044
146 0 52.3206 10.665 558 129.699 1148.95 494.387
147 0 53.3055 11.4435 610 126.482 1147.61 493.807
148 0 54.1674 11.0952 601 128.559 1145.64 493.86
149 0 55.1678 12.3441 681 124.997 1146.62 492.759
150 0 56.2357 12.412 698 119.884 1146.76 492.554
151 0 59.1789 12.3186 729 130.819 1145.65 491.376
152 0 60.141 12.2545 737 128.609 1146.49 490.927
153 0 63.1223 12.3253 778 126.393 1147.24 489.221
154 0 66.1935 12.1462 804 128.392 1146.12 488.169
155 0 66.1649 11.9701 792 132.726 1146.49 487.773
156 0 69.2215 12.4239 860 131.915 1147.63 486.319
157 0 70.0759 12.4151 870 132.817 1147.3 485.506
158 0 73.0468 12.7589 932 122.851 1145.35 484.212
159 0 75.0899 12.6915 953 126.662 1146.26 482.42
160 0 79.0744 12.3175 974 131.005 1145.04 481.234
161 0 81.1666 12.4682 1012 128.748 1147.94 480.637
162 0 81.0902 12.7512 1034 135.749 1147.06 479.919
163 0 88.0706 12.4559 1097 130.584 1146.69 478.631
164 0 91.0758 12.6708 1154 132.536 1145.87 477.705
165 0 93.1369 12.7876 1191 129.014 1145.21 476.346
166 1 50.0744 10.9836 550 129.109 1148.53 497.631
167 0 52.1724 11.0403 576 134.328 1148.49 497.172
168 0 54.1008 11.3492 614 132.715 1147.92 497.28
169 0 55.2148 12.1344 670 133.23 1147.93 496.364
170 0 56.0691 12.0209 674 129.933 1147.01 495.174
171 0 58.1901 12.4592 725 135.574 1146.94 495.124
172 0 57.1785 12.2599 701 130.976 1146.34 495.104
173 0 60.1427 12.3373 742 137.914 1146.84 493.807
174 0 62.1268 12.8608 799 134.914 1148.61 492.801
175 0 64.158 12.5627 806 132.935 1146.61 492.177
176 0 65.0917 12.9049 840 140.671 1146.63 490.771
177 0 67.2303 13.0893 880 133.667 1146.81 489.681
178 0 69.1443 12.9584 896 143.377 1147.63 489.211
179 0 73.2089 12.6897 929 144.876 1148.36 487.146
180 0 74.1947 12.5481 931 151.896 1148.06 486.45
181 0 77.1489 12.4305 959 148.789 1148.6 485.153
182 0 79.1441 12.85 1017 148.274 1148.73 484.441
183 0 82.2964 12.8681 1059 153.005 1148.51 482.251
184 0 86.3896 12.9414 1118 150.672 1149.3 480.208
185 0 87.3287 13.0541 1140 150.452 1146.73 479.327
186 0 92.3473 12.8103 1183 151.518 1148.57 477.451
187 0 95.2111 13.0867 1246 154.848 1148.07 476.425
188 0 98.2322 12.898 1267 152.942 1147.44 474.062
189 0 101.343 13.0842 1326 157.842 1146.06 471.897
190 0 105.26 12.9109 1359 153.191 1146.23 470.264
191 1 54.1836 11.8301 641 149.189 1147.42 495.697
192 0 55.0559 12.2239 673 146.737 1146.3 494.569
193 0 58.1122 12.5275 728 149.948 1147.25 493.413
194 0 60.1754 12.3971 746 148.673 1148.94 493.188
195 0 60.11 12.4106 746 146.673 1147.77 492.153
196 0 63.1187 12.9122 815 150.096 1149.25 490.998
197 0 63.1303 12.7197 803 148.007 1148.04 490.005
198 0 66.0649 12.9115 853 153.958 1145.7 488.893
199 0 69.1269 12.8459 888 155.02 1145.29 487.325
200 0 69.1286 12.8456 888 158.426 1146.9 487.294
201 0 74.0467 12.8703 953 156.51 1146.76 485.74
202 0 74.1839 13.1969 979 157.748 1147.89 484.447
203 0 77.0775 13.2334 1020 160.756 1147.97 483.286
204 0 79.0952 12.9211 1022 159.049 1147.64 482.692
205 0 81.277 13.3125 1082 159.995 1149.07 480.036
206 0 84.1376 13.3472 1123 158.394 1149.59 478.545
207 0 87.1065 13.2482 1154 164.229 1148.24 477.141
208 0 89.1451 13.4388 1198 159.174 1148.02 475.861
209 0 93.0348 13.5326 1259 161.88 1148.19 473.909
210 0 97.058 13.3219 1293 165.56 1148.59 471.464
211 0 100.14 12.9819 1300 160.158 1149.77 469.565
212 0 103.045 13.4892 1390 163.005 1149.85 467.873
213 1 52.0411 11.4525 596 160.567 1149.14 492.824
214 0 56.0783 11.8406 664 154.566 1148.5 491.691
215 0 57.0432 11.9383 681 38.9457 1149.14 490.999
216 0 59.0823 12.3049 727 153.821 1147.51 489.55
217 0 58.0955 12.8753 748 157.253 1147.05 488.714
218 0 63.109 12.1219 765 152.029 1148.04 487.374
219 0 64.0847 12.5303 803 150.482 1149.2 486.788
220 0 66.0763 12.6369 835 154.963 1148.46 485.812
221 0 69.1113 12.3135 851 157.445 1150.85 484.515
222 0 71.1265 12.6113 897 158.268 1149.45 482.419
223 0 73.1542 12.6035 922 149.926 1147.26 481.374
224 0 75.2864 12.738 959 158.964 1145.91 480.46
225 0 77.2346 12.9217 998 155.212 1148.34 480.029
226 0 79.352 12.9297 1026 155.62 1152.22 477.75
227 0 82.3174 12.9134 1063 154.661 1148.28 476.229
228 0 83.4421 12.7394 1063 155.105 1148.05 474.705
229 0 87.3866 12.9997 1136 156.731 1148.46 473.074
230 1 47.1457 10.9236 515 157.518 1146.63 494.153
231 0 48.2026 11.3894 549 153.091 1148.63 492.967
232 0 50.1204 11.5123 577 153.017 1149.51 491.87
233 0 52.0505 11.7386 611 148.484 1149.42 491.538
234 0 53.0755 11.8134 627 145.435 1151.21 491.609
235 0 53.046 12.1781 646 142.293 1148.51 490.223
236 0 53.0629 12.3815 657 143.394 1147.73 489.991
237 0 57.1024 11.9434 682 147.616 1147.76 489.114
238 0 59.0924 11.9474 706 142.007 1145.44 487.343
239 0 59.0559 12.6152 745 142.106 1147.22 487.365
240 0 59.1616 12.9307 765 139.162 1147.18 486.595
241 0 62.2196 12.8416 799 139.344 1149.15 485.469
242 0 64.0505 12.256 785 134.52 1148.49 484.859
243 0 67.1557 12.6869 852 137.765 1149.16 483.288
244 0 67.344 12.9484 872 140.555 1149.11 481.917
245 0 70.2441 12.8979 906 133.529 1149.09 480.648
246 0 73.3636 12.6766 930 142.89 1146.6 479.099
247 0 75.2227 12.9881 977 139.651 1148.1 478.355
248 0 78.2162 12.9257 1011 144.361 1149.94 477.284
249 0 81.4569 12.7429 1038 143.557 1150.73 475.539
250 1 44.1522 10.5544 466 149.811 1146.73 493.878
251 0 45.1992 11.3276 512 142.625 1147.62 493.422
252 0 46.1983 11.6671 539 149.826 1148.09 493.043
253 0 50.1618 11.8417 594 147.736 1147.88 492.237
254 0 51.1179 12.2658 627 145.242 1148.51 491.19
255 0 52.0616 12.6581 659 147.164 1148.92 489.971
256 0 53.1336 12.6097 670 151.796 1147.71 489.518
257 0 56.0773 12.3936 695 146.937 1147.46 488.479
258 0 55.2016 12.7533 704 151.817 1146.83 488.807
259 0 56.1734 12.7641 717 151.858 1145.63 487.452
260 0 59.1285 12.7519 754 151.779 1147.54 486.435
261 0 61.2496 12.5878 771 157.432 1148.27 485.397
262 0 64.384 12.7516 821 150.127 1146.38 483.565
263 0 66.2397 12.9077 855 153.413 1147.98 482.536
264 0 67.3332 12.9654 873 156.613 1146.64 482.125
265 0 71.2478 12.8004 912 151.775 1147.19 480.309
266 0 72.3521 12.7709 924 157.457 1147.69 479.003
267 0 73.319 13.148 964 152.97 1147.33 477.882
268 0 78.209 13.2082 1033 154.401 1148.78 475.617
269 0 82.251 12.9238 1063 153.01 1148.47 474.601
270 1 43.0641 9.9619 429 153.361 1148.39 494.117
271 0 45.1333 10.5022 474 156.656 1146.29 493.456
272 0 44.0068 11.521 507 152.136 1145.55 493.012
273 0 47.0411 12.1383 571 156.033 1146.28 492.168
274 0 48.185 12.1407 585 146.904 1145.66 491.737
275 0 50.0724 12.1225 607 150.975 1145.88 490.842
276 0 52.0344 12.0881 629 146.44 1147.41 489.609
277 0 54.0412 11.8798 642 154.945 1147.6 489.645
278 0 56.0492 12.489 700 146.41 1149.26 488.543
279 0 56.1109 12.2614 688 147.608 1147.84 488.757
280 0 57.0609 12.6181 720 152.515 1147.45 488.642
281 0 60.1213 11.9259 717 151.339 1146.51 487.579
282 0 61.1031 12.6508 773 151.044 1146.95 487.41
283 0 63.0811 12.6979 801 154.047 1145.51 486.333
284 0 65.1333 12.7277 829 157.922 1148.56 485.519
285 0 68.1083 12.5682 856 162.29 1148.78 484.505
286 0 70.1707 12.5551 881 156.541 1147.86 484.345
287 0 71.0653 13.1147 932 161.756 1146.27 483.264
288 0 73.1087 12.7618 933 164.703 1147.31 482.478
289 0 76.133 12.7146 968 166.917 1147.49 481.45
290 0 78.1556 12.9357 1011 167.478 1147.01 480.129
291 0 81.1432 13.2605 1076 165.115 1149.34 478.484
292 0 84.1198 13.2074 1111 169.149 1149.12 477.264
293 0 86.2275 13.0701 1127 161.84 1148.61 475.491
294 0 89.2629 13.0401 1164 168.445 1147.46 474.371
295 0 91.2836 13.3759 1221 168.613 1147.57 472.814
296 0 93.2026 13.1541 1226 163.001 1148.34 471.847
297 0 97.2336 13.4316 1306 165.564 1145.11 469.643
298 0 100.172 13.2173 1324 169.057 1146.79 468.914
299 0 102.173 13.7414 1404 164.119 1144.23 467.164
300 0 105.189 13.4805 1418 162.353 1146.36 466.096
301 0 108.321 13.4785 1460 165.521 1144.79 464.484
302 0 111.207 13.812 1536 161.186 1145.88 462.273
303 0 114.233 13.7176 1567 164.253 1146.53 461.061
304 0 119.438 13.5718 1621 167.365 1147.24 458.913
305 0 122.307 13.5969 1663 170.265 1147.17 457.298
306 0 126.246 13.9014 1755 163.238 1147.34 455.058
307 0 128.269 13.9083 1784 168.804 1146.69 453.043
308 0 132.197 13.6463 1804 164.025 1145.84 451.85
309 0 137.277 13.6002 1867 167.863 1144.65 449.57
310 0 140.172 13.8615 1943 166.066 1144.92 447.398
311 0 145.181 13.7484 1996 165.425 1146.1 444.863
312 0 150.236 13.9247 2092 168.44 1146.46 443.421
313 0 154.241 13.9587 2153 167.34 1147.67 441.192
314 0 158.236 13.8843 2197 167.183 1144.38 438.244
315 0 164.193 13.6059 2234 162.243 1145.86 436.076
316 1 91.0936 12.0974 1102 44.6044 1147.75 473.226
317 0 93.0893 12.2893 1144 156.891 1145.41 471.625
318 0 95.1268 12.1207 1153 154.674 1146.85 470.99
319 0 98.1584 12.6123 1238 160.949 1147.01 468.481
320 0 102.189 12.4769 1275 159.131 1148.29 466.467
321 0 105.158 12.5715 1322 154.497 1149.34 465.226
322 0 107.175 12.8015 1372 161.601 1147.68 463.772
323 0 111.212 12.9303 1438 159.559 1146.43 461.974
324 0 115.188 12.7878 1473 154.767 1148.37 460.107
325 0 118.08 12.9573 1530 162.293 1146.57 457.58
326 0 122.248 13.1699 1610 159.211 1147.52 455.54
327 0 125.09 12.9427 1619 161.497 1146.63 453.394
328 0 133.28 12.5301 1670 159.883 1145.96 450.909
329 1 75.1805 11.479 863 164.052 1147.15 479.977
330 0 77.14 11.9134 919 153.325 1147.02 477.392
331 0 79.1466 12.142 961 160.948 1147.76 476.879
332 0 80.1148 12.3697 991 163.689 1150.11 475.123
333 0 83.2518 12.4201 1034 155.354 1148.68 473.606
334 0 86.0718 12.6522 1089 165.987 1147.21 471.825
335 0 91.1366 12.2015 1112 165.567 1148.8 470.564
336 0 93.2167 12.7123 1185 160.857 1148.08 468.36
337 0 96.1133 12.8702 1237 163.741 1148.35 466.895
338 0 101.328 12.4744 1264 164.881 1147.14 464.484
339 0 103.37 12.8374 1327 165.09 1146.77 463.644
340 0 106.304 12.9064 1372 170.032 1148.57 461.293
341 0 111.323 12.9353 1440 161.42 1144.26 459.034
342 1 60.2976 11.2608 679 164.892 1147.13 483.716
343 0 63.2648 11.6494 737 160.52 1147.53 483.376
344 0 65.1677 11.9691 780 164.421 1149.48 481.785
345 0 67.2003 11.7559 790 158.435 1149.64 479.249
346 0 68.2748 12.3325 842 159.966 1149.33 480.548
347 0 69.1876 12.3866 857 160.495 1147.56 479.068
348 0 71.1846 12.4465 886 162.508 1146.29 478.534
349 0 73.2841 12.4856 915 159.271 1150.19 477.493
350 0 76.413 12.524 957 161.644 1148.41 475.938
351 0 80.3045 12.49 1003 154.344 1146.75 472.81
352 0 82.1898 12.4468 1023 161.92 1147.53 472.448
353 0 84.1928 12.3407 1039 155.869 1146.92 471.039
354 0 87.2465 12.7111 1109 161.638 1148.13 469.668
355 0 91.1461 12.4635 1136 156.757 1147.57 467.933
356 0 95.354 12.4484 1187 159.991 1148.29 465.324
357 0 97.3148 12.7935 1245 157.269 1145.78 463.913
358 1 49.4801 10.6912 529 158.505 1147.31 487.699
359 0 50.3781 10.977 553 155.291 1147.87 487.107
360 0 51.3306 11.3578 583 152.864 1148.84 486.273
361 0 54.1338 11.3792 616 146.766 1146.47 486.7
362 0 56.2234 11.3654 639 152.441 1147.76 486.092
363 0 56.0955 11.8013 662 147.636 1147.6 485.272
364 0 57.0467 11.9376 681 150.485 1146.41 484.32
365 0 61.0977 11.8008 721 153.48 1148.12 483.526
366 0 62.2021 11.6073 722 150.404 1146.33 482.702
367 0 63.1029 11.9487 754 150.816 1146.31 482.005
368 0 65.2525 11.9995 783 151.078 1146.51 481.166
369 0 65.1405 12.2044 795 151.314 1148.26 480.114
370 0 68.2581 11.8814 811 143.715 1147.62 479.649
371 0 70.3213 12.002 844 150.38 1147.25 478.364
372 0 72.2144 12.089 873 150.573 1147.13 477.575
373 0 74.223 12.2469 909 151.023 1147.07 476.976
374 0 75.2233 12.1372 913 150.781 1143.72 475.502
375 0 78.2572 12.1139 948 151.732 1146.18 473.879
376 0 81.2565 12.6144 1025 150.272 1145.75 472.21
377 0 84.198 12.3637 1041 147.199 1148.55 471.175
378 0 87.3875 12.5876 1100 149.375 1147.6 469.853
379 0 90.2581 12.5307 1131 147.253 1148.38 468.082
380 0 92.3034 12.4047 1145 151.739 1146.78 466.452
381 0 97.2064 12.6535 1230 145.728 1147.02 464.815
382 0 98.2531 12.2541 1204 152.59 1147.98 463.434
383 1 53.0507 10.1978 541 144.811 1146.56 487.226
384 0 55.1067 10.5432 581 144.194 1147.82 486.761
385 0 58.1169 10.5649 614 141.453 1148.15 485.783
386 0 59.1732 11.2044 663 143.225 1148.41 484.783
387 0 60.2204 11.5908 698 141.308 1148.05 483.635
388 0 63.2846 11.7564 744 150.636 1149.34 483.343
389 0 62.2283 12.0845 752 148.557 1150.86 482.36
390 0 65.2469 11.6327 759 149.46 1149.21 480.652
391 0 67.3385 12.1179 816 152.377 1148.82 480.337
392 0 70.1761 11.9271 837 153.438 1150.18 478.918
393 0 71.2457 12.2955 876 154.604 1149.67 477.991
394 0 74.1108 12.171 902 152.34 1147.72 477.594
395 0 75.1888 12.595 947 153.701 1148.2 476.181
396 0 78.1733 12.4467 973 154.386 1147.4 475.336
397 0 78.2412 13.1772 1031 156.114 1148.64 474.524
398 0 83.3641 12.9432 1079 155.923 1146.33 473.372
399 0 86.2229 12.9084 1113 153.604 1147.24 471.808
400 0 90.0788 12.4891 1125 157.655 1148.15 470.618
401 0 93.1005 12.2663 1142 160.179 1147.01 468.987
402 0 97.2556 12.6265 1228 157.662 1149.21 466.855
403 1 53.0391 11.6141 616 153.821 1147.53 489.593
404 0 54.0569 12.1169 655 145.82 1148.38 488.67
405 0 54.0703 12.1324 656 160.014 1146.03 488.61
406 0 55.0645 11.8225 651 151.459 1148.11 487.439
407 0 56.1681 12.2312 687 153.271 1144.03 487.3
408 0 59.1002 12.2673 725 155.583 1146.78 486.814
409 0 61.0902 12.4079 758 138.422 1147.97 485.715
410 0 63.1222 12.3253 778 141.842 1144.85 484.907
411 0 64.1242 12.4134 796 149.911 1145.86 484.229
412 0 66.111 12.5244 828 147.136 1145.71 483.152
413 0 69.1988 12.5436 868 145.62 1145.29 481.363
414 0 71.0923 12.5611 893 141.426 1147.19 480.583
415 0 74.0739 12.6765 939 145.878 1146.31 479.104
416 0 76.1136 12.6653 964 146.503 1146.8 477.773
417 0 79.1456 12.5844 996 142.32 1146.48 476.992
418 1 40.0658 10.5327 422 140.986 1145.03 496.137
419 0 44.0546 10.6005 467 142.507 1144.51 495.253
420 0 44.1053 11.8807 524 131.01 1146.1 494.445
421 0 46.0457 11.8578 546 144.874 1147.47 494.141
422 0 47.0412 11.9682 563 145.972 1145.9 493.107
423 0 48.0573 12.277 590 148.72 1147.36 492.758
424 0 50.0409 12.6297 632 141.758 1143.92 491.215
425 0 52.1352 12.084 630 140.681 1144.26 490.911
426 0 54.0533 12.3952 670 150.343 1144.31 489.046
427 0 54.0326 12.8811 696 146.282 1143.18 488.907
428 0 55.0892 12.9789 715 145.186 1146.72 488.186
429 0 58.1377 12.7112 739 148.468 1145.22 487.57
430 0 59.0455 13.0577 771 146.376 1144.01 486.899
431 0 60.1237 12.9234 777 155.553 1145.63 486.305
432 0 61.078 13.2126 807 149.6 1146.08 485.311
433 0 62.0847 13.401 832 145.987 1145.78 484.363
434 0 65.1443 13.3396 869 145.501 1143.33 483.761
435 0 67.1224 13.2445 889 152.082 1146.2 482.514
436 0 68.1386 13.2964 906 143.162 1145.64 482.01
437 0 70.2211 13.2296 929 147.836 1145.98 481.234
438 0 71.1848 13.6967 975 145.555 1146.51 480.217
439 0 74.0798 13.364 990 148.996 1147.16 479.084
440 0 76.1446 13.4087 1021 153.161 1146.76 477.383
441 0 78.2427 13.2025 1033 150.42 1146.64 476.799
442 0 81.2102 13.5205 1098 142.976 1144.93 475.009
443 0 83.2696 13.9907 1165 140.913 1146.11 473.629
444 0 86.1759 13.5769 1170 136.836 1145.35 472.762
445 0 89.3524 13.4859 1205 143.941 1145.76 470.512
446 0 91.3848 13.1203 1199 139.103 1143.74 468.653
447 0 95.197 13.7609 1310 136.961 1145.15 466.868
448 0 99.3319 13.5405 1345 136.001 1145.26 464.999
449 1 52.0654 11.5624 602 145.638 1146.05 488.44
450 0 55.0782 12.0193 662 132.459 1144.85 487.391
451 0 56.0222 12.8342 719 128.647 1146.6 485.957
452 0 57.0683 12.7391 727 138.631 1146.22 484.894
453 0 58.0375 13.0433 757 129.898 1144.92 484.629
454 0 60.116 13.0082 782 133.731 1145.98 482.951
455 0 62.1549 13.048 811 130.861 1146.97 482.564
456 0 64.0593 13.2221 847 128.403 1143.28 480.822
457 0 66.0984 13.1471 869 128.184 1144.33 480.044
458 0 69.2397 12.825 888 128.995 1145.44 478.587
459 0 71.0866 13.2796 944 126.914 1144.66 477.682
460 0 75.0982 13.2094 992 132.595 1144.32 476.639
461 0 76.1778 13.3503 1017 133.481 1146.05 475.325
462 0 78.0578 13.5797 1060 130.806 1145.17 473.558
463 0 81.1312 13.7678 1117 129.28 1146.8 472.842
464 0 83.1831 13.9692 1162 129.793 1144.6 470.878
465 0 86.1941 13.7828 1188 134.676 1144.15 469.361
466 0 90.087 13.7534 1239 132.747 1145.61 468.085
467 0 94.2528 13.8245 1303 132.074 1145.91 466.233
468 0 98.3101 13.4981 1327 128.731 1145.51 464.044
469 0 99.2227 13.9585 1385 132.153 1145.91 462.13
470 0 104.185 13.7352 1431 136.057 1144.75 459.89
471 0 107.312 13.8195 1483 133.842 1144.41 458.671
472 0 112.241 13.7205 1540 134.102 1146.63 455.945
473 0 116.256 13.5219 1572 134.797 1145.64 455.008
474 1 62.1356 12.4083 771 127.603 1146.84 481.473
475 0 66.1502 12.7891 846 129.929 1145.11 479.278
476 0 69.1089 12.2705 848 123.98 1146.69 478.533
477 0 71.07 13.142 934 131.656 1144.66 476.892
478 0 73.0443 12.7046 928 124.113 1145.32 475.809
479 0 76.1556 12.6583 964 128.077 1146.14 474.781
480 0 78.2121 13.1437 1028 128.565 1144.44 473.533
481 0 82.1796 13.5313 1112 124.48 1145.12 470.989
482 0 82.1796 13.5313 1112 165.877 1147.12 470.989
483 0 87.317 13.2048 1153 130.996 1145.82 467.881
484 0 90.1303 13.1698 1187 128.936 1145.77 467.409
485 0 94.1392 13.1507 1238 133.782 1144.45 465.435
486 0 97.2631 13.3247 1296 135.276 1144.68 463.708
487 0 99.2773 13.3565 1326 140.727 1143.45 461.81
488 0 104.175 13.8517 1443 131.927 1144.67 460.048
489 0 106.251 13.534 1438 137.51 1143.52 458.376
490 0 110.293 13.3009 1467 127.596 1144.41 456.746
491 0 113.137 13.3024 1505 137.189 1144.09 455.256
492 1 62.1372 11.9413 742 124.542 1144.8 481.24
493 0 63.2521 12.5213 792 128.768 1145.11 479.646
494 0 65.109 12.3792 806 132.342 1144.78 479.107
495 0 66.1194 12.8555 850 123.389 1144.89 477.3
496 0 68.1237 13.0057 886 133.806 1144.67 476.156
497 0 72.1981 12.4242 897 127.806 1146.07 474.523
498 0 74.1518 13.2027 979 130.317 1145.91 473.68
499 0 75.1332 13.0169 978 127.522 1146.08 472.148
500 0 78.3619 12.6975 995 131.07 1146.4 471.588
501 0 81.2441 12.9609 1053 131.375 1143.98 469.997
502 0 82.2477 13.2891 1093 139.298 1146.23 468.676
503 0 85.2854 13.2731 1132 132.854 1145.88 467.872
504 0 88.2703 13.2661 1171 135.28 1145.85 466.104
505 0 92.3345 13.2453 1223 136.139 1146.46 464.598
506 0 94.3508 13.2696 1252 141.061 1144.74 463.269
507 0 99.2708 13.3473 1325 135.161 1144.17 461.171
508 0 101.278 13.3691 1354 144.221 1144.53 459.678
509 0 105.272 13.7738 1450 135.612 1143.98 458.741
510 0 109.267 13.371 1461 136.726 1145.12 456.208
511 0 112.214 13.7505 1543 135.476 1146.17 454.325
512 0 116.287 13.7075 1594 140.136 1144.76 452.494
513 0 119.291 13.1946 1574 142.072 1146.6 451.74
514 1 64.1404 11.1318 714 140.706 1144.93 479.686
515 0 65.1525 11.8338 771 137.856 1145.41 478.706
516 0 68.0937 12.1744 829 128.887 1146.83 478.083
517 0 68.1361 12.0934 824 142.222 1146.43 476.477
518 0 72.1277 12.7552 920 132.873 1146.88 475.282
519 0 75.1241 12.2464 920 135.898 1146.32 474.633
520 0 77.1291 12.2781 947 137.583 1144.88 473.555
521 0 79.2281 12.9878 1029 133.27 1148.86 471.886
522 0 83.1474 12.7244 1058 129.14 1145.43 470.211
523 0 85.288 12.6747 1081 132.46 1147.52 469.154
524 0 89.3338 12.7835 1142 129.569 1148.03 468.271
525 0 93.3162 12.8059 1195 131.233 1146.49 466.121
526 0 95.3062 12.8533 1225 124.511 1146.48 464.304
527 0 99.2369 12.9387 1284 132.577 1144.55 462.9
528 0 101.415 12.7989 1298 134.622 1146.18 461.703
529 1 55.2711 10.7108 592 128.682 1145.38 485.855
530 0 54.2506 11.41 619 124.58 1145.67 485.556
531 0 57.0691 11.5299 658 121.688 1146.23 484.375
532 0 60.1365 12.1224 729 125.418 1146.69 483.311
533 0 62.0726 11.8087 733 126.993 1148.17 482.411
534 0 63.1121 11.7252 740 126.726 1145.63 481.899
535 0 66.069 11.7907 779 127.617 1146.42 482.067
536 0 67.1389 12.139 815 130.217 1147.73 480.519
537 0 69.0571 12.2218 844 129.033 1147.29 479.214
538 0 72.0311 12.3835 892 123.779 1148.14 477.92
539 0 74.0883 12.1882 903 124.474 1145.92 476.131
540 0 76.1053 12.0754 919 122.008 1146.57 475.244
541 0 77.1924 12.6696 978 118.732 1146.55 474.495
542 0 81.1521 12.4334 1009 115.437 1148.01 472.587
543 0 84.2153 12.3968 1044 117.564 1145.48 471.525
544 0 88.153 12.0132 1059 119.58 1147.15 469.518
545 0 88.153 12.0132 1059 149.975 1149.15 469.518
546 0 93.0771 12.3124 1146 116.305 1147.94 465.985
547 0 96.102 12.2682 1179 117.545 1146.53 464.871
548 0 99.1845 12.512 1241 113.161 1145.74 463.39
549 1 53.222 10.4656 557 119.077 1147.58 486.706
550 0 55.0624 9.33487 514 116.78 1146.86 486.014
551 0 56.1551 10.934 614 116.969 1146.06 484.386
552 0 59.0803 10.4434 617 111.233 1146.01 484.078
553 0 61.2014 11.1599 683 106.442 1146.08 482.567
554 0 61.0767 11.6411 711 107.963 1150.49 481.956
555 0 62.04 11.6377 722 106.305 1149.6 481.019
556 0 62.0726 11.841 735 112.522 1147.42 480.473
557 0 67.0475 11.6783 783 107.406 1148.29 479.045
558 0 70.0347 11.3087 792 106.75 1147.05 478.321
559 0 72.185 11.3597 820 106.021 1146.57 477.643
560 0 72.2047 11.6336 840 111.677 1146.19 476.456
561 0 74.0544 11.9642 886 109.734 1145.2 474.955
562 0 78.0881 11.9737 935 117.849 1147.92 474.256
563 1 42.0297 9.11261 383 120.992 1147.69 492.48
564 0 38.065 8.66938 330 124.312 1146.71 493.503
565 0 45.0522 9.25593 417 126.739 1146.99 490.93
566 0 46.0349 9.2104 424 122.979 1144.65 490.762
567 0 48.0892 9.54477 459 122.492 1146.46 489.124
568 0 48.0883 9.39937 452 125.493 1145.85 489.445
569 0 51.095 10.2358 523 125.503 1148.04 487.79
570 0 51.1739 10.181 521 130.077 1148.24 487.255
571 0 53.2928 11.0334 588 129.529 1147.29 485.789
572 0 55.1106 11.0505 609 131.504 1145.94 485.299
573 0 55.1002 11.4156 629 131.698 1145.34 484.93
574 0 59.0868 11.4577 677 128.369 1145.98 483.802
575 0 60.0419 11.5586 694 132.589 1145.2 482.945
576 0 61.0568 11.3173 691 135.321 1144.53 481.592
577 0 63.1417 12.1473 767 132.931 1144.68 480.864
578 0 64.0513 12.0528 772 134.637 1144.52 480.058
579 0 66.1432 12.4125 821 134.592 1145.54 478.828
580 0 68.1708 12.3807 844 128.421 1144.31 477.846
581 0 71.1966 12.8096 912 132.479 1146.25 476.304
582 0 74.2031 12.5062 928 136.913 1144.23 476
583 0 76.1807 12.6673 965 136.077 1146.09 474.724
584 0 78.0984 12.7788 998 132.598 1146.66 473.226
585 0 80.1096 12.9073 1034 132.597 1146.99 471.899
586 0 81.1213 13.2764 1077 137.449 1146.12 470.64
587 0 86.1405 12.9324 1114 139.694 1145.76 469.08
588 0 87.0912 13.4801 1174 140.284 1145.46 467.318
589 0 92.0616 12.9804 1195 144.127 1146.29 465.82
590 0 94.1236 13.3548 1257 144.88 1146.95 463.654
591 0 99.1666 13.1597 1305 143.587 1148 462.186
592 0 101.18 13.4018 1356 142.415 1147.57 461.15
593 0 104.137 12.9061 1344 143.307 1146.86 458.847
594 1 51.0205 11.5052 587 141.978 1147.16 484.266
595 0 55.0606 11.1513 614 141.042 1147.01 484.329
596 0 56.0491 11.597 650 131.448 1145.97 483.7
597 0 56.1233 12.2053 685 134.882 1145.2 482.641
598 0 59.1466 11.9872 709 138.67 1146.23 482.087
599 0 60.086 12.066 725 138.826 1145.26 480.837
600 0 63.0605 12.2422 772 123.861 1146.22 480.018
601 0 63.1046 12.1544 767 133.986 1146.92 478.952
602 0 65.0318 12.1325 789 134.996 1146.37 478.593
603 0 69.0373 12.0515 832 135.627 1145.67 477.486
604 0 70.1593 12.1295 851 128.958 1143.4 476.193
605 0 71.1119 12.2764 873 135.534 1146.69 475.123
606 0 72.1052 12.135 875 133.189 1145.7 474.282
607 0 76.2376 12.1725 928 130.887 1147.39 473.843
608 0 78.1034 12.1762 951 140.039 1146.33 472.609
609 0 80.1908 12.0837 969 139.329 1147.76 471.399
610 0 84.1711 12.0469 1014 141.037 1145.67 469.616
611 0 85.2215 12.227 1042 140.109 1146.88 467.328
612 0 88.2582 12.0895 1067 134.963 1146.98 466.699
613 0 92.1879 11.9213 1099 134.638 1146.44 465.099
614 0 97.2154 11.8088 1148 137.709 1146.57 463.753
615 1 53.0522 9.9713 529 133.964 1148.23 484.482
616 0 54.0772 10.6884 578 137.446 1145.7 483.697
617 0 56.0682 11.0936 622 135.257 1144.34 482.272
618 0 60.1635 11.7513 707 132.413 1145.68 480.562
619 0 61.0505 11.3676 694 136.288 1146.6 480.437
620 0 62.0883 11.8702 737 130.494 1146.08 479.444
621 0 64.1046 11.6996 750 131.472 1146.57 479.323
622 0 65.083 11.7235 763 137.62 1146.49 477.953
623 0 67.1354 12.1397 815 136.054 1147.35 477.029
624 0 69.106 12.0105 830 134.148 1145.01 476.142
625 0 73.1352 11.9641 875 135.065 1145.72 474.123
626 0 73.1959 12.528 917 132.647 1147.12 473.099
627 0 76.1457 12.2528 933 129.05 1146.21 472.059
628 0 78.1334 12.7218 994 132.865 1146.14 470.997
629 0 81.1542 12.2113 991 126.396 1145.65 469.323
630 0 83.3241 12.6254 1052 134.103 1144.4 468.297
631 0 85.2438 12.6109 1075 135.889 1144.71 467.127
632 0 90.3484 12.5957 1138 130.27 1145.01 465.786
633 0 92.202 13.1234 1210 127.509 1143.18 463.624
634 0 94.2391 12.8185 1208 130.34 1145.52 462.257
635 0 98.2561 12.6201 1240 132.28 1144.59 460.045
636 0 102.281 12.7981 1309 120.762 1144.3 458.065
637 0 104.233 12.8366 1338 130.084 1145.12 457.108
638 1 55.0647 10.3878 572 126.598 1145.98 483.29
639 0 55.0582 11.0247 607 131.285 1146.09 482.395
640 0 58.0936 11.7569 683 128.078 1145.65 482.012
641 0 60.1072 11.546 694 124.04 1146.09 480.147
642 0 62.139 11.8444 736 123.683 1147.57 479.868
643 0 64.0517 12.0215 770 122.373 1146.6 478.525
644 0 67.0855 12.2232 820 122.184 1148.68 477.904
645 0 68.1235 12.125 826 125.993 1147.08 476.738
646 0 71.0285 12.2486 870 124.023 1147.36 476.279
647 0 73.0461 12.6769 926 123.229 1147.79 474.57
648 0 75.0311 12.7014 953 125.802 1148.19 473.692
649 0 78.0982 12.6507 988 131.092 1146.49 472.059
650 0 81.0859 12.8012 1038 125.371 1146.8 471.674
651 0 84.1092 12.4719 1049 130.715 1147.63 469.773
652 0 86.169 12.371 1066 128.763 1149.91 469.055
653 0 90.0435 12.9826 1169 131.218 1147.58 467.905
654 0 92.1033 12.9094 1189 130.437 1147.98 465.906
655 0 95.1899 12.9531 1233 133.406 1147.83 465.16
656 0 98.197 12.9841 1275 131.736 1147.8 462.986
657 0 103.116 12.8399 1324 129.545 1148.18 460.993
658 0 107.171 13.0446 1398 130.241 1148.03 459.816
659 1 53.0483 10.9334 580 130.7 1146.66 486.898
660 0 55.055 11.2978 622 127.969 1146.44 485.527
661 0 57.0617 12.0045 685 125.223 1148.51 484.599
662 0 58.1729 12.2738 714 121.286 1145.96 484.067
663 0 61.1797 12.3244 754 122.735 1146.06 483.344
664 0 61.1708 12.2117 747 120.432 1147.77 482.795
665 0 65.1656 12.3531 805 122.964 1144.94 481.251
666 0 66.1152 12.3875 819 125.797 1147.61 480.919
667 0 69.0837 12.4921 863 127.765 1146.93 479.408
668 0 70.2162 12.7748 897 124.017 1148.23 478.24
669 0 72.1011 12.9124 931 128.327 1147.28 477.484
670 0 74.086 12.8094 949 123.683 1146.89 476.851
671 0 76.1369 12.911 983 128.072 1146.5 475.774
672 0 80.1838 12.7083 1019 134.542 1146.77 474.303
673 0 83.1871 12.4418 1035 129.801 1146.76 472.666
674 0 85.2361 12.8467 1095 137.015 1146.43 471.321
675 0 88.3705 12.6286 1116 132.107 1145.73 470.722
676 0 92.2009 12.4728 1150 141.037 1147.09 468.109
677 0 95.1271 12.1311 1154 134.367 1146.08 466.06
678 0 97.168 12.1645 1182 136.218 1146.28 464.969
679 1 53.0159 10.3177 547 126.547 1145.29 486.556
680 0 56.0633 11.0411 619 139.281 1146 486.805
681 0 58.0622 11.4705 666 134.754 1145.29 485.812
682 0 59.2446 11.8998 705 129.42 1147.57 483.955
683 0 61.0674 12.1833 744 128.782 1148.06 484.183
684 0 62.0617 12.3103 764 130.721 1147.23 483.344
685 0 64.0725 12.7356 816 131.366 1147.58 481.953
686 0 64.1302 12.8489 824 127.938 1148.33 481.557
687 0 69.0546 12.5842 869 135.19 1147.05 480.407
688 0 69.032 13.1099 905 126.239 1147.29 479.062
689 0 71.2197 12.9037 919 125.375 1147.99 476.487
690 0 75.1593 12.7596 959 135.696 1146.43 476.563
691 0 78.1209 13.0695 1021 130.259 1146.43 474.853
692 0 81.1286 12.6589 1027 127.056 1146.69 473.577
693 0 82.1127 12.5559 1031 139.489 1144.07 472.116
694 0 85.0897 12.8218 1091 137.071 1145.63 470.291
695 0 87.1956 12.5924 1098 136.536 1147.26 468.319
696 0 92.3547 12.5386 1158 133.062 1147.36 466.777
697 0 96.3367 12.7885 1232 138.676 1147.88 464.907
698 1 52.0572 11.1608 581 133.139 1148.53 486.788
699 0 52.051 11.2005 583 130.34 1148.51 484.772
700 0 56.0424 11.1523 625 134.95 1148.23 483.774
701 0 57.0787 11.7732 672 135.513 1147.29 485.433
702 0 58.0623 12.1938 708 136.672 1147.81 483.669
703 0 60.0422 12.4079 745 133.052 1149.02 481.859
704 0 62.2293 12.2129 760 130.183 1146.8 480.896
705 0 64.1916 12.3848 795 129.492 1146 479.84
706 0 66.2378 12.2589 812 133.36 1145.4 478.794
707 0 66.1282 12.6421 836 123.769 1145.98 478.693
708 0 67.1155 13.0372 875 129.503 1147.19 478.127
709 0 71.3001 12.6788 904 122.368 1146.14 476.606
710 0 73.1194 12.7873 935 129.985 1148.23 475.768
711 0 75.1309 12.6712 952 130.808 1148.79 473.78
712 0 77.2205 12.7557 985 129.935 1148.49 472.641
713 0 79.2662 12.7923 1014 128.751 1149.21 471.09
714 0 81.1391 12.9777 1053 130.272 1149.55 469.739
715 0 84.2048 12.7784 1076 134.264 1148.34 468.621
716 0 88.1237 12.664 1116 129.634 1148.41 466.814
717 0 92.1377 12.286 1132 135.561 1147.58 464.376
718 0 96.2525 12.8204 1234 125.987 1146.74 462.663
719 1 49.1314 10.2582 504 125.647 1147.44 484.635
720 0 51.1767 10.2586 525 128.796 1148.44 484.575
721 0 53.2898 10.5086 560 122.652 1147.81 482.261
722 0 53.303 11.5003 613 123.209 1148.56 481.445
723 0 56.1416 11.1504 626 125.244 1147.66 480.591
724 0 57.2705 11.629 666 124.282 1146.77 480.745
725 0 59.173 11.0861 656 122.788 1148.67 479.035
726 0 61.2627 11.5078 705 122.46 1148.86 478.078
727 0 64.2046 11.3543 729 120.84 1147.59 477.078
728 0 64.0885 11.843 759 120.265 1147.57 476.012
729 0 68.1302 11.9184 812 121.897 1146.36 474.798
730 0 67.085 12.5662 843 121.31 1148.17 473.966
731 0 70.1691 12.4129 871 123.989 1147.5 473.371
732 0 73.113 12.0498 881 120.975 1148.51 472.581
733 0 76.1053 12.417 945 122.514 1147.85 471.873
734 0 77.0681 12.8588 991 121.791 1147.43 470.488
735 0 80.0762 12.6505 1013 127.324 1147.06 469.109
736 0 81.101 13.1318 1065 122.762 1149.33 469.459
737 0 85.267 12.9828 1107 123.986 1148.27 468.527
738 0 87.1151 12.9713 1130 124.659 1146.39 468.335
739 0 90.116 12.6726 1142 126.106 1146.72 466.559
740 0 92.1591 13.3356 1229 120.976 1148.03 464.009
741 0 95.1853 12.7856 1217 123.157 1147.44 462.104
742 0 99.2261 13.2223 1312 128.242 1146.52 460.037
743 0 102.199 13.3661 1366 126.287 1146.05 458.697
744 0 106.101 12.9688 1376 128.595 1147.19 457.714
745 1 56.1299 11.0993 623 126.233 1147.62 483.183
746 0 58.0943 11.4641 666 124.206 1148.17 480.779
747 0 61.0382 11.6321 710 124.031 1148.18 478.299
748 0 62.0973 11.949 742 125.105 1147.48 479.861
749 0 65.0211 11.8269 769 123.681 1147.88 479.114
750 0 65.0477 12.4216 808 116.859 1148.22 478.002
751 0 65.0952 12.3819 806 128.9 1147.63 477.737
752 0 68.2007 12.7418 869 126.661 1146.49 477.186
753 0 71.0611 12.3837 880 134.016 1148.15 476.67
754 0 73.0424 12.3353 901 130.825 1145.84 475.19
755 0 75.1187 12.8197 963 129.96 1148.35 473.837
756 0 78.1019 12.3813 967 130.569 1147.49 473.008
757 0 80.0874 12.6112 1010 133.559 1147.32 470.872
758 0 84.1442 12.7876 1076 136.701 1148.73 470.117
759 0 84.0828 13.2726 1116 130.496 1146.01 468.118
760 0 88.1262 12.9927 1145 126.237 1146.39 466.458
761 0 91.1138 13.2142 1204 129.44 1145.89 464.508
762 0 96.2121 12.6803 1220 123.888 1145.74 463.28
763 0 97.1315 13.3015 1292 133.991 1146.64 460.272
764 0 103.096 12.8715 1327 128.642 1146.83 459.464
765 1 52.0746 11.1571 581 124.785 1147.59 483.664
766 0 55.1257 11.5736 638 126.947 1145.92 483.041
767 0 56.0394 11.599 650 121.885 1148.79 481.251
768 0 57.0263 11.4158 651 121.287 1147.63 480.679
769 0 61.0177 11.2262 685 122.683 1149.11 480.036
770 0 62.0517 11.571 718 119.032 1149.23 478.773
771 0 64.0254 11.4954 736 120.629 1148.24 477.397
772 0 65.1229 12.5301 816 127.782 1148.76 477.453
773 0 67.051 12.3936 831 121.174 1146.9 477.014
774 0 68.1061 12.319 839 119.819 1147.16 477.19
775 0 71.0929 12.4907 888 123.142 1147.07 475.399
776 0 73.073 12.8912 942 119.01 1148.17 474.23
777 0 76.071 12.5672 956 124.266 1147.29 472.303
778 0 79.0903 12.9093 1021 126.425 1146.19 471.719
779 0 82.1171 12.4213 1020 124.292 1147.52 469.827
780 0 85.1343 12.4157 1057 121.666 1149 469.298
781 0 87.1645 12.7575 1112 124.606 1148.73 467.469
782 0 89.132 12.6105 1124 123.418 1148.06 466.151
783 0 95.1549 12.3693 1177 130.528 1147.21 464.487
784 0 97.1702 12.5244 1217 123.781 1148.37 462.531
785 1 49.0885 10.9802 539 118.714 1148.65 486.312
786 0 52.0375 11.1842 582 119.814 1147.99 485.849
787 0 54.2474 11.89 645 117.783 1146.56 483.55
788 0 56.2878 11.6899 658 129.307 1147.51 482.746
789 0 57.057 11.8303 675 122.975 1147.31 482.828
790 0 58.0536 11.7478 682 127.566 1148.75 482.78
791 0 60.0426 11.8915 714 125.203 1146.6 482.256
792 0 63.1706 11.7935 745 124.354 1146.66 481.545
793 0 64.0581 12.8165 821 126.513 1144.82 479.765
794 0 66.1617 12.3334 816 128.793 1145.6 479.225
795 0 68.0989 12.3497 841 128.208 1146.89 478.313
796 0 70.1463 12.4597 874 131.886 1147.71 478.003
797 0 71.1457 12.622 898 133.645 1147.32 477.086
798 0 74.2386 12.5407 931 129.436 1148.3 476.019
799 0 77.0893 12.6606 976 128.887 1146.41 474.605
800 0 80.2659 12.6455 1015 129.954 1148.44 473.222
801 0 82.171 12.4618 1024 133.285 1146.71 472.308
802 0 84.3417 12.9592 1093 136.245 1145.7 470.533
803 0 88.2451 12.4993 1103 135.665 1144.49 469.515
804 0 93.4453 12.1033 1131 136.822 1143.45 467.937
805 1 47.0685 11.0265 519 139.482 1145.33 489.374
806 0 47.1802 11.7634 555 128.159 1146.43 488.735
807 0 50.2756 12.0536 606 131.931 1147.1 486.417
808 0 53.0992 11.6574 619 132.472 1146.16 486.273
809 0 53.1505 11.7402 624 133.22 1145.91 486.231
810 0 55.1628 11.9102 657 134.038 1146.42 485.272
811 0 58.1216 11.7168 681 131.599 1147.72 484.643
812 0 58.1052 12.116 704 128.251 1149.11 483.78
813 0 61.1728 11.9007 728 127.896 1146.34 483.401
814 0 62.1051 12.2695 762 128.87 1148.22 482.29
815 0 64.1748 11.9206 765 124.991 1146.45 482.067
816 0 65.1004 12.3194 802 119.627 1146.33 480.908
817 0 67.1308 12.5129 840 129.936 1144.63 480.255
818 0 68.5062 12.8455 880 126.406 1146.65 479.291
819 0 72.2317 12.1969 881 130.074 1144.43 478.009
820 0 75.1746 12.3579 929 133.111 1146.11 476.49
821 0 76.1042 12.3646 941 132.319 1145.43 475.598
822 0 79.1343 12.0807 956 130.402 1148.58 474.31
823 0 82.1129 12.0809 992 134.38 1145.79 472.277
824 0 83.3189 12.4942 1041 133.037 1145.56 471.048
825 0 87.2388 12.3225 1075 133.06 1143.76 469.555
826 1 47.1571 10.1363 478 135.464 1147.41 490.82
827 0 48.1363 10.7819 519 138.559 1146.48 489.127
828 0 51.2169 10.9339 560 132.02 1146.33 487.645
829 0 53.1876 11.4124 607 130.547 1146.62 486.348
830 0 53.0959 11.7523 624 134.12 1147.51 486.772
831 0 54.121 12.0101 650 138.38 1147.09 485.992
832 0 56.1073 12.2266 686 123.617 1146.37 485.006
833 0 55.0758 12.6553 697 135.118 1145.33 483.966
834 0 60.15 12.4688 750 133.019 1147.9 483.019
835 0 61.0625 12.3808 756 131.739 1145.97 481.71
836 0 63.0771 12.0805 762 132.702 1146.69 480.323
837 0 65.1042 11.7197 763 137.925 1145.07 479.709
838 0 67.0556 12.1093 812 135.132 1147.69 478.777
839 0 68.1213 12.4484 848 136.711 1146.27 477.656
840 0 72.0592 12.6563 912 134.345 1146.78 475.853
841 0 73.179 12.6949 929 130.333 1147.24 474.54
842 0 76.0909 12.4325 946 134.179 1143.93 473.395
843 0 80.1557 12.5381 1005 138.619 1146.77 472.19
844 0 80.2418 12.9608 1040 138.212 1146.82 471.108
845 0 84.2385 12.3459 1040 135.695 1145.77 469.056
846 0 87.0907 12.5157 1090 142.173 1145.69 468.365
847 0 90.1441 12.6575 1141 139.592 1147.39 466.407
848 1 47.1232 10.5044 495 137.467 1147.6 488.796
849 0 47.2807 11.9287 564 132.418 1148.86 487.172
850 0 50.1265 11.85 594 134.53 1149.15 487.192
851 0 49.0532 12.252 601 137.501 1149.08 486.238
852 0 52.0395 12.2791 639 139.362 1149.21 485.549
853 0 54.0383 12.3246 666 133.862 1148.55 484.82
854 0 55.0938 12.1974 672 140.012 1148.89 483.196
855 0 58.0321 12.1829 707 134.827 1147.88 482.717
856 0 57.1444 12.7397 728 132.845 1147.62 481.521
857 0 58.0217 13.1847 765 133.829 1148.97 481.439
858 0 60.0966 12.613 758 133.591 1147.67 480.728
859 0 62.0597 13.0036 807 136.98 1146.93 479.504
860 0 65.0748 12.5701 818 133.04 1146.58 478.121
861 0 65.0595 13.357 869 140.343 1147.16 478.388
862 0 68.1017 13.1127 893 131.84 1147.2 477.33
863 0 70.1644 13.2261 928 135.691 1148.32 476.805
864 0 73.2651 13.3624 979 135.975 1148.66 474.623
865 0 76.1971 13.137 1001 133.658 1149.49 473.301
866 0 77.1 13.3723 1031 137.793 1149.62 472.551
867 0 80.1049 13.2202 1059 137.682 1149.08 471.102
868 0 81.1843 13.2168 1073 131.732 1149 470.254
869 0 85.1774 13.196 1124 139.655 1148.94 468.219
870 0 89.2071 13.1828 1176 133.349 1147.73 466.364
871 0 91.1549 13.0657 1191 138.794 1146.72 464.495
872 0 94.2279 13.4992 1272 134.692 1146.9 463.102
873 0 98.1736 13.3946 1315 132.096 1148.23 458.694
874 1 50.0591 10.7673 539 133.644 1148.58 483.497
875 0 52.0622 11.9473 622 130.498 1147.96 484.027
876 0 55.0262 12.2851 676 135.454 1150.27 483.197
877 0 56.1145 11.9755 672 130.012 1150.61 482.732
878 0 55.0812 12.6903 699 131.047 1149.16 482.363
879 0 59.2927 12.2949 729 131.166 1147.94 478.516
880 0 61.1144 12.0921 739 137.625 1150.07 480.11
881 0 61.1392 12.2344 748 134.943 1149.67 479.448
882 0 64.1234 12.0081 770 135.805 1149.35 478.661
883 0 64.1362 12.6138 809 129.716 1146.54 477.244
884 0 69.1584 12.6377 874 133.065 1148.63 476.029
885 0 70.0763 12.8574 901 133.721 1147.33 475.522
886 0 72.1213 12.8117 924 129.307 1148.37 474.832
887 0 74.1067 12.6979 941 131.535 1147.28 474.063
888 0 76.0477 12.8078 974 135.65 1148.94 472.335
889 0 79.0828 12.8979 1020 132.412 1146.98 470.675
890 0 83.1462 12.7727 1062 134.09 1146.64 469.631
891 0 84.2009 13.064 1100 132.335 1147.42 468.125
892 0 87.1107 12.9031 1124 131.104 1149.38 466.42
893 0 89.3858 13.548 1211 125.219 1148.54 464.876
894 0 95.2239 13.106 1248 131.212 1148.39 462.651
895 0 98.2686 13.229 1300 135.512 1148.63 461.182
896 0 100.372 13.3304 1338 133.893 1148.49 459.498
897 0 104.283 13.1757 1374 138.765 1147.46 457.868
898 0 107.56 13.3414 1435 134.984 1148.38 455.441
899 0 110.286 13.5012 1489 136.328 1146.94 453.815
900 0 115.441 13.7559 1588 130.154 1148.87 451.658
901 0 119.327 13.618 1625 138.434 1146.91 449.321
902 0 121.296 13.4959 1637 138.602 1147.45 449.181
903 0 126.17 13.6721 1725 139.265 1146.87 446.176
904 1 64.1475 11.7074 751 141.49 1147.05 478.146
905 0 67.1403 12.243 822 135.551 1146.57 476.883
906 0 68.1184 12.7278 867 130.729 1148.49 476.768
907 0 68.1244 12.1836 830 134.428 1147.44 476.428
908 0 70.0812 12.457 873 140.473 1148.67 475.062
909 0 73.1026 12.3799 905 139.674 1147.71 474.143
910 0 74.1231 12.803 949 138.791 1147.84 473.024
911 0 77.2243 12.7162 982 139.907 1146.97 471.767
912 0 79.127 12.7643 1010 140.125 1146.53 469.897
913 0 82.2452 12.7424 1048 140.594 1146.48 468.527
914 0 84.1397 13.026 1096 139.497 1143.53 467.212
915 0 86.2268 12.9078 1113 142.664 1147.11 465.51
916 0 89.1525 13.146 1172 138.083 1145.78 463.963
917 0 91.2867 13.2988 1214 134.466 1146.91 462.667
918 0 95.1092 12.9746 1234 140.182 1147.51 461.708
919 0 98.2337 13.0098 1278 137.08 1148.1 459.753
920 0 99.1817 13.2282 1312 138.112 1146.87 457.752
921 0 105.14 13.3156 1400 134.479 1146.65 456.994
922 0 108.17 13.2291 1431 138.65 1145.54 455.298
923 0 112.273 13.681 1536 134.23 1147.43 452.648
924 0 115.332 13.2314 1526 131.805 1145.51 451.101
925 0 121.262 12.8647 1560 132.121 1147.13 449.433
926 1 63.0822 11.5405 728 132.581 1148.92 477.86
927 0 66.1114 12.1915 806 124.939 1145.13 477.051
928 0 67.0315 12.3524 828 130.471 1146.11 476.649
929 0 70.0201 12.325 863 127.299 1144.22 475.242
930 0 71.0789 12.7323 905 128.545 1145.75 474.443
931 0 76.1714 12.3406 940 127.634 1147.41 473.515
932 0 76.1328 12.4388 947 125.15 1146.41 472.263
933 0 80.1131 12.2702 983 130.181 1146.4 471.044
934 0 82.1218 12.1649 999 132.414 1147.68 470.001
935 0 86.2264 12.5947 1086 131.38 1147.47 469.586
936 0 88.1226 12.7209 1121 123.31 1148.78 467.653
937 0 90.1494 12.568 1133 124.913 1149.68 466.42
938 0 94.3087 12.6711 1195 124.611 1145.82 463.942
939 0 96.2067 12.442 1197 126.263 1147.57 462.58
940 0 98.3834 12.7664 1256 129.773 1148.21 459.207
941 0 102.315 12.354 1264 127.686 1147.02 458.009
942 0 106.361 12.2695 1305 124.494 1147.38 456.235
943 0 109.374 12.1327 1327 129.889 1146.57 455.055
944 0 113.296 12.0039 1360 124.358 1145.63 452.788
945 1 63.0876 10.8738 686 123.076 1148.99 480.182
946 0 62.0578 11.6343 722 123.899 1147.05 479.949
947 0 66.1044 12.0264 795 121.674 1143.89 479.579
948 0 69.0908 11.4053 788 120.868 1147.49 478.741
949 0 69.1643 11.798 816 117.826 1145.91 477.349
950 0 72.1119 11.9675 863 118.078 1145.31 476.114
951 0 75.1268 11.7934 886 117.271 1144.77 474.902
952 0 76.127 12.0982 921 116.438 1144.36 473.659
953 0 78.1917 11.7915 922 116.67 1146.44 473.717
954 0 80.1597 12.0135 963 117.676 1146.94 472.217
955 0 81.1229 12.364 1003 115.231 1146.11 471.744
956 0 84.1522 12.3467 1039 115.353 1144.22 469.885
957 0 89.1499 12.1817 1086 118.355 1144.57 467.667
958 0 90.2504 12.5983 1137 116.844 1146.64 466.631
959 0 93.1357 12.573 1171 114.793 1145.16 465.187
960 0 98.2083 12.5142 1229 115.43 1145.26 463.682
961 0 99.206 12.973 1287 120.306 1148.01 462.652
962 0 103.184 13.0252 1344 116.903 1145.48 460.726
963 0 105.2 12.7662 1343 117.634 1144.65 460.113
964 0 108.341 12.7283 1379 122.104 1145.46 457.815
965 0 111.195 12.7433 1417 122.028 1145.06 456.128
966 0 116.298 12.6657 1473 124.68 1145.48 453.374
967 0 119.176 13.2577 1580 122.753 1143.75 450.831
968 0 123.232 12.943 1595 123.856 1145.2 449.203
969 0 125.476 13.2057 1657 122.196 1145.25 447.005
970 1 68.1854 11.4247 779 124.181 1145.39 476.851
971 0 70.2908 11.8792 835 122.402 1143.83 475.218
972 0 73.217 12.4425 911 119.914 1141.91 473.154
973 0 77.2002 12.0466 930 118.732 1143.4 471.957
974 0 79.3702 12.5992 1000 86.865 1144.33 470.693
975 0 81.3048 12.5823 1023 114.8 1145.02 470.01
976 0 84.2834 12.719 1072 119.86 1144.2 468.347
977 0 87.4082 13.0194 1138 113.575 1144.88 467.311
978 0 87.2934 12.8188 1119 116.9 1144.45 465.886
979 0 92.3046 12.8921 1190 112.43 1145.04 463.92
980 0 94.391 12.7872 1207 119.08 1145.35 460.308
981 0 98.4176 12.9855 1278 117.916 1145.76 460.467
982 0 101.378 12.9811 1316 119.685 1146.18 460.225
983 0 104.532 13.3356 1394 117.596 1145.98 457.115
984 0 108.401 13.0718 1417 122.653 1146.37 456.598
985 0 110.246 13.5152 1490 125.485 1146.03 454.95
986 0 115.248 13.4406 1549 116.006 1146.35 454.297
987 0 117.559 13.3805 1573 124.949 1146.24 451.074
988 1 64.1834 11.1244 714 118.317 1144.82 479.314
989 0 65.3246 11.4199 746 125.07 1146.29 478.339
990 0 68.148 11.7832 803 121.103 1145.99 477.89
991 0 69.1596 11.9723 828 121.214 1145.6 476.778
992 0 70.1453 12.4171 871 126.627 1143.92 475.773
993 0 74.0751 12.3253 913 126.573 1144.45 474.438
994 0 75.0522 12.5113 939 123.825 1145.33 473.372
995 0 77.0513 12.7707 984 117.002 1145.05 471.967
996 0 79.0987 12.8068 1013 116.914 1143.26 470.676
997 0 80.1044 12.7833 1024 116.412 1143.86 470.074
998 0 84.0907 12.8433 1080 123.383 1144.45 468.943
999 0 86.22 12.9784 1119 117.888 1147.03 467.917
1000 0 91.3114 12.9119 1179 120.95 1146.29 466.778
1001 0 94.1454 12.7781 1203 119.264 1147.23 465.623
1002 0 95.1276 13.4556 1280 115.582 1144.84 462.888
1003 0 99.1821 12.9761 1287 122.435 1145.58 461.219
1004 0 103.176 13.2493 1367 116.528 1144.35 459.308
1005 0 107.28 13.5813 1457 120.021 1143.44 456.898
1006 0 111.4 13.0431 1453 117.14 1145.44 455.353
1007 0 115.197 12.8302 1478 121.855 1143.68 453.657
1008 0 118.361 13.256 1569 117.781 1144.75 451.862
1009 1 63.0714 11.8913 750 124.865 1145.06 479.021
1010 0 65.2616 12.1051 790 124.599 1145.1 478.509
1011 0 65.2384 12.4467 812 124.01 1146.56 477.219
1012 0 70.0822 12.3854 868 122.888 1145.65 476.34
1013 0 72.2589 12.5244 905 120.043 1145.55 474.82
1014 0 71.2114 13.481 960 119.978 1145.93 473.052
1015 0 76.3224 13.1154 1001 118.147 1145.73 471.574
1016 0 80.271 12.9437 1039 121.48 1145.81 470.642
1017 0 80.2921 13.4135 1077 120.736 1145.18 469.753
1018 0 84.2343 13.1657 1109 114.252 1145.31 468.916
1019 0 87.2106 13.3814 1167 116.003 1145.83 466.676
1020 0 90.3121 13.6969 1237 118.032 1147.73 466.555
1021 0 93.12 13.5094 1258 123.25 1146.49 465.104
1022 0 96.2067 13.4398 1293 118.51 1144.9 463.693
1023 0 98.2443 13.3646 1313 124.227 1145.81 460.731
1024 0 99.2657 13.6704 1357 125.211 1146.68 460.73
1025 0 104.219 13.3468 1391 122.168 1143.77 459.281
1026 0 108.222 13.0381 1411 126.4 1147.03 457.307
1027 0 112.281 12.9764 1457 131.339 1144.49 455.645
1028 0 115.121 13.1427 1513 129.12 1146.1 454.248
1029 1 64.0911 11.5929 743 133.223 1146.28 479.214
1030 0 67.1813 11.8634 797 131.321 1146.06 476.901
1031 0 68.164 12.0005 818 122.697 1147.03 476.517
1032 0 72.0731 12.3347 889 123.886 1147.21 474.714
1033 0 75.0594 12.0305 903 127.135 1145.32 473.069
1034 0 78.0573 11.9271 931 122.352 1146.11 472.352
1035 0 80.1499 11.7655 943 129.241 1146.34 470.697
1036 0 83.1342 12.1611 1011 126.303 1144.47 469.881
1037 0 84.1375 12.123 1020 125.391 1145.83 468.21
1038 1 46.0608 8.98811 414 124.046 1145.53 487.988
1039 0 47.0253 9.84576 463 124.603 1144.75 487.616
1040 0 48.0828 9.8372 473 123.374 1144.86 486.15
1041 0 50.0603 10.3076 516 122.023 1146.39 486.041
1042 0 53.0573 11.4028 605 120.949 1145.42 484.646
1043 0 53.0601 11.5529 613 117.94 1146.61 484.509
1044 0 55.1192 11.5931 639 118.059 1147.61 483.734
1045 0 57.1271 11.6757 667 112.591 1144.86 483.205
1046 0 59.1531 11.4111 675 117.975 1147.03 482.815
1047 0 60.1993 11.5118 693 119.349 1148.24 481.752
1048 0 62.1054 11.8669 737 112.638 1146.69 480.83
1049 0 61.1554 12.6399 773 116.266 1145.79 479.195
1050 0 66.041 11.7957 779 122.074 1147.02 478.587
1051 0 66.0548 12.5653 830 119.813 1146.07 477.671
1052 0 69.0489 12.1508 839 122.746 1144.73 477.58
1053 0 72.1273 12.1036 873 120.608 1145.18 476.782
1054 0 73.24 12.3566 905 117.157 1143.06 475.238
1055 0 77.2537 12.6208 975 118.844 1143.99 473.883
1056 0 79.2987 12.3079 976 124.665 1144.04 473.171
1057 0 79.3331 12.8446 1019 122.016 1146.07 471.23
1058 0 83.5451 12.592 1052 125.731 1145 469.856
1059 0 86.3798 12.4566 1076 124.016 1145.09 468.695
1060 0 88.2387 12.5795 1110 127.682 1144.42 467.267
1061 0 91.6058 12.9686 1188 122.369 1143.86 466.318
1062 0 93.4329 12.6187 1179 125.208 1146.1 465.169
1063 0 97.4247 13.046 1271 127.243 1143.92 463.27
1064 0 98.3754 12.7674 1256 130.35 1146.35 462.889
1065 0 101.277 13.1323 1330 126.641 1145.06 460.259
1066 1 55.2101 11.0125 608 124.03 1143.85 484.875
1067 0 54.0507 11.6927 632 127.476 1144.59 484.532
1068 0 56.0963 12.2468 687 126.408 1144.15 483.964
1069 0 60.1985 11.894 716 120.228 1145.27 482.603
1070 0 62.2301 11.4414 712 129.247 1144.08 481.822
1071 0 64.177 11.8734 762 119.656 1144.48 481.346
1072 0 65.19 11.6582 760 124.736 1143.71 480.776
1073 0 67.1789 11.715 787 123.005 1144.68 479.977
1074 0 70.1652 11.9575 839 118.103 1145.59 478.77
1075 0 70.1605 12.0438 845 120.592 1143.98 478.014
1076 0 74.1903 12.2658 910 120.585 1145.62 476.877
1077 0 76.2257 12.4761 951 114.405 1143.3 474.926
1078 0 78.1633 12.653 989 113.083 1144.2 473.855
1079 0 81.2182 12.1771 989 118.573 1143.89 473.57
1080 0 82.2946 12.4796 1027 115.817 1144.47 472.012
1081 0 86.2333 12.4778 1076 117.598 1144.5 471.393
1082 0 86.3664 12.9333 1117 115.069 1145.63 469.572
1083 0 90.3441 12.4745 1127 121.03 1143.98 468.079
1084 0 94.295 12.5669 1185 114.291 1145.29 466.301
1085 0 96.2385 12.7704 1229 119.766 1145.32 464.976
1086 0 101.235 12.4463 1260 120.215 1145.24 463.783
1087 0 104.229 12.6548 1319 116.402 1143.95 461.632
1088 1 56.0449 11.0804 621 117.63 1144.45 486.644
1089 0 57.0715 11.214 640 115.82 1144.41 484.952
1090 0 59.036 11.7555 694 116.138 1142.91 484.105
1091 0 59.0702 11.918 704 120.179 1144.8 483.751
1092 0 61.1943 12.4358 761 112.185 1146.91 482.816
1093 0 64.324 12.1572 782 111.731 1144.44 482.102
1094 0 66.1219 12.5223 828 115.768 1143.93 481.147
1095 0 65.2065 12.9742 846 109.039 1143.59 480.891
1096 0 68.0982 12.7022 865 118.728 1143.72 479.746
1097 0 67.0992 12.8019 859 118.094 1144.78 479.102
1098 0 72.0908 12.831 925 125.817 1143.35 477.839
1099 0 75.1004 12.45 935 128.034 1143.12 476.525
1100 0 78.2831 13.2468 1037 126.917 1144.4 474.919
1101 0 79.163 13.3901 1060 124.134 1143.43 473.424
1102 0 81.0698 13.2478 1074 131.057 1144.24 472.028
1103 0 83.1078 13.4524 1118 131.844 1145.18 471.063
1104 0 86.189 13.3544 1151 131.009 1145.48 470.104
1105 0 88.1574 13.3398 1176 133.503 1143.84 468.971
1106 0 91.2061 13.5408 1235 131.427 1144.73 467.593
1107 0 94.098 13.3584 1257 135.321 1142.55 466.037
1108 0 97.1413 13.4135 1303 135.318 1144.57 464.299
1109 0 100.07 13.4406 1345 135.017 1143.6 463.526
1110 0 104.144 13.7886 1436 136.87 1144.17 461.361
1111 0 106.124 13.8235 1467 140.489 1143.44 460.458
1112 0 109.191 14.1404 1544 141.21 1143.69 458.251
1113 0 112.15 14.1863 1591 143.204 1143.98 457.463
1114 0 114.295 14.27 1631 136.169 1143.91 455.674
1115 0 121.196 14.4476 1751 138.299 1143.82 452.086
1116 0 124.237 14.078 1749 141.387 1143.16 450.573
1117 1 66.1086 11.6324 769 139.993 1143.42 480.209
1118 0 66.0346 12.4783 824 143.311 1143.99 479.637
1119 0 69.114 12.6313 873 143.373 1145.65 478.543
1120 0 70.154 13.0285 914 141.827 1144.08 477.607
1121 0 74.126 12.87 954 143.657 1144.05 476.537
1122 0 75.0607 12.7763 959 140.486 1142.45 474.954
1123 0 77.0731 13.0525 1006 146.685 1145.11 474.875
1124 0 80.1222 13.1549 1054 146.178 1145.8 473.901
1125 0 80.2431 13.3345 1070 148.226 1143.73 472.061
1126 0 85.2288 13.3054 1134 151.334 1143.27 471.144
1127 0 88.2708 12.9488 1143 149.196 1143.69 469.67
1128 0 90.2766 13.3368 1204 151.814 1142.86 468.224
1129 0 94.227 13.4993 1272 145.24 1144.28 466.756
1130 0 97.3255 13.3881 1303 152.739 1144.36 464.666
1131 0 99.4226 13.6689 1359 146.086 1146.14 464.278
1132 1 54.1934 11.8096 640 146.772 1144.43 485.952
1133 0 56.1536 12.3946 696 148.711 1144.83 484.815
1134 0 59.2626 12.6387 749 141.29 1144.26 483.398
1135 0 61.0847 12.7037 776 147.041 1143.88 482.883
1136 0 61.0943 13.0618 798 149.949 1144.68 482.187
1137 0 63.0536 13.2586 836 143.544 1143.71 481.343
1138 0 66.1079 13.1149 867 145.976 1143.79 480.595
1139 0 69.0508 13.2366 914 149.708 1143.99 479.405
1140 0 70.0696 13.3439 935 151.658 1144.78 478.044
1141 0 73.0658 12.9335 945 145.838 1143.91 476.666
1142 0 76.1805 13.3236 1015 149.828 1146.78 475.512
1143 0 79.1823 13.1595 1042 144.899 1146.23 474.245
1144 0 80.1859 13.2318 1061 147.563 1143.6 472.606
1145 0 84.4089 13.482 1138 140.289 1144.25 471.641
1146 0 87.2502 13.0659 1140 146.8 1144.29 469.82
1147 0 89.1732 13.5467 1208 145.202 1145.09 468.415
1148 0 92.0953 13.41 1235 151.436 1144.88 467.204
1149 0 94.3269 13.6652 1289 156.794 1143.61 465.334
1150 0 100.184 13.4353 1346 152.238 1143.45 463.64
1151 1 51.118 12.4614 637 141.235 1145.6 486.62
1152 0 53.1969 12.3879 659 147.844 1145.32 486.454
1153 0 53.1016 12.6362 671 151.237 1145.34 485.885
1154 0 56.157 12.5897 707 153.289 1145.1 485.146
1155 0 58.0549 12.7293 739 151.999 1144.12 484.419
1156 0 57.2753 13.0423 747 149.802 1143.29 484.075
1157 0 60.2165 13.0529 786 156.733 1145.36 482.65
1158 0 64.0913 12.529 803 149.106 1144.16 481.036
1159 0 66.1848 13.1903 873 158.195 1142.44 480.095
1160 0 67.0659 13.017 873 157.653 1143.8 479.454
1161 0 69.1859 12.676 877 151.914 1147.29 477.519
1162 0 72.1384 12.7948 923 153.625 1146.35 476.522
1163 0 72.2425 13.3024 961 158.491 1146.17 475.127
1164 0 75.0636 13.0689 981 158.19 1144.79 474.234
1165 0 77.1268 13.3806 1032 148.286 1144.12 473.179
1166 0 80.1621 13.1733 1056 156.944 1146.08 471.228
1167 0 82.3719 12.565 1035 151.833 1145.36 470.516
1168 0 84.1145 13.2914 1118 151.057 1144.15 468.722
1169 0 88.2237 12.8083 1130 155.298 1145.66 467.304
1170 0 90.2543 13.2182 1193 149.666 1144.43 465.834
1171 0 93.1043 13.0928 1219 152.067 1143.82 464.064
1172 0 98.2304 13.0611 1283 154.399 1145.24 462.532
1173 1 50.0859 10.9612 549 146.765 1145.46 486.536
1174 0 53.0687 11.1742 593 140.857 1145.54 485.518
1175 0 54.0744 11.854 641 133.91 1145.05 484.766
1176 0 55.073 12.1475 669 141.807 1145.63 485.148
1177 0 56.179 12.0152 675 140.353 1145.26 483.601
1178 0 59.0548 12.4461 735 140.376 1143.61 482.982
1179 0 61.1523 12.428 760 134.659 1144.91 482.25
1180 0 63.1695 12.7118 803 138.093 1144.02 480.36
1181 0 66.0911 12.0591 797 139.901 1144.77 480.641
1182 0 67.123 12.2015 819 137.842 1144.62 479.515
1183 0 70.0974 12.554 880 139.243 1145.41 478.092
1184 0 73.092 12.0944 884 142.561 1144.42 477.359
1185 0 73.2079 12.6626 927 138.008 1144.77 475.296
1186 0 75.1497 12.362 929 140.254 1143.68 473.948
1187 0 79.1704 12.4668 987 137.632 1144.61 472.815
1188 0 80.1532 12.7631 1023 141.657 1144.77 471.974
1189 0 84.1231 12.5768 1058 141.804 1145.94 471.389
1190 0 85.0886 12.8572 1094 132.535 1144.05 469.045
1191 0 89.1277 12.6448 1127 137.809 1144.03 468.542
1192 0 92.1531 12.3382 1137 131.614 1141.81 465.794
1193 0 95.1128 12.8164 1219 134.193 1142.87 465.168
1194 1 48.0911 10.1682 489 136.667 1142.52 488.857
1195 0 50.0791 10.6032 531 134.171 1143.02 488.252
1196 0 51.1121 10.9954 562 137.737 1141.93 486.746
1197 0 54.235 10.8601 589 133.683 1140.99 486.351
1198 0 55.1367 11.3173 624 130.388 1145.17 484.47
1199 0 55.1367 11.3173 624 127.929 1149.17 484.47
1200 0 59.1067 12.1137 716 131.366 1144.43 483.366
1201 0 62.0506 11.5067 714 139.937 1145.14 483.374
1202 0 63.0748 12.5248 790 137.496 1143.62 481.814
1203 0 65.1025 12.3805 806 130.411 1144.57 480.676
1204 0 68.09 12.2485 834 132.327 1143.83 480.201
1205 0 70.1681 12.7551 895 133.534 1141.89 478.588
1206 0 70.0598 13.046 914 143.207 1142.12 477.181
1207 0 72.0441 13.1447 947 133.524 1143.64 477.258
1208 0 76.1135 12.9149 983 142.614 1143.48 475.817
1209 0 78.123 13.53 1057 146.62 1143.17 474.864
1210 0 82.1186 13.0908 1075 144.521 1142.75 474.395
1211 0 84.0557 13.2769 1116 144.064 1144 472.701
1212 0 88.059 13.3433 1175 141.557 1145.65 471.07
1213 0 90.1481 13.4889 1216 139.191 1146 470.005
1214 1 50.0562 11.1075 556 147.302 1145.25 490.128
1215 0 50.2338 12.3224 619 142.719 1144.23 489.073
1216 0 54.2434 12.0383 653 136.847 1143.38 488.315
1217 0 55.0971 12.0515 664 143.096 1142.77 487.596
1218 0 54.0958 12.7182 688 138.714 1141.34 487.06
1219 0 58.0891 12.8423 746 135.76 1142.81 487.109
1220 0 58.1261 12.7137 739 143.191 1143.2 485.567
1221 0 60.1944 12.8085 771 137.195 1141.31 484.803
1222 0 62.1508 12.8236 797 142.443 1142.01 483.821
1223 0 65.1149 12.5317 816 135.966 1141.57 482.667
1224 0 66.0646 12.8511 849 140.956 1143.32 481.657
1225 0 68.1089 12.8471 875 143.905 1143.87 480.995
1226 0 69.0946 13.1703 910 140.088 1143.38 479.963
1227 0 72.1963 13.3802 966 140.345 1143.75 478.606
1228 0 74.0599 12.8409 951 148.351 1143.68 478.44
1229 0 76.1254 13.504 1028 150.204 1143.62 477.271
1230 0 80.2609 12.9453 1039 148.909 1141.59 475.425
1231 0 81.2265 13.6655 1110 151.495 1142.32 474.608
1232 0 80.258 13.5189 1085 156.922 1142.9 474.17
1233 0 86.1613 13.4283 1157 153.818 1140.75 472.012
1234 0 89.1651 13.9629 1245 149.645 1142.54 471.322
1235 0 89.1651 13.9629 1245 167.53 1144.54 471.322
1236 0 94.2945 13.6275 1285 146.777 1141.51 467.606
1237 0 97.2648 13.8899 1351 149.694 1144.4 467.012
1238 0 101.316 13.6997 1388 145.063 1143.18 465.225
1239 1 54.1967 12.1779 660 150.745 1142.71 488.271
1240 0 55.0537 13.2961 732 144.475 1142.72 486.484
1241 0 56.0915 12.9431 726 153.347 1142.8 486.488
1242 0 58.087 13.4626 782 144.596 1143.1 485.302
1243 0 61.034 12.96 791 150.168 1142.63 484.992
1244 0 62.0402 13.5235 839 147.67 1141.08 483.305
1245 0 64.063 13.7833 883 145.489 1140.86 482.849
1246 0 67.1796 13.2332 889 151.579 1142.56 481.34
1247 0 70.0644 13.2021 925 146.095 1141.96 480.855
1248 0 71.0693 13.4657 957 143.135 1142.9 479.949
1249 0 74.149 13.6347 1011 142.164 1141.38 478.172
1250 0 76.1495 13.3816 1019 147.424 1142.65 477.244
1251 0 76.0721 13.737 1045 155.4 1143 476.033
1252 0 82.1283 13.7224 1127 154.224 1140.55 474.234
1253 0 84.051 14.17 1191 143.835 1143.22 472.905
1254 0 87.3114 14.0188 1224 151.583 1142.7 472.393
1255 0 89.1204 13.8128 1231 144.619 1142.11 470.705
1256 0 91.2901 13.7364 1254 153.6 1141.41 469.876
1257 0 91.1758 14.3459 1308 149.66 1141.14 468.443
1258 0 96.1808 13.6514 1313 159.101 1139.91 466.323
1259 0 102.146 13.5395 1383 152.609 1142.36 464.516
1260 0 103.179 13.8789 1432 154.536 1142.53 462.537
1261 1 57.0394 12.4125 708 147.136 1143.05 485.661
1262 0 59.1247 12.702 751 152.514 1142.19 484.771
1263 0 62.1142 13.0083 808 152.879 1142.44 483.14
1264 0 64.1138 12.6806 813 156.376 1142.98 483.101
1265 0 66.107 12.8126 847 153.187 1142.35 481.749
1266 0 65.0846 13.6438 888 156.435 1144.88 480.688
1267 0 71.1028 13.0797 930 151.526 1143.5 479.882
1268 0 72.1026 13.3837 965 147.032 1143.16 478.912
1269 0 76.2584 13.0346 994 150.786 1143.36 477.933
1270 0 78.2788 13.1964 1033 148.928 1143.46 476.273
1271 0 80.3304 13.2204 1062 152.796 1142.81 474.821
1272 0 83.116 13.3789 1112 156.673 1140.95 474.024
1273 0 86.2806 13.5256 1167 151.399 1143.16 472.629
1274 0 88.1435 13.9318 1228 156.836 1142.62 470.575
1275 0 93.2267 13.3975 1249 155.507 1141.17 469.631
1276 0 96.3322 13.6818 1318 151.052 1141.04 467.465
1277 0 100.176 13.3864 1341 151.734 1141.27 465.786
1278 0 104.249 13.8898 1448 154.793 1139.72 464.32
1279 0 107.271 13.3586 1433 156.432 1139.9 462.378
1280 1 59.0472 12.3799 731 155.334 1140.04 485.346
1281 0 60.0975 13.2618 797 145.371 1140.11 484.255
1282 0 63.1069 12.6294 797 157.464 1140.99 483.373
1283 0 66.1068 12.4193 821 152.403 1140.96 482.259
1284 0 67.1899 13.2758 892 150.391 1139.44 481.376
1285 0 69.189 13.3547 924 150.992 1140.9 480.116
1286 0 72.133 13.2949 959 149.569 1140.8 478.589
1287 0 72.2708 13.657 987 151.254 1141.56 477.678
1288 0 76.136 13.5416 1031 153.881 1140.65 476.672
1289 0 77.2107 13.4308 1037 149.38 1138.55 476.28
1290 0 81.1258 13.7687 1117 151.294 1142.62 473.748
1291 0 84.0973 13.5557 1140 154.235 1141.69 472.282
1292 0 87.3129 13.904 1214 152.275 1140.49 471.287
1293 0 89.2502 14.084 1257 149.263 1142.06 469.342
1294 0 92.2293 13.9869 1290 150.104 1141.6 468.447
1295 0 95.1637 14.1441 1346 153.274 1141.88 466.407
1296 0 98.1551 13.7843 1353 154.364 1140.68 465.16
1297 0 103.154 13.921 1436 155.207 1140.98 462.304
1298 0 106.131 14.3314 1521 151.076 1141.35 460.692
1299 0 110.182 14.113 1555 153.661 1140.32 459.398
1300 0 114.197 13.9671 1595 150.71 1139.81 457.272
1301 1 63.1467 11.592 732 147.978 1140.13 484.03
1302 0 64.0828 12.4214 796 150.232 1138.17 482.814
1303 0 66.0781 12.5912 832 149.278 1138.78 480.873
1304 0 69.1463 12.5531 868 148.15 1138.89 480.642
1305 0 72.1557 12.6948 916 145.166 1138.83 479.019
1306 0 74.0724 13.2438 981 146.462 1139.99 477.281
1307 0 77.1918 12.89 995 147.674 1140.14 475.568
1308 0 79.1897 12.7289 1008 144.041 1138.18 474.832
1309 0 82.1248 12.7611 1048 149.365 1139.81 473.042
1310 0 84.2824 13.0276 1098 150.684 1139.33 471.999
1311 0 87.1711 13.2957 1159 144.632 1139.63 471.015
1312 0 91.1889 13.0608 1191 154.697 1140.04 468.718
1313 0 92.1038 13.0179 1199 151.9 1138.37 467.187
1314 0 96.1116 13.2762 1276 155.429 1140.68 466.014
1315 0 99.2296 12.9699 1287 155.11 1138.59 464.522
1316 0 104.164 13.4596 1402 148.385 1140.74 462.294
1317 0 108.239 13.4055 1451 147.961 1139.37 460.368
1318 0 109.245 13.2913 1452 146.127 1139.72 458.471
1319 1 64.1049 11.294 724 146.873 1138.35 481.892
1320 0 66.0902 11.5751 765 151.92 1139.27 480.924
1321 0 67.1634 12.1644 817 145.329 1140.02 479.688
1322 0 70.1302 12.3057 863 141.189 1142.01 477.835
1323 0 71.0843 12.5907 895 147.561 1143.19 478.019
1324 0 72.1038 13.2725 957 151.152 1142.17 477.292
1325 0 76.1143 12.9279 984 141.737 1139.7 475.021
1326 0 76.0585 13.2004 1004 146.259 1140.44 475.014
1327 0 80.0629 12.7899 1024 143.547 1141.05 473.305
1328 0 85.1247 12.8635 1095 141.937 1142.68 472.357
1329 0 88.0526 12.5266 1103 147.582 1141.5 471.025
1330 0 89.1066 12.8049 1141 138.111 1141.26 469.639
1331 0 93.193 12.5439 1169 146.471 1140.99 468.76
1332 0 95.1657 12.6096 1200 141.652 1140.78 466.985
1333 0 101.211 12.4591 1261 140.137 1141.45 464.881
1334 1 55.1086 11.1053 612 141.181 1139.94 487.824
1335 0 57.1018 11.751 671 139.21 1141.33 485.697
1336 0 59.1376 12.1581 719 133.243 1140.33 485.478
1337 0 61.1108 12.3219 753 136.683 1142.5 484.272
1338 0 62.0997 12.2706 762 130.491 1140.26 482.526
1339 0 65.0996 12.4732 812 127.65 1141.67 482.208
1340 0 66.1769 12.3155 815 134.656 1142.51 481.751
1341 0 66.0855 12.8319 848 128.061 1141.8 480.205
1342 0 69.1372 12.8006 885 129.641 1141.81 479.39
1343 0 72.2516 13.1208 948 130.195 1141.4 477.772
1344 0 75.1991 13.0188 979 128.04 1142.42 476.185
1345 0 77.1077 12.6187 973 124.03 1142.82 474.662
1346 0 79.206 12.9788 1028 127.467 1142.63 473.058
1347 0 82.276 12.6039 1037 129.376 1142.44 472.041
1348 0 82.2251 13.5239 1112 125.104 1142.2 470.679
1349 0 87.3231 13.0092 1136 123.809 1141.61 469.717
1350 0 88.2674 13.3005 1174 114.66 1142.96 468.319
1351 0 92.2521 13.1162 1210 127.174 1141 467.801
1352 0 94.2189 13.596 1281 127.531 1140.75 465.768
1353 0 98.2186 13.307 1307 126.028 1140.97 463.926
1354 0 102.106 13.6329 1392 124.524 1142.64 462.614
1355 0 105.167 13.6925 1440 135.011 1142.27 461.424
1356 1 59.0782 11.8148 698 135.649 1141.38 485.517
1357 0 60.0947 12.6134 758 132.319 1141.88 484.025
1358 0 61.1252 12.8261 784 135.383 1141.81 483.259
1359 0 65.1787 12.0898 788 138.537 1141.54 482.569
1360 0 67.2442 12.6256 849 130.938 1141 481.466
1361 0 67.1785 12.9357 869 138.25 1141.39 480.066
1362 0 68.2132 13.1939 900 140.762 1139.95 479.657
1363 0 72.1597 12.7634 921 143.933 1141.7 479.287
1364 0 73.1595 13.4774 986 147.899 1140.46 477.74
1365 0 76.211 13.1871 1005 144.705 1141.57 476.069
1366 0 78.1597 13.2805 1038 149.005 1141.19 475.829
1367 0 80.2419 13.4842 1082 152.069 1141.43 473.333
1368 0 81.2108 13.5819 1103 153.553 1140.52 472.185
1369 0 85.1627 13.4918 1149 145.989 1139.81 470.507
1370 0 87.156 13.7225 1196 152.633 1142.35 469.89
1371 0 91.1906 13.576 1238 150.523 1142.33 467.837
1372 0 94.3176 13.4227 1266 147.769 1141.8 465.674
1373 0 96.2495 13.6416 1313 151.856 1143.12 464.078
1374 0 100.246 13.5467 1358 142.115 1142.14 463.099
1375 0 104.224 13.2982 1386 141.955 1144.52 461.185
1376 1 58.1226 12.1811 708 143.886 1142.95 484.24
1377 0 59.1596 12.7621 755 144.356 1141.17 482.898
1378 0 61.1541 13.0326 797 144.775 1143.05 481.862
1379 0 64.0336 12.8058 820 150.041 1143.71 481.739
1380 0 64.0684 13.1266 841 147.922 1142.34 480.301
1381 0 66.0793 13.0298 861 145.646 1143.18 479.358
1382 0 68.0751 13.1766 897 148.748 1141.94 479.696
1383 0 71.0599 13.2424 941 149.765 1142.12 477.998
1384 0 72.0469 13.1165 945 150.422 1141.83 476.661
1385 0 74.059 13.5973 1007 153.541 1144.24 475.218
1386 0 76.0872 14.076 1071 145.423 1144.43 474.716
1387 0 78.0448 13.5051 1054 150.569 1144.35 473.821
1388 0 81.0905 13.3678 1084 155.778 1141.62 472.189
1389 0 83.1831 13.861 1153 150.408 1141.59 470.844
1390 0 85.1194 13.9804 1190 149.786 1141.69 470.053
1391 0 88.3338 13.6301 1204 150.645 1140.64 468.463
1392 0 92.1887 14.1558 1305 145.347 1142.71 467.274
1393 0 96.2796 14.3748 1384 151.994 1139.19 465.329
1394 0 99.3158 14.2676 1417 147.308 1140.29 463.729
1395 0 104.325 14.2632 1488 151.518 1140.22 462.022
1396 0 108.288 13.7689 1491 151.343 1140.93 461.104
1397 1 56.1615 12.6243 709 149.663 1141.25 485.605
1398 0 59.1438 13.0022 769 148.784 1141.48 484.75
1399 0 62.0337 12.3159 764 143.134 1139.5 483.8
1400 0 63.0718 12.7949 807 148.415 1142.61 483.181
1401 0 66.0357 12.6295 834 145.129 1142.92 482.035
1402 0 67.0372 13.2165 886 142.174 1143.25 479.971
1403 0 69.0506 13.367 923 142.797 1141.62 479.055
1404 0 73.0845 12.7524 932 145.289 1141.85 478.474
1405 0 75.078 13.2529 995 143.45 1142.11 477.124
1406 0 77.0818 13.3235 1027 138.611 1141.6 475.452
1407 0 81.1459 13.1368 1066 140.143 1141.15 474.164
1408 0 84.1959 13.433 1131 141.544 1139.95 473.178
1409 0 85.1195 13.0522 1111 146.485 1140.32 472.152
1410 0 87.3395 13.8425 1209 144.613 1139.95 470.964
1411 0 90.2456 13.707 1237 139.056 1140.67 469.584
1412 0 94.1826 13.6756 1288 142.241 1140.31 468.502
1413 0 96.1496 13.7078 1318 141.845 1139.34 466.552
1414 0 99.2526 13.9845 1388 139.96 1140.31 465.161
1415 0 103.364 13.6217 1408 147.406 1140.13 463.875
1416 0 106.271 13.7291 1459 149.927 1140.67 461.667
1417 0 111.147 13.5316 1504 150.08 1139.88 460.791
1418 0 114.143 14.0614 1605 144.401 1140.27 458.125
1419 1 63.1354 12.7028 802 152.708 1139.24 483.824
1420 0 66.1541 13.3023 880 148.353 1137.62 482.058
1421 0 69.2378 12.9842 899 145.551 1139.21 481.285
1422 0 72.1549 13.1523 949 144.771 1137.25 479.658
1423 0 71.35 13.609 971 150.256 1137.62 478.537
1424 0 75.2492 13.4354 1011 144.775 1138.13 477.529
1425 0 77.3088 13.4525 1040 151.734 1136.86 476.042
1426 0 81.2308 13.2955 1080 154.389 1137.19 475.277
1427 0 83.4329 13.364 1115 149.389 1138.7 473.645
1428 0 85.2529 13.3954 1142 149.62 1139.22 471.485
1429 0 87.3934 13.3305 1165 150.772 1138.03 471.034
1430 0 90.2512 13.3405 1204 146.857 1139.31 469.145
1431 0 94.3446 13.4931 1273 146.766 1138.74 467.69
1432 0 97.2945 13.6904 1332 151.719 1137.76 465.786
1433 0 101.34 13.7162 1390 150.978 1137.04 464.743
1434 0 104.309 13.6901 1428 147.576 1137.61 463.166
1435 0 106.263 14.0313 1491 146.897 1137.25 460.226
1436 0 111.254 13.7164 1526 148.642 1137.19 459.047
1437 0 112.293 14.0614 1579 148.132 1138.13 456.692
1438 0 118.227 13.9309 1647 146.758 1138.04 455.196
1439 0 121.294 13.8259 1677 140.283 1138.01 453.104
1440 1 67.2603 11.4332 769 146.226 1137 480.213
1441 0 68.197 12.4639 850 141.294 1136 479.001
1442 0 72.1728 12.4285 897 137.176 1139.57 478.32
1443 0 72.1557 13.1383 948 139.513 1136.73 476.769
1444 0 76.1047 13.0478 993 144.22 1137.89 475.828
1445 0 79.1251 12.9542 1025 140.102 1137.51 474.144
1446 0 80.0678 13.0764 1047 141.246 1137.58 472.608
1447 0 83.0519 13.1966 1096 137.847 1137.93 471.616
1448 0 86.1723 12.858 1108 145.11 1137.04 469.956
1449 0 88.1019 13.0304 1148 145.669 1136.4 468.683
1450 0 91.0927 13.5027 1230 142.145 1137.31 467.224
1451 0 95.1533 13.0106 1238 139.192 1137.3 466.281
1452 0 97.1472 12.9597 1259 141.14 1137.3 464.306
1453 0 100.075 13.4499 1346 141.625 1139.13 462.568
1454 0 105.127 13.3457 1403 137.944 1138.13 460.318
1455 0 106.164 13.3001 1412 141.326 1140.08 458.649
1456 0 110.132 13.4748 1484 141.429 1139.3 457.073
1457 0 115.181 13.2227 1523 145.202 1140.21 456.381
1458 0 117.227 13.3587 1566 141.149 1139.03 454.225
1459 0 121.195 13.5319 1640 144.37 1137.15 452.309
1460 0 125.135 13.6172 1704 144.241 1137.62 450.086
1461 0 128.2 13.8923 1781 148.277 1138.06 448.957
1462 0 134.146 13.4331 1802 143.835 1137.07 446.035
1463 0 137.314 13.6402 1873 139.209 1138.58 444.034
1464 0 142.215 13.9789 1988 142.953 1138.31 441.837
1465 0 149.271 13.6999 2045 144.487 1138.83 439.156
1466 0 154.249 14.3469 2213 145.181 1139.81 436.951
1467 1 84.2252 12.7753 1076 147.3 1141.22 472.495
1468 0 87.1366 13.1862 1149 142.915 1139.21 471.762
1469 0 88.2312 13.2833 1172 146.242 1138.43 469.742
1470 0 94.1525 13.4675 1268 142.442 1140.89 467.901
1471 0 95.1298 13.3081 1266 142.329 1141.41 467.262
1472 0 98.0844 13.3966 1314 144.699 1138.24 464.868
1473 0 101.116 13.5389 1369 142.012 1139.98 463.711
1474 0 105.232 13.5605 1427 147.596 1138.03 461.986
1475 0 107.174 13.66 1464 140.822 1139.42 460.24
1476 0 112.212 13.43 1507 140.878 1138.06 457.845
1477 0 115.226 13.4431 1549 144.497 1139.72 456.167
1478 0 120.203 13.6852 1645 137.672 1139.68 454.959
1479 1 67.1059 11.9811 804 143.103 1140.32 480.706
1480 0 69.1948 12.8333 888 135.347 1138.9 479.482
1481 0 71.1267 13.0471 928 134.048 1140.62 478.606
1482 0 74.1463 12.9474 960 137.327 1141.09 477.634
1483 0 76.2327 12.7242 970 136.39 1137.18 476.412
1484 0 79.2233 12.5342 993 133.448 1140.29 475.349
1485 0 82.1425 12.6853 1042 32.5086 1140.53 474.159
1486 0 84.1541 12.7504 1073 134.709 1140.37 472.355
1487 0 86.1063 13.2743 1143 132.188 1140.78 471.293
1488 0 90.2002 12.9822 1171 135.023 1142.24 469.664
1489 0 94.17 13.0827 1232 132.488 1140.33 467.302
1490 0 94.2283 13.3081 1254 138.782 1140.91 465.683
1491 0 98.2236 13.4184 1318 129.468 1140.08 463.363
1492 0 105.275 13.0516 1374 134.791 1140.87 461.287
1493 0 108.299 12.881 1395 138.943 1139.27 457.174
1494 0 112.58 12.782 1439 135.169 1139.34 456.916
1495 0 116.286 13.1401 1528 138.341 1138.18 456.169
1496 1 62.1953 11.7051 728 133.374 1139.52 482.429
1497 0 62.1276 12.0397 748 133.832 1139.12 481.056
1498 0 65.1175 12.5005 814 131.165 1139.79 479.579
1499 0 67.1998 12.2322 822 135.932 1140.23 479.206
1500 0 70.2045 12.549 881 127.277 1141.86 477.999
1501 0 71.1766 12.8975 918 125.198 1141.32 477.32
1502 0 75.1279 12.7915 961 133.426 1140.27 476.237
1503 0 76.111 13.0336 992 137.107 1140.55 475.161
1504 0 78.1528 13.2561 1036 132.281 1140.56 474.753
1505 0 80.0978 13.0216 1043 139.92 1141.41 473.578
1506 0 83.18 12.9959 1081 137.923 1140.89 472.207
1507 0 85.1626 13.1631 1121 137.317 1141.4 470.666
1508 0 87.1146 13.3043 1159 136.091 1141.34 470.064
1509 0 91.1273 13.5964 1239 139.593 1141.38 468.376
1510 0 94.2263 13.2872 1252 137.572 1140.75 466.265
1511 0 94.2491 13.528 1275 140.935 1140.35 464.766
1512 0 98.1616 13.7325 1348 143.502 1140.09 463.306
1513 0 102.157 13.1465 1343 138.596 1141.45 462.695
1514 0 106.407 13.3074 1416 141.076 1141.26 460.508
1515 0 108.618 13.5153 1468 147.475 1138.48 459.005
1516 1 72.2375 12.4451 899 131.242 1142.05 476.006
1517 0 74.2683 12.6164 937 140.473 1140.6 474.268
1518 0 74.2193 13.2445 983 140.737 1141 474.442
1519 0 79.3033 13.152 1043 141.538 1140.46 470.733
1520 0 80.3998 13.2339 1064 146.087 1142.63 470.888
1521 0 81.4488 13.2967 1083 147.782 1140.26 469.499
1522 0 84.3611 12.8258 1082 143.733 1140.45 468.972
1523 0 87.4312 13.3591 1168 149.973 1138.66 467.519
1524 0 90.4717 13.1864 1193 151.162 1139.07 467.015
1525 0 92.3206 13.5289 1249 156.11 1140.17 466.743
1526 0 95.2918 13.4849 1285 157.1 1138.12 466.662
1527 0 99.2308 13.4132 1331 149.24 1139.23 464.032
1528 0 102.504 13.6385 1398 148.378 1140.72 462.851
1529 0 104.229 13.7198 1430 153.906 1140.1 461.692
1530 0 107.211 13.9631 1497 155.84 1140.44 459.793
1531 0 110.373 13.9436 1539 151.374 1140.69 459.218
1532 0 113.331 13.7385 1557 159.133 1140.63 456.763
1533 0 117.307 13.6309 1599 151.084 1138.98 455.682
1534 1 65.2504 12.2145 797 153.322 1141.26 481.876
1535 0 68.2406 12.5292 855 150.586 1140.73 480.964
1536 0 69.2761 12.8327 889 152.738 1140 480.502
1537 0 71.444 12.9192 923 159.816 1138.39 480.08
1538 0 73.377 12.7969 939 156.783 1139.25 478.624
1539 0 75.2218 12.7091 956 156.616 1139.26 477.772
1540 0 78.1676 13.2536 1036 156.975 1138.04 476.213
1541 0 80.2382 12.9988 1043 160.288 1138.28 475.039
1542 0 82.2393 12.9865 1068 149.425 1139.14 471.77
1543 0 85.1598 13.1283 1118 157.393 1140.38 470.985
1544 0 90.2006 13.2704 1197 159.642 1141.3 469.316
1545 0 93.2722 13.3051 1241 162.299 1138.43 468.436
1546 0 94.1318 13.5767 1278 162.376 1142.08 467.791
1547 0 99.2877 13.2041 1311 165.213 1140.08 465.775
1548 0 101.232 13.5037 1367 161.593 1139.62 463.396
1549 0 103.304 13.436 1388 157.269 1139.8 462.499
1550 0 107.244 13.3901 1436 159.463 1138.47 460.481
1551 0 110.532 13.5617 1499 157.594 1139.13 459.557
1552 0 112.315 13.5244 1519 162.267 1139.21 457.59
1553 0 117.273 13.8907 1629 159.386 1139.59 454.579
1554 0 122.552 13.6187 1669 155.079 1138.05 452.973
1555 0 125.361 14.0475 1761 161.42 1138.86 449.658
1556 1 70.1722 11.8708 833 155.867 1137.78 479.305
1557 0 73.1253 12.1846 891 155.282 1139.12 478.039
1558 0 75.0624 12.2032 916 156.087 1141.12 477.369
1559 0 77.077 12.3124 949 157.714 1141.47 476.36
1560 0 78.0945 12.3952 968 153.997 1139.3 475.599
1561 0 81.0964 12.553 1018 160.973 1139.77 473.821
1562 0 84.0926 12.7478 1072 155.657 1138.48 472.177
1563 0 85.0981 12.8205 1091 156.188 1139.08 471.84
1564 0 89.1169 12.68 1130 157.654 1138.66 470.501
1565 0 92.1521 13.1088 1208 159.055 1136.65 468.954
1566 0 94.1485 12.8414 1209 164.894 1136.82 468.097
1567 0 97.4576 12.8056 1248 164.736 1137.77 466.348
1568 0 99.3034 12.8495 1276 158.205 1138.21 464.891
1569 0 102.303 13.1571 1346 164.079 1136.67 463.351
1570 0 106.229 12.9155 1372 156.62 1139.35 461.654
1571 0 108.28 13.2435 1434 156.272 1138.16 460.567
1572 0 110.197 13.2036 1455 161.798 1139.49 459.238
1573 0 114.285 13.3263 1523 164.582 1139.78 457.626
1574 0 118.435 13.5433 1604 154.956 1139.35 455.824
1575 0 123.311 13.3646 1648 158.8 1140.34 453.9
1576 0 127.365 13.4338 1711 157.462 1139.02 451.503
1577 0 131.472 13.2043 1736 159.225 1139.98 449.399
1578 1 74.203 11.5494 857 154.632 1139.8 478.728
1579 0 75.3554 12.1027 912 156.888 1140.54 477.622
1580 0 78.2739 12.3796 969 153.797 1140.17 476.548
1581 0 82.2796 12.3117 1013 154.487 1142.04 474.718
1582 0 82.2277 12.5019 1028 154.589 1141.18 474.196
1583 0 86.5122 12.5069 1082 151.728 1140.6 472.595
1584 0 88.3448 12.5984 1113 151.513 1139.81 471.491
1585 0 91.3953 12.8344 1173 149.095 1139.51 470.085
1586 0 91.2381 12.9551 1182 151.119 1140.13 469.625
1587 0 96.3382 12.6845 1222 154.592 1138.71 467.985
1588 0 97.316 12.8859 1254 157.447 1139.96 466.819
1589 0 101.318 12.9493 1312 159.645 1139.19 464.305
1590 0 103.294 13.0599 1349 151.212 1139.39 463.211
1591 0 106.391 12.7549 1357 156.837 1139.71 461.25
1592 0 108.234 13.286 1438 144.119 1138.32 458.823
1593 0 111.273 13.0131 1448 154.45 1137.48 456.939
1594 0 113.188 13.1462 1488 154.538 1138.12 455.599
1595 0 116.384 13.1204 1527 159.139 1138.15 454.313
1596 0 120.302 13.2417 1593 157.225 1138 452.985
1597 0 124.219 13.3393 1657 157.49 1138.59 450.783
1598 0 128.298 13.3127 1708 156.085 1137.23 448.8
1599 0 132.135 13.2365 1749 153.297 1138.76 445.934
1600 1 73.1089 11.1341 814 156.057 1138.28 477.661
1601 0 75.0962 11.8914 893 154.462 1141.02 475.043
1602 0 78.0788 12.2312 955 150.483 1138.9 474.658
1603 0 79.1142 12.7284 1007 153.198 1139.14 475.87
1604 0 81.0931 12.7261 1032 152.288 1137.88 474.32
1605 0 84.1668 12.7129 1070 148.079 1136.47 472.747
1606 0 87.1949 12.8219 1118 144.426 1136.53 471.882
1607 0 91.1886 12.5454 1144 151.756 1136.23 470.456
1608 0 92.1737 13.2793 1224 158.155 1137.03 468.636
1609 0 96.2072 13.0863 1259 153.137 1135.59 466.739
1610 0 98.283 13.0033 1278 153.605 1136.4 465.879
1611 0 102.413 13.0843 1340 154.114 1137.93 463.402
1612 0 106.283 12.8995 1371 154.596 1138.7 462.538
1613 0 108.503 13.4743 1462 154.086 1136.88 460.51
1614 0 111.22 13.1811 1466 155.63 1137.41 459.456
1615 0 115.458 13.4595 1554 152.424 1137.47 457.317
1616 0 118.381 13.6677 1618 155.772 1138.78 455.833
1617 0 123.402 13.2737 1638 155.885 1137.96 453.166
1618 0 127.473 13.6735 1743 165.013 1137.4 450.072
1619 1 74.3371 11.6093 863 158.614 1138.45 475.097
1620 0 75.2678 12.1965 918 157.768 1137.86 475.343
1621 0 78.3878 12.2978 964 159.117 1137.12 473.384
1622 0 81.2882 12.5725 1022 156.585 1137.2 471.81
1623 0 83.2916 12.6303 1052 157.297 1138.42 470.369
1624 0 84.3995 12.8555 1085 153.547 1138.3 468.614
1625 0 88.3763 12.5826 1112 160.188 1138.93 467.222
1626 0 90.4948 12.7079 1150 158.053 1136.84 465.649
1627 0 94.3501 13.026 1229 153.585 1138.42 463.682
1628 0 99.3916 12.9588 1288 152.71 1136.96 461.835
1629 0 104.433 12.8886 1346 161.973 1136.53 463.564
1630 0 107.317 13.0828 1404 157.804 1138.19 463.178
1631 1 56.2311 11.346 638 151.755 1137.29 488.091
1632 0 57.2101 12.2356 700 162.463 1137.54 487.103
1633 0 60.2364 12.2351 737 156.266 1137.95 486.758
1634 0 62.0879 12.4018 770 156.799 1136.06 485.61
1635 0 62.0755 12.7425 791 154.329 1137.68 485.65
1636 0 65.1325 12.6358 823 150.976 1137.81 483.864
1637 0 67.1423 12.7193 854 160.787 1137.46 483.089
1638 0 68.1252 12.9614 883 151.997 1137.13 481.619
1639 0 71.1368 13.0593 929 155.131 1136.83 480.515
1640 0 74.1714 13.1452 975 158.805 1138.42 480.026
1641 0 75.1252 13.2712 997 160.509 1136.49 479.334
1642 0 78.2839 13.0806 1024 158.255 1138.13 478.303
1643 0 80.2288 13.1125 1052 152.529 1136.04 476.69
1644 0 82.1304 13.3812 1099 156.648 1135.96 475.917
1645 0 84.1626 13.4026 1128 148.665 1137.33 474.633
1646 0 87.2616 13.1329 1146 154.76 1137.95 473.024
1647 0 90.4693 13.231 1197 156.089 1135.96 470.817
1648 0 94.2255 13.2554 1249 155.471 1135.96 469.729
1649 0 96.1965 13.1606 1266 154.348 1137.75 467.484
1650 1 54.0879 11.7032 633 158.994 1137.1 489.275
1651 0 56.1089 12.2084 685 151.196 1137.43 487.063
1652 0 58.042 12.6805 736 150.31 1138.46 486.226
1653 0 60.096 12.5799 756 154.157 1136.82 485.489
1654 0 59.1253 13.3614 790 155.541 1138.15 484.866
1655 0 61.0957 13.307 813 156.684 1136.38 483.851
1656 0 63.081 13.3479 842 146.645 1137.5 483.27
1657 0 66.0727 13.3792 884 153.35 1138.18 482.457
1658 0 67.0927 13.6229 914 154.488 1136.86 482.153
1659 0 69.1397 13.5089 934 150.349 1138.57 480.457
1660 0 71.1445 13.7748 980 157.087 1140.29 479.783
1661 0 72.1892 13.9079 1004 157.059 1139.03 478.844
1662 0 73.222 13.9712 1023 157.254 1137.68 478.421
1663 0 78.1343 13.5792 1061 158.696 1138.34 477.423
1664 0 80.1897 13.6551 1095 152.784 1138.7 476.237
1665 0 83.1621 14.0328 1167 161.291 1139.15 474.784
1666 0 85.2489 13.8653 1182 159.07 1138.21 473.431
1667 0 89.2162 13.9437 1244 160.587 1139.84 471.787
1668 0 90.1611 14.1746 1278 163.414 1136.81 470.916
1669 0 95.19 13.6149 1296 163.884 1138.16 469.05
1670 0 97.2391 13.945 1356 167.642 1137.63 467.475
1671 0 101.309 13.7796 1396 155.635 1138.58 465.591
1672 1 55.0865 12.7254 701 163.091 1138.49 488.522
1673 0 58.1045 12.598 732 164.133 1136.56 487.146
1674 0 59.0529 13.0053 768 163.415 1138.57 486.512
1675 0 61.109 13.0914 800 164.84 1138.15 485.606
1676 0 63.1294 13.0842 826 165.682 1139.52 484.151
1677 0 66.1017 12.9497 856 166.479 1139.65 482.966
1678 0 67.1239 13.0952 879 160.625 1139.31 481.606
1679 0 68.2014 13.7387 937 164.485 1137.34 480.512
1680 0 73.2229 12.9195 946 165.735 1138.98 479.2
1681 0 73.0744 13.5478 990 161.604 1139.63 477.663
1682 0 75.0962 13.6358 1024 162.654 1138.03 476.096
1683 0 77.2033 13.4839 1041 160.793 1137.88 474.592
1684 0 80.1715 13.8453 1110 166.546 1139.13 473.242
1685 0 83.1384 13.6159 1132 164.851 1138.76 472.122
1686 0 87.1471 13.3223 1161 159.276 1137.77 470.558
1687 0 89.1561 13.5156 1205 157.1 1137.78 468.933
1688 0 92.2039 14.0233 1293 155.193 1138.79 466.94
1689 0 95.2188 13.7263 1307 163.637 1137.25 465.296
1690 0 97.2151 13.8867 1350 161.06 1139.28 463.825
1691 1 49.2002 12.1341 597 158.343 1138.04 487.605
1692 0 51.1353 12.4963 639 156.989 1138.87 486.593
1693 0 52.097 12.3999 646 158.769 1137.79 486.754
1694 0 53.0724 12.8315 681 153.894 1135.72 486.501
1695 0 54.0751 13.1299 710 154.838 1137.86 486.638
1696 0 57.0713 12.8611 734 151.158 1137.36 485.644
1697 0 58.2392 13.2385 771 153.956 1137.18 485.332
1698 0 60.0822 13.0987 787 156.374 1139.91 484.064
1699 0 60.1533 13.3492 803 156.3 1136.69 482.381
1700 0 63.1441 13.2871 839 155.555 1136.3 481.54
1701 0 65.2208 13.3086 868 152.348 1139.79 479.918
1702 0 67.1404 13.1962 886 155.222 1139.14 479.388
1703 0 69.197 13.5988 941 151.345 1139.16 477.182
1704 0 72.1392 13.5571 978 148.07 1137 476.623
1705 0 73.189 13.7862 1009 154.062 1137.58 475.822
1706 0 75.2757 13.5502 1020 152.145 1136.79 473.709
1707 0 76.2707 13.7143 1046 158.114 1138.3 472.525
1708 0 79.3792 13.5678 1077 153.268 1137.44 471.126
1709 0 82.1625 13.7289 1128 159.264 1137.91 469.934
1710 0 83.17 13.9594 1161 154.022 1138.43 468.417
1711 0 86.3008 13.7542 1187 154.66 1139.12 467.656
1712 0 89.2246 13.9536 1245 152.491 1139.21 465.586
1713 0 92.3706 13.8897 1283 156.128 1137.93 464.679
1714 0 93.1413 14.0324 1307 154.677 1139.83 464.184
1715 0 97.2946 14.2454 1386 155.255 1139.26 463.321
1716 0 98.2037 14.7347 1447 152.001 1140.63 461.191
1717 0 102.382 14.4557 1480 156.651 1138.3 460.032
1718 0 106.395 14.1172 1502 156.838 1138.21 458.422
1719 0 111.193 14.2725 1587 158.817 1137.77 455.875
1720 0 114.265 14.6589 1675 156.123 1137.82 453.832
1721 0 119.215 14.4613 1724 156.099 1136.46 452.546
1722 0 122.265 14.125 1727 154.376 1136.05 449.398
1723 0 125.316 14.6271 1833 154.552 1136.46 447.975
1724 0 131.205 14.5345 1907 149.695 1135.88 445.266
1725 0 135.503 14.5827 1976 160.641 1137.64 443.911
1726 0 139.449 14.5358 2027 149.965 1136.72 441.664
1727 0 145.41 14.1737 2061 158.453 1136.94 439.079
1728 0 149.478 14.1827 2120 154.373 1136.45 436.005
1729 0 154.317 14.5026 2238 152.609 1136.42 433.67
1730 0 158.436 14.3591 2275 155.783 1136.95 432.056
1731 0 166.444 14.4613 2407 144.036 1136.92 428.623
1732 0 171.42 14.3857 2466 151.532 1138.05 425.7
1733 0 179.451 14.4217 2588 153.879 1137.57 423.05
1734 0 184.233 14.5468 2680 150.475 1137.91 419.746
1735 1 101.359 13.1809 1336 156.144 1138.68 459.923
1736 0 104.323 13.4486 1403 155.902 1139.23 458.429
1737 0 107.374 13.4669 1446 155.977 1136.85 457.409
1738 0 110.346 13.6389 1505 156.098 1137.66 454.872
1739 0 112.293 13.9456 1566 155.16 1136.83 454.441
1740 0 119.215 13.8238 1648 156.906 1135.94 451.008
1741 0 121.243 14.0627 1705 159.855 1138.36 449.404
1742 0 124.388 14.0207 1744 152.057 1139.69 446.982
1743 0 131.298 14.0673 1847 158.288 1136.56 445.339
1744 0 136.373 13.7637 1877 148.235 1137.1 443.301
1745 0 140.476 13.7533 1932 142.82 1135.37 441.015
1746 0 146.351 13.782 2017 149.632 1136.53 438.089
1747 1 80.1619 13.4603 1079 146.168 1137.48 469.689
1748 0 84.2465 13.2231 1114 141.078 1136.75 468.834
1749 0 86.3913 13.4041 1158 146.774 1136.5 466.788
1750 0 91.3699 13.1772 1204 148.221 1137.05 465.633
1751 0 93.2093 13.0781 1219 148.381 1137.26 463.982
1752 0 96.3051 13.6026 1310 140.838 1137.96 462.886
1753 0 99.4912 13.6796 1361 148.945 1136.96 460.508
1754 0 101.375 14.0567 1425 145.332 1137.73 458.926
1755 0 105.242 13.8633 1459 149.299 1137.34 457.234
1756 0 108.498 13.8344 1501 151.999 1138.18 456.102
1757 0 113.391 13.8635 1572 148.776 1137.05 454.63
1758 0 115.29 14.0255 1617 150.983 1137 452.541
1759 0 120.539 14.0951 1699 147.35 1136.53 450.668
1760 0 0 0 1 197 1155 422
1761 1 72.2464 12.2636 886 147.774 1137.26 476.052
1762 0 72.3448 12.7998 926 141.044 1137.4 474.869
1763 0 77.3977 12.5327 970 145.954 1137.6 474.453
1764 0 77.2514 13.2036 1020 146.925 1137.97 473.169
1765 0 81.4982 13.0555 1064 133.443 1138.17 470.551
1766 0 84.2575 13.3519 1125 139.984 1136.87 469.321
1767 0 85.1394 13.5073 1150 132.757 1138.33 468.163
1768 0 90.3042 13.3438 1205 135.638 1137.53 467.263
1769 0 94.2661 13.1543 1240 138.469 1138.8 466.081
1770 0 96.2823 13.6162 1311 137.765 1138.41 464.109
1771 0 97.3034 13.535 1317 141.566 1137.04 462.613
1772 0 99.2189 13.7171 1361 140.561 1137.76 460.902
1773 0 106.33 13.4957 1435 142.401 1135.57 459.057
1774 0 108.251 13.2193 1431 147.297 1137.08 458.006
1775 0 112.184 13.5937 1525 144.013 1136.76 455.844
1776 1 65.2042 12.1158 790 137.506 1136.38 480.132
1777 0 63.2491 13.3757 846 139.171 1136.89 477.71
1778 0 66.543 13.3748 890 146.387 1137.56 477.958
1779 0 69.226 13.5787 940 140.08 1138.27 476.992
1780 0 73.3587 12.8683 944 142.41 1138.84 475.444
1781 0 74.3348 13.3719 994 144.898 1139.13 474.544
1782 0 77.4894 12.9566 1004 147.117 1137.21 473.605
1783 0 80.3819 13.0626 1050 149.688 1136.79 472.142
1784 0 79.2073 13.875 1099 148.056 1135.93 470.47
1785 0 84.2317 13.4272 1131 147.182 1137.7 469.256
1786 0 87.2906 13.4493 1174 139.573 1135.05 469.009
1787 0 90.1878 13.993 1262 142.527 1136.63 467.464
1788 0 93.3541 14.0005 1307 145.557 1136.79 466.426
1789 0 95.417 14.1065 1346 141.279 1136.12 464.426
1790 0 98.3734 14.201 1397 146.767 1137.37 463.059
1791 0 102.365 13.8915 1422 145.834 1137.41 461.375
1792 0 103.428 14.5609 1506 149.164 1136.61 459.515
1793 0 108.37 14.2752 1547 144.035 1138.63 458.093
1794 0 111.685 14.0484 1569 146.191 1138.92 456.646
1795 0 116.538 14.2529 1661 150.974 1135.61 454.504
1796 0 120.443 14.3471 1728 145.891 1135.99 453.435
1797 1 69.2841 12.6436 876 148.027 1135.99 479.743
1798 0 71.5527 13.3328 954 142.762 1135.78 478.541
1799 0 74.2631 13.4252 997 145.552 1137.6 477.591
1800 0 75.4114 13.6319 1028 140.624 1137.23 476.602
1801 0 78.2718 13.5298 1059 139.716 1137.58 474.477
1802 0 81.5752 13.6193 1111 143.426 1135.43 474.603
1803 0 82.3389 13.663 1125 141.924 1137.62 473.094
1804 0 85.4578 13.4686 1151 146.46 1137.07 470.871
1805 0 88.3291 13.9818 1235 141.422 1137.02 470.019
1806 0 93.4444 13.4839 1260 141.087 1136.43 468.506
1807 0 94.2551 13.8136 1302 142.832 1137.31 468.223
1808 0 98.3299 13.7191 1349 145.432 1138.04 466.138
1809 0 100.401 13.9043 1396 135.64 1137.43 464.927
1810 0 103.464 14.0436 1453 139.952 1138.23 462.822
1811 0 108.347 13.6967 1484 144.505 1135.06 461.073
1812 0 112.382 13.8812 1560 140.339 1135.48 458.868
1813 0 114.227 13.7883 1575 143.828 1137.53 457.506
1814 0 114.227 13.7883 1575 167.647 1138.53 457.506
1815 1 62.2538 11.4371 712 140.975 1137.19 483.501
1816 0 63.0492 12.6409 797 145.08 1136.54 482.556
1817 0 65.2089 12.7897 834 145.969 1135.34 481.893
1818 0 68.2033 12.844 876 146.61 1135.09 480.586
1819 0 69.1802 12.8794 891 152.488 1134.08 479.749
1820 0 72.4453 13.1686 954 145.184 1135.22 478.405
1821 0 75.2221 13.0813 984 146.968 1135.36 476.762
1822 0 77.4369 13.327 1032 154.456 1136.96 476.344
1823 0 79.3821 13.3531 1060 148.259 1137.57 474.004
1824 0 81.4754 13.3169 1085 153.482 1137.46 473.177
1825 0 82.3758 13.7055 1129 152.346 1137.23 471.593
1826 0 88.5365 13.1584 1165 152.404 1137.15 470.464
1827 0 91.3487 13.5853 1241 155.964 1134.64 469.35
1828 0 92.682 13.4438 1246 158.525 1137.83 466.931
1829 0 94.1968 13.8434 1304 156.519 1135.4 465.93
1830 0 99.3437 13.5892 1350 158.144 1137.58 465.484
1831 0 103.364 13.3508 1380 151.104 1136.2 462.837
1832 0 106.335 13.8995 1478 151.143 1136.76 461.207
1833 0 109.306 13.8236 1511 157.235 1135.99 459.371
1834 0 112.277 13.6804 1536 150.933 1137.83 458.456
1835 0 115.3 13.9115 1604 156.168 1136.83 456.573
1836 0 120.262 13.8282 1663 149.192 1136.29 453.489
1837 0 125.252 14.1076 1767 153.843 1138.2 451.724
1838 0 129.202 14.1406 1827 158.722 1137.42 449.492
1839 1 70.1036 12.3817 868 157.362 1136.88 479.373
1840 0 73.067 12.7965 935 147.207 1136.87 477.231
1841 0 75.0746 13.027 978 152.564 1137.43 476.565
1842 0 77.107 12.8652 992 153.839 1137.7 476.085
1843 0 80.0637 12.8398 1028 149.981 1137.13 474.15
1844 0 82.1488 12.8547 1056 147.952 1136.61 472.567
1845 0 85.1706 12.8096 1091 150.148 1137.26 472.351
1846 0 87.2179 12.9904 1133 153.496 1136.57 470.127
1847 0 90.1211 13.0602 1177 153.094 1136.25 468.718
1848 0 92.1616 12.9664 1195 155.649 1135.11 468.206
1849 0 94.2376 13.6357 1285 148.282 1137.01 466.349
1850 0 97.0974 13.3371 1295 153.265 1135.26 464.425
1851 0 100.345 13.5233 1357 143.685 1135.41 463.635
1852 0 104.282 13.7128 1430 152.733 1136.66 461.7
1853 0 106.38 13.668 1454 151.466 1137.57 459.519
1854 0 111.425 13.7761 1535 151.504 1137.04 457.371
1855 0 114.241 13.4278 1534 154.291 1138 455.625
1856 0 116.268 13.4861 1568 152.969 1137.67 454.652
1857 0 122.327 13.6193 1666 149.478 1138.65 452.193
1858 0 126.431 13.4302 1698 157.43 1138.45 450.624
1859 0 130.318 13.6359 1777 151.3 1136.96 447.817
1860 1 74.2543 11.6088 862 145.616 1136.98 476.852
1861 0 76.196 11.6804 890 145.66 1138.07 475.487
1862 0 80.0871 11.6623 934 142.307 1138.48 474.863
1863 0 81.1575 12.1246 984 143.447 1137.44 472.513
1864 0 84.2052 12.1608 1024 144.119 1136.8 471.503
1865 0 87.2123 12.0167 1048 143.484 1138.25 470.26
1866 0 88.1263 12.2778 1082 140.476 1137.75 468.228
1867 0 92.1209 12.0819 1113 141.996 1136.66 467.787
1868 0 95.2129 12.3513 1176 136.177 1135.51 465.727
1869 0 98.2175 12.3298 1211 144.069 1138.25 464.099
1870 0 101.194 12.2735 1242 139.009 1138.17 463.009
1871 0 104.252 12.2587 1278 145.294 1137.98 460.733
1872 0 108.158 12.4725 1349 140.669 1138.43 458.77
1873 0 110.235 12.4189 1369 142.107 1137.63 457.827
1874 0 115.267 12.5621 1448 138.181 1138.21 455.506
1875 0 119.327 12.7297 1519 144.388 1137.03 453.454
1876 0 123.217 12.3359 1520 142.794 1136.81 451.272
1877 1 73.1516 10.3757 759 139.509 1137.41 478.319
1878 0 74.237 10.9918 816 139.574 1137.9 477.54
1879 0 77.1799 11.5056 888 131.824 1136.18 475.783
1880 0 80.1192 11.6576 934 136.867 1137.85 475.426
1881 0 79.3124 11.7006 928 136.925 1137.3 474.566
1882 0 83.1398 11.9317 992 136.268 1138.05 472.692
1883 0 86.1419 12.4678 1074 133.993 1137.21 472.371
1884 0 87.1729 12.2286 1066 142.434 1139.02 471.535
1885 0 91.2332 12.1885 1112 137.925 1138.97 469.699
1886 0 93.258 12.7603 1190 141.827 1138.19 468.124
1887 0 95.3397 12.618 1203 143.771 1137.6 466.751
1888 0 98.3091 12.7252 1251 143.508 1137.9 465.311
1889 0 102.195 12.5251 1280 139.813 1137.9 464.033
1890 0 105.316 12.5147 1318 150.124 1136.5 461.945
1891 0 107.304 12.5624 1348 142.27 1135.97 461.315
1892 0 111.334 12.8891 1435 140.931 1135.25 459.743
1893 0 114.235 12.7894 1461 148.131 1135.07 457.277
1894 0 117.364 12.8148 1504 145.652 1136.41 455.939
1895 0 121.275 12.7231 1543 144.879 1136.4 453.72
1896 1 68.1146 10.7613 733 148.091 1134.99 481.638
1897 0 70.1026 11.5973 813 145.968 1134.81 479.894
1898 0 72.2138 12.3245 890 143.831 1135.87 478.787
1899 0 74.1614 12.0413 893 146.424 1135.53 477.798
1900 0 77.0572 12.588 970 143.816 1135.72 476.634
1901 0 77.151 12.3135 950 148.006 1135.93 476.2
1902 0 79.3057 12.3825 982 150.002 1135.88 474.576
1903 0 83.1984 12.7406 1060 145.774 1136.71 473.239
1904 0 84.1309 12.849 1081 144.944 1136.94 472.223
1905 0 88.1431 13.1377 1158 146.787 1136.5 471.553
1906 0 90.103 13.1738 1187 147.736 1135.6 469.687
1907 0 93.1547 13.2146 1231 147.065 1136.41 468.32
1908 0 97.1128 12.9437 1257 148.565 1134.85 466.371
1909 0 100.127 13.1832 1320 146.241 1135.31 464.933
1910 0 103.168 12.911 1332 143.57 1135.78 464.116
1911 0 106.192 12.9294 1373 146.288 1136 461.814
1912 0 110.201 13.3665 1473 148.914 1135.87 460.638
1913 0 112.19 13.4593 1510 152.04 1136.41 459.154
1914 1 65.1393 11.959 779 148.847 1134.7 482.635
1915 0 67.1215 12.4401 835 148.133 1133.94 481.806
1916 0 68.07 12.3255 839 150.486 1134.37 481.718
1917 0 69.1308 12.2666 848 144.975 1134.55 479.862
1918 0 70.1216 12.3072 863 159.395 1134.75 480.392
1919 0 73.1352 12.6068 922 148.747 1135.31 478.946
1920 0 75.1197 12.6731 952 146.506 1135.08 478.35
1921 0 76.0748 12.79 973 155.327 1133.07 477.574
1922 0 78.118 12.7755 998 144.456 1132.89 476.724
1923 0 79.1367 13.0028 1029 148.131 1133.49 476.389
1924 0 81.0813 13.2213 1072 144.16 1135.37 475.417
1925 0 83.2759 12.9449 1078 152.515 1135.33 473.704
1926 0 85.2168 13.319 1135 153.655 1135.78 472.923
1927 0 87.3378 12.9383 1130 152.61 1135.9 471.787
1928 0 87.3421 13.6131 1189 146.242 1134.85 470.599
1929 0 90.2818 13.6129 1229 144.141 1135.59 468.524
1930 0 95.2132 13.223 1259 143.318 1135.94 467.635
1931 0 97.1778 13.5936 1321 142.748 1137.2 466.287
1932 0 99.1827 13.7423 1363 141.884 1136.86 464.781
1933 0 99.1827 13.7423 1363 164.851 1135.86 464.781
1934 0 104.155 13.9312 1451 142.367 1136.57 462.139
1935 0 107.172 13.6043 1458 138.76 1136.78 461.398
1936 0 110.256 13.9856 1542 140.326 1135.1 459.201
1937 0 113.125 14.126 1598 136.767 1135.82 457.722
1938 0 116.196 14.0367 1631 131.128 1135.48 456.208
1939 0 119.295 14.5187 1732 137.41 1133.86 454.427
1940 0 123.292 14.4292 1779 140.675 1133.04 453.053
1941 0 129.343 14.1562 1831 136.813 1132.46 450.746
1942 0 131.274 14.4126 1892 143.19 1134.35 448.604
1943 0 134.212 14.5293 1950 138.344 1134.21 446.446
1944 0 140.44 14.5543 2044 139.356 1133.85 443.531
1945 0 145.285 14.4543 2100 142.906 1134.66 441.155
1946 0 149.338 14.6179 2183 138.33 1133.89 437.917
1947 0 156.474 14.3985 2253 142.822 1135.1 434.931
1948 0 161.374 14.6368 2362 138.591 1136.42 432.747
1949 0 165.3 14.513 2399 142.65 1135.65 429.763
1950 0 174.398 15.1837 2648 135.762 1134.36 427.295
1951 0 177.644 14.7767 2625 136.525 1134.79 424.202
1952 0 185.499 14.6524 2718 138.809 1134.86 421.063
1953 0 191.4 14.7022 2814 135.349 1134.8 418.379
1954 0 195.296 15.0951 2948 141.74 1135.38 415.133
1955 0 201.489 15.1373 3050 134.95 1133.08 410.859
1956 0 207.34 14.9513 3100 136.139 1136.69 408.437
1957 0 212.511 15.0439 3197 138.613 1134.3 405.698
1958 0 221.525 15.9124 3525 132.284 1133.62 400.227
1959 0 226.413 15.3524 3476 140.518 1134.82 398.442
1960 0 237.502 15.0693 3579 141.203 1135.36 393.916
1961 0 246.764 15.0387 3711 137.747 1134.69 390.629
1962 0 255.622 15.4212 3942 128.171 1134.65 384.627
1963 0 263.523 15.1979 4005 132.804 1133.42 380.013
1964 0 272.624 15.5819 4248 136.183 1133.78 374.919
1965 0 282.544 15.2012 4295 138.016 1133.87 368.675
1966 1 293.68 15.476 4545 135.011 1133.96 362.6
1967 1 301.827 16.6353 5021 123.901 1133.23 354.877
1968 0 312.1 16.8504 5259 133.39 1134.83 349.525
1969 1 323.742 16.5595 5361 127.663 1134.71 343.786
1970 0 336.61 16.5592 5574 133.863 1133.36 337.413
1971 0 349.626 16.6292 5814 135.273 1135.25 330.577
1972 0 360.586 16.2901 5874 129.189 1134.85 324.102
1973 0 372.757 16.6731 6215 129.344 1135.74 318.168
1974 0 373.789 14.551 5439 141.865 1135.37 323.167
1975 1 329.651 14.576 4805 149.909 1133.93 344.164
1976 0 338.561 14.7861 5006 149.471 1135.07 338.041
1977 1 349.841 16.3817 5731 142.241 1134.89 327.849
1978 0 363.787 16.7818 6105 139.385 1135.01 321.178
1979 0 374.609 16.5719 6208 139.799 1134.17 313.632
1980 0 392.01 16.7062 6549 136.834 1135.21 304.971
1981 1 42.4161 8.79383 373 119.177 1134.49 488.938
1982 0 43.251 8.87841 384 118.622 1135.14 490.146
1983 0 44.2747 8.49243 376 121.436 1132.5 491.223
1984 0 44.4266 9.7014 431 116.346 1135.08 484.849
1985 0 46.4237 10.2534 476 110.708 1135.97 486.313
1986 0 47.3822 10.2359 485 112.408 1135.97 486.243
1987 0 50.2653 10.3849 522 12.4119 1135.16 485.806
1988 0 48.2631 10.5256 508 121.163 1136.14 480.057
1989 0 49.277 10.8164 533 118.629 1135.92 484.313
1990 0 50.272 10.9604 551 124.299 1136.03 488.584
1991 0 49.286 11.5246 568 121.85 1136.04 489.412
1992 0 51.2838 11.4266 586 123.98 1137.35 488.674
1993 0 50.121 11.0932 556 122.363 1135.51 487.867
1994 0 52.246 12.7857 668 117.391 1132.66 486.184
1995 0 52.1527 14.4384 753 112.57 1134.83 455.676
1996 0 52.1411 13.7703 718 112.277 1132.72 451.82
1997 0 53.1244 14.739 783 111.11 1133.84 463.398
1998 0 54.0888 14.6426 792 111.621 1135.05 465.909
1999 0 53.1933 14.6071 777 113.694 1133.53 471.198
2000 0 53.1116 15.2321 809 111.143 1132.34 474.059
2001 0 54.169 14.6024 791 116.76 1134.59 479.04
2002 0 53.3581 14.562 777 115.977 1136.28 478.4
2003 0 53.4128 14.7717 789 109.037 1136.9 480.786
2004 0 55.2277 14.3768 794 114.49 1134.73 480.757
2005 0 54.3488 15.1245 822 115.512 1134.43 483.044
2006 0 55.2424 14.7351 814 109.694 1134.81 480.989
2007 0 54.3267 14.7625 802 105.762 1134.57 483.532
2008 0 55.3003 14.4665 800 112.07 1135.02 483.93
2009 0 54.0891 15.0677 815 110.232 1135.61 484.534
2010 0 54.1025 14.4356 781 106.008 1137.9 483.278
2011 0 55.3989 14.531 805 107.366 1136.16 481.661
2012 0 55.2371 14.3382 792 107.319 1136.52 482.29
2013 0 56.0819 14.5145 814 107.942 1138.57 483.141
2014 0 55.114 14.588 804 112.114 1136.96 483.455
2015 0 56.3441 13.9855 788 109.011 1136.48 481.622
2016 0 55.1758 14.7891 816 112.734 1136.99 482.553
2017 0 55.2468 14.6434 809 112.356 1135.71 482.246
2018 0 56.1354 14.7501 828 113.045 1135.41 482.942
2019 0 57.1155 15.1272 864 113.201 1134.7 482.775
2020 0 56.2979 14.2634 803 119.635 1135.55 483.651
2021 0 58.1548 14.5818 848 119.151 1137.5 483.789
2022 0 58.2036 14.3462 835 121.145 1137.41 482.91
2023 0 57.2109 14.8398 849 115.59 1137.04 483.277
2024 0 58.1871 15.2783 889 116.925 1138.31 482.922
2025 0 58.0702 15.3607 892 114.713 1137 483.993
2026 0 58.4429 15.5194 907 113.689 1133.88 483.84
2027 0 57.1204 14.8283 847 123.778 1135.73 483.863
2028 0 58.1856 15.5193 903 114.256 1135.79 484.039
2029 0 58.1634 14.8031 861 120.346 1135.5 484.052
2030 0 58.2187 14.4971 844 118.534 1133.04 482.989
2031 0 59.3135 15.4096 914 116.439 1135.37 483.502
2032 0 59.1352 15.4899 916 115.231 1136.34 483.285
2033 0 60.2014 15.4482 930 112.568 1137.8 483.599
2034 0 60.1792 15.3209 922 114.608 1138.98 483.32
2035 0 60.1342 15.1827 913 114.318 1138.17 483.174
2036 0 61.2107 15.3568 940 113.684 1137.86 483.174
2037 0 60.4201 14.8295 896 119.055 1137.68 483.377
2038 0 61.2609 15.2626 935 113.123 1137.19 483.659
2039 0 61.3538 15.5818 956 114.106 1137.08 483.601
2040 0 61.3277 15.1807 931 113.954 1135.53 483.871
2041 0 61.1039 15.6782 958 114.862 1135.87 484.025
2042 0 60.1197 15.6521 941 107.665 1136.77 483.626
2043 0 60.2359 15.2567 919 109.591 1136.55 483.214
2044 0 62.1741 15.0867 938 109.259 1137.37 483.436
2045 0 62.2738 15.6085 972 105.926 1136.76 483.434
2046 0 61.2973 15.4167 945 109.697 1137.36 483.437
