index division length width area intensity CMx CMy
0 0 50.1344 14.0423 704 135.982 1201.98 480.162
1 0 51.0966 14.4628 739 143.739 1203.53 479.585
2 0 52.1119 14.3345 747 137.24 1205.04 480.44
3 0 50.1421 14.9774 751 144.807 1206.1 480.414
4 0 54.0807 14.3119 774 142.49 1206.96 480.195
5 0 55.15 14.7054 811 140.705 1207.06 479.269
6 0 59.1778 14.3128 847 145.569 1207.24 478.949
7 0 60.0418 14.6065 877 142.895 1204.57 479.697
8 0 61.2123 14.4252 883 147.353 1203.36 480.045
9 0 64.0791 13.9671 895 152.905 1205.15 480.451
10 0 65.0562 14.6181 951 153.188 1202.46 479.845
11 0 67.0885 14.3095 960 150.447 1201.45 480.561
12 0 68.29 14.6141 998 151.559 1204.13 480.527
13 0 72.036 14.2151 1024 143.774 1203.18 479.979
14 0 73.2086 14.6568 1073 151.585 1201.79 479.196
15 0 76.1105 14.7023 1119 138.484 1199.13 478.177
16 0 79.1129 14.5741 1153 147.659 1197.98 477.664
17 0 81.2113 14.6162 1187 148.868 1200.19 477.131
18 0 84.1745 14.6006 1229 147.889 1202.28 475.681
19 0 86.1986 14.7218 1269 150.229 1200.08 474.939
20 0 88.2444 15.0831 1331 145.412 1199.48 473.869
21 0 92.1579 14.6488 1350 148.089 1198.3 471.996
22 0 95.0966 14.48 1377 147.495 1198.79 471.137
23 0 98.1468 14.8349 1456 147.922 1199.29 468.507
24 0 100.243 15.0135 1505 146.951 1199.23 467.108
25 1 52.0337 13.3952 697 152.185 1199.03 490.689
26 0 53.0403 14.0082 743 147.681 1199.01 489.026
27 0 56.1341 13.8062 775 154.04 1198.12 488.128
28 0 58.0364 14.1635 822 149.917 1198.78 486.192
29 0 62.063 13.6313 846 156.706 1198.76 484.006
30 0 62.046 14.3603 891 150.855 1200.81 481.78
31 0 66.085 14.1787 937 153.03 1202.51 479.585
32 0 68.0205 14.1722 964 144.703 1203.06 477.141
33 0 71.0614 14.199 1009 156.85 1203.11 474.359
34 0 73.0563 14.304 1045 147.983 1204.48 472.295
35 0 77.1423 14.1946 1095 147.529 1203.62 469.438
36 0 79.1276 14.3566 1136 150.794 1204.26 467.334
37 0 80.1609 14.658 1175 155.862 1204.14 466.049
38 0 85.0921 14.1964 1208 156.921 1204.38 463.931
39 0 88.1372 14.4207 1271 152.146 1207.45 462.537
40 0 92.0741 14.2603 1313 151.307 1206.71 460.274
41 0 95.1246 14.3496 1365 162.208 1206.86 458.722
42 0 97.1412 14.6282 1421 153.545 1205.89 456.987
43 0 98.1143 14.9723 1469 157.401 1206.29 456.868
44 0 103.076 14.5621 1501 162.845 1204.73 455.508
45 0 107.151 15.1281 1621 149.602 1205.06 453.542
46 0 111.129 14.8835 1654 150.879 1204.09 451.894
47 0 114.146 14.8144 1691 147.057 1205.28 450.275
48 0 118.16 15.022 1775 156.226 1206.59 448.899
49 0 122.12 14.7805 1805 157.268 1206.31 447.468
50 0 126.15 14.7285 1858 155.575 1206.72 445.629
51 0 131.158 14.9362 1959 151.884 1206.19 443.471
52 0 135.264 14.5419 1967 160.674 1203.87 443.307
53 0 140.127 14.9935 2101 155.877 1205.59 440.858
54 0 145.196 14.7593 2143 155.058 1207.22 439.73
55 0 150.176 14.4497 2170 150.808 1208.2 437.479
56 0 156.429 14.9141 2333 154.557 1206.5 434.586
57 0 162.17 14.6513 2376 155.999 1207.84 432.287
58 0 168.324 14.6265 2462 159.025 1205.7 429.653
59 0 174.177 14.8642 2589 149.895 1205.26 425.614
60 0 180.419 15.0649 2718 157.944 1205.6 422.776
61 0 186.635 15.2329 2843 152.586 1205.36 420.499
62 0 193.537 15.4544 2991 153.61 1205.11 416.919
63 0 199.514 15.1769 3028 154.711 1204.89 413.782
64 0 199.514 15.1769 3028 178.642 1206.89 413.782
65 1 166.348 13.7903 2294 159.255 1204.65 430.928
66 0 167.374 14.3451 2401 161.369 1204.42 430.541
67 0 172.486 14.9636 2581 151.163 1204.34 425.734
68 0 179.293 15.009 2691 153.709 1202.72 421.866
69 0 185.456 14.7636 2738 152.335 1203.65 419.111
70 0 191.536 14.958 2865 151.569 1205.95 414.582
71 0 197.321 15.1225 2984 154.358 1203.64 411.402
72 0 205.391 15.3415 3151 152.229 1205.17 407.094
73 0 212.288 15.0079 3186 155.39 1205.26 403.139
74 0 222.468 15.2921 3402 154.047 1205.37 398.366
75 0 229.516 15.2974 3511 158.612 1203.64 394.473
76 0 239.729 15.2172 3648 159.86 1203.08 390.434
77 0 248.59 15.1857 3775 156.024 1205.86 385.101
78 0 255.424 15.2296 3890 150.302 1207.12 381.226
79 0 264.502 15.1228 4000 152.48 1205.2 376.527
80 0 274.499 15.6285 4290 148.772 1204.18 371.679
81 1 353.722 18.6446 6595 134.738 1205.28 323.588
82 1 296.506 18.4583 5473 134.738 1204.91 353.115
83 1 240.526 14.6097 3514 153.391 1204.15 389.414
84 0 245.471 14.7553 3622 153.71 1204.53 386.227
85 0 254.476 15.0073 3819 154.137 1204.5 380.875
86 0 263.556 15.2833 4028 152.989 1207.25 374.862
87 0 273.399 16.1486 4415 144.7 1206.33 368.94
88 1 295.595 17.2736 5106 136.841 1206.98 354.352
89 1 295.473 17.1217 5059 134.474 1206.8 354.658
90 0 306.307 17.169 5259 135.887 1205.65 349.042
91 0 317.454 16.9316 5375 138.943 1206.01 343.674
92 0 330.674 17.1377 5667 136.947 1205.74 337.413
93 0 344.477 17.1855 5920 137.583 1206.3 331.645
94 1 173.163 13.6634 2366 146.044 1204.75 422.899
95 0 171.167 13.9805 2393 141.303 1205.83 422.853
96 0 177.151 14.2195 2519 143.164 1204.77 419.708
97 0 186.145 14.5585 2710 143.816 1206.26 415.577
98 0 192.209 14.297 2748 140.965 1203.52 412.718
99 0 198.208 14.6816 2910 136.729 1205.39 409.613
100 0 206.295 14.7556 3044 139.107 1202.73 406.17
101 0 214.21 14.6865 3146 141.125 1203.94 401.477
102 0 223.371 14.8094 3308 135.182 1203.25 397.232
103 1 65.0463 11.6994 761 128.614 1202.73 474.976
104 0 68.2298 12.5898 859 122.062 1203.44 474.007
105 0 67.0645 13.6138 913 121.315 1203.11 473.57
106 0 71.1087 13.3739 951 120.718 1203.68 471.084
107 0 75.0948 13.1833 990 121.935 1205.87 470.027
108 0 76.1655 13.5494 1032 118.889 1205.98 468.799
109 0 78.1156 13.7104 1071 118.356 1206.03 467.292
110 0 79.0994 13.7169 1085 126.374 1205.56 465.837
111 0 85.1268 13.709 1167 123.392 1207.9 464.694
112 0 88.1388 13.6489 1203 125.425 1205.96 462.596
113 0 91.1447 13.6925 1248 127.329 1205.32 461.026
114 0 93.1025 13.9094 1295 129.317 1204.85 459.362
115 0 97.1212 13.7251 1333 128.244 1202.96 457.21
116 0 101.207 14.1196 1429 125.669 1204.36 454.59
117 0 104.182 14.2251 1482 128.25 1204.61 452.902
118 0 106.313 14.5607 1548 133.553 1205.82 450.905
119 1 56.1724 12.2836 690 131.345 1205.01 475.114
120 0 58.1138 12.682 737 135.566 1205.46 473.723
121 0 58.0992 12.8229 745 135.483 1205.92 473.983
122 0 61.1332 13.397 819 134.292 1204.53 473.048
123 0 63.0939 13.5988 858 130.967 1206.41 472.112
124 0 65.0657 13.8014 898 127.012 1205.29 470.46
125 0 68.0923 13.8488 943 120.852 1205.91 469.581
126 0 70.1147 14.0342 984 131.294 1206.79 468.623
127 0 72.06 13.8912 1001 129.829 1206.31 468.04
128 0 75.0607 13.9221 1045 127.893 1204.9 466.704
129 0 76.1197 14.4641 1101 123.637 1205.73 465.273
130 0 80.1195 14.0665 1127 130.36 1204.75 464.073
131 0 81.0864 15.3047 1241 126.355 1204.24 462.749
132 0 85.1994 15.0001 1278 119.692 1206.4 461.556
133 0 87.1329 14.9656 1304 129.16 1206.51 460.836
134 0 90.1155 14.5258 1309 130.374 1206.75 459.393
135 0 92.1275 14.6862 1353 132.426 1207.53 457.737
136 0 96.1545 14.2375 1369 136.537 1208.56 457.015
137 0 99.0839 14.7148 1458 132.373 1206.57 454.643
138 0 103.121 14.5363 1499 132.424 1205.33 453.657
139 0 106.145 14.4708 1536 134.531 1206 451.931
140 0 107.121 14.8337 1589 136.449 1203.62 449.407
141 0 111.113 14.5347 1615 138.225 1203.25 447.643
142 0 115.146 14.6597 1688 132.213 1206.29 445.903
143 0 117.21 14.6234 1714 132.003 1203.68 444.863
144 0 123.174 14.4429 1779 127.958 1205.01 443.66
145 1 77.1643 13.1797 1017 134.208 1207.32 464.261
146 0 79.0742 13.0763 1034 134.441 1208.1 463.459
147 0 79.0903 13.7564 1088 137.383 1207.86 462.105
148 0 83.1488 13.5901 1130 135.965 1206.89 461.432
149 0 85.2959 13.3652 1140 143.132 1204.44 460.91
150 0 89.1562 13.6838 1220 137.752 1204.65 459.53
151 0 90.1215 14.0033 1262 134.051 1202.94 458.532
152 0 93.0886 14.1586 1318 139.28 1204.64 457.103
153 0 96.1282 14.0125 1347 144.52 1204.99 455.486
154 0 100.19 13.9136 1394 143.867 1205.53 454.136
155 0 101.198 14.1307 1430 143.451 1204.67 452.908
156 0 104.092 14.026 1460 146.073 1204.59 451.656
157 0 106.16 14.544 1544 133.793 1203.04 449.828
158 0 110.127 14.3743 1583 131.409 1203.89 448.573
159 0 113.18 15.0733 1706 136.072 1205.4 446.38
160 0 117.089 14.6128 1711 138.046 1204.68 444.974
161 0 121.123 14.2995 1732 137.834 1204.65 443.311
162 0 126.212 13.723 1732 138.54 1204.14 441.662
163 0 128.221 14.4361 1851 137.301 1204.81 440.008
164 0 133.328 14.2731 1903 137.701 1206.22 437.769
165 0 138.299 14.2662 1973 136.114 1205.23 435.862
166 1 74.1504 11.9082 883 139.19 1205.28 469.003
167 0 76.1963 12.7959 975 131.541 1204.64 467.832
168 0 79.1819 12.6544 1002 128.284 1206.14 467.074
169 0 82.197 12.3362 1014 131.574 1205.5 466.323
170 0 86.1186 12.4015 1068 129.97 1206.78 463.631
171 0 88.2463 12.5218 1105 128.462 1206.78 463.509
172 0 90.1325 12.8921 1162 130.611 1207.13 461.88
173 0 93.1226 12.4245 1157 137.144 1205.98 460.897
174 0 97.1656 12.7514 1239 133.481 1205.06 458.734
175 0 100.136 12.7128 1273 136.157 1204.14 457.065
176 0 104.275 12.7547 1330 130.531 1203.34 455.094
177 0 107.206 13.0776 1402 136.689 1203.46 453.993
178 0 107.206 13.0776 1402 166.522 1204.46 453.993
179 0 116.399 13.1101 1526 133.409 1204.78 449.414
180 1 61.1669 12.0653 738 131.614 1205.53 476.478
181 0 64.1668 12.3584 793 128.657 1205.12 475.231
182 0 66.079 12.2127 807 127.146 1206.11 474.305
183 0 69.1661 12.376 856 129.687 1204.99 472.701
184 0 72.089 12.3458 890 114.172 1206.64 471.757
185 0 74.0655 12.5294 928 127.265 1206.15 469.932
186 0 77.1214 12.798 987 133.258 1206.9 468.666
187 0 79.069 12.6472 1000 133.072 1207.95 467.625
188 0 80.0861 13.011 1042 133.588 1205.52 466.392
189 0 84.119 12.8389 1080 133.704 1208.78 465.158
190 0 85.1332 13.1441 1119 136.211 1206.93 464.031
191 0 89.1329 13.3621 1191 133.614 1205.37 461.689
192 0 93.0935 13.1051 1220 136.788 1207.25 460.176
193 0 96.0763 13.0417 1253 136.228 1205.6 458.43
194 0 99.1441 13.1122 1300 135.402 1206.73 457.189
195 0 102.221 13.0502 1334 139.106 1205.04 455.564
196 0 104.191 13.3697 1393 139.159 1206.4 453.95
197 1 55.1659 11.6558 643 133.257 1207.4 478.477
198 0 57.1432 12.1449 694 135.425 1207.31 476.922
199 0 58.1049 12.3225 716 134.701 1207.95 476.644
200 0 59.1375 12.4963 739 131.049 1205.66 475.842
201 0 61.1295 12.2363 748 128.842 1206.4 475.306
202 0 61.0498 12.7437 778 130.843 1204.97 474.706
203 0 65.1846 12.6717 826 121.461 1205.41 473.297
204 0 66.0755 12.7884 845 127.922 1203.64 471.992
205 0 68.1171 12.8455 875 130.234 1204.59 470.791
206 0 71.2659 12.6568 902 131.612 1205.51 469.591
207 0 72.2354 12.75 921 130.103 1205.53 468.666
208 0 74.2234 13.136 975 132.354 1207.23 467.244
209 0 76.1709 13.5485 1032 129.999 1206.09 466.257
210 0 79.1619 13.0997 1037 132.508 1206.44 464.922
211 0 81.1171 13.536 1098 129.284 1207.38 463.999
212 0 85.16 12.9991 1107 134.865 1206.33 462.192
213 0 86.2109 13.3742 1153 129.807 1206.32 460.049
214 0 91.1804 13.2594 1209 132.487 1206.53 457.748
215 0 95.308 13.5875 1295 131.744 1205.64 456.371
216 0 98.1797 13.8827 1363 126.808 1205.86 454.457
217 0 100.39 14.2245 1428 125.519 1205.51 451.916
218 1 54.1461 11.9492 647 130.638 1205.95 476.175
219 0 55.3178 11.9672 662 135.693 1206.6 475.713
220 0 56.2977 12.7181 716 135.316 1205.17 474.51
221 0 56.2811 12.7574 718 129.582 1205.62 473.705
222 0 59.2849 13.2411 785 133.479 1206.26 472.659
223 0 60.2122 12.9874 782 135.778 1208.14 471.315
224 0 64.1805 12.6051 809 136.915 1208.67 470.345
225 0 65.1374 13.0647 851 133.603 1205.61 469.452
226 0 68.3073 13.1611 899 132.993 1207.08 467.546
227 0 69.1988 13.4106 928 134.039 1204.89 466.178
228 0 73.2903 12.9076 946 136.06 1207.47 465.865
229 0 74.2755 13.4365 998 135.922 1206.3 464.404
230 0 77.3043 13.3628 1033 140.57 1206.9 462.781
231 0 81.133 13.1389 1066 136.113 1207.83 461.692
232 0 83.2099 13.3999 1115 136.104 1206.33 459.43
233 0 86.1871 13.3083 1147 139.262 1207.63 458.292
234 0 87.2575 13.5461 1182 136.313 1206.43 456.976
235 0 92.1961 13.0374 1202 140.16 1204.88 455.07
236 0 95.2707 13.173 1255 138.869 1207.17 453.366
237 0 98.3067 12.9696 1275 143.703 1208.89 452.347
238 1 50.1589 11.7427 589 138.956 1208.39 474.761
239 0 51.1243 12.6163 645 133.744 1208.91 474.771
240 0 51.119 12.6959 649 132.789 1206.13 473.439
241 0 54.2193 12.4679 676 135.13 1207.73 473.311
242 0 55.1792 12.5047 690 130.739 1208.15 472.041
243 0 56.2244 12.6457 711 133.402 1208.99 471.194
244 0 56.126 12.8995 724 121.848 1209.13 470.715
245 0 60.0494 12.7229 764 129.478 1208.41 468.983
246 0 62.0757 12.9358 803 126.365 1207.19 467.989
247 0 63.115 13.2774 838 128.557 1207.11 467.721
248 0 67.3496 12.784 861 128.325 1207.67 465.924
249 0 69.1775 12.7787 884 127.824 1207.5 464.985
250 0 70.2297 13.0714 918 123.044 1208.91 464.296
251 0 73.3584 13.3591 980 127.989 1207.6 463.254
252 0 75.302 13.2666 999 124.448 1207.04 461.943
253 0 78.2618 13.0971 1025 126.055 1207.23 460.772
254 0 82.4531 12.8558 1060 126.579 1206.3 459.665
255 0 84.2158 13.1211 1105 124.623 1206.64 457.779
256 0 86.2312 13.2435 1142 125.565 1205.06 456.005
257 0 90.2002 13.1264 1184 113.818 1205.93 454.799
258 1 47.0364 11.3529 534 119.59 1203.68 476.335
259 0 48.0212 12.2654 589 125.039 1205.16 475.321
260 0 48.1576 12.6875 611 127.676 1206.84 474.651
261 0 51.0557 11.9477 610 132.866 1208.58 475.246
262 0 52.0205 12.1491 632 136.579 1208.12 474.622
263 0 52.0313 13.0306 678 129.842 1209.31 473.49
264 0 55.0141 12.3786 681 135.648 1207.66 472.959
265 0 57.0505 12.3049 702 134.493 1210.9 472.323
266 0 56.1238 12.9891 729 132.007 1206.23 471.207
267 0 58.1159 12.7848 743 135.567 1206.47 470.506
268 0 59.06 13.2746 784 135 1209.18 469.348
269 0 63.0402 12.9124 814 132.281 1207.43 468.71
270 0 64.0512 13.0052 833 130.658 1206.99 467.947
271 0 66.0977 13.2682 877 128.704 1207.84 466.233
272 0 68.0911 13.4085 913 127.859 1208.54 465.969
273 0 70.2886 13.5015 949 129.018 1208.65 464.658
274 0 72.2263 13.6931 989 136.386 1208.53 463.664
275 0 74.195 13.4915 1001 130.19 1207.05 462.653
276 0 76.3147 13.8768 1059 135.961 1208.95 461.806
277 0 78.1558 13.8825 1085 135.023 1207.84 460.837
278 0 81.2556 13.8452 1125 132.796 1209.18 459.476
279 0 84.3828 13.9957 1181 133.64 1209.27 458.592
280 0 85.314 14.347 1224 134.398 1207.97 456.905
281 0 89.4917 13.6549 1222 130.862 1207.42 456.562
282 0 91.3445 13.98 1277 140.636 1206.39 455.324
283 0 95.4281 14.0105 1337 138.353 1204.89 453.524
284 0 98.3231 13.9845 1375 139.105 1207.98 452.126
285 0 101.418 14.1198 1432 136.062 1207.98 449.872
286 1 50.3036 11.7288 590 137.231 1209.17 477.3
287 0 51.3032 12.2994 631 138.076 1206.94 476.433
288 0 52.2063 12.6613 661 130.348 1208.35 475.794
289 0 54.0745 12.6307 683 129.047 1207.77 475.565
290 0 54.1588 12.7957 693 127.495 1205.86 474.615
291 0 57.1499 12.9659 741 129.391 1207.97 473.814
292 0 60.3384 12.6122 761 127.426 1208.24 472.803
293 0 61.2199 12.8553 787 128.296 1208.45 471.546
294 0 63.2001 12.9588 819 126.095 1207.79 470.908
295 0 63.2726 12.9914 822 128.978 1208.47 470.532
296 0 66.4565 13.1665 875 125.119 1207.37 469.235
297 0 68.3324 13.7124 937 124.448 1208.95 467.616
298 0 71.2885 13.0316 929 127.119 1210.31 466.509
299 0 73.3398 13.2397 971 122.846 1208.57 465.344
300 0 75.3789 13.6112 1026 121.221 1208.19 463.808
301 0 77.2102 13.4568 1039 125.455 1206.09 462.487
302 0 82.2818 13.3808 1101 120.523 1204.78 460.1
303 0 82.2466 13.2407 1089 126.888 1206.73 460.154
304 0 85.351 13.0871 1117 127.652 1206.49 459.104
305 0 89.435 13.4958 1207 121.591 1204.75 455.264
306 0 92.3454 13.6119 1257 127.177 1205.15 453.814
307 0 94.3235 13.6339 1286 115.841 1204.64 452.586
308 0 96.2859 13.3976 1290 123.929 1205.29 451.533
309 0 100.248 13.5663 1360 122.903 1203.71 449.646
310 0 104.32 13.4777 1406 118.325 1204.51 447.746
311 1 57.1077 12.2225 698 118.086 1207.72 472.436
312 0 57.101 12.5917 719 118.954 1206.86 471.551
313 0 60.1562 12.7501 767 117.625 1206.71 470.544
314 0 61.0957 12.9305 790 117.954 1207.88 470.895
315 0 64.0629 12.7219 815 117.238 1206.83 470.293
316 0 68.3107 12.7359 870 115.982 1204.07 468.178
317 0 70.4518 12.505 881 115.535 1204.55 466.906
318 0 73.2866 12.7445 934 114.762 1203.73 465.649
319 0 75.3586 12.6595 954 113.131 1205.56 464.241
320 0 79.4066 12.2912 976 112.611 1204.86 462.365
321 0 80.3133 12.7003 1020 117.195 1205.92 461.399
322 0 83.3203 12.65 1054 117.234 1204.93 459.615
323 0 87.424 12.365 1081 117.507 1204.66 457.895
324 0 89.2012 12.3653 1103 114.073 1206.26 456.631
325 1 47.1464 11.0719 522 110.211 1204.52 476.531
326 0 47.1346 11.9445 563 112.373 1206.21 476.156
327 0 49.1324 11.9066 585 112.969 1206.11 474.923
328 0 51.2008 11.992 614 112.419 1205.13 474.425
329 0 52.1653 11.962 624 116.704 1205.57 472.742
330 0 52.105 12.3021 641 111.164 1206.45 472.635
331 0 55.12 11.9195 657 113.583 1205.9 472.215
332 0 56.1213 12.2413 687 116.023 1207.55 470.917
333 0 57.2024 12.8141 733 115.003 1207.95 470.041
334 0 58.2807 12.4569 726 117.058 1207.75 469.406
335 0 62.0914 12.4172 771 114.418 1206.76 467.826
336 0 62.1981 12.3476 768 111.716 1207.12 467.137
337 0 65.1021 12.0119 782 113.581 1207.26 466.633
338 0 68.0665 12.4143 845 121.183 1208.38 464.626
339 0 68.0665 12.4143 845 150.873 1209.38 464.626
340 0 71.0834 12.3235 876 121.917 1211.08 462.26
341 0 74.1017 12.2804 910 127.118 1209.4 461.646
342 1 40.0249 9.89383 396 123.823 1207.84 478.303
343 0 42.026 9.97001 419 131.902 1208.55 478.15
344 0 44.055 10.8047 476 127.107 1211.21 477.391
345 0 45.0124 11.4413 515 129.726 1210.1 476.509
346 0 46.0319 11.492 529 131.459 1211.73 476.068
347 0 47.0694 11.8336 557 129.833 1210.97 475.032
348 0 49.0173 12.0366 590 138.52 1209.43 473.941
349 0 48.0749 12.3765 595 139.553 1210.6 473.625
350 0 51.0676 12.2191 624 135.046 1209.42 472.913
351 0 52.0677 12.4453 648 137.131 1209.89 472.077
352 0 53.1493 13.1328 698 143.688 1210.27 471.663
353 0 56.0415 12.4729 699 144.89 1211.42 470.514
354 0 57.1086 12.52 715 148.552 1209.18 469.881
355 0 57.1028 12.9941 742 147.92 1207.44 469.377
356 0 59.117 13.1096 775 143.56 1208.85 468.888
357 0 61.1058 12.912 789 145.776 1207.96 468.189
358 0 63.0813 13.1418 829 148.807 1209.21 467.437
359 0 64.0562 13.3008 852 149.954 1207.56 465.994
360 0 67.0688 12.5394 841 150.73 1209.37 465.403
361 0 68.0857 12.8514 875 151.022 1208.04 464.896
362 0 71.1771 13.0941 932 149.582 1207.45 463.662
363 0 72.1076 13.355 963 153.512 1208.31 462.382
364 0 74.2118 13.0976 972 146.321 1207.86 460.701
365 0 77.1154 13.3825 1032 138.663 1209.74 459.529
366 0 80.2078 13.2281 1061 147.266 1209.29 457.783
367 1 43.1065 11.0656 477 140.518 1206.49 476.518
368 0 44.1677 11.7507 519 145.008 1209.2 476.204
369 0 46.1286 12.3784 571 143.208 1208.71 475.27
370 0 46.0188 12.8209 590 137.48 1208.72 474.919
371 0 49.037 12.5823 617 15.9903 1210.45 473.945
372 0 51.066 12.4153 634 136.692 1208.86 474.014
373 0 51.0314 12.7764 652 137.966 1209.56 472.532
374 0 54.0405 12.8792 696 134.947 1207.01 471.79
375 0 55.0624 12.5131 689 133.917 1209.65 471.57
376 0 56.0867 12.5163 702 131.491 1209.35 470.484
377 0 58.1487 13.0183 757 129.299 1206.73 469.839
378 0 59.0985 12.5892 744 134.905 1207.33 469.516
379 0 60.1912 13.0916 788 131.838 1207.41 468.713
380 0 62.0819 13.2245 821 128.166 1206.7 468.172
381 0 62.0491 13.0381 809 129.582 1208.42 467.29
382 0 64.2102 12.973 833 127.168 1210.07 465.795
383 0 67.1612 13.1921 886 126.686 1206.56 464.08
384 0 69.0516 13.3378 921 127.063 1206.52 463.345
385 0 73.0707 13.0558 954 128.803 1206.96 461.623
386 0 75.1293 13.2571 996 123.831 1207.86 461.126
387 0 79.0749 13.2533 1048 118.749 1206.3 458.802
388 0 82.1026 13.1421 1079 122.835 1207.76 458.041
389 0 84.1441 12.7163 1070 116.564 1207.18 457.047
390 0 86.2287 13.1859 1137 121.181 1206.28 454.63
391 0 90.1593 13.1989 1190 117.706 1206.4 454.454
392 1 47.1287 11.7126 552 119.893 1207.26 474.089
393 0 47.0998 12.3992 584 113.813 1206.52 473.194
394 0 50.1953 13.2084 663 108.178 1209.35 471.968
395 0 50.1953 13.2084 663 149.192 1212.35 471.968
396 0 54.0834 12.5547 679 115.895 1209.89 471.012
397 0 56.0149 12.5502 703 114.556 1210.92 470.713
398 0 57.0475 12.9015 736 111.11 1207.5 469.572
399 0 57.0469 12.9893 741 111.692 1207.51 470.098
400 0 59.0715 13.1874 779 111.594 1208.47 468.734
401 0 61.102 13.3547 816 110.699 1207.77 468.015
402 0 64.0579 13.4097 859 109.82 1206.8 466.985
403 0 65.0259 13.2101 859 113.836 1208.35 467.349
404 0 67.1048 13.2032 886 114.074 1207.56 466.19
405 0 69.0822 13.1438 908 117.332 1205.84 465.713
406 0 71.1465 13.3246 948 120.012 1208.61 463.954
407 0 72.1282 13.7949 995 113.598 1207.49 463.259
408 0 76.1705 13.4698 1026 117.911 1207.7 462.509
409 0 76.0934 13.7594 1047 118.764 1208.45 461.684
410 0 80.1374 13.5892 1089 120.493 1209.36 459.702
411 0 83.1496 13.6621 1136 120.277 1210.36 459.111
412 0 85.1397 13.7069 1167 120.443 1210.66 458.075
413 0 87.1932 13.8658 1209 124.494 1209.82 456.566
414 0 89.1523 13.6844 1220 127.464 1210.5 455.425
415 0 93.1547 13.9016 1295 121.152 1207.76 453.707
416 0 95.2806 14.2841 1361 125.205 1207.37 452.736
417 0 99.1457 14.4333 1431 118.855 1208.59 450.575
418 0 102.17 13.9865 1429 126.685 1210.26 449.859
419 0 106.18 13.9197 1478 121.781 1207.91 448.808
420 0 109.193 14.076 1537 124.897 1209.7 446.126
421 0 112.2 14.5098 1628 111.635 1208.12 444.647
422 0 116.148 14.4643 1680 128.362 1206.84 442.817
423 0 120.29 13.908 1673 127.117 1208.8 440.432
424 0 125.167 14.0053 1753 122.532 1206.69 439.101
425 1 67.0629 12.7045 852 130.363 1208.42 467.734
426 0 69.0853 13.3458 922 125.495 1205.39 465.764
427 0 72.0863 13.248 955 124.869 1209.55 464.85
428 0 75.0872 12.5854 945 129.279 1209.94 463.667
429 0 77.0242 13.3205 1026 128.965 1211.16 462.402
430 0 79.1496 13.3039 1053 130.744 1205.92 461.614
431 0 79.1496 13.3039 1053 173.915 1200.92 461.614
432 0 84.055 13.4436 1130 127.227 1209.53 458.931
433 0 88.1292 13.7525 1212 131.939 1208.99 456.256
434 0 91.1137 13.6423 1243 131.743 1208.11 455.032
435 0 93.1878 13.8108 1287 129.228 1208.65 454.278
436 0 95.1462 13.9049 1323 129.813 1209.36 452.379
437 0 100.144 13.6104 1363 130.566 1210.16 450.32
438 0 103.176 13.3946 1382 136.271 1209.33 448.991
439 0 108.244 13.4049 1451 132.697 1209.92 446.893
440 1 55.0599 12.1686 670 133.313 1208.96 473.561
441 0 57.1252 12.7439 728 125.89 1209.01 471.784
442 0 59.1307 12.5146 740 131.761 1209.36 470.554
443 0 61.103 12.7326 778 131.063 1210.06 470.405
444 0 63.123 12.6578 799 130.548 1210.47 469.119
445 0 64.1083 13.1028 840 137.573 1210.33 467.781
446 0 67.1602 12.7754 858 135.974 1208.12 466.444
447 0 68.4219 13.1829 902 136.063 1208.03 465.041
448 0 69.0752 13.174 910 141.689 1206.3 463.507
449 0 73.2768 13.3876 981 132.963 1209.37 462.692
450 0 76.4646 13.091 1001 135.993 1209.47 461.56
451 0 78.3592 13.3616 1047 142.14 1207.26 459.063
452 0 81.3169 13.5027 1098 146.603 1208.29 457.723
453 0 84.31 13.2725 1119 143.829 1206.51 456.593
454 0 85.358 13.789 1177 145.37 1208.6 454.786
455 0 89.4161 13.2974 1189 144.947 1207.68 452.304
456 0 93.2001 13.4442 1253 140.952 1208.88 450.595
457 0 95.2401 13.1772 1255 145.595 1209.51 449.905
458 1 46.0441 11.6193 535 145.129 1208.05 474.622
459 0 47.0899 11.5099 542 143.004 1206.5 473.157
460 0 50.0732 12.3819 620 142.882 1208.61 472.182
461 0 51.3366 12.4278 638 139.555 1208.12 471.842
462 0 51.1632 12.4308 636 141.516 1208.64 470.86
463 0 54.1585 12.7034 688 137.551 1207.69 469.923
464 0 55.085 12.6713 698 145.054 1207.17 469.583
465 0 57.0994 12.8723 735 143.09 1208.68 468.622
466 0 57.0994 12.8723 735 152.83 1210.68 468.622
467 0 60.029 13.2269 794 138.748 1208.74 467.064
468 0 62.0347 13.5892 843 137.572 1208.67 466.418
469 0 64.1092 13.321 854 143.925 1209.57 465.4
470 0 64.0758 13.7493 881 138.168 1208.42 463.414
471 0 67.1302 13.4962 906 137.522 1207.94 462.183
472 0 68.127 13.3134 907 141.585 1208.66 461.826
473 0 72.1756 13.5641 979 140.708 1211.65 460.248
474 0 73.2368 13.313 975 140.421 1210.4 459.883
475 0 76.0951 13.47 1025 138.513 1207 458.224
476 0 79.2283 13.5179 1071 136.456 1209.28 456.505
477 0 82.3272 13.3856 1102 138.536 1209.99 455.077
478 1 41.2566 11.4164 471 140.992 1208.44 475.83
479 0 44.1175 11.5147 508 135.606 1208.81 474.726
480 0 44.1346 12.4392 549 135.22 1206.13 473.929
481 0 45.0447 12.0325 542 139.948 1206.62 473.806
482 0 45.1464 12.6034 569 131.525 1206.94 473.114
483 0 46.1215 12.6405 583 136.218 1207.74 472.415
484 0 47.1684 13.2292 624 132.853 1207.8 471.55
485 0 51.1436 12.7093 650 132.24 1207.04 470.472
486 0 52.1332 12.8901 672 131.312 1208.28 470.33
487 0 54.2416 12.8684 698 134.917 1207.49 469.838
488 0 56.1779 12.8698 723 139.477 1207.26 467.862
489 0 57.1439 13.5098 772 136.883 1206.52 466.999
490 0 57.1077 13.5884 776 133.831 1207.13 466.34
491 0 59.1123 13.7196 811 137.626 1208.37 465.61
492 0 61.0753 13.0658 798 139.178 1207.68 465.287
493 0 63.0713 13.6195 859 137.32 1209.15 463.565
494 0 65.0976 13.7179 893 137.261 1208.68 462.478
495 0 68.0845 13.7182 934 136.843 1207.81 461.199
496 0 69.0999 13.864 958 135.519 1206.26 460.064
497 0 72.2462 13.8554 1001 134.628 1206.84 459.423
498 0 74.2842 14.2561 1059 134.771 1206.23 457.93
499 0 78.1463 13.4107 1048 134.529 1206.14 456.263
500 0 80.1199 14.0415 1125 133.763 1205.95 454.798
501 0 83.1169 14.1127 1173 123.891 1206.47 453.876
502 0 86.2172 13.466 1161 127.842 1206.63 452.369
503 0 88.1901 13.8224 1219 132.336 1207.52 450.916
504 0 92.1613 13.9755 1288 130.223 1208 449.255
505 0 95.154 13.3363 1269 127.556 1208.81 448.151
506 0 98.1298 13.4923 1324 127.199 1208.71 446.554
507 1 50.0623 11.3858 570 131.495 1208.29 469.309
508 0 51.2016 12.2652 628 127.146 1206.41 468.97
509 0 56.2426 12.4639 701 127.442 1206.18 467.016
510 0 57.067 12.5466 716 120.32 1206.11 466.669
511 0 60.0835 12.6823 762 124.928 1206.69 465.453
512 0 61.1106 12.5019 764 125.789 1206.87 464.603
513 0 63.0787 12.8887 813 123.717 1207.54 463.586
514 0 64.2722 12.8205 824 126.03 1206.13 462.414
515 0 68.2244 12.7081 867 129.281 1207.15 461.211
516 0 70.1636 12.9127 906 123.424 1207.72 460.125
517 0 72.2056 12.6029 910 124.08 1208.14 459.5
518 0 75.3056 12.9738 977 121.84 1209.55 458.071
519 0 78.2478 12.5626 983 134.218 1208.24 457.353
520 0 81.3566 12.4145 1010 128.64 1207.54 455.369
521 1 42.1689 11.0034 464 68.9547 1207.16 474.237
522 0 43.0655 11.7031 504 130.296 1206.85 473.538
523 0 46.1244 11.8375 546 130.288 1207.11 473.136
524 0 45.1331 12.6515 571 130.03 1208.34 472.758
525 0 48.1818 12.6396 609 126.498 1208.54 471.7
526 0 49.179 12.546 617 126.771 1208.96 471.24
527 0 52.1104 12.8573 670 125.509 1206.46 470.994
528 0 53.1708 12.8266 682 128.594 1206.11 470.268
529 0 54.163 12.924 700 128.03 1205.26 469.877
530 0 56.3063 12.6274 711 132.007 1205.69 468.906
531 0 58.2315 13.0342 759 126.87 1207.08 468.513
532 0 59.1364 13.2406 783 131.075 1206.44 468.231
533 0 59.1004 13.3163 787 139.376 1206.49 467.812
534 0 62.1493 13.4193 834 134.186 1207.63 467.376
535 0 63.3033 13.2694 840 132.382 1204.84 466.307
536 0 67.1761 12.6384 849 130.151 1204.27 465.245
537 0 68.1322 13.1949 899 136.171 1205.78 464.477
538 0 69.1661 13.764 952 128.299 1206.32 463.288
539 0 73.2497 13.2151 968 135.907 1205.41 462.675
540 0 75.2485 13.7544 1035 135.01 1207.61 460.811
541 0 79.2534 13.5641 1075 138.176 1207.53 459.246
542 0 82.2554 13.1785 1084 133.749 1208.29 458.109
543 0 85.1944 13.076 1114 126.004 1207.96 456.041
544 0 88.1386 13.6149 1200 131.489 1210.15 454.272
545 1 46.09 11.8681 547 129.291 1210.04 474.408
546 0 47.0399 12.4788 587 134.33 1209.33 474.192
547 0 50.0989 12.3156 617 135.028 1208.8 473.415
548 0 52.0927 12.4202 647 140.716 1210.67 472.785
549 0 53.1601 12.6223 671 136.39 1210.4 471.654
550 0 55.0843 12.6715 698 142.62 1209.32 470.852
551 0 55.1537 12.6556 698 139.968 1208.15 469.868
552 0 57.147 13.0716 747 134.505 1206.28 470.056
553 0 58.0561 13.6248 791 135.3 1206.22 469.054
554 0 61.1381 12.6108 771 137.278 1207.37 468.184
555 0 62.1172 13.2331 822 143.223 1209.42 467
556 0 62.2117 13.2612 825 141.928 1208.15 466.933
557 0 66.251 13.0715 866 145.453 1210.21 465.443
558 0 67.295 12.8241 863 141.121 1210.03 464.839
559 0 70.3399 13.5769 955 146.109 1210.84 463.29
560 0 71.2006 13.6516 972 138.306 1207.94 462.514
561 0 75.3376 13.5789 1023 148.328 1208.93 460.977
562 0 75.319 13.7947 1039 146.514 1207.72 459.52
563 0 80.1582 13.4609 1079 139.271 1208.89 457.737
564 0 83.2616 13.4516 1120 143.611 1208.96 457.001
565 0 85.1573 13.5396 1153 147.021 1210.27 455.276
566 0 87.1893 13.6255 1188 138.417 1207.02 453.901
567 1 48.116 12.3244 593 143.349 1208.48 473.668
568 0 50.1325 12.7462 639 148.326 1206.53 472.864
569 0 51.0861 12.9194 660 144.75 1207.93 473.105
570 0 51.0829 13.6249 696 151.777 1206.18 472.266
571 0 53.1079 13.7268 729 149.715 1209.05 470.92
572 0 56.1496 13.375 751 144.498 1208.23 470.166
573 0 57.1224 13.0597 746 148.835 1210.74 469.428
574 0 58.0599 13.5033 784 143.765 1209.23 468.614
575 0 60.0657 13.5685 815 142.362 1209.63 467.734
576 0 61.0914 13.7172 838 143.934 1209.82 466.971
577 0 63.0567 14.0667 887 149.089 1208.97 465.98
578 0 65.0812 13.5062 879 137.113 1208.44 465.069
579 0 65.0613 14.0944 917 144.691 1207.76 464.058
580 0 68.0821 14.0419 956 138.635 1206.39 463.326
581 0 71.0459 13.259 942 142.464 1207.17 462.431
582 0 72.1035 13.647 984 134.802 1208.15 461.425
583 0 76.2462 13.6138 1038 145.88 1209.1 459.438
584 0 79.2432 13.4144 1063 142.386 1209.73 457.596
585 0 82.1416 13.7933 1133 135.193 1206.99 456.303
586 0 85.2729 13.6268 1162 136.958 1207.38 454.162
587 0 88.1648 13.5428 1194 131.746 1207.38 452.196
588 0 90.2147 13.8226 1247 137.346 1208.16 451.527
589 1 44.0719 12.2527 540 138.283 1207.97 472.996
590 0 47.0263 12.9289 608 135.485 1208.85 472.227
591 0 48.1123 12.8242 617 134.95 1208.5 471.758
592 0 50.0521 11.9675 599 136.038 1209 471.399
593 0 52.0522 12.8525 669 137.202 1208.86 469.948
594 0 54.0737 12.483 675 132.127 1209.1 469.239
595 0 55.0399 12.8816 709 130.467 1208.48 468.331
596 0 56.0993 12.6561 710 135.672 1208.3 467.621
597 0 55.0969 13.7213 756 137.819 1208.61 466.671
598 0 61.1583 13.1299 803 135.194 1210.54 465.533
599 0 63.1103 13.4843 851 132.49 1208.17 464.18
600 0 65.2131 13.1875 860 134.913 1210.28 463.271
601 0 68.2338 13.3805 913 130.935 1209.32 461.683
602 0 70.172 13.2104 927 133.823 1209.68 460.408
603 0 73.1138 13.5132 988 131.48 1208.39 459.928
604 0 75.1779 13.9802 1051 135.263 1208.22 457.714
605 0 77.2384 13.426 1037 125.124 1207.16 457.103
606 0 81.2116 13.7788 1119 133.029 1205.22 455.572
607 0 84.079 13.749 1156 132.403 1207.73 453.662
608 1 42.0531 11.6519 490 134.263 1207.49 474.106
609 0 45.159 12.0463 544 135.632 1208.22 473.458
610 0 47.0857 12.1268 571 132.023 1207.06 472.629
611 0 45.0398 13.4548 606 131.888 1207.04 472.272
612 0 51.0164 12.4862 637 134.713 1206.59 471.763
613 0 50.0891 13.2164 662 130.518 1207 470.647
614 0 52.0459 13.1615 685 137.482 1207.22 469.965
615 0 54.0583 12.7455 689 135.148 1207.98 468.884
616 0 55.0384 13.0273 717 129.731 1208.03 468.238
617 0 57.1099 13.08 747 141.088 1207.54 467.714
618 0 59.077 12.8307 758 140.111 1205.91 466.623
619 0 61.0633 13.2486 809 137.977 1206.28 465.998
620 0 63.0797 13.2531 836 139.135 1207.44 465.077
621 0 66.0369 13.6287 900 136.261 1206.2 463.657
622 0 68.0295 13.112 892 139.371 1206.52 462.6
623 0 68.0856 13.3361 908 136.263 1206.82 461.152
624 0 72.1033 13.4668 971 135.269 1208.28 460.181
625 0 74.0935 13.5504 1004 134.737 1206.33 458.949
626 0 77.0933 12.9713 1000 138.31 1206.54 458.071
627 0 80.0832 13.2737 1063 136.167 1205.34 456.18
628 0 83.1332 13.2438 1101 133.64 1205.79 454.719
629 0 85.1659 13.0921 1115 137.562 1208.32 453.153
630 1 45.0826 11.6896 527 136.304 1207.97 473.806
631 0 47.1768 12.4002 585 136.308 1207.21 472.762
632 0 47.1133 12.99 612 130.214 1208.07 471.727
633 0 49.1106 12.4413 611 132.475 1207.82 471.267
634 0 49.1258 13.2517 651 133.816 1207.98 470.78
635 0 51.1772 13.0722 669 133.221 1208.91 469.303
636 0 53.2354 12.7922 681 132.145 1208.9 468.769
637 0 55.0959 12.7959 705 136.362 1208.35 468.468
638 0 55.1327 13.2408 730 124.514 1206.91 468.322
639 0 57.1331 12.8822 736 132.693 1206.82 467.101
640 0 59.1375 13.4433 795 134.928 1208.09 466.585
641 0 60.0972 13.3617 803 127.593 1207.01 465.171
642 0 64.0957 13.1054 840 130.881 1208.18 464.626
643 0 65.1917 13.2072 861 128.268 1208.13 463.893
644 0 67.1188 13.1558 883 134.513 1208.59 462.994
645 0 68.0839 13.4099 913 132.795 1208.67 462.668
646 0 72.2034 13.0465 942 133.31 1207.83 461.436
647 0 73.2451 13.0248 954 135.831 1209.41 460.355
648 0 76.0444 13.0845 995 131.617 1209.34 459.202
649 0 80.0733 13.1005 1049 131.934 1208.57 457.655
650 0 83.0798 12.9634 1077 131.61 1209.11 456.898
651 0 85.0619 12.6849 1079 134.338 1209.85 455.908
652 0 87.0864 13.412 1168 134.326 1209.05 454.574
653 1 47.0731 12.0026 565 133.12 1208.89 474.142
654 0 48.1428 12.4006 597 133.858 1208.98 473.792
655 0 51.1358 12.7895 654 136.032 1209.21 472.768
656 0 52.1932 12.8369 670 134.102 1209.19 471.998
657 0 54.1184 13.2487 717 134.834 1209.79 471.233
658 0 55.0885 13.4874 743 136.806 1208.56 470.744
659 0 57.0945 13.5915 776 136.964 1210.68 470.317
660 0 59.1124 13.3136 787 144.915 1209.83 468.963
661 0 60.0817 14.164 851 142.622 1208.61 468.915
662 0 61.0752 14.0646 859 143.648 1211.29 468.356
663 0 64.0594 14.1899 909 140.75 1208.9 467.282
664 0 66.2031 13.9268 922 146.011 1207.62 466.483
665 0 67.0551 13.9438 935 143.867 1208.69 465.57
666 0 70.0793 13.8985 974 147.41 1210.19 464.861
667 0 70.0791 14.7976 1037 134.909 1208.34 464.083
668 0 70.0791 14.7976 1037 174.349 1206.34 464.083
669 0 76.1106 14.387 1095 140.888 1209.15 461.193
670 0 79.1056 14.5122 1148 146.754 1208.51 459.939
671 0 82.146 14.6203 1201 140.434 1207.19 458.408
672 0 85.0735 14.5521 1238 138.267 1208.53 456.901
673 0 87.0725 14.241 1240 142.472 1207.45 456.024
674 0 90.0766 14.2656 1285 142.279 1208.92 454.822
675 0 92.1324 14.7722 1361 141.86 1208.06 452.367
676 0 96.2211 14.2173 1368 145.677 1209.02 450.377
677 0 99.0262 14.4103 1427 148.786 1209.44 448.716
678 0 103.202 14.2052 1466 140.845 1208.66 447.366
679 1 55.1439 12.2588 676 146.34 1207.62 471.265
680 0 56.1451 13.0376 732 147.88 1206.57 470.504
681 0 58.0906 13.3757 777 140.327 1206.28 469.555
682 0 59.0282 13.9425 823 140.244 1207.66 468.844
683 0 60.0618 13.536 813 132.598 1207.07 468.023
684 0 63.0443 13.5143 852 140.547 1208.92 467.012
685 0 65.0638 13.8941 904 142.269 1208.55 466.07
686 0 67.1112 13.6937 919 139.876 1210.05 465.174
687 0 69.034 13.9786 965 136.596 1207.67 464.258
688 0 71.0753 14.1118 1003 135.258 1209.18 463.212
689 0 73.1371 14.1105 1032 135.763 1209.44 461.951
690 0 76.0994 14.2051 1081 134.179 1206.48 460.76
691 0 79.1467 13.9993 1108 136.333 1208.42 459.41
692 0 80.1174 14.0544 1126 145.057 1210.59 458.202
693 0 83.0665 14.1333 1174 135.242 1209.8 456.461
694 0 86.0796 13.9406 1200 141.661 1208.28 455.362
695 0 89.1598 13.7169 1223 140.07 1208.07 453.908
696 0 93.0695 14.3119 1332 138.102 1209.18 451.615
697 0 96.0784 14.1031 1355 138.751 1210.09 450.193
698 1 46.0467 11.7924 543 138.21 1209.42 473.641
699 0 49.1311 12.1105 595 143.071 1209.67 472.845
700 0 50.1775 12.5355 629 139.358 1209.11 472.005
701 0 51.0603 12.7692 652 141.594 1208.33 471.204
702 0 52.0936 12.3816 645 145.55 1210 471.527
703 0 54.1325 12.8204 694 140.958 1208.87 469.52
704 0 56.0965 12.532 703 144.205 1209.61 468.721
705 0 59.1194 12.6354 747 143.546 1209.31 467.616
706 0 60.0602 12.6373 759 145.638 1211.81 466.386
707 0 63.2068 12.6727 801 140.418 1209.75 465.519
708 0 64.1982 13.0066 835 143.49 1210.9 463.97
709 0 66.1416 13.078 865 136.464 1208.94 463.106
710 0 69.1555 12.9129 893 144.112 1209.73 462.539
711 0 70.1085 13.0797 917 149.168 1209.53 461.526
712 0 72.2399 12.9984 939 149.556 1210.26 460.523
713 0 74.1074 13.305 986 145.101 1210.43 458.739
714 0 77.0781 12.9609 999 147.866 1210.17 457.289
715 0 80.3693 13.1891 1060 152.562 1210.19 455.666
716 0 83.2425 13.3465 1111 155.119 1210.01 454.134
717 0 86.2806 12.8534 1109 152.451 1209.13 452.642
718 0 87.1454 13.7127 1195 144.397 1211.06 452.11
719 0 92.1891 13.5049 1245 143.772 1208.49 450.012
720 0 96.1554 12.9374 1244 153.719 1210.75 448.654
721 0 98.1452 13.3883 1314 148.546 1207.15 446.756
722 1 56.063 11.2909 633 140.64 1208.05 468.602
723 0 55.0734 12.093 666 140.309 1208.63 468.339
724 0 58.1474 12.4683 725 148.926 1210.8 467.208
725 0 61.0975 12.3573 755 148.142 1211.63 465.869
726 0 63.2044 12.5466 793 144.415 1209.27 465.062
727 0 65.1651 12.829 836 141.907 1210.14 464.494
728 0 68.1231 12.404 845 142.428 1211.36 463.226
729 0 69.1031 13.1253 907 142.385 1210.76 461.87
730 0 71.19 13.162 937 136.33 1209.7 460.898
731 0 74.134 13.0709 969 140.013 1210.99 460.121
732 0 77.1506 13.2468 1022 145.939 1211.94 458.562
733 0 77.0916 13.1402 1013 142.585 1212.19 458.511
734 0 79.1195 13.6755 1082 143.331 1211.62 457.015
735 0 84.0562 13.491 1134 144.132 1210.75 455.458
736 0 86.0937 13.4969 1162 140.835 1210.49 454.852
737 0 89.1489 13.7411 1225 141.584 1210.43 452.641
738 0 92.075 13.7388 1265 142.209 1210.14 451.333
739 0 95.3032 13.3259 1270 148.89 1210.1 449.059
740 1 49.0355 12.6847 622 144.212 1209.55 471.839
741 0 53.0764 12.5668 667 144.216 1211.26 470.958
742 0 53.089 12.6768 673 148.159 1209.35 470.538
743 0 55.1888 12.6656 699 144.021 1209.48 469.697
744 0 57.1802 12.8191 733 144.007 1211.73 468.162
745 0 56.0664 14.1083 791 138.171 1209.75 467.968
746 0 59.0763 13.728 811 140.887 1210.65 466.427
747 0 63.0834 13.2999 839 131.648 1210.83 465.532
748 0 64.1197 13.1473 843 133.563 1211.38 465.255
749 0 65.0748 13.5383 881 135.588 1210.05 464.364
750 0 68.0761 13.6759 931 130.697 1211.29 463.416
751 0 70.0954 13.8668 972 131.196 1211.61 462.404
752 0 72.1902 13.9908 1010 127.487 1209.43 461.785
753 0 75.1188 13.9113 1045 128.582 1210.55 460.068
754 0 78.1281 13.6699 1068 128.733 1209.84 458.864
755 0 80.165 13.9837 1121 128.007 1210.83 457.619
756 0 83.1274 13.6898 1138 131.567 1209.8 456.36
757 0 87.0665 13.8055 1202 124.936 1209.48 454.865
758 0 90.1489 13.389 1207 127.147 1210.61 454.25
759 0 93.1686 14.082 1312 127.466 1209.92 451.471
760 1 48.0717 12.8558 618 125.586 1210.23 472.706
761 0 51.141 12.6122 645 131.431 1209.61 471.808
762 0 51.0287 13.3062 679 133.745 1210.37 471.015
763 0 53.0507 13.1949 700 129.721 1212.36 470.696
764 0 55.0384 13.5178 744 130.591 1213.4 469.733
765 0 54.018 14.1434 764 137.788 1210.6 469.01
766 0 58.0257 13.4768 782 136.925 1209.56 468.373
767 0 60.0498 13.6886 822 129.899 1210.48 467.105
768 0 60.0467 14.2223 854 138.685 1210.21 466.246
769 0 62.0456 14.5054 900 136.962 1210.01 465.299
770 0 65.0915 14.1493 921 137.573 1210.53 464.744
771 0 67.045 14.7214 987 138.39 1211.76 463.421
772 0 69.1018 14.4714 1000 141.166 1213.09 462.587
773 0 71.0318 14.3035 1016 132.045 1213.09 461.862
774 0 73.0363 14.4175 1053 132.481 1214.45 460.785
775 0 75.0723 14.1997 1066 147.614 1212.73 460.45
776 0 79.0991 14.1721 1121 143.789 1211.18 458.75
777 0 81.2089 14.2965 1161 143.235 1210.21 457.741
778 0 83.1933 15.0853 1255 144.317 1212.57 455.84
779 0 86.0552 14.5604 1253 150.484 1212.34 455.195
780 0 89.1259 15.0012 1337 147.061 1211.98 453.863
781 0 92.1303 14.8051 1364 145.611 1211.98 452.633
782 0 95.1357 14.7474 1403 147.626 1209.84 451.228
783 0 97.152 14.6883 1427 150.742 1208.46 449.355
784 1 52.0927 13.4952 703 155.979 1210.71 471.549
785 0 52.0881 14.1683 738 161.47 1212.49 469.913
786 0 54.047 14.4319 780 152.719 1213 470.601
787 0 54.0772 14.6827 794 164.898 1213.54 469.547
788 0 56.0806 15.1746 851 156.362 1210.38 467.991
789 0 59.0259 14.8071 874 154.588 1209.93 467.882
790 0 61.0644 14.6239 893 159.27 1211.53 467.529
791 0 63.0837 14.5521 918 156.727 1210.02 466.675
792 0 66.0775 14.6797 970 156.03 1210.88 466.094
793 0 67.0862 14.8466 996 155.894 1209.88 464.356
794 0 68.0594 15.604 1062 148.438 1210.48 464.225
795 0 72.0988 14.9101 1075 143.372 1209.7 462.6
796 0 73.0888 14.9955 1096 148.432 1212.23 462.577
797 0 75.0991 15.0068 1127 156.149 1210.9 461.573
798 0 76.4082 15.4303 1179 151.295 1212.28 460.901
799 0 80.1869 15.2394 1222 142.547 1210.67 459.112
800 0 83.1192 15.3274 1274 139.769 1212.29 457.845
801 0 85.2523 15.2137 1297 141.346 1211.44 456.418
802 0 88.1185 15.0706 1328 147.068 1210.78 455.118
803 0 91.2189 14.953 1364 149.333 1208.96 453.609
804 0 95.1674 15.1417 1441 145.693 1209.65 451.867
805 0 96.2575 14.7833 1423 146.885 1208.31 451.729
806 0 100.334 14.8006 1485 137.562 1209.73 449.934
807 1 52.0937 13.7829 718 152.1 1208.79 473.369
808 0 55.107 14.118 778 146.717 1209.9 472.284
809 0 56.1318 14.3769 807 148.89 1209.52 471.582
810 0 57.0699 14.5611 831 146.699 1209.82 470.85
811 0 61.1371 14.2303 870 152.041 1209.27 469.718
812 0 62.0547 14.3744 892 150.783 1208.26 469.407
813 0 61.1083 14.8916 910 148.102 1209.79 468.369
814 0 66.0905 14.8887 984 147.592 1207.56 466.759
815 0 66.0561 14.7905 977 140.544 1210.34 466.644
816 0 69.3439 14.5939 1012 145.07 1210.36 466.124
817 0 72.2324 14.9517 1080 143.574 1209.02 465.139
818 0 75.1097 14.4988 1089 138.592 1210.99 463.976
819 0 77.1513 14.8798 1148 140.026 1209.02 462.658
820 0 80.1531 14.8715 1192 137.581 1209.46 461.445
821 0 84.0944 14.674 1234 137.578 1209.84 459.894
822 0 85.1772 14.464 1232 140.12 1210.73 458.413
823 0 88.1345 14.8977 1313 129.842 1210.19 457.329
824 0 90.1481 14.7424 1329 140.077 1209.71 456.074
825 0 93.2071 14.559 1357 137.846 1209.92 454.032
826 0 99.2404 15.3466 1523 129.205 1207.88 451.959
827 0 102.265 14.8731 1521 138.335 1207.87 450.076
828 0 106.231 14.8356 1576 140.412 1207.1 448.291
829 1 55.1329 13.9481 769 142.791 1209.92 471.649
830 0 57.0654 14.5798 832 134.24 1210.32 471.036
831 0 57.0876 15.1171 863 141.195 1210.3 469.444
832 0 61.3187 14.6448 898 135.01 1208.89 467.783
833 0 64.098 15.1643 972 140.265 1209.38 465.685
834 0 67.2465 14.6179 983 140.144 1208.6 464.065
835 0 70.1285 15.0296 1054 137.712 1210.58 462.12
836 0 70.2765 15.1829 1067 137.457 1211 461.109
837 0 73.225 15.1314 1108 110.268 1210.99 459.819
838 0 77.1597 15.1504 1169 135.011 1210.73 457.891
839 0 81.3391 14.4088 1172 138.37 1211.14 456.747
840 0 84.3102 14.8143 1249 138.939 1210.47 454.766
841 0 86.1607 14.647 1262 138.421 1210.67 454.121
842 0 90.5091 14.7499 1335 138.505 1209.45 452.098
843 0 93.2223 14.4493 1347 138.159 1212.47 451.722
844 0 96.177 15.5131 1492 133.769 1211.69 449.438
845 1 49.2995 13.4687 664 138.539 1210.6 471.72
846 0 50.0733 14.0195 702 134.637 1209.68 471.211
847 0 52.0977 14.1273 736 139.408 1209.91 469.821
848 0 54.11 13.9161 753 143.401 1207.77 468.764
849 0 54.2045 14.925 809 135.141 1208.58 468.178
850 0 58.1968 14.0042 815 139.814 1209.92 467.239
851 0 60.1706 14.6251 880 133.917 1209.46 466.13
852 0 62.2864 14.4976 903 139.091 1211.38 465.355
853 0 64.1038 15.3345 983 136.363 1208.87 464.307
854 0 67.1963 14.7478 991 142.834 1209.61 462.826
855 0 67.1963 14.7478 991 171.003 1210.61 462.826
856 0 71.0862 14.5739 1036 147.976 1210.38 460.606
857 0 74.0778 15.2137 1127 140.7 1209.09 459.468
858 0 77.0873 14.6198 1127 146.695 1210.53 457.74
859 0 80.1343 15.0622 1207 139.138 1211.31 456.313
860 0 82.1417 15.108 1241 139.171 1209.85 455.642
861 0 86.0888 14.9497 1287 142.859 1209.36 454.639
862 0 89.1314 14.8096 1320 147.692 1210.82 453.513
863 0 91.2854 15.698 1433 142.462 1210.68 451.027
864 0 94.1521 15.0289 1415 141.888 1209.92 449.337
865 0 99.184 14.9419 1482 140.766 1212.58 446.862
866 0 101.302 14.5605 1475 144.148 1210.3 445.744
867 0 105.232 14.9954 1578 132.474 1211.63 443.532
868 1 55.2254 13.3272 736 134.431 1212.51 469.308
869 0 56.2318 13.8712 780 129.842 1208.47 469.018
870 0 58.1995 13.952 812 126.962 1210.91 467.989
871 0 59.2054 14.4581 856 127.387 1209.12 466.562
872 0 62.1609 14.1085 877 130.465 1211.15 465.496
873 0 65.0545 14.557 947 121.814 1209.11 464.137
874 0 67.2074 14.7603 992 119.982 1211.13 462.516
875 0 67.2074 14.7603 992 166.462 1212.13 462.516
876 0 72.0368 14.2288 1025 127.086 1210.71 460.319
877 0 73.1448 13.9996 1024 126.48 1211.11 460.356
878 0 76.1282 14.2654 1086 128.251 1211 459.175
879 0 79.1576 14.3259 1134 126.746 1210.94 457.978
880 0 82.1516 14.5098 1192 124.763 1208.45 455.841
881 0 86.1132 14.69 1265 118.689 1209.03 454.323
882 0 89.3532 14.8624 1328 127.029 1209.5 453.901
883 0 91.1799 15.124 1379 123.884 1209.26 452.334
884 0 95.1075 14.552 1384 132.93 1210.66 450.079
885 0 98.1633 14.2823 1402 137.495 1208.67 448.873
886 1 47.1145 13.3505 629 135.083 1210.56 472.774
887 0 50.0868 13.6363 683 132.035 1211.15 471.691
888 0 51.1749 14.1475 724 132.286 1210.73 470.722
889 0 51.2594 14.4559 741 126.103 1210.74 470.005
890 0 53.2885 14.8625 792 135.591 1210.67 468.986
891 0 57.4007 13.972 802 138.783 1209.58 467.729
892 0 58.1484 14.5662 847 134.603 1208.82 465.825
893 0 62.2379 14.4124 897 134.532 1208.81 464.942
894 0 63.3468 14.7758 936 135.679 1210.85 463.762
895 0 65.3035 14.6087 954 138.893 1208.96 462.809
896 0 69.3377 14.3933 998 140.374 1213.25 460.897
897 0 71.2792 14.338 1022 145.194 1209.01 460.43
898 0 72.3277 14.4896 1048 146.094 1210.53 459.155
899 0 76.3491 14.604 1115 145.553 1207.55 457.639
900 0 77.1911 15.1961 1173 143.426 1208.44 456.646
901 0 81.2848 15.255 1240 146.364 1209.34 454.702
902 0 84.1727 15.3969 1296 136.806 1211.89 454.005
903 0 87.3083 15.5083 1354 144.65 1210.48 452.16
904 0 92.3874 15.0237 1388 146.542 1210.96 450.306
905 1 45.1759 14.3661 649 152.378 1209.83 471.413
906 0 45.1852 14.7615 667 142.855 1208.42 470.936
907 0 49.1483 14.2223 699 147.625 1208.56 470.076
908 0 52.2008 14.6932 767 142.868 1209.26 468.477
909 0 52.2717 15.0177 785 136.952 1209.68 467.847
910 0 53.3294 14.9824 799 145.04 1208.8 467.071
911 0 57.4461 15.3361 881 138.96 1207.19 465.136
912 0 59.2925 14.302 848 142.395 1209.05 464.996
913 0 61.2225 14.5371 890 141.375 1209.65 464.267
914 0 61.4183 15.0281 923 137.979 1207.9 463.077
915 0 65.3079 14.8987 973 131.202 1209.99 462.342
916 0 67.3827 14.5289 979 140.111 1210.71 461.34
917 0 69.3293 14.7701 1024 133.619 1210.67 460.184
918 0 72.3931 14.7942 1071 125.128 1211.11 459.52
919 0 74.1919 14.7455 1094 134.34 1211.37 458.379
920 0 77.2384 14.2675 1102 131.814 1211.25 456.858
921 0 81.3978 13.9439 1135 128.237 1210.79 456.194
922 0 82.2166 14.6078 1201 119.989 1210.5 453.938
923 1 44.0662 13.1847 581 119.568 1210.35 472.544
924 0 46.2458 13.5147 625 125.733 1210.65 472.256
925 0 47.1383 14.362 677 124.456 1209.16 471.179
926 0 49.1152 14.5373 714 121.88 1210.87 470.132
927 0 50.1727 14.4102 723 119.528 1212.13 469.923
928 0 53.1588 14.3532 763 120.586 1211.76 468.769
929 0 53.2086 14.5841 776 118.461 1210.48 467.505
930 0 57.2352 14.6239 837 119.797 1211.65 466.486
931 0 59.2575 14.2598 845 126.183 1211.88 465.634
932 0 60.3125 14.5741 879 125.871 1209.46 465.193
933 0 62.284 14.7389 918 128.222 1212.23 464.577
934 0 65.2161 14.3676 937 127.125 1210.27 463.634
935 0 68.1548 14.335 977 128.606 1209.28 463.084
936 0 69.1549 14.8073 1024 129.949 1211.93 462.214
937 0 72.2604 15.029 1086 124.732 1208.48 460.692
938 0 75.2157 14.5315 1093 132.668 1209.14 460.285
939 0 78.1516 14.5103 1134 134.06 1212.05 459.004
940 0 79.1342 14.6081 1156 133.297 1209.78 457.79
941 0 81.1673 14.8336 1204 135.948 1212.05 456.801
942 0 86.1141 14.8292 1277 139.778 1212.59 455.309
943 0 88.1858 14.7076 1297 139.506 1209.77 454.177
944 1 43.0861 13.6935 590 146.066 1211.95 474.797
945 0 46.0712 13.5443 624 141.973 1208.54 474.425
946 0 45.1744 14.1673 640 148.741 1211.43 474.264
947 0 49.1016 13.9914 687 154.199 1208.17 473.329
948 0 49.118 13.8646 681 164.496 1208.24 472.467
949 0 52.1013 13.7808 718 159.178 1207.8 471.967
950 0 53.1624 13.9572 742 162.384 1211.33 471.212
951 0 55.0694 13.9642 769 157.774 1209.78 469.992
952 0 56.096 14.493 813 158.662 1210.5 468.875
953 0 58.1538 14.2897 831 161.288 1211.1 468.388
954 0 59.1857 15.0374 890 163.997 1210.69 467.07
955 0 60.1411 14.5491 875 164.749 1211.2 466.79
956 0 64.1061 14.788 948 164.05 1209.98 465.47
957 0 66.2844 14.3623 952 170.491 1211.09 464.826
958 0 68.0627 14.6189 995 166.67 1211.14 463.314
959 0 69.1831 14.7724 1022 168.774 1210.86 462.286
960 0 72.238 14.7706 1067 168.78 1208.42 460.984
961 0 75.2423 14.6992 1106 170.262 1210.17 459.854
962 0 76.2509 14.872 1134 166.53 1209.44 458.997
963 0 78.1333 14.7952 1156 173.412 1209.05 457.804
964 0 82.1506 14.8995 1224 165.797 1212.1 456.189
965 0 84.1935 15.0012 1263 163.51 1213.68 454.084
966 0 87.1679 15.1317 1319 163.453 1212.63 452.023
967 0 90.2366 14.462 1305 167.269 1210.82 451.7
968 0 93.2425 14.1888 1323 166.38 1210 449.769
969 1 49.0815 13.0192 639 163.887 1209.44 470.305
970 0 50.1296 12.5475 629 162.645 1209.74 469.49
971 0 52.2874 13.4258 702 162.369 1209.73 468.113
972 0 54.1904 13.3603 724 159.169 1209.03 467.13
973 0 55.126 13.1517 725 163.13 1208.48 466.948
974 0 57.1249 13.4267 767 162.387 1208.91 465.309
975 0 60.2123 13.6019 819 158.759 1209.01 464.297
976 0 64.4695 13.076 843 165.229 1208.93 463.503
977 0 65.2504 13.3332 870 164.509 1210.85 462.32
978 0 67.2413 13.6523 918 157.359 1208.14 461.414
979 0 69.2354 13.5191 936 164.282 1210.92 460.71
980 0 71.3051 13.6736 975 166.721 1209.74 458.605
981 0 74.2298 13.4717 1000 159.49 1211.58 457.767
982 0 76.1833 13.625 1038 164.3 1209.17 456.486
983 0 79.1478 13.519 1070 163.302 1207.23 455.763
984 0 82.1618 13.802 1134 151.342 1209.47 453.84
985 0 83.1082 13.7532 1143 157.434 1207.68 453.218
986 0 87.2377 13.3085 1161 158.224 1208.74 451.651
987 0 90.3375 13.5713 1226 155.786 1209.52 450.182
988 0 95.1987 13.3615 1272 158.49 1208.49 447.554
989 0 98.1446 13.5209 1327 160.353 1209.02 445.653
990 0 100.121 13.1042 1312 157.144 1208.9 443.998
991 0 104.272 13.1866 1375 156.504 1208.51 441.918
992 1 53.1616 11.6249 618 151.869 1209.11 466.963
993 0 56.1652 11.2703 633 150.763 1209.52 467.054
994 0 58.1506 11.5906 674 145.712 1211.02 466.248
995 0 59.1408 11.8869 703 146.842 1211.79 464.716
996 0 61.2432 12.034 737 144.619 1210.92 464.19
997 0 63.2005 11.4398 723 142.811 1209.28 462.781
998 0 66.178 11.4389 757 138.229 1211.2 461.851
999 0 68.1944 11.7458 801 142.338 1209.64 461.521
1000 0 70.1328 12.1341 851 136.833 1210.93 459.304
1001 0 71.1637 11.7054 833 140.104 1210.19 459.254
1002 0 73.2768 11.8864 871 142.812 1211 458.224
1003 0 75.413 12.3056 928 148.791 1213.19 456.954
1004 0 79.1473 12.0535 954 152.797 1212.13 456.479
1005 0 82.271 12.0942 995 151.449 1211.48 454.797
1006 0 84.1432 12.3836 1042 149.964 1211.91 453.698
1007 0 88.2784 12.4379 1098 148.215 1210.73 451.758
1008 0 90.3348 12.4094 1121 152.206 1210.36 450.612
1009 0 93.2201 12.7226 1186 152.482 1209.52 449.328
1010 0 97.113 12.5936 1223 153.937 1209.82 447.437
1011 0 101.285 12.3217 1248 152.651 1210.37 445.654
1012 1 52.0829 11.0977 578 144.092 1212.93 468.829
1013 0 53.0942 12.1294 644 147.197 1212.31 468.553
1014 0 56.0312 11.9576 670 146.33 1212.5 467.907
1015 0 56.0189 12.1209 679 146.953 1212.88 466.894
1016 0 57.0789 12.0009 685 146.534 1212.05 466.815
1017 0 60.0553 12.5218 752 146.189 1212.81 465.189
1018 0 64.0889 12.4983 801 151.385 1213.12 464.084
1019 0 64.0767 12.6879 813 148.7 1212.46 463.303
1020 0 66.0537 12.8835 851 144.432 1211.83 462.384
1021 0 68.0331 12.7732 869 149.24 1212.18 461.406
1022 0 71.0818 12.4645 886 152.065 1211.57 460.83
1023 0 74.0593 12.625 935 147.672 1210.73 458.92
1024 0 76.0126 12.1559 924 148.952 1210.01 459.039
1025 0 78.0528 12.4787 974 153.508 1213.36 457.146
1026 0 81.0753 12.7166 1031 144.422 1212.49 455.474
1027 0 83.0651 12.3999 1030 153.425 1210.96 455.285
1028 0 85.1457 12.5667 1070 151.893 1210.91 454.167
1029 1 41.0561 10.9119 448 138.44 1210.72 474.478
1030 0 46.1021 11.3878 525 147.091 1209.59 473.646
1031 0 47.0745 11.5349 543 145.58 1211.41 472.722
1032 0 49.1388 11.4777 564 146.463 1210.07 472.044
1033 0 49.2091 12.0303 592 148.664 1210.39 471.598
1034 0 49.0593 12.862 631 143.962 1209.62 470.357
1035 0 52.1134 12.3193 642 146.751 1210.67 470.428
1036 0 54.0673 12.281 664 136.205 1207.92 468.497
1037 0 56.1308 12.5243 703 141.925 1211.25 468.201
1038 0 58.0982 12.7026 738 149.251 1210.46 467.095
1039 0 59.0418 12.4827 737 151.742 1211.72 466.476
1040 0 60.1726 12.9793 781 147.44 1212.42 465.347
1041 0 62.1401 12.858 799 143.25 1209.64 464.655
1042 0 64.0933 13.1527 843 148.047 1208.94 463.762
1043 0 65.1403 12.9873 846 146.116 1211.21 462.826
1044 0 67.1521 13.045 876 145.444 1209.62 462.056
1045 0 70.1487 13.0437 915 146.181 1209.63 460.656
1046 0 71.1053 13.0933 931 147.354 1209.72 459.532
1047 0 75.1172 13.2726 997 142.594 1211.18 458.406
1048 0 77.0766 13.3374 1028 140.75 1209.99 457.32
1049 0 80.138 12.9776 1040 150.594 1210.12 455.852
1050 0 82.1556 13.2066 1085 136.124 1211.07 455.015
1051 0 86.1974 12.889 1111 147.358 1212.49 454.08
1052 1 47.0343 11.9275 561 153.84 1212.8 473.403
1053 0 50.1729 12.1978 612 152.342 1209.96 472.32
1054 0 51.0565 12.5547 641 152.09 1211.05 471.034
1055 0 52.0963 12.9184 673 151.36 1210.43 470.416
1056 0 54.1607 13.0722 708 156.689 1210.62 469.742
1057 0 56.1988 13.0608 734 148.841 1214.09 469.365
1058 0 56.0962 13.2273 742 158.718 1211.81 468.243
1059 0 59.1821 13.2472 784 155.844 1211.43 467.531
1060 0 61.1695 13.5035 826 156.9 1210.19 466.107
1061 0 62.1648 13.1425 817 154.512 1210.65 466.646
1062 0 65.2436 13.4879 880 154.315 1207.06 465.252
1063 0 65.2222 13.661 891 153.222 1209.29 463.488
1064 0 67.2515 13.8287 930 155.751 1209.12 462.983
1065 0 70.2057 13.6741 960 152.779 1208.75 462.519
1066 0 71.1255 13.7785 980 149.862 1208.78 461.615
1067 0 73.1497 14.0397 1027 153.933 1208.66 460.351
1068 0 76.1554 13.7219 1045 160.86 1208.37 459.932
1069 0 78.1199 13.8249 1080 160.009 1208.15 458.49
1070 0 82.1585 13.9 1142 154.543 1209.13 456.476
1071 0 84.1066 14.006 1178 155.077 1207.88 456.194
1072 0 87.2045 13.9213 1214 148.311 1208.26 454.555
1073 0 89.1838 14.1169 1259 150.911 1208.98 454.225
1074 0 93.1508 14.3531 1337 157.981 1209.35 451.895
1075 0 96.1681 13.9027 1337 158.178 1209.6 450.671
1076 1 49.2208 12.4947 615 157.447 1210.66 472.515
1077 0 50.0877 13.117 657 165.887 1208.66 471.598
1078 0 53.2516 13.3893 713 159.008 1207.52 471.317
1079 0 52.2435 14.0305 733 159.465 1208.96 470.263
1080 0 55.1463 13.8178 762 159.656 1209.26 469.908
1081 0 58.0928 13.7539 799 155.223 1208.81 468.613
1082 0 61.2062 13.4137 821 150.566 1208.8 467.465
1083 0 62.068 14.033 871 150.993 1210.23 466.921
1084 0 64.2064 13.6902 879 152.882 1208.58 466.03
1085 0 65.1065 13.9771 910 155.134 1209.99 465.081
1086 0 68.2168 13.7942 941 155.802 1210.73 463.935
1087 0 70.1904 14.19 996 151.347 1212.11 462.776
1088 0 73.1849 13.8007 1010 151.827 1211.83 462.206
1089 0 75.2052 14.2676 1073 148.184 1211.45 460.536
1090 0 78.1912 14.1448 1106 154.955 1210.28 458.743
1091 0 81.2122 14.0373 1140 156.146 1210.29 458.167
1092 0 83.3024 13.6731 1139 152.095 1210.29 455.944
1093 0 87.1527 13.505 1177 148.208 1210.56 455.033
1094 0 90.2207 13.5113 1219 153.281 1211.89 453.955
1095 0 92.2971 13.5324 1249 142 1212.74 451.902
1096 1 48.173 10.9397 527 142.501 1208.23 474.306
1097 0 48.1716 12.061 581 146.165 1209.06 473.146
1098 0 51.0212 12.6026 643 141.992 1209.86 471.527
1099 0 53.0583 12.6465 671 150.544 1210.04 471.179
1100 0 54.0639 12.7997 692 148.46 1209.6 471.065
1101 0 54.1837 13.2881 720 147.512 1210.52 470.104
1102 0 58.1072 13.4235 780 143.508 1209.94 468.119
1103 0 60.0898 13.0638 785 149.041 1209.76 467.91
1104 0 60.173 13.3116 801 141.3 1210.42 466.68
1105 0 62.0291 13.3325 827 153.348 1209.41 465.729
1106 0 65.1411 13.2328 862 141.646 1211.18 464.131
1107 0 68.1984 13.534 923 144.387 1209.05 463.679
1108 0 70.2635 13.6344 958 139.936 1209 461.538
1109 0 73.0914 13.3668 977 156.004 1208.52 460.994
1110 0 77.1053 13.099 1010 152.72 1209.78 459.339
1111 0 77.1401 13.1968 1018 153.667 1208.84 458.84
1112 0 77.1401 13.1968 1018 161.388 1207.84 458.84
1113 0 84.227 13.523 1139 150.191 1209.69 455.951
1114 1 43.035 11.4325 492 156.37 1209.36 477.362
1115 0 44.0681 12.2311 539 149.983 1208.25 476.323
1116 0 46.0827 12.1304 559 149.705 1208.78 475.268
1117 0 46.0376 12.6201 581 156.74 1208.91 474.231
1118 0 47.0374 12.8408 604 146.344 1208.18 473.442
1119 0 50.0527 12.4269 622 154.323 1209.72 473.498
1120 0 51.0588 13.1613 672 152.646 1208.07 472.034
1121 0 51.0589 13.0633 667 148.675 1209.76 471.424
1122 0 54.1611 13.2568 718 153.056 1207.88 470.38
1123 0 56.2419 13.2464 745 146.446 1208.28 470.183
1124 0 56.0912 13.8168 775 147.697 1209.81 468.946
1125 0 58.0752 13.6547 793 144.299 1209.14 467.822
1126 0 60.0647 13.3523 802 154.663 1212.18 467.99
1127 0 63.0656 13.0658 824 146.728 1210.22 466.703
1128 0 64.1189 13.0695 838 151.896 1210.85 466.677
1129 0 64.0263 13.5257 866 155.259 1209.63 465.849
1130 0 68.0383 13.8892 945 149.994 1208.51 464.313
1131 0 71.1741 13.4459 957 155.467 1210.99 463.458
1132 0 73.114 13.5131 988 149.082 1211.44 461.925
1133 0 74.2154 14.121 1048 144.825 1211.57 461.146
1134 0 76.1863 13.7164 1045 148.004 1209.57 460.431
1135 0 81.0758 13.5552 1099 144.143 1208.54 458.671
1136 0 84.0447 14.0163 1178 150.747 1209.58 456.772
1137 0 85.1225 13.369 1138 148.692 1209.09 455.788
1138 0 88.1736 13.6889 1207 149.438 1208.88 453.883
1139 0 91.2653 14.1127 1288 149.517 1207.49 452.839
1140 0 95.2056 14.0748 1340 147.452 1210.14 450.582
1141 1 46.2423 12.6507 585 159.621 1211.05 474.694
1142 0 49.0537 13.2304 649 152.487 1209.49 472.81
1143 0 52.1111 13.2026 688 152.84 1211.7 472.461
1144 0 53.1254 13.8164 734 153.281 1210.78 471.422
1145 0 56.0429 13.4897 756 153.406 1212 470.593
1146 0 56.2445 13.6369 767 154.846 1210.83 470.344
1147 0 58.18 14.1973 826 152.797 1209.24 469.479
1148 0 61.1888 14.0058 857 159.02 1210.54 468.3
1149 0 63.224 13.7764 871 165.861 1210.82 467.161
1150 0 64.2463 13.993 899 159.221 1210.69 466.093
1151 0 66.1867 14.0814 932 162.784 1211.55 465.009
1152 0 70.2775 14.087 990 155.305 1210.76 463.668
1153 0 72.2134 14.3048 1033 155.005 1209.89 462.892
1154 0 74.1683 14.2783 1059 159.553 1212.04 461.889
1155 0 73.2454 14.7177 1078 159.131 1212.63 461.122
1156 0 78.2259 14.3175 1120 159.379 1211.65 460.287
1157 0 80.2378 14.3324 1150 163.986 1209.96 458.658
1158 0 84.1603 14.1991 1195 158.66 1211.01 457.392
1159 0 87.1932 14.6112 1274 156.136 1208.64 455.962
1160 0 88.2115 14.3405 1265 152.833 1209.3 454.455
1161 0 92.1191 13.8408 1275 155.94 1210.25 453.158
1162 0 95.1347 14.3271 1363 160.12 1210.23 451.189
1163 0 99.1172 13.8826 1376 157.281 1210.19 449.431
1164 0 102.23 14.5261 1485 161.174 1211.52 448.881
1165 1 53.0986 13.4467 714 158.415 1210.66 472.195
1166 0 55.0875 13.1427 724 159.552 1212.23 471.198
1167 0 57.0785 14.3311 818 160.685 1212.73 469.947
1168 0 58.0724 14.2408 827 160.892 1213.23 469.372
1169 0 59.0698 14.9146 881 164.502 1211.67 468.667
1170 0 61.0621 14.0513 858 160.907 1210.41 467.728
1171 0 65.1126 14.1754 923 158.484 1208.91 466.738
1172 0 65.1113 14.5136 945 155.578 1210.6 465.4
1173 0 70.2282 13.9403 979 153.932 1212.25 463.9
1174 0 72.1733 14.2158 1026 153.938 1210.5 462.858
1175 0 73.121 14.9342 1092 152.587 1209.28 461.232
1176 0 75.2096 15.2773 1149 155.559 1211.27 460.749
1177 0 77.1917 14.9887 1157 150.013 1211.81 459.26
1178 0 81.0949 14.2796 1158 145.538 1211.77 458.226
1179 0 82.2032 14.8656 1222 144.239 1210.78 456.408
1180 0 87.1222 14.8297 1292 146.135 1211.42 454.324
1181 0 90.1038 14.7053 1325 149.328 1212.08 452.86
1182 0 95.1346 15.0208 1429 163.293 1211.07 452.097
1183 0 97.1799 15.2295 1480 163.414 1210.94 449.4
1184 0 100.276 14.7692 1481 159.891 1210.18 448.697
1185 1 50.112 13.0508 654 169.107 1211.4 472.57
1186 0 54.0675 13.2242 715 157.109 1212.69 471.414
1187 0 56.0474 13.3458 748 161.932 1211.91 471.128
1188 0 56.1577 13.7826 774 161.212 1210.54 470.054
1189 0 57.2469 13.7649 788 160.456 1211.74 469.769
1190 0 60.1447 13.4509 809 164.824 1209.3 468.169
1191 0 62.1737 13.9448 867 156.602 1210.38 467.712
1192 0 63.1163 14.0059 884 152.395 1209.96 466.34
1193 0 67.2398 13.6229 916 152.029 1211.91 464.781
1194 0 67.273 14.1513 952 143.141 1209.79 464.092
1195 0 71.4465 13.6606 976 153.773 1208.5 463.102
1196 0 74.221 13.3251 989 165.742 1211.46 461.794
1197 0 76.1868 13.8082 1052 158.279 1209.3 460.445
1198 0 79.2668 13.5618 1075 164.8 1210.38 459.516
1199 0 81.1413 13.9017 1128 154.519 1210.93 458.28
1200 0 84.2055 13.6689 1151 162.142 1211.2 458.281
1201 0 87.2783 13.371 1167 163.076 1210.89 456.905
1202 0 90.3136 14.0068 1265 152.093 1211.03 453.935
1203 0 93.122 14.4005 1341 158.556 1209.27 453.136
1204 0 96.1371 13.3975 1288 159.685 1211.63 451.473
1205 1 52.0208 12.0721 628 156.232 1208.68 471.928
1206 0 54.0997 12.2367 662 158.464 1213.35 471.923
1207 0 54.1744 13.1058 710 159.57 1213.33 471.673
1208 0 56.078 13.2672 744 156.464 1212.11 470.531
1209 0 60.2018 13.2222 796 146.335 1211.49 468.852
1210 0 62.1461 12.8568 799 148.318 1212.42 468.352
1211 0 64.148 13.5312 868 141.81 1212.19 466.386
1212 0 67.1335 13.1827 885 150.974 1213.03 465.158
1213 0 69.0805 13.0862 904 155.332 1211.28 464.718
1214 0 73.1422 12.797 936 149.124 1210.66 463.13
1215 0 74.0763 12.8381 951 146.751 1211.62 461.226
1216 0 78.1087 13.5708 1060 141.801 1212.35 459.834
1217 0 81.0923 12.7139 1031 149.536 1211.36 459.158
1218 0 82.0549 12.4673 1023 137.963 1208.36 457.29
1219 0 86.1197 13.0864 1127 146.291 1210.76 456.042
1220 1 42.0083 10.4265 438 141.845 1210.9 478.103
1221 0 42.0317 11.5865 487 137.253 1208.17 477.688
1222 0 44.0166 11.4502 504 146.899 1208.88 476.361
1223 0 44.017 12.8132 564 138.312 1207.91 474.973
1224 0 45.0347 12.9234 582 136.771 1206.37 474.502
1225 0 49.0474 11.9884 588 145.046 1208.6 473.964
1226 0 50.1002 11.9361 598 132.967 1208.48 473.742
1227 0 51.0938 12.0367 615 139.748 1208.23 472.754
1228 0 53.0829 12.3015 653 138.522 1208.2 472.138
1229 0 53.0619 12.9471 687 134.969 1211.1 470.956
1230 0 54.1101 13.0475 706 133.67 1206.62 469.545
1231 0 57.0349 12.8869 735 134.307 1207.76 469.996
1232 0 59.08 12.8808 761 138.112 1206.06 468.648
1233 0 60.1139 12.4763 750 138.212 1207.33 467.869
1234 0 61.071 13.0831 799 135.692 1209.25 467.583
1235 0 62.0838 13.2885 825 135.926 1211.34 465.956
1236 0 65.0888 12.6596 824 132.066 1208.38 464.848
1237 0 69.0983 12.967 896 154.921 1209.08 465.185
1238 0 70.1022 13.2093 926 151.622 1207.61 463.905
1239 0 73.1301 13.0589 955 151.128 1207.89 463.113
1240 0 73.1301 13.0589 955 161.077 1208.89 463.113
1241 0 79.1517 13.3036 1053 143.068 1208.92 459.327
1242 0 81.2322 13.4676 1094 137.327 1208.53 456.118
1243 0 84.2443 13.3659 1126 146.618 1208.43 455.14
1244 0 86.2591 13.7145 1183 143.829 1209.28 453.818
1245 1 45.3138 11.5197 522 150.548 1208.45 472.479
1246 0 48.2494 11.5027 555 146.987 1209 470.829
1247 0 49.3091 12.6346 623 147.14 1210.53 469.647
1248 0 49.1922 13.2948 654 144.839 1212.48 470.453
1249 0 52.028 12.9354 673 146.366 1208.55 472.539
1250 0 53.1303 13.2881 706 141.755 1209.82 472.142
1251 0 55.119 13.3166 734 147.815 1208.34 470.954
1252 0 57.0517 13.146 750 145.732 1208.05 469.227
1253 0 60.1785 13.1775 793 142.541 1210.06 468.617
1254 0 62.1117 13.5401 841 149.278 1209.93 467.505
1255 0 62.3095 13.786 859 151.469 1210.69 466.512
1256 0 65.3193 13.7632 899 148.383 1208.77 464.887
1257 0 65.2676 14.2184 928 144.865 1207.05 464.67
1258 0 68.3076 13.5417 925 153.432 1208.83 462.643
1259 0 71.2364 13.3499 951 145.432 1208.48 461.508
1260 0 73.3097 13.7908 1011 154.286 1208.47 460.493
1261 0 76.3326 13.8211 1055 145.429 1206.49 459.191
1262 0 79.2786 13.7868 1093 148.285 1208.2 458.253
1263 0 81.5085 13.9617 1138 149.172 1206.73 456.47
1264 0 83.2938 14.1187 1176 150.855 1208.87 454.912
1265 0 88.4253 14.0345 1241 145.17 1206.85 453.943
1266 1 45.2987 11.678 529 149.788 1208.04 475.248
1267 0 47.2394 11.5158 544 155.059 1206.82 475.73
1268 0 47.1118 12.1838 574 152.591 1206.59 476.117
1269 0 48.1125 12.8241 617 149.063 1208.45 475.564
1270 0 49.1409 13.268 652 148.722 1208.13 474.566
1271 0 50.201 12.928 649 153.085 1208.22 474.3
1272 0 50.0952 13.3346 668 152.516 1206.81 473.876
1273 0 53.1123 13.142 698 146.623 1209.19 473.468
1274 0 54.0372 13.3612 722 152.968 1208.41 472.701
1275 0 56.117 13.3115 747 159.758 1207.1 471.727
1276 0 55.0587 14.1485 779 154.243 1206.98 470.302
1277 0 57.0496 13.6548 779 156.125 1208.81 469.009
1278 0 60.1615 13.9126 837 161.392 1206.45 469.127
1279 0 63.1451 13.6353 861 158.359 1206.62 468.066
1280 0 64.2315 15.2729 981 150.594 1205.03 467.527
1281 0 65.247 14.744 962 157.886 1206.55 466.555
1282 0 67.1171 14.3332 962 157.198 1209.13 465.948
1283 0 69.1191 14.5691 1007 156.558 1207.87 464.982
1284 0 70.2303 14.5379 1021 154.794 1208 463.83
1285 0 71.1504 14.631 1041 151.056 1209.34 463.105
1286 0 73.1686 14.9244 1092 151.201 1207.75 461.348
1287 0 77.1986 14.7023 1135 154.263 1209.68 460.35
1288 0 79.123 14.4711 1145 154.121 1208.11 459.607
1289 0 83.1801 15.6888 1305 145.525 1206.87 457.629
1290 0 85.168 15.6514 1333 145.614 1207.2 456.219
1291 0 87.1778 15.3365 1337 148.976 1206.1 454.859
1292 0 89.1712 14.9936 1337 151.123 1206.7 454.03
1293 0 93.1974 14.6893 1369 157.632 1207.84 452.586
1294 0 96.2789 15.1123 1455 151.877 1206.74 451.808
1295 0 100.134 15.8687 1589 145.659 1208.06 450.205
1296 1 59.0302 13.0781 772 155.876 1207.82 469.846
1297 0 63.1041 13.7709 869 147.483 1206.21 468.547
1298 0 63.21 14.175 896 161.897 1205.83 468.011
1299 0 65.1787 15.0356 980 155.953 1206.76 466.843
1300 0 66.2982 14.7817 980 157.545 1205.95 465.695
1301 0 69.035 14.5868 1007 161.985 1207.21 465.109
1302 0 71.1684 14.3603 1022 163.928 1208.07 464.296
1303 0 74.1298 14.569 1080 162.477 1209.76 462.751
1304 0 77.2424 14.6681 1133 156.138 1206.2 461.237
1305 0 80.3486 14.8478 1193 164.083 1207.36 459.783
1306 0 83.3173 15.0509 1254 156.888 1208.78 457.53
1307 0 85.0644 14.8828 1266 167.133 1208.31 456.432
1308 0 87.128 15.2764 1331 158.756 1207.3 454.559
1309 0 90.0555 15.5571 1401 161.06 1207.17 453.62
1310 0 93.172 15.1655 1413 153.701 1205.92 452.873
1311 0 96.2188 15.4648 1488 153.836 1206.69 450.036
1312 0 99.171 14.7321 1461 160.445 1206.97 448.971
1313 0 102.138 14.9994 1532 162.709 1207.48 447.478
1314 0 104.163 15.0917 1572 161.434 1209 446.062
1315 0 107.278 15.3993 1652 157.349 1208.45 444.593
1316 0 112.168 15.1825 1703 165.307 1206.49 442.227
1317 0 115.221 14.763 1701 163.918 1207.64 440.269
1318 0 119.228 15.5164 1850 162.055 1208.01 438.95
1319 0 122.177 15.3958 1881 164.453 1208.39 436.356
1320 0 126.119 15.2872 1928 165.97 1208.31 434.608
1321 0 131.182 15.2841 2005 166.013 1207.65 433.014
1322 0 135.212 15.1984 2055 163.708 1206.16 431.085
1323 0 139.219 14.998 2088 165.32 1207.15 429.066
1324 0 143.15 15.2358 2181 167.022 1208.42 427.453
1325 0 148.157 15.3553 2275 160.032 1208.1 424.414
1326 0 154.249 15.261 2354 165.746 1209.09 422.512
1327 0 158.154 15.5545 2460 159.346 1208.62 420.085
1328 0 165.328 15.3996 2546 158.034 1207.66 416.684
1329 0 169.259 15.2901 2588 159.766 1208.28 413.358
1330 0 176.453 14.6215 2580 162.806 1208.71 410.673
1331 0 183.234 14.8062 2713 148.466 1207.71 406.593
1332 1 44.0581 10.6223 468 143.566 1210.15 475.981
1333 0 46.1437 10.8574 501 143.697 1207.89 474.744
1334 0 47.152 11.8341 558 140.263 1208.37 474.066
1335 0 49.1809 11.6712 574 135.206 1209.02 473.624
1336 0 49.1303 11.8053 580 147.348 1208.31 473.029
1337 0 51.1503 12.2189 625 139.501 1206.17 472.482
1338 0 54.1236 11.6955 633 141.542 1206.05 470.719
1339 0 54.2097 12.341 669 139.987 1205.67 470.377
1340 0 57.1265 12.376 707 139.281 1206.66 469.033
1341 0 58.1678 12.2748 714 144.623 1207.03 468.65
1342 0 60.0771 12.6671 761 145.853 1206.68 467.246
1343 0 64.182 12.2153 784 143.812 1207.45 466.584
1344 0 65.1079 12.1337 790 144.543 1208.31 465.819
1345 0 66.0607 12.4734 824 141.641 1207.51 464.79
1346 0 68.0863 12.5429 854 147.589 1207.24 464.315
1347 0 71.0785 12.4229 883 142.879 1206.3 462.575
1348 0 71.1328 12.4556 886 145.481 1206.2 462.314
1349 0 75.243 12.3599 930 141.724 1207.5 460.461
1350 0 77.174 12.4913 964 146.32 1206.59 459.437
1351 0 79.1611 12.5314 992 139.031 1206.59 456.763
1352 0 82.121 12.6886 1042 145.779 1206.15 456.27
1353 0 84.2834 12.6834 1069 144.861 1206.63 455.853
1354 0 90.2568 12.3869 1118 140.968 1205.95 454.025
1355 0 92.1846 12.8763 1187 147.889 1206.12 452.184
1356 1 52.1089 10.267 535 147.778 1206.26 472.869
1357 0 53.1648 11.0411 587 142.69 1206.44 471.789
1358 0 54.1718 11.925 646 135.142 1204.05 470.814
1359 0 55.2156 11.7539 649 133.37 1204.83 469.297
1360 0 57.2814 11.976 686 141.433 1207.41 468.968
1361 0 58.2488 12.0002 699 138.794 1210.05 468.06
1362 0 61.1332 12.0884 739 141.189 1207.55 467.792
1363 0 61.1851 12.3723 757 135.182 1207.51 465.791
1364 0 65.253 12.5205 817 135.048 1210.19 465.082
1365 0 64.1896 12.4631 800 138.959 1205.81 464.89
1366 0 68.1037 13.4354 915 136.342 1207.08 464.027
1367 0 68.1694 13.2611 904 139.646 1206.12 463.149
1368 0 71.302 13.2675 946 142.444 1206.77 461.637
1369 0 73.1265 12.8408 939 146.059 1206.97 460.628
1370 0 76.2257 13.5387 1032 134.729 1205.38 459.593
1371 0 79.2445 13.6035 1078 144.802 1206.79 458.266
1372 0 83.2535 13.549 1128 143.033 1206.91 456.267
1373 0 86.257 13.8076 1191 143.095 1207.63 454.284
1374 0 88.3364 13.6297 1204 140.845 1207.76 453.443
1375 0 92.3255 14.7738 1364 141.897 1208.82 450.738
1376 1 50.0724 11.3835 570 142.568 1207.91 471.121
1377 0 51.0629 11.6523 595 143.911 1210.29 470.627
1378 0 53.0876 12.5076 664 143.002 1207.25 469.081
1379 0 56.0211 12.3703 693 140.671 1207.74 469.322
1380 0 57.0866 12.7701 729 143.715 1209.44 468.69
1381 0 59.1165 12.9913 768 157.257 1209.47 469.241
1382 0 62.0972 13.3178 827 157.715 1208.8 468.833
1383 0 62.0715 13.3878 831 157.176 1209.47 468.537
1384 0 65.1126 13.4383 875 154.77 1210 465.733
1385 0 68.3792 13.4544 920 150.521 1209.9 464.846
1386 0 68.2231 14.2181 970 163.37 1209.73 463.752
1387 0 69.1347 14.1897 981 155.817 1208.69 464.156
1388 0 74.081 13.9442 1033 155.196 1209.36 462.657
1389 0 75.1141 14.3116 1075 164.947 1209.58 461.883
1390 0 78.2255 14.2025 1111 156.855 1209.85 459.832
1391 0 81.316 14.1546 1151 160.937 1207.39 458.772
1392 0 84.3888 16.0685 1356 153.527 1210.57 455.263
1393 0 86.3983 13.8081 1193 163.239 1207.82 456.169
1394 0 90.3515 13.857 1252 160.451 1208.1 454.518
1395 0 91.6175 14.2768 1308 162.446 1209.27 452.381
1396 0 95.3238 13.858 1321 160.006 1208.73 451.825
1397 0 99.4426 14.35 1427 158.807 1210.55 449.698
1398 0 100.29 13.8698 1391 164.631 1208.64 448.867
1399 0 104.416 14.1454 1477 157.781 1210.08 447.566
1400 0 108.525 14.1718 1538 155.529 1208.64 446.142
1401 1 55.1554 12.9452 714 158.51 1210.24 470.706
1402 0 57.15 12.9484 740 160.255 1208.87 470.074
1403 0 58.1985 13.2478 771 156.791 1208.71 469.515
1404 0 60.1494 13.3667 804 157.888 1210.11 468.345
1405 0 62.2546 13.3805 833 159.375 1209.02 466.543
1406 0 65.1672 12.8746 839 160.349 1210.26 465.851
1407 0 66.1444 13.9392 922 161.405 1209.61 463.752
1408 0 70.0623 13.802 967 157.746 1209.16 463.218
1409 0 73.1594 13.4911 987 158.141 1210.39 461.934
1410 0 75.0878 13.4243 1008 161.084 1208.36 460.197
1411 0 78.2168 12.9256 1011 163.044 1208.71 459.064
1412 0 81.3359 13.1553 1070 162.162 1208.9 457.541
1413 0 86.3812 13.3131 1150 161.831 1207.94 455.68
1414 1 45.0384 12.2784 553 150.479 1209.1 476.584
1415 0 44.2435 12.8832 570 156.76 1207.83 476.353
1416 0 46.2582 12.6896 587 154.348 1208.98 475.738
1417 0 48.1511 12.5854 606 153.535 1207.01 475.375
1418 0 49.2248 13.1031 645 153.608 1208.96 474.183
1419 0 49.2783 13.2513 653 150.53 1206.77 473.614
1420 0 51.2181 12.7104 651 153.515 1210.9 472.971
1421 0 54.1506 12.853 696 152.793 1209 472.341
1422 0 53.1611 12.923 687 150.971 1207.69 471.41
1423 0 57.2369 12.6841 726 149.121 1208.63 470.942
1424 0 59.1677 12.7772 756 149.663 1209.19 470.056
1425 0 59.1743 12.4716 738 142.332 1209.3 469.136
1426 0 61.0989 13.1754 805 148.458 1210.13 467.856
1427 0 64.1311 12.8955 827 156.579 1207.41 467.381
1428 0 66.0442 12.7642 843 151.195 1208.15 466.298
1429 0 68.1138 13.1104 893 146.849 1207.71 464.429
1430 0 72.1242 12.9638 935 145.919 1207.62 463.247
1431 0 73.1684 12.8744 942 145.709 1208.7 462.53
1432 1 39.0993 11.0744 433 135.942 1207.44 478.314
1433 0 41.1318 11.6698 480 139.567 1206.93 477.652
1434 0 42.118 11.8951 501 144.17 1207.34 476.703
1435 0 43.0536 12.078 520 140.762 1205.65 475.719
1436 0 46.0343 11.7521 541 136.656 1205.92 475.068
1437 0 47.0455 12.2222 575 136.191 1207.87 473.859
1438 0 49.0286 12.2174 599 136.067 1204.16 473.013
1439 0 50.0553 11.9468 598 137.724 1206.92 472.458
1440 0 51.0624 12.1812 622 132.424 1206.04 471.667
1441 0 53.0766 12.8117 680 129.793 1208.82 470.069
1442 0 55.0534 12.1337 668 132.943 1208.47 471.04
1443 0 57.1055 12.0479 688 138.122 1207.93 469.375
1444 0 59.1322 12.2437 724 133.097 1207.26 468.012
1445 0 61.0874 12.7195 777 133.496 1207.31 466.423
1446 0 61.1016 13.273 811 136.658 1207.83 466.559
1447 0 65.1873 12.8859 840 137.896 1209.14 465.52
1448 0 66.1082 12.9333 855 132.194 1207.89 463.071
1449 0 69.2046 12.976 898 138.419 1209.32 462.386
1450 0 73.2416 12.7523 934 131.724 1209.81 460.857
1451 0 75.3201 12.4668 939 135.225 1207.58 460.232
1452 1 38.0882 10.3707 395 138.919 1207.19 477.838
1453 0 40.0926 10.4757 420 137.007 1206.78 478.057
1454 0 41.0906 11.0244 453 137.815 1208.34 476.711
1455 0 44.0705 11.6177 512 135.707 1207.56 476.109
1456 0 44.0867 11.863 523 142.769 1207.1 475.891
1457 0 45.174 12.308 556 134.478 1206.31 475.09
1458 0 46.1044 12.9272 596 140.029 1207.35 474.824
1459 0 48.0747 12.2518 589 142.048 1205.71 474.205
1460 0 50.0127 12.6968 635 148.077 1208.46 473.202
1461 0 50.1006 13.3531 669 145.839 1206.21 471.84
1462 0 52.065 13.8289 720 137.582 1206.96 471.482
1463 0 52.0838 13.8239 720 140.149 1206.84 470.458
1464 0 56.0665 13.484 756 144.635 1206.01 469.171
1465 0 57.0935 13.0488 745 145.619 1208.54 468.544
1466 0 59.1007 14.0608 831 145.332 1208.18 467.46
1467 0 61.2488 13.3717 819 145.9 1207.13 467.004
1468 0 64.1667 13.4961 866 146.688 1206.78 465.945
1469 0 65.1894 13.99 912 151.163 1207.24 464.985
1470 0 67.206 13.2726 892 153.429 1207.11 464.93
1471 0 70.111 13.9921 981 156.337 1208.24 463.182
1472 0 70.2079 14.101 990 151.747 1207.05 461.873
1473 0 74.2141 13.8249 1026 150.844 1208.27 461.049
1474 0 76.1293 13.9237 1060 153.82 1208.14 460.025
1475 0 79.2817 13.9124 1103 153.551 1209.07 458.477
1476 0 83.1945 13.7509 1144 153.46 1207.32 457.304
1477 0 85.087 14.0797 1198 156.256 1208.52 455.422
1478 0 89.0883 14.278 1272 154.86 1207.31 454.042
1479 0 90.0619 14.0459 1265 154.271 1206.54 452.89
1480 1 48.1163 12.8854 620 147.629 1206.53 473.934
1481 0 49.1234 13.3134 654 150.029 1207.7 472.668
1482 0 53.1334 12.6286 671 148.386 1206.49 472.319
1483 0 54.0641 13.484 729 155.262 1205.45 471.498
1484 0 54.1084 13.2327 716 158.443 1206.92 471.687
1485 0 57.1927 13.2709 759 148.951 1206.52 471.141
1486 0 58.1785 13.7336 799 152.411 1206.34 469.27
1487 0 60.0976 13.2451 796 151.236 1208.32 469.401
1488 0 61.2214 13.3777 819 149.842 1206.67 468.952
1489 0 63.1677 14.1686 895 156.42 1205.19 467.24
1490 0 65.093 13.5806 884 147.826 1206.6 466.576
1491 0 66.0944 13.9497 922 149.59 1206.36 465.061
1492 0 67.2288 13.9077 935 155.818 1207.47 464.512
1493 0 72.2792 13.7384 993 146.622 1208.63 462.412
1494 0 75.2372 13.4641 1013 155.155 1207.45 461.636
1495 0 80.183 13.8558 1111 157.893 1208.47 460.26
1496 0 80.1203 13.8542 1110 157.484 1206.93 458.425
1497 0 84.2054 13.9421 1174 152.595 1205.85 455.871
1498 1 44.1133 11.8332 522 158.155 1208.37 475.72
1499 0 45.091 12.3306 556 147.59 1207.24 475.511
1500 0 47.0401 12.9039 607 152.75 1205.17 474.229
1501 0 48.1042 13.2005 635 146.83 1206.8 472.866
1502 0 49.0932 13.1994 648 153.634 1206.56 473.093
1503 0 50.2964 13.3012 669 147.891 1206.85 472.278
1504 0 53.1758 13.3896 712 153.191 1206.23 469.511
1505 0 53.2375 13.2425 705 155.77 1206.3 469.167
1506 0 54.1936 13.6363 739 145.938 1207.31 468.793
1507 0 58.1498 13.2589 771 142.655 1207.76 466.302
1508 0 60.3925 13.4785 814 148.05 1209.56 465.423
1509 0 61.3163 13.7484 843 145.337 1207.32 464.176
1510 0 64.2545 13.182 847 147.887 1206.97 463.788
1511 0 64.314 13.1853 848 145.646 1204.74 462.916
1512 0 66.3194 13.4501 892 144.947 1207.55 462.002
1513 0 69.3604 13.2352 918 144.185 1205.94 460.635
1514 0 70.4672 13.524 953 137.355 1208.05 459.02
1515 0 75.4351 13.6939 1033 143.816 1205.39 458.304
1516 0 73.2656 12.3387 904 158.023 1206.23 456.129
1517 1 50.1485 11.8847 596 156.5 1207.88 468.282
1518 0 53.342 11.8856 634 152.181 1207.64 467.88
1519 0 54.1461 12.614 683 150.921 1205.96 467.682
1520 0 57.4087 12.7681 733 147.276 1205.24 466.643
1521 0 59.3685 12.9193 767 148.018 1205.02 466.648
1522 0 61.2568 12.7496 781 148.289 1209.67 465.999
1523 0 61.5852 13.3474 822 149.856 1207.85 464.661
1524 0 64.4021 13.1362 846 152.509 1204.95 464.026
1525 0 66.2478 13.2231 876 150.078 1204.47 462.08
1526 0 69.4904 12.9514 900 152.038 1205.02 461.436
1527 0 71.2492 13.2072 941 151.45 1205 460.666
1528 0 72.2887 13.0864 946 147.216 1204.05 459.122
1529 0 75.4561 13.16 993 153.842 1204.21 457.582
1530 0 80.4512 13.1633 1059 152.229 1203.27 456.338
1531 0 82.4567 13.2797 1095 151.425 1205.04 455.836
1532 0 84.2851 13.0272 1098 151.628 1207.13 454.246
1533 0 87.5925 13.0719 1145 153.762 1205.65 452.865
1534 0 88.2695 13.4588 1188 153.112 1206.42 450.843
1535 0 93.2474 13.1478 1226 150.836 1206.98 449.77
1536 1 47.2149 11.5006 543 149.47 1206.29 474.105
1537 0 49.1391 12.2306 601 142.918 1207.08 472.492
1538 0 50.1959 12.7102 638 141.68 1206.63 471.74
1539 0 53.3425 12.7103 678 142.422 1205.18 471.484
1540 0 54.4183 12.9001 702 139.232 1206.57 470.417
1541 0 56.3029 12.6459 712 138.57 1206.04 469.803
1542 0 58.0819 12.6373 734 144.823 1206.39 468.53
1543 0 59.5158 13.2066 786 141.363 1206.27 467
1544 0 61.3226 13.0621 801 138.079 1207.21 466.592
1545 0 62.2712 13.2164 823 139.583 1206.64 465.08
1546 0 67.483 13.1144 885 146.255 1205.77 463.708
1547 0 69.1658 13.0556 903 139.431 1205.85 463.502
1548 0 70.5013 13.092 923 141.494 1206.45 461.399
1549 0 71.3356 13.079 933 142.936 1206.31 459.726
1550 0 74.4474 13.3651 995 145.652 1205.63 458.187
1551 0 78.2985 13.4868 1056 135.532 1204.26 457.474
1552 0 80.2202 13.5003 1083 145.837 1206.02 455.656
1553 1 45.1582 10.7179 484 144.322 1204.96 474.424
1554 0 45.0817 10.7582 485 142.41 1203.84 473.524
1555 0 47.0545 11.0298 519 140.262 1202.97 472.574
1556 0 49.0651 11.3726 558 142.573 1203.29 471.828
1557 0 49.2469 12.4069 611 140.591 1203.22 470.971
1558 0 52.0934 12.4584 649 135.217 1205.16 471.538
1559 0 52.1143 12.8755 671 137.122 1204.04 471.547
1560 0 56.2569 12.1585 684 136.409 1204.4 470.899
1561 0 56.1981 12.5983 708 142.097 1204.81 469.768
1562 0 59.163 12.643 748 141.31 1202.4 469.008
1563 0 59.2016 12.9895 769 140.421 1205.59 467.845
1564 0 62.1905 12.5743 782 129.463 1205.06 467.403
1565 0 66.164 13.4363 889 154.296 1205.47 466.632
1566 0 68.1944 13.1682 898 155.208 1205.16 465.255
1567 0 71.1895 13.2463 943 149.217 1205.32 463.996
1568 0 74.2295 12.9194 959 151.63 1204.49 463.394
1569 0 76.2238 13.3554 1018 142.283 1205.51 461.49
1570 0 79.2919 12.9395 1026 142.925 1206.62 460.035
1571 0 81.3917 13.0357 1061 152.124 1203.99 459.035
1572 0 83.3357 13.6556 1138 146.515 1205.05 457.054
1573 1 43.2704 11.4166 494 150.476 1203.11 478.099
1574 0 44.1196 12.1035 534 149.464 1203.68 476.923
1575 0 47.1842 12.5254 591 146.352 1205.52 475.404
1576 0 48.2102 12.5077 603 146.657 1204.33 474.811
1577 0 49.1494 12.5739 618 153.359 1204.28 474.396
1578 0 52.3369 12.4195 650 148.678 1206.24 473.409
1579 0 51.2197 13.159 674 152.144 1204.76 472.57
1580 0 54.1875 12.8997 699 142.828 1202.87 472.763
1581 0 55.1843 12.866 710 154.484 1205.12 471.604
1582 0 57.1059 13.081 747 152.396 1205.87 470.774
1583 0 59.1672 13.2844 786 140.52 1204.87 469.513
1584 0 60.1268 13.0391 784 150.652 1205.86 469.352
1585 0 62.1316 13.23 822 146.344 1205.6 468.241
1586 0 65.16 13.3364 869 142.285 1204.28 467.067
1587 0 67.09 13.221 887 152.178 1204.89 465.643
1588 0 69.0592 13.0468 901 154.41 1206.27 464.86
1589 0 72.0903 13.386 965 152.965 1203.11 462.543
1590 0 74.1506 12.9466 960 154.944 1203.68 462.574
1591 0 78.1972 12.7882 1000 154.351 1202.08 460.566
1592 0 79.1314 13.3575 1057 149.031 1205.23 459.424
1593 0 82.2018 13.1384 1080 154.239 1205.18 458.031
1594 1 42.1072 11.6607 491 144.33 1203.73 477.807
1595 0 43.008 12.021 517 151.499 1201.77 477.557
1596 0 46.0292 11.8838 547 149.484 1203.74 475.907
1597 0 46.259 11.6302 538 152.788 1203.21 476.067
1598 0 48.2783 11.9308 576 146.425 1203.2 476.175
1599 0 48.2879 12.2184 590 145.849 1203.65 475.153
1600 0 50.457 12.1886 615 152.189 1203.34 474.553
1601 0 52.367 12.0878 633 151.769 1202.66 473.918
1602 0 52.2132 12.6405 660 155.38 1203.85 473.082
1603 0 54.3236 12.6649 688 142.449 1203.8 472.5
1604 0 56.1463 12.9305 726 147.252 1203.23 470.642
1605 0 56.1256 13.2204 742 146.697 1203.04 470.916
1606 0 59.4343 12.9218 768 154.556 1202.5 470.414
1607 0 59.3628 13.2743 788 140.732 1204.85 469.382
1608 0 62.2003 13.0868 814 141.633 1202.58 467.837
1609 0 64.26 13.0252 837 146.562 1203.36 466.922
1610 0 65.1918 13.3759 872 154.055 1203.08 466.429
1611 0 70.3153 13.1124 922 144.32 1201.99 465.431
1612 0 70.1854 13.5498 951 144.098 1203.99 464.216
1613 0 72.3937 13.6614 989 153.233 1202.99 462.207
1614 0 73.3151 13.8989 1019 152.986 1204.09 461.876
1615 0 76.4642 13.7711 1053 152.005 1202.52 460.353
1616 0 79.5202 13.7198 1091 155.489 1202.97 459.784
1617 0 81.2825 13.9883 1137 150.952 1202.91 458.504
1618 0 84.2173 13.9758 1177 154.358 1205.16 456.653
1619 0 87.4138 14.071 1230 159.929 1204.17 455.159
1620 0 89.4931 14.2916 1279 152.764 1204.52 453.415
1621 0 93.5534 13.7355 1285 157.814 1202.3 452.445
1622 0 94.5247 14.2714 1349 155.865 1202.7 451.441
1623 0 99.4179 14.0015 1392 160.751 1202.5 449.575
1624 0 102.302 14.4377 1477 159.098 1202.8 447.657
1625 1 57.1298 12.8479 734 156.211 1202.78 470.973
1626 0 58.3324 13.2345 772 155.61 1201.4 469.604
1627 0 61.4476 13.5726 834 154.387 1201.51 468.625
1628 0 62.4176 13.3296 832 160.767 1201.25 467.864
1629 0 66.3363 13.6728 907 158.032 1200.21 466.338
1630 0 68.2186 13.1489 897 158.152 1201.32 465.261
1631 0 70.2655 13.5059 949 158.601 1202.18 464.003
1632 0 72.3394 13.5334 979 154.868 1201.95 462.285
1633 0 74.181 13.6962 1016 156.091 1204.12 461.817
1634 0 78.45 14.4296 1132 154.606 1202.45 460.112
1635 0 79.5214 13.5435 1077 158.422 1202.44 459.674
1636 0 81.2419 13.7983 1121 153.294 1203.17 457.367
1637 0 85.3514 13.8252 1180 151.128 1203.85 455.907
1638 0 88.1847 13.6645 1205 152.448 1203.01 454.467
1639 0 90.1488 13.511 1218 149.072 1203.21 452.243
1640 0 93.1997 13.6374 1271 148.555 1202.71 451.647
1641 1 51.1429 11.7318 600 155.718 1202.78 472.383
1642 0 52.0575 12.1404 632 149.111 1202 472.046
1643 0 54.0568 12.6349 683 146.499 1203.93 470.302
1644 0 57.0679 12.4413 710 146.184 1205.41 471.47
1645 0 57.0855 12.928 738 145.829 1203.61 470.801
1646 0 58.1052 12.8388 746 144.631 1205.25 469.134
1647 0 60.0803 13.5818 816 147.625 1204.57 468.82
1648 0 63.0561 12.8933 813 146.936 1204.82 467.572
1649 0 63.0611 13.368 843 152.225 1205.22 467.147
1650 0 66.1601 13.2406 876 142.749 1204.16 465.704
1651 0 68.244 13.1294 896 150.092 1203.33 464.92
1652 0 71.1071 12.9523 921 140.215 1204.25 463.675
1653 0 73.0976 13.5299 989 148.629 1205.72 462.716
1654 0 74.1255 13.5446 1004 145 1206.1 461.994
1655 0 77.1625 13.4781 1040 148.763 1206.05 460.633
1656 0 79.0733 13.7088 1084 146.521 1205.13 459.708
1657 0 83.0713 13.8435 1150 145.903 1204.62 456.818
1658 0 85.0894 13.5975 1157 148.183 1203.79 456.527
1659 0 89.1111 13.5224 1205 147.786 1204.22 455.45
1660 0 91.1453 13.7583 1254 150.282 1203.57 454.092
1661 0 96.2442 13.8606 1334 147.901 1203.52 452.079
1662 1 50.1623 12.0409 604 149.523 1205.94 474.272
1663 0 52.1058 11.7261 611 142.092 1204.07 473.394
1664 0 54.1434 12.3376 668 149.322 1204.63 472.53
1665 0 53.063 12.3627 656 151.271 1205.14 472.386
1666 0 57.1263 12.5161 715 148.003 1203.69 471.964
1667 0 56.2426 12.2505 689 149.193 1205.05 470.901
1668 0 60.1451 12.8855 775 148.921 1204.39 469.93
1669 0 59.208 12.8023 758 144.62 1204.32 469.418
1670 0 62.2165 12.9226 804 143.471 1203.14 468.063
1671 0 65.0848 12.4914 813 146.571 1204.84 466.641
1672 0 65.2594 12.9024 842 146.852 1203.74 465.689
1673 0 69.1145 12.284 849 146.271 1202.63 465.119
1674 0 71.2594 13.3456 951 141.232 1201.32 463.117
1675 0 72.1313 12.7129 917 145.414 1204.68 463.182
1676 0 77.1914 13.0066 1004 141.339 1203.13 461.439
1677 0 77.1314 13.2242 1020 135.333 1202.44 460.108
1678 0 83.1652 12.7698 1062 145.449 1203.01 459.146
1679 1 46.2113 10.7117 495 145.075 1201.61 476.485
1680 0 48.1536 11.6294 560 146.136 1203.09 475.325
1681 0 49.0853 11.8569 582 132.512 1202.79 474.309
1682 0 51.0906 12.057 616 132.106 1204.58 472.907
1683 0 53.0236 12.2776 651 134.854 1202.84 472.505
1684 0 55.1428 12.2772 677 137.532 1202 471.978
1685 0 55.0397 12.6091 694 132.862 1203.19 471.146
1686 0 58.1336 12.5745 731 135.692 1202.97 469.341
1687 0 59.0344 12.3996 732 133.848 1203.11 469.29
1688 0 61.2601 12.7 778 139.83 1201.81 467.703
1689 0 64.1627 12.5306 804 126.384 1203.27 465.942
1690 0 65.132 12.8508 837 136.713 1201.1 465.121
1691 0 67.4054 12.996 876 126.982 1202.3 463.396
1692 0 69.1469 12.6976 878 133.42 1201.87 463.52
1693 0 72.2062 13.0875 945 137.629 1204.17 461.913
1694 0 73.1901 13.4171 982 134.758 1203.06 461.426
1695 0 77.1262 13.2121 1019 139.979 1203.08 460.626
1696 0 80.2254 13.649 1095 142.272 1203 457.969
1697 0 82.2212 13.3299 1096 140.979 1202.8 456.986
1698 0 86.1971 13.0283 1123 142.388 1203.67 456.041
1699 0 87.2379 13.1136 1144 137.827 1203.01 454.213
1700 0 92.1648 13.2046 1217 135.237 1202.7 451.429
1701 0 94.3813 13.2653 1252 140.537 1200.65 449.857
1702 1 54.1436 10.583 573 143.41 1202.02 471.962
1703 0 52.1127 10.9378 570 141.186 1203.41 471.384
1704 0 57.0698 11.4071 651 139.739 1201.86 470.885
1705 0 58.0776 11.984 696 146.662 1203.27 469.861
1706 0 59.1585 12.5088 740 148.228 1201.95 467.481
1707 0 62.1174 12.6535 786 141.265 1201.39 466.873
1708 0 63.2136 13.051 825 141.465 1205.17 466.348
1709 0 63.1879 13.0405 824 142.792 1203.82 465.501
1710 0 68.1984 12.3903 845 137.43 1203.75 463.882
1711 0 69.1087 12.5744 869 139.325 1203.17 463.445
1712 0 71.2662 13.0216 928 141.781 1204.31 462.753
1713 0 74.1103 12.9402 959 140.435 1202.13 460.993
1714 0 76.0914 13.1027 997 139.901 1203.08 460.061
1715 0 79.1414 13.3811 1059 138.32 1202.62 458.868
1716 0 82.1639 12.9132 1061 145.277 1202.57 458.063
1717 0 84.2751 13.3135 1122 141.489 1203.35 456.289
1718 0 86.1423 13.2223 1139 147.212 1203.19 456.428
1719 0 90.1496 13.4665 1214 147.905 1202.43 453.717
1720 0 93.288 13.0563 1218 152.942 1202.38 453.847
1721 0 95.2186 13.6213 1297 146.102 1205.23 450.556
1722 0 98.1653 13.2837 1304 151.274 1202.68 449.146
1723 0 101.186 13.5889 1375 142.382 1203.59 446.901
1724 0 105.214 13.5438 1425 154.19 1202.26 446.571
1725 0 107.273 13.8339 1484 153.983 1203.66 444.856
1726 0 112.368 13.616 1530 151.684 1202.24 442.551
1727 0 116.212 13.7507 1598 146.171 1202.82 438.1
1728 0 118.122 13.9855 1652 147.548 1202.44 436.748
1729 1 65.0453 11.8071 768 153.391 1202.53 464.833
1730 0 66.0712 12.426 821 158.734 1203.31 463.968
1731 0 67.0877 13.1172 880 156.197 1201.9 463.577
1732 0 72.0997 12.9959 937 156.711 1201.94 464.409
1733 0 74.1228 13.1269 973 158.555 1203.54 462.744
1734 0 77.0721 13.5198 1042 157.138 1200.92 462.2
1735 0 79.1495 13.4556 1065 153.9 1200.82 460.298
1736 0 82.3748 13.7542 1133 155.555 1203.05 458.639
1737 0 84.1404 13.7271 1155 156.658 1202.44 458.034
1738 0 88.2269 13.7373 1212 162.77 1200.93 455.706
1739 0 89.2637 14.2163 1269 157.088 1203.43 454.161
1740 0 93.1222 13.842 1289 158.74 1201.82 452.943
1741 0 97.165 13.7086 1332 161.911 1201.51 452.445
1742 0 101.289 13.5651 1374 166.107 1203.02 449.057
1743 0 104.177 13.8418 1442 163.128 1202.59 448.307
1744 0 108.302 14.2565 1544 164.614 1202.69 445.584
1745 0 112.215 14.1604 1589 65.5324 1203.5 444.216
1746 0 114.248 14.2759 1631 166.719 1203.03 443.213
1747 0 119.143 14.3105 1705 163.574 1204.48 441.287
1748 0 123.22 13.9994 1725 162.847 1204.19 439.899
1749 1 67.1149 12.6201 847 164.723 1201.92 465.556
1750 0 70.1443 13.4865 946 152.074 1202.69 464.628
1751 0 73.127 13.2099 966 158.264 1204.38 464.075
1752 0 76.0895 13.5104 1028 162.003 1204.47 463.065
1753 0 77.1453 13.3255 1028 152.857 1203.52 461.296
1754 0 79.1646 13.1372 1040 162.79 1202.18 460.519
1755 0 81.1957 13.4736 1094 164.24 1203.48 459.075
1756 0 85.1284 13.4503 1145 160.906 1203.44 457.332
1757 0 88.1936 13.2436 1168 158.111 1203.53 456.531
1758 0 89.2225 13.6176 1215 156.146 1203.75 455.055
1759 0 92.1735 13.3661 1232 154.704 1204.2 454.467
1760 0 96.2137 13.8026 1328 157.92 1203.97 451.925
1761 0 99.2136 13.476 1337 163.2 1203.88 450.534
1762 0 102.249 13.4672 1377 159.816 1203.51 448.065
1763 0 105.208 13.7632 1448 159.021 1204.39 447.392
1764 0 110.152 13.2363 1458 166.77 1204.02 445.662
1765 0 112.19 13.9049 1560 159.714 1203.82 443.981
1766 1 60.0444 12.3409 741 163.067 1202.11 469.467
1767 0 63.0538 12.7034 801 160.361 1202.48 468.8
1768 0 64.1829 12.8383 824 151.519 1202.07 467.951
1769 0 65.2021 13.0364 850 157.891 1203.99 467.598
1770 0 68.1324 13.415 914 156.674 1203.34 465.765
1771 0 71.2375 13.3778 953 151.134 1203.9 464.237
1772 0 73.1624 13.3949 980 157.135 1203.7 463.365
1773 0 77.1689 13.3214 1028 160.677 1205.34 461.703
1774 0 80.1132 13.1814 1056 158.773 1204.58 460.55
1775 0 81.1029 13.6493 1107 163.687 1204.3 459.622
1776 0 84.1412 13.9646 1175 167.665 1202.47 457.94
1777 0 87.0806 13.6655 1190 165.281 1202.6 457.26
1778 0 90.3335 14.1144 1275 154.158 1202.4 455.246
1779 0 94.2552 13.9197 1312 160.692 1204.16 453.615
1780 0 96.2315 14.1014 1357 167.708 1203.48 452.069
1781 0 100.145 13.8899 1391 168.551 1203.44 450.742
1782 0 102.345 14.0407 1437 161.221 1199.97 448.994
1783 0 105.209 14.1623 1490 163.009 1203.1 447.457
1784 0 106.287 14.2162 1511 159.785 1202.79 445.403
1785 0 111.35 14.3601 1599 159.635 1202.83 443.62
1786 0 116.343 14.2338 1656 161.367 1204.15 441.484
1787 0 119.149 14.0328 1672 162.446 1203.84 440.373
1788 0 123.128 14.0585 1731 157.234 1203.08 437.28
1789 1 70.0919 12.8546 901 153.324 1201.2 465.511
1790 0 68.1392 13.4578 917 168.298 1201.52 464.493
1791 0 73.139 13.3308 975 155.39 1201.14 462.792
1792 0 76.0692 13.9478 1061 152.338 1200.47 461.868
1793 0 80.216 13.688 1098 160.139 1200.8 460.895
1794 0 81.1747 13.8467 1124 165.048 1201.34 459.75
1795 0 85.1084 13.6062 1158 157.715 1201 458.39
1796 0 87.2633 13.7057 1196 161.767 1202.8 455.647
1797 0 89.1025 13.3554 1190 162.033 1202.08 455.075
1798 0 92.156 13.6399 1257 159.312 1201.21 451.908
1799 0 96.1971 13.5867 1307 154.266 1202.07 449.878
1800 0 99.0991 13.8548 1373 159.575 1201.3 448.234
1801 1 53.3118 12.5863 671 165.136 1201.97 472.723
1802 0 53.3461 13.1219 700 164.96 1201.86 472.251
1803 0 56.1042 13.1185 736 163.974 1204.42 472.326
1804 0 57.0836 12.981 741 163.804 1203.77 471.679
1805 0 59.1121 13.449 795 164.444 1201.77 470.633
1806 0 60.0572 13.5371 813 164.148 1199.82 470.064
1807 0 62.1279 13.6654 849 159.545 1200.9 469.432
1808 0 63.0335 13.7229 865 165.631 1200.56 468.271
1809 0 66.0619 13.9415 921 160.619 1201 467.351
1810 0 67.0529 14.0486 942 160.716 1203.75 465.823
1811 0 70.1166 14.0623 986 162.489 1201.24 465.142
1812 0 73.1167 13.8546 1013 162.373 1200.63 463.921
1813 0 74.202 14.1101 1047 164.223 1201.17 461.634
1814 0 78.1523 14.1902 1109 162.563 1201.43 460.316
1815 0 81.1388 13.557 1100 159.543 1203.01 458.871
1816 0 82.233 14.0455 1155 162.127 1202.19 457.61
1817 0 86.0942 14.0776 1212 162.436 1203.77 456.256
1818 0 90.0918 13.8525 1248 162.125 1204.6 455.789
1819 1 48.0633 12.2339 588 166.425 1204.16 476.337
1820 0 48.0949 12.9328 622 163.585 1202.44 475.617
1821 0 50.0249 12.9536 648 166.032 1200.08 475.778
1822 0 50.0355 13.4105 671 156.848 1200.25 475.064
1823 0 51.031 13.5016 689 159.829 1201.6 473.897
1824 0 52.0482 13.2954 692 156.825 1201.27 473.78
1825 0 54.0947 13.1806 713 159.362 1202.41 473.331
1826 0 56.1575 13.0526 733 158.218 1201.32 472.217
1827 0 58.0723 13.311 773 165.558 1200.12 471.934
1828 0 59.1672 13.4027 793 159.349 1202.54 470.165
1829 0 61.1083 13.4515 822 155.251 1201.26 469.815
1830 0 61.1076 13.6153 832 159.335 1203.56 468.927
1831 0 65.1214 13.2061 860 157.127 1203.53 467.577
1832 0 66.1233 13.1875 872 159.266 1202.51 467.431
1833 0 69.2268 13.7086 949 150.911 1203 465.464
1834 0 71.088 13.8983 988 152.128 1204.85 465.187
1835 0 73.083 13.3547 976 156.529 1204.03 464.032
1836 0 76.1721 13.4564 1025 156.7 1203.73 462.706
1837 0 79.155 13.2146 1046 155.447 1203.59 461.139
1838 0 81.1522 13.7643 1117 150.066 1204.34 459.842
1839 0 84.2609 13.4938 1137 160.644 1203.73 457.412
1840 0 88.299 13.4769 1190 157.529 1204.5 456.38
1841 0 89.2068 13.7209 1224 155.611 1205.17 454.453
1842 0 93.234 13.6002 1268 155.919 1204.26 452.789
1843 0 97.2203 13.1248 1276 148.521 1203.33 450.716
1844 0 101.229 13.6128 1378 149.441 1205.73 449.483
1845 0 104.219 13.5005 1407 151.433 1205.05 448.308
1846 1 54.0525 12.7839 691 156.611 1203.82 471.431
1847 0 58.0496 12.4032 720 151.832 1203.72 470.246
1848 0 58.1609 13.2563 771 156.792 1202.22 469.796
1849 0 61.0559 12.7588 779 155.461 1201.26 468.51
1850 0 64.1448 12.9239 829 152.487 1200.65 467.363
1851 0 65.105 12.7947 833 152.791 1200.64 465.752
1852 0 66.1197 13.2033 873 150.258 1200.31 464.395
1853 0 69.2382 13.1141 908 148.808 1201.08 461.88
1854 0 70.1651 12.9552 909 152.112 1202.45 461.504
1855 0 73.2413 12.8343 940 147.331 1202.63 460.307
1856 0 76.1827 13.1263 1000 145.181 1200.22 458.682
1857 0 78.1938 13.4026 1048 144.605 1202.18 456.263
1858 0 80.2889 12.9781 1042 144.278 1202.92 454.184
1859 0 85.2463 13.3026 1134 148.081 1204.38 452.323
1860 0 87.3677 13.1399 1148 149.49 1202.86 452.221
1861 0 90.296 13.1567 1188 155.586 1203.82 450.868
1862 0 91.1793 13.446 1226 154.677 1204.93 449.851
1863 0 96.1089 13.3702 1285 154.737 1201.9 448.093
1864 0 99.1379 13.6577 1354 164.984 1200.58 445.675
1865 0 103.214 13.5349 1397 162.252 1201.14 443.89
1866 0 104.209 13.7416 1432 159.527 1201.15 442.756
1867 0 108.197 13.7619 1489 156.717 1201.19 441.272
1868 0 111.273 13.4714 1499 155.089 1203.26 439.965
1869 0 117.327 13.603 1596 156.976 1201.59 436.956
1870 0 119.36 13.4802 1609 143.314 1200.22 435.47
1871 0 127.156 14.5963 1856 145.456 1199.52 430.595
1872 0 131.41 15.5772 2047 149.665 1198.43 431.38
1873 1 71.123 12.1199 862 146.206 1201.39 462.406
1874 0 71.1534 12.6487 900 151.76 1201.43 461.413
1875 0 76.256 12.8646 981 149.298 1199.35 460.502
1876 0 78.1876 12.6747 991 153.647 1202.34 458.51
1877 0 80.1045 13.2327 1060 137.609 1201.9 456.472
1878 0 84.2581 13.0433 1099 147.502 1203.6 456.317
1879 0 87.1261 13.2796 1157 146.463 1202.93 455.282
1880 0 86.4614 13.3586 1155 144.119 1201.86 454.187
1881 0 92.4174 13.201 1220 149.757 1202.35 452.273
1882 0 95.501 12.9004 1232 148.62 1201.79 450.494
1883 0 97.3489 13.2821 1293 149.614 1202.47 450.062
1884 0 100.412 13.5242 1358 151.636 1202.22 447.39
1885 0 105.366 13.2395 1395 155.662 1201.14 446.593
1886 0 108.398 13.3213 1444 154.15 1201.6 445.28
1887 0 111.557 13.6254 1520 152.197 1203.74 442.934
1888 0 115.42 13.5332 1562 151.869 1202.53 441.007
1889 0 119.304 13.6122 1624 153.618 1202.41 439.341
1890 1 62.3867 11.3967 711 154.331 1203.71 467.113
1891 0 64.2485 11.8913 764 154.77 1204.65 467.942
1892 0 68.1177 12.1701 829 151.575 1203.24 466.671
1893 0 70.1944 12.9782 911 147.858 1201.75 464.327
1894 0 71.1029 12.4889 888 149.054 1202.74 464.402
1895 0 74.135 12.5717 932 147.992 1202.09 462.649
1896 0 77.1438 12.8591 992 142.762 1202.76 460.221
1897 0 78.1176 12.8268 1002 142.596 1202.59 459.01
1898 0 80.2982 12.466 1001 147.456 1203.08 459.185
1899 0 83.1258 12.7036 1056 147.131 1203.81 458.344
1900 0 85.0968 12.9617 1103 137.406 1202.91 454.493
1901 0 87.2901 12.6246 1102 147.739 1202.65 455.141
1902 0 91.3109 12.5724 1148 142.309 1201.62 452.861
1903 0 94.1942 13.1537 1239 148.133 1201.94 448.861
1904 0 96.2981 13.209 1272 138.485 1201.13 448.007
1905 0 100.224 13.0707 1310 146.33 1201.95 448.779
1906 0 102.435 13.1303 1345 144.44 1202.61 447.928
1907 0 105.266 13.1477 1384 148.116 1203.58 445.072
1908 0 108.304 13.1297 1422 143.17 1206.38 444.433
1909 0 109.19 13.4537 1469 142.048 1204.74 442.689
1910 0 115.207 12.8985 1486 146.312 1201.64 440.365
1911 0 117.412 13.5336 1589 144.57 1202.72 438.795
1912 0 122.237 13.482 1648 148.425 1203.94 436.183
1913 0 126.179 13.6077 1717 142.744 1204.27 435.128
1914 1 67.157 12.2846 825 150.354 1203.7 465.61
1915 0 68.2313 13.2051 901 154.196 1204.7 464.074
1916 0 73.1795 12.9408 947 156.283 1203.31 462.728
1917 0 74.3192 13.2402 984 158.117 1203.27 461.844
1918 0 75.3819 13.4913 1017 157.439 1200.98 460.328
1919 0 78.4314 13.413 1052 153.894 1200.34 458.866
1920 0 81.1922 13.6959 1112 155.823 1200.98 456.765
1921 0 85.3859 13.2809 1134 158.556 1202.34 456.272
1922 0 86.4975 13.2489 1146 152.408 1201.28 455.079
1923 0 88.2142 13.6033 1200 165.062 1203.11 454.136
1924 0 92.4036 13.5817 1255 159.558 1202.22 451.751
1925 0 95.4478 13.6305 1301 154.325 1202.56 448.846
1926 0 97.4448 14.0182 1366 156.395 1202.33 446.66
1927 0 101.287 13.6642 1384 158.454 1202.44 445.772
1928 0 105.396 13.7956 1454 158.984 1201.99 444.968
1929 0 108.286 13.6583 1479 161.615 1202.38 444.416
1930 1 54.2919 12.7275 691 160.292 1201.36 468.47
1931 0 57.3463 12.6774 727 151.96 1203.56 467.542
1932 0 60.0692 12.752 766 152.898 1202.97 468.638
1933 0 61.164 13.2267 809 150.743 1201.62 467.486
1934 0 64.1528 13.1561 844 146.966 1202.72 465.522
1935 0 66.1636 13.0132 861 149.689 1202.12 465.312
1936 0 69.1224 13.0638 903 148.863 1204.19 463.746
1937 0 70.2035 13.2899 933 146.415 1203.75 462.915
1938 0 71.3308 13.2621 946 151.562 1202.9 461.086
1939 0 75.2084 12.8177 964 152.261 1203.5 460.47
1940 0 76.1294 13.1749 1003 147.733 1202.26 458.658
1941 0 79.1948 13.6751 1083 147.764 1201.49 457.354
1942 0 81.2396 13.7248 1115 146.856 1202.73 456.245
1943 0 85.2383 13.4447 1146 143.811 1203.59 454.779
1944 0 87.1855 13.3738 1166 148.74 1204.23 451.103
1945 0 90.2487 13.5182 1220 150.837 1201.86 449.534
1946 0 93.3352 13.5319 1263 156.065 1202.2 449.017
1947 0 96.4712 13.3097 1284 148.419 1202.75 446.938
1948 0 99.4664 13.6529 1358 147.169 1201.43 445.131
1949 0 102.683 14.0628 1444 148.153 1203.16 443.401
1950 0 104.34 13.5807 1417 145.481 1203.58 441.85
1951 0 107.456 13.5404 1455 155.498 1204.28 441.137
1952 0 113.195 13.7815 1560 149.951 1203.62 439.113
1953 1 59.1023 11.387 673 151.003 1202.37 464.487
1954 0 62.1624 12.7247 791 155.01 1205.52 464.346
1955 0 64.1585 13.1549 844 155.077 1203.02 462.512
1956 0 67.151 12.4198 834 147.746 1203.74 461.428
1957 0 69.2256 13.0299 902 149.99 1205.1 460.163
1958 0 72.1172 13.0759 943 157.187 1204.71 458.764
1959 0 74.2095 13.2059 980 156.059 1202.62 458.171
1960 0 77.0996 13.502 1041 157.982 1204.48 456.727
1961 0 83.0688 13.0494 1084 148.129 1203.1 457.195
1962 0 84.1951 13.6469 1149 145.262 1204.38 454.952
1963 0 86.2568 13.6221 1175 159.896 1205.55 454.46
1964 0 89.2475 13.9276 1243 155.911 1206.16 452.732
1965 0 95.1477 13.169 1253 161.765 1205.21 450.741
1966 0 97.1889 13.7979 1341 160.587 1203.16 449.586
1967 0 100.099 13.6865 1370 157.121 1203.61 446.928
1968 0 104.479 13.7636 1438 150.605 1203.02 445.869
1969 0 106.269 13.8704 1474 151.483 1203.58 443.472
1970 0 110.155 13.6626 1505 153.409 1204.05 441.438
1971 0 115.267 13.2562 1528 142.695 1204.36 437.812
1972 1 60.2753 11.3147 682 151.784 1202.94 463.037
1973 0 65.2018 11.8862 775 146.974 1200 461.545
1974 0 64.2264 12.5027 803 146.308 1201.78 460.857
1975 0 68.1858 12.3779 844 136.915 1201.1 459.038
1976 0 69.2091 12.3972 858 150.925 1203.62 459.209
1977 0 73.2874 13.0172 954 150.857 1204.12 459.639
1978 0 77.2099 13.2884 1026 146.813 1204.62 457.973
1979 0 80.3076 12.8506 1032 150.183 1203.1 456.722
1980 0 80.442 13.2021 1062 154.282 1205.13 456.229
1981 0 85.4857 13.3356 1140 157.68 1204.07 454.001
1982 0 85.5093 13.8932 1188 136.921 1204.73 451.566
1983 0 91.4562 13.6349 1247 152.269 1201.24 450.392
1984 0 92.3704 13.4242 1240 154.671 1203.75 450.413
1985 0 97.3229 13.0493 1270 159.966 1204 449.054
1986 0 99.2928 13.2034 1311 161.476 1203.09 446.994
1987 0 104.248 13.324 1389 157.624 1202.71 445.687
1988 0 105.314 13.569 1429 159.584 1202.29 443.253
1989 0 110.519 13.5271 1495 159.159 1203.47 441.711
1990 0 111.383 13.8621 1544 152.107 1202.8 440.759
1991 0 117.352 13.5234 1587 149.364 1203.63 438.887
1992 0 121.218 14.7173 1784 147.445 1203.93 434.59
1993 0 126.217 13.5798 1714 157.159 1203.67 434.56
1994 0 129.2 13.87 1792 153.661 1203.41 430.797
1995 1 66.2891 12.2343 811 155.975 1201.86 462.996
1996 0 69.3198 12.2909 852 157.049 1204.06 463.038
1997 0 71.0435 12.6683 900 153.37 1202.56 462.21
1998 0 73.1032 12.7765 934 150.878 1204.71 460.116
1999 0 76.0893 12.8796 980 152.883 1202.07 460.364
2000 0 77.3566 12.8237 992 156.75 1201.02 458.467
2001 0 79.121 13.0307 1031 145.444 1202.85 457.882
2002 0 81.1845 13.1183 1065 151.33 1205.91 455.974
2003 0 84.3292 12.7121 1072 152.535 1204.1 454.889
2004 0 87.3201 13.5479 1183 152.393 1202.46 453.027
2005 0 87.4543 13.2412 1158 157.715 1203.58 452.641
2006 0 91.1639 13.4483 1226 149.79 1201.17 450.258
2007 0 95.1211 13.6353 1297 149.763 1202.53 449.19
2008 0 96.31 13.0827 1260 157.33 1202.4 448.938
2009 0 100.307 14.4157 1446 149.996 1203.67 444.904
2010 0 102.557 13.1634 1350 149.447 1204.01 444.793
2011 0 106.577 13.0704 1393 147.234 1204.73 443.986
2012 0 109.57 14.4656 1585 152.972 1202.9 440.92
2013 0 111.328 13.1143 1460 150.408 1203.71 438.714
2014 1 57.0591 11.9175 680 141.375 1202.65 466.351
2015 0 57.1543 12.2301 699 146.089 1203.21 464.694
2016 0 60.1948 12.4762 751 138.076 1203.52 464.903
2017 0 62.2212 12.6966 790 141.928 1203.7 463.532
2018 0 64.2257 12.9232 830 152.283 1206.52 463.011
2019 0 66.1884 13.0083 861 150.858 1205.15 463.006
2020 0 70.3175 12.6142 887 156.884 1205.96 465.095
2021 0 71.233 13.4208 956 155.919 1203.35 463.923
2022 0 72.2636 13.2847 960 152.581 1203.72 461.621
2023 0 73.1879 13.6908 1002 158.321 1204.43 461.512
2024 0 76.2834 13.0697 997 155.139 1203.53 460.618
2025 0 77.4072 13.2417 1025 160.453 1201.14 459.63
2026 0 80.8111 13.4264 1085 161.077 1202.79 458.263
2027 0 82.5272 13.6076 1123 161.654 1201.43 457.629
2028 0 83.3285 13.8128 1151 152.036 1202.72 456.659
2029 0 86.5818 14.033 1215 156.195 1203.74 455.29
2030 0 88.2533 13.6426 1204 154.686 1202.96 453.807
2031 0 91.3977 13.9391 1274 162.524 1202.71 453.177
2032 0 95.5513 14.8507 1419 159.063 1203.45 450.194
2033 0 94.3291 14.3434 1353 161.466 1204.23 450.808
2034 0 99.3989 14.2557 1417 161.128 1203.91 448.291
2035 0 100.66 13.7791 1387 151.681 1204.38 447.235
2036 0 104.371 14.1897 1481 151.435 1204.21 445.828
2037 0 106.604 14.2959 1524 162.136 1204.03 444.571
2038 0 111.633 14.1088 1575 155.647 1204.56 443.035
2039 0 115.793 14.1373 1637 157.464 1204.55 441.13
2040 0 116.758 14.4487 1687 154.618 1204.38 438.15
2041 0 122.447 14.2838 1749 161.483 1204.55 436.613
2042 1 63.33 13.1375 832 159.156 1204.88 466.25
2043 0 65.2809 13.2811 867 157.341 1204.22 465.576
2044 0 68.2737 13.0797 893 158.346 1206.5 464.361
2045 0 70.3859 12.9145 909 154.331 1206.3 464.162
2046 0 72.1 13.0236 939 153.053 1205.41 462.583
2047 0 75.1366 13.4422 1010 157.204 1206.11 461.793
2048 0 77.3031 13.3759 1034 155.522 1205.13 459.816
2049 0 80.3077 13.523 1086 150.672 1204.37 457.447
2050 0 83.3716 13.6617 1139 153.079 1203.7 457.108
2051 0 85.4508 13.458 1150 156.419 1203.52 455.542
2052 0 88.3967 13.7222 1213 149.1 1204.07 454.391
2053 0 91.2903 13.4626 1229 151.534 1204.94 453.43
2054 0 93.3831 13.7605 1285 153.845 1203.28 451.505
2055 0 97.3339 13.5616 1320 150.394 1203.11 450.299
2056 0 100.339 13.3746 1342 147.045 1203 448.072
2057 1 51.1983 12.4418 637 160.372 1202.68 472.322
2058 0 54.4037 12.4992 680 155.825 1204.36 471.926
2059 0 55.1754 13.3574 737 155.669 1203.92 470.141
2060 0 57.1224 12.9196 738 149.932 1204.12 469.448
2061 0 59.201 13.5977 805 165.486 1203.62 469.508
2062 0 63.1933 13.4191 848 161.764 1201.78 467.921
2063 0 64.23 13.7475 883 163.891 1204.55 467.411
2064 0 68.1704 13.3782 912 163.195 1203.28 466.277
2065 0 69.1878 13.3694 925 152.519 1202.14 465.254
2066 0 71.2125 13.7616 980 160.536 1202.81 463.921
2067 0 73.1934 13.963 1022 167.075 1202.65 463.182
2068 0 78.2136 13.5654 1061 163.214 1202.51 461.659
2069 0 80.1771 13.2956 1066 156.931 1201.72 461.475
2070 0 81.2608 13.992 1137 151.623 1202.57 459.307
2071 0 81.0619 13.977 1133 158.81 1204.2 458.455
2072 0 87.2592 13.7865 1203 165.51 1204.53 456.197
2073 0 90.2843 13.4132 1211 164.902 1203.16 455.29
2074 0 94.3207 13.4965 1273 163.022 1205.51 453.001
2075 0 93.1325 13.9693 1301 160.374 1206.17 451.464
2076 1 47.1316 12.4757 588 164.906 1206.57 473.828
2077 0 51.1188 13.1263 671 161.155 1206.25 472.38
2078 0 51.0174 13.0544 666 159.496 1205.31 471.812
2079 0 52.045 13.2578 690 152.119 1203.69 470.938
2080 0 55.0223 13.0493 718 163.978 1204.85 470.408
2081 0 56.1224 13.6131 764 166.137 1203.8 470.366
2082 0 58.1714 13.5978 791 159.862 1203.39 468.7
2083 0 60.0658 13.7183 824 160.586 1204.49 468.214
2084 0 63.0811 13.5381 854 161.083 1204.26 466.804
2085 0 63.135 13.9226 879 162.198 1204.24 466.018
2086 0 64.1869 14.1618 909 162.059 1203.91 464.815
2087 0 69.112 13.6301 942 159.086 1204.28 463.208
2088 0 70.1319 13.9452 978 159.352 1204.93 461.714
2089 0 72.1181 13.8246 997 159.59 1204.09 460.137
2090 0 74.0988 13.9004 1030 158.798 1204.49 459.101
2091 0 76.4286 13.8953 1062 161.704 1204.52 458.701
2092 0 79.4996 13.4969 1073 157.927 1203.69 457.166
2093 0 80.1459 13.7499 1102 159.838 1206.5 456.694
2094 0 85.3566 13.9884 1194 152.645 1205.3 455.498
2095 0 86.3057 13.9852 1207 153.187 1206.5 454.485
2096 0 88.3448 13.6058 1202 160.681 1206.6 453.401
2097 0 93.2391 13.6102 1269 158.043 1205.04 451.697
2098 0 97.301 13.6278 1326 152.968 1205.35 449.643
2099 1 51.3147 12.2187 627 153.309 1204.34 472.289
2100 0 52.2105 12.8518 671 151.577 1204.61 471.976
2101 0 53.4416 12.93 691 142.425 1204.91 471.741
2102 0 55.2639 13.2817 734 149.14 1204.22 470.811
2103 0 57.1776 13.082 748 152.295 1204.89 470.334
2104 0 57.1557 13.9619 798 151.498 1203.63 469.961
2105 0 59.0815 13.6422 806 153.189 1204.12 468.819
2106 0 61.2471 13.1925 808 151.552 1205.59 468.265
2107 0 63.1701 13.155 831 150.455 1203.71 466.554
2108 0 64.2233 13.889 892 145.453 1204.5 465.947
2109 0 67.2133 13.3307 896 145.664 1205.55 464.915
2110 0 70.1676 13.425 942 152.069 1203.11 463.672
2111 0 72.2262 13.4716 973 146.439 1204.75 462.101
2112 0 75.1563 13.891 1044 151.53 1204.29 460.641
2113 0 76.3149 13.4836 1029 155.447 1203.78 460.216
2114 0 80.1427 13.4385 1077 147.493 1205.64 458.749
2115 0 80.1572 13.8353 1109 148.592 1203.64 457.632
2116 0 86.1388 13.5711 1169 154.353 1203.1 456.504
2117 0 88.1558 13.5555 1195 161.544 1203.14 456.119
2118 0 92.2531 13.4304 1239 162.011 1202.28 454.027
2119 0 93.198 14.0346 1308 159.801 1203.61 451.702
2120 1 51.1228 12.7536 652 161.339 1201.67 472.548
2121 0 52.1592 13.2863 693 150.89 1203.56 471.941
2122 0 54.0666 13.7053 741 164.618 1205.17 472.086
2123 0 54.1615 13.6075 737 154.494 1204.54 471.558
2124 0 55.1882 13.5536 748 162.655 1204.22 471.162
2125 0 56.1088 13.7412 771 157.281 1203.18 470.084
2126 0 59.1301 13.631 806 163.892 1203.5 469.259
2127 0 61.1406 13.7225 839 161.685 1204.84 468.563
2128 0 63.2967 13.887 879 157.429 1204.23 467.049
2129 0 64.224 14.0913 905 147.922 1203.51 465.318
2130 0 68.2738 13.7974 942 156.63 1203.71 464.203
2131 0 71.1974 13.9612 994 158.675 1203.64 462.898
2132 0 71.1769 14.3867 1024 155.935 1203.28 461.655
2133 0 76.4671 14.346 1097 156.624 1204.83 461.143
2134 0 77.3301 14.1859 1097 160.176 1206.15 460.169
2135 0 80.3229 14.7156 1182 151.189 1204.6 458.91
2136 0 83.1642 14.0204 1166 158.425 1204.64 456.716
2137 0 87.4381 14.3073 1251 154.989 1206.66 455.237
2138 0 88.1672 14.2457 1256 156.525 1206.09 453.799
2139 0 94.1032 14.3778 1353 160.433 1205.05 451.199
2140 1 49.1985 12.602 620 149.44 1204.64 473.326
2141 0 51.405 13.2866 683 157.786 1204.66 472.943
2142 0 51.372 13.8402 711 149.951 1203.57 471.882
2143 0 53.2065 13.551 721 154.288 1203.92 471.125
2144 0 55.113 13.6991 755 155.405 1204.47 469.927
2145 0 56.1099 13.6518 766 154.679 1204.96 469.662
2146 0 58.308 14.0633 820 152.51 1204.6 468.624
2147 0 61.3373 13.76 844 156.502 1203.17 467.276
2148 0 63.1742 13.9772 883 151.385 1203.52 466.119
2149 0 64.1512 13.9047 892 162.167 1203.98 466.128
2150 0 68.1002 13.9941 953 152.273 1202.44 464.294
2151 0 69.2019 14.2771 988 158.214 1203.65 462.804
2152 0 72.2191 13.5698 980 152.531 1205.44 461.755
2153 0 73.2754 14.0293 1028 161.96 1204.27 461.015
2154 0 77.2939 14.115 1091 156.821 1204.54 459.15
2155 0 80.3691 13.7615 1106 164.437 1205.54 459.205
2156 0 80.6244 13.9536 1125 160.34 1205.54 457.712
2157 0 84.389 13.7814 1163 156.863 1205.97 456.211
2158 0 87.3589 13.6449 1192 159.94 1205.12 455.109
2159 0 89.4009 13.8925 1242 159.958 1203.05 453.585
2160 0 92.2677 13.8076 1274 157.365 1202.9 452.045
2161 0 93.2345 14.2329 1327 156.956 1203.81 450.401
2162 0 96.1898 14.3986 1385 159.201 1203.3 449.879
2163 0 101.307 14.4116 1460 156.208 1204.34 447.15
2164 0 105.597 14.1102 1490 157.081 1207.09 445.726
2165 1 56.2119 13.3068 748 155.984 1203.1 468.465
2166 0 58.3245 13.2534 773 156.437 1203.73 468.115
2167 0 61.1287 13.5288 827 154.9 1202.96 467.393
2168 0 62.0723 13.8709 861 149.765 1202.85 466.182
2169 0 66.0968 13.798 912 149.812 1204.62 465.604
2170 0 67.1197 13.7963 926 153.225 1204.37 464.571
2171 0 69.1478 14.2015 982 152.778 1205.41 463.215
2172 0 71.2758 14.1142 1006 148.568 1203.29 461.669
2173 0 73.1037 13.8707 1014 152.226 1204.53 460.878
2174 0 74.2594 14.4224 1071 149.58 1206.36 460.457
2175 0 78.412 14.0285 1100 152.497 1205.99 459.297
2176 0 80.124 14.5649 1167 153.71 1205.21 457.186
2177 0 83.243 14.5237 1209 150.251 1203.25 456.154
2178 0 84.2762 14.6186 1232 150.959 1204.01 454.144
2179 0 90.1521 14.0318 1265 154.846 1203.82 452.221
2180 0 91.2898 14.6019 1333 156.685 1203.11 450.968
2181 0 95.1262 14.3599 1366 157.26 1206.16 449.84
2182 0 98.1457 14.4479 1418 157.455 1204.59 448.197
2183 0 103.118 14.5658 1502 145.848 1203.95 445.845
2184 0 106.292 14.0556 1494 147.05 1204.36 444.428
2185 0 111.098 14.1947 1577 154.668 1203.77 441.996
2186 0 113.145 14.4947 1640 106.066 1201.84 440.071
2187 0 117.361 14.3829 1688 142.962 1205.12 438.145
2188 1 62.1462 12.5832 782 156.301 1204.84 466.049
2189 0 63.1119 13.3572 843 152.921 1204.36 465.652
2190 0 65.1221 13.7588 896 163.174 1204.03 464.157
2191 0 68.1466 13.7351 936 161.251 1204.23 463.165
2192 0 70.0937 13.9242 976 166.596 1203.39 462.637
2193 0 72.1488 13.9157 1004 159.786 1204.34 460.364
2194 0 76.1025 13.8892 1057 157.331 1204.28 460.118
2195 0 76.1128 14.15 1077 168.53 1203.38 458.735
2196 0 80.3377 13.9536 1121 158.858 1204.24 457.253
2197 0 84.2244 14.2833 1203 159.436 1203.65 455.242
2198 0 85.2406 13.9018 1185 160.066 1204.33 454.457
2199 0 90.1382 14.2004 1280 162.999 1203.03 452.797
2200 0 93.0996 14.1891 1321 162.384 1203.07 450.601
2201 0 95.2832 14.3992 1372 159.669 1203.38 449.06
2202 0 100.252 14.1144 1415 160.743 1204.64 447.189
2203 0 101.211 14.0894 1426 153.414 1203.5 445.724
2204 1 55.069 12.5116 689 161.874 1203.8 468.807
2205 0 54.2466 13.4202 728 151.566 1203.29 468.413
2206 0 59.056 13.1062 774 153.32 1203.07 467.162
2207 0 61.1752 13.1916 807 157.296 1203.86 466.233
2208 0 61.0996 13.6662 835 156.01 1204.52 465.04
2209 0 62.1622 13.7543 855 147.247 1204.86 464.352
2210 0 66.2086 13.6991 907 142.485 1206.68 462.819
2211 0 67.1246 14.1677 951 149.011 1203.35 461.754
2212 0 71.2426 13.9383 993 153.037 1204.02 460.469
2213 0 73.043 13.9233 1017 148.163 1202.88 458.926
2214 0 76.1972 14.1344 1077 152.634 1204.67 457.935
2215 0 81.1743 13.9823 1135 152.676 1203.79 456.974
2216 0 82.3485 14.2686 1175 148.009 1204.68 455.371
2217 0 85.2101 14.118 1203 153.243 1203.53 452.657
2218 0 89.2689 14.1595 1264 154.445 1203.11 452.965
2219 0 91.2021 14.1554 1291 124.346 1204.18 451.213
2220 0 95.1892 14.3714 1368 157.238 1203.19 449.177
2221 0 98.2332 14.2925 1404 158.694 1203.75 447.452
2222 0 103.452 14.1418 1463 158.936 1202.75 444.977
2223 1 57.0371 11.9922 684 159.754 1205.12 468.085
2224 0 58.1011 12.8913 749 154.927 1203.82 467.741
2225 0 60.0908 13.4962 811 151.978 1202.81 466.407
2226 0 60.2208 13.5003 813 159.938 1201.96 465.87
2227 0 63.1869 13.6421 862 159.726 1203.03 464.849
2228 0 64.1499 13.6087 873 159.85 1203.5 463.373
2229 0 69.1372 13.2201 914 158.87 1202.53 461.236
2230 0 69.154 13.6362 943 165.328 1205.45 460.883
2231 0 72.2018 13.3099 961 168.034 1203.53 459.738
2232 0 74.1914 13.5865 1008 155.684 1203.96 459.03
2233 0 75.1882 13.6724 1028 150.224 1201.53 457.476
2234 0 79.3427 13.322 1057 160.71 1203.63 456.644
2235 0 80.1382 13.8511 1110 155.922 1203.94 455.601
2236 0 84.2394 13.5091 1138 151.272 1204.43 454.178
2237 0 86.1803 13.5878 1171 151.412 1203.18 453.046
2238 0 88.2126 13.8189 1219 149.335 1203.08 451.342
2239 0 91.2687 13.3781 1221 150.64 1203.29 449.391
2240 0 94.1814 13.3997 1262 148.767 1205.23 448.868
2241 0 97.1654 13.688 1330 144.254 1205.78 446.939
2242 0 99.1686 13.5628 1345 152.978 1202.78 444.602
2243 0 103.185 13.2287 1365 148.464 1202.58 443.026
2244 0 105.216 13.534 1424 148.699 1203.4 440.42
2245 1 57.0996 11.6638 666 148.581 1205.19 465.404
2246 0 57.1063 12.2403 699 146.396 1204.21 464.421
2247 0 58.1717 13.082 761 144.928 1204.7 464.514
2248 0 61.1846 13.1079 802 143.843 1204.57 463.885
2249 0 66.258 12.9645 859 144.502 1206.13 462.886
2250 0 65.2885 13.3561 872 140.323 1204.5 461.163
2251 0 69.1977 12.8328 888 145.416 1206.04 460.083
2252 0 71.2757 13.104 934 143.339 1204.06 458.555
2253 0 75.232 12.9732 976 145.72 1201.72 457.8
2254 0 76.2627 13.1781 1005 147.993 1202.94 455.863
2255 0 78.2303 13.0512 1021 148.073 1202.04 455.667
2256 0 80.1606 13.3482 1070 148.044 1202.33 454.201
2257 0 85.3029 13.2821 1133 144.162 1203.23 452.793
2258 0 87.1888 13.4077 1169 145.898 1202.54 450.982
2259 0 91.2832 13.2335 1208 150.791 1202.07 450.04
2260 1 48.0592 11.3194 544 155.436 1203.64 470.278
2261 0 50.1195 11.9913 601 151.889 1202.12 469.945
2262 0 52.2133 12.5639 656 150.698 1203.64 467.489
2263 0 55.0559 12.3329 679 149.362 1201.95 467.392
2264 0 55.0281 13.1933 726 147.733 1203.18 467.463
2265 0 58.1461 12.7782 743 146.023 1204.43 465.892
2266 0 60.0975 12.6461 760 153.524 1205.49 465.066
2267 0 61.1533 13.1964 807 146.855 1204.39 463.586
2268 0 64.1592 13.108 841 148.937 1205.81 462.968
2269 0 63.1259 13.1959 833 147.071 1203.33 461.594
2270 0 66.0512 13.3079 879 146.537 1199.73 461.014
2271 0 71.045 13.0903 930 151.571 1202.53 459.891
2272 0 71.1221 13.1886 938 153.143 1203.03 458.681
2273 0 74.2689 13.5723 1008 150.713 1202.64 456.639
2274 0 77.068 13.3778 1031 151.265 1203.87 456.151
2275 0 80.2837 13.3651 1073 147.554 1204.05 454.792
2276 0 81.148 13.5062 1096 152.922 1203.83 453.188
2277 0 84.1446 13.0133 1095 152.351 1203.51 452.974
2278 0 86.1248 13.0276 1122 150.34 1204.26 451.668
2279 0 88.1402 13.1382 1158 148.218 1204.3 450.336
2280 0 90.3854 13.5973 1229 146.679 1203.91 448.192
2281 0 93.177 13.2651 1236 149.348 1205.5 447.67
2282 0 97.2572 13.3666 1300 148.591 1204.23 445.083
2283 0 98.1226 13.5647 1331 149.626 1206.44 443.497
2284 0 103.311 13.3577 1380 144.138 1205.41 441.513
2285 0 107.155 13.3545 1431 151.493 1206.86 439.755
2286 0 111.085 13.3771 1486 142.925 1206.78 437.99
2287 1 60.0796 11.6679 701 146.355 1204.84 462.73
2288 0 61.1114 12.2236 747 147.922 1202.52 462.349
2289 0 65.121 12.5152 815 147.574 1203.7 460.234
2290 0 68.2003 12.8885 879 141.71 1205.25 461.247
2291 0 72.1807 13.2722 958 146.228 1204.92 458.93
2292 0 73.1909 13.212 967 140.554 1202.07 458.052
2293 0 75.2527 13.3151 1002 148.111 1204.58 456.849
2294 0 76.0775 13.6834 1041 145.128 1203.48 455.202
2295 0 78.1455 13.8076 1079 138.007 1202.95 453.565
2296 0 82.2362 13.7166 1128 142.398 1203.54 452.473
2297 0 84.4135 13.4457 1135 143.037 1203.62 451.211
2298 0 86.126 13.399 1154 146.092 1204.61 450.906
2299 0 90.2327 13.8752 1252 145.369 1203.54 450.047
2300 0 92.3101 13.953 1288 145.766 1205.3 448.734
2301 0 96.5082 13.8641 1338 154.534 1203.24 446.979
2302 0 100.203 13.5824 1361 147.513 1203.56 445.14
2303 0 104.366 13.9892 1460 151.672 1202.83 443.21
2304 0 105.149 14.351 1509 153.789 1203.63 442.854
2305 0 109.309 14.0061 1531 157.652 1202.46 441.202
2306 0 112.237 13.8903 1559 156.459 1202.89 439.273
2307 1 56.132 12.7735 717 158.113 1202.41 465.245
2308 0 62.2165 12.9708 807 151.281 1202.2 464.397
2309 0 63.0996 13.7719 869 139.219 1203.09 464.193
2310 0 64.5186 13.5465 874 158.674 1202.85 464.189
2311 0 68.626 13.1583 903 152.233 1203.02 463.333
2312 0 69.3989 13.9916 971 153.12 1204.43 462.295
2313 0 70.2132 13.5729 953 143.054 1204.64 461.14
2314 0 72.1934 14.0595 1015 147.028 1204.08 460.354
2315 0 76.3731 13.7876 1053 152.408 1202.87 459.482
2316 0 78.7877 13.8473 1091 157.984 1203.33 458.43
2317 0 80.3066 13.6228 1094 156.001 1203.02 457.577
2318 0 83.3826 13.7799 1149 156.92 1204.78 456.396
2319 0 84.1722 13.9476 1174 157.808 1203.86 455.02
2320 0 89.2661 14.1375 1262 154.711 1204.31 452.399
2321 0 89.2851 14.3137 1278 152.178 1203.03 451.086
2322 0 92.2866 13.9674 1289 152.277 1204.78 449.496
2323 0 95.1579 14.0398 1336 149.948 1205.4 448.416
2324 0 99.2087 14.3435 1423 154.048 1204.84 446.545
2325 0 101.64 14.0987 1433 151.608 1204.21 445.768
2326 1 57.1659 12.6824 725 155.863 1203.73 468.814
2327 0 58.2554 12.9602 755 157.14 1203.12 467.96
2328 0 59.3148 13.6054 807 150.538 1204.12 467.33
2329 0 63.2702 13.5925 860 153.326 1206.81 466.091
2330 0 65.4279 13.7862 902 152.425 1205.04 465.319
2331 0 67.4002 13.7388 926 155.526 1204.81 464.43
2332 0 70.334 14.0188 986 150.954 1204.47 462.684
2333 0 72.2793 13.8352 1000 157.505 1204.51 462.623
2334 0 75.3185 13.8744 1045 148.007 1203.49 461.243
2335 0 75.2458 14.2865 1075 152.023 1204.12 459.374
2336 0 80.3212 14.0312 1127 159.805 1205.56 457.578
2337 0 81.1129 14.3257 1162 155.09 1206.55 456.12
2338 0 84.2402 14.2094 1197 159.571 1205.84 454.916
2339 0 87.4298 14.1828 1240 150.862 1204.14 453.877
2340 0 90.3835 14.3168 1294 156.388 1205.03 451.365
2341 0 93.1686 14.5972 1360 158.301 1206.18 450.098
2342 0 97.3179 14.3345 1395 158.946 1202.47 448.999
2343 0 99.3082 14.2486 1415 159.05 1204.44 447.749
2344 0 104.25 14.2733 1488 153.709 1203.84 445.005
2345 1 55.0249 13.4303 739 159.663 1204.45 468.291
2346 0 59.0491 13.0061 768 164.186 1204.73 467.944
2347 0 61.0845 13.7678 841 155.187 1204.25 465.659
2348 0 62.0356 13.8469 859 158.451 1203.95 464.601
2349 0 66.1026 13.9026 919 155.272 1202.99 463.193
2350 0 68.0222 14.0836 958 163.936 1202.15 462.191
2351 0 69.112 14.0352 970 162.881 1204.4 460.848
2352 0 70.0484 14.2473 998 160.987 1204.26 460.741
2353 0 73.0525 14.8386 1084 152.198 1203.76 458.893
2354 0 76.2041 14.4874 1104 160.13 1203.64 457.282
2355 0 78.2079 14.4231 1128 162.889 1202.81 456.694
2356 0 77.1113 15.0562 1161 160.748 1203.75 455.43
2357 0 83.0948 14.3812 1195 166.015 1203.09 454.143
2358 0 86.1854 14.3528 1237 164.798 1202.85 453.345
2359 0 87.2378 14.4318 1259 159.06 1201.61 451.886
2360 0 89.1365 14.7302 1313 158.954 1201.57 450.522
2361 0 93.0347 14.9837 1394 156.492 1201.69 448.347
2362 0 96.1007 14.8386 1426 165.421 1201.3 446.88
2363 0 98.0715 14.9075 1462 157.044 1200.47 445.995
2364 0 101.183 14.9234 1510 163.715 1201.71 443.89
2365 0 106.144 15.8181 1679 158.807 1202.56 441.208
2366 0 107.203 15.0369 1612 156.767 1203.3 441.366
2367 0 110.716 14.6411 1621 155.674 1204.07 439.299
2368 0 115.489 14.8499 1715 157.266 1203.27 436.428
2369 0 121.148 15.0808 1827 164.774 1203.22 434.145
2370 0 126.294 15.1234 1910 158.47 1203.96 431.953
2371 0 130.142 15.1066 1966 161.844 1203.73 429.928
2372 1 70.2066 13.56 952 165.17 1202.88 459.266
2373 0 73.101 14.4868 1059 161.025 1204.08 458.161
2374 0 76.1566 14.549 1108 162.46 1202.17 455.876
2375 0 78.0726 14.525 1134 168.266 1202.99 454.502
2376 0 80.1031 14.3815 1152 161.993 1202.88 454.03
2377 0 84.2168 14.3914 1212 159.794 1202.86 452.637
2378 0 86.0743 14.4294 1242 161.301 1202.73 451.811
2379 0 90.0759 14.3546 1293 157.34 1202.59 450.397
2380 0 93.1625 14.3513 1337 167.683 1202.5 448.22
2381 0 94.3872 14.8325 1400 164.835 1202.35 447.869
2382 0 99.1893 14.679 1456 156.53 1202.91 444.696
2383 0 102.237 14.7109 1504 160.906 1202.24 443.489
2384 0 107.414 14.5977 1568 159.296 1202.3 441.508
2385 0 111.114 14.1116 1568 159.846 1201.89 440.763
2386 0 114.206 14.4738 1653 158.861 1202.74 438.71
2387 0 119.362 14.4602 1726 161 1203.77 436.696
2388 0 120.218 14.349 1725 156.257 1203.74 435.351
2389 0 125.281 14.3757 1801 157.419 1202.65 432.892
2390 0 130.229 14.4669 1884 163.334 1202.58 430.661
2391 0 134.445 14.2065 1910 161.831 1202.51 428.67
2392 1 78.0744 13.2182 1032 163.372 1203.47 456.384
2393 0 81.1709 14.0198 1138 146.18 1202.8 453.73
2394 0 83.0706 14.2529 1184 164.766 1203.4 452.85
2395 0 87.0664 14.1961 1236 160.255 1202.28 451.159
2396 0 90.0778 14.2321 1282 163.605 1200.38 449.936
2397 0 94.2094 14.5315 1369 155.878 1202.83 447.752
2398 0 97.2331 14.5835 1418 163.286 1204.31 445.968
2399 0 101.21 14.5737 1475 163.285 1203.25 444.811
2400 0 104.36 14.3925 1502 162.913 1200.88 441.029
2401 0 109.249 14.3801 1571 156.569 1201.07 439.418
2402 0 110.541 14.9446 1652 166.166 1200.56 438.695
2403 0 115.231 14.996 1728 158.233 1201.82 436.915
2404 0 119.17 15.0961 1799 168.262 1201.11 435.262
2405 0 123.285 14.9248 1840 162.488 1201.32 433.045
2406 0 125.342 14.9033 1868 163.917 1201.16 431.271
2407 0 130.269 15.0995 1967 162.701 1201.67 428.895
2408 0 133.439 14.8607 1983 159.604 1201.92 426.533
2409 0 139.372 14.8882 2075 165.231 1201.37 424.702
2410 0 143.322 14.7849 2119 165.497 1201.74 422.947
2411 0 149.367 14.9765 2237 163.313 1202.11 420.011
2412 0 154.353 14.9462 2307 158.573 1203.31 416.635
2413 0 161.315 14.9335 2409 161.62 1202.7 413.454
2414 1 89.1989 13.9351 1243 166.8 1201.53 449.486
2415 0 91.1711 14.6538 1336 163.147 1201.81 446.843
2416 0 95.104 13.9637 1328 164.857 1203.34 446.293
2417 0 98.1773 14.1173 1386 160.807 1203.04 444.846
2418 0 102.201 14.1193 1443 158.22 1204.26 442.625
2419 0 106.52 14.4198 1536 160.489 1204.12 440.354
2420 0 109.307 14.3632 1570 165.633 1202.52 438.659
2421 0 114.222 14.6557 1674 167.478 1203.88 437.551
2422 0 116.082 14.6706 1703 161.794 1201.76 434.668
2423 0 120.236 14.4632 1739 155.348 1201.46 433.07
2424 0 123.294 14.5019 1788 159.674 1200.77 432.275
2425 0 127.166 14.6108 1858 163.729 1202.06 431.055
2426 0 132.121 14.6835 1940 166.75 1201.43 427.888
2427 0 135.252 14.8833 2013 162.389 1200.02 425.724
2428 0 141.229 14.6075 2063 167.221 1200.72 424.086
2429 0 144.394 14.5505 2101 164.788 1201.11 420.18
2430 0 150.09 15.111 2268 164.679 1202.39 416.934
2431 0 155.211 14.9216 2316 166.767 1202.94 415.392
2432 0 163.272 14.5401 2374 164.133 1203.32 413.446
2433 1 88.1426 13.671 1205 164.595 1202.69 450.042
2434 0 91.1492 13.6699 1246 163.104 1202.97 449.016
2435 0 94.144 13.5856 1279 165.574 1202.11 447.378
2436 0 97.1504 13.8445 1345 163.983 1202.01 445.839
2437 0 100.132 14.0214 1404 159.39 1202.37 443.019
2438 0 103.267 13.8863 1434 159.515 1203.74 442.023
2439 0 107.216 13.7386 1473 162.569 1202.73 440.58
2440 0 109.14 14.376 1569 164.697 1201.25 439.054
2441 0 114.303 13.9191 1591 167.982 1201.89 436.691
2442 0 118.179 14.055 1661 156.869 1201.04 433.764
2443 0 124.187 15.8712 1971 156.899 1202.19 429.677
2444 1 54.1435 12.2452 663 156.985 1200.84 466.514
2445 0 54.1443 12.2635 664 146.343 1201.81 466.048
2446 0 58.1156 12.2342 711 147.196 1204.22 464.986
2447 0 60.1944 12.3101 741 144.19 1204.17 463.529
2448 0 63.1844 12.3132 778 143.156 1204.38 463.181
2449 0 63.1368 12.6709 800 146.151 1202.85 462.511
2450 0 64.1012 12.6207 809 147.303 1202.37 461.167
2451 0 65.1262 13.0669 851 142.452 1202.08 460.791
2452 0 70.2006 12.6067 885 148.655 1204.32 459.373
2453 0 71.2325 13.0418 929 143.01 1203.41 457.919
2454 0 73.183 12.8582 941 147.894 1203.26 456.715
2455 0 74.1423 13.3527 990 143.846 1202.82 455.674
2456 0 78.2219 12.8481 1005 145.898 1201.04 454.269
2457 0 80.2261 12.8636 1032 147.027 1202.1 452.529
2458 0 82.239 12.6339 1039 150.755 1203.92 450.942
2459 0 86.1598 13.0804 1127 144.534 1201.54 449.161
2460 0 89.2244 12.9785 1158 148.834 1202.34 448.252
2461 0 91.1652 13.503 1231 148.932 1200.97 445.802
2462 0 95.2105 12.8137 1220 146.583 1201.88 444.16
2463 1 54.2086 11.4926 623 141.281 1201.53 465.778
2464 0 53.1066 11.9947 637 134.797 1200.27 464.063
2465 0 57.163 12.4206 710 134.227 1203.06 462.617
2466 0 58.2907 12.472 727 135.447 1201.38 462.536
2467 0 61.0814 12.1805 744 137.125 1200.94 461.621
2468 0 64.1294 12.2097 783 142.372 1202.26 460.033
2469 0 66.0884 12.3168 814 146.73 1202.68 459.452
2470 0 65.48 12.3396 808 145.962 1201.96 457.891
2471 0 68.2193 12.8263 875 133.896 1201.14 457.392
2472 0 68.202 12.5656 857 141.905 1201.65 456.432
2473 0 71.1771 12.6726 902 144.744 1202.63 454.992
2474 0 73.1934 12.6514 926 142.552 1202.72 454.026
2475 0 75.2193 12.9754 976 142.925 1202.84 452.3
2476 0 77.2011 12.8107 989 139.672 1204.01 451.188
2477 0 78.1667 13.6375 1066 137.066 1202.51 450.225
2478 0 82.1513 13.2682 1090 144.113 1201.6 448.918
2479 0 86.3142 12.8368 1108 146.904 1204.87 448.879
2480 0 88.4389 13.0938 1158 144.611 1202.73 445.808
2481 0 91.4651 13.3275 1219 141.573 1203.7 444.642
2482 0 91.2068 13.8805 1266 142.701 1203.82 443.276
2483 0 93.2215 14.0418 1309 141.954 1204.29 442.044
2484 0 98.2722 13.8086 1357 146.416 1204.76 440.684
2485 0 102.343 13.4743 1379 146.336 1204.76 438.757
2486 1 56.1066 10.9791 616 150.659 1204.96 462.312
2487 0 58.2367 12.2088 711 144.29 1204.79 461.861
2488 0 60.1066 12.8771 774 153.822 1203.97 460.367
2489 0 64.2899 12.9414 832 145.061 1204.44 459.434
2490 0 63.118 13.1024 827 148.554 1204.43 459.838
2491 0 64.1059 12.9473 830 143.775 1203.69 459.139
2492 0 68.0927 13.2466 902 146.317 1204.53 457.275
2493 0 69.2584 13.0526 904 145.177 1205.38 456.894
2494 0 70.2082 13.6024 955 154.963 1203.19 455.665
2495 0 73.2308 13.4916 988 147.168 1203 454.846
2496 0 74.1708 13.6307 1011 154.348 1202.93 453.823
2497 0 76.3417 13.9766 1067 163.656 1203.82 452.321
2498 0 79.1499 13.9356 1103 152.065 1204 450.627
2499 0 81.2134 14.0987 1145 152.468 1202.35 449.794
2500 0 85.194 13.9681 1190 154.585 1204.22 448.52
2501 0 89.2337 13.403 1196 157.911 1202.25 447.624
2502 0 92.137 14.3482 1322 159.308 1204.06 445.467
2503 0 93.2146 14.1502 1319 159.09 1205.3 444.274
2504 0 96.1304 14.4283 1387 155.21 1202.87 442.855
2505 0 100.248 14.1051 1414 160.002 1204.31 440.702
2506 0 103.28 13.8556 1431 157.159 1203.71 439.136
2507 0 105.244 14.2336 1498 161.201 1203.39 436.913
2508 0 110.119 14.2118 1565 164.301 1205.57 435.307
2509 0 113.168 14.2531 1613 157.795 1204.63 433.113
2510 0 117.279 13.8046 1619 153.371 1203.8 430.983
2511 1 63.1545 13.2532 837 156.774 1203.21 457.093
2512 0 66.0862 13.2554 876 159.611 1204.35 456.279
2513 0 68.1114 13.243 902 159.58 1204.24 455.647
2514 0 69.0849 13.6788 945 152.767 1202.75 454.041
2515 0 72.1144 13.7282 990 156.971 1203.54 452.309
2516 0 74.1714 13.9811 1037 157.066 1202.07 451.507
2517 0 78.1121 13.9543 1090 154.226 1201.97 450.448
2518 0 78.1216 13.8118 1079 161.732 1203.23 449.508
2519 0 81.3967 14.03 1142 153.884 1204.39 448.116
2520 0 83.0925 14.2372 1183 156.806 1204.98 446.423
2521 0 85.174 13.9949 1192 157.906 1205.73 445.4
2522 0 90.1639 14.1298 1274 160.124 1205.37 443.268
2523 0 92.0664 14.3158 1318 153.8 1206.2 441.484
2524 0 95.2162 13.9577 1329 156.586 1205.07 439.902
2525 0 98.2313 14.4659 1421 154.908 1205.06 438.505
2526 0 101.224 14.1172 1429 150.956 1204.62 437.815
2527 0 104.235 14.3809 1499 162.019 1204.48 436.744
2528 0 107.276 14.3834 1543 158.158 1204.62 435.106
2529 0 110.2 14.1742 1562 160.724 1205.65 433.948
2530 0 114.239 14.5572 1663 45.2622 1204.53 431.351
2531 0 118.37 14.2941 1692 158.333 1202.79 429.744
2532 0 123.201 14.5696 1795 162.838 1204.98 427.681
2533 0 127.254 14.6871 1869 165.085 1203.39 425.417
2534 0 130.201 14.7772 1924 163.06 1205.12 423.434
2535 0 133.148 14.7506 1964 168.542 1205.16 420.986
2536 0 142.331 14.7333 2097 164.546 1204.15 417.549
2537 1 78.1504 13.0645 1021 161.951 1204.94 450.226
2538 0 79.192 13.5746 1075 164.284 1203.62 448.935
2539 0 82.1143 13.6395 1120 158.636 1204.9 447.546
2540 0 84.1148 13.7431 1156 164.112 1204.21 446.168
2541 0 88.1091 13.7216 1209 168.141 1203.36 444.375
2542 0 89.147 14.0218 1250 164.771 1205.3 442.474
2543 0 95.136 14.5161 1381 158.5 1204.79 439.314
2544 0 97.0815 13.8234 1342 164.642 1205.68 440.034
2545 0 99.1945 13.8818 1377 165.571 1204.67 438.364
2546 0 101.187 13.8456 1401 164.477 1206.29 436.66
2547 0 105.276 14.0203 1476 159.437 1203.43 434.972
2548 0 108.295 13.6295 1476 167.051 1202.96 434.345
2549 0 110.168 13.9878 1541 157.222 1204.09 431.108
2550 0 114.131 14.4045 1644 153.257 1205.82 429.822
2551 0 117.277 14.1375 1658 161.718 1205.78 427.829
2552 0 119.343 14.0771 1680 152.344 1203.9 427.998
2553 0 124.2 14.0177 1741 155.635 1204.88 424.763
2554 0 130.231 14.0827 1834 159.395 1205.29 422.059
2555 0 134.463 13.5428 1821 162.829 1204.74 421.281
2556 0 138.25 13.8806 1919 156.34 1204 417.455
2557 0 142.333 14.0937 2006 157.686 1204.77 415.929
2558 1 79.1085 13.2224 1046 159.815 1203.9 447.326
2559 0 82.0995 13.8003 1133 159.343 1205.41 445.769
2560 0 85.201 13.6853 1166 150.202 1205.54 444.313
2561 0 88.1838 13.3925 1181 144.427 1203.99 441.461
2562 0 89.3681 13.9871 1250 159.611 1201.97 439.566
2563 0 93.2284 14.1266 1317 162.449 1204.13 438.762
2564 0 98.2343 14.3636 1411 159.94 1203.12 434.992
2565 0 100.314 14.1256 1417 158.833 1202.84 433.997
2566 0 103.479 14.2252 1472 152.134 1203.89 433.308
2567 0 105.229 14.3212 1507 163.202 1205.6 432.304
2568 0 108.329 15.1483 1641 159.78 1201.29 429.946
2569 0 112.238 14.5049 1628 154.872 1202.47 429.331
2570 0 116.264 14.5875 1696 162.67 1202.95 428.081
2571 0 120.351 15.3302 1845 154.9 1204.06 424.833
2572 0 122.241 15.085 1844 158.357 1204.05 423.793
2573 0 126.197 15.0558 1900 151.189 1205.46 422.165
2574 0 131.209 14.8999 1955 165.259 1205.57 418.952
2575 0 137.313 14.6017 2005 164.323 1205.6 418.161
2576 0 141.296 14.9049 2106 165.64 1205.51 414.151
2577 0 147.208 15.0059 2209 157.906 1205.91 412.965
2578 0 152.466 14.8361 2262 159.831 1205.5 411.313
2579 1 79.2121 14.2529 1129 170.224 1204.99 445.802
2580 0 82.0974 14.5802 1197 162.573 1204.37 443.297
2581 0 83.2089 14.4576 1203 168.064 1203.89 443.633
2582 0 85.0919 14.4197 1227 167.676 1203.83 442.854
2583 0 89.1592 15.3209 1366 159.346 1206.72 440.626
2584 0 91.4267 15.2253 1392 162.627 1204.74 439.21
2585 0 96.3338 14.8027 1426 167.605 1207.2 437.035
2586 0 99.504 14.9743 1490 156.414 1205.46 436.367
2587 0 102.227 14.9863 1532 167.694 1205.53 434.155
2588 0 103.55 15.5191 1607 161.979 1204.83 432.782
2589 0 106.264 15.0474 1599 155.204 1205.46 432.435
2590 0 109.169 15.1692 1656 164.71 1206.07 430.89
2591 0 111.285 14.9705 1666 155.55 1205.94 429.021
2592 0 116.487 15.5467 1811 157.887 1204.16 426.79
2593 0 120.214 15.2894 1838 159.501 1204.36 425.995
2594 0 123.241 15.4899 1909 153.843 1206.07 423.746
2595 0 128.428 15.1914 1951 163.22 1208.54 421.961
2596 0 132.514 15.1154 2003 163.409 1203.9 419.463
2597 0 137.378 15.0169 2063 162.946 1204.11 416.635
2598 0 142.411 15.1112 2152 155.03 1203.78 414.877
2599 0 149.359 14.9773 2237 160.699 1207.13 411.513
2600 1 81.4612 13.4052 1092 166.662 1204.81 444.346
2601 0 84.2884 13.9877 1179 158.148 1202.39 442.606
2602 0 84.2436 14.6361 1233 164.896 1202.85 440.502
2603 0 88.3456 14.5225 1283 167.772 1204.53 438.98
2604 0 92.3278 14.7193 1359 162.694 1205.63 437.927
2605 0 95.3479 15.0816 1438 159.671 1204.47 437.121
2606 0 97.1598 15.068 1464 159.429 1204.91 435.736
2607 0 100.175 14.6844 1471 161.565 1204.88 433.187
2608 0 102.242 14.4559 1478 165.353 1206.63 431.879
2609 0 105.41 14.8372 1564 162.921 1203.96 430.401
2610 0 110.42 14.961 1652 157.09 1204.99 428.855
2611 0 113.216 15.0598 1705 155.198 1204.53 427.884
2612 0 116.59 15.2072 1773 163.338 1204.36 426.284
2613 0 117.159 15.4406 1809 158.929 1205.45 424.772
2614 0 123.531 15.2027 1878 155.365 1205.98 421.772
2615 0 128.229 15.3554 1969 157.099 1206.06 420.693
2616 0 131.601 15.395 2026 160.988 1204.68 417.724
2617 0 135.214 15.4495 2089 160.328 1207.12 416.611
2618 0 139.456 15.2306 2124 160.92 1204.92 414.627
2619 0 145.554 15.0528 2191 163.963 1205.89 412.388
2620 0 150.254 15.181 2281 163.59 1205.39 409.162
2621 0 154.354 15.0822 2328 149.125 1205.54 406.772
2622 0 157.459 15.1531 2386 166.213 1205.29 404.619
2623 0 164.42 14.9069 2451 158.342 1206.31 400.908
2624 0 172.576 15.6106 2694 157.303 1206.53 396.584
2625 0 178.288 15.6208 2785 159.116 1205.48 392.181
2626 0 187.423 15.4517 2896 156.225 1205.31 392.244
2627 1 88.1582 14.1223 1245 163.27 1205.43 439.133
2628 0 90.1484 14.0324 1265 168.072 1206.32 438.266
2629 0 95.2614 13.8776 1322 166.479 1204.79 436.59
2630 0 96.2594 13.8792 1336 165.769 1205.45 435.305
2631 0 99.2729 14.2536 1415 166.184 1205.61 433.497
2632 0 101.256 14.3695 1455 166.529 1205.86 432.742
2633 0 107.278 14.3739 1542 156.556 1206.05 430.36
2634 0 111.706 13.9741 1561 160.37 1205.44 428.8
2635 0 116.407 14.4063 1677 166.943 1203.81 426.938
2636 0 118.318 14.0891 1667 167.744 1206.01 425.36
2637 0 121.414 14.8171 1799 168.02 1204.28 422.851
2638 0 125.291 14.7816 1852 164.461 1204.8 421.505
2639 0 130.457 14.2269 1856 168.629 1207.02 420.192
2640 0 134.496 14.625 1967 166.926 1207.24 418.356
2641 0 141.44 14.3594 2031 163.917 1208.29 414.566
2642 1 76.5499 13.4161 1027 146.157 1207.45 447.28
2643 0 79.1006 13.2995 1052 154.518 1204.83 446.914
2644 0 80.1619 13.6973 1098 162.042 1204.86 444.485
2645 0 84.1018 14.1257 1188 154.414 1205.61 443.124
2646 0 87.4198 13.9557 1220 156.341 1204.08 441.831
2647 0 89.4581 13.8948 1243 158.672 1205.62 440.521
2648 0 90.473 13.9489 1262 156.72 1204.68 438.855
2649 0 93.2354 14.1041 1315 150.3 1205.53 437.545
2650 0 98.4752 13.9324 1372 154.862 1204.51 436.398
2651 0 98.2496 14.3716 1412 158.638 1204.58 434.557
2652 0 101.237 14.1154 1429 153.771 1205.82 433.763
2653 0 104.239 14.3229 1493 160.688 1206.17 432.885
2654 0 107.203 14.7663 1583 154.86 1206.71 429.485
2655 0 113.345 14.372 1629 155.075 1207.87 428.037
2656 0 115.373 14.3621 1657 155.783 1207.23 425.58
2657 0 120.196 14.077 1692 157.43 1206.35 422.992
2658 1 66.1608 12.0766 799 148.158 1206.86 450.708
2659 0 69.2111 12.8592 890 151.831 1205.96 449.463
2660 0 72.1532 13.014 939 150.225 1207.17 447.614
2661 0 73.1259 13.2785 971 144.138 1205.24 447.847
2662 0 76.1446 13.54 1031 149.853 1206.51 445.94
2663 0 79.3878 13.4278 1066 146.53 1205.24 444.588
2664 0 80.423 13.8144 1111 139.068 1205.46 442.738
2665 0 83.3289 13.6927 1141 142.103 1203.61 441.523
2666 0 86.2688 13.597 1173 152.423 1204.49 439.733
2667 0 89.2512 13.5012 1205 151.469 1204.12 439.012
2668 0 92.3631 13.317 1230 148.961 1205.4 437.142
2669 0 93.6964 13.3516 1251 146.896 1203.01 436.43
2670 0 96.732 13.7287 1328 154.701 1204.7 435.282
2671 0 98.3776 14.0276 1380 155.57 1204.79 434.091
2672 0 101.456 14.3313 1454 151.263 1203.55 431.571
2673 0 104.315 14.2644 1488 148.085 1204.8 430.439
2674 0 109.397 13.9309 1524 159.504 1203.1 429.467
2675 0 110.768 14.1196 1564 152.302 1204.27 427.867
2676 0 114.795 14.3822 1651 152.042 1203.31 426.934
2677 0 119.441 14.9027 1780 158.266 1203.91 423.425
2678 0 122.231 14.5135 1774 158.607 1204.53 422.868
2679 0 125.698 14.6542 1842 157.758 1203 419.885
2680 0 130.366 14.3519 1871 164.026 1203.99 418.672
2681 0 133.388 14.5515 1941 165.076 1202.72 416.984
2682 0 138.383 14.5539 2014 158.561 1203.47 414.651
2683 0 144.394 14.779 2134 158.57 1201.44 413.396
2684 0 148.564 14.8353 2204 163.551 1202.58 409.544
2685 0 153.42 14.6852 2253 157.5 1202.63 407.002
2686 0 159.4 14.8934 2374 42.4895 1201.93 405.219
2687 0 164.646 14.8318 2442 164.062 1204.19 402.213
2688 0 169.344 14.627 2477 156.615 1204.45 398.503
2689 0 175.366 14.8832 2610 156.672 1202.47 395.94
2690 0 178.287 15.088 2690 157.092 1204.41 393.504
2691 0 184.441 15.1647 2797 165.801 1203.87 391.071
2692 0 189.337 14.8677 2815 161.581 1205.37 388.04
2693 0 195.471 15.1429 2960 160.756 1203.86 384.808
2694 0 202.718 15.4895 3140 160.023 1204.42 381.441
2695 0 208.348 15.4933 3228 163.812 1202.36 378.96
2696 0 214.329 15.7655 3379 158.441 1203.25 373.867
2697 0 220.253 16.6944 3677 156.74 1203.76 368.367
2698 0 227.585 15.7875 3593 166.409 1203.16 369.175
2699 0 235.433 15.5246 3655 165.062 1205.55 364.699
2700 0 245.635 16.3088 4006 165.54 1207.07 360.313
2701 0 254.555 17.3715 4422 159.602 1206.41 351.769
2702 1 185.385 14.5373 2695 174.888 1205.67 391.325
2703 0 191.418 14.6694 2808 168.571 1205.34 387.663
2704 0 197.303 14.9111 2942 167.698 1203.99 384.091
2705 0 203.484 15.097 3072 169.067 1202.84 382.119
2706 0 212.325 15.2832 3245 167.737 1203.38 377.739
2707 0 219.53 16.2666 3571 156.455 1204.28 369.937
2708 0 227.379 15.0982 3433 157.246 1204.4 370.208
2709 0 234.554 14.9091 3497 169.594 1204.88 366.895
2710 0 242.392 15.1655 3676 164.933 1202.98 361.188
2711 1 54.0675 13.3167 720 155.722 1205.11 452.971
2712 0 57.1757 14.6566 838 154.628 1202.33 451.079
2713 0 57.0829 14.8556 848 155.318 1203.88 450.702
2714 0 59.0959 14.5357 859 156.57 1203.42 450.207
2715 0 63.1393 13.985 883 163.396 1201.6 449.967
2716 0 62.0997 14.6377 909 152.95 1203.18 448.715
2717 0 65.1046 14.2694 929 161.95 1204.29 449.154
2718 0 66.1843 14.7769 978 158.041 1206.78 447.188
2719 0 67.1035 14.8278 995 161.816 1205.14 447.163
2720 0 68.0761 14.9832 1020 164.009 1204.37 446.05
2721 0 72.0696 14.7912 1066 149.073 1204.94 444.403
2722 0 78.069 18.8679 1473 140.806 1205.03 440.453
2723 0 78.1268 17.958 1403 145.685 1206.37 440.385
2724 0 79.1692 15.9532 1263 151.063 1204.94 440.631
2725 0 81.1287 16.3937 1330 157.205 1206.83 440.139
2726 0 83.1225 16.0486 1334 158.797 1205.91 439
2727 1 97.2331 20.312 1975 130.188 1205.78 431.659
2728 0 97.1898 19.8992 1934 133.588 1205.76 430.458
2729 0 96.231 19.5987 1886 127.277 1205.16 430.582
2730 0 96.22 16.6701 1604 151.058 1205.27 432.539
2731 0 99.2829 16.2868 1617 155.635 1204.78 432.144
2732 0 101.122 15.5357 1571 152.786 1203.42 430.958
2733 0 102.161 16.4446 1680 153.842 1204.49 428.29
2734 1 121.262 15.5119 1881 154.325 1203.36 420.08
2735 0 123.329 15.7627 1944 155.827 1204.85 419.424
2736 0 126.414 15.1802 1919 160.237 1202.63 419.86
2737 0 129.366 15.7924 2043 162.612 1203.23 418.159
2738 0 132.299 15.6312 2068 154.985 1202.45 416.736
2739 0 137.264 15.7143 2157 159.817 1203.99 416.16
2740 0 140.301 16.0726 2255 162.434 1203.86 415.363
2741 0 141.411 15.7343 2225 155.297 1204.63 413.551
2742 0 144.227 16.8207 2426 151.612 1202.52 410.615
2743 0 145.296 15.6646 2276 163.428 1203.66 412.934
2744 0 150.216 15.3046 2299 165.206 1203.04 411.482
2745 0 150.327 16.0916 2419 160.995 1205.24 409.9
2746 0 152.125 15.5727 2369 160.914 1204.07 410.484
2747 0 155.333 15.3605 2386 161.031 1204.67 407.687
2748 0 158.323 15.5315 2459 161.79 1203.65 406.903
2749 0 158.312 15.8232 2505 149.909 1203.85 405.669
2750 0 162.25 15.3097 2484 168.45 1203.73 404.806
2751 0 165.327 15.0671 2491 164.716 1204.15 403.412
2752 0 167.241 15.5943 2608 162.357 1203.71 403.387
2753 0 169.147 15.5545 2631 162.735 1203.45 402.855
2754 0 170.106 15.89 2703 163.575 1204.39 400.959
2755 0 172.349 15.8167 2726 160.096 1203.71 401.618
2756 0 171.321 15.5148 2658 159.716 1205.04 401.116
2757 0 174.323 15.5458 2710 160.325 1205.4 401.841
2758 0 175.404 15.9688 2801 159.007 1203.7 397.449
2759 0 177.259 15.7397 2790 158.055 1203.28 398.848
2760 0 177.476 16.1881 2873 157.366 1202.31 397.424
2761 0 178.263 15.5893 2779 153.542 1203.54 399.351
2762 0 180.304 15.9231 2871 157.322 1201.86 397.865
2763 0 179.338 15.5628 2791 164.917 1201.32 399.154
2764 0 180.122 15.5228 2796 164.888 1201.43 398.686
2765 0 181.352 15.9689 2896 160.598 1203.28 398.372
2766 0 185.418 16.2875 3020 156.645 1202.23 396.773
2767 0 185.56 15.8494 2941 157.407 1201.13 397.322
2768 0 189.271 17.3667 3287 151.373 1202.31 393.334
2769 0 187.476 17.3836 3259 155.282 1202.28 394.546
2770 0 188.413 15.9968 3014 160.463 1199.74 396.055
2771 0 192.278 15.8676 3051 159.11 1201.91 394.631
2772 0 191.463 15.554 2978 158.798 1203.83 395.819
2773 0 192.468 15.7065 3023 161.83 1202.87 394.629
2774 0 196.358 16.0676 3155 161.488 1202.54 394.993
2775 0 196.425 15.7923 3102 146.128 1199.73 394.885
2776 0 192.489 15.7723 3036 157.258 1201.61 394.563
2777 0 193.339 15.7185 3039 156.498 1200.11 394.149
2778 0 195.463 16.3458 3195 151.992 1202.76 394.026
2779 0 196.479 16.5921 3260 157.936 1203.51 395.058
2780 0 196.403 16.2625 3194 154.956 1204.02 395.582
2781 0 193.555 16.7291 3238 157.757 1201.04 393.869
2782 0 186.36 18.1476 3382 144.116 1204.46 393.567
2783 0 282.408 15.3891 4346 141.147 1204.04 354.452
2784 0 286.483 14.301 4097 145.044 1203.65 355.097
2785 0 286.642 13.5779 3892 146.869 1202.52 355.567
2786 0 289.707 13.6552 3956 143.726 1202.48 353.081
2787 0 291.868 13.5027 3941 144.123 1203 352.445
2788 0 296.56 13.1238 3892 136.803 1202.81 350.993
2789 0 293.497 13.6492 4006 142.436 1203.85 347.486
2790 0 292.527 13.5304 3958 139.488 1201.61 344.886
2791 0 295.542 13.2299 3910 81.8931 1202.04 345.873
2792 0 298.685 14.2324 4251 136.989 1202.5 342.371
2793 0 305.55 14.4886 4427 135.11 1203.19 341.637
2794 0 152.237 15.9357 2426 159.72 1201.89 409.171
2795 0 148.246 16.3984 2431 159.313 1203.32 409.541
2796 0 149.307 16.0139 2391 159.639 1202.57 410.68
2797 0 151.218 15.9439 2411 154.399 1202.76 410.474
2798 0 146.264 16.4018 2399 156.237 1202.16 411.506
2799 0 146.376 16.1365 2362 151.076 1203.91 413.674
2800 0 149.338 15.783 2357 156.017 1200.91 412.689
2801 0 150.445 15.8331 2382 150.258 1202.33 414.436
2802 1 161.162 16.7906 2706 151.479 1201.98 410.973
2803 0 163.345 17.313 2828 148.504 1203.69 407.521
2804 0 167.326 17.0625 2855 150.848 1201.55 406.284
2805 0 167.281 17.6948 2960 147.42 1202.44 404.546
2806 0 164.225 16.9098 2777 152.831 1201 405.336
2807 0 157.205 16.2273 2551 154.594 1200.09 409.111
2808 0 155.33 16.5712 2574 157.25 1201.37 411.782
2809 0 168.281 15.4207 2595 160.722 1202.15 413.079
2810 0 153.332 16.3958 2514 151.356 1203.84 413.059
2811 1 154.406 16.8387 2600 150.918 1202.4 413.688
2812 1 149.364 14.3207 2139 162.134 1203.3 419.93
2813 1 151.336 16.8301 2547 152.664 1201.69 413.944
2814 0 150.245 16.4598 2473 149.704 1201.91 413.98
2815 0 149.34 16.5596 2473 157.87 1200.83 413.888
2816 0 148.442 16.4171 2437 151.253 1199.9 414.573
2817 0 149.246 16.8045 2508 150.892 1202.34 414.668
2818 0 151.16 16.3536 2472 152.009 1202.81 414.158
2819 0 150.208 16.5704 2489 157.911 1202.53 416.589
2820 0 150.504 16.1723 2434 158.074 1203.08 419.93
2821 0 144.311 16.1179 2326 153.071 1202.07 422.839
2822 0 150.173 15.269 2293 150.016 1202.69 421.879
2823 0 151.306 16.7013 2527 152.038 1202.58 422.018
2824 0 153.179 16.6733 2554 152.502 1203.06 420.841
2825 0 159.292 16.0209 2552 151.806 1202.02 419.364
2826 0 160.482 16.0205 2571 151.248 1201.83 418.926
2827 0 153.279 13.6157 2087 159.585 1201.63 426.487
2828 0 153.233 13.548 2076 165.331 1200.94 425.245
2829 0 151.185 14.0027 2117 155.243 1201.46 426.593
2830 0 153.362 14.1234 2166 161.095 1201.09 424.964
2831 1 223.252 17.263 3854 147.346 1201.6 391.302
2832 0 292.744 15.3034 4480 138.457 1200.26 363.76
2833 1 198.175 12.4687 2471 162.841 1201.52 419.095
2834 0 198.231 12.5964 2497 152.204 1201.39 419.582
2835 0 198.298 12.3552 2450 153.001 1202.66 421.668
2836 0 198.593 12.6288 2508 160.384 1201.64 420.221
2837 0 206.369 11.2566 2323 156.554 1200.29 423.453
2838 0 204.312 12.2998 2513 157.268 1202.91 419.741
2839 0 208.379 12.7652 2660 155.594 1201.84 417.149
2840 0 207.392 12.9272 2681 162.643 1202.98 414.257
2841 0 207.472 13.0813 2714 157.961 1203.28 412.942
2842 0 210.588 13.9135 2930 158.319 1203.35 408.707
2843 0 214.389 14.2451 3054 162.292 1202.43 405.689
2844 1 171.271 14.4274 2471 162.36 1201.55 420.3
2845 0 173.225 14.4725 2507 158.753 1202.18 420.347
2846 0 172.275 15.2953 2635 164.933 1201.35 419.566
2847 0 175.208 15.513 2718 164.165 1199.91 417.22
2848 0 179.316 16.1447 2895 158.598 1200.23 412.497
2849 0 171.251 16.3678 2803 157.393 1202.2 410.543
2850 1 231.606 16.2086 3754 148.834 1201.36 383.886
2851 0 185.256 17.9535 3326 150.953 1200.45 414.185
2852 0 176.327 17.4392 3075 148.536 1202.63 412.167
2853 0 174.233 17.9128 3121 146.557 1204.03 408.422
2854 0 178.253 17.7276 3160 156.565 1200.56 409.92
2855 0 179.182 17.2451 3090 155.06 1201.77 411.495
2856 0 182.411 16.9234 3087 162.912 1202.28 414.967
2857 0 187.346 18.634 3491 52.1258 1203.49 417.233
2858 0 186.489 18.9931 3542 154.091 1202.71 415.753
2859 0 187.296 16.7649 3140 157.011 1204.14 415.635
2860 0 192.233 16.6672 3204 160.078 1201.03 414.846
2861 0 193.35 17.1451 3315 163.873 1203 412.835
2862 0 195.501 16.6802 3261 159.721 1201.43 413.529
2863 0 197.42 17.6527 3485 158.939 1202.9 411.252
2864 0 200.495 16.554 3319 160.161 1200.58 410.999
2865 0 206.365 19.8677 4100 143.875 1202.4 402.701
2866 0 206.442 18.7801 3877 152.639 1200.35 404.544
2867 0 207.454 17.5798 3647 150.919 1201.15 409.113
2868 0 209.335 17.2786 3617 154.314 1201.69 407.813
2869 0 211.431 18.0815 3823 154.459 1199.39 407.702
2870 0 208.437 17.4153 3630 160.189 1201.98 407.152
2871 0 211.432 18.1382 3835 150.714 1202.66 407.49
2872 0 204.502 17.0267 3482 159.32 1201.99 408.504
2873 0 209.436 17.6713 3701 142.955 1200.47 408.846
2874 0 212.571 17.787 3781 153.412 1199.43 408.482
2875 0 212.891 16.2525 3460 164.022 1201.35 407.84
2876 0 213.359 17.3885 3710 158.133 1199.34 406.861
2877 0 214.412 17.3404 3718 156.483 1199.79 405.14
2878 0 216.554 17.4645 3782 153.043 1201.52 405.513
2879 0 211.47 17.8323 3771 157.296 1199.86 406.442
2880 0 213.598 18.0292 3851 153.015 1200.98 409.407
2881 0 217.53 17.1517 3731 159.222 1197.53 408.815
2882 0 219.31 14.8602 3259 164.656 1200.94 404.801
2883 0 215.692 14.6969 3170 160.016 1200.9 406.145
2884 0 215.374 15.0622 3244 169.299 1198.65 405.752
2885 0 217.745 15.2104 3312 167.164 1199.66 406.686
2886 0 213.566 16.2479 3470 156.089 1199.37 404.211
2887 0 210.379 16.4227 3455 152.641 1202.08 402.089
2888 0 209.382 17.2317 3608 155.471 1202.32 402.456
2889 0 208.471 17.7578 3702 33.4986 1201.18 402.23
2890 0 208.43 17.7278 3695 154.193 1202.17 400.968
2891 0 210.376 17.3357 3647 150.233 1200.26 403.698
2892 0 211.502 17.1914 3636 152.213 1199.86 402.953
2893 0 211.557 17.0072 3598 150.864 1200.39 404.243
2894 0 210.404 16.8343 3542 148.669 1200.28 404.398
2895 0 212.752 16.7801 3570 159.059 1200.81 405.389
2896 0 213.6 16.4466 3513 157.179 1200.43 405.56
2897 0 211.683 16.9971 3598 157.06 1199.38 404.742
2898 0 213.663 16.2639 3475 164.223 1200.01 407.178
2899 0 215.421 16.9807 3658 159.809 1199 406.949
2900 0 213.449 17.2781 3688 156.998 1200.09 405.663
2901 0 213.313 17.0266 3632 152.847 1198.55 406.444
2902 0 215.551 16.7617 3613 156.554 1198.12 406.533
2903 0 214.588 16.767 3598 156.564 1201.6 406.845
2904 0 213.494 16.6046 3545 159.172 1201.72 409.072
2905 0 216.597 15.7066 3402 161.701 1202.25 409.932
2906 0 216.502 15.9213 3447 162.436 1201.39 408.608
2907 0 214.306 15.1279 3242 161.827 1201.58 410.667
2908 0 215.439 14.937 3218 163.729 1200 411.864
2909 0 212.566 14.7107 3127 168.24 1198.69 412.898
2910 0 213.495 14.5436 3105 113.681 1200.73 414.376
2911 0 215.554 14.4512 3115 171.739 1199.09 414.124
2912 0 217.651 14.1465 3079 168.909 1200.9 414.359
2913 0 214.7 14.3176 3074 169.924 1200.43 413.654
2914 0 215.429 14.2367 3067 165.67 1199.35 413.456
2915 0 217.366 14.2157 3090 161.628 1197.87 414.395
2916 0 218.513 14.5255 3174 159.21 1200.86 413.065
2917 0 218.472 14.3863 3143 165.496 1198.75 413.861
2918 0 218.566 14.4899 3167 168.174 1199.68 411.813
2919 0 221.378 14.3646 3180 171.455 1197.63 413.63
2920 0 219.424 14.6337 3211 162.963 1195.82 411.203
2921 0 216.57 14.605 3163 166.1 1197.47 411.618
2922 0 219.812 14.3896 3163 164.035 1199.09 411.925
2923 0 219.26 14.4988 3179 168.786 1198.19 412.48
2924 0 219.448 14.5547 3194 168.374 1197.85 411.522
2925 0 220.452 14.2526 3142 162.765 1198.44 410.537
2926 0 220.597 14.0165 3092 168.003 1198.89 411.524
2927 0 221.856 14.3787 3190 155.935 1198.1 410.235
2928 0 222.359 14.3551 3192 161.096 1197.9 409.235
2929 0 222.519 14.2011 3160 161.689 1198.76 410.326
2930 0 223.548 14.2206 3179 162.737 1199.02 410.684
2931 0 223.428 14.4879 3237 165.581 1197.42 408.696
2932 0 224.575 14.6187 3283 160.75 1200.81 409.593
2933 0 225.65 14.1015 3182 168.69 1199.36 409.415
2934 0 225.606 14.6139 3297 163.662 1198.8 408.958
2935 0 225.804 14.3443 3239 162.408 1201.35 409.514
2936 0 225.509 14.5449 3280 158.258 1200.3 408.09
2937 0 227.537 14.7317 3352 153.565 1201.13 407.433
2938 0 228.647 14.8351 3392 163.503 1196.95 405.71
2939 0 230.73 14.9352 3446 157.103 1198.21 406.181
2940 0 229.607 15.618 3586 149.901 1198.34 401.739
2941 0 228.518 14.9485 3416 164.105 1199.59 406.206
2942 0 232.599 14.7034 3420 156.701 1201.34 406.521
2943 0 230.607 14.8868 3433 158.192 1198.31 405.137
2944 0 230.678 14.453 3334 77.662 1198.67 406.246
2945 0 230.586 14.8751 3430 153.202 1201.33 405.84
2946 0 228.506 14.8837 3401 152.412 1201.61 405.159
2947 0 230.409 14.9213 3438 158.954 1202.8 406.26
2948 0 230.471 14.7307 3395 153.321 1199.6 405.598
2949 0 231.525 14.9228 3455 164.336 1199.84 406.357
2950 0 232.523 14.863 3456 163.733 1201.76 406.404
2951 0 234.622 15.1009 3543 153.93 1201.98 405.093
2952 0 234.377 14.7156 3449 159.884 1202.01 405.056
2953 0 234.439 15.5734 3651 155.179 1201.38 403.153
2954 0 238.447 14.7873 3526 150.915 1199.6 403.463
2955 0 235.622 15.3424 3615 151.326 1200.52 402.602
2956 0 238.682 15.2797 3647 149.015 1200.26 402.755
2957 0 235.609 15.0461 3545 152.886 1199.29 404.045
2958 0 233.494 17.1182 3997 141.122 1201.08 398.566
2959 0 232.468 17.8864 4158 144.733 1200.94 398.923
2960 0 233.586 17.0815 3990 147.931 1199.56 400.27
2961 0 234.468 16.2325 3806 140.496 1200.12 401.142
2962 0 234.959 15.3133 3598 143.369 1201.41 402.101
2963 0 236.548 15.2908 3617 143.382 1200.5 401.682
2964 0 236.432 15.349 3629 136.656 1201.71 399.519
2965 0 243.721 16.6502 4058 141.681 1199.68 395.962
2966 0 240.762 18.7987 4526 130.182 1199.98 392.169
2967 0 252.375 17.7197 4472 136.496 1201.07 395.257
2968 0 238.93 18.4406 4406 127.832 1200.49 394.585
2969 0 245.434 18.9868 4660 126.924 1199.43 391.797
2970 0 249.526 19.2124 4794 128.271 1199.37 387.738
2971 0 239.901 19.1621 4597 129.167 1200.95 391.869
2972 0 239.611 18.2588 4375 135.495 1199.44 394.575
2973 0 244.802 17.8225 4363 129.134 1199.44 393.302
2974 0 247.888 19.0005 4710 130.685 1199.8 388.909
2975 0 251.525 17.9823 4523 128.176 1200.06 387.337
2976 0 258.472 18.1064 4680 123.643 1200.7 386.582
2977 0 256.922 17.5618 4512 130.197 1199.75 389.182
2978 0 271.448 13.6822 3714 146.113 1201.18 388.281
2979 0 80.3344 16.1575 1298 153.149 1198.66 193.343
2980 0 83.2413 16.29 1356 158.428 1199.22 192.304
2981 0 85.3156 16.4331 1402 156.141 1198.79 191.561
2982 0 88.5293 16.5595 1466 156.384 1197.37 190.175
2983 1 48.2233 13.2301 638 169.956 1199.01 211.832
2984 0 48.2754 15.9294 769 159.3 1200.38 210.805
2985 0 49.1922 15.9578 785 159.829 1199.97 210.834
2986 0 51.1486 16.0513 821 163.588 1197.76 210.933
2987 0 53.2189 16.1409 859 164.107 1198.82 210.764
2988 0 55.1628 15.844 874 153.811 1198.62 210.856
2989 0 55.1126 16.5661 913 153.377 1196.71 210.001
2990 0 16.8307 9.20937 155 39.8 1191.61 450.084
2991 0 27.342 5.85181 160 46.9625 1196.4 449.256
2992 0 25.1212 13.6538 343 42.3644 1188.18 488.259
2993 0 57.861 31.4374 1819 35.436 1201.14 574.241
2994 1 35.3894 14.1568 501 40.5269 1183.08 575.307
