index division length width area intensity CMx CMy
0 0 85.1501 14.5155 1236 122.474 1299.41 478.588
1 0 88.2672 14.3428 1266 128.517 1299.61 476.447
2 0 94.0985 14.1873 1335 124.998 1302.61 475.799
3 0 97.0921 14.1927 1378 128.938 1301.77 474.647
4 0 101.304 14.2937 1448 124.72 1302.47 473.526
5 1 50.0315 13.3516 668 123.103 1304.27 497.457
6 0 54.0713 13.1123 709 137.746 1303.36 497.107
7 0 55.0678 13.5288 745 134.466 1302.85 497.536
8 0 57.1384 13.4936 771 143.825 1305.19 498.288
9 0 60.0539 13.2881 798 145.487 1300.97 498.128
10 0 61.1606 13.44 822 145.807 1302.66 497.945
11 0 62.0586 13.6806 849 142.3 1302.94 497.835
12 0 65.068 13.8163 899 128.897 1301.09 497.818
13 0 66.1545 13.8766 918 136.455 1302.21 497.524
14 0 69.1105 13.7606 951 142.397 1301.8 497.181
15 0 71.0496 13.9621 992 141.394 1300.37 495.799
16 0 74.0962 13.7254 1017 139.311 1299.49 495.578
17 0 77.13 13.7041 1057 141.427 1301.11 494.473
18 0 79.138 14.1525 1120 143.688 1299.24 492.479
19 0 83.1315 13.8696 1153 142.226 1301.32 490.382
20 0 86.2048 13.5839 1171 141.822 1297.82 489.792
21 0 89.0487 13.9362 1241 141.013 1298.26 488.223
22 0 91.1276 13.728 1251 137.023 1298.71 486.894
23 0 94.0564 13.9703 1314 136.425 1298.05 484.426
24 0 97.0771 13.9271 1352 138.52 1297.92 482.731
25 0 101.232 13.6419 1381 138.749 1298.94 481.18
26 0 105.222 13.8564 1458 135.465 1298.15 478.673
27 0 109.121 14.2502 1555 133.092 1299.03 477.792
28 0 111.096 14.402 1600 137.358 1297.85 476.928
29 1 56.0562 13.0405 731 139.291 1300.12 502.108
30 0 59.0405 13.2282 781 136.394 1298.26 500.035
31 0 61.1022 13.2892 812 140.091 1299.88 497.961
32 0 62.0732 13.2585 823 144.659 1300.83 495.656
33 0 63.0521 13.6554 861 134.785 1298.4 493.907
34 0 67.0934 13.8166 927 139.609 1302.62 490.934
35 0 69.0315 13.6894 945 145.847 1301.19 489.446
36 0 71.0759 13.6755 972 142.827 1301.17 487.826
37 0 75.1133 13.6327 1024 147.454 1301.19 485.339
38 0 77.1989 13.3551 1031 148.048 1302.71 485.008
39 0 77.1165 13.9399 1075 146.234 1304.41 483.39
40 0 82.1687 13.6305 1120 145.973 1305.82 481.696
41 0 85.242 14.0306 1196 143.554 1305.67 480.149
42 0 88.198 13.8892 1225 141.541 1305.32 478.077
43 0 91.3461 13.6514 1247 144.954 1305.64 477.158
44 0 96.4522 13.727 1324 146.932 1304.59 475.912
45 0 99.1065 13.8235 1370 144.802 1304.58 474.074
46 1 52.0241 12.4942 650 140.975 1304.62 497.068
47 0 52.0752 13.1541 685 141.728 1305.58 496.523
48 0 55.2452 12.9785 717 138.305 1304.27 496.264
49 0 57.0904 13.1721 752 139.126 1306.53 495.65
50 0 57.1993 13.4617 770 145.451 1305.78 495.656
51 0 61.1415 12.9699 793 140.689 1305.49 495.637
52 0 62.1338 13.2617 824 137.285 1305.22 495.362
53 0 64.1424 13.813 886 136.56 1304.9 494.692
54 0 66.0745 13.4394 888 142.684 1306 494.76
55 0 68.1025 13.1566 896 143.208 1304.8 494.566
56 0 70.118 13.1778 924 146.852 1307.1 493.714
57 0 72.0343 13.3131 959 144.56 1305.77 493.141
58 0 75.1359 13.1495 988 144.449 1304.02 491.693
59 0 77.0948 13.0878 1009 147.545 1304.78 490.779
60 0 80.1723 12.7974 1026 149.902 1304.96 490.231
61 0 84.1304 12.8134 1078 148.478 1304.37 488.345
62 0 86.292 12.6315 1090 148.024 1306.39 486.117
63 1 49.0683 11.107 545 144.879 1305.69 504.8
64 0 51.0486 11.5968 592 149.53 1304.5 503.358
65 0 51.0296 11.9147 608 152.938 1304.3 502.52
66 0 51.1915 12.6193 646 151.187 1304.49 501.464
67 0 54.239 12.0762 655 142.017 1304.97 500.905
68 0 55.1553 12.4195 685 144.895 1304.84 499.642
69 0 58.2071 11.9573 696 140.474 1303.67 498.01
70 0 63.1134 12.6439 798 157.345 1302.88 496.138
71 0 63.1171 12.8174 809 156.92 1306.32 495.933
72 0 62.1725 13.8647 862 161.897 1304.54 494.759
73 0 62.103 13.6869 850 159.556 1303 494.265
74 0 61.1918 13.6946 838 158.017 1304.07 493.953
75 0 61.2531 13.5013 827 166.111 1304.69 493.675
76 1 75.1548 12.8135 963 158.838 1304.54 488.429
77 0 80.2185 12.9272 1037 153.879 1305.77 485.918
78 1 42.2029 11.7054 494 160.787 1306.07 503.794
79 0 42.0315 12.1576 511 158.603 1303.34 503.501
80 0 42.0306 12.1816 512 157.465 1305 503.004
81 0 44.0168 11.9727 527 150.182 1304.73 502.049
82 0 45.0353 12.3681 557 159.636 1305.02 501.201
83 0 48.0639 12.0465 579 162.155 1305.94 500.25
84 0 49.0824 12.0206 590 158.51 1306.15 499.668
85 0 51.1024 12.4847 638 153.759 1305.53 498.881
86 0 52.1436 12.2546 639 158.415 1307.86 498.468
87 0 53.0453 12.8381 681 153.468 1305.88 497.076
88 0 55.1088 12.1578 670 148.982 1306.12 496.657
89 0 57.1152 12.5886 719 154.775 1306.98 495.75
90 0 57.0867 12.9803 741 152.899 1307.11 495.358
91 0 60.067 12.5527 754 150.615 1306.22 494.279
92 0 64.083 12.5306 803 151.619 1307.73 493.796
93 0 64.0578 13.0039 833 155.486 1305.78 492.924
94 0 68.2045 12.6971 866 156.301 1306.92 491.696
95 0 71.1574 12.5075 890 151.918 1305.33 491.096
96 0 73.2513 12.7506 934 150.885 1305.75 489.395
97 0 75.2145 12.9098 971 155.789 1305.45 487.984
98 0 78.1921 12.7251 995 154.391 1306.61 487.422
99 0 80.2689 13.2679 1065 148.969 1304.16 484.838
100 0 85.4198 12.9712 1108 153.989 1305.15 482.904
101 0 88.275 12.7782 1128 150.369 1305.53 482.512
102 0 92.175 13.0404 1202 149.084 1303.76 479.494
103 0 95.1327 13.1816 1254 149.325 1303.91 477.439
104 1 49.1645 12.4887 614 145.005 1303.64 500.793
105 0 52.2131 12.2383 639 146.016 1303.49 499.77
106 0 53.1314 12.422 660 147.802 1302.86 498.736
107 0 56.0802 12.7318 714 144.945 1304.39 497.025
108 0 57.1326 12.7073 726 143.595 1304.74 495.696
109 0 59.1203 12.8382 759 142.523 1302.79 494.673
110 0 60.1398 12.9864 781 144.257 1304.54 493.682
111 0 63.0743 12.4932 788 144.864 1305.63 492.343
112 0 65.1081 12.5944 820 153.382 1304.8 490.817
113 0 66.0866 12.9073 853 155.782 1307.25 489.94
114 0 69.1052 13.096 905 155.073 1305.46 488.526
115 0 72.0935 12.8444 926 145.873 1303.74 487.463
116 0 74.2004 12.6414 938 153.846 1304.5 485.741
117 0 76.1681 12.7744 973 152.619 1304.09 484.376
118 0 79.2128 13.2428 1049 155.588 1305.12 482.786
119 0 81.2534 13.501 1097 151.223 1303.93 479.82
120 0 85.2328 13.117 1118 153.671 1306.12 477.83
121 0 89.224 13.1355 1172 149.197 1305.77 476.71
122 1 47.1981 11.8437 559 154.987 1305.82 497.903
123 0 45.0852 12.2657 553 152.975 1306.05 498.401
124 0 48.059 12.2142 587 146.53 1306.18 497.562
125 0 49.1178 12.6431 621 152.892 1306.86 496.081
126 0 52.1035 12.3984 646 148.692 1307.55 495.489
127 0 53.2305 12.5492 668 150.645 1307.13 495.494
128 0 54.1184 12.8422 695 148.64 1307.83 494.02
129 0 57.0782 12.6493 722 146.229 1306.51 493.213
130 0 58.1576 12.6381 735 152.419 1306.62 491.909
131 0 60.1318 12.8218 771 148.661 1306.46 491.099
132 0 61.1144 13.1884 806 145.949 1307.56 490.453
133 0 63.1434 12.9705 819 146.321 1306.72 489.443
134 0 65.235 13.0451 851 146.76 1307.27 488.73
135 0 68.2485 12.938 883 146.084 1306.45 487.148
136 0 71.1911 13.3584 951 143.905 1306.4 485.821
137 0 72.5304 13.484 978 146.952 1306.78 484.709
138 0 74.364 13.4608 1001 143.575 1306.75 483.853
139 0 76.2614 13.7815 1051 146.895 1306.72 483.148
140 0 79.404 13.6643 1085 141.645 1305.27 481.374
141 0 83.5324 13.4559 1124 145.317 1305.82 479.894
142 0 85.2955 13.6936 1168 137.882 1305.22 479.03
143 0 88.3507 13.2879 1174 144.38 1304.86 477.129
144 0 91.3607 13.7368 1255 141.974 1304.19 475.819
145 1 57.0691 12.003 685 153.699 1305.98 491.912
146 0 58.0466 12.5416 728 146.901 1306.26 491.617
147 0 61.111 12.2237 747 145.456 1307.74 490.226
148 0 63.2188 12.5596 794 149.762 1306.89 489.348
149 0 64.0802 12.8589 824 142.897 1307.72 488.667
150 0 67.2135 12.676 852 146.04 1306.93 487.697
151 0 69.1363 12.931 894 144.229 1306.29 486.947
152 0 71.1906 13.0776 931 144.636 1306.48 485.549
153 0 74.2828 12.6543 940 139.222 1305.12 484.715
154 0 78.2032 12.5826 984 140.567 1305.38 483.144
155 0 80.1361 12.9654 1039 136.782 1303.2 482.216
156 0 84.1707 12.8192 1079 137.361 1302.49 480.078
157 0 85.1775 12.8555 1095 139.532 1303.87 478.9
158 0 89.3459 12.737 1138 139.686 1305.58 477.702
159 0 91.1189 13.2574 1208 134.675 1306.44 475.263
160 1 49.0323 11.6454 571 143.191 1307.95 496.904
161 0 51.0435 11.7939 602 140.839 1307.23 496.233
162 0 50.063 12.4843 625 136.67 1307.4 496.498
163 0 53.0147 12.2607 650 140.486 1306.87 495.525
164 0 55.0839 12.2359 674 145.472 1306.55 495.004
165 0 57.0766 12.089 690 144.52 1307.79 495.012
166 0 59.0585 12.022 710 138.006 1305.84 493.683
167 0 60.0936 12.3973 745 143.842 1305.28 493.209
168 0 62.1204 12.5241 778 148.441 1304.72 492.902
169 0 63.1223 12.4045 783 148.888 1303.91 493.04
170 0 63.1184 13.0707 825 147.219 1304.77 491.435
171 0 64.0997 13.2918 852 148.541 1304.98 491.486
172 0 67.093 13.5185 907 146.938 1305.17 490.002
173 0 70.1216 13.2056 926 154.934 1305.97 489.638
174 0 73.125 13.2513 969 150.745 1304.4 488.956
175 0 75.1159 13.7654 1034 147.478 1305.7 487.014
176 0 78.3147 13.2797 1040 149.07 1305.31 485.958
177 0 80.1415 13.4637 1079 147.775 1304.95 484.981
178 0 83.2293 13.6971 1140 145.477 1306.8 483.09
179 0 86.1404 13.4664 1160 147.83 1304.84 481.294
180 0 87.1222 13.8426 1206 145.04 1306.32 479.753
181 0 92.2407 13.7575 1269 146.881 1306.02 478.101
182 0 95.22 13.6001 1295 144.137 1305.7 476.486
183 0 99.1711 13.5624 1345 146.123 1305 474.904
184 0 101.201 13.4782 1364 144.661 1305.76 473.268
185 1 53.2439 12.1892 649 146.388 1307.45 497.092
186 0 55.0897 12.3253 679 141.772 1305.38 495.697
187 0 56.1043 12.3164 691 137.996 1308.18 495.863
188 0 56.1043 12.3164 691 172.847 1310.18 495.863
189 0 58.173 12.566 731 140.796 1306.92 494.111
190 0 61.3236 12.6379 775 141.218 1308.11 493.103
191 0 62.1979 12.8943 802 141.021 1307.09 492.206
192 0 63.1053 13.3745 844 141.454 1306.36 491.472
193 0 64.1372 13.3464 856 142.658 1307.74 490.494
194 0 66.0779 13.1057 866 145.057 1307.67 490.01
195 0 68.2724 13.1971 901 143.135 1306.76 489.407
196 0 70.2424 13.4534 945 148.825 1308.4 487.205
197 0 72.1121 13.5899 980 145.937 1306.27 486.412
198 0 75.3035 13.5717 1022 143.975 1307.06 485.43
199 0 76.1952 13.8198 1053 146.944 1307.15 484.09
200 0 79.1179 13.878 1098 153.435 1308.18 483.061
201 0 83.1862 13.596 1131 148.173 1307.74 482.154
202 0 84.1256 13.8721 1167 156.937 1306.7 480.12
203 0 86.1686 13.9842 1205 152.474 1307.18 478.968
204 0 89.1867 14.0492 1253 159.753 1308.12 478.2
205 0 91.2336 14.0409 1281 157.699 1306.22 476.674
206 0 95.3131 13.8281 1318 154.772 1305.87 474.601
207 0 99.219 13.9691 1386 158.242 1307.04 472.848
208 0 102.179 14.0734 1438 157.823 1306.36 470.832
209 1 50.1082 12.6327 633 158.75 1307.42 495.978
210 0 52.0404 12.548 653 155.686 1306.17 495.04
211 0 54.0337 12.6958 686 150.736 1305.71 494.162
212 0 55.0861 13.252 730 151.414 1307.32 493.299
213 0 56.1846 13.2777 746 142.885 1305.35 491.748
214 0 59.1177 13.3124 787 149.504 1306.84 490.942
215 0 61.1347 13.2004 807 149.68 1307.03 490.418
216 0 61.1486 13.6389 834 143.45 1309.63 489.302
217 0 63.1873 13.5154 854 146.932 1309.37 487.864
218 0 66.0928 13.4508 889 146.83 1307.56 487.349
219 0 67.1086 13.5452 909 147.881 1308.47 486.135
220 0 70.1525 13.5419 950 145.096 1307.94 485.063
221 0 72.1935 13.5608 979 145.968 1306.37 484.42
222 0 74.1211 13.4779 999 153.055 1308.24 482.171
223 0 76.0671 13.751 1046 136.6 1307.77 481.559
224 0 78.1208 14.0296 1096 149.114 1308.73 480.312
225 0 80.2632 13.9292 1118 143.498 1308.42 479.116
226 0 84.1463 14.2371 1198 155.953 1306.38 477.155
227 0 86.1269 14.0026 1206 152.825 1308.12 476.038
228 0 89.2218 13.9764 1247 155.091 1308 474.95
229 0 90.1306 14.2904 1288 156.262 1310.85 472.658
230 0 94.1635 13.6252 1283 155.496 1309.96 471.867
231 0 98.1942 14.1047 1385 161.23 1309.72 469.394
232 1 52.0717 12.2907 640 164.333 1307.17 492.005
233 0 52.0876 12.9781 676 161.759 1308.01 491.614
234 0 55.0333 12.8649 708 161.952 1307.24 490.674
235 0 55.0461 13.08 720 162.649 1308.84 490.172
236 0 58.1103 12.7172 739 166.022 1306.67 488.969
237 0 60.0962 12.8128 770 162.66 1307.2 488.136
238 0 64.134 12.9572 831 159.069 1309.87 486.146
239 0 64.1081 12.8065 821 163.635 1308.19 486.117
240 0 65.1198 13.3446 869 156.084 1308.83 484.933
241 0 69.0919 13.2143 913 165.579 1309.86 483.561
242 0 68.1218 13.2997 906 170.917 1308.38 483.009
243 0 73.0744 12.8362 938 170.676 1309.96 481.387
244 0 72.0584 13.7805 993 175.032 1309.57 480.074
245 0 79.0985 13.4389 1063 169.635 1307.43 478.446
246 0 81.0985 13.1568 1067 175.249 1308.87 477.008
247 0 84.1241 12.9214 1087 164.158 1307.36 475.912
248 0 84.2473 13.8639 1168 172.207 1308.63 474.43
249 0 84.2511 13.8752 1169 172.442 1306.45 474.533
250 0 93.1317 13.0353 1214 171.734 1306.94 471.498
251 1 51.0848 11.5886 592 160.551 1308.06 492.181
252 0 51.0648 12.3177 629 164.669 1309.33 491.542
253 0 54.0644 12.0782 653 162.701 1308.63 490.579
254 0 55.0971 12.1059 667 158.204 1308.27 490.505
255 0 56.0781 12.4291 697 159.06 1309.03 489.527
256 0 58.0993 12.427 722 161.641 1309.46 488.688
257 0 60.0912 12.5975 757 155 1307.37 487.444
258 0 61.1282 12.5474 767 163.926 1308.21 487.322
259 0 62.1414 13.3244 828 163.145 1309.02 485.981
260 0 64.1151 12.8363 823 159.722 1308.9 485.069
261 0 66.1667 13.2242 875 159.104 1307.99 483.736
262 0 69.0669 12.9874 897 156.147 1306.66 482.6
263 0 72.1522 13.028 940 158.059 1307.34 481.043
264 0 73.2623 13.0763 958 160.711 1306.33 480.166
265 0 77.2829 13.1206 1014 149.661 1308.69 478.878
266 0 80.2201 12.902 1035 161.341 1308.17 477.112
267 0 81.1413 13.2115 1072 160.386 1309.64 476.002
268 0 85.2383 12.9402 1103 149.07 1309.6 473.722
269 1 45.0183 11.7063 527 149.592 1307.55 495.556
270 0 46.0493 11.6397 536 152.729 1307.13 495.192
271 0 46.0599 12.3101 567 151.026 1309.5 493.601
272 0 47.0548 12.2623 577 150.213 1307.26 493.308
273 0 50.0812 12.1203 607 158.43 1308.09 491.96
274 0 51.0352 11.9133 608 155.696 1310.51 491.867
275 0 53.0373 11.8219 627 154.263 1309.39 490.823
276 0 54.0972 12.3297 667 149.817 1309.07 489.603
277 0 57.1224 11.9043 680 152.435 1309.4 489.721
278 0 58.0522 12.1098 703 147.044 1308.34 489.061
279 0 59.1703 12.3035 728 154.43 1308.59 488.534
280 0 61.1838 12.3726 757 152.448 1308.84 488.292
281 0 62.1407 12.8257 797 148.657 1307.15 487.005
282 0 66.2551 12.4821 827 154.845 1307.66 486.693
283 0 67.1868 12.6215 848 146.125 1308.87 486.518
284 0 69.1675 12.5203 866 147.528 1307.54 485.566
285 0 72.1897 12.578 908 145.032 1306.94 484.458
286 0 74.2939 12.9082 959 147.717 1307.12 483.25
287 0 78.0728 12.7701 997 143.337 1309.34 482.022
288 0 80.1216 12.6807 1016 150.398 1308.12 480.638
289 0 83.4607 12.5568 1048 148.912 1309.9 479.6
290 1 45.0616 12.4496 561 145.248 1309.1 497.62
291 0 48.0917 12.2267 588 143.735 1308.65 496.536
292 0 49.0541 12.3333 605 156.233 1307.51 495.817
293 0 50.1279 12.7474 639 152.443 1307.26 494.886
294 0 53.081 12.6222 670 152.89 1308.3 493.464
295 0 54.0953 12.8292 694 151.14 1310.19 492.821
296 0 55.1122 12.8284 707 152.311 1307.76 492.144
297 0 57.1649 13.1374 751 151.64 1307.34 491.539
298 0 56.0611 13.7707 772 151.307 1307.29 490.448
299 0 60.0772 13.2163 794 150.907 1309.28 489.936
300 0 62.0937 13.1897 819 150.719 1308.55 489.363
301 0 64.1542 13.187 846 146.888 1309.18 486.913
302 0 65.1656 13.2585 864 149.05 1310.34 486.926
303 0 68.1297 13.2688 904 159.537 1307.35 485.25
304 0 70.0418 13.6347 955 159.277 1307.63 484.407
305 0 70.1462 14.4698 1015 153.343 1307.08 483.189
306 0 75.2239 13.6925 1030 164.65 1306.59 481.69
307 0 78.1979 13.5298 1058 168.868 1306.44 480.711
308 0 79.2118 13.7353 1088 166.544 1307.19 479.319
309 0 83.2068 13.7008 1140 166.225 1308.09 478.024
310 0 85.2271 14.0918 1201 167.013 1309.92 475.274
311 0 88.2274 13.7146 1210 167.154 1306.28 473.771
312 0 92.2208 13.3267 1229 169.533 1307.36 472.864
313 1 47.0202 12.8668 605 161.056 1307.32 495.388
314 0 48.0753 13.0004 625 163.782 1307.53 494.04
315 0 50.0766 12.6406 633 169.062 1309.08 493.804
316 0 51.0631 13.2777 678 160.198 1308.81 492.471
317 0 53.0805 12.9991 690 172.735 1311.04 492.426
318 0 53.0217 13.5416 718 165.802 1310.09 490.962
319 0 53.1112 13.8766 737 164.43 1309.69 489.97
320 0 56.1023 13.7249 770 165.838 1309.2 489.47
321 0 58.2115 13.3479 777 160.207 1308.68 488.315
322 0 59.041 14.0072 827 165.311 1308.15 487.447
323 0 60.229 13.9136 838 45.173 1309.68 486.376
324 0 61.238 14.5008 888 164.604 1309.77 485.9
325 0 64.1842 14.0845 904 166.502 1308.04 484.374
326 0 66.0987 14.1909 938 167.448 1309.05 483.553
327 0 67.0996 13.9792 938 166.207 1309.94 482.947
328 0 70.2155 13.9713 981 162.877 1308.75 482.187
329 0 71.1058 14.5698 1036 167.997 1309.66 480.989
330 0 73.1256 14.7418 1078 162.179 1307.37 479.8
331 0 75.16 14.5024 1090 172.379 1309.12 478.817
332 0 79.2765 14.5945 1157 167.074 1309.77 477.157
333 0 81.1199 14.9655 1214 157.942 1310.89 475.988
334 0 84.1402 14.7016 1237 166.469 1310.47 474.348
335 0 87.2003 14.5642 1270 162.873 1309.36 473.314
336 0 89.1074 14.6116 1302 167.363 1310.56 472.013
337 0 93.1832 14.3159 1334 157.644 1307.94 470.208
338 0 96.0847 14.3311 1377 157.203 1307.94 468.692
339 1 46.0845 13.2149 609 158.305 1308.19 492.273
340 0 48.0341 12.9908 624 42.1811 1311.44 492.223
341 0 48.0408 13.4885 648 171.894 1311.33 491.495
342 0 51.1173 13.4201 686 167.691 1309.88 490.609
343 0 53.0608 13.362 709 157.182 1309.67 489.87
344 0 53.0735 13.3965 711 166.854 1310.96 489.211
345 0 56.0522 13.5766 761 167.561 1311.54 488.456
346 0 56.0374 14.1513 793 164.979 1311.74 487.261
347 0 61.1002 13.5515 828 164.164 1310.92 486.605
348 0 61.0567 13.7413 839 165.312 1308.39 485.812
349 0 63.0804 13.6968 864 165.463 1309.47 484.728
350 0 66.3055 13.468 893 158.34 1308.55 483.49
351 0 67.1952 13.6468 917 166.665 1307.86 482.983
352 0 69.0514 13.9461 963 167.261 1309.42 482.152
353 0 71.1985 14.4666 1030 167.33 1310.63 480.557
354 0 73.1617 14.1878 1038 172.02 1310.04 479.469
355 0 74.2114 14.4991 1076 166.224 1309.53 478.192
356 0 79.0989 14.0836 1114 170.961 1311.71 477.206
357 0 81.0777 14.2456 1155 165.065 1310.16 475.882
358 0 85.2196 14.0813 1200 169.142 1309.19 474.616
359 0 88.0818 14.0211 1235 169.977 1309.15 473.269
360 0 88.163 14.3598 1266 167.794 1309.82 471.525
361 0 92.0643 14.0228 1291 164.016 1309.66 470.147
362 0 97.1317 14.3311 1392 164.557 1308.77 468.318
363 0 99.1898 14.4471 1433 161.194 1311.02 466.719
364 0 103.217 13.9415 1439 164.152 1309.31 465.535
365 0 105.21 14.4188 1517 165.076 1311.1 463.872
366 0 110.263 14.3293 1580 167.851 1311.35 462.766
367 0 113.339 14.2405 1614 168.993 1309.21 460.59
368 0 118.397 14.1389 1674 168.009 1309.93 458.822
369 0 121.253 14.4079 1747 162.24 1311.34 456.634
370 0 125.364 14.5736 1827 168.233 1311.54 454.793
371 0 131.257 14.3383 1882 167.401 1309.79 451.636
372 0 134.187 14.5394 1951 165.565 1310.98 449.606
373 0 141.171 14.3372 2024 159.661 1309.64 447.215
374 0 144.359 14.4778 2090 168.788 1308.99 445.6
375 1 78.08 13.2172 1032 165.125 1310.87 476.846
376 0 82.1709 13.2894 1092 167.012 1308.36 474.671
377 0 84.233 13.5101 1138 162.526 1308.46 473.666
378 0 88.222 13.4887 1190 163.012 1308.46 472.65
379 0 89.1441 13.7306 1224 168.106 1309.42 471.462
380 0 93.2833 13.8396 1291 167.482 1309.67 470.384
381 0 98.2263 14.0899 1384 158.337 1308.76 466.83
382 0 99.3425 13.8309 1374 163.579 1310.39 466.031
383 0 102.336 13.4166 1373 168.164 1307.72 465.477
384 0 105.186 13.7376 1445 170.986 1308.21 463.828
385 0 109.12 13.9388 1521 170.705 1308.75 461.277
386 1 62.3471 12.7352 794 123.817 1311.1 484.547
387 0 64.2032 12.9433 831 165.367 1309.73 482.712
388 0 66.2382 12.8627 852 164.874 1310.86 481.516
389 0 67.3056 13.1638 886 170.703 1308.79 480.819
390 0 71.3799 13.0569 932 165.294 1310.47 479.045
391 0 73.4175 12.9125 948 166.089 1309.2 478.886
392 0 75.3255 13.1562 991 169.179 1308.86 476.646
393 0 77.3974 13.5147 1046 168.871 1309.44 474.769
394 0 81.2537 13.3532 1085 161.185 1309.78 473.584
395 0 84.273 13.2545 1117 167.647 1309.87 472.799
396 0 88.292 13.2062 1166 162.213 1309.85 470.793
397 1 47.0573 11.8791 559 157.628 1310.36 491.782
398 0 48.02 12.0575 579 160.135 1308.77 491.116
399 0 49.0466 11.8255 580 159.391 1310.69 490.298
400 0 50.1145 12.212 612 156.208 1308.25 489.761
401 0 51.0639 12.3962 633 155.94 1309.22 489.72
402 0 55.1095 12.4842 688 158.86 1309.31 488.225
403 0 57.1108 12.3794 707 160.73 1306.16 488.038
404 0 57.1936 12.1517 695 155.671 1307.27 487.578
405 0 60.1433 12.6531 761 160.206 1307.56 486.69
406 0 60.2091 12.7057 765 160.844 1309.32 485.975
407 0 62.2082 12.4742 776 155.896 1307.66 485.133
408 0 64.1053 12.8695 825 153.922 1308.94 484.55
409 0 66.2064 12.9293 856 155.294 1306.58 483.273
410 0 69.1542 12.5661 869 152.068 1306.58 482.03
411 0 70.1148 13.05 915 150.179 1308.91 480.708
412 0 74.1156 12.7099 942 152.614 1309.24 479.591
413 0 75.2224 12.9483 974 156.44 1310.59 478.252
414 0 78.1282 12.6587 989 158.632 1310.19 477.96
415 0 80.2384 12.8741 1033 153.679 1307.47 476.166
416 0 83.1712 12.9973 1081 153.804 1307.84 474.549
417 0 87.2189 12.6349 1102 155.359 1309.71 473.485
418 0 89.2219 12.665 1130 153.758 1310.54 471.862
419 0 93.149 12.7216 1185 156.497 1308.97 470.233
420 1 52.0372 10.8576 565 153.735 1311.92 490.943
421 0 53.0276 11.0886 588 155.357 1309.37 490.391
422 0 54.023 11.9579 646 144.272 1310.19 489.13
423 0 55.0602 12.1685 670 154.361 1308.4 488.601
424 0 57.0281 12.1344 692 148.133 1309.22 487.96
425 0 58.1367 12.1438 706 150.911 1311.7 486.943
426 0 60.0316 12.3268 740 143.98 1310.5 486.441
427 0 59.0141 12.641 746 152.393 1309.34 485.275
428 0 63.0724 12.3509 779 139.16 1310.65 484.644
429 0 67.1554 12.2552 823 139.241 1310.52 482.863
430 0 69.1552 12.1466 840 143.18 1308.77 482.127
431 0 68.168 12.4985 852 145.264 1310.94 481.345
432 0 70.2405 12.6423 888 147.51 1308.82 479.796
433 0 74.2237 12.7048 943 152.56 1309.87 478.462
434 0 77.1315 12.7834 986 151.343 1311.32 477.168
435 0 78.3237 12.9335 1013 157.819 1310.88 476.708
436 0 82.5024 12.4966 1031 159.11 1311.12 475.677
437 0 83.4887 12.9718 1083 155.817 1311.64 474.636
438 0 85.4638 13.3156 1138 155.833 1308.14 472.723
439 0 89.5371 12.7657 1143 156.34 1311.1 471.075
440 0 93.5828 12.8229 1200 159.795 1308.18 469.863
441 0 95.4262 13.0887 1249 155.992 1310.87 468.237
442 1 48.2739 10.979 530 154.442 1307.61 492.396
443 0 49.4234 11.4116 564 151.667 1310.09 491.106
444 0 53.4259 11.0808 592 141.39 1311.39 490.699
445 0 52.1341 11.8732 619 141.612 1311.78 490.073
446 0 54.1402 11.4702 621 147.99 1309.99 489.264
447 0 54.0289 11.3088 611 143.326 1307.74 489.255
448 0 54.0504 12.0998 654 145.102 1308.7 488.706
449 0 57.2259 11.4284 654 145.924 1310.35 487.775
450 0 58.0942 11.86 689 148.589 1311.1 487.347
451 0 61.1402 11.5799 708 146.534 1310.84 485.675
452 0 61.1988 11.8793 727 147.418 1311.34 484.759
453 0 62.1844 11.9162 741 146.256 1310.96 483.931
454 0 65.2157 12.083 788 146.462 1311.12 482.454
455 0 66.1747 12.4519 824 147.112 1310.19 481.993
456 0 69.2039 12.3259 853 139.009 1310.7 480.182
457 0 72.3857 12.3505 894 140.421 1309.55 479.183
458 0 73.2338 12.6444 926 139.419 1310.19 478.275
459 0 76.209 12.387 944 143.192 1309.62 476.444
460 0 78.2012 12.4423 973 139.914 1310.3 475.601
461 0 81.1419 12.5829 1021 133.537 1310.39 473.825
462 0 83.2692 12.6577 1054 141.005 1312.22 472.602
463 0 86.1771 12.6252 1088 140.279 1310.65 470.87
464 0 91.2145 12.5748 1147 138.655 1310.98 469.279
465 1 49.0251 10.668 523 138.489 1310.37 489.467
466 0 53.0287 10.7866 572 138.262 1308.66 488.458
467 0 53.046 10.8208 574 135.85 1308.9 488.19
468 0 55.0527 12.2428 674 136.076 1308.67 487.141
469 0 56.1129 12.1006 679 129.87 1307.79 486.539
470 0 57.0644 12.3895 707 138.26 1309.11 486.023
471 0 59.0794 12.4409 735 135.376 1309.63 484.408
472 0 62.0727 12.3726 768 131.987 1309.8 484.033
473 0 63.1406 12.6385 798 128.692 1309.93 482.798
474 0 66.0499 12.536 828 129.158 1310.49 481.571
475 0 66.0781 12.455 823 128.521 1309.18 481.227
476 0 70.0684 11.7742 825 133.646 1308.14 479.712
477 0 72.1037 12.593 908 127.911 1309.97 478.031
478 0 74.1509 13.0005 964 133.545 1307.96 476.257
479 0 77.0817 12.7397 982 132.33 1308.03 475.596
480 0 78.1093 12.905 1008 132.569 1309 474.222
481 0 81.1409 12.8419 1042 129.666 1308.81 473.215
482 0 84.0871 12.4514 1047 125.997 1307.58 472.245
483 0 87.2089 12.8771 1123 127.695 1308.46 470.145
484 0 92.0889 12.6725 1167 126.198 1309.27 469.211
485 1 47.0296 10.7167 504 130.351 1309.73 490.649
486 0 49.0528 10.7639 528 129.528 1309.14 489.96
487 0 51.0747 10.7881 551 125.632 1308.88 488.521
488 0 52.1666 11.3866 594 119.012 1310.47 487.29
489 0 53.0734 11.7385 623 117.193 1308.96 486.79
490 0 55.0836 11.5824 638 120.586 1308.9 485.915
491 0 56.0554 12.2736 688 123.353 1310.27 485.311
492 0 56.1209 12.2414 687 120.536 1312.21 484.574
493 0 61.0618 12.5447 766 115.507 1312.2 483.683
494 0 63.0946 12.5209 790 108.148 1310.14 482.547
495 0 65.07 12.7401 829 110.148 1310.99 482.111
496 0 67.0527 12.8556 862 112.136 1310.08 480.803
497 0 67.1186 13.0515 876 110.978 1310.12 480.264
498 0 68.082 13.3515 909 115.525 1310.57 478.91
499 0 70.1263 13.0764 917 110.285 1310.61 478.321
500 0 73.0465 13.2381 967 115.365 1311.8 477.449
501 0 76.1473 13.3557 1017 115.702 1311.58 477.287
502 0 78.2644 13.4672 1054 109.994 1310.34 475.564
503 0 80.1857 13.2068 1059 111.381 1309.83 474.025
504 0 84.0728 13.2623 1115 111.979 1308.71 473.156
505 0 87.241 13.4111 1170 109.785 1310.33 470.913
506 0 89.3679 13.6179 1217 113.89 1308.9 470.447
507 0 94.2456 13.4754 1270 110.884 1310.01 467.194
508 1 49.0515 11.6612 572 109.823 1311.83 490.245
509 0 50.0688 12.5028 626 105.998 1312.07 488.872
510 0 51.1131 12.7756 653 108.037 1309.52 488.487
511 0 54.0623 12.5966 681 105.154 1311.14 487.285
512 0 55.2012 12.7171 702 108.776 1312 487.155
513 0 57.1064 12.7832 730 107.678 1311.27 485.775
514 0 56.0729 13.1793 739 107.057 1309.3 485.137
515 0 58.0437 12.8524 746 110.336 1309.06 485.02
516 0 60.0371 13.2585 796 107.457 1309.33 484.235
517 0 62.1462 13.7579 855 115.957 1310.47 482.895
518 0 62.0987 13.6074 845 114.433 1310.24 482.4
519 0 67.1093 13.2321 888 117.757 1312.05 481.74
520 0 67.0804 13.7298 921 115.779 1311.18 481.003
521 0 70.0928 13.5392 949 120.374 1311.77 479.914
522 0 71.0983 14.051 999 123.319 1310.25 479.162
523 0 74.1954 13.4779 1000 125.026 1311.64 477.769
524 0 75.1077 13.94 1047 130.504 1311.71 477.577
525 0 76.1171 13.8471 1054 132.819 1311.56 476.394
526 0 79.1511 13.8722 1098 131.96 1310.13 475.087
527 0 84.0831 13.5342 1138 129.717 1311.81 474.212
528 0 86.0616 13.8041 1188 127.775 1310.07 472.881
529 0 89.1294 13.5197 1205 123.061 1313.51 471.915
530 0 91.0643 13.6607 1244 122.114 1310.6 470.049
531 1 47.0324 12.2469 576 126.856 1309.48 492.668
532 0 48.0759 12.6259 607 121.761 1311.94 491.998
533 0 49.0879 13.2416 650 115.835 1312.35 490.932
534 0 53.0659 12.9085 685 123.599 1310.79 490.345
535 0 53.0836 13.0737 694 123.294 1308.86 489.709
536 0 55.0907 12.8515 708 124.097 1311.72 489.232
537 0 56.0725 13.4469 754 122.707 1310.84 488.71
538 0 58.0838 13.8593 805 117.28 1312.77 487.666
539 0 60.1178 13.3571 803 120.447 1310.76 487.493
540 0 60.0577 13.8866 834 125.333 1309.52 486.833
541 0 62.0874 13.4327 834 125.976 1308.95 486.145
542 0 63.0638 13.7956 870 130.313 1310.19 485.344
543 0 67.1195 13.3195 894 124.632 1310.31 483.899
544 0 69.0411 13.7454 949 131.331 1309.83 482.841
545 0 72.0926 13.552 977 139.532 1309.38 481.736
546 0 72.2408 13.6211 984 139.776 1309.98 480.968
547 0 75.1081 13.5005 1014 138.17 1311.4 479.924
548 0 76.2325 14.141 1078 142.379 1311.1 479.179
549 0 80.2406 13.9705 1121 139.644 1311.59 477.43
550 0 83.1654 14.1525 1177 135.164 1311.82 476.077
551 0 85.1171 13.6518 1162 146.657 1312.04 475.306
552 1 46.0434 12.5534 578 147.576 1311.61 494.017
553 0 46.0449 12.6398 582 144.784 1312.15 493.022
554 0 49.0304 12.6248 619 149.107 1309.34 491.753
555 0 48.0702 12.7106 611 145.417 1309.4 491.797
556 0 52.0715 12.7901 666 142.201 1308.64 491.392
557 0 53.0776 12.7549 677 149.708 1311.25 489.888
558 0 55.3295 12.8141 709 145.078 1310.1 489.247
559 0 56.0566 13.1118 735 144.367 1311.48 488.105
560 0 58.1175 12.9393 752 144.618 1311.79 488.215
561 0 61.0744 13.1315 802 140.439 1310.19 486.04
562 0 62.0985 12.7861 794 144.7 1309.6 486.087
563 0 65.0948 12.7046 827 142.589 1310.19 485.017
564 0 67.0657 12.5847 844 150.41 1311.53 483.859
565 0 67.1125 13.008 873 143.1 1311.35 482.503
566 0 70.0723 13.0579 915 139.506 1312.65 481.549
567 0 73.12 12.8419 939 147.374 1311.34 480.178
568 0 74.091 13.038 966 150.284 1308.79 479.026
569 0 77.23 13.2332 1022 146.859 1309.84 477.268
570 0 81.1131 12.7353 1033 140.786 1306.66 476.574
571 0 83.0858 12.6977 1055 151.124 1307.23 475.074
572 1 41.0395 12.0128 493 144.631 1307.33 495.704
573 0 44.0634 11.665 514 148.438 1310.22 495.243
574 0 45.0811 12.1115 546 152.5 1309.56 493.762
575 0 46.0267 12.2537 564 151.979 1310.89 492.55
576 0 48.0455 12.5298 602 153.854 1311.04 492.141
577 0 47.0266 12.9714 610 143.789 1309.57 491.498
578 0 50.1165 12.6306 633 149.927 1310.24 490.295
579 0 52.047 12.7577 664 151.084 1310.56 489.895
580 0 54.0537 12.2286 661 148.921 1312.73 489.135
581 0 54.0759 13.2592 717 141.861 1312.18 488.036
582 0 54.0571 13.3562 722 152.986 1309.63 488.255
583 0 58.0613 13.2102 767 155.559 1309.91 486.969
584 0 58.0679 13.467 782 155.041 1308.49 485.653
585 0 61.0767 13.3111 813 152.22 1311.18 485.071
586 0 63.1447 13.7779 870 158.457 1309.7 483.945
587 0 65.1363 13.4487 876 156.566 1311.84 482.199
588 0 65.0788 14.0445 914 158.223 1312.35 481.384
589 0 68.1182 13.5353 922 149.447 1309.98 481.158
590 0 71.115 13.7242 976 142.314 1312.5 478.634
591 0 73.0651 13.6727 999 142.757 1311.65 477.296
592 0 76.1066 13.6913 1042 151.44 1310.36 476.892
593 0 79.1483 13.759 1089 147.586 1311.49 474.786
594 0 83.0475 13.2575 1101 154.174 1310.16 473.838
595 1 42.1221 12.4163 523 159.778 1308.66 493.036
596 0 42.0573 12.6732 533 152.638 1308.56 492.212
597 0 45.0453 12.3209 555 159.589 1310.68 491.838
598 0 45.1409 12.8043 578 156.927 1310.92 490.799
599 0 47.1097 12.6089 594 151.02 1309.88 489.737
600 0 48.1121 12.554 604 151.109 1311.27 489.147
601 0 51.071 12.9428 661 154.026 1311.12 488.504
602 0 49.1073 12.7476 626 150.864 1311.1 487.922
603 0 52.0864 12.7864 666 139.638 1310.79 487.33
604 0 54.1346 12.3027 666 149.694 1311.49 486.785
605 0 54.1767 12.5515 680 150.503 1312.64 486.172
606 0 56.0935 12.8 718 150.621 1312.89 485.872
607 0 57.1412 12.2679 701 139.702 1312.77 484.475
608 0 58.2633 11.9629 697 137.429 1312.03 484.525
609 0 57.0808 12.5962 719 128.904 1311.04 482.318
610 0 62.0971 11.9651 743 129.665 1311.47 481.587
611 0 64.149 12.5489 805 142.457 1311.99 481.149
612 0 66.2347 12.2141 809 134.451 1312.38 480.328
613 0 69.1916 12.1402 840 138.099 1312.83 479.627
614 1 35.019 10.5371 369 137.309 1311.87 495.401
615 0 35.0503 10.4707 367 130.752 1310.93 494.894
616 0 36.1412 11.3167 409 123.582 1311.13 493.961
617 0 38.0494 12.0107 457 124.46 1310.9 492.501
618 0 39.0628 11.4175 446 126.904 1312.51 492.146
619 0 42.0471 11.5109 484 127.694 1311.5 490.911
620 0 42.0579 11.8646 499 122.263 1310.8 491.21
621 0 44.1087 12.1971 538 128.548 1309.85 490.565
622 0 45.0921 12.042 543 133.368 1312.58 490.425
623 0 47.0959 11.9756 564 134.906 1311.92 489.512
624 0 47.0857 11.872 559 131.855 1312.08 488.712
625 0 49.1663 12.2645 603 134.925 1310.41 488.373
626 0 50.0977 12.276 615 127.894 1311.79 486.99
627 0 51.1295 12.1847 623 119.557 1310.45 486.236
628 0 53.0778 12.0766 641 119.841 1311.29 485.527
629 0 55.0484 12.7524 702 125.387 1309.39 485.717
630 0 56.0951 12.2827 689 114.624 1309.56 485.411
631 0 55.0424 12.8628 708 118.112 1309.5 482.756
632 0 58.1082 12.0637 701 116.34 1311.72 482.208
633 0 63.1488 11.7184 740 107.066 1311.53 480.103
634 0 63.0359 12.1518 766 108.491 1311.65 479.561
635 0 64.1 12.1997 782 98.9207 1311.57 478.422
636 0 66.0678 12.5326 828 104.134 1310.56 477.461
637 0 70.0377 12.9216 905 107.177 1310.99 477.412
638 1 36.0437 10.4318 376 113.04 1309.95 494.003
639 0 36.0061 10.6926 385 111.164 1309.64 493.696
640 0 39.0174 11.5077 449 107.706 1307.8 492.376
641 0 38.0325 11.1221 423 104.712 1309.56 491.688
642 0 42.0308 11.7295 493 104.781 1309.61 490.822
643 0 43.0633 11.5644 498 112.604 1309.46 490.598
644 0 45.0493 12.0979 545 113.127 1308.26 489.78
645 0 47.0451 11.7334 552 118.163 1307.89 488.687
646 0 47.0991 12.0385 567 120.852 1308.75 488.903
647 0 49.0637 11.5156 565 119.372 1309.55 488.729
648 0 49.0922 11.509 565 115.996 1309.39 487.244
649 0 52.0654 12.1578 633 113.861 1307.14 486.575
650 0 54.0762 10.8735 588 115.167 1308.81 486.871
651 0 55.0634 12.0951 666 117.329 1307.71 485.557
652 0 55.1204 12.3185 679 121.096 1307.91 484.655
653 0 58.0512 12.3339 716 123.574 1307.56 484.571
654 0 60.1308 12.2899 739 122.725 1308.13 483.824
655 1 31.0285 8.8306 274 125.405 1308.73 497.901
656 0 30.0348 9.22263 277 121.69 1308.15 497.903
657 1 67.1105 11.8014 792 115.059 1308.89 480.283
658 0 56.1596 8.17313 459 124.497 1308.35 487.819
659 0 55.0837 7.46137 411 120.365 1309.77 489.477
660 0 54.0437 6.32821 342 115.88 1307.72 491.474
661 0 58.1176 7.14069 415 122.164 1311.27 490.407
662 0 58.0548 11.2824 655 107.165 1309.48 483.377
663 0 57.1114 11.3988 651 104.257 1309.1 483.378
664 0 57.2374 11.6532 667 97.1874 1309.05 483.999
665 0 57.2101 11.3267 648 100.114 1307.58 484.049
666 1 173.513 12.6331 2192 97.6008 1307.92 425.245
667 0 172.439 7.75346 1337 106.312 1308.4 443.862
668 0 172.348 8.30297 1431 113.667 1307.65 441.708
669 0 176.372 8.329 1469 114.456 1309.22 441.832
670 0 12.0048 9.24631 111 100.712 1308.35 301.892
671 0 13.0017 3.84565 50 85.4 1306.42 302.82
672 1 0 0 0 -nan -nan -nan
673 1 12.0047 10.246 123 100.87 1308.04 304.805
674 0 199.255 8.71747 1737 115.15 1308.86 435.406
675 0 203.301 8.42592 1713 112.168 1309.1 433.506
676 0 201.232 6.8031 1369 116.165 1309.44 447.54
677 1 122.166 13.277 1622 104.229 1310.63 451.935
678 1 65.1755 12.7195 829 105.821 1310.6 481.712
679 0 68.1079 12.4361 847 113.3 1311.11 481.364
680 1 35.0499 9.32955 327 116.939 1311.45 498.621
681 0 39.1034 9.9224 388 115.982 1310.55 496.709
682 0 38.0767 10.5051 400 115.892 1310.94 496.075
683 0 40.0662 10.9818 440 113.452 1309.61 495.336
684 0 42.1034 11.163 470 109.596 1310.39 494.692
685 0 43.0871 11.6276 501 113.569 1311.24 493.896
686 0 45.2231 11.8523 536 114.401 1311.73 492.802
687 0 47.0715 11.9393 562 117.918 1311.83 493.253
688 0 50.0827 12.7789 640 133.791 1310.6 492.775
689 0 50.0876 13.3766 670 142.822 1312.02 491.212
690 0 53.2283 12.7564 679 142.82 1309.81 490.916
691 0 54.1994 13.1551 713 142.75 1310.16 489.871
692 0 54.1245 13.6907 741 141.557 1311.74 488.911
693 0 56.114 13.6508 766 139.382 1312.18 488.975
694 0 57.203 13.8979 795 137.099 1312.11 487.605
695 0 61.0744 13.7373 839 140.621 1311.21 487.052
696 0 60.1884 13.9562 840 138.688 1308.98 485.506
697 0 63.1321 13.7806 870 144.138 1310.52 485.157
698 0 65.1606 14.165 923 136.551 1310.1 483.62
699 0 67.1119 14.3045 960 133.782 1309.83 482.195
700 0 70.2063 14.0016 983 137.406 1310.62 481.894
701 0 71.1246 13.9895 995 139.276 1310.86 480.698
702 0 75.3355 13.858 1044 136.038 1310.29 479.288
703 0 76.1701 13.6405 1039 138.203 1310.72 477.877
704 0 78.3305 14.2601 1117 141.382 1308.74 476.38
705 0 83.2036 14.0379 1168 135.703 1309.92 475.682
706 0 86.209 13.5021 1164 142.844 1311.61 473.765
707 0 90.1288 14.0022 1262 135.318 1311.08 472.337
708 0 93.1656 14.1254 1316 132.133 1312.94 469.582
709 1 48.0372 12.9899 624 138.915 1311.89 492.107
710 0 49.0532 12.8228 629 133.808 1312.23 490.773
711 0 51.0678 12.6303 645 137.969 1311.81 490.31
712 0 52.1018 12.917 673 135.1 1309.76 488.875
713 0 55.0881 12.9974 716 136.377 1311.64 488.011
714 0 56.0471 12.775 716 129.827 1310.6 487.363
715 0 57.0237 13.5207 771 135.776 1311.42 485.866
716 0 59.0754 13.2712 784 133.259 1312.71 485.287
717 0 63.1105 13.1357 829 127.452 1312.24 484.357
718 0 64.0386 13.4763 863 134.555 1312.2 483.12
719 0 66.1027 13.4639 890 130.547 1312.82 481.854
720 0 69.0465 13.3099 919 126.583 1312.92 481.016
721 0 71.0638 13.1291 933 131.284 1311.32 479.833
722 0 73.092 13.2573 969 130.419 1311.7 479.04
723 0 77.2172 13.6498 1054 132.871 1311.71 477.758
724 0 80.1379 13.3146 1067 134.576 1312.28 476.5
725 0 82.1078 13.4336 1103 134.942 1313.05 474.324
726 1 43.0217 12.2496 527 137.949 1313.87 492.636
727 0 46.0527 12.2468 564 131.571 1313.48 492.241
728 0 48.0393 12.7604 613 134.765 1312.58 490.912
729 0 48.0395 12.9893 624 142.141 1312.36 490.194
730 0 51.0353 12.5207 639 138.502 1310.59 489.327
731 0 51.0358 13.0889 668 135.434 1310.88 488.301
732 0 53.0463 13.1772 699 131.857 1312.12 487.78
733 0 57.0532 12.725 726 138.663 1312.76 487.03
734 0 55.1055 13.3925 738 139.454 1313.73 485.747
735 0 57.1067 13.2559 757 132.633 1313.18 485.111
736 0 58.1033 13.6137 791 130.664 1314.83 484.266
737 0 60.156 13.2988 800 138.065 1312.27 484.18
738 0 62.0974 13.2051 820 132.639 1311.93 483.434
739 0 65.083 13.3215 867 138.159 1312.07 482.281
740 0 64.1061 14.008 898 137.374 1311.06 481.033
741 0 67.092 13.7721 924 139.095 1310.66 480.949
742 0 69.1623 13.4322 929 123.992 1312 479.91
743 0 72.3071 13.1661 952 133.831 1312.67 478.637
744 0 74.0847 13.5251 1002 136.694 1311.8 476.911
745 0 78.139 13.3864 1046 135.316 1312.4 475.811
746 0 80.1736 13.3086 1067 128.529 1311.54 474.62
747 0 83.2306 13.4205 1117 136.602 1311.64 473.11
748 1 44.0333 12.218 538 131.379 1311.71 490.989
749 0 47.1183 11.9062 561 130.702 1312.58 490.169
750 0 50.0426 12.4294 622 131.63 1313.29 489.32
751 0 51.0944 12.3693 632 130.552 1312.1 488.522
752 0 51.0909 13.0552 667 127.535 1312.61 487.595
753 0 53.0719 12.8505 682 123.166 1312.05 486.427
754 0 55.0867 13.034 718 122.556 1311.41 486.343
755 0 58.0361 12.7851 742 118.895 1310.94 484.926
756 0 58.0744 13.0867 760 122.986 1309.82 484.334
757 0 59.0451 13.1425 776 128.168 1311.44 483.378
758 0 63.1257 12.99 820 128.621 1311.79 482.43
759 0 64.0715 13.0791 838 127.301 1310.4 480.819
760 0 67.1209 13.5129 907 127.391 1311.47 479.39
761 0 69.0791 12.9851 897 129.219 1313.01 478.794
762 0 70.1496 13.1861 925 131.335 1312.16 477.639
763 0 74.0859 12.8364 951 133.145 1311.36 475.781
764 0 77.2028 13.3156 1028 129.803 1311.48 474.139
765 0 81.1098 13.1303 1065 128.954 1311.04 473.331
766 1 41.0443 10.5008 431 136.882 1311.67 492.74
767 0 44.0192 11.4268 503 135.922 1313.25 491.28
768 0 46.0317 11.8179 544 131.432 1314.16 490.195
769 0 49.0704 11.8809 583 134.353 1310.71 489.611
770 0 50.1245 12.03 603 131.891 1311.23 488.952
771 0 51.1044 12.2299 625 135.706 1312.58 487.928
772 0 54.184 12.2914 666 141.634 1310.46 486.941
773 0 56.1862 12.1382 682 140.721 1312.66 486.031
774 0 58.1319 12.2652 713 128.644 1313.63 485.039
775 0 59.1 12.9273 764 136.66 1312.56 483.685
776 0 62.0728 12.7109 789 132.611 1314.23 483.431
777 0 63.054 12.8778 812 142.466 1310.37 482.36
778 0 65.0351 13.1006 852 135.837 1310.94 480.608
779 0 69.1519 13.145 909 133.965 1313.27 480.213
780 0 71.1052 13.4027 953 132.428 1311.66 478.272
781 0 74.1018 13.279 984 132.788 1313.54 478.02
782 0 76.0485 13.3599 1016 135.379 1312.45 476.833
783 0 80.1262 13.1917 1057 133.342 1312.14 475.64
784 0 82.2124 13.4408 1105 138.338 1310.12 474.193
785 0 85.2191 13.5181 1152 129.283 1311.9 473.117
786 0 87.3282 13.684 1195 134.469 1311.23 470.569
787 0 93.1676 13.4274 1251 128.715 1312.58 469.48
788 1 47.0422 11.6279 547 136.857 1312.57 491.042
789 0 48.0454 11.6765 561 133.558 1313.73 490.458
790 0 49.0682 12.5743 617 131.47 1312.65 489.718
791 0 51.0519 12.5363 640 131.155 1312.34 488.75
792 0 52.116 13.0094 678 130.659 1313.97 488.261
793 0 53.0586 13.061 693 133.786 1310.69 487.401
794 0 57.1343 12.7944 731 125.302 1311.82 486.506
795 0 59.0753 12.7126 751 128.076 1311.88 485.334
796 0 60.1621 13.0813 787 130.21 1311.17 485.269
797 0 64.0763 12.8285 822 125.234 1312.58 484.112
798 0 67.0776 12.8806 864 126.021 1309.15 483.476
799 0 67.0697 13.0014 872 126.63 1310.6 482.725
800 0 69.0821 13.3175 920 123.358 1310.71 481.184
801 0 72.1383 13.0167 939 127.428 1311.46 480.491
802 0 76.0713 13.2902 1011 126.022 1311.28 479.564
803 0 78.094 13.5734 1060 119.348 1312.59 478.143
804 0 81.104 13.6491 1107 123.549 1311.99 477.075
805 0 84.247 12.95 1091 123.161 1312.59 476.911
806 0 86.1952 13.191 1137 125.646 1313.09 474.906
807 0 88.0863 13.4527 1185 126.605 1312.49 474.288
808 0 92.0978 13.4097 1235 123.023 1309.81 472.811
809 1 50.0323 12.2721 614 123.884 1311.24 492.235
810 0 50.1003 12.6347 633 125.414 1311.08 491.634
811 0 53.1183 12.5192 665 133.314 1311.35 491.687
812 0 54.0516 12.8951 697 131.463 1310.82 490.89
813 0 55.0795 13.0357 718 134.517 1309.97 490.347
814 0 55.1494 13.0736 721 130.381 1312.18 489.157
815 0 59.0879 12.6253 746 132.473 1309.03 488.741
816 0 60.0787 12.7666 767 133.518 1309.62 488.364
817 0 62.0897 12.7396 791 134.836 1310.82 487.351
818 0 63.1394 12.8129 809 130.004 1310.48 487.035
819 0 65.0762 13.3228 867 123.682 1309.9 485.528
820 0 66.0358 13.0232 860 129.427 1309.98 485.312
821 0 68.056 12.7983 871 131.131 1307.11 484.635
822 0 70.0661 13.1162 919 127.521 1311.69 482.655
823 0 71.0523 13.3986 952 134.696 1309.98 482.151
824 0 74.0546 13.6251 1009 134.947 1308.96 480.706
825 0 76.1056 13.3499 1016 134.913 1310.85 479.467
826 0 80.11 13.2693 1063 136.257 1311.51 478.224
827 0 82.1015 13.1423 1079 137.988 1311.33 476.897
828 0 84.1365 13.4424 1131 138.775 1309.88 475.169
829 0 87.0895 13.7904 1201 138.022 1310.84 473.205
830 0 90.079 13.4771 1214 137.397 1309.84 471.812
831 1 50.0146 12.5563 628 141.562 1308.57 491.288
832 0 51.0195 13.191 673 144.825 1309.13 490.275
833 0 53.0524 13.2134 701 147.573 1310.75 489.218
834 0 55.0282 13.2296 728 141.308 1311.87 488.272
835 0 55.0346 13.9367 767 141.896 1310.39 487.602
836 0 57.0585 13.7929 787 142.971 1310.91 486.456
837 0 59.1483 13.8296 818 147.227 1310.39 485.647
838 0 59.0308 14.3654 848 146.669 1309.36 484.921
839 0 61.1104 14.2038 868 147.114 1310.66 483.894
840 0 63.1245 14.1942 896 148.676 1312.31 483.243
841 0 65.0703 14.2154 925 149.543 1311.72 481.965
842 0 68.0591 13.5324 921 149.58 1310.84 481.444
843 0 70.0504 14.0756 986 159.324 1312.12 480.006
844 0 73.0371 14.1572 1034 150.539 1313.49 479.079
845 0 74.2107 14.1354 1049 155.772 1313.08 477.578
846 0 78.0639 13.6427 1065 154.361 1315.16 475.804
847 0 80.0369 14.1685 1134 152.289 1315.6 474.925
848 0 82.041 14.1637 1162 151.593 1313.66 473.487
849 0 86.1168 13.7836 1187 159.836 1313.28 472.964
850 1 46.0732 13.1747 607 160.751 1311.68 490.969
851 0 49.0409 13.397 657 152.379 1310.73 489.998
852 0 50.0736 13.2006 661 151.231 1310.79 490.508
853 0 51.1614 13.2913 680 160.156 1310.02 490.124
854 0 51.0761 13.7638 703 155.383 1312.56 488.734
855 0 53.071 13.5291 718 159.84 1312.45 488.146
856 0 53.0337 14.0665 746 162.391 1311.51 487.922
857 0 57.0717 13.8773 792 162.509 1311.62 487.451
858 0 58.0884 13.6344 792 160.503 1311.13 485.783
859 0 61.0566 13.7905 842 167.203 1311.07 484.419
860 0 60.1294 14.3025 860 166.929 1313.99 484.05
861 0 62.1041 14.4435 897 164.706 1312.9 483.489
862 0 65.0874 14.4268 939 167.039 1312.2 482.304
863 0 69.0735 13.9851 966 163.909 1312.51 480.934
864 0 70.182 14.3342 1006 166.959 1312.72 480.061
865 0 74.1071 14.2497 1056 161.189 1310.61 478.274
866 0 76.1091 14.4004 1096 163.328 1311.99 477.157
867 0 78.1333 14.0273 1096 164.391 1310.64 476.852
868 0 80.244 14.0696 1129 157.918 1313.47 475.056
869 0 82.187 14.6617 1205 166.147 1309 473.983
870 0 84.1158 14.5157 1221 163.78 1310.11 472.008
871 0 89.2144 14.325 1278 168.006 1311.41 471.262
872 0 92.1599 13.9649 1287 166.197 1312.16 469.842
873 1 50.0794 14.0777 705 169.543 1312.23 489.244
874 0 52.148 13.7493 717 174.377 1314.57 487.722
875 0 53.0518 14.1748 752 165.379 1312.25 487.403
876 0 56.2461 14.1521 796 168.349 1310.86 486.129
877 0 57.1533 14.3999 823 170.623 1312.02 485.589
878 0 59.1858 14.4123 853 170.211 1312.64 484.815
879 0 61.2813 14.2621 874 170.757 1312.53 483.989
880 0 63.1005 14.469 913 170.663 1312.17 483.239
881 0 65.2008 14.6624 956 173.799 1310.65 481.981
882 0 66.1724 14.5529 963 169.32 1312.7 481.254
883 0 68.1536 14.8195 1010 170.191 1310.49 480.857
884 0 70.2038 15.0989 1060 166.867 1310.93 479.131
885 0 73.2387 14.5552 1066 173.053 1311.92 479.25
886 0 76.2413 14.4541 1102 166.936 1312.55 477.602
887 0 78.2133 14.7673 1155 172.656 1311.89 476.047
888 0 80.1717 15.13 1213 169.439 1313.57 474.467
889 0 84.1313 14.7151 1238 173.974 1311.24 473.505
890 0 88.1869 14.6394 1291 170.406 1312.42 471.644
891 0 89.2254 14.8388 1324 161.48 1312.38 470.646
892 1 47.0201 13.9302 655 175.632 1313.15 490.395
893 0 48.0401 14.3422 689 176.475 1313.28 490.106
894 0 50.1441 14.239 714 176.326 1312.26 489.307
895 0 51.1128 14.9865 766 171.411 1309.78 488.564
896 0 53.0969 15.0103 797 172.103 1312.01 487.747
897 0 53.0891 15.2574 810 167.593 1310.58 487.473
898 0 57.1435 14.3848 822 170.013 1312.76 485.912
899 0 58.2259 14.5983 850 175.888 1314.34 485.409
900 0 58.0365 15.4386 896 173.917 1311.07 485.356
901 0 63.1315 15.1113 954 172.836 1313.4 483.896
902 0 63.18 15.1472 957 168.115 1312.6 483.814
903 0 66.08 15.2088 1005 174.283 1312.01 482.28
904 0 70.0582 15.1303 1060 174.115 1313.43 480.934
905 0 72.178 14.9214 1077 167.567 1313.17 479.735
906 0 75.1211 14.8826 1118 165.213 1312.81 478.22
907 0 76.092 15.3498 1168 173.293 1311.41 477.951
908 0 78.0392 14.9668 1168 163.965 1311.64 476.699
909 0 82.0412 15.2241 1249 170.561 1310.82 475.627
910 0 86.1742 15.0857 1300 166.758 1312.35 474.14
911 1 42.0189 14.1603 595 176.728 1313.93 494.785
912 0 42.0377 15.1055 635 168.402 1312.26 493.775
913 0 45.1173 15.094 681 173.238 1313.18 493.085
914 0 47.069 15.0205 707 172.72 1313.01 492.389
915 0 47.0395 15.1362 712 158.149 1312.26 491.501
916 0 49.1967 15.1026 743 173.79 1312.08 490.808
917 0 51.2057 15.4865 793 168.726 1312.62 489.976
918 0 53.1556 15.3324 815 163.605 1311.95 489.493
919 0 55.1475 15.2138 839 170.698 1313.32 488.967
920 0 57.256 15.4045 882 170.73 1311.33 487.041
921 0 59.0759 15.6917 927 173.523 1312.08 486.931
922 0 61.138 15.4405 944 174.73 1313.74 485.911
923 0 63.1482 15.139 956 170.237 1313.4 484.933
924 0 66.1944 15.4243 1021 171.481 1311.16 483.547
925 0 67.0867 15.875 1065 166.195 1310.71 482.764
926 0 68.0629 16.0293 1091 173.641 1311.91 482.072
927 0 74.1553 15.2383 1130 173.234 1312.08 480.729
928 0 77.0712 14.9602 1153 177.637 1312.89 479.777
929 0 80.207 14.8117 1188 169.577 1313.25 478.185
930 0 83.172 14.9449 1243 173.446 1312.75 477.113
931 1 43.1491 14.1602 611 175.925 1312.49 495.164
932 0 43.1129 14.7752 637 177.031 1313.54 494.804
933 0 45.054 14.6935 662 178.926 1312.47 494.059
934 0 47.1159 14.7721 696 171.638 1311.87 493.48
935 0 47.1148 15.2818 720 176.553 1312.74 493.161
936 0 49.1977 15.0617 741 174.537 1312.8 491.911
937 0 52.0632 14.9434 778 172.017 1314.34 491.238
938 0 51.2957 16.0052 821 174.034 1310.71 490.056
939 0 56.3451 15.2453 859 173.054 1313.03 488.794
940 0 59.3533 14.9613 888 176.786 1311.77 488.769
941 0 59.1977 14.8992 882 173.964 1311.1 487.507
942 0 63.2769 14.9502 946 173.873 1312.37 485.829
943 0 63.2351 15.1024 955 168.82 1312.97 485.74
944 0 66.1824 15.3968 1019 174.28 1313.25 484.056
945 0 70.149 14.683 1030 175.584 1313.87 483.522
946 0 71.3092 14.9069 1063 165.943 1314.53 482.412
947 0 74.1142 14.5991 1082 170.464 1314.17 481.921
948 0 76.2139 14.643 1116 168.746 1314.42 480.828
949 0 79.3554 14.8446 1178 171.785 1314.13 479.503
950 1 43.2619 14.1464 612 171.477 1314.98 496.096
951 0 44.0946 14.673 647 175.842 1313.61 495.182
952 0 46.1852 14.5934 674 173.444 1313.63 494.289
953 0 46.3823 14.7686 685 179.806 1311.79 494.039
954 0 48.3395 14.3775 695 171.351 1312.3 493.376
955 0 50.1641 14.5921 732 179.307 1312.23 492.694
956 0 52.1489 14.5545 759 177.158 1308.99 491.676
957 0 54.0439 14.5437 786 173.622 1313.14 490.449
958 0 56.1906 14.8245 833 177.305 1312.28 489.216
959 0 59.3099 14.5338 862 175.745 1313.1 487.99
960 0 61.0812 14.4889 885 169.777 1313.48 486.853
961 0 61.1194 14.8234 906 176.177 1313.27 486.592
962 0 63.0726 15.3315 967 181.925 1311.37 485.539
963 0 66.1931 14.5786 965 170.817 1312.39 484.299
964 0 68.0981 14.7728 1006 174.211 1314.23 482.311
965 0 71.1076 14.8367 1055 175.739 1312.66 480.506
966 0 74.1274 14.3132 1061 167.516 1313.07 479.097
967 0 76.0839 14.6286 1113 174.984 1313.09 477.318
968 0 81.0498 14.4232 1169 167.414 1314 475.325
969 1 41.0615 13.0292 535 154.854 1314.71 492.897
970 0 43.0312 13.5483 583 176.815 1313.29 492.47
971 0 44.0221 13.8339 609 165.844 1312.87 491.016
972 0 45.0879 14.2832 644 174.961 1312.65 490.689
973 0 48.0304 14.1577 680 174.424 1311.18 489.841
974 0 49.0843 13.9556 685 167.435 1311.42 488.747
975 0 49.0324 14.6026 716 169.964 1313.96 488.814
976 0 52.0608 14.4062 750 168.557 1313.66 487.971
977 0 53.0469 14.6286 776 177.183 1313.3 487.322
978 0 55.1149 14.6784 809 172.991 1311.5 486.718
979 0 57.0242 14.4325 823 172.269 1312.52 485.909
980 0 59.0294 14.8909 879 177.578 1311.12 484.954
981 0 60.0779 15.2469 916 166.57 1311.85 483.346
982 0 64.0303 14.7274 943 171.345 1313.82 482.606
983 0 64.1135 15.4102 988 171.999 1311.98 481.773
984 0 67.0577 15.1362 1015 172.892 1311.51 480.518
985 0 69.0743 15.4182 1065 165.27 1310.33 479.216
986 0 74.0632 15.0412 1114 172.423 1311.93 478.005
987 0 77.0206 15.0999 1163 170.617 1312.04 476.643
988 0 79.1938 15.0517 1192 168.651 1312.27 475.209
989 0 81.1369 15.1965 1233 172.971 1311.15 473.672
990 0 84.1221 15.3705 1293 161.152 1313.3 472.526
991 0 87.1531 14.9966 1307 173.511 1310.86 471.591
992 0 91.0858 15.1066 1376 173.161 1311.53 468.924
993 0 94.088 15.1135 1422 169 1310.43 467.714
994 0 98.2329 15.2189 1495 167.787 1311.36 465.326
995 0 102.096 15.074 1539 171.012 1311.75 463.888
996 1 54.155 13.646 739 166.801 1313.15 487.336
997 0 54.0499 13.9871 756 173.399 1310.24 486.574
998 0 58.1134 14.1964 825 170.493 1310.51 484.936
999 0 60.1005 14.1263 849 171.008 1312.2 484.018
1000 0 61.098 14.3376 876 165.396 1310.37 483.174
1001 0 64.2253 14.2934 918 172.728 1311.33 482.303
1002 0 65.1461 14.4137 939 170.136 1311.03 481.252
1003 0 67.1402 14.3431 963 173.206 1310.99 480.153
1004 0 70.1964 14.3739 1009 169.141 1311.26 478.404
1005 0 74.1367 14.1226 1047 165.441 1313.23 477.494
1006 0 75.111 14.4985 1089 171.289 1312.6 475.967
1007 0 77.0913 14.3466 1106 168.024 1312.23 474.662
1008 0 81.199 14.446 1173 170.104 1313.38 473.333
1009 0 82.171 14.9566 1229 165.375 1313.29 471.523
1010 0 87.1531 14.4688 1261 165.909 1312.75 469.266
1011 0 93.1333 14.2913 1331 166.458 1313.14 467.193
1012 0 95.2195 14.5453 1385 164.133 1312.2 465.692
1013 0 100.154 13.9185 1394 155.902 1314.05 464.074
1014 0 104.182 14.1291 1472 152.694 1311.5 461.555
1015 1 58.2491 13.1847 768 157.72 1311.52 483.579
1016 0 58.084 13.6871 795 161.216 1310.89 483.113
1017 0 62.0745 13.2744 824 155.664 1310.92 481.905
1018 0 63.0774 13.4914 851 162.572 1312.7 480.62
1019 0 67.052 13.3926 898 155.403 1310.58 479.075
1020 0 69.0558 13.5398 935 162.452 1311.42 478.245
1021 0 71.0894 13.7714 979 160.439 1312.65 477.234
1022 0 73.1134 14.1561 1035 165.056 1314.14 475.798
1023 0 76.0504 13.8066 1050 160.59 1313.53 474.631
1024 0 78.14 13.8853 1085 158.473 1313.07 473.966
1025 0 81.0928 14.0456 1139 158.04 1312.48 472.995
1026 0 84.1587 13.8785 1168 157.966 1312.26 471.393
1027 0 87.062 13.9211 1212 158.277 1309.88 470.104
1028 0 89.1488 14.1561 1262 158.657 1311.55 468.921
1029 0 93.1474 13.9134 1296 73.2554 1310.68 467.669
1030 0 96.2335 14.0284 1350 163.963 1309.49 466.722
1031 0 98.1485 14.1928 1393 151.812 1310.31 464.974
1032 0 103.113 14.198 1464 155.516 1311.43 463.465
1033 0 106.157 14.196 1507 157.44 1309.94 461.92
1034 0 111.129 14.4067 1601 147.102 1309.29 459.324
1035 0 115.185 14.3681 1655 156.871 1311.07 458.12
1036 0 119.209 14.2439 1698 150.279 1312.44 455.326
1037 1 64.1024 13.4628 863 156.794 1310.21 481.072
1038 0 68.1531 13.2496 903 155.602 1309.18 479.794
1039 0 70.0833 13.5981 953 153.516 1310.5 478.355
1040 0 71.1161 14.1459 1006 157.154 1311.26 476.15
1041 0 75.2171 13.9862 1052 148.314 1311.9 474.899
1042 0 79.0828 14.1497 1119 141.698 1313.99 473.948
1043 0 81.1694 13.9215 1130 152.419 1311.7 472.165
1044 0 83.1928 14.5445 1210 148.2 1313.34 471.085
1045 0 87.2118 14.1609 1235 156.807 1312.45 470.194
1046 0 89.1655 14.4787 1291 148.208 1311.44 468.532
1047 0 94.1465 14.1482 1332 151.655 1312.01 466.91
1048 0 96.288 14.5916 1405 147.532 1313.04 465.285
1049 0 99.2495 14.4988 1439 146.864 1312.29 463.537
1050 0 104.236 14.3041 1491 138.844 1312.42 462.513
1051 0 108.164 14.552 1574 146.749 1311.29 460.325
1052 0 112.14 14.464 1622 147.128 1311.89 457.562
1053 0 116.174 14.5558 1691 145.643 1312.3 456.189
1054 1 63.1291 12.2447 773 138.761 1311.1 483.505
1055 0 64.1088 12.4476 798 144.591 1313.05 482.828
1056 0 67.0903 12.5055 839 142.369 1313.69 481.665
1057 0 69.0551 12.5117 864 145.61 1311.93 481.85
1058 0 72.0733 12.6954 915 142.202 1312.98 478.957
1059 0 73.1175 13.1843 964 146.638 1313.22 477.528
1060 0 76.057 13.0034 989 145.81 1311.19 476.466
1061 0 79.0766 12.5701 994 149.005 1313.6 475.691
1062 0 82.109 13.1411 1079 150.682 1311.24 473.956
1063 0 84.131 13.1105 1103 144.306 1310.74 473.297
1064 0 89.0648 13.2039 1176 147.071 1311.25 471.253
1065 0 90.1617 13.1652 1187 155.198 1309.36 470.038
1066 0 93.1124 12.9413 1205 151.461 1309.71 469.141
1067 1 53.0622 11.6467 618 149.693 1310.96 489.743
1068 0 54.0611 12.1899 659 149.907 1311.89 488.815
1069 0 54.0761 12.5564 679 151.003 1312.56 487.91
1070 0 58.0846 12.1375 705 150.779 1312.98 486.939
1071 0 60.0584 12.4379 747 148.582 1312.19 486.062
1072 0 60.1508 12.6848 763 150.65 1311.05 485.374
1073 0 61.0612 12.9215 789 154.395 1312.28 485.058
1074 0 65.1142 12.7622 831 151.398 1312.12 483.627
1075 0 65.159 12.7995 834 154.345 1314.16 483.109
1076 0 68.0495 13.1522 895 145.888 1314.89 481.636
1077 0 70.1664 12.8979 905 148.228 1311.05 479.789
1078 0 70.1053 13.0375 914 150.898 1313.6 479.746
1079 0 74.177 13.1038 972 154.725 1311.37 477.959
1080 0 78.1625 13.0625 1021 147.494 1313.42 476.613
1081 0 80.1378 13.1149 1051 146.196 1315.09 475.496
1082 0 82.2657 13.1282 1080 150.75 1311.92 474.08
1083 0 86.2147 12.7241 1097 151.985 1313.96 472.824
1084 0 89.3507 13.2176 1181 146.133 1312.4 470.864
1085 0 92.14 12.7957 1179 150.043 1312.06 469.626
1086 1 49.0922 11.2441 552 153.096 1311.57 490.274
1087 0 53.1147 11.8046 627 149.333 1313.69 489.306
1088 0 55.0439 12.3901 682 148.073 1312.53 487.985
1089 0 56.1955 12.3142 692 147.766 1312.2 486.86
1090 0 57.1165 12.5533 717 147.72 1314.04 486.446
1091 0 60.1244 12.3411 742 150.43 1311.09 485.398
1092 0 60.0702 13.2345 795 146.76 1313.29 483.805
1093 0 64.1184 12.7577 818 144.644 1313.42 483.273
1094 0 64.0756 12.891 826 147.703 1313.43 482.941
1095 0 67.0891 12.8486 862 151.994 1313.16 481.672
1096 0 68.1554 13.1464 896 152.137 1312.21 480.401
1097 0 70.0647 13.3876 938 146.179 1313.23 480.09
1098 0 72.1491 13.1117 946 150.709 1311.4 478.501
1099 0 73.1311 13.5373 990 150.611 1311.36 477.404
1100 0 75.1576 13.7578 1034 159.22 1311.09 476.835
1101 0 78.1939 13.441 1051 163.265 1310.7 476.473
1102 0 81.0845 13.7141 1112 156.927 1311.52 473.692
1103 0 83.1958 13.6906 1139 152.413 1313.16 473.212
1104 0 86.1584 13.452 1159 159.846 1313.6 471.675
1105 0 89.1478 13.8758 1237 144.871 1312.6 469.81
1106 0 92.2165 13.4358 1239 163.179 1312.23 468.427
1107 0 98.2094 13.6749 1343 165.486 1311.99 466.369
1108 1 54.0468 12.1931 659 162.815 1311.14 487.445
1109 0 55.0389 13.1907 726 159.309 1312.16 486.472
1110 0 57.0118 12.9622 739 160.087 1310.72 485.566
1111 0 61.0241 12.5524 766 157.648 1310.37 484.375
1112 0 63.045 13.3714 843 154.779 1310.61 482.713
1113 0 64.0629 13.0341 835 160.463 1312.67 482.774
1114 0 66.1071 13.4327 888 163.423 1312.43 482.045
1115 0 67.0693 13.24 888 160.95 1312.34 480.456
1116 0 70.1334 13.6739 959 166.721 1310.42 479.935
1117 0 72.0798 13.6099 981 158.957 1312.06 478.985
1118 0 73.141 13.973 1022 165.872 1313.39 477.957
1119 0 77.1909 13.5379 1045 170.028 1313.34 477.271
1120 0 80.166 13.4845 1081 166.175 1312.16 475.257
1121 0 82.1549 13.8154 1135 159.038 1310.32 474.139
1122 0 86.079 13.9639 1202 162.628 1311.59 472.099
1123 0 89.1973 13.4309 1198 163.073 1313.39 471.053
1124 0 91.2286 14.0088 1278 157.969 1313.96 469.314
1125 0 95.2002 13.813 1315 160.878 1311.87 467.038
1126 0 99.2834 13.7183 1362 163.214 1315.1 466.338
1127 1 54.1074 11.9577 647 155.15 1313.77 488.641
1128 0 55.1724 12.5425 692 162.24 1313.21 487.935
1129 0 56.1765 12.6387 710 157.518 1315.01 486.801
1130 0 60.2025 12.6739 763 157.742 1313.61 485.894
1131 0 61.1122 12.518 765 156.365 1313.39 484.686
1132 0 62.1552 13.2571 824 154.41 1312.66 483.621
1133 0 65.1234 13.4207 874 156.15 1313.06 482.9
1134 0 66.1196 13.1277 868 157.753 1311.84 481.979
1135 0 68.0928 13.6285 928 155.875 1313.51 480.069
1136 0 71.1992 13.3007 947 154.058 1313.32 479.975
1137 0 73.0932 13.3528 976 151.449 1312.12 477.753
1138 0 75.226 14.1706 1066 139.869 1312.59 477.452
1139 0 78.1813 13.3408 1043 152.872 1313.16 476.71
1140 0 79.1369 14.0516 1112 146.981 1312.86 475.103
1141 0 83.1863 13.2113 1099 149.033 1314.42 474.116
1142 0 87.1735 13.846 1207 139.453 1312.39 471.653
1143 0 89.2032 13.9345 1243 139.863 1314 471.101
1144 0 92.1297 13.7632 1268 141.106 1312.97 469.633
1145 0 96.4259 13.6685 1318 138.195 1312.75 467.453
1146 0 99.1656 13.8052 1369 139.449 1313.22 465.356
1147 0 102.237 13.6937 1400 144.386 1312.92 463.519
1148 1 54.2037 11.752 637 138.868 1314.57 488.931
1149 0 55.2202 13.0568 721 136.978 1313.22 488.026
1150 0 57.1295 12.638 722 140.248 1313.53 487.006
1151 0 57.2068 13.0579 747 145.912 1313.33 485.64
1152 0 59.1131 13.2458 783 138.502 1314.69 485.733
1153 0 59.2408 13.3861 793 138.052 1314.14 485.285
1154 0 62.1932 13.6671 850 141.273 1313.32 484.265
1155 0 65.1865 13.3003 867 138.37 1314.11 483.358
1156 0 66.1262 13.7616 910 144.084 1313.45 482.651
1157 0 69.1356 13.4229 928 143.894 1314.3 481.725
1158 0 70.1465 13.6714 959 143.195 1314 480.355
1159 0 72.1439 13.9582 1007 142.613 1310.92 479.788
1160 0 75.2452 13.7019 1031 139.458 1312.95 478.334
1161 0 78.157 13.7416 1074 147 1312.71 477.248
1162 0 80.0735 13.6999 1097 147.411 1313.7 475.488
1163 0 84.1712 13.5913 1144 151.014 1312.85 474.325
1164 0 85.1486 13.6232 1160 150.896 1312.45 473.821
1165 0 88.1446 14.0451 1238 142.948 1314.01 471.7
1166 0 92.1438 13.7285 1265 147.466 1314.49 470.078
1167 0 94.1872 14.0146 1320 152.082 1315.04 468.7
1168 0 98.1405 13.9086 1365 146.331 1313.87 467.248
1169 0 102.141 14.3331 1464 146.758 1315.41 466.154
1170 1 56.1774 12.7631 717 154.315 1313.15 487.616
1171 0 59.0675 12.7143 751 153.035 1312.97 487.495
1172 0 57.1312 12.9876 742 154.418 1313.09 486.783
1173 0 60.0614 12.9701 779 157.246 1313.08 486.371
1174 0 62.0848 13.3044 826 160.004 1312.78 484.958
1175 0 65.0678 13.0018 846 158.611 1313.96 484.227
1176 0 64.1171 13.5689 870 150.512 1313.68 483.679
1177 0 67.0586 14.0027 939 146.454 1314.45 482.075
1178 0 70.196 13.2629 931 147.706 1314.26 481.265
1179 0 74.1704 13.1858 978 152.562 1314.27 479.515
1180 0 75.1559 13.8246 1039 152.287 1315.04 478.965
1181 0 77.182 13.5653 1047 151.018 1312.94 477.576
1182 0 80.1979 13.9405 1118 150.319 1312.28 475.714
1183 0 81.1594 13.763 1117 152.169 1313.73 475.497
1184 0 84.1876 13.7075 1154 152.714 1314.04 473.475
1185 0 86.1648 13.7759 1187 154.557 1314.5 472.073
1186 0 90.1915 13.7153 1237 149.552 1313.44 470.206
1187 0 92.1508 13.4019 1235 151.809 1313.27 469.17
1188 0 95.3741 13.2111 1260 154.793 1313.72 467.669
1189 0 97.2647 13.6843 1331 146.46 1313.59 466.215
1190 0 102.224 13.6172 1392 156.894 1313.03 464.537
1191 0 105.508 13.9421 1471 145.559 1312.87 463.317
1192 0 106.212 13.9249 1479 153.12 1311.88 461.528
1193 1 57.1161 11.748 671 152.258 1313 487.06
1194 0 60.1733 12.3477 743 143.716 1313.94 485.694
1195 0 61.0772 12.6234 771 144.83 1314.42 485.466
1196 0 62.0457 13.2483 822 155.365 1312.26 485.212
1197 0 65.0265 12.6256 821 153.724 1311.62 484.011
1198 0 68.1167 12.6548 862 147.364 1311.91 482.845
1199 0 70.1535 12.9858 911 147.198 1313.9 482.317
1200 0 71.0655 13.0584 928 149.61 1313.78 480.98
1201 0 72.0383 13.2846 957 147.955 1314.13 480.214
1202 0 77.1188 13.0059 1003 146.256 1311.61 478.197
1203 0 79.2002 13.1186 1039 146.047 1312.47 477.397
1204 0 82.112 13.1162 1077 144.916 1313.64 475.706
1205 0 84.0776 13.3329 1121 148.505 1312.92 473.968
1206 0 88.1686 12.9411 1141 143.166 1311.72 472.287
1207 0 91.1259 13.1796 1201 143.989 1312.55 471.131
1208 0 94.1032 13.4002 1261 146.011 1313.71 469.178
1209 0 98.1609 13.3862 1314 141.116 1314.51 467.554
1210 0 102.147 12.7561 1303 146.272 1314.83 466.903
1211 1 61.033 12.0427 735 148.754 1314.79 485.864
1212 0 64.0799 12.422 796 148.51 1314.53 484.862
1213 0 65.1738 12.7505 831 143.91 1314.92 483.492
1214 0 67.0787 12.5822 844 148.996 1313.79 482.746
1215 0 69.168 12.7082 879 142.207 1315.26 481.352
1216 0 73.1507 12.8228 938 148.657 1314.48 480.263
1217 0 76.2098 12.3475 941 150.19 1313.85 479.74
1218 0 79.0779 13.0378 1031 139.767 1314.23 477.86
1219 0 81.093 12.7015 1030 139.358 1314.03 477.103
1220 0 83.1244 13.1369 1092 141.701 1313.86 475.256
1221 0 85.1426 13.2601 1129 133.601 1312.4 474.184
1222 0 87.0958 13.2268 1152 142.073 1312.87 473.117
1223 0 92.1764 13.4308 1238 139.345 1313.66 470.938
1224 0 95.1725 13.5438 1289 134.841 1311.99 469.499
1225 0 98.0912 13.3345 1308 137.731 1316.01 467.113
1226 0 103.198 13.3143 1374 145.182 1314.21 465.47
1227 1 55.0461 11.7901 649 139.143 1312.06 489.638
1228 0 56.0536 12.5416 703 142.811 1312.74 489.283
1229 0 59.0667 12.5621 742 141.407 1312.45 488.497
1230 0 61.068 12.7726 780 142.222 1311.52 486.727
1231 0 62.0766 13.0806 812 139.901 1311.49 485.922
1232 0 64.1037 13.213 847 134.923 1310.23 485.233
1233 0 66.0371 13.4016 885 161.463 1311.41 484.446
1234 0 68.0636 12.7087 865 150.877 1312.65 483.986
1235 0 71.0943 13.0531 928 156.013 1313.95 482.795
1236 0 73.0758 13.2055 965 155.514 1311.64 480.959
1237 0 76.0812 13.1701 1002 155.242 1314.49 479.286
1238 0 78.1989 13.6191 1065 160.137 1312.86 475.605
1239 0 81.2009 13.6328 1107 155.003 1312.85 472.754
1240 0 84.2996 13.2504 1117 156.963 1312.91 471.714
1241 0 87.4653 13.3539 1168 161.774 1312.13 470.711
1242 0 88.2468 13.6549 1205 160.334 1312.81 469.504
1243 0 92.4109 13.7754 1273 158.107 1312.19 468.661
1244 1 50.1215 11.8113 592 152.498 1311.64 490.23
1245 0 53.0601 12.7968 679 153.19 1310.81 491.891
1246 0 55.0401 13.0087 716 149.37 1311.54 489.934
1247 0 57.1031 13.7471 785 143.204 1311.34 489.048
1248 0 59.0782 13.2028 780 147.587 1314.86 488.79
1249 0 61.1758 13.0607 799 151.851 1311.93 487.156
1250 0 61.1963 13.2034 808 149.528 1311.55 487.828
1251 0 64.0912 13.3872 858 144.873 1309.95 486.189
1252 0 66.1282 13.3377 882 152.104 1308.68 485.02
1253 0 68.0447 13.3001 905 150.028 1310.79 484.119
1254 0 68.1707 14.141 964 149.416 1309.49 483.165
1255 0 70.1531 13.9837 981 146.089 1308.65 481.626
1256 0 75.0803 13.5322 1016 148.304 1309.54 481.078
1257 0 77.1221 13.5499 1045 145.711 1311.57 479.102
1258 0 77.2401 13.9435 1077 146.173 1311.45 477.708
1259 0 83.183 14.0053 1165 150.712 1310.07 476.55
1260 0 84.1299 14.0854 1185 151.101 1312.47 475.797
1261 0 87.1405 14.0692 1226 151.715 1311.37 474.254
1262 0 90.1641 13.8192 1246 152.341 1313.56 473.258
1263 0 94.1758 13.9632 1315 150.724 1312.45 470.043
1264 0 97.2111 13.9285 1354 153.041 1311.69 467.84
1265 0 100.139 14.36 1438 150.832 1313.55 466.115
1266 0 104.201 13.7906 1437 156.485 1312.91 465.082
1267 1 56.0744 13.2324 742 158.491 1312.37 489.105
1268 0 59.102 13.6882 809 153.413 1312.24 488.485
1269 0 62.0753 13.5481 841 158.509 1311.71 487.755
1270 0 62.0417 13.91 863 154.014 1312.27 486.641
1271 0 64.024 13.698 877 160.42 1312.48 486.022
1272 0 66.0489 13.7625 909 157.438 1311.9 485.279
1273 0 69.0373 14.0938 973 152.584 1312.77 484.081
1274 0 71.1093 14.2316 1012 157.46 1311.35 482.629
1275 0 73.0492 14.0453 1026 158.999 1311.75 481.224
1276 0 75.0286 14.4612 1085 160.659 1311.04 480.527
1277 0 77.0656 14.598 1125 158.43 1313.4 479.015
1278 0 79.1301 14.7226 1165 159.92 1310.96 478.528
1279 0 83.0893 14.3219 1190 150.125 1310.95 475.955
1280 0 85.2896 15.2422 1300 151.395 1311.55 474.612
1281 0 86.1819 14.8175 1277 152.183 1313 473.541
1282 0 90.232 14.496 1308 153.959 1311.96 472.159
1283 0 94.2399 14.8345 1398 156.378 1312 470.711
1284 0 97.2632 14.9903 1458 149.325 1310.83 467.808
1285 0 99.2334 14.7833 1467 151.943 1311.03 466.763
1286 0 105.188 15.1728 1596 154.607 1311.95 464.253
1287 0 108.188 14.6782 1588 114.763 1312.31 463.29
1288 0 110.211 15.0529 1659 148.002 1312.67 461.469
1289 1 60.1229 14.4038 866 154.039 1314.41 485.381
1290 0 62.0677 14.8064 919 148.696 1312.77 484.498
1291 0 65.0753 14.7982 963 141.152 1312.34 484.179
1292 0 66.0643 14.6827 970 145.516 1312.07 484.032
1293 0 69.1842 14.6565 1014 158.85 1312.04 482.491
1294 0 69.0763 15.1716 1048 154.289 1311.02 481.895
1295 0 73.1155 14.8259 1084 154.482 1311.84 480.716
1296 0 74.0539 15.1241 1120 156.941 1313.16 479.931
1297 0 77.1282 14.9362 1152 160.914 1310.9 478.056
1298 0 80.1394 15.1611 1215 159.665 1310.73 476.908
1299 0 81.082 15.4782 1255 163.503 1312.48 475.71
1300 0 83.0795 15.3347 1274 156.14 1310.6 473.807
1301 0 87.106 16.2561 1416 156.415 1311.66 472.969
1302 0 91.2395 15.4977 1414 161.482 1313.79 471.719
1303 0 93.2029 15.3214 1428 158.768 1310.21 469.942
1304 0 96.1733 15.6488 1505 162.276 1311.95 468.719
1305 0 99.0985 15.6208 1548 169.037 1311.13 467.716
1306 0 102.13 15.4802 1581 166.652 1312.55 465.514
1307 0 106.086 15.2047 1613 154.593 1310.18 463.414
1308 0 110.137 15.2628 1681 166.322 1311.42 460.789
1309 1 56.0334 15.2766 856 172.119 1309.13 485.966
1310 0 60.0915 15.1436 910 152.254 1310.21 485.22
1311 0 60.0567 15.6352 939 164.384 1310.96 484.753
1312 0 64.1593 15.5862 1000 164.45 1310.28 483.118
1313 0 65.1124 15.4656 1007 160.193 1313.03 482.683
1314 0 67.0956 15.7536 1057 166.553 1313.18 482.264
1315 0 69.1791 15.7996 1093 164.217 1312.33 480.941
1316 0 72.097 15.7288 1134 168.638 1312.45 480.49
1317 0 73.3561 16.0314 1176 167.336 1312.54 479.378
1318 0 76.2263 15.6114 1190 156.913 1312.58 477.776
1319 0 78.1595 15.8778 1241 165.376 1312.64 476.496
1320 0 82.195 15.5362 1277 163.32 1315.74 475.841
1321 0 82.195 15.5362 1277 168.8 1318.74 475.841
1322 0 86.1414 15.846 1365 159.558 1314.11 473.287
1323 0 91.2779 15.3597 1402 167.445 1313.36 472.598
1324 0 92.4804 15.7655 1458 153.254 1312.64 470.918
1325 0 97.5073 15.886 1549 159.624 1312.81 469.043
1326 0 101.619 15.44 1569 161.778 1312.17 467.024
1327 1 50.1372 15.4775 776 164.735 1312.61 490.753
1328 0 52.3104 16.0389 839 169.017 1313.74 489.882
1329 0 52.1229 16.4227 856 158.797 1312.35 488.718
1330 0 55.5183 15.9047 883 163.929 1311.63 488.169
1331 0 58.3484 16.7442 977 162.035 1311.84 486.656
1332 0 59.4398 16.2854 968 156.495 1312.8 486.488
1333 0 61.3039 16.1164 988 159.301 1313.56 485.798
1334 0 62.4273 16.5312 1032 150.76 1314.68 484.735
1335 0 67.4961 16.3269 1102 158.213 1313.85 483.943
1336 0 69.5604 16.0292 1115 159.301 1313.66 482.669
1337 0 72.5566 15.8635 1151 157.191 1312.88 481.272
1338 0 74.6071 16.044 1197 152.283 1312.64 480.321
1339 0 77.6413 16.2027 1258 146.89 1311.58 478.993
1340 0 81.5038 15.7784 1286 152.218 1312.84 477.225
1341 0 83.6652 16.1716 1353 144.829 1311.52 475.738
1342 0 86.5382 15.8312 1370 151.547 1312.4 474.336
1343 1 40.4727 14.6271 592 154.671 1312.42 495.91
1344 0 40.3465 15.2678 616 151.255 1313.76 495.497
1345 0 41.5903 15.8931 661 158.074 1313.19 495.151
1346 0 43.4385 15.332 666 164.353 1312.22 494.956
1347 0 45.5741 15.5571 709 163.243 1312.83 494.65
1348 0 44.4368 16.0453 713 162.254 1312.66 494.105
1349 0 46.5439 16.0923 749 161.22 1313.14 493.314
1350 0 47.4298 16.0869 763 157.739 1313.32 493.157
1351 0 48.4106 15.9676 773 161.642 1312.8 492.576
1352 0 48.3179 16.2259 784 158.393 1315.24 491.958
1353 0 50.2484 16.4582 827 160.111 1312.78 491.758
1354 0 52.4146 16.4458 862 154.95 1311.35 491.029
1355 0 55.3916 16.0674 890 161.08 1312.46 490.422
1356 0 54.4486 16.6763 908 163.121 1313.46 489.891
1357 0 57.4659 16.3749 941 162.657 1312.87 488.896
1358 0 57.2991 17.0509 977 155.579 1313.54 488.782
1359 0 61.2886 16.5773 1016 161.838 1312.01 487.683
1360 0 63.384 16.4868 1045 166.373 1311.68 486.753
1361 0 66.2637 16.6909 1106 157.644 1312.91 485.578
1362 0 68.2237 16.6218 1134 167.334 1313.55 484.599
1363 0 72.4341 16.622 1204 166.602 1312.41 482.934
1364 0 73.3226 16.6115 1218 163.095 1311.66 481.847
1365 0 77.201 16.3599 1263 155.034 1312.83 479.94
1366 0 80.6931 16.4946 1331 159.62 1312.52 478.911
1367 1 39.5075 15.7185 621 169.815 1312.26 497.068
1368 0 41.3352 15.5315 642 165.967 1313.71 496.713
1369 0 42.4521 15.8767 674 167.239 1312.99 496
1370 0 44.3251 16.1308 715 167.852 1312.82 495.931
1371 0 44.3101 16.7682 743 166.454 1314.22 494.633
1372 0 46.2385 16.4581 761 171.486 1313.73 494.512
1373 0 46.0664 16.5848 764 158.234 1312.21 494.374
1374 0 48.6236 15.9388 775 171.728 1312.65 493.702
1375 0 49.2232 16.415 808 170.662 1311.98 493.015
1376 0 50.322 16.613 836 166.839 1313.75 492.391
1377 0 51.2431 16.6071 851 164.635 1312.66 492.194
1378 0 52.1508 16.529 862 165.213 1312.7 491.022
1379 0 54.4606 16.4155 894 164.163 1315.4 490.839
1380 0 55.17 17.002 938 159.954 1313.11 489.665
1381 0 57.5508 16.9937 978 174.698 1313.19 489.498
1382 0 59.3655 16.9627 1007 169.729 1311.97 488.522
1383 0 61.4452 16.5351 1016 165.471 1315.94 487.835
1384 0 62.4356 16.8814 1054 169.526 1312.72 486.63
1385 0 65.3508 16.5874 1084 162.873 1312.45 485.982
1386 0 67.5763 16.6479 1125 172.846 1311.06 485.244
1387 0 69.7868 16.5218 1153 168.419 1311.14 484.304
1388 0 71.7719 16.9147 1214 164.339 1312.4 482.993
1389 0 74.3848 16.912 1258 172.434 1312.59 481.971
1390 0 76.3666 16.8529 1287 174.616 1312.47 480.864
1391 0 79.274 16.6259 1318 167.695 1312.85 480.102
1392 0 81.5843 16.2531 1326 165.125 1314.23 478.541
1393 0 84.3614 16.702 1409 169.803 1312.58 477.15
1394 0 88.7303 16.4093 1456 167.594 1313.73 475.812
1395 0 89.2599 16.7937 1499 169.215 1311.89 473.825
1396 0 93.5965 16.5498 1549 158.83 1313.09 471.943
1397 0 95.7064 16.4043 1570 168.245 1314.61 471.492
1398 1 42.8334 15.8521 679 172.468 1312.94 495.756
1399 0 44.3824 15.9973 710 166.527 1312.02 495.445
1400 0 46.5145 15.7155 731 167.06 1314.17 494.109
1401 0 47.7289 16.1537 771 168.518 1312.18 493.397
1402 0 48.9221 16.2095 793 171.32 1316.45 492.622
1403 0 48.7856 16.5623 808 168.246 1313.72 492.148
1404 0 51.9225 16.1009 836 165.361 1313.36 491.846
1405 0 52.5518 16.517 868 170.343 1313.49 490.892
1406 0 52.3455 16.7159 875 166.342 1310.53 490.211
1407 0 55.5316 16.189 899 156.348 1311.29 488.938
1408 0 55.8339 16.6566 930 166.169 1312.91 488.733
1409 0 57.663 16.2149 935 172.36 1314.5 487.688
1410 0 60.7198 16.2221 985 163.884 1314.52 486.535
1411 0 61.4235 16.72 1027 166.699 1312.95 485.852
1412 0 63.8487 16.868 1077 167.376 1312.04 484.974
1413 0 65.4851 16.1869 1060 166.299 1312.55 484.149
1414 0 67.1605 16.4978 1108 166.958 1312.8 482.722
1415 0 69.5238 16.5842 1153 161.14 1312.27 481.007
1416 0 71.9933 16.821 1211 166.95 1311.31 479.023
1417 0 75.0661 16.4655 1236 167.905 1310.14 476.684
1418 0 78.3467 17.2183 1349 157.997 1311.8 473.023
1419 0 79.8776 18.0651 1443 157.375 1312.33 469.825
1420 0 83.1138 17.5302 1457 163.2 1311.68 468.48
1421 0 87.3439 17.7001 1546 154.918 1310.82 465.692
1422 0 88.3801 16.4969 1458 165.061 1313.17 465.172
1423 0 90.5865 16.5477 1499 163.001 1312.61 463.735
1424 0 93.0188 16.072 1495 163.906 1313.58 462.777
1425 0 95.5471 16.3166 1559 162.004 1312.47 461.298
1426 1 63.2628 15.4435 977 160.894 1312.6 474.986
1427 0 66.2245 15.4474 1023 162.099 1312.31 473.499
1428 0 69.1525 15.4441 1068 163.312 1310.95 471.095
1429 0 70.2121 15.9089 1117 154.652 1310.57 469.944
1430 0 74.9056 16.4474 1232 160.223 1309.12 467.96
1431 0 76.2828 16.7534 1278 155.39 1313.11 465.884
1432 0 80.001 16.7373 1339 153.371 1311.84 464.925
1433 0 81.996 17.1106 1403 154.738 1312.69 463.179
1434 0 86.7915 17.5132 1520 151.929 1311.86 461.167
1435 0 88.968 17.703 1575 152.561 1312.31 460.784
1436 1 45.2245 10.2157 462 132.675 1313.44 493.771
1437 0 46.2075 10.8424 501 137.739 1314.57 492.437
1438 0 46.3329 10.5325 488 135.246 1313.78 492.234
1439 0 49.1824 10.1866 501 137.435 1313.49 491.218
1440 0 51.3442 10.5952 544 132.112 1312.05 490.081
1441 0 54.288 10.2048 554 134.244 1312.39 489.576
1442 0 53.25 10.892 580 134.555 1310.28 488.578
1443 0 57.2956 10.6815 612 133.114 1310.97 488.386
1444 0 57.2162 10.6788 611 131.858 1311.03 486.979
1445 0 60.184 11.0162 663 134.514 1311.06 485.504
1446 1 29.0416 9.53803 277 128.242 1312.88 501.173
1447 0 30.0327 10.3554 311 133.19 1313.13 500.762
1448 0 32.1328 10.1143 325 125.185 1312.22 499.428
1449 0 32.159 10.2304 329 129.368 1313.15 499.808
1450 0 33.1161 10.3273 342 136.313 1314.49 500.143
1451 0 32.1134 10.4629 336 136.119 1314.71 499.81
1452 0 32.1656 10.5703 340 133.091 1314.32 499.524
1453 0 36.1356 9.99015 361 136.391 1314.24 499.003
1454 0 40.126 10.0184 402 129.366 1316.16 496.863
1455 0 39.0855 9.90138 387 131.509 1316.91 497.45
1456 0 37.2083 10.6697 397 131.919 1313.41 497.113
1457 0 40.2297 10.2909 414 126.575 1313.53 496.14
1458 0 44.1124 10.6999 472 129.301 1313.24 494.392
1459 0 41.1317 11.451 471 129.369 1313.09 494.711
1460 0 44.091 10.8412 478 129.019 1313.55 494.414
1461 0 44.1302 10.5597 466 131.7 1314.45 494.496
1462 0 47.172 11.2779 532 125.43 1315.13 492.491
1463 0 48.2477 10.9021 526 126.65 1312.45 492.318
1464 0 49.2091 10.6891 526 127.317 1313.8 492.582
1465 0 49.1649 10.3326 508 126.219 1315.16 491.648
1466 0 52.1524 11.2746 588 124.636 1314.39 488.845
1467 0 52.121 11.0512 576 131.714 1315.2 490.127
1468 0 53.0953 11.1121 590 131.476 1314.38 489.82
1469 0 53.3237 11.0645 590 133.895 1312.46 490.008
1470 0 57.0697 11.4071 651 128.455 1312.76 486.994
1471 0 57.0474 11.1837 638 128.754 1312 486.884
1472 0 58.1046 11.0146 640 133.538 1310.37 487.203
1473 1 0 0 0 -nan -nan -nan
1474 0 83.6178 42.9454 3591 24.5684 1309.29 555.284
1475 0 82.6645 39.7027 3282 23.5241 1311.2 555.853
1476 0 62.3202 17.4743 1089 22.9761 1326.16 515.476
1477 0 56.2742 37.5305 2112 24.9044 1317.5 541.726
1478 0 45.263 34.4431 1559 24.1232 1319.29 546.155
1479 0 54.4667 24.7674 1349 23.9059 1314.59 516.247
1480 0 68.546 43.7516 2999 25.5822 1316.25 558.422
1481 0 70.0862 41.1065 2881 25.3978 1316.45 557.761
1482 0 60.9412 37.7085 2298 25.1175 1317.27 561.939
1483 1 105.99 45.0045 4770 26.7629 1319.24 536.686
1484 0 63.4152 27.2805 1730 24.2827 1316.7 476.69
1485 0 213.259 44.0591 9396 24.0726 1316.78 480.364
1486 0 223.017 37.6204 8390 23.2204 1316.16 484.849
1487 0 219.139 45.843 10046 25.9878 1317.33 498.882
1488 0 147.594 37.935 5599 24.3656 1317.14 339.177
1489 0 116.12 34.895 4052 24.2456 1316.72 454.8
1490 0 208.668 30.3545 6334 25.4272 1317.98 490.607
1491 0 245.218 41.9708 10292 24.7792 1317.05 509.349
1492 0 84.3328 36.1544 3049 26.4952 1315.32 437.298
1493 0 129.197 28.0889 3629 25.0714 1316.54 470.586
1494 0 187.286 36.7727 6887 24.3627 1317.09 489.659
1495 0 131.78 32.9791 4346 35.7043 1316.66 474.269
1496 0 50.1367 28.901 1449 34.539 1311.61 552.75
1497 0 78.0949 23.6123 1844 25.2337 1313.69 557.639
1498 0 63.6297 31.2118 1986 26.7784 1319.05 560.108
1499 0 75.5375 29.4556 2225 26.2755 1310.65 521.991
1500 0 138.516 42.3201 5862 28.0488 1316.44 537.286
1501 0 37.4534 15.9398 597 25.1457 1329.14 480.623
1502 0 52.3083 31.085 1626 26.0123 1314.13 488.127
1503 0 138.341 47.036 6507 26.6203 1318.32 523.918
1504 0 140.177 36.7535 5152 25.6939 1319.62 522.983
1505 0 100.236 40.3147 4041 25.1034 1317.85 502.047
