index division length width area intensity CMx CMy
0 0 72.1603 17.3503 1252 134.525 1166.84 487.385
1 0 73.1956 17.3917 1273 131.394 1168.66 485.597
2 0 77.1133 17.3641 1339 128.775 1168.44 485.224
3 0 80.1088 17.3639 1391 123.925 1169 484.217
4 0 82.2431 17.6793 1454 121.955 1169.47 483.725
5 0 86.1703 17.5583 1513 124.881 1170.04 483.073
6 1 45.1202 14.0735 635 148.164 1167.89 505.102
7 0 48.043 14.5078 697 146.976 1168.14 505.416
8 0 47.0195 14.8875 700 145.294 1168.25 505.597
9 0 46.0136 15.5606 716 138.243 1165.58 506.598
10 0 50.0969 14.8512 744 140.078 1165.11 506.751
11 0 53.0189 14.8249 786 136.312 1163.81 507.16
12 0 53.0412 15.0072 796 146.408 1162.8 507.069
13 0 56.0991 15.0092 842 141.442 1162.82 507.224
14 0 58.1166 14.9527 869 139.697 1164.05 507.114
15 0 59.0088 15.3706 907 148.158 1163.86 506.75
16 0 63.0695 14.8566 937 144.181 1162.73 506.101
17 0 65.0466 15.1276 984 144.345 1162.67 505.324
18 0 66.0342 15.386 1016 147.767 1162.62 504.285
19 0 67.0354 15.8275 1061 141.726 1162.08 503.038
20 0 71.1041 15.4281 1097 147.335 1160.96 502.811
21 0 74.1007 15.4115 1142 151.332 1160.4 501.442
22 0 77.0607 15.4683 1192 149.6 1162.06 499.623
23 0 79.0739 15.5298 1228 147.669 1160.56 498.131
24 0 82.1123 15.3083 1257 149.71 1160.16 496.576
25 0 86.0501 15.1888 1307 151.438 1161.35 494.766
26 0 88.09 15.0982 1330 68.1068 1160.11 493.543
27 0 91.114 15.4422 1407 150.259 1160.07 491.601
28 0 96.1447 14.6966 1413 151.522 1161.43 489.587
29 0 99.0908 14.7541 1462 153.114 1159.46 486.406
30 0 102.139 15.1656 1549 154.449 1161.47 483.398
31 1 52.1222 14.7346 768 149.967 1159.95 505.905
32 0 54.0355 14.9531 808 152.387 1162.09 503.475
33 0 55.0648 15.0187 827 158.029 1162.35 501.605
34 0 58.0215 15.1323 878 156.47 1163.77 499.533
35 0 60.0289 15.1927 912 157.737 1164.57 497.953
36 0 63.0579 14.7325 929 152.399 1164.41 496.212
37 0 65.0714 15.2141 990 150.8 1164.49 494.301
38 0 68.0504 15.0624 1025 154.271 1165.75 492.842
39 0 70.0556 14.9167 1045 153.504 1165.8 491.222
40 0 74.0902 14.5903 1081 155.01 1166.85 489.789
41 0 75.1199 15.2556 1146 149.854 1168.16 488.311
42 0 81.124 14.7182 1194 142.632 1167.43 486.495
43 0 81.0489 15.0033 1216 153.178 1166.86 485.785
44 0 86.1301 14.8148 1276 149.882 1169.51 484.151
45 0 89.047 15.183 1352 151.143 1168.97 482.521
46 0 92.0687 14.5435 1339 150.073 1167.04 482.503
47 0 95.1155 14.74 1402 144.665 1168.37 480.678
48 0 97.1696 14.6754 1426 142.509 1169.53 480.236
49 0 101.188 15.0413 1522 144.787 1168.05 478.99
50 0 105.104 14.6616 1541 140.281 1169.33 478.085
51 0 108.166 15.0602 1629 138.176 1168.18 476.994
52 0 113.159 15.0762 1706 138.285 1166.86 474.984
53 1 58.0436 14.179 823 142.56 1166.23 501.87
54 0 58.1065 14.4734 841 141.523 1166.47 501.779
55 0 61.0349 14.2541 870 139.755 1165.53 500.991
56 0 64.0546 14.0973 903 142.214 1166.25 500.227
57 0 66.0784 13.938 921 142.349 1168.9 499.503
58 0 69.1087 14.1661 979 143.509 1166.38 498.133
59 0 70.1325 14.0163 983 142.78 1166.57 497.282
60 0 74.1667 13.9685 1036 138.239 1165.15 495.465
61 0 74.1667 13.9685 1036 176.627 1164.15 495.465
62 0 80.0667 13.8759 1111 147.969 1163.96 492.223
63 0 83.0905 14.0329 1166 147.723 1164.43 490.69
64 0 87.0731 14.1605 1233 149.273 1163.91 489.147
65 0 88.1512 14.4298 1272 149.834 1165.59 488.319
66 0 93.1591 13.9868 1303 150.893 1164.31 486.706
67 0 96.2436 14.2243 1369 149.202 1164.44 484.785
68 0 98.3384 14.1857 1395 152.254 1163.95 482.986
69 1 51.2473 13.3666 685 148.982 1163.19 505.069
70 0 53.0315 13.8031 732 154.799 1164.57 503.91
71 0 56.0742 13.3751 750 150.121 1163.27 502.504
72 0 58.0658 12.8647 747 153.941 1165.41 501.633
73 0 60.0394 12.8749 773 149.08 1163.26 499.572
74 0 62.0523 12.8924 800 154.52 1164.8 498.669
75 0 64.1804 12.8388 824 158.364 1164.23 497.898
76 0 65.0604 12.5576 817 160.004 1163.51 496.962
77 0 67.1023 12.9355 868 152.816 1165.73 494.808
78 0 70.0597 12.9889 910 155.09 1166.29 493.607
79 0 72.1783 12.6631 914 155.593 1165.93 492.08
80 0 75.0665 12.8952 968 157.538 1164.99 490.431
81 1 37.0469 11.418 423 156.91 1166.45 509.064
82 0 38.066 12.0317 458 148.749 1168.76 508.417
83 0 39.0612 12.2116 477 147.637 1168.22 507.287
84 0 41.0972 12.1663 500 151.564 1168.51 506.932
85 0 42.1004 12.0189 506 143.577 1167.02 506.032
86 0 44.0486 12.2138 538 145.331 1167.57 505.164
87 0 45.0534 12.2965 554 152.601 1167.35 505.267
88 0 47.1352 12.3899 584 148.688 1165.12 504.334
89 0 48.0621 12.463 599 151.229 1168.32 503.598
90 0 49.0448 12.7638 626 149.543 1167.61 503.554
91 0 51.0847 12.6457 646 150.872 1168.97 502.87
92 0 52.064 12.9264 673 148.143 1166.69 501.722
93 0 54.08 12.6849 686 148.901 1166.95 501.57
94 0 56.1438 12.6461 710 151.104 1167.29 500.137
95 0 57.0943 12.9435 739 148.873 1166.7 499.591
96 0 61.0647 12.9862 793 142.728 1166.12 497.822
97 0 64.072 12.8293 822 143.605 1165.65 497.302
98 0 67.1282 12.7815 858 149.671 1165.38 495.817
99 0 70.1444 12.8164 899 145.783 1167.02 493.888
100 0 73.0782 12.9177 944 138.146 1167.7 492.363
101 1 38.0165 11.495 437 145.007 1167.65 509.604
102 0 38.0297 12.1484 462 148.048 1166.18 508.491
103 0 40.1824 11.8957 478 147.529 1164.54 507.705
104 0 42.076 12.0971 509 144.788 1164.73 507.322
105 0 41.0758 12.8543 528 149.659 1164.32 506.443
106 0 45.1451 12.1608 549 146.67 1166.44 505.741
107 0 45.0963 12.7061 573 143.916 1165.44 504.489
108 0 47.0673 12.7052 598 146.895 1165.09 503.952
109 0 47.1534 12.788 603 147.572 1165.39 503.519
110 0 49.0616 13.269 651 142.71 1164.88 502.335
111 0 51.1627 12.6459 647 139.212 1165.89 501.575
112 0 52.1361 12.851 670 138.542 1164.71 500.475
113 0 53.0777 12.6607 672 145.451 1166.68 499.652
114 0 53.1947 13.1592 700 144.26 1165.67 498.539
115 0 55.0739 13.4365 740 150.468 1167.01 497.965
116 0 57.1264 13.2513 757 146.629 1167.8 496.803
117 0 59.1726 13.2156 782 150.308 1167.73 495.577
118 0 62.231 13.0964 815 154.34 1166.03 493.602
119 0 63.2072 13.3055 841 156.825 1167.39 492.542
120 0 63.2072 13.3055 841 166.798 1168.39 492.542
121 0 68.2123 13.1941 900 155.278 1168.08 490.341
122 0 71.2764 13.1741 939 156.247 1168.62 488.818
123 0 71.2358 13.7571 980 158.392 1168.66 487.56
124 0 77.2757 13.3807 1034 154.594 1169.19 485.78
125 0 80.1816 13.432 1077 153.679 1168.84 484.524
126 1 41.0662 12.1754 500 150.558 1168.73 503.896
127 0 44.0479 12.5091 551 150.309 1166.81 503.495
128 0 44.0624 13.322 587 149.16 1168.39 502.642
129 0 46.086 12.7588 588 154.541 1168.26 502.099
130 0 47.0738 13.4895 635 152.072 1168.92 501.476
131 0 48.0988 13.597 654 142.939 1167.39 500.45
132 0 50.0802 13.4385 673 147.309 1166.53 499.606
133 0 51.0545 13.3779 683 150.155 1166.56 499.211
134 0 52.0432 13.8347 720 148.435 1167.22 498.007
135 0 55.0363 13.6274 750 149.135 1167.72 496.963
136 0 55.0957 14.4476 796 149.84 1166.21 496.396
137 0 59.1052 13.6029 804 143.735 1167.99 496.014
138 0 60.1535 13.8645 834 137.496 1166.77 494.474
139 0 61.0439 14.1046 861 142.439 1167.16 493.705
140 0 64.0548 14.2066 910 141.449 1166.09 492.531
141 0 66.0828 14.043 928 146.2 1165.44 491.355
142 0 69.1015 13.9939 967 140.59 1166.22 489.984
143 0 70.0501 14.0614 985 149.99 1165.16 489.81
144 0 73.044 13.8957 1015 148.501 1166.28 488.342
145 1 48.0409 13.0514 627 164.589 1165.12 499.804
146 0 49.0188 13.4438 659 162.235 1166.9 499.452
147 0 50.0918 13.635 683 156.77 1166 499.113
148 0 52.046 13.392 697 157.686 1166.95 498.693
149 0 52.0802 13.6136 709 161.86 1166.45 498.127
150 0 54.0487 13.5433 732 157.346 1166.14 497.283
151 0 58.0288 13.545 786 158.7 1165.46 496.154
152 0 57.0371 13.5526 773 164.542 1166.51 495.705
153 0 60.0757 13.6661 821 147.804 1164.9 495
154 0 63.0361 13.405 845 151.36 1165.35 493.718
155 0 64.1409 13.7821 884 150.338 1166.8 493.167
156 0 66.1367 13.5931 899 161.73 1163.34 491.522
157 0 70.087 13.3834 938 159.43 1164.57 490.27
158 0 71.0744 13.2819 944 158.067 1165.29 488.981
159 0 74.0877 13.349 989 159.74 1165.99 487.363
160 0 78.1466 13.2955 1039 158.815 1167.62 486.117
161 0 80.1991 13.242 1062 158.494 1166.98 485.347
162 1 42.0653 11.8863 500 160.694 1167.09 504.228
163 0 43.0551 12.2634 528 155.456 1165.57 503.97
164 0 44.0679 12.0042 529 154.834 1165.77 504.265
165 0 46.0828 11.935 550 156.676 1166.54 503.767
166 0 47.1087 11.8874 560 157.211 1166.68 503.286
167 0 48.1132 12.0965 582 158.174 1167.56 503.131
168 0 50.0718 12.2424 613 155.274 1166.22 502.165
169 0 51.0987 12.3095 629 157.073 1166.9 501.426
170 0 50.0188 12.8952 645 149.388 1167.78 500.453
171 0 53.0332 12.6147 669 153.652 1167.21 499.758
172 0 54.0913 12.7747 691 151.855 1168.02 499.566
173 0 55.0512 12.7154 700 155.929 1168.34 498.56
174 0 58.078 12.9653 753 150.599 1167.12 497.562
175 0 61.0905 12.3915 757 153.468 1166.29 497.066
176 0 63.0409 12.5315 790 146.939 1165.85 495.919
177 0 65.0967 12.5659 818 153.676 1166.81 495.007
178 0 66.0882 12.7557 843 149.88 1165.28 493.611
179 0 69.0425 12.2678 847 152.13 1167.78 492.614
180 0 70.0634 12.2603 859 150.898 1167.49 492.119
181 1 36.0627 11.0918 400 149.265 1165.23 508.575
182 0 39.1204 11.0684 433 150.055 1167.31 507.785
183 0 41.07 11.4195 469 149.501 1165.25 506.279
184 0 41.1465 11.1796 460 149.235 1164.45 506.383
185 0 42.1036 11.6142 489 146.11 1165.55 506.074
186 0 43.0994 11.6475 502 140.275 1164.77 504.837
187 0 43.138 11.8921 513 147.173 1166.06 504.52
188 0 45.1964 12.1912 551 144.499 1169.01 504.535
189 0 45.2226 12.2063 552 142.009 1167.03 503.341
190 0 47.1445 12.0905 570 140.956 1167.03 502.412
191 0 50.1046 12.5737 630 139.594 1166.49 500.7
192 0 51.1304 12.2041 624 138.064 1167.71 499.901
193 0 51.202 12.148 622 138.844 1166.56 499.719
194 0 52.0852 12.6524 659 140.809 1167.98 498.942
195 0 53.07 12.5118 664 138.437 1169.72 498.477
196 0 54.1167 12.6763 686 138.641 1166.29 497.219
197 0 57.0825 12.5783 718 137.504 1166.83 496.546
198 0 59.062 12.5461 741 145.13 1167.25 495.919
199 0 60.0984 13.0286 783 139.764 1167.62 494.402
200 0 62.0751 12.9037 801 134.778 1166.57 493.532
201 0 62.1851 13.6206 847 139.208 1167.2 493.025
202 0 66.2122 13.0489 864 138.609 1166.45 491.964
203 0 67.1694 12.9821 872 141.416 1165.76 491.064
204 0 71.1738 13.0666 930 139.386 1166.35 489.697
205 0 73.0752 13.6024 994 144.716 1167.81 488.884
206 0 75.1358 13.2959 999 145.164 1166.17 487.813
207 0 78.1341 13.5664 1060 148.689 1165.59 486.044
208 0 81.2418 13.4167 1090 145.96 1165.93 484.117
209 0 83.1457 13.5666 1128 149.045 1166.66 483.074
210 1 45.0348 11.7687 530 153.706 1167.5 502.677
211 0 47.0762 12.0868 569 154.409 1166.41 501.464
212 0 49.029 12.7068 623 148.912 1166.73 500.539
213 0 49.0236 12.7694 626 153.345 1166.73 499.526
214 0 51.0452 13.0081 664 152.44 1167.31 498.697
215 0 53.0432 12.9706 688 160.945 1166.43 498.468
216 0 54.0377 13.287 718 158.876 1165.62 497.214
217 0 55.0631 13.4754 742 153.771 1167.22 495.817
218 0 58.0161 13.841 803 156.36 1166.36 494.996
219 0 59.0743 13.1529 777 157.035 1168.8 494.564
220 0 59.0862 13.8949 821 157.035 1167.39 493.38
221 0 64.1407 13.5639 870 158.811 1166.85 492.369
222 0 65.0681 13.6472 888 157.617 1166.26 490.607
223 0 68.1434 13.3542 910 157.575 1167.7 489.475
224 0 68.1461 13.6912 933 153.357 1167.74 488.507
225 0 71.1657 13.04 928 150.651 1169.05 487.221
226 0 72.1663 13.9816 1009 153.59 1167.31 485.524
227 0 75.1611 13.6507 1026 153.941 1165.21 484.296
228 0 80.1946 13.2677 1064 153.191 1166.82 483.314
229 0 81.1374 13.6682 1109 158.517 1166.37 481.959
230 0 85.2379 13.1866 1124 154.239 1167.46 480.058
231 0 87.1854 13.4082 1169 153.546 1166.3 478.35
232 1 46.1067 11.5168 531 156.158 1167.85 499.716
233 0 48.1774 12.0388 580 151.126 1167.41 498.317
234 0 50.0745 12.3816 620 152.435 1165.74 498.256
235 0 49.0908 13.3834 657 149.603 1165.51 496.971
236 0 52.0559 12.5442 653 148.862 1166.21 496.508
237 0 53.1372 13.0793 695 151.59 1168.05 496.016
238 0 56.1524 12.6264 709 139.419 1169.17 494.707
239 0 57.0871 13.3305 761 147.536 1168.85 493.573
240 0 59.0799 13.0163 769 146.01 1168.27 493.108
241 0 61.1085 13.0751 799 141.904 1168.22 491.91
242 0 63.1242 12.9903 820 149.104 1168.06 490.773
243 0 65.0527 13.2662 863 144.564 1168.42 489.855
244 0 67.151 13.3728 898 141.392 1168.67 488.646
245 0 69.0788 13.4629 930 147.92 1167.45 487.474
246 0 73.1019 13.4059 980 143.658 1170.11 484.968
247 0 75.2725 13.7766 1037 147.448 1168.84 484.709
248 0 79.2109 13.7607 1090 147.285 1168.62 482.5
249 0 80.207 13.4901 1082 144.169 1167.76 481.774
250 0 84.1869 13.3275 1122 147.639 1168.03 480.395
251 0 88.4696 13.0779 1157 145.601 1168.03 479.675
252 0 90.2359 13.4869 1217 147.591 1168.73 477.703
253 0 93.2742 13.4335 1253 146.95 1168 476.319
254 1 48.1822 12.3282 594 64.2677 1168.79 497.975
255 0 50.1389 12.6249 633 147.449 1166.36 497.169
256 0 52.2593 12.7633 667 144.448 1166.4 496.318
257 0 54.0859 12.3692 669 145.372 1165.71 495.202
258 0 56.0836 12.6775 711 141.609 1168.61 494.838
259 0 56.1673 13.2283 743 141.933 1166.09 493.7
260 0 58.1302 13.0741 760 141.328 1166.88 493.242
261 0 60.2231 13.2839 800 140.11 1168.3 491.538
262 0 63.1348 13.2415 836 138.847 1169.28 490.36
263 0 64.1811 13.8358 888 136.63 1166.91 489.928
264 0 67.2647 13.8408 931 135.81 1167.42 489.028
265 0 69.2245 13.6368 944 139.594 1168.6 488.283
266 0 71.1051 13.5433 963 139.374 1167.71 485.97
267 0 75.1247 13.4443 1010 139.022 1167.75 483.656
268 0 77.2317 13.6602 1055 141.518 1167.19 482.934
269 0 80.1882 13.9671 1120 144.946 1167.29 482.049
270 0 83.2694 13.5944 1132 138.908 1167.43 480.162
271 0 83.3372 14.1233 1177 140.405 1167.37 478.63
272 0 88.2373 14.0077 1236 144.519 1166.28 476.406
273 0 93.155 13.5473 1262 141.733 1167.59 474.355
274 1 49.1001 12.1588 597 138.404 1167.63 495.514
275 0 50.1705 13.2747 666 143.559 1168.26 494.821
276 0 53.0836 13.1679 699 145.794 1168.09 494.704
277 0 54.0546 13.2829 718 146.428 1164.67 494.22
278 0 57.0449 13.4631 768 144.194 1169.21 493.257
279 0 57.1121 13.5873 776 137.624 1169.56 493.727
280 0 60.2397 13.5293 815 148.88 1167.65 492.591
281 0 61.0651 13.9359 851 141.402 1169.92 491.938
282 0 62.1251 13.9074 864 142.433 1169.08 491.391
283 0 66.1723 13.9182 921 143.485 1167.28 491.19
284 0 66.1243 14.019 927 145.03 1168.39 490.014
285 0 70.0915 14.1815 994 143.032 1167.28 488.73
286 0 72.293 13.8188 999 143.144 1167.17 488.63
287 0 74.2491 13.8992 1032 142.725 1166.89 487.096
288 0 75.1916 14.0441 1056 145.106 1167.44 486.501
289 0 80.209 14.0757 1129 141.552 1169.35 484.99
290 0 81.0667 14.4572 1172 137.959 1167.41 483.684
291 0 85.1463 13.9525 1188 143.393 1166.56 482.079
292 0 88.1843 14.5604 1284 143.981 1167.06 479.874
293 0 91.1263 14.4415 1316 148.868 1167.64 478.39
294 0 94.2347 14.05 1324 146.776 1167.6 477.082
295 1 47.1197 12.7335 600 149.092 1170.21 499.467
296 0 50.0894 13.0566 654 151.76 1170.04 499.277
297 0 51.0273 12.9734 662 152.846 1168.52 498.686
298 0 54.1778 13.1234 711 151.399 1168.82 497.17
299 0 53.069 13.5673 720 145.658 1168.33 496.658
300 0 54.0271 13.7524 743 148.945 1168.5 495.965
301 0 57.029 13.572 774 144.867 1168.4 495.544
302 0 58.1018 13.6657 794 148.879 1169.12 494.801
303 0 59.0923 13.8597 819 147.02 1168.05 493.706
304 0 62.0306 13.6062 844 150.607 1167.8 492.953
305 0 63.0553 13.4802 850 147.428 1166.87 491.864
306 0 67.0594 13.6595 916 146.366 1168.15 490.192
307 0 68.0474 13.3877 911 147.339 1168.67 489.136
308 0 72.0477 13.5743 978 146.241 1167.75 487.701
309 0 74.0719 13.8514 1026 141.016 1168.44 486.627
310 0 76.1663 13.8775 1057 136.687 1171.11 485.461
311 0 77.1431 13.5592 1046 145.604 1167.77 483.801
312 0 81.1114 13.6726 1109 144.051 1169.02 482.173
313 0 83.0729 13.3618 1110 140.428 1169.99 481.324
314 1 43.0202 12.4825 537 142.596 1169.37 500.909
315 0 41.0595 13.4683 553 144.508 1169.88 500.747
316 0 45.0338 12.968 584 144.664 1170.62 500.236
317 0 47.0407 12.4148 584 134.88 1170.11 499.882
318 0 47.0808 13.1476 619 143.053 1167 498.553
319 0 50.0347 12.4514 623 143.388 1170.32 498.132
320 0 51.0325 13.2661 677 139.23 1171.33 497.325
321 0 53.0355 12.6896 673 138.302 1168.29 496.061
322 0 54.0883 13.0897 708 140.215 1169.46 494.674
323 0 57.1226 12.8671 735 142.065 1166.42 495.079
324 0 60.0432 12.8074 769 131.16 1167.69 493.501
325 0 60.0411 12.7912 768 134.737 1169.41 492.198
326 0 63.0631 12.9394 816 129.964 1167.71 491.332
327 0 61.0758 13.7043 837 137.448 1167.84 490.419
328 0 65.1323 13.4803 878 136.212 1169.89 488.975
329 0 70.1588 13.3127 934 129.624 1169.72 487.791
330 0 69.1409 13.6678 945 133.138 1171.66 486.346
331 0 72.1285 13.6423 984 135.499 1168.09 485.849
332 0 75.0799 13.7054 1029 136.956 1169.74 484.735
333 0 80.2248 13.5993 1091 139.986 1169.07 482.823
334 0 80.2228 13.9113 1116 140.298 1169.07 480.849
335 0 85.2691 13.5102 1152 138.003 1168.42 479.719
336 0 88.1595 13.4642 1187 137.551 1170.92 478.29
337 0 89.4751 13.7468 1230 141.441 1170.32 477.398
338 1 47.0804 12.999 612 133.129 1169.59 496.52
339 0 48.1378 13.5237 651 130.318 1170.63 496.121
340 0 51.2188 13.1202 672 122.085 1171.51 495.226
341 0 51.1123 13.4019 685 129.858 1170.15 494.661
342 0 53.1268 13.176 700 131.92 1171.23 493.58
343 0 56.1775 12.9767 729 130.339 1170.04 492.199
344 0 59.0729 13.3733 790 131.866 1170.4 490.591
345 0 58.0918 13.5992 790 129.706 1169.59 490.547
346 0 61.0852 13.4566 822 126.179 1168.75 489.325
347 0 63.0898 13.6631 862 124.787 1170.93 488.477
348 0 66.062 13.1694 870 125.01 1171.82 487.677
349 0 69.2046 13.2072 914 126.656 1169.19 485.518
350 0 71.1564 13.4352 956 125.821 1169.35 484.539
351 0 72.2324 13.5535 979 123.525 1170.01 483.55
352 0 76.1611 13.3795 1019 127.568 1169.41 482.514
353 0 78.3016 13.6013 1065 130.661 1169.69 480.624
354 0 81.2985 13.8502 1126 132.619 1168.7 478.937
355 0 84.3966 13.7446 1160 131.525 1167.18 477.57
356 0 85.2517 14.1581 1207 131.012 1167 476.319
357 0 89.3419 14.1031 1260 131.833 1170.1 474.691
358 0 94.2669 13.4512 1268 134.693 1168.4 474.292
359 0 95.3079 13.9548 1330 137.652 1167.91 472.352
360 0 99.4501 14.0271 1395 139.212 1167.66 470.495
361 0 102.199 13.9727 1428 136.447 1169.66 468.679
362 0 105.261 14.0698 1481 138.662 1167.41 467.19
363 0 108.268 14.3441 1553 136.462 1169.82 465.788
364 0 112.242 14.2995 1605 140.365 1166.87 464.768
365 0 115.24 14.4567 1666 137.265 1167.72 462.176
366 0 118.284 14.6935 1738 132.014 1169.33 460.314
367 0 124.231 14.3845 1787 140.534 1168.68 458.344
368 0 128.18 14.4641 1854 138.869 1169.12 455.724
369 1 67.1736 13.0408 876 139.199 1170.97 486.413
370 0 69.0692 13.4792 931 139.643 1170.71 485.54
371 0 70.063 13.3309 934 133.383 1170.36 484.195
372 0 72.1005 13.0651 942 138.765 1169.95 482.792
373 0 74.3041 13.5255 1005 138.14 1170 480.337
374 0 76.1459 13.7368 1046 131.307 1170.95 479.09
375 0 81.2502 13.4523 1093 137.658 1170.21 477.854
376 0 84.2404 13.4496 1133 135.053 1168.84 477.004
377 0 86.32 13.531 1168 129.852 1168.32 474.679
378 0 89.2784 13.7099 1224 143.374 1169.15 474.054
379 0 91.2564 13.862 1265 139.383 1170.38 471.683
380 0 96.5836 13.377 1292 142.034 1168.74 469.797
381 0 99.3501 13.4172 1333 143.034 1168.16 469.017
382 1 53.1982 12.0493 641 138.966 1169.41 492.261
383 0 55.1374 12.4961 689 137.752 1169.14 491.354
384 0 57.0398 12.5176 714 143.961 1171.57 491.602
385 0 58.051 13.0575 758 138.479 1169.47 490.335
386 0 60.0389 12.9916 780 134.996 1169.42 489.278
387 0 61.0949 12.8325 784 142.3 1166.93 488.14
388 0 64.0469 12.7563 817 135.667 1169.53 486.859
389 0 66.1536 13.1814 872 132.609 1169.12 485.939
390 0 66.184 13.7344 909 131.743 1168.16 484.846
391 0 70.1488 12.9296 907 132.241 1167.48 484.272
392 0 72.1275 12.8938 930 124.954 1170.58 482.378
393 0 75.1271 12.9248 971 128.412 1169.75 481.6
394 0 78.1178 12.9036 1008 128.931 1169.15 479.908
395 0 82.185 12.7031 1044 125.966 1167.96 478.399
396 0 85.207 12.7454 1086 129.414 1169.54 477.233
397 0 85.1639 13.1863 1123 126.38 1169.61 475.992
398 0 89.2895 12.6891 1133 127.723 1168.7 474.621
399 0 94.1748 13.0183 1226 120.04 1168.09 472.131
400 1 52.0491 11.8158 615 121.361 1169.55 493
401 0 53.0453 12.0652 640 122.48 1169.42 492.461
402 0 54.1095 12.3638 669 120.773 1168.17 491.991
403 0 56.0458 12.4541 698 119.1 1169.32 491.731
404 0 56.0403 12.9371 725 116.768 1168.87 491.56
405 0 59.0977 12.6739 749 117.386 1167.63 489.833
406 0 61.152 12.5589 768 118.236 1169 489.013
407 0 63.1301 12.3871 782 117.395 1169.31 488.997
408 0 66.1671 12.2417 810 119.381 1168.77 487.753
409 0 67.1389 12.9582 870 111.603 1166.7 486.782
410 0 70.1276 12.5058 877 112.236 1167.66 485.737
411 0 73.1419 12.5783 920 106.82 1168.35 484.085
412 0 74.2153 12.841 953 113.199 1168.69 482.112
413 0 78.0805 12.628 986 114.824 1168.91 481.927
414 0 81.1819 12.9093 1048 116.229 1168.95 480.46
415 1 44.1086 11.313 499 114.375 1169.12 498.649
416 0 46.1682 11.1765 516 118.366 1167.6 497.663
417 0 46.0571 12.1371 559 114.753 1168.74 497.014
418 0 47.0588 12.1338 571 117.254 1168.02 496.011
419 0 51.0618 12.2792 627 115.512 1170.13 495.18
420 0 52.0474 12.2389 637 125.375 1170.36 494.207
421 0 54.0398 12.5648 679 124.493 1168.55 493.791
422 0 54.0584 12.4865 675 127.573 1169.12 493.024
423 0 57.0281 12.7306 726 123.428 1169.73 491.755
424 0 58.0805 12.6549 735 115.294 1168.68 490.712
425 0 60.0378 13.0251 782 124.512 1169.08 489.919
426 0 62.1233 12.4591 774 122.845 1169.28 488.92
427 0 65.0923 12.5821 819 129.061 1170.79 488.565
428 0 64.1398 12.9717 832 125.316 1169.76 487.781
429 0 65.0689 12.9555 843 131.902 1168.83 487.139
430 0 68.212 12.9743 885 134.458 1168.74 485.251
431 0 71.1963 13.0625 930 128.844 1168.15 484.065
432 0 73.2701 13.1158 961 121.41 1167.05 483.537
433 0 77.47 13.5149 1047 126.53 1168.39 481.461
434 0 79.361 13.3693 1061 124.124 1168.72 480.541
435 0 82.2989 12.9892 1069 131.252 1169.92 479.913
436 0 84.2579 13.0552 1100 126.695 1166.57 477.936
437 0 88.5161 13.3761 1184 126.796 1167.43 475.761
438 0 89.3853 13.302 1189 129.504 1167.92 475.003
439 1 45.1714 11.7995 533 125.469 1168.13 497.872
440 0 45.1589 12.4007 560 126.029 1168.63 497.379
441 0 47.1479 12.1745 574 126.796 1169.25 497.073
442 0 47.1634 12.5945 594 121.843 1166.55 496.397
443 0 50.1009 12.5746 630 129.063 1167.4 495.437
444 0 49.193 12.9896 639 125.692 1168.31 495.088
445 0 50.1027 12.9734 650 129.162 1169.13 494.577
446 0 52.1541 12.9808 677 124.638 1169.84 493.635
447 0 54.0535 12.8021 692 133.9 1168.75 493
448 0 55.0782 12.9634 714 130.104 1168.84 492.099
449 0 56.0758 13.0359 731 132.231 1169.61 492.313
450 0 58.0615 13.1412 763 133.649 1169.54 490.974
451 0 60.0706 12.8682 773 131.666 1168.55 489.926
452 0 62.0974 13.044 810 128.515 1167.07 489.169
453 0 63.101 13.1218 828 133.705 1167.05 487.955
454 0 66.1131 13.3105 880 131.691 1169.61 486.82
455 0 68.0603 13.0326 887 135.937 1169.5 485.756
456 0 70.0778 13.1425 921 124.152 1169.83 484.4
457 0 72.0432 12.9506 933 129.886 1170.09 483.267
458 0 75.0528 13.5904 1020 129.92 1170.48 482.201
459 0 76.0403 13.4402 1022 134.494 1167.41 480.494
460 0 77.1205 13.5502 1045 134.162 1166.83 479.883
461 0 83.1961 13.2699 1104 137.271 1166.88 478.11
462 0 86.0642 13.0484 1123 138.112 1168.11 475.814
463 0 87.1232 13.0275 1135 139.26 1167.54 475.774
464 1 47.0378 12.0754 568 134.613 1167.39 494.419
465 0 47.0476 12.3279 580 139.859 1167.72 494.116
466 0 48.0849 13.2058 635 136.633 1168.91 493.417
467 0 51.1295 12.7324 651 128.244 1169.12 492.914
468 0 52.0631 12.6577 659 139.288 1167.53 492.056
469 0 54.1108 12.8995 698 132.335 1168.98 491.489
470 0 56.111 12.8673 722 139.011 1168.2 490.705
471 0 59.2278 13.2708 786 131.177 1168.43 488.223
472 0 60.0823 13.3983 805 136.974 1167.16 488.063
473 0 61.1127 13.4342 821 134.055 1167.95 487.486
474 0 64.0927 13.1684 844 137.509 1168.23 486.757
475 0 66.1243 13.3083 880 133.201 1167.96 485.211
476 0 68.0836 13.2925 905 132.957 1167.47 484.239
477 0 69.1595 13.7074 948 133.009 1167.36 482.956
478 0 73.126 13.4562 984 135.292 1168.35 481.214
479 0 75.0572 13.5763 1019 134.905 1169.19 480.095
480 0 77.1037 14.0331 1082 131.212 1167.68 478.984
481 0 81.1039 13.6368 1106 135.346 1168.69 477.281
482 0 85.1497 13.5761 1156 128.647 1169.12 476.578
483 1 43.0451 12.3127 530 138.234 1167.41 495.992
484 0 45.113 12.7014 573 128.712 1169.12 495.129
485 0 47.1567 12.5115 590 137.763 1169.63 494.585
486 0 48.1659 12.9345 623 134.669 1171.39 493.891
487 0 50.0718 12.5819 630 139.516 1169.43 492.881
488 0 51.1119 12.952 662 132.008 1169.23 492.846
489 0 53.0853 12.8284 681 134.27 1168.47 491.765
490 0 53.0288 13.3701 709 134.804 1169.17 491.271
491 0 54.1135 13.1945 714 135.812 1169.55 490.741
492 0 56.0222 13.2269 741 138.83 1170.19 490.511
493 0 57.076 13.5609 774 129.146 1170.7 489.447
494 0 59.1452 13.0864 774 141.278 1170.57 488.846
495 0 59.0703 13.7294 811 139.996 1170.43 488.07
496 0 62.1492 13.6446 848 139.458 1170.31 487.066
497 0 63.1214 13.4503 849 147.654 1168.77 486.557
498 0 65.1014 13.7631 896 144.209 1168.28 485.28
499 0 68.0742 13.6909 932 148.514 1167.54 483.922
500 0 70.3244 13.5941 956 148.834 1169.06 483.405
501 0 72.0538 13.5871 979 145.866 1167.58 482.417
502 0 74.0634 13.9475 1033 145.773 1169.08 481.03
503 0 76.097 14.0084 1066 142.78 1167.53 479.952
504 0 79.0849 14.3643 1136 145.502 1167.72 477.636
505 0 81.1059 14.0804 1142 144.858 1169.86 477.462
506 0 86.1262 13.9447 1201 138.718 1170.7 475.933
507 0 89.0994 14.018 1249 146.806 1170.03 474.013
508 1 49.0639 12.4328 610 144.134 1170.31 493.907
509 0 50.076 13.0002 651 141.565 1169.96 492.797
510 0 51.053 12.7906 653 144.311 1169.44 492.917
511 0 53.1731 12.7884 680 142.659 1169.9 491.884
512 0 56.0955 12.5857 706 142.358 1168.99 491.418
513 0 57.0654 13.1603 751 145.426 1170.06 490.442
514 0 59.1186 13.1769 779 142.863 1168.93 489.027
515 0 60.2051 13.2547 798 142.249 1168.51 488.188
516 0 63.1438 13.1763 832 139.945 1170.52 486.733
517 0 66.2405 13.4359 890 142.619 1170.5 485.58
518 0 66.1562 13.4077 887 147.231 1169.19 485.135
519 0 69.1386 13.3645 924 144.476 1167.74 483.694
520 0 71.3056 13.7717 982 141.57 1169.94 481.941
521 0 73.2863 13.1675 965 141.821 1168.99 482.27
522 0 78.3114 13.4336 1052 135.983 1169.39 479.53
523 0 81.3359 13.2537 1078 135.87 1168.9 477.894
524 0 83.2869 13.5075 1125 139.911 1167.97 476.76
525 0 88.18 13.6766 1206 132.617 1167.02 474.829
526 1 47.1056 11.7396 553 133.396 1167.52 495.351
527 0 49.04 11.9086 584 129.219 1167.4 494.813
528 0 50.0919 12.2575 614 138.779 1167.9 494.269
529 0 51.1079 12.8943 659 126.328 1168.29 493.822
530 0 52.0949 12.9379 674 130.761 1168.03 493.325
531 0 55.0963 12.8502 708 127.976 1167.83 492.599
532 0 56.1512 12.965 728 126.239 1168.25 491.346
533 0 58.2464 13.3055 775 127.729 1168.71 490.345
534 0 60.0906 13.2467 796 127.595 1168.56 489.923
535 0 62.1358 13.2291 822 117.939 1167.93 489.08
536 0 63.1275 13.2747 838 121.927 1168.56 488.624
537 0 66.0908 13.4058 886 120.099 1168.77 486.862
538 0 66.1482 13.4093 887 118.699 1168.87 486.605
539 0 69.0683 13.2333 914 119.633 1168.95 485.394
540 0 71.0578 13.7071 974 115.8 1169.98 483.819
541 0 75.0719 13.1607 988 117.698 1170.8 482.398
542 0 76.1712 13.4171 1022 115.333 1170.7 481.918
543 0 81.0824 13.2458 1074 115.601 1168.83 479.118
544 0 84.1254 13.3967 1127 114.684 1170.08 477.977
545 0 87.0602 13.3241 1160 115.359 1168.31 476.138
546 0 89.2518 13.3779 1194 116.618 1168.03 474.788
547 0 92.269 13.3306 1230 111.528 1170.03 473.147
548 0 96.2686 13.2857 1279 114.016 1169.6 471.526
549 0 100.201 13.3931 1342 118.286 1170.12 469.329
550 0 104.408 13.4472 1404 119.863 1169.93 467.761
551 1 56.1164 11.2089 629 118.893 1170.51 491.852
552 0 58.104 12.0302 699 121.036 1169.95 490.464
553 0 59.1115 12.4849 738 120.154 1171.5 488.848
554 0 61.087 12.2939 751 116.13 1171.61 489.37
555 0 64.0204 12.3398 790 111.878 1172.56 488.348
556 0 66.1194 12.5077 827 115.273 1171.8 487.139
557 0 68.2264 12.3559 843 114.288 1170.88 485.949
558 0 71.149 12.5371 892 116.683 1171.58 484.897
559 0 72.165 13.3167 961 116.664 1171.64 483.999
560 0 74.1375 13.1917 978 114.732 1172.15 482.908
561 0 77.1895 12.7608 985 117.774 1171.6 480.397
562 0 79.2703 12.9557 1027 116.309 1171.47 479.689
563 0 83.2154 12.6659 1054 114.213 1171.93 478.977
564 0 86.176 13.1243 1131 113.748 1173.24 475.943
565 0 90.4124 12.996 1175 109.997 1170.43 474.66
566 0 93.3102 13.0318 1216 113.382 1171.51 472.799
567 0 97.3398 12.9033 1256 112.261 1171.59 471.028
568 1 54.2156 11.3252 614 116.326 1172.05 492.466
569 0 52.0872 12.7095 662 113.71 1172.2 492.243
570 0 57.0459 12.3409 704 108.49 1170.56 491.659
571 0 57.1494 12.6511 723 114.549 1169.43 491.082
572 0 60.0911 12.4145 746 115.777 1169.92 490.027
573 0 61.0991 12.9135 789 112.714 1169.36 489.262
574 0 62.0594 12.7942 794 116.997 1169.71 488.069
575 0 65.1383 12.9263 842 103.436 1169.69 487.129
576 0 68.0863 13.0423 888 111.223 1170.69 485.893
577 0 69.1735 13.2421 916 112.174 1169.18 484.349
578 0 72.1133 12.9518 934 112.188 1169.2 483.093
579 0 73.0782 13.465 984 113.714 1168.36 482.512
580 0 75.1012 13.4352 1009 114.351 1168.67 480.623
581 0 79.1819 13.6016 1077 107.188 1169.08 479.585
582 0 80.2164 13.663 1096 113.483 1168.89 478.612
583 0 83.1042 13.7418 1142 110.736 1169.88 476.628
584 0 86.2754 13.6655 1179 116.12 1169.27 475.357
585 0 87.0685 13.8971 1210 111.308 1169.91 474.731
586 0 92.1888 13.8845 1280 116.136 1168.52 472.146
587 0 94.1768 14.1118 1329 120.173 1169.21 469.998
588 0 99.3436 13.6999 1361 116.94 1168.12 468.503
589 0 103.149 13.5919 1402 120.821 1169.77 467.389
590 0 106.272 13.7759 1464 117.253 1168.8 464.831
591 1 58.1243 12.1292 705 119.53 1168.59 490.13
592 0 58.0363 12.5094 726 115.19 1169.71 489.138
593 0 61.1118 12.6326 772 113.306 1168.11 488.768
594 0 60.0396 13.1413 789 116.406 1169.67 488.351
595 0 63.1315 13.1155 828 116.417 1169.61 487.38
596 0 65.0728 12.9701 844 116.273 1168.05 486.377
597 0 66.1704 13.7221 908 117.088 1169.64 484.751
598 0 69.1374 13.6684 945 114.959 1168.43 483.983
599 0 73.0943 13.2432 968 117.318 1169.55 482.552
600 0 73.0943 13.2432 968 173.444 1171.55 482.552
601 0 77.1462 13.5068 1042 110.816 1170.32 480.256
602 0 80.1021 13.5702 1087 114.323 1168.63 478.49
603 0 83.1601 13.5762 1129 117.492 1169.23 477.067
604 0 83.1134 13.7162 1140 119.875 1169.6 476.482
605 0 87.1138 13.844 1206 116.814 1169.39 474.049
606 0 90.1116 13.6276 1228 119.426 1169.46 473.424
607 0 94.152 13.8712 1306 121.479 1170.33 471.152
608 0 96.0919 14.0386 1349 116.338 1172.63 470.255
609 0 100.165 13.6874 1371 118.796 1169.81 468.556
610 0 104.186 13.4855 1405 117.608 1170.27 467.103
611 0 107.136 13.5622 1453 119.438 1171.01 465.307
612 1 57.0649 12.5471 716 113.158 1170.27 490.085
613 0 58.0881 12.8426 746 119.653 1169.36 489.996
614 0 60.0847 13.2147 794 114.348 1172.12 488.946
615 0 61.0563 12.9553 791 114.019 1170.43 488.118
616 0 64.1512 13.3123 854 113.263 1171.73 486.912
617 0 66.093 13.1935 872 112.475 1169.37 485.274
618 0 68.1167 13.2567 903 114.983 1170.12 484.946
619 0 70.1074 13.6362 956 113.294 1171.64 483.593
620 0 72.081 13.7068 988 111.285 1170.91 482.895
621 0 74.2188 13.7027 1017 108.611 1170.52 481.729
622 0 76.118 13.9652 1063 113.47 1169.45 481.03
623 0 79.1226 14.1426 1119 114.898 1169.29 479.549
624 0 81.0982 13.6994 1111 113.542 1169.62 478.896
625 0 82.0525 13.9057 1141 117.713 1170.31 477.618
626 0 87.1144 13.6946 1193 112.713 1171.01 475.521
627 0 88.1892 13.4484 1186 118.287 1171.9 474.169
628 0 93.1794 13.8013 1286 116.488 1170.77 472.435
629 1 48.0361 12.2408 588 113.153 1170.64 494.599
630 0 50.1164 12.8301 643 113.61 1169.81 493.655
631 0 51.0847 13.3504 682 117.839 1169.32 493.019
632 0 52.1621 13.3622 697 115.98 1170.93 492.405
633 0 53.1192 13.705 728 117.495 1171.54 491.986
634 0 53.1207 13.9494 741 119.787 1171.34 491.269
635 0 56.0898 14.138 793 118.783 1169.77 489.865
636 0 58.1153 13.4044 779 120.85 1169.62 489.466
637 0 60.137 13.7852 829 125.18 1169.06 489.025
638 0 61.0508 13.8082 843 120.96 1170.16 487.865
639 0 64.1451 13.8904 891 117.383 1170.15 486.802
640 0 66.0848 13.9518 922 119.614 1169.92 485.954
641 0 69.0997 13.4733 931 121.139 1170.69 484.724
642 0 69.1848 14.1071 976 118.325 1169.92 483.621
643 0 72.1043 13.7301 990 120.707 1171.13 481.986
644 0 76.1425 13.8425 1054 119.381 1168.96 480.629
645 0 78.1941 13.799 1079 115.825 1169.08 480.032
646 0 79.1242 14.1802 1122 119.187 1171.73 478.826
647 0 84.1105 13.6606 1149 119.996 1170.02 477.396
648 0 87.0787 14.0448 1223 112.254 1170.68 475.924
649 0 92.0664 13.512 1244 122.584 1171.32 474.281
650 1 46.0292 12.5138 576 119.542 1171.6 496.785
651 0 48.0853 12.8522 618 117.065 1172.04 495.754
652 0 47.1995 13.2417 625 117.826 1171.22 495.685
653 0 50.1224 13.3673 670 114.742 1169.31 494.745
654 0 50.1072 13.7106 687 116.965 1170.33 495.18
655 0 53.1044 13.2192 702 115.866 1169.61 493.783
656 0 54.2002 12.8044 694 122.024 1170.42 493.529
657 0 56.0751 13.6603 766 120.383 1171.58 492.608
658 0 58.0741 13.5 784 124.554 1169.99 492.443
659 0 60.0665 13.9179 836 121.996 1169.46 491.592
660 0 62.1101 13.8142 858 117.838 1170.56 490.561
661 0 63.1256 13.7187 866 123.182 1171.85 489.886
662 0 66.1829 14.0066 927 117.763 1170.8 489.605
663 0 68.1895 13.7411 937 118.068 1168.98 488.068
664 0 71.0744 13.6758 972 125.126 1170.72 487.045
665 0 72.131 13.9191 1004 120.354 1168.97 485.658
666 0 76.0853 13.8923 1057 120.695 1168.82 483.927
667 0 80.1664 13.8711 1112 121.984 1168.86 482.898
668 0 82.0968 13.7399 1128 126.283 1170.11 482.113
669 0 85.1033 13.5482 1153 123.354 1170.42 480.671
670 1 46.096 12.9295 596 126.097 1170.79 499.576
671 0 48.1229 12.946 623 125.165 1170.51 498.482
672 0 49.1426 13.2268 650 132.632 1171.88 497.711
673 0 52.1892 12.8379 670 129.625 1171.25 497.366
674 0 50.1642 13.8146 693 127.834 1171.85 497.102
675 0 54.1979 13.1002 710 131.137 1171.38 496.135
676 0 57.1839 12.6259 722 128.939 1172.19 494.957
677 0 58.1523 13.1723 766 130.79 1171.52 494.521
678 0 58.1686 13.4437 782 130.788 1171.45 493.219
679 0 62.0859 13.2558 823 122.673 1170.84 491.872
680 0 61.2448 13.5685 831 122.132 1170.38 491.433
681 0 65.1038 13.5783 884 122.672 1170.1 489.577
682 0 67.0927 13.5186 907 122.701 1171.02 488.744
683 0 69.0701 13.4212 927 121.789 1171.37 488.172
684 0 70.122 13.3339 935 122.697 1170.94 486.953
685 0 73.1387 13.3855 979 117.073 1172.02 485.566
686 0 74.2576 13.911 1033 117.68 1170.06 484.731
687 0 77.1 13.7224 1058 118.213 1172.73 483.68
688 0 79.2098 14.026 1111 112.836 1173.02 481.838
689 0 81.0968 13.7613 1116 119.266 1173.55 480.516
690 0 86.1557 13.8818 1196 115.482 1172.47 478.906
691 0 89.1303 13.7888 1229 115.225 1173.37 477.962
692 0 90.2875 13.6896 1236 111.825 1173.07 476.287
693 0 93.2497 13.6515 1273 117.677 1174.08 474.173
694 0 97.1048 13.7377 1334 109.836 1173.06 472.559
695 0 101.277 13.7938 1397 118.261 1172.13 470.81
696 1 55.1273 12.7342 702 116.632 1172.8 492.782
697 0 56.2394 13.3181 749 130.251 1171.91 492.033
698 0 59.2401 13.4875 799 129.849 1173.61 490.761
699 0 61.1227 13.4156 820 127.582 1172.64 489.785
700 0 62.3475 13.5531 845 125.08 1172.69 488.534
701 0 64.4588 13.5125 871 126.935 1171.94 487.687
702 0 66.3532 13.7597 913 123.299 1173.39 486.359
703 0 68.2137 13.7656 939 126.924 1173.49 485.326
704 0 71.2736 13.7077 977 126.366 1174.27 484.138
705 0 73.2374 13.4631 986 127.708 1173.05 482.183
706 0 76.2619 13.9782 1066 123.017 1174.04 481.048
707 0 80.3625 13.7875 1108 122.229 1173.81 478.868
708 0 83.3821 13.7919 1150 122.833 1172.98 477.234
709 0 86.2393 14.1583 1221 127.142 1171.82 476.538
710 0 88.2018 14.104 1244 123.312 1171.37 475.149
711 0 92.227 14.3776 1326 123.118 1173.71 472.744
712 0 95.1952 14.0763 1340 125.902 1172.98 471.669
713 0 101.355 14.0792 1427 129.302 1173.65 469.205
714 1 52.1682 12.383 646 127.644 1172.1 493.31
715 0 51.2209 13.8615 710 126.851 1171.09 492.079
716 0 55.3157 13.4501 744 129.649 1172.17 491.871
717 0 56.1501 13.0009 730 130.07 1172.25 490.793
718 0 58.2446 13.409 781 130.766 1170.79 489.42
719 0 61.2062 13.7894 844 128.385 1172.03 487.859
720 0 63.2228 13.6185 861 131.48 1171.51 487.485
721 0 64.243 14.1961 912 126.42 1170.89 485.27
722 0 67.2654 13.7515 925 124.809 1169.7 484.501
723 0 68.1452 14.1756 966 120.046 1169.49 483.665
724 0 71.155 14.1663 1008 123.923 1171.84 482.566
725 0 73.1382 14.1923 1038 120.618 1172.03 481.776
726 0 76.2785 14.2373 1086 80.954 1169.94 480.587
727 0 78.3172 14.5051 1136 122.936 1172.57 478.908
728 0 81.1989 14.1258 1147 121.979 1170.8 476.766
729 0 85.3141 14.0071 1195 121.268 1170.39 475.927
730 0 86.2808 14.024 1210 125.117 1171.31 474.959
731 0 89.2933 14.066 1256 122.95 1172.47 473.185
732 0 93.2651 13.8959 1296 127.244 1171.24 472.285
733 0 96.173 14.11 1357 124.883 1170.45 470.315
734 0 100.192 14.1927 1422 118.067 1171.1 468.44
735 1 52.054 13.0826 681 120.236 1170.69 491.251
736 0 55.1122 13.1187 723 116.862 1173.37 489.976
737 0 55.1006 13.1941 727 117.347 1173.57 489.345
738 0 58.1553 13.4811 784 117.001 1172.61 488.088
739 0 58.1553 13.4811 784 165.297 1171.61 488.088
740 0 62.1473 13.2266 822 112.674 1172.03 486.128
741 0 64.0727 13.7968 884 118.412 1172.07 484.696
742 0 66.1007 13.3584 883 116.097 1171.85 484.006
743 0 69.0655 13.7985 953 109.793 1171.74 482.868
744 0 72.0588 13.6 980 115.87 1171.99 481.369
745 0 74.0747 13.5539 1004 114.229 1171.68 480.291
746 0 76.1278 13.6612 1040 113.761 1170.94 479.024
747 0 79.1432 13.5324 1071 118.493 1171.41 477.035
748 0 82.1133 13.5179 1110 114.525 1174.85 476.077
749 0 86.1241 13.3761 1152 113.648 1171.75 475.392
750 0 88.0968 13.7462 1211 114.351 1170.39 472.379
751 0 93.1972 13.2407 1234 118.818 1171.56 471.22
752 1 49.022 11.0562 542 115.637 1170.68 493.921
753 0 50.0301 11.7929 590 112.405 1170.56 492.246
754 0 51.0728 12.3158 629 109.213 1170.25 491.078
755 0 53.0904 12.1491 645 113.478 1171.44 490.826
756 0 55.1277 12.208 673 114.994 1171.07 490.569
757 0 55.1779 12.36 682 114.054 1170.69 489.71
758 0 57.14 12.7406 728 109.14 1171.32 489.076
759 0 60.1666 12.2659 738 116.484 1171.57 487.771
760 0 61.2498 12.2939 753 114.934 1169.55 486.683
761 0 65.2003 12.3159 803 112.335 1170 485.447
762 0 66.1705 12.4678 825 117.663 1169.26 484.27
763 0 69.2344 12.696 879 114.201 1169.51 483.383
764 0 71.2719 12.7399 908 115.216 1170.16 481.702
765 0 74.3754 12.5983 937 113.971 1169.75 480.947
766 0 74.3403 12.9539 963 119.64 1169.8 479.862
767 0 79.2333 12.8734 1020 116.739 1170.62 478.096
768 0 82.1838 12.9588 1065 116.433 1169.44 476.107
769 0 86.1452 12.8852 1110 110.95 1169.77 474.469
770 0 89.2196 12.8559 1147 120.228 1169.95 473.12
771 1 47.1581 10.7723 508 111.919 1170.75 495.128
772 0 46.0523 11.4001 525 111.71 1171.83 493.952
773 0 50.0611 11.5858 580 108.428 1171.47 492.357
774 0 52.0985 11.747 612 112.449 1169.57 492.015
775 0 51.1231 12.2254 625 108.84 1170.52 491.565
776 0 52.0613 12.4084 646 112.83 1170.56 490.438
777 0 56.3071 12.1299 683 114.423 1170.28 489.568
778 0 58.1722 12.3255 717 110.325 1170.38 487.975
779 0 60.4652 12.2881 743 104.359 1169.43 487.227
780 0 60.2763 12.4925 753 109.873 1169.56 486.405
781 0 63.3389 12.4884 791 109.387 1168.97 485.088
782 0 63.3389 12.4884 791 158.891 1167.97 485.088
783 0 68.7378 12.555 863 109.18 1168.76 481.655
784 0 69.4716 12.6527 879 111.105 1169.4 481.085
785 0 71.7518 13.0171 934 118.384 1169.63 479.678
786 0 74.723 12.9277 966 117.677 1167.79 478.371
787 0 79.6909 13.0755 1042 114.045 1167.87 476.14
788 0 80.6868 13.0629 1054 116.026 1168.62 474.787
789 0 83.8768 13.4602 1129 117.399 1169.51 473.945
790 0 86.5598 13.2394 1146 118.442 1169.4 473.478
791 1 45.4667 11.7669 535 121.748 1170.77 495.166
792 0 46.2264 12.4388 575 115.508 1170.41 495.117
793 0 47.2811 12.4786 590 116.398 1170.39 494.922
794 0 49.3224 12.4082 612 119.533 1170.3 494.433
795 0 49.3818 12.6362 624 123.53 1169.35 493.774
796 0 50.199 12.9684 651 121.925 1169.9 493.389
797 0 52.2493 12.5743 657 126.877 1170.28 493.099
798 0 54.2942 12.7638 693 125.017 1172.26 492.919
799 0 54.412 13.1956 718 124.638 1170.88 491.648
800 0 56.5552 12.8724 728 128.242 1169.17 491.615
801 0 58.491 13.3183 779 119.827 1171.44 490.427
802 0 59.5522 13.4168 799 125.661 1170.42 488.602
803 0 59.5633 13.6325 812 78.851 1170.63 488.889
804 0 62.8336 13.3368 838 119.841 1172.6 487.362
805 0 65.5923 13.34 875 122.504 1171.67 486.641
806 0 67.777 13.6329 924 116.211 1170.28 484.553
807 0 68.3311 13.859 947 117.976 1169.71 483.591
808 0 72.3555 13.8206 1000 118.801 1169.71 482.333
809 0 71.498 14.0703 1006 121.69 1169.8 482.222
810 0 76.6815 13.8364 1061 114.435 1169.95 480.015
811 0 78.6123 13.6874 1076 115.435 1170.69 478.993
812 0 80.3525 13.8764 1115 120.709 1171.61 478.822
813 0 84.2382 13.4856 1136 117.68 1171.81 476.698
814 1 42.0323 12.0621 507 118.639 1169.12 498.181
815 0 45.0855 12.1103 546 113.352 1169.26 496.396
816 0 45.134 12.6291 570 113.332 1172.15 497.435
817 0 47.0982 12.4208 585 111.475 1170.34 497.713
818 0 48.0344 12.8658 618 111.083 1170.26 497.094
819 0 49.0458 12.7228 624 113.409 1171.49 496.785
820 0 50.1053 13.3319 668 113.918 1171.46 495.894
821 0 52.0626 12.9459 674 116.691 1172.02 495.533
822 0 54.1551 12.852 696 118.348 1172.06 493.925
823 0 54.0399 13.5085 730 116.662 1172.15 493.493
824 0 57.1078 13.2556 757 115.168 1170.06 492.89
825 0 58.0513 13.4881 783 120.994 1170.91 491.309
826 0 60.1596 13.3312 802 122.001 1170.82 490.835
827 0 62.1286 13.2628 824 122.587 1171.32 489.222
828 0 65.1435 13.1249 855 123.084 1171.22 488.087
829 0 66.0775 13.3782 884 121.201 1171.45 487.494
830 0 68.1236 13.3874 912 123.677 1169.19 485.898
831 0 71.264 13.4149 956 122.274 1170.25 484.849
832 0 74.0768 13.378 991 122.637 1171.05 483.532
833 0 76.0956 13.7196 1044 124.538 1171.3 481.878
834 0 80.0487 13.3544 1069 122.138 1170.97 480.993
835 0 83.0985 13.5141 1123 130.727 1171.42 479.223
836 0 84.169 13.8768 1168 128.443 1171.8 477.577
837 0 88.0349 13.9717 1230 130.475 1171.72 475.815
838 1 48.0862 12.54 603 131.919 1171.93 494.635
839 0 50.1399 12.8241 643 130.484 1171.95 493.84
840 0 52.0708 13.0015 677 124.9 1169.39 493.055
841 0 53.0366 13.0853 694 127.133 1169.14 492.575
842 0 55.207 13.1686 727 135.539 1170.32 491.457
843 0 57.0334 13.4483 767 135.918 1171.17 490.595
844 0 58.2303 13.1375 765 141.293 1170.25 489.224
845 0 60.1536 13.3658 804 136.056 1170.31 488.412
846 0 63.1574 13.1576 831 140.917 1170.22 487.822
847 0 64.2168 13.5011 867 138.057 1170.1 486.856
848 0 66.2215 13.2736 879 134.149 1169.13 486.096
849 0 68.1177 13.3005 906 141.833 1169.83 485.17
850 0 71.1762 13.5017 961 135.899 1170.25 483.675
851 0 73.168 13.5442 991 137.107 1171.54 482.469
852 0 74.2272 13.782 1023 136.599 1170.7 481.575
853 0 76.1854 13.8741 1057 137.058 1170.37 480.188
854 0 80.2613 13.6679 1097 136.655 1168.89 478.968
855 0 82.1506 14.1204 1160 135.966 1170.18 477.415
856 0 84.1882 14.2775 1202 139.057 1168.03 475.772
857 0 87.2521 13.8908 1212 136.235 1169.75 474.526
858 0 90.2901 14.099 1273 132.612 1170.98 472.653
859 0 94.3289 13.5589 1279 136.851 1170.59 470.769
860 0 97.2227 14.1325 1374 136.057 1170.57 469.33
861 0 103.406 13.916 1439 134.822 1171.28 467.539
862 1 53.0796 13.0936 695 128.128 1171.2 490.437
863 0 55.1344 13.2767 732 125.493 1170.12 489.527
864 0 57.1616 12.9982 743 131.791 1169.85 488.942
865 0 60.1141 12.7757 768 129.315 1169.69 487.665
866 0 61.0851 13.0801 799 129.084 1170.92 486.599
867 0 63.1293 13.0842 826 133.314 1173.35 485.57
868 0 64.1789 13.6961 879 129.146 1172.78 484.488
869 0 67.0774 13.4024 899 123.742 1168.15 483.268
870 0 70.0845 13.0699 916 128.733 1169.63 481.549
871 0 72.0438 13.3669 963 126.821 1172.83 480.929
872 0 74.0605 13.3269 987 124.467 1173.08 479.069
873 0 77.1127 13.5257 1043 128.337 1170.55 477.7
874 0 78.0845 13.6263 1064 125.276 1171.18 476.495
875 0 83.168 13.5509 1127 121.635 1170.84 475.12
876 0 85.0995 13.5253 1151 123.216 1170.46 473.265
877 0 87.1881 13.3849 1167 126.696 1170.93 471.749
878 0 93.0635 13.292 1237 126.023 1170.67 469.905
879 0 96.0889 13.1024 1259 123.701 1170.97 469.004
880 1 49.1148 11.8701 583 123.345 1170.68 491.815
881 0 50.0759 12.3812 620 121.356 1170.22 490.81
882 0 50.0886 12.5977 631 120.83 1169.78 490.601
883 0 52.0277 12.9162 672 124.699 1168.77 490.69
884 0 54.0435 12.4899 675 123.791 1169.93 489.71
885 0 56.0804 12.5356 703 123.751 1168.6 488.964
886 0 58.0777 12.5694 730 124.038 1169.87 488.29
887 0 59.1542 12.2223 723 125.658 1170.51 487.545
888 0 61.1137 12.8122 783 128.092 1171.1 485.94
889 0 64.2029 12.5072 803 130.248 1171.37 484.787
890 0 66.1937 12.7051 841 132.969 1171.03 484.522
891 0 68.1565 12.9701 884 135.577 1169.9 482.994
892 0 72.2334 13.1518 950 125.633 1171.27 480.775
893 0 72.428 13.4616 975 131.69 1170.65 480.763
894 0 75.2796 13.0845 985 133.799 1170.66 479.029
895 0 76.2178 13.3958 1021 137.68 1170.4 478.45
896 0 79.2407 12.91 1023 146.065 1170.02 477.294
897 0 82.3051 12.6116 1038 140.542 1169.53 476.213
898 0 85.4858 13.0314 1114 141.527 1169.52 474.187
899 0 88.2841 12.8562 1135 147.937 1171.68 472.892
900 0 91.1681 12.6579 1154 145.653 1168.9 471.711
901 1 49.1886 11.3441 558 146.459 1168.72 493.403
902 0 51.2063 11.9907 614 140.713 1170.17 493.073
903 0 53.051 12.177 646 140.788 1171.47 491.769
904 0 54.2008 12.5828 682 140.323 1169.33 491.089
905 0 56.152 12.4305 698 142.626 1169.14 490.302
906 0 56.266 12.9919 731 140.315 1170.69 489.687
907 0 57.1529 12.8077 732 139.273 1168.94 488.243
908 0 61.1994 12.7452 780 137.563 1171.43 487.655
909 0 62.2044 12.7644 794 139.071 1169.29 486.89
910 0 65.2034 12.9441 844 135.071 1170.42 485.903
911 0 65.2575 12.9947 848 141.884 1169.75 484.321
912 0 69.165 12.9979 899 132.143 1171.1 483.321
913 0 72.2751 12.7983 925 135.198 1168.2 482.784
914 0 72.1601 13.4562 971 127.217 1172.81 481.091
915 0 75.1874 13.5661 1020 129.615 1170.64 479.373
916 0 77.1692 13.3214 1028 124.911 1171.67 479.346
917 0 83.2605 14.1844 1181 124.086 1170.76 475.54
918 0 84.1201 13.2311 1113 132.988 1170.38 475.313
919 0 86.2503 13.1014 1130 141.552 1169.28 474.237
920 1 42.298 11.5136 487 130.998 1170.07 495.906
921 0 42.161 12.476 526 131.776 1167.98 495.555
922 0 45.1069 12.415 560 128.286 1169.58 495.145
923 0 48.0699 12.3362 593 131.499 1170.14 494.556
924 0 50.044 12.1693 609 129.768 1171.38 494.363
925 0 49.1219 12.866 632 130.369 1169.89 493.429
926 0 52.1282 12.546 654 128.745 1170.43 493.115
927 0 52.1587 13.0371 680 127.95 1170.77 492.371
928 0 55.0657 13.1298 723 128.091 1171.44 491.751
929 0 54.1035 13.4927 730 133.051 1171.55 490.918
930 0 58.1311 15.3962 895 122.139 1172.32 488.632
931 0 62.0715 15.4499 959 117.362 1172.12 487.394
932 0 65.1375 15.782 1028 115.173 1172.85 485.529
933 0 68.0508 16.5759 1128 102.35 1171.84 484.457
934 0 71.0652 16.4497 1169 110.412 1172.17 483.187
935 0 74.1677 15.7346 1167 109.554 1172.04 482.806
936 0 73.1403 16.5162 1208 111.325 1170.85 481.377
937 0 74.0612 16.3108 1208 115.983 1171.28 481.651
938 0 72.0791 15.3304 1105 124.858 1171.31 482.807
939 0 74.0842 13.9706 1035 130.793 1170.33 482.448
940 0 75.141 14.3064 1075 131.177 1170.71 481.232
941 0 77.0922 14.1389 1090 134.43 1170.45 479.521
942 0 82.1327 14.3548 1179 129.618 1171.11 478.609
943 0 85.088 14.0795 1198 131.519 1170.63 477.4
944 0 88.1244 13.776 1214 132.434 1169.61 476.671
945 1 44.0964 12.1098 534 133.554 1171.02 497.807
946 0 44.0581 12.37 545 129.725 1170.47 496.905
947 0 46.0804 13.3679 616 129.398 1171.68 497.029
948 0 47.058 13.2602 624 130.022 1171.69 497.303
949 0 49.0501 13.1906 647 134.046 1168.93 496.372
950 0 47.0476 13.5395 637 135.141 1169.24 495.97
951 0 52.0809 13.287 692 126.796 1169.78 495.379
952 0 52.0721 13.7694 717 124.388 1170.49 494.181
953 0 55.0707 13.5099 744 125.009 1169.75 493.312
954 0 54.1257 13.7458 744 129.554 1170.33 492.825
955 0 57.0967 13.5209 772 130.089 1170.89 491.942
956 0 57.0828 14.0848 804 135.789 1171.34 491.252
957 0 61.0496 13.5955 830 131.449 1170.07 489.181
958 0 62.0313 13.8317 858 132.845 1169.54 488.864
959 0 63.0615 13.4789 850 131.753 1169.84 487.873
960 0 66.0342 13.9776 923 128.986 1170.61 486.952
961 0 68.0468 13.6818 931 130.947 1169.7 485.905
962 0 68.0468 13.6818 931 168.977 1169.7 485.905
963 0 73.1103 13.6643 999 133.517 1171.52 483.412
964 0 75.0616 13.6688 1026 126.063 1170.14 481.318
965 0 77.0958 14.1123 1088 133.263 1169.99 479.789
966 0 81.0672 13.828 1121 130.016 1171.74 478.366
967 0 83.0563 14.0868 1170 128.069 1169.97 476.698
968 0 87.1235 14.0375 1223 128.28 1171.17 474.747
969 0 88.1265 13.526 1192 128.379 1171.59 473.883
970 1 49.0187 12.1178 594 126.466 1169.11 493.372
971 0 49.0716 13.2256 649 131.963 1169.76 491.852
972 0 50.1033 13.3923 671 126.285 1169.86 492.046
973 0 54.0654 12.8918 697 126.416 1170.27 491.248
974 0 52.0999 13.5701 707 128.642 1170.28 490.123
975 0 54.0433 13.5447 732 126.298 1168.1 490.34
976 0 57.0659 13.3179 760 125.542 1167.7 489.634
977 0 57.0681 13.5277 772 129.479 1168.04 488.842
978 0 59.0479 13.7854 814 126.625 1169.08 488.479
979 0 61.0601 13.4785 823 121.495 1170.11 487.521
980 0 65.0965 13.7181 893 125.464 1171.19 485.956
981 0 65.0997 13.7174 893 122.516 1169.71 484.833
982 0 68.0568 13.8561 943 121.514 1168.81 483.59
983 0 69.1255 13.8154 955 125.585 1170.02 482.908
984 0 73.2763 13.5514 993 125.819 1170.05 481.57
985 0 75.1505 13.8389 1040 127.305 1169.97 480.061
986 0 79.1225 13.7003 1084 124.403 1170.16 478.888
987 0 82.1576 13.6323 1120 125.293 1171.97 477.104
988 0 83.1032 13.8142 1148 124.018 1170.37 475.699
989 0 90.1746 13.5293 1220 120.811 1170.36 474.02
990 1 46.199 12.3163 569 121.067 1169.12 494.968
991 0 46.2271 12.7631 590 121.815 1169.06 494.814
992 0 49.2259 13.306 655 118.753 1168.67 493.803
993 0 51.2303 13.2148 677 118.789 1168.96 492.966
994 0 52.217 13.5205 706 115.83 1169.8 492.096
995 0 53.1801 13.7457 731 117.945 1168.27 491.094
996 0 55.1259 13.5871 749 117.911 1169.74 490.172
997 0 55.0802 13.8707 764 112.331 1167.57 489.3
998 0 58.2309 13.498 786 112.986 1168.43 488.553
999 0 60.1931 13.6727 823 115.465 1169.25 487.616
1000 0 62.1008 13.7679 855 113.248 1169.67 486.936
1001 0 61.1018 14.5659 890 115.024 1166.81 485.982
1002 0 65.1115 13.6228 887 118.32 1171.36 484.897
1003 0 67.135 13.7335 922 121.311 1168.3 484.27
1004 0 70.1567 13.7549 965 116.433 1169.6 482.549
1005 0 72.0948 13.9261 1004 113.827 1172.29 481.495
1006 0 74.1003 14.0215 1039 119.287 1170.62 480.432
1007 0 78.079 14.0114 1094 115.478 1171.01 477.277
1008 0 81.1707 13.6379 1107 118.503 1171.46 476.931
1009 0 84.1878 13.7431 1157 117.637 1171.11 474.908
1010 0 86.1427 13.7679 1186 122.967 1169.5 474.07
1011 0 90.3453 13.6808 1236 118.603 1170.79 471.657
1012 0 93.3699 13.9338 1301 122.706 1168.68 469.351
1013 1 49.1721 11.5309 567 121.434 1170.73 491.635
1014 0 50.2121 12.3675 621 120.238 1171.52 491.71
1015 0 52.0891 13.0162 678 122.111 1170.47 490.709
1016 0 53.1561 13.1123 697 126.578 1169.71 490.75
1017 0 53.2276 13.5832 723 127.996 1169.86 489.911
1018 0 55.2316 13.7059 757 126.567 1169.21 489.316
1019 0 57.2569 13.6577 782 125.409 1172.05 488.34
1020 0 59.1783 14.1606 838 124.691 1170.47 487.132
1021 0 60.2695 13.7715 830 124.445 1168.25 486.487
1022 0 63.3723 14.1544 897 122.875 1169.7 484.434
1023 0 65.4214 14.3073 936 127.111 1170.03 484.186
1024 0 67.2648 14.2868 961 129.561 1168.02 483.766
1025 0 70.2841 14.1711 996 130.248 1170.89 481.443
1026 0 72.2836 14.1387 1022 130.75 1171.13 481.022
1027 0 74.3216 14.518 1079 134.64 1172.05 480.116
1028 0 75.3003 14.7011 1107 133.644 1170.13 479.136
1029 0 80.242 14.2569 1144 137.254 1169.18 477.995
1030 0 81.4724 14.3852 1172 140.641 1171.27 477.079
1031 0 84.4691 14.5023 1225 142.328 1170.01 475.285
1032 0 87.3401 14.5065 1267 143.81 1169.7 474.311
1033 0 89.3099 14.7016 1313 141.12 1170.64 473.285
1034 0 94.3565 15.0387 1419 144.053 1169.93 471.097
1035 0 97.2401 14.5516 1415 147.92 1171.54 469.835
1036 0 100.346 14.7191 1477 130.898 1168.54 468.693
1037 0 104.179 14.6478 1526 147.817 1169.36 466.685
1038 0 108.188 14.632 1583 147.395 1170.05 466.045
1039 1 56.0945 13.8694 778 152.772 1171.71 489.657
1040 0 58.0862 14.0653 817 148.968 1171.08 488.684
1041 0 59.1013 14.3482 848 148.966 1169.91 488.015
1042 0 63.0655 13.8427 873 152.829 1169.84 486.372
1043 0 65.1601 14.0884 918 156.475 1170.42 485.011
1044 0 67.218 14.148 951 156.107 1169.4 484.174
1045 0 68.1175 14.4016 981 155.582 1170.11 483.35
1046 0 70.1653 14.5371 1020 160.006 1170.96 481.381
1047 0 71.1524 14.5462 1035 159.653 1169.67 480.713
1048 0 73.154 14.7087 1076 155.809 1170.54 479.443
1049 0 73.154 14.7087 1076 174.496 1172.54 479.443
1050 0 80.1708 14.2945 1146 160.301 1168.57 477.179
1051 0 82.1287 14.6356 1202 155.531 1169.9 476.771
1052 0 86.1789 14.203 1224 161.849 1169.38 475.453
1053 0 88.2076 14.6586 1293 159.888 1169.57 473.671
1054 0 91.0721 14.6477 1334 160.211 1172.4 472.471
1055 0 93.1586 14.8886 1387 156.782 1170.87 470.33
1056 0 95.1403 14.4734 1377 160.656 1169.13 469.23
1057 0 100.146 14.4789 1450 159.298 1168.02 468.03
1058 0 103.212 14.8917 1537 152.906 1168.08 466.028
1059 0 108.136 14.602 1579 164.058 1170.28 465.353
1060 1 55.0986 14.0839 776 156.854 1169.03 489.457
1061 0 59.0971 13.8585 819 156.22 1168.74 488.893
1062 0 59.1895 14.31 847 156.985 1168.67 488.061
1063 0 61.2682 14.2325 872 159.849 1169.27 487.233
1064 0 66.1135 14.0516 929 158.023 1168.56 485.94
1065 0 68.2349 13.9958 955 153.868 1168.88 485.363
1066 0 69.2221 14.0851 975 156.695 1168.78 484.451
1067 0 69.2221 14.0851 975 170.99 1168.78 484.451
1068 0 72.1452 14.6371 1056 155.33 1170.14 482.685
1069 0 75.1052 14.5529 1093 153.888 1170.24 480.981
1070 0 78.1811 14.5432 1137 161.335 1171.2 479.666
1071 0 81.1094 14.4496 1172 161.814 1169.98 477.833
1072 0 84.1956 14.4663 1218 163.814 1168.42 477.044
1073 0 87.2887 14.4921 1265 164.168 1168.88 475.866
1074 0 91.2639 14.5731 1330 165.402 1168.91 474.32
1075 0 93.197 14.5606 1357 157.864 1168.66 471.716
1076 0 97.2372 14.552 1415 164.654 1168.37 469.797
1077 0 102.205 14.2753 1459 168.04 1169.04 469.452
1078 1 51.1497 13.5876 695 162.899 1169.27 492.46
1079 0 53.1533 14.0537 747 165.553 1169.57 490.573
1080 0 55.1389 14.0735 776 159.407 1169.7 490.347
1081 0 58.0843 13.8764 806 154.055 1169 489.444
1082 0 60.1604 14.3616 864 164.098 1170.45 488.552
1083 0 61.1547 14.4061 881 161.555 1169.84 487.228
1084 0 65.1334 14.217 926 159.163 1168.66 486.194
1085 0 65.272 14.5238 948 161.852 1170.32 484.851
1086 0 69.0826 14.5044 1002 158.991 1170.06 483.475
1087 0 70.2676 14.1886 997 157.364 1170.35 483.105
1088 0 75.1727 14.4866 1089 160.321 1169.54 481.814
1089 0 76.1346 14.3956 1096 160.625 1172.86 480.162
1090 0 79.1724 14.6642 1161 165.071 1170.58 479.022
1091 0 81.2206 14.553 1182 169.191 1169.54 477.821
1092 0 83.1408 14.8423 1234 165.179 1169.92 475.455
1093 0 87.1177 14.7157 1282 164.842 1170.46 474.624
1094 0 91.1235 14.8919 1357 159.524 1169.91 473.586
1095 0 95.2104 14.5887 1389 166.704 1169.84 472.551
1096 1 49.0435 13.1924 647 162.881 1169.34 494.45
1097 0 50.1329 13.6836 686 167.296 1169.22 493.38
1098 0 52.0588 13.3887 697 163.373 1169.9 492.603
1099 0 54.0935 13.4397 727 160.762 1169.17 491.048
1100 0 54.1678 14.4181 781 158.201 1169.86 490.785
1101 0 55.108 14.2266 784 167.992 1169.44 490.279
1102 0 57.2392 14.553 833 164.455 1170.06 487.408
1103 0 61.1285 13.9215 851 162.278 1169.28 487.935
1104 0 62.1443 14.3537 892 164.528 1169.13 487.161
1105 0 65.4034 14.2806 934 164.565 1167.84 485.91
1106 0 68.2313 14.2603 973 163.935 1168.76 484.272
1107 0 69.2888 14.389 997 163.264 1168.77 483.069
1108 0 73.2542 14.1835 1039 163.819 1168.44 481.315
1109 0 74.2328 14.6566 1088 159.472 1169.42 479.627
1110 0 78.1745 14.6851 1148 159.25 1167.47 477.882
1111 0 79.2307 14.5651 1154 157.61 1167.92 476.682
1112 0 85.3514 14.1884 1211 162.05 1169.93 475.772
1113 0 87.1856 14.4405 1259 149.866 1168.32 474.65
1114 0 91.3436 13.9802 1277 153.295 1169.93 473.021
1115 0 94.1872 13.8341 1303 150.702 1168.9 471.64
1116 1 48.1881 12.5965 607 154.834 1169.11 493.993
1117 0 50.325 13.1147 660 146.583 1169.62 492.67
1118 0 52.2045 12.7958 668 151.296 1170.41 491.675
1119 0 53.2652 13.0855 697 148.369 1169.91 491.318
1120 0 53.2404 13.4297 715 149.698 1169.01 489.887
1121 0 58.2925 13.1406 766 149.537 1168.16 488.829
1122 0 60.143 13.5178 813 148.702 1167.38 487.768
1123 0 61.1726 13.5191 827 148.877 1168.82 487.137
1124 0 64.1888 13.4447 863 150.707 1166.89 485.686
1125 0 65.2198 13.4775 879 146.732 1166.86 484.726
1126 0 68.2426 13.5986 928 151.489 1170.7 483.863
1127 0 70.4723 13.5798 957 156.17 1170.15 482.702
1128 0 72.2457 13.2741 959 152.055 1168.2 482.229
1129 0 75.339 13.5255 1019 156.956 1167.35 480.503
1130 0 77.2294 13.6088 1051 154.992 1167.3 478.77
1131 0 80.2977 13.2133 1061 151.682 1168.19 477.65
1132 1 44.097 11.9736 528 152.826 1169.45 496.112
1133 0 45.0511 12.4081 559 150.893 1169.9 495.662
1134 0 47.0576 12.5591 591 148.359 1168.68 495.563
1135 0 49.1338 12.3744 608 152.709 1168.5 494.63
1136 0 50.1797 12.4552 625 150.568 1168.97 494.426
1137 0 51.0851 12.5085 639 152.343 1165.97 493.061
1138 0 52.3927 13.1507 689 150.135 1166.16 492.469
1139 0 55.1354 13.1495 725 150.15 1167.11 492.05
1140 0 55.092 12.942 713 146.909 1168.01 490.742
1141 0 58.268 13.129 765 143.888 1169.01 489.711
1142 0 58.1427 13.4497 782 148.522 1168.79 488.542
1143 0 62.1865 13.4917 839 139.408 1167.93 486.529
1144 0 65.1057 12.8867 839 146.638 1169.55 487.062
1145 0 65.1591 13.2138 861 144.931 1167.89 486.387
1146 0 70.1855 12.8944 905 146.096 1166.77 484.615
1147 0 70.3525 12.9491 911 140.296 1167.43 483.857
1148 0 72.3215 13.1773 953 142.992 1167.32 482.693
1149 1 40.0672 11.905 477 145.962 1169.12 498.675
1150 0 41.0367 12.4523 511 136.221 1168.02 497.916
1151 0 41.162 12.1957 502 136.904 1169.88 497.388
1152 0 43.1463 12.0288 519 136.721 1168.47 497.035
1153 0 44.1606 12.0469 532 141.192 1170.17 496.677
1154 0 46.1928 12.0581 557 138.061 1170.32 496.034
1155 0 46.1511 12.3074 568 137.641 1169.51 495.225
1156 0 48.199 12.6351 609 141.974 1169.52 494.603
1157 0 50.2056 12.3691 621 136.13 1170.49 494.201
1158 0 51.1392 12.5344 641 138.661 1170.48 493.521
1159 0 52.1559 12.7502 665 138.783 1169.33 492.899
1160 0 55.4478 12.6786 703 138.838 1170.15 491.983
1161 0 56.0928 12.7646 716 133.552 1168.27 490.284
1162 0 57.1248 13.0941 748 135.963 1169.65 489.356
1163 0 59.1828 12.8078 758 137 1171.02 488.966
1164 0 59.1828 12.8078 758 150.078 1172.02 488.966
1165 0 64.1293 13.2701 851 132.552 1169.79 487.19
1166 0 68.1892 12.9199 881 138.177 1168.47 485.78
1167 0 69.2115 13.4371 930 125.314 1169.94 484.145
1168 0 73.206 13.2776 972 139.913 1167.96 483.013
1169 0 74.0991 13.1446 974 137.921 1168.93 482.523
1170 0 77.1789 13.4493 1038 137.248 1171.68 480.566
1171 1 40.0424 11.5128 461 135.998 1170.18 499.536
1172 0 42.0261 11.5166 484 136.583 1168.85 498.438
1173 0 43.0267 12.4806 537 136.54 1170.01 497.22
1174 0 44.1018 12.5392 553 127.371 1170.31 496.723
1175 0 45.0783 12.9552 584 138.772 1169.6 496.223
1176 0 47.0812 12.5528 591 135.12 1168.94 495.846
1177 0 47.0936 13.1653 620 136.748 1169.13 495.016
1178 0 49.2855 13.4522 663 132.452 1168.62 494.364
1179 0 51.1351 13.083 669 138.979 1170.02 493.987
1180 0 53.0972 13.0139 691 134.415 1170.09 493.376
1181 0 54.0822 13.0912 708 136.737 1171.85 492.623
1182 0 56.1531 13.3741 751 138.766 1169.2 491.658
1183 0 58.1268 13.4706 783 136.28 1167.54 490.782
1184 0 59.071 13.5092 798 137.982 1171.91 490.541
1185 0 62.1607 13.4329 835 130.169 1171.03 488.925
1186 0 63.2094 13.9694 883 132.427 1170.79 487.702
1187 0 65.2106 13.9855 912 134.137 1170.84 486.826
1188 0 69.2442 13.4741 933 132.784 1170.82 486.538
1189 0 69.1034 13.9212 962 139.067 1170 485.006
1190 0 70.1622 14.324 1005 145.242 1167.91 483.826
1191 0 74.2976 13.5536 1007 148.127 1170.43 483.566
1192 0 76.2949 14.1294 1078 149.171 1169.85 482.072
1193 0 79.2219 14.3142 1134 140.224 1169.52 480.436
1194 0 82.1546 14.1197 1160 150.324 1169.42 478.408
1195 0 83.1959 14.0392 1168 159.051 1168.31 476.001
1196 0 88.2561 13.9141 1228 158.247 1169.18 474.313
1197 0 91.3553 13.5953 1242 161.874 1169.04 472.99
1198 0 94.2087 13.7567 1296 151.866 1170.47 470.977
1199 1 51.1556 13.3123 681 161.699 1171.16 491.931
1200 0 53.106 13.4825 716 154.707 1171.54 491.749
1201 0 55.2635 13.8066 763 147.637 1170.01 490.903
1202 0 57.1397 13.7558 786 153.118 1169.73 488.492
1203 0 59.0726 14.0166 828 150.362 1170.15 488.629
1204 0 61.0736 13.7048 837 142.888 1169.7 487.364
1205 0 61.0656 13.9358 851 151.382 1169.48 487.041
1206 0 64.1196 13.9739 896 145.305 1172.72 485.189
1207 0 68.1582 13.6154 928 148.091 1172.42 483.793
1208 0 68.3261 14.4893 990 142.731 1169.29 481.232
1209 0 71.2241 13.9138 991 152.93 1171.24 479.872
1210 0 73.2689 14.4127 1056 149.336 1171.06 478.57
1211 0 77.7645 14.6468 1139 148.907 1168.34 478.846
1212 0 78.3032 14.4822 1134 152.937 1171.23 476.645
1213 0 82.3718 14.2403 1173 147.184 1169.54 475.039
1214 0 84.3746 14.8267 1251 138.841 1170.88 473.062
1215 0 87.3237 14.2344 1243 146.808 1171.25 473.064
1216 0 92.357 14.4006 1330 153.012 1172.72 470.426
1217 0 94.3845 14.3668 1356 154.779 1171.13 470.364
1218 0 97.1625 14.3677 1396 151.66 1171.01 469.145
1219 0 102.284 14.2935 1462 166.884 1170.3 468.402
1220 1 55.2249 13.617 752 155.625 1169.14 490.566
1221 0 57.3442 13.7765 790 158.644 1168.64 489.287
1222 0 57.2224 13.9631 799 160.742 1169.11 488.731
1223 0 60.2511 14.0246 845 157.005 1170.65 488.122
1224 0 62.2683 14.2288 886 158.725 1170.53 486.81
1225 0 64.2546 14.2558 916 162.223 1169.2 485.826
1226 0 65.3244 14.65 957 159.804 1171.3 485.008
1227 0 69.5803 14.4581 1006 152.943 1171.46 484.31
1228 0 71.1714 14.5143 1033 157.4 1169.53 482.525
1229 0 73.522 14.0774 1035 155.67 1170.78 482.952
1230 0 75.3223 14.6039 1100 159.806 1169.72 481.225
1231 0 77.3249 14.4455 1117 159.041 1168.91 480.568
1232 0 80.4659 14.764 1188 151.762 1171.62 479.442
1233 0 83.3367 14.5794 1215 154.182 1168.32 477.727
1234 0 85.457 14.6858 1255 157.016 1169.59 476.638
1235 0 90.3525 14.5984 1319 157.4 1169.31 474.465
1236 0 93.2372 14.5436 1356 152.791 1171.27 473.766
1237 0 97.3472 14.4637 1408 149.192 1169.22 472.023
1238 0 100.332 14.6114 1466 159.253 1169.68 470.666
1239 1 55.2298 13.7245 758 158.871 1169.72 492.011
1240 0 58.2068 13.3318 776 153.758 1167.93 491.171
1241 0 59.3187 13.9585 828 159.388 1168.89 489.737
1242 0 59.3187 13.9585 828 172.481 1169.89 489.737
1243 0 63.2375 13.979 884 153.871 1170.42 487.575
1244 0 67.3144 13.5781 914 154.301 1173.06 486.708
1245 0 69.501 13.6257 947 156.61 1169.17 485.366
1246 0 71.3201 13.7268 979 150.314 1168.85 484.456
1247 0 73.3801 13.7912 1012 155.04 1169.22 483.682
1248 0 75.5332 13.7291 1037 152.049 1169.33 482.557
1249 0 76.305 14.3896 1098 153.311 1170.54 480.417
1250 0 81.3422 13.978 1137 158.185 1170.6 479.579
1251 0 83.4133 14.0385 1171 134.154 1169.22 477.547
1252 0 85.326 14.134 1206 151.229 1167.18 476.8
1253 0 90.2519 14.0163 1265 148.943 1169.27 475.157
1254 0 92.215 14.1734 1307 152.633 1168.22 473.664
1255 0 95.2796 14.2108 1354 155.417 1169.08 471.486
1256 0 98.2777 14.1538 1391 148.329 1167.92 469.544
1257 0 103.349 13.7495 1421 153.923 1169.68 468.675
1258 1 55.1602 12.4184 685 146.372 1168.11 491.914
1259 0 56.083 12.8381 720 146.378 1170.87 490.896
1260 0 58.1911 13.2666 772 139.718 1169.86 489.926
1261 0 58.2796 13.7269 800 145.715 1169.31 489.041
1262 0 62.0648 13.1476 816 142.69 1169.55 489.13
1263 0 63.1544 13.5858 858 141.309 1170.19 487.589
1264 0 66.101 13.434 888 144.563 1171.51 485.997
1265 0 67.114 13.857 930 27.1505 1169.85 484.774
1266 0 71.4223 13.8472 989 141.89 1170.45 484.014
1267 0 74.1348 13.5834 1007 138.666 1170.01 483.254
1268 0 76.3518 13.6212 1040 133.437 1170.19 482.135
1269 0 76.1809 14.2162 1083 135.389 1170.57 481.156
1270 0 81.1802 13.5747 1102 132.036 1169.49 479.177
1271 0 82.1475 14.0479 1154 137.206 1170.13 478.325
1272 0 87.1775 13.6159 1187 136.152 1168.87 476.273
1273 1 45.1023 11.0416 498 13.6506 1171.04 496.843
1274 0 47.0786 12.0437 567 133.834 1168.65 495.589
1275 0 49.0242 12.8508 630 131.932 1172.36 495.44
1276 0 50.0203 12.9347 647 133.756 1171.93 494.872
1277 0 52.158 12.8072 668 132.909 1172.17 494.085
1278 0 54.0801 12.6294 683 137.534 1171.95 494.379
1279 0 53.1483 13.6411 725 123.931 1170.23 492.63
1280 0 55.0877 13.1064 722 133.976 1169.65 492.051
1281 0 59.0184 13.3518 788 133.579 1170.38 491.475
1282 0 59.0343 13.1618 777 127.248 1171.15 491.008
1283 0 61.078 13.2454 809 131.633 1170.27 490.283
1284 0 61.1009 13.7478 840 134.077 1170.65 488.882
1285 0 63.0291 13.6286 859 134.672 1170.6 487.698
1286 0 67.0968 13.8755 931 136.136 1170.63 486.892
1287 0 68.2189 13.5153 922 130.548 1171.64 485.51
1288 0 71.1751 13.6986 975 137.609 1171.8 484.623
1289 0 71.1034 14.2609 1014 138.866 1171.36 483.324
1290 0 73.1092 14.4441 1056 139.983 1170.5 481.43
1291 0 77.129 14.0414 1083 139.006 1170.65 480.097
1292 0 80.1425 14.2371 1141 136.167 1169.14 479.273
1293 0 83.1337 14.2181 1182 140.782 1169.73 478.233
1294 0 86.1453 13.663 1177 140.636 1169.7 477.035
1295 0 88.0943 13.8147 1217 142.168 1169.59 475.756
1296 0 91.1876 13.7299 1252 147.351 1170.25 474.186
1297 0 95.0802 13.8304 1315 149.366 1169.51 472.794
1298 0 98.0882 14.0384 1377 149.744 1168.2 470.988
1299 1 53.154 12.1722 647 151.913 1170.52 493.213
1300 0 54.0573 12.7642 690 148.242 1169.34 492.564
1301 0 58.0606 12.797 743 145.281 1170.62 491.384
1302 0 57.0581 13.4775 769 149.527 1170.3 491.177
1303 0 60.1202 12.8908 775 146.966 1171.12 489.84
1304 0 63.0483 12.8949 813 153.706 1169.99 489.089
1305 0 64.1603 12.6402 811 150.854 1168.58 488.239
1306 0 67.0916 13.0121 873 149.274 1169.36 485.832
1307 0 69.0555 13.2357 914 147.495 1170.34 484.885
1308 0 72.1312 12.7823 922 148.576 1168.86 483.778
1309 0 74.0822 13.242 981 142.347 1170.58 481.784
1310 0 76.1043 13.0873 996 150.473 1170.28 481.345
1311 0 79.1271 13.1561 1041 153.087 1170.83 479.949
1312 0 80.0658 13.2516 1061 139.401 1170.68 477.226
1313 0 83.2265 13.5414 1127 149.208 1170.47 476.86
1314 0 88.2878 13.0596 1153 148.755 1170.86 476.153
1315 1 48.0238 11.4735 551 145.59 1169.75 495.381
1316 0 49.0379 11.4197 560 152.58 1170.14 496.057
1317 0 52.0517 11.6999 609 151.025 1169.73 494.98
1318 0 53.0695 12.2293 649 145.422 1171.46 493.361
1319 0 54.0905 12.553 679 148.976 1168.64 492.756
1320 0 56.2004 13.007 731 149.089 1168.08 492.114
1321 0 58.2293 12.571 732 154.029 1169.74 490.742
1322 0 60.1465 13.118 789 150.132 1168.26 490.022
1323 0 60.1195 12.9409 778 146.593 1167.15 490.066
1324 0 63.206 13.543 856 153.759 1168.38 488.36
1325 0 67.174 12.8323 862 152.621 1169.71 487.818
1326 0 67.1314 13.2576 890 142.248 1170.36 486.382
1327 0 68.2086 13.5174 922 153.636 1169.54 485.004
1328 0 72.1715 13.3017 960 149.653 1168.85 483.832
1329 0 74.1725 13.4686 999 153.194 1170.44 483.447
1330 0 75.1466 13.2807 998 144.862 1168.86 481.196
1331 0 80.2048 13.1164 1052 151.102 1168.12 480.051
1332 0 82.229 13.28 1092 148.331 1170.04 479.5
1333 0 85.1343 13.3789 1139 153.495 1170.31 478.072
1334 0 87.1466 13.4486 1172 147.968 1169.69 475.239
1335 0 90.1787 13.5841 1225 152.843 1171.1 474.426
1336 0 92.1484 13.8581 1277 151.096 1170.45 473.642
1337 0 97.121 13.4266 1304 152.626 1168.43 471.724
1338 0 97.3704 14.0905 1372 148.69 1171.11 470.007
1339 0 102.343 13.4352 1375 152.519 1168.45 468.537
1340 1 55.2263 11.8965 657 147.918 1168.49 490.865
1341 0 57.1216 12.3771 707 149.84 1169.37 490.185
1342 0 61.2573 12.2924 753 143.599 1169.65 488.374
1343 0 63.0693 12.5418 791 147.547 1169.94 487.855
1344 0 64.1111 12.8995 827 147.688 1171.6 486.866
1345 0 67.1258 13.0948 879 146.524 1171.67 485.639
1346 0 68.0929 13.7606 937 142.959 1171.58 484.185
1347 0 70.136 13.5308 949 146.439 1170.42 483.711
1348 0 74.1595 13.3496 990 140.167 1170.83 482.077
1349 0 75.0518 13.6706 1026 137.617 1170.1 481.282
1350 0 78.102 13.3543 1043 145.433 1172.04 480.516
1351 0 79.0442 13.562 1072 144.471 1169.33 479.039
1352 0 82.0662 13.8303 1135 137.259 1168.94 477.402
1353 0 85.0807 14.3158 1218 139.693 1167.73 475.825
1354 0 88.0941 13.8261 1218 143.496 1171.18 475.108
1355 0 92.1635 13.845 1276 143.607 1172.82 472.721
1356 0 94.0807 13.8817 1306 141.579 1170.83 472.035
1357 0 97.1278 13.961 1356 140.129 1169.29 470.055
1358 0 101.13 13.7051 1386 140.08 1169.42 469.303
1359 0 104.203 14.0591 1465 142.537 1171.13 467.712
1360 0 108.107 13.7919 1491 139.148 1168.71 465.144
1361 0 112.104 13.7462 1541 143.446 1169.95 464.305
1362 0 116.117 14.1754 1646 142.163 1172.65 462.589
1363 1 59.0478 12.2274 722 136.082 1171.56 490.136
1364 0 62.0283 12.1396 753 132.378 1171.45 489.267
1365 0 63.0823 12.5075 789 137.687 1170.48 488.982
1366 0 65.0403 12.2693 798 140.099 1171.43 488.058
1367 0 65.0979 13.3645 870 133.817 1169.43 487.052
1368 0 69.0854 13.2445 915 131.467 1169.46 485.426
1369 0 71.1921 13.0211 927 137.517 1170.57 484.759
1370 0 73.055 13.045 953 21.7398 1169.14 482.643
1371 0 77.0739 13.247 1021 139.924 1170.23 481.282
1372 0 78.0856 13.3315 1041 135.167 1171.35 480.298
1373 0 81.058 13.0771 1060 135.707 1172.35 479.4
1374 0 83.11 13.1873 1096 137.932 1170.94 478.651
1375 0 87.1576 13.1945 1150 139.9 1169.24 476.335
1376 0 90.1494 13.4665 1214 141.655 1172.05 475.509
1377 0 94.1592 13.5303 1274 141.76 1170.93 473.228
1378 0 96.0864 13.3422 1282 137.155 1171.55 471.846
1379 0 100.116 13.2646 1328 142.16 1170.61 470.875
1380 1 55.0545 12.0789 665 132.361 1173.26 492.25
1381 0 57.2323 12.6502 724 141.536 1171.35 491.576
1382 0 59.0681 13.1035 774 133.152 1170.63 490.846
1383 0 60.0714 12.9013 775 141.021 1172.82 489.625
1384 0 62.116 13.0884 813 135.601 1171.58 488.533
1385 0 64.1081 13.1497 843 139.675 1172.59 488.439
1386 0 66.0629 13.3055 879 137.857 1173.1 486.835
1387 0 69.0708 13.421 927 136.274 1173.69 485.893
1388 0 71.1032 12.6155 897 137.312 1171.4 485.175
1389 0 70.0958 13.2105 926 137.915 1172.29 484.165
1390 0 75.1322 12.9372 972 136.933 1171.24 482.96
1391 0 77.1428 13.0407 1006 132.007 1172.79 482.162
1392 0 77.2206 13.0535 1008 133.939 1171.56 482.003
1393 0 81.2095 13.1019 1064 135.829 1172.41 479.816
1394 0 82.2141 13.3189 1095 138.491 1171.12 478.309
1395 0 84.2848 13.5018 1138 141.84 1171.41 477.144
1396 0 87.2185 12.8986 1125 135.194 1171.82 476.583
1397 0 91.2109 13.562 1237 137.15 1171.24 474.272
1398 0 96.2306 13.5924 1308 136.606 1172.74 472.358
1399 0 97.1397 13.846 1345 139.68 1172.3 471.259
1400 1 52.1375 11.5656 603 141.088 1173.77 493.476
1401 0 55.2604 11.0386 610 141.164 1172.98 492.352
1402 0 57.0839 12.07 689 140.103 1173.36 491.112
1403 0 60.0655 12.1534 730 142.737 1172.02 489.775
1404 0 61.0576 12.4636 761 137.078 1171.76 489.009
1405 0 63.2417 12.7606 807 132.739 1172.46 487.885
1406 0 63.0485 13.1169 827 131.444 1171.02 486.493
1407 0 67.131 12.9448 869 134.46 1170.93 486.047
1408 0 70.0436 12.892 903 130.656 1170.21 484.78
1409 0 72.135 12.9202 932 136.427 1170.42 483.39
1410 0 73.079 13.5333 989 138.29 1171.03 482.412
1411 0 77.1882 13.3051 1027 139.989 1172.9 481.303
1412 0 79.0415 13.107 1036 134.519 1171.15 480.443
1413 0 82.1236 13.9424 1145 130.427 1173.3 480.25
1414 0 86.1064 13.8201 1190 128.74 1171.39 478.746
1415 0 89.1537 13.673 1219 131.5 1172.95 477.227
1416 0 93.1575 13.7509 1281 128.979 1171.77 476.063
1417 0 96.141 13.9275 1339 131.006 1170.55 474.066
1418 0 100.124 13.6731 1369 128.83 1170.16 473.345
1419 0 101.173 14.2232 1439 134.87 1170.41 470.782
1420 0 106.191 14.3327 1522 132.42 1169.64 468.66
1421 1 56.0989 12.7453 715 135.509 1170.58 491.39
1422 0 60.1072 13.0101 782 128.868 1170.08 491.072
1423 0 61.1974 13.3502 817 131.454 1171.64 490.437
1424 0 62.1846 13.3313 829 138.001 1171.44 489.374
1425 0 66.1064 13.327 881 135.221 1170.04 488.578
1426 0 67.1123 14.4087 967 131.261 1173.27 486.598
1427 0 71.2268 13.7308 978 140.514 1171.42 485.842
1428 0 71.2268 13.7308 978 172.597 1169.42 485.842
1429 0 73.3479 14.0699 1032 138.82 1171.51 482.67
1430 0 75.2594 14.4301 1086 131.047 1170.33 481.433
1431 0 79.2703 14.6966 1165 135.664 1171.04 480.805
1432 0 80.2379 14.4944 1163 136.361 1169.95 478.892
1433 0 85.3539 16.3554 1396 134.886 1170.69 476.08
1434 0 87.2659 14.7251 1285 131.948 1173.35 476.227
1435 0 89.2765 14.4831 1293 141.002 1172.77 474.756
1436 0 94.2445 14.526 1369 141.354 1173.64 473.454
1437 0 97.173 14.9527 1453 144.721 1172.05 471.423
1438 0 100.271 14.7101 1475 142.847 1172.22 469.585
1439 0 101.178 15.0429 1522 143.619 1171.01 468.093
1440 0 107.292 14.8846 1597 146.158 1172.32 466.1
1441 0 108.26 14.9085 1614 152.436 1172.14 465.738
1442 0 112.329 14.6801 1649 156.086 1170.65 464.051
1443 0 115.311 14.6733 1692 154.833 1171.08 461.339
1444 0 119.224 14.7286 1756 154.214 1173.6 459.932
1445 0 122.284 14.9734 1831 155.79 1171.31 458.166
1446 0 126.29 14.9972 1894 152.308 1172.18 456.247
1447 0 132.165 14.9812 1980 154.716 1174.24 453.101
1448 0 136.249 15.024 2047 153.805 1172.33 450.517
1449 0 140.245 15.2305 2136 152.768 1175.33 448.277
1450 0 146.18 14.9405 2184 150.262 1172.99 445.711
1451 1 80.037 12.6816 1015 151.365 1171.31 480.322
1452 0 83.1519 13.7219 1141 147.498 1171.68 478.769
1453 0 86.1322 13.1078 1129 152.796 1171.61 477.347
1454 0 88.2014 13.8773 1224 150.284 1173.37 475.381
1455 0 93.2031 13.5618 1264 144.068 1172.5 474.249
1456 0 96.1164 13.5149 1299 148.473 1171.36 472.949
1457 0 99.2634 14.0434 1394 147.989 1172.55 470.73
1458 0 102.167 13.6834 1398 143.872 1171.87 470.417
1459 0 106.208 13.756 1461 155.021 1171 469.059
1460 0 109.213 13.936 1522 151.716 1170.11 466.754
1461 0 113.222 13.9726 1582 152.41 1171.3 464.284
1462 0 117.193 13.9429 1634 155.735 1171.69 462.574
1463 0 121.146 13.6529 1654 153.493 1171.3 460.54
1464 0 125.226 13.7591 1723 155.342 1170.58 459.054
1465 0 130.24 14.2429 1855 152.468 1170.53 455.735
1466 1 70.1552 13.0425 915 147.91 1171.71 485.339
1467 0 72.1292 13.2956 959 151.194 1172.56 484.699
1468 0 76.227 13.5516 1033 140.047 1172.46 482.87
1469 0 79.1362 13.3315 1055 149.194 1173.26 481.626
1470 0 80.1885 13.7426 1102 148.407 1172.97 480.612
1471 0 83.2268 13.8657 1154 145.964 1171.91 478.444
1472 0 86.0953 13.4038 1154 147.908 1171.87 477.69
1473 0 87.3586 14.2402 1244 145.408 1170.99 476.485
1474 0 91.4341 14.4366 1320 141.922 1171.62 474.807
1475 0 93.2517 14.0802 1313 144.957 1173.03 473.912
1476 0 96.2553 14.1914 1366 142.511 1172.08 471.775
1477 0 98.3527 14.1328 1390 141.069 1172.44 470.455
1478 0 103.229 14.2887 1475 139.939 1171.22 468.519
1479 0 105.213 14.4469 1520 146.229 1171.73 467.382
1480 0 107.35 14.2804 1533 149.25 1172.49 466.771
1481 0 111.318 14.1127 1571 138.763 1172.44 465.185
1482 0 114.381 14.2944 1635 140.583 1169.37 462.311
1483 0 117.491 14.5884 1714 135.237 1171.67 460.686
1484 0 121.483 14.6275 1777 138.494 1170.96 459.773
1485 0 123.401 14.4408 1782 140.917 1171.72 458.712
1486 0 128.414 14.2197 1826 138.336 1170.46 456.094
1487 0 131.243 14.4465 1896 138.513 1170.33 453.922
1488 0 137.251 14.754 2025 140.458 1170.63 450.937
1489 0 140.307 14.7391 2068 150.476 1170.32 449.231
1490 0 144.236 14.6773 2117 143.74 1170.47 446.58
1491 0 149.468 14.6787 2194 146.786 1170.76 444.326
1492 0 154.43 14.4467 2231 148.399 1169.56 441.71
1493 0 158.713 14.668 2328 140.135 1170.65 439.732
1494 0 165.445 14.4277 2387 145.744 1171.97 437.726
1495 0 172.436 15.1592 2614 150.938 1171.48 435.605
1496 0 178.354 14.8469 2648 144.725 1171.46 431.824
1497 0 183.809 14.9775 2753 149.704 1172.52 428.591
1498 0 191.454 14.7607 2826 142.915 1171.77 424.811
1499 0 196.358 14.7689 2900 149.747 1171.44 423.101
1500 0 203.52 14.829 3018 145.636 1170.59 418.31
1501 0 210.419 15.1175 3181 147.028 1172.86 415.81
1502 0 214.379 14.9455 3204 148.714 1172.36 413.954
1503 0 223.307 14.966 3342 152.379 1172.51 410.2
1504 1 167.295 14.3399 2399 158.119 1172.64 437.363
1505 0 173.312 14.6037 2531 158.368 1172.64 434.336
1506 0 179.246 14.4494 2590 158.714 1173.6 431.758
1507 0 184.308 14.3347 2642 149.531 1172.58 428.64
1508 0 192.417 14.6764 2824 157.22 1170.83 424.659
1509 0 199.408 14.5481 2901 155.366 1172.22 421.409
1510 0 205.373 15.1042 3102 141.997 1172.13 415.718
1511 0 212.359 15.0265 3191 155.028 1169.96 412.366
1512 0 219.401 15.1686 3328 149.258 1171.66 408.067
1513 0 228.372 15.1376 3457 144.226 1171.54 404.187
1514 0 234.594 14.9066 3497 149.739 1171.52 400.321
1515 0 244.336 15.2618 3729 145.626 1171.38 394.501
1516 1 73.0395 13.0888 956 137.659 1173.76 484.154
1517 0 73.1059 13.2 965 136.155 1173.52 483.319
1518 0 78.2059 12.9786 1015 137.958 1173.89 481.616
1519 0 79.2687 13.2966 1054 135.043 1171.84 480.98
1520 0 82.235 13.1452 1081 132.32 1171.91 479.463
1521 0 86.4246 12.9477 1119 136.693 1170.11 478.102
1522 1 48.2199 11.7586 567 133.384 1172.23 497.43
1523 0 49.0656 12.5954 618 131.605 1172.36 496.146
1524 0 51.1418 12.6315 646 127.966 1171.34 495.517
1525 0 53.0943 12.8827 684 126.159 1172.32 494.958
1526 0 55.1315 12.7151 701 130.465 1172.91 494.21
1527 0 56.1439 12.557 705 132.824 1172.6 494.241
1528 0 58.0505 12.9715 753 134.752 1172.22 492.701
1529 0 60.3205 13.1962 796 123.432 1170.04 491.717
1530 0 61.4216 13.2364 813 133.675 1170.3 491.534
1531 0 63.2636 13.3884 847 124.978 1169.96 489.597
1532 0 65.2536 13.3479 871 134.045 1169.97 488.518
1533 0 69.0501 13.5554 936 129.744 1173.77 486.76
1534 0 69.2657 14.0329 972 123.741 1173.56 485.739
1535 0 71.3948 13.6845 977 133.023 1173.47 485.804
1536 0 73.0862 13.0804 956 128.145 1172.34 482.999
1537 0 76.2957 13.5656 1035 135.576 1171.56 483.334
1538 0 79.4245 13.4971 1072 126.521 1171.26 480.365
1539 0 80.3166 13.4219 1078 123.344 1170.75 479.182
1540 0 83.3191 13.6223 1135 126.516 1171.49 478.67
1541 0 86.1928 13.609 1173 128.564 1172.57 477.506
1542 0 89.4897 13.4317 1202 129.716 1173.01 475.686
1543 0 91.4042 13.8396 1265 125.191 1170.84 473.877
1544 0 95.4165 13.6559 1303 126.069 1171.34 472.588
1545 0 96.4078 13.8785 1338 129.659 1170.36 471.349
1546 0 102.794 13.6195 1400 128.084 1171.13 469.434
1547 0 105.649 13.649 1442 131.843 1172.85 467.325
1548 1 63.2039 11.9613 756 125.651 1171.79 488.307
1549 0 65.2822 12.3311 805 130.024 1171.49 486.697
1550 0 67.4469 12.0836 815 126.201 1170.59 484.454
1551 0 70.3784 12.4754 878 129.027 1171.88 483.802
1552 0 72.319 12.03 870 122.843 1171.58 483.377
1553 0 73.3428 12.3666 907 129.365 1170.95 480.623
1554 0 76.4314 12.5864 962 126.046 1171.23 479.932
1555 0 77.7155 12.6358 982 127.291 1169.92 479.085
1556 0 80.4113 13.1822 1060 126.683 1171.08 481.675
1557 0 81.6918 13.1102 1071 123.703 1171.69 478.109
1558 0 86.4025 12.9742 1121 128.774 1170.07 477.187
1559 0 88.4314 13.0723 1156 124.639 1169.99 475.203
1560 0 91.3935 12.8674 1176 122.323 1168.94 474.511
1561 0 95.3294 12.7243 1213 132.138 1167.93 472.655
1562 0 96.3764 12.7832 1232 129.202 1169.49 472.017
1563 0 101.271 12.8664 1303 128.245 1170.07 470.249
1564 0 104.175 12.911 1345 132.3 1171.16 470.134
1565 0 108.387 13.4518 1458 121.912 1169.85 467.755
1566 0 111.271 13.4446 1496 129.563 1169.66 466.218
1567 0 114.264 13.1538 1503 126.164 1169.52 464.021
1568 0 118.414 13.4781 1596 128.986 1168.5 461.1
1569 1 67.2915 11.6359 783 125.803 1169.67 486.429
1570 0 71.2499 12.1825 868 124.874 1170.53 484.862
1571 0 71.2041 12.3588 880 122.723 1167.91 483.903
1572 0 75.1698 12.6913 954 129.328 1169.2 485.374
1573 0 77.4209 12.4256 962 127.835 1167.44 484.238
1574 0 81.1584 12.7528 1035 128.682 1168.29 482.079
1575 0 82.1907 12.69 1043 125.641 1169.98 481.228
1576 0 84.1692 12.76 1074 135.099 1169.46 479.575
1577 0 87.1574 13.1142 1143 133.444 1168.6 478.659
1578 0 90.1021 13.174 1187 137.459 1167.63 476.39
1579 0 94.2524 12.7742 1204 129.217 1169.05 475.759
1580 0 99.1888 12.6829 1258 126.634 1166.74 473.782
1581 0 102.231 13.0097 1330 127.724 1166.69 472.065
1582 0 105.241 13.0082 1369 129.422 1167.25 471.265
1583 0 108.313 12.8793 1395 131.271 1168.22 469.136
1584 1 58.2422 11.5895 675 130.616 1168.56 494.166
1585 0 59.157 11.7653 696 130.674 1166.71 493.405
1586 0 61.1202 12.8599 786 133.622 1167.91 491.047
1587 0 62.2242 12.6478 787 131.405 1168.08 490.7
1588 0 64.1455 12.8926 827 132.186 1168.45 489.481
1589 0 66.1625 13.089 866 126.296 1167.75 488.964
1590 0 68.0966 12.82 873 132.472 1167.99 489.112
1591 0 71.4955 13.1757 942 125.919 1167.92 486.486
1592 0 72.2031 12.9911 938 131.014 1166.23 486.515
1593 0 76.29 13.0948 999 126.783 1167.54 485.18
1594 0 78.0811 13.6781 1068 125.057 1166.28 483.67
1595 0 81.2128 14.4682 1175 120.261 1167.91 481.394
1596 0 84.1858 13.9453 1174 123.321 1167.68 481.162
1597 0 86.1682 13.6245 1174 129.841 1167.37 480.369
1598 0 89.2876 13.5069 1206 131.741 1167.13 479.705
1599 0 91.295 15.0939 1378 119.983 1170.49 476.218
1600 0 94.5312 13.9425 1318 126.824 1170.87 476.363
1601 0 98.2697 13.7377 1350 133.425 1170.3 474.64
1602 0 102.247 13.8586 1417 129.526 1170.1 472.642
1603 0 106.42 13.6816 1456 128.956 1168.38 471.777
1604 0 109.452 13.7229 1502 131.836 1170.87 470.198
1605 0 112.349 14.3126 1608 125.973 1169.04 468.43
1606 0 117.358 13.9743 1640 125.816 1169.99 467.001
1607 0 120.272 13.6939 1647 124.716 1172.29 464.835
1608 1 62.0929 12.9483 804 131.905 1170.73 491.842
1609 0 63.2347 13.6476 863 128.175 1170.2 491.526
1610 0 65.2891 13.7389 897 128.06 1169.41 489.414
1611 0 67.2169 13.4936 907 131.273 1169.53 489.257
1612 0 71.2528 13.6696 974 131.378 1170.32 488.592
1613 0 74.2675 13.6533 1014 129.83 1170 473.218
1614 0 76.1597 13.6161 1037 124.947 1169.3 472.296
1615 0 79.2767 13.9007 1102 123.832 1172.02 470.96
1616 0 80.2391 14.2574 1144 130.006 1170.83 470.492
1617 0 84.4133 14.1565 1195 123.119 1169.96 469.049
1618 0 86.3154 14.3891 1242 120.398 1171.75 470.037
1619 0 91.2381 14.0402 1281 130.456 1172.38 470.122
1620 0 92.3773 14.4408 1334 123.58 1170.52 468.702
1621 0 96.3187 14.0056 1349 112.347 1170.7 469.231
1622 0 98.6351 14.4472 1425 117.495 1172.9 469.093
1623 0 103.436 14.1054 1459 120.519 1172.09 468.625
1624 1 54.1487 13.8323 749 123.915 1174.83 494.06
1625 0 57.6155 13.4165 773 123.119 1172.9 492.821
1626 0 58.4651 14.2307 832 123.058 1171.62 491.84
1627 0 61.3775 13.7673 845 124.111 1170.82 491.012
1628 0 61.3279 14.2839 876 10.4863 1170.66 489.787
1629 0 63.2963 14.2978 905 118.977 1172.5 489.266
1630 0 71.2322 17.3517 1236 103.752 1172.39 483.846
1631 0 71.3221 16.8391 1201 104.637 1172.88 483.572
1632 0 72.2295 16.2399 1173 109.247 1171.99 483.431
1633 0 72.4441 14.5215 1052 118.16 1170.93 484.271
1634 0 74.5236 14.8409 1106 114.876 1170.62 482.895
1635 0 76.2442 14.7028 1121 108.533 1171.74 482.12
1636 0 79.4468 14.3996 1144 119.506 1170.56 480.54
1637 0 81.3184 14.5109 1180 116.123 1171.61 479.464
1638 0 85.413 14.7519 1260 112.102 1168.68 477.994
1639 0 89.2912 14.2231 1270 112.491 1170.88 476.281
1640 0 91.3011 14.1729 1294 110.747 1170.5 476.08
1641 0 94.2897 14.5191 1369 112.822 1170.67 474.684
1642 0 98.374 14.2009 1397 109.657 1170.19 473.232
1643 0 102.335 14.7066 1505 109.842 1171.46 470.864
1644 0 105.201 14.3154 1506 112.417 1174.84 469.726
1645 0 107.183 14.5919 1564 113.708 1171.15 468.198
1646 1 58.2775 12.5263 730 120.19 1173.11 491.478
1647 0 60.1565 13.149 791 116.511 1175.05 490.925
1648 0 62.1602 13.6904 851 115.342 1173.41 489.633
1649 0 65.2087 13.7865 899 112.675 1172.28 488.825
1650 0 67.2828 13.9709 940 113.511 1172.41 487.716
1651 0 68.2535 14.1238 964 111.795 1171.41 486.526
1652 0 70.4903 14.995 1057 114.346 1173.87 484.488
1653 0 74.1584 14.0645 1043 115.084 1171.58 482.874
1654 0 77.1744 14.4867 1118 112.475 1174.11 482.233
1655 0 79.3297 14.5469 1154 114.672 1171.41 480.289
1656 0 82.1686 14.4094 1184 113.748 1172.81 479.394
1657 0 85.2326 14.349 1223 119.446 1173.76 477.926
1658 0 89.2213 14.6714 1309 117.419 1173.55 476.332
1659 0 90.2472 14.837 1339 118.596 1173.22 474.987
1660 0 95.2018 14.8212 1411 120.68 1172.72 473.264
1661 0 98.2362 14.6586 1440 119.459 1170 471.493
1662 0 101.256 14.2905 1447 117.593 1172.47 469.274
1663 0 104.208 14.6821 1530 119.937 1173.73 469.342
1664 0 107.222 14.8571 1593 118.823 1173.06 466.872
1665 0 112.311 14.7359 1655 116.369 1174.14 464.625
1666 0 117.365 14.9448 1754 114.342 1173.45 462.845
1667 0 121.25 14.6556 1777 114.487 1174.38 461.153
1668 0 125.144 14.6552 1834 118.527 1172.38 458.972
1669 1 71.1444 13.564 965 119.75 1170.24 485.374
1670 0 73.0747 13.9173 1017 115.431 1171.23 483.77
1671 0 76.1613 13.6946 1043 118.042 1171.25 482.454
1672 0 78.2246 13.7297 1074 119.351 1171.77 481.949
1673 0 80.1798 13.9437 1118 118.524 1171.74 480.304
1674 0 83.0638 13.8448 1150 117.588 1171.73 479.151
1675 0 86.0274 14.1234 1215 115.884 1171.72 477.067
1676 0 88.1446 13.9203 1227 117.61 1173.53 475.588
1677 0 90.2786 14.1562 1278 121.803 1171.38 475.192
1678 0 94.1332 14.1395 1331 120.315 1168.77 473.6
1679 0 97.292 14.2149 1383 121.91 1169.87 472.107
1680 0 101.338 14.4862 1468 123.458 1169.09 469.739
1681 0 104.461 14.1105 1474 126.512 1169.1 468.11
1682 0 107.141 14.3923 1542 121.999 1170.66 466.244
1683 0 110.052 14.3386 1578 125.996 1169.64 465.375
1684 0 114.22 14.6472 1673 123.382 1169.71 463.17
1685 0 116.154 14.6874 1706 127.648 1168.38 461.3
1686 0 122.186 14.4615 1767 126.989 1171.46 459.568
1687 0 127.282 14.409 1834 123.902 1172.45 457.15
1688 1 72.0747 12.7923 922 123.037 1168.93 484.82
1689 0 74.1085 13.1564 975 121.659 1171.47 483.385
1690 0 75.1137 13.4063 1007 125.807 1170.18 482.147
1691 0 78.0761 13.2819 1037 124.602 1168.92 481.404
1692 0 80.0586 13.3652 1070 124.25 1171.06 479.668
1693 0 82.1586 13.7174 1127 126.862 1170.53 478.85
1694 0 85.1645 13.7029 1167 125.807 1170.63 477.451
1695 0 88.2791 13.4233 1185 125.749 1170.73 475.571
1696 0 93.2296 13.4828 1257 128.576 1171.09 474.105
1697 0 94.1766 13.9738 1316 126.546 1171.87 472.727
1698 0 98.213 14.0205 1377 128.463 1170.37 470.765
1699 0 100.161 14.3669 1439 127.768 1172.21 468.887
1700 0 104.291 13.7021 1429 142.377 1171.84 467.381
1701 0 107.186 13.9757 1498 132.276 1170.84 465.633
1702 0 111.213 14.4947 1612 141.374 1169.41 464.105
1703 0 112.238 14.1574 1589 138.824 1170.3 462.413
1704 0 118.262 14.0367 1660 136.245 1170.35 460.268
1705 0 121.257 14.4404 1751 135.624 1169.26 458.687
1706 0 125.203 14.3527 1797 136.39 1170.12 456.548
1707 0 129.088 14.463 1867 128.791 1171.15 454.54
1708 0 133.181 14.3038 1905 131.744 1171.22 452.438
1709 0 135.328 14.7568 1997 135.158 1170.15 450.972
1710 0 140.392 14.78 2075 135.817 1170.64 447.928
1711 0 144.273 15.1518 2186 135.607 1169.83 445.408
1712 0 150.521 14.6358 2203 127.498 1169.72 443.897
1713 0 155.21 14.7155 2284 137.845 1169.98 441.009
1714 0 159.206 14.5221 2312 138.434 1170.99 438.529
1715 0 166.431 14.4384 2403 139.655 1169.51 436.246
1716 0 171.308 14.6052 2502 139.642 1169.34 432.562
1717 0 179.37 14.6736 2632 137.218 1169.36 429.743
1718 1 106.1 13.6381 1447 141.105 1167.39 465.724
1719 0 108.266 13.6146 1474 140.579 1169.18 465.05
1720 0 113.205 13.5242 1531 130.892 1168.46 462.968
1721 0 116.353 13.5707 1579 133.631 1168.44 460.528
1722 0 120.55 13.5545 1634 138.899 1168.06 458.475
1723 0 122.321 13.342 1632 141.885 1168.94 456.721
1724 0 127.476 13.9947 1784 135.728 1167.3 453.976
1725 0 131.414 13.6667 1796 137.475 1167.78 452.229
1726 0 135.445 13.6292 1846 137.796 1168.6 449.764
1727 0 140.585 13.6714 1922 131.751 1169.28 447.912
1728 0 145.377 13.9912 2034 133.664 1168.03 445.241
1729 0 148.525 13.8092 2051 130.405 1168.93 442.144
1730 1 83.3998 11.8585 989 127.193 1167.54 476.833
1731 0 86.3983 12.3035 1063 127.355 1171.39 476.611
1732 0 87.4327 12.421 1086 121.262 1168.52 474.829
1733 0 91.3488 12.3592 1129 126.297 1170.57 473.205
1734 0 92.319 13.0417 1204 125.959 1170.78 471.809
1735 0 95.3002 12.9381 1233 129.902 1170.66 470.526
1736 0 99.4742 13.1893 1312 131.678 1170.34 468.613
1737 0 102.358 13.0424 1335 126.441 1171.44 467.097
1738 0 106.313 12.9994 1382 139.826 1169.56 465.284
1739 0 109.238 12.9992 1420 139.501 1168.66 463.863
1740 0 111.297 13.4684 1499 137.478 1169.92 462.492
1741 0 114.35 13.1176 1500 135.492 1169.73 460.565
1742 0 116.452 13.4476 1566 131.762 1170.5 458.585
1743 0 120.429 12.9371 1558 134.381 1169.65 457.571
1744 0 123.266 13.6047 1677 134.987 1168.47 455.087
1745 0 128.249 13.544 1737 133.592 1170.72 452.2
1746 0 132.382 13.2647 1756 137.388 1171.69 451.216
1747 0 137.577 13.2071 1817 134.516 1172.26 448.549
1748 0 140.443 13.2723 1864 129.871 1169.03 445.911
1749 0 147.415 13.4789 1987 131.475 1169.4 443.125
1750 1 87.3684 11.938 1043 129.552 1169.92 473.995
1751 0 88.3693 12.2328 1081 132.779 1170.04 473.636
1752 0 92.318 12.3811 1143 126.563 1169.94 473.229
1753 0 95.1558 13.0628 1243 128.8 1169.66 470.841
1754 0 98.1605 12.6018 1237 127.381 1170.16 470.303
1755 0 101.184 12.7885 1294 130.951 1170.29 468.212
1756 0 104.296 12.8672 1342 123.206 1168.03 466.491
1757 0 109.235 12.7523 1393 124.437 1167.61 464.312
1758 0 111.187 12.6453 1406 127.905 1168.07 463.026
1759 0 114.349 12.8379 1468 125.655 1171.61 461.976
1760 0 116.397 12.8526 1496 128.834 1169.11 459.919
1761 0 120.364 12.8859 1551 125.835 1170.46 457.139
1762 0 123.362 12.9375 1596 130.072 1171 455.682
1763 0 128.456 12.6814 1629 129.441 1170.59 454.692
1764 0 130.154 13.3995 1744 128.759 1170.15 452.371
1765 0 136.253 13.0786 1782 53.9652 1170.64 450.476
1766 0 140.285 13.1161 1840 131.266 1170.38 447.565
1767 0 145.483 13.1768 1917 130.628 1169.73 444.586
1768 1 81.1902 11.2698 915 120.622 1169.94 479.541
1769 0 83.252 11.5313 960 117.199 1170.25 476.921
1770 0 84.1921 11.6163 978 124.922 1169.37 476.291
1771 0 87.2426 11.8176 1031 126.225 1168.75 475.227
1772 0 90.2473 12.0114 1084 125.869 1169.81 473.119
1773 0 94.2426 12.3829 1167 127 1170.66 470.73
1774 0 96.4465 12.494 1205 126.09 1170.57 470.6
1775 0 97.3534 12.5419 1221 130.209 1171.26 469.418
1776 0 100.332 12.7377 1278 132.135 1170.84 467.664
1777 0 104.367 12.3986 1294 133.944 1169.7 466.612
1778 0 108.545 12.6583 1374 132.113 1169.96 464.265
1779 0 111.495 12.5835 1403 138.233 1169.51 461.326
1780 0 114.3 12.7384 1456 145.679 1169.73 459.646
1781 0 119.582 13.0203 1557 144.542 1168.92 457.281
1782 0 121.411 13.1619 1598 136.027 1168.58 451.852
1783 1 65.1959 10.4608 682 132.55 1168.38 482.818
1784 0 68.4435 11.1187 761 132.147 1169.21 483.298
1785 0 71.1699 11.8871 846 123.647 1168.62 483.256
1786 0 71.2385 12.6898 904 132.116 1169.93 483.387
1787 0 73.1006 12.7359 931 133.773 1168.68 483.304
1788 0 76.3675 12.5053 955 124.077 1168.18 482.43
1789 0 78.4781 12.5258 983 130.627 1167.41 481.436
1790 0 80.2263 12.2528 983 125.828 1168.67 479.824
1791 0 83.1482 12.5439 1043 125.683 1167.13 478.195
1792 0 86.1949 12.5645 1083 126.527 1170.28 476.821
1793 0 87.1349 12.6241 1100 123.022 1169.98 475.502
1794 0 91.1198 12.8183 1168 130.68 1168.51 474.379
1795 0 92.267 13.2659 1224 133.379 1169.53 473.625
1796 0 95.1429 12.6967 1208 133.81 1168.49 472.173
1797 0 98.1109 12.7407 1250 131.927 1169.01 468.774
1798 0 101.235 12.9896 1315 128.681 1169.72 468.438
1799 0 106.212 12.7764 1357 129.78 1168.91 467.184
1800 0 108.179 12.8491 1390 133.523 1168.13 465.202
1801 0 113.376 12.7628 1447 133.342 1168.57 462.054
1802 1 61.0775 11.1498 681 128.577 1169.96 489.423
1803 0 63.0513 11.9585 754 128.683 1169.07 488.651
1804 0 65.2878 12.2075 797 129.686 1170.57 487.836
1805 0 66.4209 13.8511 920 115.287 1170.86 485.096
1806 0 67.2287 13.1938 887 122.157 1169.51 485.761
1807 0 70.223 13.8559 973 117.872 1169.24 483.712
1808 0 70.2364 13.2979 934 127.005 1170.82 483.997
1809 0 72.0777 13.3606 963 123.448 1169.78 482.96
1810 0 74.1284 12.964 961 124.755 1170.55 481.492
1811 0 77.1442 13.3257 1028 123.994 1171.86 479.935
1812 0 79.1528 13.1771 1043 127.41 1172.12 478.517
1813 0 82.1142 13.4203 1102 132 1169.52 478.1
1814 0 82.1367 13.368 1098 135.897 1168.97 474.787
1815 0 85.1527 13.5639 1155 133.135 1171.46 474.849
1816 0 89.2368 13.2457 1182 135.376 1169.93 473.779
1817 0 92.2644 13.1904 1217 127.028 1170.88 471.841
1818 0 95.1631 13.0828 1245 135.469 1170.55 472.332
1819 1 51.1667 12.0977 619 130.805 1172.18 492.976
1820 0 53.0803 12.0572 640 131.405 1171.69 492.766
1821 0 55.0979 12.1602 670 132.451 1170.4 492.164
1822 0 55.0979 12.1602 670 159.549 1169.4 492.164
1823 0 56.1047 12.9044 724 129.559 1172.22 490.325
1824 0 59.3157 12.9308 767 131.325 1169.57 489.042
1825 0 60.0876 12.981 780 124.923 1170.59 489.153
1826 0 62.0697 13.0176 808 128.921 1171.08 488.724
1827 0 63.0876 13.2197 834 131.296 1170.96 487.582
1828 0 64.1392 13.2992 853 130.19 1170.66 487.148
1829 0 66.0554 13.3524 882 134.67 1170.93 486.398
1830 0 68.0566 13.0627 889 127.315 1170.72 485.326
1831 0 67.1729 14.1575 951 126.089 1171.95 484.156
1832 0 71.0407 13.5134 960 129.268 1170.15 482.392
1833 0 73.1171 13.7998 1009 129.196 1170.79 481.793
1834 0 74.1249 13.6391 1011 126.901 1169.61 481.407
1835 0 76.264 13.886 1059 125.959 1169.05 478.791
1836 0 80.0506 13.9662 1118 126.538 1170.14 478.179
1837 0 83.2921 13.8789 1156 130.13 1171.94 476.712
1838 0 85.2486 13.5721 1157 131.156 1173.58 475.73
1839 0 89.1662 13.3683 1192 129.056 1171.91 474.065
1840 0 91.2038 13.4205 1224 132.288 1171.23 472.563
1841 0 94.193 13.4936 1271 129.673 1172.87 471.378
1842 1 51.0763 11.0227 563 131.011 1172.46 494.183
1843 0 52.2336 12.2909 642 127.958 1171.5 491.801
1844 0 53.1616 12.4714 663 127.701 1171.88 491.582
1845 0 56.1161 12.6702 711 125.918 1172.29 491.343
1846 0 56.1521 12.573 706 132.28 1171.17 490.765
1847 0 58.2084 12.5411 730 131.473 1170.16 490.186
1848 0 60.1107 12.6766 762 133.487 1171.47 489.626
1849 0 60.1218 13.0735 786 128.246 1171.31 489.239
1850 0 64.3071 12.8291 825 134.469 1169.94 486.796
1851 0 65.0871 13.167 857 132.994 1171.34 486.272
1852 0 67.245 13.5772 913 131.105 1170.23 484.82
1853 0 70.2569 13.2087 928 133.803 1169.23 483.824
1854 0 71.2728 13.0204 928 133.006 1171.46 482.78
1855 0 73.2645 13.3762 980 132.554 1171.18 481.496
1856 0 76.3434 13.4131 1024 135.214 1170.95 480.954
1857 0 78.241 13.1261 1027 137.586 1170.66 479.913
1858 0 80.4079 13.3693 1075 135.011 1170.52 478.537
1859 0 84.2256 13.3807 1127 138.258 1169.91 477.353
1860 0 86.1384 13.3042 1146 134.246 1169.66 476.157
1861 0 89.2887 13.4395 1200 138.325 1170.85 474.413
1862 0 90.2603 13.727 1239 92.8846 1170.72 473.054
1863 0 95.3546 13.5809 1295 144.029 1171.82 471.608
1864 0 96.1723 13.7254 1320 141.114 1172 469.989
1865 0 101.254 14.5278 1471 144.982 1170.64 469.071
1866 0 103.219 13.98 1443 140.402 1169.75 467.039
1867 0 107.088 14.0259 1502 139.419 1170.53 465.128
1868 0 111.208 13.803 1535 143.784 1172.02 462.622
1869 0 115.274 13.8019 1591 144.475 1170.35 460.419
1870 1 62.0242 11.7212 727 134.253 1171.86 487.887
1871 0 63.1214 12.3413 779 128.859 1172.64 485.35
1872 0 66.1028 12.7377 842 135.072 1173.36 485.998
1873 0 68.0896 12.557 855 127.315 1172.12 484.825
1874 0 71.1559 13.0277 927 132.357 1171.31 483.442
1875 0 72.1039 13.3419 962 128.108 1173.14 482.098
1876 0 75.0315 13.1012 983 137.252 1172.08 481.296
1877 0 79.2012 13.1059 1038 131.05 1172.5 479.602
1878 0 78.158 13.2936 1039 135.352 1171.58 478.709
1879 0 82.285 13.3682 1100 132.769 1172.32 477.605
1880 0 86.1649 13.3117 1147 132.17 1171.58 476.114
1881 0 89.2694 13.4985 1205 138.71 1171.65 474.689
1882 0 92.2779 13.7411 1268 135.088 1171.63 473.062
1883 0 95.2812 13.6333 1299 131.908 1172.45 471.201
1884 0 98.2484 13.4964 1326 138.349 1172.18 470.565
1885 1 53.2362 11.1954 596 134.305 1172.14 493.102
1886 0 54.1895 12.4932 677 138.213 1171.35 491.784
1887 0 55.1249 12.898 711 131.741 1172.63 491.397
1888 0 57.0603 13.0038 742 136.554 1171.42 490.918
1889 0 60.0758 12.6507 760 125.92 1171.1 489.738
1890 0 62.0395 12.9434 803 129.869 1171.23 489.334
1891 0 64.2514 12.8402 825 132.954 1170.5 488.566
1892 0 66.1105 12.6909 839 129.573 1171.42 487.572
1893 0 68.208 12.7551 870 130.856 1169.84 486.366
1894 0 70.0994 13.167 923 131.989 1170.87 485.283
1895 0 72.0586 13.5723 978 127.317 1170.14 484.186
1896 0 73.1747 13.8162 1011 134.016 1167.78 482.509
1897 0 77.2226 13.1179 1013 130.273 1169.83 481.096
1898 0 78.2379 13.165 1030 131.194 1169.64 479.846
1899 0 80.1963 13.1178 1052 132.326 1168.41 477.884
1900 0 82.2976 13.2568 1091 129.72 1170.71 477.021
1901 0 87.21 13.198 1151 129.151 1170.89 475.103
1902 0 91.3211 12.9105 1179 130.36 1170.37 473.561
1903 0 92.1815 13.0178 1200 125.721 1173.09 472.997
1904 1 52.223 11.8339 618 124.6 1171.17 492.215
1905 0 55.1663 12.1814 672 127.379 1170.76 491.188
1906 0 57.0834 12.508 714 128.814 1170.25 490.695
1907 0 58.074 12.8285 745 125.863 1169.84 490.643
1908 0 58.1792 13.2522 771 127.869 1169.25 489.508
1909 0 61.1189 13.122 802 120.315 1170.25 488.744
1910 0 61.1032 13.4199 820 126.095 1172.73 487.78
1911 0 64.0687 13.2046 846 126.131 1169.76 487.368
1912 0 66.0849 13.4524 889 125.965 1170.37 486.321
1913 0 68.1121 13.5952 926 123.905 1169.33 485.157
1914 0 71.1979 13.3993 954 119.366 1170.74 484.486
1915 0 70.0175 14.325 1003 123.398 1170.6 483.84
1916 0 73.1689 14.0633 1029 126.021 1169.17 481.846
1917 0 76.0633 13.6991 1042 123.583 1168.36 481.305
1918 0 78.0994 14.0974 1101 123.337 1169.53 479.678
1919 0 80.0407 13.5306 1083 124.327 1168.7 477.684
1920 0 82.0609 13.8677 1138 120.915 1170.49 476.186
1921 0 86.1462 13.5816 1170 121.342 1170.15 474.844
1922 0 90.062 13.4019 1207 125.433 1170.98 474.126
1923 0 91.1351 13.8915 1266 126.117 1169.79 472.795
1924 0 95.1149 13.7518 1308 126.392 1169.6 471.491
1925 1 52.0961 12.4386 648 129.681 1168.62 493.873
1926 0 53.0523 13.1945 700 127.353 1170.88 492.373
1927 0 56.0448 12.4186 696 124.466 1170.44 491.796
1928 0 57.0975 12.3123 703 127.259 1169.65 491.744
1929 0 59.0862 12.9472 765 128.608 1170.15 489.928
1930 0 59.0983 13.4691 796 129.286 1171.37 488.956
1931 0 59.0983 13.4691 796 152.857 1172.37 488.956
1932 0 65.0352 13.239 861 133.418 1172.31 487.434
1933 0 66.0556 13.1859 871 130.744 1172.21 486.425
1934 0 67.1549 13.1785 885 131.703 1171 484.744
1935 0 71.1486 13.521 962 129.135 1170.58 483.353
1936 0 72.1368 13.6685 986 130.587 1169.77 482.28
1937 0 75.0425 13.9654 1048 128.361 1170.78 481.49
1938 0 78.1641 13.51 1056 124.254 1170.42 480.408
1939 0 80.2131 13.7758 1105 129.467 1172.13 478.72
1940 0 83.133 13.6408 1134 128.034 1170.63 477.255
1941 0 86.1834 13.9586 1203 129.353 1170 474.927
1942 0 90.21 13.5573 1223 127.862 1171.24 474.214
1943 1 46.0414 12.2281 563 127.297 1170.56 495.364
1944 0 46.0468 13.1605 606 127.32 1170.83 493.726
1945 0 49.1333 13.0054 639 118.97 1172.01 493.728
1946 0 52.0408 12.913 672 129.744 1172.27 493.683
1947 0 52.0739 13.0968 682 126.742 1171.69 492.66
1948 0 53.0473 13.2335 702 130.709 1171.8 491.764
1949 0 55.0781 13.2902 732 126.753 1170.89 490.975
1950 0 55.0543 13.6592 752 131.36 1170.87 490.069
1951 0 58.016 13.3239 773 132.884 1171.56 489.34
1952 0 60.0495 13.5888 816 126.711 1171.7 488.526
1953 0 61.1654 13.6679 836 131.161 1171.98 487.568
1954 0 62.0335 13.5572 841 129.901 1170.86 486.597
1955 0 65.0862 13.6895 891 131.488 1171.04 485.532
1956 0 69.2694 13.5991 942 135.104 1170.05 483.956
1957 0 68.0583 13.8705 944 135.191 1169.73 483.797
1958 0 71.0865 13.7438 977 135.387 1171.1 481.589
1959 0 73.0497 14.0178 1024 134.952 1170.29 480.121
1960 0 77.0463 13.5114 1041 132.871 1171.79 480.385
1961 0 80.0826 13.9231 1115 127.299 1171.16 478.628
1962 0 82.1143 13.5543 1113 128.363 1171.01 476.315
1963 0 83.1414 14.0724 1170 125.154 1170.18 475.226
1964 1 41.0604 11.8119 485 127.93 1171.08 495.788
1965 0 44.0337 12.0816 532 123.957 1172.12 494.929
1966 0 46.1005 12.5595 579 119.477 1170.51 496.299
1967 0 47.122 12.9876 612 115.969 1171.23 494.088
1968 0 49.0922 12.6293 620 123.361 1170.73 493.821
1969 0 49.0621 12.8205 629 122.194 1171.61 492.9
1970 0 50.0552 13.1255 657 122.883 1171.46 491.473
1971 0 52.0528 12.7179 662 125.687 1174.34 490.87
1972 0 55.0888 13.2332 729 121.376 1171.71 489.694
1973 0 56.0604 12.9146 724 122.794 1173.02 489.249
1974 0 58.0709 13.3802 777 116.768 1170.42 488.157
1975 0 59.0275 13.3666 789 122.199 1170.48 487.986
1976 0 59.0717 13.7291 811 122 1168.51 486.819
1977 0 62.0646 13.2926 825 123.091 1169.76 485.995
1978 0 65.0344 13.2084 859 118.313 1170.43 485.055
1979 0 66.1087 13.5232 894 118.651 1170.62 483.473
1980 0 68.0839 13.5862 925 118.489 1172.85 482.439
1981 0 72.0502 13.102 944 121.89 1172.47 480.945
1982 0 74.0902 13.4026 993 119.002 1171.02 480.436
1983 0 76.0683 13.2513 1008 122.85 1169.35 478.241
1984 0 80.3098 13.423 1078 120.474 1170.5 476.844
1985 0 83.1159 13.4872 1121 119.83 1172.56 475.452
1986 0 83.1156 14.0768 1170 121.785 1170.62 474.589
1987 0 86.1362 13.8502 1193 121.412 1171.39 472.694
1988 1 46.0518 11.7042 539 114.855 1171.88 492.735
1989 0 48.0496 11.2592 541 117.115 1170.47 492.233
1990 0 48.1677 12.5395 604 112.584 1168.98 490.228
1991 0 50.1706 12.2382 614 115.849 1171.49 489.757
1992 0 52.1151 12.3956 646 119.161 1170.71 489.806
1993 0 55.1561 12.7638 704 119.507 1169.19 489.804
1994 0 57.0369 12.6935 724 118.517 1169.04 488.91
1995 0 58.0257 12.8219 744 116.435 1169.57 488.332
1996 0 60.0466 13.2897 798 113.346 1170.02 487.183
1997 0 60.1209 13.4895 811 113.403 1169.17 486.422
1998 0 63.2102 12.9568 819 119.653 1169.91 485.575
1999 0 63.17 13.4874 852 117.231 1171.47 484.878
2000 0 66.191 13.4006 887 121.178 1170.91 483.838
2001 0 69.2167 13.4361 930 116.773 1170.05 482.199
2002 0 70.0809 13.3132 933 121.446 1169.32 481.549
2003 0 72.1445 13.473 972 121.005 1171.71 480.223
2004 0 75.1569 13.5583 1019 118.308 1172.1 478.676
2005 0 77.1043 13.9033 1072 116.976 1171.62 477.521
2006 0 80.3007 13.7732 1106 115.838 1171.26 476.014
2007 0 83.1415 13.6514 1135 117.991 1171.68 474.465
2008 0 85.2617 14.1564 1207 114.418 1172.18 473.5
2009 0 89.1113 13.6907 1220 118.769 1172.42 472.269
2010 0 92.195 13.8294 1275 116.585 1168.74 470.78
2011 0 96.2899 13.4282 1293 119.022 1171.45 469.722
2012 0 98.1267 13.5845 1333 121.491 1170.56 467.952
2013 1 51.0866 12.1558 621 122.77 1171.35 491.721
2014 0 52.0928 12.209 636 114.45 1170.92 491.283
2015 0 54.2213 12.4305 674 117.165 1173.42 490.659
2016 0 55.0736 12.8737 709 115.898 1171.28 490.389
2017 0 56.0338 13.2599 743 114.538 1172.57 489.248
2018 0 60.11 13.5252 813 112.561 1171.02 488.718
2019 0 63.0652 13.1768 831 108.508 1172.03 486.933
2020 0 64.2731 13.0848 841 111.844 1172.62 487.033
2021 0 66.0978 13.7826 911 106.761 1173.08 484.555
2022 0 69.1189 13.7734 952 108.361 1173.8 483.947
2023 0 72.0546 13.8367 997 108.277 1171.66 482.681
2024 0 73.144 13.8767 1015 107.356 1172.7 481.663
2025 0 76.1805 13.4549 1025 108.746 1173.32 480.739
2026 0 79.1548 13.6062 1077 106.648 1171.94 479.032
2027 0 81.2823 13.57 1103 106.424 1173.07 478.228
2028 0 84.2732 13.6342 1149 105.327 1173.08 476.73
2029 0 87.2472 13.5477 1182 105.52 1172.36 475.648
2030 0 90.3856 14.1062 1275 107.254 1171.25 473.703
2031 0 93.2235 13.8699 1293 104.258 1172.19 472.35
2032 1 46.1664 12.1517 561 106.034 1173.8 495.406
2033 0 47.1966 12.9882 613 106.409 1172.52 495.132
2034 0 49.1966 12.948 637 105.323 1172.45 493.841
2035 0 49.0484 12.4979 613 104.959 1172.24 494.741
2036 0 50.0423 12.8891 645 102.127 1172.53 494.38
2037 0 51.1964 13.3017 681 106.335 1172.64 492.962
2038 0 53.0797 13.2819 705 103.118 1173.43 492.709
2039 0 55.0336 13.6644 752 103.734 1169.38 491.674
2040 0 54.1498 13.7581 745 106.318 1169.66 491.472
2041 0 58.1486 13.7579 800 109.296 1170.58 490.402
2042 0 58.0639 13.7951 801 107.105 1172.21 490.015
2043 0 62.1265 13.6657 849 106.521 1171.96 488.986
2044 0 64.1513 14.1229 906 105.735 1171.47 487.432
2045 0 66.0964 13.9644 923 105.075 1171.05 486.505
2046 0 66.3307 14.3825 954 109.662 1170.05 485.604
2047 0 70.0655 14.0726 986 111.877 1166.92 484.623
2048 0 72.1185 14.1711 1022 111 1170.01 483.812
2049 0 74.0829 14.4973 1074 110.966 1170.02 481.67
2050 0 77.1975 13.9771 1079 111.167 1171.4 480.289
2051 0 79.112 14.233 1126 109.42 1172.96 479.607
2052 0 82.1028 14.2382 1169 110.779 1173.82 477.948
2053 0 85.2398 13.9489 1189 112.873 1171.14 477.023
2054 0 87.0702 14.1495 1232 112.782 1171.25 475.17
2055 1 46.0108 12.6492 582 117.565 1171.23 495.263
2056 0 47.0684 13.406 631 113.723 1171.06 495.051
2057 0 50.0592 13.1444 658 113.233 1171.09 494.324
2058 0 51.0616 13.846 707 107.921 1173.46 492.878
2059 0 53.042 13.8192 733 113.881 1171.48 492.115
2060 0 53.174 14.1046 750 109.407 1169.6 491.4
2061 0 57.0832 13.5416 773 111.146 1171.83 491.054
2062 0 58.1475 14.1709 824 106.187 1172.14 489.972
2063 0 60.1035 13.9759 840 106.879 1172.75 489.923
2064 0 62.156 13.9005 864 109.069 1172.84 488.676
2065 0 64.0747 14.327 918 108.131 1174.33 487.298
2066 0 66.0528 14.1251 933 103.312 1173.51 486.198
2067 0 70.1084 14.3777 1008 103.716 1173.14 485.404
2068 0 71.1937 14.0462 1000 107.092 1171.58 484.091
2069 0 74.1928 13.9636 1036 101.595 1171.17 482.494
2070 0 76.2379 13.8252 1054 104.388 1169.27 481.468
2071 0 79.3417 14.0405 1114 104.714 1173.88 479.996
2072 0 82.1061 14.0428 1153 105.064 1170.51 478.458
2073 0 84.0972 14.1027 1186 106.745 1174.15 477.54
2074 0 87.161 13.9971 1220 103.881 1171.49 475.705
2075 1 46.1892 12.8385 593 103.954 1171.93 496.538
2076 0 48.0478 13.3825 643 105.336 1171.6 494.519
2077 0 49.1004 13.2382 650 103.4 1172.06 494.062
2078 0 49.1615 13.7913 678 97.8879 1171.54 493.37
2079 0 53.1544 13.1504 699 102.024 1170.5 492.465
2080 0 54.1038 13.4002 725 101.196 1171.32 491.495
2081 0 55.0691 13.9824 770 101.348 1172.57 490.799
2082 0 57.1464 13.6317 779 98.8896 1173.6 489.187
2083 0 60.1075 13.376 804 103.285 1172.92 488.413
2084 0 62.1142 13.6684 849 98.8634 1172.09 487.71
2085 0 64.1948 13.8173 887 99.8568 1174.47 486.196
2086 0 67.1977 13.9439 937 102.536 1173.05 485.641
2087 0 69.1804 13.8189 956 105.636 1173.17 484.487
2088 0 71.3012 13.436 958 103.145 1172.76 483.315
2089 0 73.3264 13.7195 1006 107.512 1172.44 481.652
2090 0 75.3032 13.8241 1041 109.354 1173.61 480.859
2091 0 78.2146 14.0894 1102 107.354 1172.52 479.347
2092 0 81.3822 14.0571 1144 109.014 1170.63 477.727
2093 0 83.305 13.9728 1164 107.456 1172.84 476.993
2094 0 87.4379 13.8155 1208 106.411 1173.09 475.325
2095 0 91.4144 13.7178 1254 104.112 1174.6 473.56
2096 0 92.1835 14.0915 1299 104.79 1172.75 472.938
2097 0 97.3442 13.5704 1321 104.957 1172.76 470.413
2098 1 49.1979 11.9111 586 107.712 1171.3 493.078
2099 0 48.2951 13.0448 630 104.263 1172.86 492.668
2100 0 53.2033 13.4202 714 99.5812 1173.86 491.268
2101 0 53.0232 13.5601 719 103.299 1173.5 490.449
2102 0 55.0394 13.2814 731 100.167 1173.71 489.874
2103 0 57.157 13.6816 782 99.0997 1172.96 489.414
2104 0 56.1725 13.7256 771 98.5629 1172.71 488.642
2105 0 61.2338 13.5873 832 101.028 1173.45 487.256
2106 0 63.1661 13.5832 858 96.5886 1173.54 486.88
2107 0 64.1684 14.01 899 99.1057 1172.88 485.744
2108 0 67.2841 13.4653 906 95.4437 1173.29 484.883
2109 0 67.2238 14.4145 969 94.2043 1174.91 483.48
2110 0 70.2999 14.0967 991 93.0626 1174.24 482.558
2111 0 73.276 14.1383 1036 97.4942 1172.47 481.597
2112 0 75.2291 14.303 1076 99.0809 1171.89 480.16
2113 0 79.3004 13.8965 1102 97.4646 1172.14 478.761
2114 0 80.3872 14.3555 1154 96.5693 1173.05 477.323
2115 0 83.3568 14.4919 1208 94.8824 1171.73 476.585
2116 0 85.2447 14.605 1245 94.7542 1172.5 474.07
2117 0 86.4257 14.5327 1256 95.0565 1170.57 473.875
2118 0 91.4231 14.0665 1286 98.5809 1172.23 472.193
2119 0 94.3942 13.9309 1315 100.061 1172.33 470.816
2120 0 97.3051 14.285 1390 99.3094 1173.05 468.999
2121 1 50.0299 13.432 672 99.4792 1172.57 491.975
2122 0 52.0655 13.3102 693 96.8369 1173.05 490.975
2123 0 53.1482 13.6411 725 98.8648 1171.9 490.287
2124 0 54.0291 14.1775 766 97.9634 1172.97 489.448
2125 0 58.1417 13.5875 790 98.3304 1172.2 488.752
2126 0 59.1388 14.4744 856 101.866 1170.71 487.036
2127 0 61.0479 14.3985 879 100.667 1172.02 486.601
2128 0 60.1655 14.859 894 99.9608 1172.46 485.907
2129 0 63.1791 14.5776 921 101.915 1170.54 484.701
2130 0 66.0719 14.2269 940 101.709 1171.92 483.676
2131 0 69.1669 14.6746 1015 99.1744 1173.49 482.741
2132 0 72.1596 16.1171 1163 11.7429 1172.46 483.896
2133 0 72.2376 14.6876 1061 103.873 1172.75 481.097
2134 0 75.4192 14.426 1088 105.862 1173.13 479.75
2135 0 78.1476 14.2167 1111 104.27 1171.05 478.879
2136 0 82.1669 14.6653 1205 108.917 1171.19 476.333
2137 0 83.229 14.5983 1215 103.043 1171.53 474.672
2138 0 85.1497 15.0911 1285 106.216 1174.05 473.786
2139 0 88.0864 14.5085 1278 108.516 1172.75 472.725
2140 0 93.1151 14.5948 1359 104.149 1172.42 471.361
2141 1 48.1711 12.3518 595 106.686 1173.46 493.308
2142 0 50.1763 13.0141 653 108.982 1172.69 492.005
2143 0 52.0675 13.4057 698 108.639 1172.71 491.461
2144 0 53.0891 13.4114 712 111.122 1173.15 491.351
2145 0 54.0229 13.809 746 106.225 1173.24 490.723
2146 0 57.0731 13.3688 763 109.29 1170.75 489.675
2147 0 59.0779 13.5584 801 109.684 1172.59 488.017
2148 0 62.1029 13.6709 849 110.571 1171.61 487.584
2149 0 63.104 13.6283 860 109.356 1170.38 485.733
2150 0 65.0679 13.6319 887 110.639 1172.28 485.388
2151 0 67.0566 14.0031 939 106.88 1171.22 483.978
2152 0 69.2578 13.8468 959 109.837 1172.67 482.062
2153 0 71.0572 13.8058 981 110.382 1172.47 481.671
2154 0 72.0556 13.9892 1008 113.424 1171.21 480.707
2155 0 77.0511 13.5754 1046 113.942 1171.04 479.018
2156 0 79.0654 13.8872 1098 112.284 1170.85 477.143
2157 0 81.1716 14.1429 1148 111.654 1170.91 475.096
2158 0 85.0832 14.1979 1208 108.239 1170.99 473.035
2159 0 90.216 13.6894 1235 107.681 1170.96 471.542
2160 0 91.1111 13.8732 1264 101.15 1172.76 470.15
2161 0 94.0563 13.7896 1297 107.418 1170.53 469.217
2162 0 98.0814 13.3461 1309 103.729 1170.53 467.373
2163 0 102.098 13.8494 1414 107.417 1170.77 465.839
2164 1 53.195 12.2568 652 101.241 1173.53 489.014
2165 0 57.2268 12.6514 724 100.885 1171.56 487.667
2166 0 58.1325 12.9876 755 105.309 1172.05 487.391
2167 0 59.1666 13.2507 784 101.666 1170.66 486.504
2168 0 64.122 12.6945 814 103.919 1170.83 485.913
2169 0 66.0426 13.2036 872 102.819 1170.1 483.727
2170 0 69.0757 13.2608 916 101.986 1169.89 482.608
2171 0 71.1623 13.3217 948 104.483 1170.43 481.696
2172 0 73.1116 13.8008 1009 98.0149 1171.52 480.836
2173 0 75.0783 13.7323 1031 105.39 1170.9 479.58
2174 0 79.0399 13.7272 1085 101.172 1171.94 478.492
2175 0 82.3206 13.2045 1087 103.271 1172.31 478.179
2176 0 84.121 13.8134 1162 105.151 1171.3 475.842
2177 0 88.2064 13.7858 1216 104.789 1171.51 474.278
2178 0 92.1972 13.2759 1224 107.449 1171.12 472.416
2179 0 95.1804 13.7738 1311 105.296 1171.56 470.769
2180 0 98.3366 13.7995 1357 101.055 1170.82 469.292
2181 1 51.3134 12.5114 642 105.798 1170.56 491.483
2182 0 54.1553 13.092 709 100.489 1171.03 490.669
2183 0 54.1459 12.6879 687 102.544 1170.13 490.585
2184 0 56.1394 12.843 721 102.043 1170.71 490.061
2185 0 58.109 12.8896 749 100.499 1171.69 488.206
2186 0 59.1821 12.7572 755 106.032 1171.42 487.784
2187 0 62.1186 13.2971 826 102.545 1172.71 487.253
2188 0 64.046 13.178 844 100.333 1172.72 486.709
2189 0 67.0538 12.9598 869 100.028 1170.52 485.443
2190 0 68.1241 12.9616 883 104.002 1171.85 484.804
2191 0 70.0546 13.1041 918 101.962 1172.55 483.434
2192 0 71.0604 13.5518 963 103.443 1171.1 482.647
2193 0 74.0675 13.5012 1000 101.454 1171.77 481.258
2194 0 76.1046 13.9019 1058 103.714 1172.65 479.605
2195 0 79.1635 13.7563 1089 101.021 1172.43 478.612
2196 0 82.3078 13.6439 1123 99.1042 1171.34 477.311
2197 0 87.2118 13.3009 1160 100.998 1171.49 475.293
2198 0 89.1627 13.7838 1229 103.627 1170.09 473.241
2199 0 92.3915 13.8649 1281 98.3341 1172.4 472.215
2200 0 95.2242 13.5995 1295 102.682 1172.63 471.356
2201 0 99.1537 13.6152 1350 101.166 1171.69 468.773
2202 0 103.15 13.5821 1401 99.9508 1172.03 467.896
2203 0 105.215 13.9049 1463 95.5338 1170.79 465.482
2204 1 54.0569 12.3204 666 103.796 1172.37 491.387
2205 0 57.1822 12.2241 699 100.462 1170.72 490.288
2206 0 57.1669 12.6122 721 102.725 1172.23 489.49
2207 0 58.1502 12.8632 748 101.198 1171.44 488.722
2208 0 61.1908 12.4855 764 100.643 1171.21 487.681
2209 0 63.1824 12.6618 800 96.1475 1169.85 487.511
2210 0 64.2919 12.9721 834 106.885 1170.73 486.308
2211 0 67.1702 13.1457 883 103.156 1169.58 484.834
2212 0 69.2207 12.9441 896 101.423 1170.02 484.152
2213 0 70.1077 13.465 944 101.881 1170.59 483.145
2214 0 72.0222 12.996 936 105.372 1170.71 481.792
2215 0 75.0702 13.4807 1012 109.372 1171.09 480.908
2216 0 79.1466 13.0391 1032 103.097 1168.13 479.03
2217 0 80.1606 13.0987 1050 102.656 1171.43 477.472
2218 0 83.2745 12.8971 1074 105.926 1172.21 475.39
2219 0 85.1646 13.0688 1113 104.617 1171.81 473.817
2220 0 88.1776 13.1666 1161 103.29 1172.11 472.626
2221 0 92.0483 12.9823 1195 98.6075 1172.19 471.31
2222 1 48.036 11.3248 544 95.0919 1170.61 493.403
2223 0 49.1277 11.9892 589 90.0781 1169.61 492.46
2224 0 52.1984 11.9161 622 95.8762 1169.69 492.166
2225 0 53.0539 12.2894 652 94.1058 1170.92 491.33
2226 0 54.0568 12.0984 654 93.7385 1170.85 491.089
2227 0 55.0728 12.4744 687 89.3013 1171.14 489.403
2228 0 56.091 12.8184 719 87.9054 1169.67 488.51
2229 0 57.0959 12.8906 736 88.9633 1170.4 488.054
2230 0 60.1447 12.3369 742 94.6833 1172.24 487.643
2231 0 62.2146 13.0034 809 90.6934 1171.97 486.046
2232 0 63.147 12.7005 802 89.7207 1171.64 485.243
2233 0 65.2825 13.1122 856 90.6928 1171.73 484.473
2234 0 67.1444 12.9274 868 91.9228 1169.79 483.694
2235 0 70.184 13.1796 925 88.3254 1170.77 482.07
2236 0 72.1918 12.9516 935 92.7005 1171.76 480.819
2237 0 72.2715 13.2694 959 87.6934 1173.28 479.367
2238 0 72.2715 13.2694 959 146.611 1175.28 479.367
2239 0 77.2107 13.6251 1052 90.5818 1171.98 476.302
2240 0 81.3022 13.1977 1073 89.6142 1171.08 475.883
2241 0 84.3128 13.4618 1135 89.9269 1172.11 474.243
2242 0 87.2602 13.7978 1204 88.6121 1170.63 472.85
2243 0 91.2281 13.406 1223 93.4203 1170.35 471.111
2244 0 91.1934 13.6523 1245 94.6884 1171.2 468.577
2245 0 97.3791 13.0726 1273 91.0613 1171.33 467.732
2246 1 54.2945 11.4192 620 94.0097 1171.4 489.156
2247 0 54.1794 12.3294 668 93.229 1170.92 488.698
2248 0 56.3415 12.513 705 90.3121 1169.75 488.119
2249 0 56.0721 12.4304 697 88.3659 1172.24 488.265
2250 0 59.2353 12.1043 717 91.1353 1171.83 487.278
2251 0 60.14 12.5707 756 88.4643 1170.79 485.903
2252 0 62.2195 12.5202 779 87.9486 1169.99 485.35
2253 0 65.1395 12.6651 825 88 1171.94 484.392
2254 0 66.2339 13.0145 862 87.9513 1168.68 483.35
2255 0 68.2958 12.6069 861 92.0256 1169.8 481.748
2256 0 71.1381 12.7358 906 92.4327 1169.07 480.383
2257 0 73.2223 12.8786 943 94.473 1168.96 479.406
2258 0 76.2404 12.9721 989 93.0152 1172.28 477.545
2259 0 78.4592 13.0386 1023 93.1339 1171.43 476.642
2260 0 79.3538 13.1563 1044 96.8199 1168.13 475.049
2261 0 85.499 12.7253 1088 98.7472 1168.01 473.262
2262 1 46.2293 11.1185 514 98.57 1168.51 492.09
2263 0 49.0719 12.0028 589 99.9745 1170.94 491.655
2264 0 49.0567 12.2715 602 95.6495 1172.38 490.829
2265 0 51.1131 12.0713 617 101.961 1171.52 491.073
2266 0 51.2649 12.5427 643 94.661 1171.5 490.072
2267 0 54.103 12.5317 678 99.826 1169.5 489.282
2268 0 55.0862 12.7981 705 102.389 1170.99 488.644
2269 0 57.1177 12.6406 722 101.098 1170.98 487.572
2270 0 58.1975 12.87 749 99.0427 1172.1 487.327
2271 0 58.1975 12.87 749 166.752 1174.1 487.327
2272 0 61.089 13.0302 796 106.107 1170.68 484.379
2273 0 61.0188 13.5368 826 103.132 1171.92 483.35
2274 0 63.0662 13.7475 867 107.496 1172.09 483.609
2275 0 65.0734 13.6769 890 105.997 1175.63 481.747
2276 0 67.08 13.5212 907 110.883 1172.75 480.653
2277 0 68.1343 13.444 916 111 1173.83 480.163
2278 0 71.0891 13.9262 990 110.203 1173.64 478.779
2279 0 73.0762 14.1359 1033 109.739 1173.59 477.423
2280 0 77.1261 13.8475 1068 112.738 1172.65 475.932
2281 0 79.0559 14.0786 1113 112.386 1174.13 475.103
2282 0 82.1232 13.9912 1149 112.745 1173.7 473.653
2283 0 84.2372 13.4976 1137 112.065 1173.18 471.78
2284 0 89.1516 13.6958 1221 114.224 1171.76 470.723
2285 1 48.1527 11.8789 572 115.206 1171.77 491.14
2286 0 50.0673 12.7628 639 114.178 1170.86 490.16
2287 0 51.0412 12.9895 663 112.486 1173.94 489.78
2288 0 52.0623 13.0037 677 113.353 1171.18 489.276
2289 0 55.1528 13.0365 719 108.352 1171.41 488.548
2290 0 55.1234 13.0797 721 116.994 1173.27 488.201
2291 0 58.0779 13.1892 766 116.242 1173.66 486.749
2292 0 58.1235 13.5746 789 116.117 1173.99 485.987
2293 0 61.0761 13.3276 814 115.603 1169.93 485.683
2294 0 62.1997 13.7139 853 119.064 1170.24 484.931
2295 0 65.1392 13.6784 891 119.558 1174.01 484.783
2296 0 64.1207 14.0204 899 117.92 1170.35 483.648
2297 0 66.1329 14.5465 962 122.386 1172.53 482.56
2298 0 69.164 14.3283 991 117.38 1172.71 481.737
2299 0 72.1653 14.1342 1020 116.343 1171.15 480.049
2300 0 74.2369 14.1439 1050 116.14 1173.43 479.646
2301 0 77.2382 14.0734 1087 116.017 1174.05 477.905
2302 0 81.1075 13.8582 1124 121.36 1171.88 476.569
2303 0 83.285 13.6759 1139 123.09 1170.85 475.818
2304 0 85.2493 13.9004 1185 120.065 1170.34 474.1
2305 0 89.2457 13.7934 1231 121.031 1169.93 471.968
2306 1 48.1231 12.1355 584 119.789 1170.1 491.971
2307 0 49.1853 12.6257 621 119.583 1171.92 491.443
2308 0 51.0718 13.2363 676 112.763 1171.71 491.293
2309 0 53.0598 13.2869 705 122.478 1173.26 491.569
2310 0 53.1411 13.5112 718 120.992 1172.66 490.574
2311 0 55.1138 13.4449 741 120.499 1171.63 489.881
2312 0 56.1276 13.5406 760 119.336 1174.14 489.095
2313 0 57.1205 13.0951 748 122.127 1170.96 488.997
2314 0 58.0373 13.9565 810 124.788 1172.72 488.31
2315 0 61.1047 13.9433 852 126.864 1173.21 486.968
2316 0 61.1577 14.1274 864 123.334 1170.28 486.134
2317 0 63.1705 14.4371 912 125.1 1170.58 485.39
2318 0 66.0911 14.0866 931 126.598 1173.33 484.339
2319 0 68.2716 14.0615 960 129.117 1171.95 482.458
2320 0 71.1387 14.0711 1001 126.815 1172.54 481.597
2321 0 70.0755 14.9553 1048 123.576 1173.55 480.567
2322 0 74.086 14.4427 1070 124.291 1171.19 480.107
2323 0 75.0902 14.7156 1105 127.289 1171.04 478.404
2324 0 80.0885 14.8461 1189 126.78 1174.92 476.717
2325 0 81.0438 14.6094 1184 134.165 1171.07 476.329
2326 0 86.1345 14.6515 1262 126.537 1170.54 474.952
2327 0 89.0847 14.301 1274 132.739 1171.06 472.977
2328 0 89.1716 14.5114 1294 135.454 1171.84 471.866
2329 0 93.179 14.1663 1320 128.951 1172.91 470.379
2330 0 97.1952 14.6406 1423 126.232 1172.49 468.707
2331 0 99.1404 14.3433 1422 129.155 1173.69 466.181
2332 0 103.129 14.4285 1488 122.063 1172.42 464.9
2333 0 107.299 14.3058 1535 124.303 1172 463.53
2334 1 61.1024 13.0273 796 118.421 1173.55 486.069
2335 0 62.1929 13.844 861 118.998 1173.45 484.901
2336 0 64.1364 13.5804 871 122.155 1172.4 484.118
2337 0 66.1374 13.8348 915 119.74 1172.34 483.139
2338 0 68.1363 13.7372 936 121.816 1171.84 482.018
2339 0 72.1424 13.9031 1003 123.227 1170.98 480.254
2340 0 74.0677 14.1222 1046 117.244 1173.14 479.42
2341 0 77.1216 13.8612 1069 118.616 1171.93 477.798
2342 0 79.0341 14.0699 1112 120.321 1171.31 476.781
2343 0 82.1615 14.4472 1187 115.902 1172.38 474.965
2344 0 84.134 14.5007 1220 123.066 1174.28 473.58
2345 0 88.2114 13.9438 1230 119.508 1173.56 472.001
2346 0 91.2101 14.0335 1280 118.305 1173.13 471.04
2347 0 94.2781 14.086 1328 123.739 1171.53 469.488
2348 0 96.1744 14.2138 1367 124.186 1173.02 468.098
2349 0 100.268 14.3116 1435 118.216 1171.12 465.703
2350 0 102.202 14.1582 1447 123.023 1173.78 464.918
2351 0 107.165 14.193 1521 119.822 1173.72 463.337
2352 0 110.246 14.7034 1621 122.982 1170.77 461.068
2353 0 115.122 14.3586 1653 120.812 1171.23 458.855
2354 1 61.0883 12.6538 773 118.937 1170.88 484.917
2355 0 64.1664 13.465 864 118.951 1172.17 484.367
2356 0 66.1081 13.5989 899 120.829 1171.63 482.673
2357 0 68.0548 13.8418 942 116.908 1171.15 481.945
2358 0 72.0429 14.0472 1012 116.902 1171.72 480.665
2359 0 72.0864 14.3023 1031 116.287 1171.07 479.225
2360 0 75.1016 14.3006 1074 120.335 1171.13 477.919
2361 0 80.1714 13.995 1122 122.452 1171.94 476.317
2362 0 82.146 14.1699 1164 57.9622 1171.14 475.367
2363 0 84.0899 14.1872 1193 122.608 1172.11 474.549
2364 0 88.1028 13.507 1190 130.028 1171.12 473.484
2365 0 91.2085 13.7706 1256 130.548 1171.03 471.268
2366 0 93.0911 14.1797 1320 137.365 1171.5 470.761
2367 0 98.1366 13.9499 1369 136.224 1172.33 468.025
2368 0 99.1148 14.2663 1414 138.985 1171.81 466.48
2369 0 103.073 13.8446 1427 144.331 1172.87 465.55
2370 0 107.216 13.9811 1499 138.21 1173.25 463.22
2371 0 110.198 14.238 1569 136.506 1172.2 460.91
2372 1 59.0582 12.8517 759 132.783 1172.15 487.032
2373 0 61.0681 13.0346 796 138.255 1173.35 484.905
2374 0 62.0532 13.5207 839 137.47 1172.1 484.097
2375 0 65.1154 13.0845 852 139.448 1171.88 483.683
2376 0 67.1332 13.6594 917 127.174 1172.3 482.701
2377 0 68.1613 13.4387 916 137.966 1171.81 481.822
2378 0 73.1012 13.5976 994 134.419 1169.62 479.367
2379 0 73.0637 13.8783 1014 132.134 1170.04 478.22
2380 0 77.1264 13.6529 1053 139.199 1170.96 477.145
2381 0 78.1023 13.7128 1071 138.78 1171.97 476.492
2382 0 82.1921 13.5293 1112 139.027 1173.2 474.882
2383 0 83.1179 14.0884 1171 138.822 1170.04 473.164
2384 0 88.1218 13.4927 1189 130.039 1172.94 471.704
2385 0 92.2129 13.805 1273 134.726 1173.96 470.246
2386 1 48.0277 12.3887 595 137.625 1172.11 491.269
2387 0 50.0522 12.5868 630 136.376 1173.16 490.365
2388 0 52.0611 12.9463 674 137.846 1171.05 489.653
2389 0 52.0928 13.0344 679 131.851 1172.15 489.401
2390 0 54.1439 12.7623 691 137.065 1170.32 488.836
2391 0 56.0726 12.8048 718 134.643 1170.84 488.102
2392 0 56.1067 12.904 724 135.028 1172.75 487.565
2393 0 59.1574 12.9654 767 130.561 1170.26 486.126
2394 0 60.1191 13.124 789 135.221 1170.42 485.648
2395 0 63.0823 12.9355 816 131.261 1171.39 484.125
2396 0 64.1699 13.5578 870 128.59 1172.03 483.828
2397 0 68.3612 13.0483 892 128.294 1172.33 482.297
2398 0 68.0799 13.6017 926 129.317 1172.96 482.13
2399 0 71.1257 13.5956 967 127.885 1172.44 480.12
2400 0 72.0941 13.4824 972 127.001 1173.85 479.481
2401 0 76.0416 13.2296 1006 128.991 1172.58 477.034
2402 0 79.0508 13.3079 1052 125.903 1172.94 476.327
2403 0 81.0455 13.6713 1108 129.149 1172.14 475.49
2404 0 85.2239 13.1888 1124 124.321 1172.9 474.588
2405 1 48.0153 11.8296 568 128.588 1172.3 492.167
2406 0 50.1752 12.2371 614 125.241 1172.67 491.228
2407 0 51.0512 12.8303 655 131.966 1173.91 490.412
2408 0 52.0228 13.6094 708 123.092 1173.77 489.78
2409 0 55.1466 12.9473 714 119.993 1172.51 488.945
2410 0 56.1057 13.3142 747 128.272 1171.82 488.225
2411 0 57.157 13.4192 767 119.19 1173.39 487.289
2412 0 59.1197 13.5319 800 127.254 1172.63 486.401
2413 0 62.1394 13.1961 820 122.362 1174.31 485.604
2414 0 61.0499 13.5463 827 124.285 1171.63 484.692
2415 0 64.1301 13.8313 887 124.875 1173.61 483.626
2416 0 67.1391 13.5688 911 124.659 1171.55 482.424
2417 0 69.1366 13.6541 944 128.25 1173.99 482.422
2418 0 71.1582 13.8002 982 126.207 1171.15 481.176
2419 0 71.158 14.1235 1005 126.726 1173.57 480.515
2420 0 75.1559 14.1306 1062 124.969 1173.44 479.088
2421 0 76.089 14.4042 1096 125.43 1174.28 478.268
2422 0 78.2042 14.2831 1117 130.036 1174.68 476.5
2423 0 81.1417 14.5055 1177 122.714 1172.96 475.34
2424 0 85.0964 14.2192 1210 127.084 1172.34 473.296
2425 0 88.1922 14.3777 1268 125.518 1173.05 472.76
2426 0 90.2031 14.4452 1303 126.821 1172.49 471.092
2427 0 94.2929 14.1156 1331 120.339 1172.24 468.45
2428 0 96.2062 14.1155 1358 130.621 1173.18 467.708
2429 1 53.0417 12.6881 673 125.458 1174.88 489.44
2430 0 54.1104 13.5833 735 125.016 1175 488.25
2431 0 56.1699 13.9933 786 125.015 1175.26 487.81
2432 0 56.1683 14.0827 791 128.171 1175.82 487.387
2433 0 60.2653 13.8056 832 125.377 1174.31 486.544
2434 0 60.1703 14.675 883 125.27 1175.14 485.358
2435 0 62.1874 14.3437 892 124.099 1174.39 484.327
2436 0 64.2044 14.5006 931 120.872 1172.76 482.9
2437 0 65.2038 14.8764 970 119.47 1173.99 481.723
2438 0 68.2238 14.8922 1016 115.249 1173.24 480.689
2439 0 70.3743 14.9202 1050 125.084 1174.42 479.346
2440 0 71.2037 14.7886 1053 122.41 1173.85 478.723
2441 0 73.3242 14.9337 1095 126.436 1173.18 477.212
2442 0 77.2755 15.2442 1178 125.471 1175.2 474.909
2443 0 80.4242 15.0452 1210 124.317 1173.05 474.688
2444 0 82.3418 15.3385 1263 122.911 1172.51 472.799
2445 0 86.3462 15.2294 1315 121.066 1174.98 471.291
2446 0 87.2144 15.0205 1310 124.386 1175.16 471.247
2447 0 92.3286 14.8058 1367 126.714 1174.9 468.87
2448 0 95.2258 14.9749 1426 126.087 1173.78 467.038
2449 0 98.386 15.1139 1487 125.037 1173.31 465.959
2450 0 102.413 14.8712 1523 124.406 1172.11 464.043
2451 1 53.2934 13.1348 700 134.206 1173.32 488.439
2452 0 56.2673 13.8979 782 132.132 1173.34 486.884
2453 0 57.096 13.9414 796 132.303 1175.65 486.104
2454 0 59.235 14.0289 831 132.527 1174.35 485.368
2455 0 62.2591 14.022 873 133.444 1175.51 484.365
2456 0 64.2978 14.2151 914 133.745 1174.09 482.518
2457 0 66.2695 14.2298 943 133.435 1172.94 482.627
2458 0 69.2165 14.3896 996 130.878 1173.42 480.492
2459 0 71.2117 14.1409 1007 137.761 1174.1 480.181
2460 0 75.1842 14.2184 1069 134.541 1172.98 478.457
2461 0 75.1107 14.898 1119 136.499 1174.66 477.059
2462 0 81.1293 14.1872 1151 136.705 1174.03 475.815
2463 0 82.1595 14.2771 1173 132.489 1172.85 472.582
2464 0 86.0547 14.2235 1224 134.12 1173.27 470.989
2465 0 89.0768 14.1114 1257 130.275 1173.08 469.158
2466 1 46.2038 13.0076 601 130.579 1172.25 489.634
2467 0 48.1169 13.488 649 130.693 1173.69 489.414
2468 0 50.1108 13.6897 686 132.703 1173.02 489.125
2469 0 52.0401 13.9316 725 134.771 1174.14 488.254
2470 0 55.1582 13.5791 749 131.769 1174.87 486.78
2471 0 56.1018 14.0281 787 129.161 1173.73 485.685
2472 0 56.0422 14.3642 805 125.301 1175.31 485.001
2473 0 61.0777 13.5729 829 130.105 1173.4 484.563
2474 0 62.063 14.1953 881 127.358 1174.63 483.241
2475 0 65.1446 13.8461 902 129.267 1176.31 481.851
2476 0 65.1001 14.2703 929 131.46 1174.91 480.795
2477 0 68.1146 14.0205 955 136.025 1174.56 479.808
2478 0 68.1717 14.3755 980 135.772 1174.27 478.918
2479 0 73.0699 14.3698 1050 131.99 1174.69 477.256
2480 0 76.1714 14.4936 1104 130.114 1174.45 475.158
2481 0 77.1075 14.5511 1122 127.766 1174.64 474.102
2482 0 81.1487 14.3933 1168 126.92 1174.62 472.616
2483 0 83.2732 14.2183 1184 130.608 1174.91 471.715
2484 0 88.1482 13.8063 1217 135.951 1173.4 470.637
2485 0 89.1256 14.3057 1275 130.284 1175.07 468.837
2486 1 46.0669 12.9594 597 135.925 1175.68 489.655
2487 0 48.0383 13.9264 669 132.788 1175.35 489.227
2488 0 50.0351 14.0901 705 134.397 1176.27 487.959
2489 0 51.1326 13.8659 709 132.286 1175.62 487.281
2490 0 53.1196 14.0626 747 133.104 1175.84 486.7
2491 0 54.018 14.4396 780 130.653 1177.32 485.877
2492 0 57.0904 14.1005 805 132.725 1175.1 484.605
2493 0 57.175 14.3594 821 137.386 1177.33 484.374
2494 0 60.1594 14.179 853 134.021 1175.04 483.089
2495 0 61.0673 15.0162 917 129.282 1172.85 481.296
2496 0 64.1165 14.6452 939 131.807 1174.98 480.687
2497 0 65.1251 15.1094 984 131.115 1173.47 480.132
2498 0 66.2111 15.1485 1003 132.81 1175.21 479.166
2499 0 71.0559 14.6223 1039 129.942 1173.45 477.681
2500 0 72.082 15.302 1103 131.64 1173.39 476.703
2501 0 73.068 15.3145 1119 130.987 1173.71 475.206
2502 0 77.1092 15.2641 1177 135.513 1174 473.939
2503 0 80.1729 14.9427 1198 135.659 1174.46 473.167
2504 0 83.1016 15.114 1256 138.077 1174.75 470.786
2505 0 87.1544 15.0308 1310 134.359 1174.48 469.897
2506 0 89.0878 15.2546 1359 139.336 1174.61 468.934
2507 0 93.1076 15.0793 1404 140.219 1173.38 467.697
2508 0 95.2203 15.4799 1474 140.019 1174.43 465.663
2509 0 97.097 15.1807 1474 144.528 1173.51 464.569
2510 0 101.086 15.3236 1549 57.1349 1173.06 462.928
2511 0 104.212 15.3534 1600 144.246 1173.2 461.534
2512 0 108.194 14.9917 1622 144.934 1172.75 459.387
2513 0 113.329 14.9388 1693 145.061 1175.62 458.123
2514 1 59.0413 14.7354 870 150.039 1176.02 482.52
2515 0 63.0748 15.1725 957 149.794 1175.95 481.061
2516 0 63.1825 15.5423 982 149.144 1173.73 480.411
2517 0 66.1756 15.2775 1011 147.842 1174.37 479.494
2518 0 70.134 15.228 1068 143.573 1173.14 477.92
2519 0 72.2483 15.3637 1110 146.768 1174.73 476.668
2520 0 75.1023 15.5255 1166 142.609 1175.49 475.405
2521 0 77.0644 15.7401 1213 139.44 1176.43 474.074
2522 0 80.2083 15.8587 1272 141.209 1176.19 472.968
2523 0 84.2312 15.4574 1302 140.997 1174.7 471.819
2524 0 86.2191 15.7854 1361 138.915 1174.89 470.267
2525 0 89.1822 16.0122 1428 139.529 1176.59 468.705
2526 0 92.1936 15.9013 1466 140.643 1177.79 467.651
2527 0 96.1252 16.4473 1581 143.657 1177.54 465.294
2528 0 99.4614 16.4486 1636 132.008 1178.66 462.782
2529 0 103.25 15.9807 1650 142.338 1177.27 463.029
2530 1 54.1308 14.7605 799 158.457 1176.9 484.6
2531 0 54.1308 14.7605 799 175.956 1179.9 484.6
2532 0 58.148 16.0796 935 155.79 1177.62 482.071
2533 0 60.1835 16.0841 968 157.161 1178.96 481.402
2534 0 62.0766 16.4313 1020 147.025 1177.97 480.481
2535 0 64.2851 16.9091 1087 149.418 1177.27 479.483
2536 0 67.1606 16.9593 1139 156.195 1176.93 478.119
2537 0 69.1332 16.2874 1126 162.068 1175.85 477.415
2538 0 73.2974 16.781 1230 153.65 1177.69 475.311
2539 0 74.162 16.3021 1209 159.264 1174.17 474.539
2540 0 78.2647 16.227 1270 153.776 1175.21 472.883
2541 0 81.4972 16.3073 1329 149.391 1177.38 471.959
2542 0 83.4031 15.9826 1333 162.285 1175.93 470.11
2543 0 88.1736 16.2747 1435 152.514 1175.18 467.268
2544 1 47.3397 15.2937 724 170.309 1174.78 487.309
2545 0 47.2446 15.896 751 170.368 1176.54 486.521
2546 0 49.1802 16.3684 805 170.268 1174.84 485.142
2547 0 51.2538 16.0769 824 164.898 1175.34 484.4
2548 0 52.3591 16.3104 854 172.159 1175.3 483.53
2549 0 55.1637 16.4601 908 171.374 1174.72 481.72
2550 0 57.3451 16.0607 921 168.542 1175.26 481.397
2551 0 58.1152 16.7254 972 167.044 1177.04 479.905
2552 0 60.1849 16.6819 1004 176.442 1175.71 479.277
2553 0 62.1779 16.9835 1056 168.527 1175.55 478.111
2554 0 64.1584 16.8022 1078 171.367 1175.93 477.457
2555 0 68.0935 16.6095 1131 162.187 1175.86 476.125
2556 0 71.2536 16.9535 1208 163.037 1177.47 474.491
2557 0 70.1681 16.7597 1176 163.279 1175.03 473.58
2558 0 75.1446 17.1004 1285 163.824 1174.87 471.591
2559 0 78.183 16.7428 1309 164.997 1175.12 470.808
2560 0 79.1276 17.3012 1369 155.158 1174.74 469.376
2561 0 84.1169 17.2617 1452 154.908 1176.13 467.077
2562 0 87.3961 16.3623 1430 162.691 1175.51 466.102
2563 0 91.3649 16.4396 1502 154.192 1176.08 464.372
2564 0 95.1761 16.17 1539 154.101 1176.88 462.849
2565 0 97.1733 16.5272 1606 156.037 1177.1 461.881
2566 0 100.138 16.9766 1700 152.982 1177.16 459.671
2567 1 54.0792 15.6067 844 159.09 1175.69 480.831
2568 0 57.0572 15.6685 894 162.333 1175.77 479.987
2569 0 58.059 15.8804 922 163.506 1174.7 478.637
2570 0 60.161 15.8575 954 158.327 1174.65 477.77
2571 0 62.2089 15.8177 984 166.063 1174.03 476.722
2572 0 66.129 15.7117 1039 158.014 1175.02 475.487
2573 0 68.0293 16.0078 1089 158.043 1176.02 474.584
2574 0 71.145 16.1501 1149 158.58 1175.96 473.019
2575 0 71.0675 16.0411 1140 162.512 1175.26 471.816
2576 0 76.1161 16.0281 1220 164.42 1176.34 470.47
2577 0 76.1091 16.4369 1251 164.697 1174.11 468.895
2578 0 81.3847 15.8629 1291 151.095 1175.31 467.361
2579 0 86.0742 16.0908 1385 161.83 1175.28 464.968
2580 0 87.1294 15.9189 1387 159.002 1174.09 463.969
2581 0 90.1441 15.6527 1411 168.055 1174.86 462.782
2582 0 93.2062 16.2221 1512 165.715 1174.92 460.89
2583 0 97.0912 16.469 1599 156.303 1174.47 459.287
2584 1 50.034 15.0098 751 171.683 1174.59 481.73
2585 0 52.189 14.7157 768 162.48 1174.38 481.107
2586 0 54.3763 15.3192 833 163.358 1173.65 479.42
2587 0 55.0802 15.5047 854 168.404 1176.39 478.054
2588 0 59.0571 14.9347 882 164.505 1174.79 477.294
2589 0 59.2045 15.4211 913 164.604 1175.67 476.016
2590 0 64.0457 14.7863 947 167.097 1174.84 475.019
2591 0 65.3025 15.2062 993 161.535 1176.17 473.818
2592 0 68.2446 14.7558 1007 162.445 1176.12 472.487
2593 0 71.1583 14.9104 1061 163.26 1177.55 471.373
2594 0 74.432 14.8458 1105 160.268 1177.7 469.945
2595 0 76.3637 14.8238 1132 166.27 1176.25 467.709
2596 0 78.2606 15.065 1179 15.0119 1175.92 465.582
2597 0 82.219 14.8019 1217 166.491 1175.55 465.532
2598 1 42.1671 14.0394 592 161.689 1176.13 483.726
2599 0 45.1165 14.0303 633 166.518 1175.39 483.318
2600 0 44.3331 14.4362 640 165.228 1174.98 482.761
2601 0 47.4789 14.2379 676 164.275 1173.48 481.7
2602 0 47.0979 14.5229 684 166.563 1174.94 480.962
2603 0 50.2019 14.103 708 168.742 1172.52 479.849
2604 0 52.565 14.6295 769 167.351 1174.39 478.84
2605 0 54.3515 14.4246 784 167.223 1174.88 478.101
2606 0 56.2691 14.555 819 160.369 1177.35 476.791
2607 0 56.2637 14.8942 838 169.375 1175.83 475.622
2608 0 60.2686 14.6511 883 167.169 1175.62 474.613
2609 0 63.2113 14.7758 934 163.97 1174.33 473.304
2610 0 66.2424 14.1601 938 169.714 1174.66 471.989
2611 0 68.2033 14.3248 977 170.633 1176.46 471.219
2612 0 70.4851 14.6556 1033 161.932 1174.1 469.429
2613 0 73.4589 14.4298 1060 167.39 1176.46 468.226
2614 0 77.3448 14.4677 1119 162.535 1176.24 465.484
2615 0 81.1705 14.6975 1193 164.339 1178.18 464.015
2616 0 83.2559 14.4855 1206 161.932 1174.47 462.493
2617 1 45.171 13.2828 600 162.057 1176.27 480.652
2618 0 48.5447 13.3897 650 166.128 1175.28 479.806
2619 0 49.2486 13.6654 673 166.848 1175.27 478.654
2620 0 48.1772 13.5126 651 160.496 1175.65 478.499
2621 0 51.1997 14.1993 727 162.193 1175.92 477.415
2622 0 52.3213 14.086 737 165.726 1175.28 476.62
2623 0 55.2005 14.0397 775 161.021 1176.77 475.83
2624 0 57.2377 14.2913 818 156.11 1178.61 474.059
2625 0 58.1624 14.4939 843 162.365 1177.22 473.189
2626 0 62.3414 13.9715 871 158.199 1177.11 472.154
2627 0 63.455 14.2936 907 159.664 1177.52 470.786
2628 0 67.4482 14.0552 948 154.847 1177.29 470.022
2629 0 67.1966 14.4948 974 156.986 1178.24 468.509
2630 0 71.3443 13.9885 998 157.458 1177.69 467.26
2631 0 74.2916 14.3892 1069 150.091 1177.64 465.454
2632 0 78.6905 13.9407 1097 153.497 1176.6 464.334
2633 0 81.4712 14.4714 1179 145.601 1176.97 462.014
2634 0 84.1688 14.0551 1183 156.051 1177.26 460.934
2635 0 88.4716 14.2871 1264 155.725 1177.5 458.959
2636 1 47.2497 12.5292 592 157.764 1177.51 478.698
2637 0 50.4391 12.748 643 158.569 1176.97 477.246
2638 0 51.2038 13.1631 674 155.754 1176.82 476.677
2639 0 53.2644 13.6301 726 151.471 1175.64 475.784
2640 0 55.1829 13.3193 735 156.068 1175.49 475.369
2641 0 57.2914 13.6146 780 157.718 1176.43 474.005
2642 0 57.2914 13.6146 780 167.101 1177.43 474.005
2643 0 59.2694 13.6158 807 157.242 1175.56 473.364
2644 0 61.2451 14.0256 859 155.199 1174.48 472.421
2645 0 63.2871 13.9839 885 153.39 1176.81 471.329
2646 0 66.2798 14.7858 980 157.865 1174.09 470.072
2647 0 68.1923 14.3711 980 156.881 1174.81 469.186
2648 0 70.2412 14.2082 998 162.691 1174.74 468.604
2649 0 73.1692 14.6373 1071 159.559 1176.09 466.92
2650 0 75.0998 14.5673 1094 161.343 1174.84 465.548
2651 0 76.2711 15.0385 1147 163.214 1174.99 464.425
2652 0 79.1331 14.9242 1181 162.047 1175.36 463.572
2653 0 83.159 15.284 1271 160.69 1176.43 461.285
2654 0 85.3714 14.9347 1275 152.765 1175.91 459.469
2655 0 88.3312 15.1249 1336 161.679 1176.63 458.523
2656 0 91.2302 15.0608 1374 161.822 1175.03 457.114
2657 0 93.3138 15.3461 1432 163.222 1175.84 456.126
2658 0 97.2791 15.5532 1513 159.592 1174.95 454.116
2659 0 99.307 15.8801 1577 152.978 1175.84 452.995
2660 0 103.382 15.8345 1637 150.074 1175.62 451.222
2661 0 108.11 15.4009 1665 157.258 1176.54 449.907
2662 0 112.131 15.5532 1744 153.912 1175.88 447.815
2663 0 114.283 15.7853 1804 154.757 1175.9 445.882
2664 1 62.3169 13.2548 826 155.719 1176.47 471.505
2665 0 64.2368 13.5592 871 146.873 1174.73 470.305
2666 0 65.1734 13.6405 889 149.601 1175.68 469.841
2667 0 68.2448 13.6567 932 145.956 1174.85 469.133
2668 0 70.186 13.1508 923 157.438 1176 467.124
2669 0 72.2127 13.5433 978 151.131 1174.57 466.326
2670 0 75.2461 13.4625 1013 154.915 1173.75 465.307
2671 0 79.1917 13.1579 1042 153.652 1174.56 463.546
2672 0 81.1467 13.6913 1111 156.23 1173.97 462.199
2673 0 82.1228 13.8086 1134 153.391 1176.39 459.841
2674 0 86.1221 13.9337 1200 152.234 1177.76 458.989
2675 0 87.1832 14.4179 1257 157.342 1174.79 457.605
2676 0 89.1863 13.7914 1230 154.112 1176.29 456.996
2677 0 94.1177 13.6531 1285 151.266 1177.19 455.135
2678 0 96.2412 13.7571 1324 151.39 1175.38 453.931
2679 0 101.132 13.5071 1366 153.821 1175.79 452.454
2680 1 59.0871 11.39 673 145.152 1175.82 475.224
2681 0 62.1097 10.9967 683 144.326 1175.57 474.631
2682 0 63.2088 12.166 769 134.325 1179.1 472.641
2683 0 62.1786 12.4802 776 133.961 1176.02 472.448
2684 0 67.2083 12.4389 836 142.249 1177.11 470.76
2685 0 69.1881 11.5049 796 142.959 1175.06 470.088
2686 0 72.179 12.2473 884 146.622 1176.07 468.857
2687 0 73.2147 12.2926 900 147.503 1175.54 467.639
2688 0 77.3571 12.229 946 141.613 1174.62 465.765
2689 0 79.4064 12.0016 953 140.665 1173.98 464.601
2690 0 80.4965 12.249 986 144.597 1175.17 463.201
2691 0 83.3989 12.1944 1017 135.888 1174.89 462.566
2692 0 86.2502 12.6261 1089 141.622 1175.84 459.64
2693 0 89.534 12.4087 1111 147.926 1175.02 458.728
2694 0 94.3083 12.5758 1186 146.095 1174.68 457.438
2695 0 97.4767 12.3004 1199 137.324 1174.26 456.141
2696 0 100.299 12.5525 1259 142.545 1174.4 454.187
2697 0 103.336 12.8706 1330 137.327 1176.29 451.791
2698 0 104.53 12.4749 1304 134.11 1173.9 451.901
2699 1 59.2658 12.5705 745 137.537 1174.89 473.232
2700 0 60.1321 12.4227 747 141.475 1174.2 472.023
2701 0 62.176 12.4807 776 143.385 1174.32 471.352
2702 0 63.2118 12.3553 781 145.197 1173.53 471.079
2703 0 65.2326 12.2945 802 139.122 1174.01 469.848
2704 0 68.1336 13.0773 891 134.997 1174.29 468.01
2705 0 70.6798 12.7618 902 129.02 1174.33 466.943
2706 0 71.2475 13.2075 941 136.757 1174.16 465.933
2707 0 75.2139 12.8966 970 136.479 1173.73 465.114
2708 0 77.3721 12.7953 990 138.395 1175.49 463.991
2709 0 80.4184 12.9821 1044 131 1174.8 461.993
2710 0 82.398 12.8037 1055 131.773 1174.94 460.607
2711 0 86.4558 12.5845 1088 131.207 1175.47 458.972
2712 0 89.5848 12.9263 1158 134.117 1174.52 456.697
2713 0 91.4841 12.8438 1175 131.799 1176.18 455.943
2714 0 94.3053 13.3821 1262 138.67 1175.58 453.461
2715 0 98.4434 13.1649 1296 133.139 1174.18 451.093
2716 0 101.477 13.3922 1359 138.512 1174.53 449.518
2717 1 54.0183 10.4779 566 133.776 1175.42 473.269
2718 0 57.1917 11.2779 645 128.859 1176.11 471.54
2719 0 59.1766 12.3022 728 129.624 1176.3 470.669
2720 0 63.2725 12.4066 785 129.2 1176.08 469.842
2721 0 63.1651 12.776 807 123.772 1179.04 469.321
2722 0 65.1446 13.1553 857 123.532 1175.59 467.539
2723 0 66.2267 12.578 833 129.876 1176.12 467.008
2724 0 69.2465 13.4592 932 121.849 1177.8 466.177
2725 0 72.2844 13.1425 950 124.032 1178.21 464.817
2726 0 74.3472 13.8808 1032 120.103 1175.08 463.406
2727 0 75.5259 13.5053 1020 127.227 1177.02 462.624
2728 0 79.4418 13.4816 1071 124.173 1177.47 460.343
2729 0 81.4321 13.3608 1088 120.935 1177.43 460.473
2730 0 84.2967 13.844 1167 123.302 1177.6 459.186
2731 0 87.3938 13.3305 1165 125.026 1176.23 456.941
2732 0 89.3517 13.6203 1217 129.597 1176.58 455.491
2733 0 92.367 13.4464 1242 127.032 1175.7 453.461
2734 1 65.3322 11.8012 771 128.763 1176.22 468.307
2735 0 68.1544 11.6647 795 124.567 1176.09 468.292
2736 0 69.1689 11.4791 794 134.53 1174.87 469.196
2737 0 71.2392 11.8334 843 125.161 1173.08 468.197
2738 0 75.2617 12.0779 909 125.138 1173.39 467.22
2739 0 75.2604 12.3704 931 125.865 1175.85 467.138
2740 0 79.1875 12.06 955 128.185 1174.12 465.182
2741 0 81.2215 12.3982 1007 124.649 1175.43 464.521
2742 0 83.3588 12.5482 1046 129.861 1174.78 464.08
2743 0 86.6768 12.1832 1056 128.597 1174.64 463.224
2744 0 90.3784 12.4145 1122 124.086 1172.07 460.867
2745 0 94.3262 12.2872 1159 121.069 1171.79 459.816
2746 1 53.1843 10.9807 584 127.344 1172.34 480.445
2747 0 55.0684 11.7309 646 118.876 1172.92 478.74
2748 0 57.0233 12.4335 709 128.535 1173.5 477.103
2749 0 59.0699 12.426 734 125.676 1175.41 476.823
2750 0 59.1037 12.8926 762 74.6444 1173.76 476.109
2751 0 62.0302 12.4778 774 128.279 1175.75 475.592
2752 0 63.0257 12.3918 781 128.328 1175.13 475.484
2753 0 65.0383 12.5926 819 127.924 1175.21 474.227
2754 0 67.1102 12.5167 840 118.843 1173.45 474.221
2755 0 70.1483 12.6304 886 131.933 1174.64 474.222
2756 0 71.2267 12.369 881 130.56 1174.98 473.377
2757 0 73.1399 13.4537 984 126.413 1175.81 471.598
2758 0 77.2046 13.1469 1015 127.81 1174.83 470.514
2759 0 79.2536 12.9584 1027 128.975 1172.84 470.369
2760 0 81.3578 13.1518 1070 127.949 1173.88 468.964
2761 0 84.1333 13.1696 1108 124.591 1175.28 468.413
2762 0 88.2657 13.1875 1164 132.208 1171.81 466.623
2763 0 90.3345 13.4611 1216 129.209 1175.57 465.397
2764 0 90.1659 13.6748 1233 131.063 1173.38 464.585
2765 0 95.345 13.4459 1282 129.226 1175.34 463.239
2766 0 98.5992 13.7729 1358 134.298 1175.76 459.397
2767 0 102.55 13.8469 1420 129.777 1174.27 457.475
2768 0 106.614 13.4691 1436 133.971 1172.85 456.519
2769 0 109.501 13.735 1504 137.215 1172.76 454.757
2770 0 111.753 14.022 1567 135.618 1173.66 452.976
2771 0 114.741 13.7614 1579 133.164 1173.52 452.535
2772 0 117.704 14.494 1706 141.325 1174.32 451.491
2773 0 123.555 13.8967 1717 135.568 1174.62 448.942
2774 0 126.792 14.6067 1852 139.488 1173.14 445.911
2775 1 76.6352 11.8483 908 139.846 1173.82 472.684
2776 0 78.5719 13.2617 1042 130.95 1172.73 472.51
2777 0 81.4662 12.5328 1021 134.795 1173.43 473.803
2778 0 83.3506 12.9333 1078 132.994 1173.87 471.662
2779 0 87.5647 12.6992 1112 128.365 1172.19 469.414
2780 0 87.5576 12.9743 1136 134.86 1173.09 469.294
2781 0 90.6254 13.1641 1193 137.167 1171.03 467.798
2782 0 93.607 13.4392 1258 131.573 1172.68 465.742
2783 0 96.7787 13.2157 1279 138.249 1172.76 464.833
2784 0 100.493 13.4735 1354 136.98 1173.17 463.053
2785 0 102.784 13.7862 1417 135.715 1172.61 461.963
2786 0 104.493 13.5033 1411 141.838 1172.84 459.758
2787 0 108.621 13.4321 1459 139.417 1171.95 458.772
2788 0 112.63 13.8862 1564 136.366 1173.62 458.316
2789 0 115.631 14.2263 1645 139.109 1173.22 456.475
2790 0 118.651 13.957 1656 142.541 1172.16 454.922
2791 0 122.733 14.5845 1790 141.158 1171.51 452.721
2792 0 125.671 14.1799 1782 144.425 1171.39 452.23
2793 0 127.466 14.2626 1818 141.306 1168.42 450.525
2794 0 133.482 14.369 1918 141.027 1170.83 447.672
2795 0 138.609 14.3642 1991 140.438 1171.7 446.212
2796 0 142.481 13.8896 1979 146.458 1170.59 445.337
2797 0 146.571 14.232 2086 138.236 1170.25 442.997
2798 0 151.642 14.7123 2231 137.189 1171.3 439.771
2799 0 156.667 14.7574 2312 142.835 1171.54 436.686
2800 0 162.745 14.6733 2388 143.248 1172.69 433.665
2801 0 168.813 15.301 2583 141.328 1172.54 431.228
2802 0 172.643 14.5155 2506 141.209 1172.64 429.037
2803 0 179.533 14.7159 2642 135.292 1171.98 427.746
2804 0 185.544 14.8267 2751 144.192 1172.18 422.704
2805 0 193.564 15.2404 2950 140.301 1171.41 419.254
2806 0 201.535 15.2083 3065 137.69 1173.71 415.724
2807 0 208.609 16.1067 3360 132.584 1172.35 410.171
2808 0 212.536 16.5995 3528 133.873 1173.14 406.276
2809 0 221.828 16.8464 3737 131.988 1171.43 402.329
2810 0 227.697 16.5483 3768 133.749 1171.78 399.114
2811 0 236.667 16.6098 3931 134.41 1171.93 395.255
2812 0 245.604 17.0804 4195 127.942 1171.25 391.232
2813 0 252.718 16.6827 4216 124.958 1173.19 386.277
2814 0 252.652 13.8768 3506 143.161 1174.09 389.362
2815 1 63.1516 11.3061 714 124.146 1173.63 485.78
2816 0 64.2004 11.2772 724 121.465 1176.88 484.004
2817 0 67.0668 11.7047 785 122.293 1177.76 486.068
2818 0 68.0636 12.3414 840 121.295 1176.02 485.919
2819 0 72.0854 11.8609 855 128 1175.19 484.745
2820 0 74.0718 12.4339 921 123.67 1176.76 484.142
2821 0 76.1384 12.6874 966 125.274 1176.8 483.278
2822 0 78.2181 12.3629 967 126.07 1176.15 482.146
2823 0 82.1257 12.8462 1055 125.009 1175.57 479.903
2824 0 86.2751 12.7035 1096 123.636 1175.76 478.563
2825 0 88.4152 12.7693 1129 110.797 1175.76 476.496
2826 0 95.4669 15.6075 1490 106.6 1177.83 471.658
2827 1 46.3639 11.8195 548 118.201 1175.51 497.082
2828 0 47.0822 12.1702 573 109.733 1176.77 497.234
2829 0 50.0221 11.8348 592 111.669 1178.98 496.907
2830 0 51.0837 12.0586 616 114.523 1176.07 497.515
2831 0 52.1554 11.83 617 116.938 1175.84 496.822
2832 0 54.1421 12.0054 650 115.737 1175.3 496.12
2833 0 54.0845 12.462 674 121.068 1174.04 495.929
2834 0 58.0487 12.3689 718 125.5 1173.57 494.492
2835 0 59.0744 12.7466 753 119.171 1172.54 493.39
2836 0 62.1902 12.4618 775 121.613 1172.13 492.166
2837 0 61.1007 13.3386 815 124.259 1173.18 491.616
2838 0 66.1298 13.1559 870 124.425 1173.83 490.529
2839 0 66.1404 13.0329 862 122.922 1173.12 490.544
2840 0 69.0579 13.2642 916 126.672 1171.59 489.83
2841 0 70.1107 13.2219 927 125.482 1173.19 489.09
2842 0 73.2637 13.2808 973 125.891 1171.54 488.714
2843 0 76.1273 13.4906 1027 125.985 1171.91 487.479
2844 0 75.1154 14.1382 1062 124.183 1172.69 487.173
2845 0 78.1244 13.7729 1076 124.845 1173.3 485.769
2846 0 81.1666 13.8111 1121 126.349 1172.59 485.543
2847 0 82.0853 14.2656 1171 128.235 1172.13 484.542
2848 0 85.2964 13.7169 1170 127.247 1175.22 484.075
2849 0 85.1902 14.3796 1225 128.367 1173.23 481.602
2850 0 91.2806 13.7488 1255 126.453 1172.03 479.312
2851 0 93.1618 14.4265 1344 132.342 1172.36 479.601
2852 0 95.2797 14.2108 1354 126.162 1172.6 479.124
2853 0 97.264 14.3938 1400 125.415 1173.09 477.779
2854 0 100.18 14.5938 1462 127.44 1172.18 475.804
2855 0 105.077 14.7987 1555 123.66 1172.75 474.475
2856 0 108.177 14.3931 1557 131.397 1170.44 474.038
2857 0 111.271 14.5231 1616 124.098 1171.88 471.473
2858 1 65.2898 12.7432 832 121.989 1172.26 495.639
2859 0 67.1199 12.5745 844 128.637 1172.56 495.02
2860 0 68.1082 13.5373 922 86.0098 1171.18 494.157
2861 0 72.0649 12.8218 924 126.584 1171.17 493.475
2862 0 73.0956 12.9009 943 127.835 1172.2 493.143
2863 0 74.0933 13.6045 1008 127.275 1171.87 491.995
2864 0 75.1702 13.7422 1033 129.029 1170.26 490.947
2865 0 80.0324 13.9319 1115 126.019 1171.61 489.526
2866 0 81.1394 13.9759 1134 127.142 1171.3 488.85
2867 0 83.216 14.0958 1173 122.702 1174.23 488.818
2868 0 87.1589 13.4238 1170 132.26 1173.66 486.961
2869 0 88.0977 13.7234 1209 126.884 1171.98 485.755
2870 0 92.1893 13.8411 1276 125.237 1172.33 483.621
2871 0 96.1418 13.3137 1280 126.895 1171.97 481.901
2872 1 53.1127 11.7298 623 124.342 1172.86 504.274
2873 0 56.0889 11.874 666 122.485 1175.13 503.766
2874 0 57.1064 12.1353 693 119.245 1171.9 502.947
2875 0 59.0348 12.9246 763 118.891 1172.6 501.855
2876 0 60.1537 13.0832 787 129.276 1171.89 501.781
2877 0 62.1036 12.9622 805 128.534 1172.77 501.147
2878 0 64.0859 12.9202 828 122.395 1173.69 500.65
2879 0 66.0965 12.6179 834 126.873 1172.95 499.752
2880 0 67.0578 13.2721 890 128.554 1175.33 499.329
2881 0 69.1756 12.8224 887 129.415 1173.25 499.383
2882 0 77.1739 13.6575 1054 120.343 1175.27 494.304
2883 0 81.1285 13.3615 1084 128.409 1174.21 493.79
2884 0 83.1561 13.3364 1109 129.163 1174.81 493.225
2885 0 85.1152 13.9576 1188 126.689 1174.71 492.197
2886 0 88.2311 13.272 1171 120.757 1173.32 491.937
2887 0 89.2018 13.4078 1196 129.548 1173.52 491.038
2888 0 94.1739 13.3052 1253 121.806 1173.64 489.826
2889 0 94.2707 13.6734 1289 125.919 1173.77 489.058
2890 0 98.2857 13.8169 1358 119.298 1174.86 487.103
2891 0 100.232 13.8778 1391 125.239 1173.63 486.871
2892 0 104.131 13.7519 1432 120.471 1174.88 485.252
2893 0 108.254 13.6346 1476 127.732 1173.69 484.942
2894 0 111.164 13.8084 1535 125.98 1173.85 482.069
2895 0 113.225 13.9103 1575 123.405 1174.69 480.739
2896 0 115.243 13.6754 1576 128.834 1174.36 479.811
2897 0 120.23 13.549 1629 130.54 1174.9 477.688
2898 0 123.136 13.7571 1694 130.033 1174.79 476.084
2899 0 128.312 13.927 1787 125.771 1175.11 473.799
2900 0 132.455 13.8387 1833 123.404 1175.42 472.615
2901 0 137.379 13.7503 1889 127.098 1175.02 470.583
2902 0 140.395 14.0461 1972 121.66 1175.17 468.309
2903 0 146.27 14.2613 2086 123.924 1175.11 465.348
2904 0 152.404 14.3107 2181 122.563 1175.45 464.518
2905 0 156.364 14.3959 2251 120.287 1174.64 461.02
2906 0 163.395 14.2538 2329 121.122 1174.17 459.057
2907 0 168.422 14.6062 2460 116.263 1174.14 454.544
2908 0 175.774 14.4561 2541 120.816 1174.18 451.713
2909 1 103.356 12.1715 1258 119.276 1174.18 487.952
2910 0 107.375 12.6566 1359 119.317 1173.74 486.776
2911 0 108.444 13.3433 1447 113.243 1173.79 484.861
2912 0 114.397 13.0423 1492 106.695 1173.99 482.424
2913 0 115.587 13.2887 1536 113.949 1173.69 482.467
2914 0 119.318 13.4179 1601 117.493 1173.38 479.798
2915 0 123.422 12.8179 1582 113.194 1171.36 477.456
2916 0 128.363 13.2593 1702 110.604 1173.84 475.625
2917 0 132.449 13.3334 1766 113.304 1172.71 473.652
2918 0 138.58 13.3497 1850 112.292 1173.02 470.662
2919 0 143.468 13.3201 1911 113.247 1174.45 468.543
2920 1 86.3277 11.8386 1022 105.752 1175.07 497.997
2921 0 89.1954 11.9961 1070 105.503 1173.06 496.877
2922 0 92.2118 12.3954 1143 112.357 1173.92 495.172
2923 0 95.2242 12.3288 1174 106.001 1172.92 494.105
2924 0 97.3053 12.6509 1231 111.155 1173.29 492.357
2925 0 101.274 12.481 1264 111.603 1174.43 490.608
2926 0 102.245 13.4579 1376 109.219 1174.47 489.307
2927 0 107.264 13.0052 1395 107.298 1175.23 487.442
2928 0 111.285 13.1465 1463 116.748 1173.89 485.981
2929 0 112.201 13.1194 1472 111.783 1173.83 484.184
2930 0 117.527 12.7886 1503 114.801 1171.44 482.995
2931 0 122.284 12.9698 1586 117.886 1174.11 481.129
2932 0 125.593 12.9386 1625 115.042 1174.26 479.43
2933 1 73.1364 11.1162 813 115.626 1176.4 506.193
2934 0 75.3327 12.0134 905 111.255 1173.49 505.591
2935 0 77.2108 12.2781 948 114.334 1175.37 504.26
2936 0 78.1795 12.7527 997 116.834 1174.23 502.916
2937 0 81.1699 12.6032 1023 113.811 1174.49 502.773
2938 0 84.3421 12.8761 1086 111.403 1174.7 501.196
2939 0 86.2646 13.0297 1124 112.077 1172.54 501.062
2940 0 89.2354 13.0554 1165 111.433 1174.52 500.498
2941 0 92.2048 13.3724 1233 112.594 1173.47 497.863
2942 0 93.3093 13.4928 1259 114.561 1173.61 497.628
2943 0 97.2181 13.2074 1284 115.543 1174.21 497.384
2944 0 99.3779 13.4235 1334 116.9 1173.96 495.364
2945 0 103.525 13.6392 1412 117.243 1174.59 493.737
2946 0 107.338 13.3038 1428 116.328 1174.09 492.062
2947 0 110.233 13.4352 1481 116.745 1175.07 490.634
2948 0 115.167 13.4935 1554 112.43 1174.73 489.147
2949 0 118.322 13.2351 1566 117.666 1173.26 487.151
2950 1 68.1259 12.2861 837 113.642 1173.15 513.342
2951 0 69.1842 12.6763 877 105.655 1171.55 511.531
2952 0 71.1165 12.9506 921 112.124 1171.71 511.474
2953 0 72.1969 12.8676 929 113.608 1173.34 510.902
2954 0 75.0973 12.6236 948 114.017 1171.03 510.187
2955 0 77.225 13.0269 1006 114.165 1172.68 508.262
2956 0 79.2252 13.2786 1052 111.658 1172.33 507.599
2957 0 81.1553 13.2955 1079 116.423 1175.88 506.868
2958 0 85.4023 12.9622 1107 110.531 1172.54 505.644
2959 0 87.2043 13.153 1147 116.887 1171.4 504.529
2960 0 88.1941 13.3569 1178 113.834 1172.61 503.366
2961 0 91.2197 13.5168 1233 116.468 1174.03 501.915
2962 0 94.3036 13.3717 1261 117.247 1174.65 501.307
2963 0 96.2231 13.5622 1305 120.48 1173.33 500.326
2964 0 98.1957 13.8601 1361 114.889 1173.38 498.382
2965 0 102.154 13.5285 1382 120.054 1173.54 497.251
2966 0 106.099 13.5628 1439 117.546 1173.26 495.774
2967 0 109.15 13.8525 1512 116.038 1175.2 494.315
2968 0 111.2 14.0557 1563 118.334 1175.17 490.834
2969 0 116.252 13.875 1613 121.02 1172.61 488.64
2970 0 120.179 13.7212 1649 121.195 1173.15 487.415
2971 0 123.161 13.8762 1709 121.991 1172.86 486.74
2972 1 69.0956 11.911 823 118.464 1174.82 514.95
2973 0 73.1011 11.8193 864 115.757 1175.71 513.417
2974 0 74.159 12.4867 926 118.94 1174.72 512.236
2975 0 77.1395 12.2635 946 38.815 1174.66 512.423
2976 0 80.2226 12.5401 1006 118.083 1175.28 510.964
2977 0 82.1784 12.4364 1022 114.421 1173.41 509.752
2978 0 84.237 12.9041 1087 116.372 1174.82 508.442
2979 0 87.2049 13.1873 1150 116.266 1173.85 508.058
2980 0 90.2041 12.7932 1154 115.75 1173.38 505.989
2981 0 93.2077 13.0354 1215 117.649 1175.73 504.551
2982 0 95.2756 12.9204 1231 115.844 1172 502.563
2983 0 97.3993 13.2034 1286 123.613 1174.3 501.503
2984 0 101.275 13.2511 1342 117.677 1176.26 500.054
2985 0 105.409 13.348 1407 116.207 1173.04 497.774
2986 0 108.322 13.1367 1423 114.883 1174.07 497.053
2987 0 110.425 13.602 1502 121.072 1172.79 495.274
2988 0 116.373 13.2075 1537 120.913 1176.19 494.368
2989 0 120.469 13.3811 1612 123.661 1174.12 491.991
2990 0 124.493 13.1493 1637 120.239 1174.02 489.974
2991 1 74.3791 11.9388 888 113.948 1172.97 516.654
2992 0 75.3086 12.5351 944 115.815 1173.65 514.317
2993 0 78.3951 12.539 983 119.532 1172.99 513.398
2994 0 80.3565 12.6063 1013 112.833 1172.39 513.272
2995 0 84.4658 13.0941 1106 109.976 1173.63 511.33
2996 0 86.3035 12.9659 1119 117.411 1174.88 509.466
2997 0 87.6162 13.1368 1151 114.567 1174.22 508.224
2998 0 90.5573 13.0304 1180 115.628 1172.39 507.582
2999 0 92.4765 13.571 1255 120.905 1175.8 506.084
3000 0 97.5401 12.928 1261 122.325 1175.7 506.021
3001 0 99.5169 13.4851 1342 121.003 1174.18 503.422
3002 0 103.514 13.3026 1377 121.223 1174.65 502.853
3003 0 106.403 13.5147 1438 122.497 1174.81 501.882
3004 0 109.472 13.1723 1442 116.355 1174.11 500.608
3005 0 114.461 13.402 1534 129.368 1173.4 499.382
3006 0 116.358 13.1662 1532 124.174 1172.2 495.53
3007 0 122.257 12.9481 1583 123.006 1171.42 494.232
3008 1 68.3757 11.6123 794 120.952 1172.44 519.047
3009 0 72.1021 12.4684 899 117.988 1172.81 521.692
3010 0 74.1399 12.382 918 127.169 1172.2 520.533
3011 0 76.2058 12.7024 968 129.37 1170.29 518.238
3012 0 78.2631 12.3174 964 130.779 1170.89 519.787
3013 0 80.238 12.9614 1040 125.239 1173.7 518.689
3014 0 83.1528 12.5552 1044 128.867 1172.21 518.094
3015 0 85.3188 13.1858 1125 131.899 1172.61 517.305
3016 0 87.2857 13.2324 1155 135.848 1172.58 516.23
3017 0 89.2925 13.0358 1164 136.908 1173.9 514.991
3018 0 92.3653 13.3167 1230 134.18 1174.51 512.1
3019 0 95.3258 13.5325 1290 139.497 1173.69 510.291
3020 0 97.3788 13.3191 1297 140.379 1173.46 509.039
3021 0 102.442 12.9049 1322 140.548 1173.63 506.677
3022 0 104.546 13.286 1389 143.61 1172.83 504.79
3023 0 109.359 13.506 1477 145.696 1174.02 504.407
3024 1 60.2276 12.3199 742 145.008 1172.92 522.051
3025 0 64.0472 13.2558 849 134.078 1174.46 526.969
3026 0 65.1277 12.6981 827 141.701 1174.17 527.632
3027 0 68.1891 13.6825 933 141.02 1173.79 525.459
3028 0 69.2934 12.4832 865 142.832 1173.08 525.95
3029 0 70.1044 12.838 900 141.931 1174.93 525.123
3030 0 72.1477 12.6962 916 146.426 1174.8 524.452
3031 0 75.1671 12.8381 965 146.444 1175.3 523.002
3032 0 76.1327 13.3845 1019 143.122 1174.38 521.549
3033 0 78.1673 13.7014 1071 146.881 1173.51 519.525
3034 0 80.1751 13.2335 1061 153.158 1172.88 519.589
3035 0 84.1416 13.4416 1131 152.872 1175 518.739
3036 0 85.1655 13.1274 1118 155.978 1174.6 517.267
3037 0 89.2337 13.291 1186 156.832 1175.38 515.841
3038 0 91.1997 13.2237 1206 158.587 1175.49 515.675
3039 0 93.2398 13.5993 1268 150.1 1174.48 514.118
3040 0 96.1813 13.2874 1278 149.244 1173.36 510.839
3041 0 97.386 13.8008 1344 155.357 1174.41 510.208
3042 0 99.3398 13.6098 1352 151.119 1173 507.521
3043 0 103.359 13.4773 1393 142.365 1172.24 505.534
3044 0 105.4 14.1366 1490 147.175 1172.14 502.321
3045 0 110.501 13.6831 1512 146.745 1172.94 502.902
3046 0 113.433 13.3736 1517 152.322 1173.01 502.658
3047 1 66.2318 11.3692 753 147.13 1171.58 527.337
3048 0 68.387 12.2684 839 142.265 1171.51 526.081
3049 0 72.0851 12.5823 907 140.411 1171.64 526.163
3050 0 74.1285 12.5188 928 148.365 1171.54 524.966
3051 0 76.1281 12.7942 974 133.136 1172.08 524.017
3052 0 79.074 12.7476 1008 141.686 1171.71 522.713
3053 0 81.3183 12.7401 1036 133.822 1170.9 521.875
3054 0 82.2048 12.8216 1054 141.176 1171.79 519.668
3055 0 85.1413 12.7553 1086 138.593 1173.09 519.083
3056 0 90.2077 12.4491 1123 142.272 1172.43 517.539
3057 0 91.2156 12.6075 1150 134.677 1171.22 516.328
3058 1 51.0959 10.7054 547 139.446 1170.41 535.905
3059 0 53.1376 11.4796 610 137.385 1170.41 535.19
3060 0 54.1327 11.6565 631 133.006 1170.52 534.223
3061 0 56.1921 11.6208 653 133.651 1171.3 533.795
3062 0 56.1303 12.1147 680 140.924 1171.13 533.747
3063 0 58.1035 12.0475 700 141.174 1170.73 533.439
3064 0 60.1554 12.3181 741 139.652 1170.07 532.542
3065 0 62.1534 12.437 773 139.455 1172.51 532.127
3066 0 62.1943 12.5574 781 139.594 1172.28 531.594
3067 0 65.1176 12.5619 818 136.362 1171.37 530.705
3068 0 67.1689 12.9226 868 138.853 1171.6 529.787
3069 0 69.152 13.1594 910 133.646 1171.53 528.723
3070 0 69.1814 13.3273 922 137.413 1172.76 528.28
3071 0 72.2746 12.8123 926 139.581 1171 528.656
3072 0 73.1926 13.0751 957 138.751 1171.92 528.049
3073 0 75.1974 13.0989 985 136.368 1174.02 526.11
3074 0 78.3044 13.4986 1057 130.321 1173.04 524.618
3075 0 81.175 13.4401 1091 137.154 1170.95 523.439
3076 0 81.209 14.1856 1152 136.398 1174.13 522.607
3077 0 86.3444 13.6315 1177 132.56 1172.19 521.118
3078 0 88.36 13.7958 1219 134.093 1170.9 520.412
3079 0 90.3552 13.8786 1254 135.788 1172.88 519.324
3080 0 94.4329 14.0205 1324 145.042 1170.7 517.793
3081 0 96.1854 14.1186 1358 145.955 1172.51 517.557
3082 0 99.3154 13.7844 1369 143.241 1174.46 516.143
3083 0 102.289 13.6867 1400 143.492 1171.62 513.786
3084 0 107.253 14.629 1569 144.729 1174.24 513.344
3085 0 110.339 13.9842 1543 140.572 1172.63 512.508
3086 0 112.442 15.0389 1691 136.525 1172.78 509.95
3087 1 62.1943 12.3484 768 143.223 1174.18 535.086
3088 0 64.2686 13.2569 852 143.829 1172.9 534.705
3089 0 67.1163 13.201 886 138.273 1172.04 530.318
3090 0 67.1033 13.5463 909 142.667 1173.08 533.297
3091 0 69.3033 13.2894 921 139.496 1173.78 532.575
3092 0 70.2565 13.65 959 136.197 1173.99 531.746
3093 0 73.1393 13.7409 1005 145.514 1172.75 530.335
3094 0 75.1233 13.8439 1040 136.798 1174.17 529.441
3095 0 77.1251 14.081 1086 138.246 1173.85 528.432
3096 0 79.1014 14.1085 1116 140.41 1173.89 527.66
3097 0 81.1267 14.0274 1138 142.475 1173.61 526.783
3098 0 84.0747 14.4514 1215 141.216 1172.9 525.441
3099 0 87.2014 14.3461 1251 143.305 1173.19 524.217
3100 0 87.1221 14.5772 1270 137.669 1173.05 523.028
3101 0 93.158 14.1373 1317 142.619 1174.69 521.341
3102 0 95.1116 14.3095 1361 143.242 1173.97 520.514
3103 0 96.0705 14.8537 1427 142.59 1173.99 519.631
3104 0 100.191 14.642 1467 144.911 1172.84 518.318
3105 0 104.17 14.5339 1514 147.458 1173.27 516.419
3106 0 106.158 14.94 1586 146.084 1173.34 514.965
3107 0 110.126 15.0192 1654 146.013 1171.47 513.859
3108 0 116.151 14.464 1680 141.192 1172.04 512.452
3109 0 118.165 15.0636 1780 145.494 1171.72 510.278
3110 1 68.0941 13.7163 934 141.255 1172.72 536.411
3111 0 71.0834 13.4631 957 145.54 1174.33 535.701
3112 0 73.1161 13.8136 1010 146.411 1174.36 534.647
3113 0 74.1913 14.1796 1052 135.126 1174.33 533.498
3114 0 77.0741 13.9346 1074 147.112 1174.66 532.948
3115 0 79.1058 14.0066 1108 146.201 1173.55 531.986
3116 0 82.1463 14.2916 1174 138.707 1173.66 529.795
3117 0 84.0767 14.3203 1204 145.997 1173.92 528.803
3118 0 89.1849 14.4531 1289 140.125 1173.43 527.373
3119 0 91.3266 14.3113 1307 146.234 1174.22 526.122
3120 0 93.1688 14.5972 1360 147.511 1172.96 525.083
3121 0 96.237 14.4435 1390 145.465 1173.11 523.298
3122 0 102.264 14.2573 1458 145.433 1172.46 521.864
3123 0 104.263 14.5593 1518 145.933 1173.06 519.906
3124 0 105.277 14.7231 1550 150.504 1173.68 518.577
3125 0 108.294 14.8115 1604 139.696 1175.02 517.126
3126 0 112.322 14.7878 1661 140.217 1174.83 515.99
3127 0 117.187 14.959 1753 147.48 1175.03 513.812
3128 0 121.25 14.7216 1785 150.602 1174.84 512.453
3129 0 125.189 14.7377 1845 149.588 1176.58 510.554
3130 0 127.191 14.891 1894 139.576 1175.67 508.03
3131 0 133.231 14.8314 1976 144.696 1175.28 504.496
3132 1 78.196 13.1337 1027 146.246 1174.54 532.526
3133 0 82.1521 13.122 1078 142.951 1175.55 531.871
3134 0 84.102 13.7214 1154 144.122 1175.77 530.641
3135 0 85.1716 13.8192 1177 147.868 1174.51 529.182
3136 0 91.1655 13.5578 1236 139.359 1173.39 527.548
3137 0 90.1213 14.2918 1288 149.762 1173.76 525.928
3138 0 94.1391 14.1599 1333 147.626 1173.01 524.422
3139 0 97.1091 13.8092 1341 148.248 1172.84 523.085
3140 0 101.289 13.9699 1415 151.786 1174.01 520.98
3141 0 103.141 14.2717 1472 154.47 1172.04 519.086
3142 0 107.154 14.0733 1508 157.009 1171.42 517.878
3143 0 111.142 14.243 1583 152.109 1172.54 515.765
3144 0 115.211 14.4084 1660 152.287 1172.89 513.692
3145 0 118.28 13.8232 1635 152.142 1171.34 513.249
3146 0 122.145 13.8606 1693 156.996 1171.27 511.171
3147 0 127.117 13.9792 1777 152.366 1172.02 508.413
3148 1 72.1585 12.2647 885 145.898 1169.44 536.259
3149 0 75.1374 12.6834 953 147.322 1172.42 534.513
3150 0 77.0574 12.7827 985 149.208 1172.67 533.619
3151 0 79.1513 13.1394 1040 143.522 1171.62 532.364
3152 0 83.1166 12.8133 1065 148.871 1170.44 531.672
3153 0 85.1687 13.3382 1136 143.888 1171.43 530.254
3154 0 87.1474 13.0928 1141 144.299 1170.76 528.36
3155 0 92.2327 13.1515 1213 142.89 1173.9 528.068
3156 0 94.1742 13.7086 1291 143.917 1171.96 525.661
3157 0 96.2867 13.9583 1344 140.812 1171.35 524.112
3158 0 100.357 13.3722 1342 139.696 1171.89 522.981
3159 0 102.313 13.5369 1385 142.412 1172.79 519.989
3160 0 106.407 13.89 1478 142.099 1174.2 518.761
3161 0 110.63 13.3689 1479 144.853 1172.54 517.698
3162 0 114.416 14.1501 1619 144.223 1173.35 515.53
3163 0 117.514 13.9983 1645 141.596 1173.37 513.198
3164 0 124.428 13.775 1714 142.516 1171.44 512.153
3165 0 127.428 14.2669 1818 137.461 1173.54 508.977
3166 1 71.4669 11.8656 848 136.939 1173.42 537.87
3167 0 74.4312 12.2664 913 139.458 1172.73 536.062
3168 0 77.401 12.5451 971 137.205 1173.87 537.339
3169 0 78.5067 13.0435 1024 137.95 1173.18 536.263
3170 0 82.302 13.3168 1096 141.927 1172.43 535.434
3171 0 84.4188 13.3501 1127 131.255 1173.29 533.807
3172 0 85.3955 13.6073 1162 132.081 1172.73 532.92
3173 0 89.5329 13.4811 1207 138.351 1171.22 532.532
3174 0 90.2121 13.4904 1217 138.553 1173.76 531.58
3175 0 94.4773 13.8022 1304 140.92 1172.75 528.991
3176 0 96.4767 13.34 1287 143.705 1173.95 529.353
3177 0 100.601 13.459 1354 145.779 1173.53 527.264
3178 0 103.28 13.4682 1391 141.893 1173.81 526.155
3179 0 106.359 13.9903 1488 145.616 1174.45 525.954
3180 0 110.429 13.7012 1513 148.044 1172.85 523.674
3181 0 110.429 13.7012 1513 165.079 1171.85 523.674
3182 0 115.346 13.8454 1597 146.024 1174 522.055
3183 0 118.537 14.0125 1661 147.78 1174.97 520.258
3184 0 121.253 14.21 1723 149.836 1176.4 519.345
3185 0 125.301 14.1819 1777 144.5 1173.56 517.46
3186 0 131.447 14.0512 1847 145.091 1175.24 515.067
3187 0 135.254 14.166 1916 147.078 1174.3 513.176
3188 1 79.1931 12.097 958 142.342 1172.82 541.424
3189 0 80.2111 12.6292 1013 139.868 1171.63 540.689
3190 0 83.2415 13.0344 1085 136.947 1176.03 540.524
3191 0 85.1775 13.3016 1133 137.847 1173.86 540.163
3192 0 88.2111 13.1049 1156 137.794 1174.91 539.292
3193 0 89.2676 13.1739 1176 137.369 1173.72 538.431
3194 0 92.1802 13.4519 1240 139.031 1173.59 537.181
3195 0 95.5622 13.6246 1302 137.728 1174.65 535.806
3196 0 97.2547 13.7988 1342 141.937 1173.13 534.441
3197 0 100.626 13.5651 1365 140.718 1173.37 533.567
3198 0 102.402 13.7692 1410 145.487 1172.1 532.945
3199 0 104.337 13.8685 1447 140.992 1173.81 531.544
3200 0 108.605 14.0694 1528 145.245 1171.7 529.565
3201 0 110.348 14.1009 1556 144.612 1172.67 528.334
3202 0 113.571 14.317 1626 143.759 1172.51 527.513
3203 0 115.611 14.3844 1663 146.402 1171.62 524.471
3204 0 120.5 14.2241 1714 142.209 1171.53 522.786
3205 0 125.449 14.0854 1767 137.615 1171.02 520.731
3206 0 130.464 14.3335 1870 138.06 1172.77 518.201
3207 0 133.427 14.7721 1971 139.229 1173.12 516.247
3208 0 140.486 14.4926 2036 136.772 1171.58 514.131
3209 0 142.383 14.5733 2075 132.409 1171.85 511.459
3210 0 149.575 14.588 2182 132.229 1170.97 509.877
3211 0 156.453 14.4836 2266 139.738 1171.34 507.701
3212 1 89.3596 13.0484 1166 133.379 1171.51 539.859
3213 0 93.4668 13.2667 1240 132.457 1172.66 539.057
3214 0 95.3487 13.0888 1248 132.214 1171.63 538.338
3215 0 98.5066 13.0651 1287 134.738 1171.36 536.103
3216 0 101.447 13.1793 1337 135.218 1172.37 534.674
3217 0 106.39 13.4788 1434 131.211 1172.74 532.754
3218 0 108.581 13.6673 1484 128.249 1173.29 530.394
3219 0 111.463 14.0047 1561 128.158 1172.47 528.281
3220 0 115.559 13.8112 1596 133.598 1171.43 526.575
3221 0 119.417 13.3733 1597 131.008 1172.86 525.61
3222 0 122.438 14.0887 1725 128.779 1173.02 524.383
3223 0 126.391 13.9962 1769 127.174 1171.84 522.188
3224 0 131.296 13.7704 1808 126.034 1170.93 521.545
3225 0 136.307 13.9611 1903 129.397 1173.25 519.52
3226 0 140.627 14.4638 2034 125.08 1171.52 516.063
3227 0 145.544 14.0714 2048 120.368 1175.1 513.62
3228 0 151.5 14.3565 2175 113.264 1172.33 510.475
3229 0 156.625 13.9314 2182 122.357 1171.69 508.056
3230 0 161.624 13.8903 2245 127.186 1172.57 506.568
3231 0 167.718 14.1726 2377 126.143 1172.35 502.865
3232 0 173.495 14.1676 2458 129.044 1172.12 499.673
3233 0 179.41 14.1798 2544 129.175 1173.99 498.159
3234 0 184.671 14.5339 2684 128.079 1172.22 494.521
3235 0 191.409 14.6806 2810 126.05 1171.96 492.469
3236 0 198.551 14.6159 2902 127.924 1172.46 488.033
3237 0 203.528 15.2264 3099 136.26 1171.59 485.127
3238 0 209.528 14.8238 3106 134.905 1169.24 483.7
3239 0 215.877 14.9437 3226 126.926 1172.53 479.701
3240 0 221.598 14.9866 3321 137.657 1174.45 477.198
3241 0 228.139 14.4298 3292 138.722 1172.71 475.055
3242 0 235.474 14.5494 3426 137.278 1173.06 472.602
3243 0 246.427 16.1955 3991 137.391 1173.29 465.071
3244 0 253.42 16.155 4094 136.963 1172.48 460.816
3245 0 260.347 16.7622 4364 133.886 1172.3 456.138
3246 1 55.0747 10.7127 590 125.781 1170.37 563.783
3247 0 57.173 11.0367 631 125 1172.74 561.303
3248 0 57.2468 11.826 677 121.795 1172.43 560.942
3249 0 62.254 11.6458 725 123.342 1171.23 562.097
3250 0 62.3228 12.6117 786 121.531 1171.97 562.924
3251 0 64.1954 12.571 807 120.477 1169.15 562.441
3252 0 65.2865 12.5753 821 118.935 1171.49 561.13
3253 0 69.1327 12.4109 858 115.811 1171.61 560.491
3254 0 72.3369 12.5662 909 119.053 1171.79 559.147
3255 0 73.3466 12.3932 909 121.052 1171.9 558.849
3256 0 74.1924 13.128 974 118.783 1173.51 558.109
3257 0 76.3486 13.3074 1016 114.126 1172.67 556.202
3258 0 79.3612 13.029 1034 118.246 1174.69 555.441
3259 0 81.427 13.2511 1079 118.27 1171.38 554.365
3260 0 85.192 13.3228 1135 112.916 1173.47 553.196
3261 0 88.4492 13.2053 1168 115.977 1172.94 552.258
3262 0 90.4029 13.7274 1241 117.886 1173.58 551.044
3263 0 94.3538 13.6083 1284 115.138 1173.46 549.193
3264 0 97.3096 13.9966 1362 114.519 1172.93 545.443
3265 0 100.556 13.5646 1364 115.944 1173.52 545.522
3266 0 104.255 13.4766 1405 113.572 1172.01 542.101
3267 0 104.36 13.5876 1418 113.737 1172.55 540.035
3268 0 109.323 14.2239 1555 120.141 1172.57 539.083
3269 0 114.37 13.7798 1576 119.786 1172.12 538.103
3270 0 120.359 15.9357 1918 111.698 1171.36 532.614
3271 0 67.0718 13.2097 886 115.44 1170.76 546.606
3272 0 69.0971 13.0686 903 117.754 1169.18 548.07
3273 0 70.1423 13.2588 930 115.891 1172.81 549.147
3274 0 71.1776 13.4031 954 118.688 1173.7 551.66
3275 0 72.2532 13.2451 957 123.675 1170.8 552.946
3276 0 74.1577 13.9433 1034 117.859 1169.88 554.395
3277 0 77.1425 13.5723 1047 121.546 1169.4 556.197
3278 0 79.1656 13.6676 1082 126.996 1172.13 556.592
3279 0 82.1852 13.6521 1122 120.093 1172.03 556.078
3280 0 83.2863 14.5522 1212 122.79 1172.39 554.281
3281 0 84.2562 14.2542 1201 120.41 1175.22 553.929
3282 0 88.1261 14.3431 1264 123.738 1173.85 552.267
3283 0 88.135 14.0807 1241 126.705 1173.26 552.361
3284 0 91.4077 14.397 1316 121.505 1172.39 549.567
3285 0 95.2121 14.3574 1367 126.268 1172.93 548.685
3286 0 96.2654 14.1899 1366 125.603 1173.86 548.424
3287 0 100.211 14.6291 1466 121.717 1173.59 546.352
3288 0 101.126 14.1803 1434 131.367 1174.24 546.502
3289 0 103.19 14.42 1488 128.954 1174.65 544.051
3290 0 107.192 14.6279 1568 129.907 1172.91 542.862
3291 0 110.183 14.8662 1638 126.304 1172.49 541.042
3292 0 113.323 14.6484 1660 128.263 1173.14 540.643
3293 0 116.194 14.8115 1721 126.353 1171.61 538.938
3294 0 120.331 14.5432 1750 126.55 1172.18 536.967
3295 0 123.478 14.7475 1821 127.769 1174.01 536.372
3296 0 128.32 14.7834 1897 114.826 1172.62 532.668
3297 1 72.2587 12.5936 910 143.953 1173.92 559.686
3298 0 75.2432 13.6757 1029 139.968 1172.33 560.067
3299 0 75.2376 14.1552 1065 133.918 1172.91 558.671
3300 0 79.1035 13.5519 1072 139.271 1171.99 557.934
3301 0 82.159 13.7173 1127 139.886 1172.26 556.762
3302 0 82.0588 14.0387 1152 138.966 1172.84 555.091
3303 0 86.1225 13.8988 1197 136.131 1173.87 554.338
3304 0 90.2764 13.6359 1231 131.623 1175.19 552.579
3305 0 92.155 14.0307 1293 134.087 1174.95 552.061
3306 0 95.1532 14.5975 1389 130.402 1174.69 550.215
3307 0 98.208 14.1842 1393 136.84 1175.07 550.299
3308 0 100.462 14.3238 1439 144.506 1171.38 548.094
3309 0 104.242 14.5718 1519 141.929 1173.01 547.128
3310 0 107.26 14.4975 1555 143.351 1174.56 546.281
3311 0 109.35 15.0069 1641 136.9 1174.84 544.098
3312 0 111.234 14.9684 1665 142.396 1174.29 544.177
3313 0 116.242 14.9688 1740 148.295 1174.7 543.043
3314 0 119.28 14.8307 1769 144.178 1173.62 541.453
3315 0 124.279 14.8215 1842 148.205 1175.85 539.413
3316 0 127.24 15.4904 1971 132.719 1176.72 537.069
3317 0 132.506 14.6635 1943 147.004 1175.72 535.403
3318 0 136.267 15.1174 2060 147.306 1174.48 533.23
3319 0 140.427 15.1253 2124 150.061 1173.54 529.851
3320 0 145.535 15.3847 2239 142.727 1173.39 526.627
3321 1 84.3703 13.8911 1172 148.793 1170.83 557.955
3322 0 84.2842 14.3206 1207 152.002 1171.98 557.056
3323 0 89.206 14.1134 1259 142.643 1172.83 555.797
3324 0 92.2288 14.0954 1300 144.634 1171.8 555.048
3325 0 97.2377 14.2537 1386 148.629 1171.39 552.679
3326 0 99.2274 14.2803 1417 147.356 1172.1 551.028
3327 0 102.222 14.0674 1438 146.542 1172.66 550.337
3328 0 105.192 14.2121 1495 142.117 1172.21 548.165
3329 0 108.194 14.5479 1574 145.257 1172.17 546.713
3330 0 112.235 14.4251 1619 145.007 1172.71 545.679
3331 0 115.446 14.483 1672 147.105 1173.31 544.01
3332 0 118.205 14.661 1733 144.312 1172.47 542.44
3333 0 122.202 14.3451 1753 142.687 1173.74 540.807
3334 0 126.161 14.7351 1859 142.465 1172.05 538.899
3335 0 128.243 14.878 1908 143.796 1171.57 537.402
3336 0 134.295 14.4682 1943 145.868 1169.01 534.892
3337 0 138.187 14.7554 2039 142.828 1169.93 533.434
3338 1 79.1514 12.3561 978 148.989 1171.95 563.253
3339 0 80.053 13.7534 1101 144.936 1171.86 561.205
3340 0 83.189 13.4513 1119 141.784 1171.24 560.465
3341 0 84.0881 13.5453 1139 142.101 1172.89 559.939
3342 0 88.0784 13.2723 1169 140.643 1171.81 558.894
3343 0 91.0751 13.8128 1258 136.063 1173.67 558.416
3344 0 93.1078 13.9838 1302 141.237 1173.07 557.808
3345 0 97.0736 13.9894 1358 137.158 1172.06 557.022
3346 0 100.052 14.5924 1460 140.628 1172.9 555.253
3347 0 102.156 14.6345 1495 139.115 1171.93 554.227
3348 0 105.142 14.4376 1518 146.99 1174.13 553.257
3349 0 108.109 14.2171 1537 142.382 1172.73 552.25
3350 0 111.136 14.5768 1620 142.064 1173.82 551.038
3351 0 113.144 14.3888 1628 140.092 1173.42 550.646
3352 0 118.424 14.7099 1742 142.433 1175.12 548.03
3353 0 122.143 14.9496 1826 143.35 1175.21 546.598
3354 0 127.078 14.6367 1860 103.109 1173.07 543.661
3355 0 131.09 14.6388 1919 139.248 1172.6 542.061
3356 1 78.0699 13.2189 1032 139.968 1172.72 569.126
3357 0 79.1471 13.9614 1105 137.531 1173.23 568.442
3358 0 83.315 13.611 1134 135.35 1173.25 567.368
3359 0 86.1717 13.8096 1190 145.066 1170.19 566.189
3360 0 87.1601 14.0087 1221 134.938 1172.59 565.082
3361 0 92.2095 14.1309 1303 146.899 1173.16 563.536
3362 0 92.2045 14.1642 1306 141.819 1171.1 562.936
3363 0 97.5146 14.162 1381 142.406 1175.03 561.359
3364 0 98.2009 14.5416 1428 144.148 1172.55 559.719
3365 0 103.489 14.1174 1461 145.194 1172.72 558.431
3366 0 104.358 14.5174 1515 143.872 1171.99 557.432
3367 0 107.352 14.8297 1592 148.7 1172.31 556.013
3368 0 112.56 14.4189 1623 142.323 1172.45 555.077
3369 0 113.291 14.8114 1678 141.648 1174.66 553.359
3370 0 118.425 14.7266 1744 139.752 1172.43 550.911
3371 0 120.25 14.7692 1776 148.067 1171.54 550.525
3372 0 124.48 14.7012 1830 142.849 1172.86 547.344
3373 0 129.719 14.5545 1888 144.102 1173.53 545.723
3374 0 133.532 14.6257 1953 145.536 1174.57 544.121
3375 0 137.548 14.7585 2030 141.913 1173.91 541.726
3376 0 142.433 15.1369 2156 142.8 1172.09 539.053
3377 0 147.389 14.974 2207 143.833 1172.68 536.463
3378 0 152.616 14.8543 2267 152.708 1172.44 535.151
3379 0 157.47 15.0886 2376 157.702 1171.87 532.025
3380 1 88.5221 13.5334 1198 145.039 1173.97 567.005
3381 0 93.6874 13.3636 1252 147.92 1174.29 563.582
3382 0 95.4316 13.7585 1313 154.751 1172 563.098
3383 0 98.5216 13.6518 1345 152.236 1174.17 562.235
3384 0 100.74 14.0758 1418 153.205 1174.98 560.738
3385 0 103.703 14.2812 1481 150.194 1173.98 559.523
3386 0 107.566 14.2238 1530 149.203 1174.42 558.515
3387 0 110.715 14.3431 1588 147.97 1173.32 557.121
3388 0 113.361 14.7228 1669 153.028 1173.85 555.244
3389 0 115.717 14.6391 1694 147.63 1172.52 554.149
3390 0 119.507 14.7941 1768 155.096 1172.99 552.243
3391 0 122.569 14.8324 1818 150.321 1173.87 551.136
3392 0 127.692 14.8326 1894 151.368 1173.7 548.513
