index division length width area intensity CMx CMy
0 0 56.1166 16.1093 904 146.955 1037.11 268.742
1 0 57.0819 16.0822 918 152.476 1039.24 267.831
2 0 60.057 16.1513 970 147.395 1040.77 268.931
3 0 68.0677 20.1417 1371 119.689 1040.64 265.128
4 0 69.1381 18.5426 1282 128.111 1043.3 266.402
5 0 71.11 18.8862 1343 128.583 1040.91 267.198
6 0 71.0314 17.3585 1233 141.766 1039.84 269.584
7 0 73.085 17.6917 1293 146.896 1040.81 270.525
8 0 71.0655 17.5331 1246 144.714 1040.21 272.238
9 0 75.0979 17.6969 1329 144.73 1039.58 272.55
10 0 76.139 17.074 1300 154.783 1037.92 273.102
11 0 78.0613 17.0763 1333 151.701 1037.57 273.237
12 0 80.2216 16.8907 1355 150.782 1036.74 273.313
13 0 84.1953 16.8893 1422 151.617 1036.89 273.283
14 0 87.1701 16.898 1473 147.616 1036.87 273.45
15 1 46.0891 14.5804 672 162.655 1034.84 294.89
16 0 50.0779 14.3177 717 157.169 1033.97 295.349
17 0 49.0453 15.3328 752 159.525 1035.1 295.456
18 0 52.1417 15.0359 784 167.816 1035.13 295.769
19 0 53.0224 14.9936 795 164.282 1032.8 295.819
20 0 55.2029 14.8905 822 162.988 1033.69 296.672
21 0 57.1136 15.3028 874 160.907 1032.16 296.586
22 0 59.1242 15.3068 905 163.482 1031.1 296.101
23 0 62.1328 15.1289 940 153.14 1029.9 295.724
24 0 64.0682 15.1869 973 156.079 1029.84 295.124
25 0 66.1675 15.4154 1020 160.919 1028.28 295.159
26 0 67.1701 15.8404 1064 156.803 1029.91 295.2
27 0 72.0852 15.5649 1122 157.704 1030.3 294.553
28 0 73.129 15.2744 1117 160.033 1031.02 293.901
29 0 76.2426 15.6736 1195 160.348 1031.25 292.52
30 0 79.186 15.7351 1246 158.971 1030.37 290.371
31 0 82.1585 15.6648 1287 160.256 1030.43 289.542
32 0 84.3598 16.0266 1352 154.476 1030.79 288.382
33 0 88.17 15.7083 1385 159.692 1031.44 287.611
34 0 92.1696 15.5691 1435 160.987 1033.75 287.622
35 0 96.2512 15.8232 1523 155.045 1034.23 286.794
36 0 98.1356 15.9779 1568 158.775 1034.58 285.973
37 0 103.134 15.6883 1618 152.87 1037.49 285.85
38 0 105.203 15.5794 1639 152.091 1036.28 286.21
39 0 108.203 16.1086 1743 147.612 1038.18 285.768
40 1 55.084 14.8682 819 149.385 1037.06 311.557
41 0 58.0884 14.8567 863 151.048 1036.63 311.802
42 0 61.1811 14.6287 895 144.942 1036.52 312.059
43 0 64.0876 15.0419 964 143.444 1037.79 312.448
44 0 66.098 14.887 984 145.353 1038.43 313.44
45 0 68.1109 14.9462 1018 139.787 1039.86 313.804
46 0 71.2237 15.0933 1075 138.626 1039.65 314.014
47 0 73.1391 15.327 1121 133.357 1039.34 315.219
48 0 75.2293 15.1537 1140 140.363 1037.01 316.026
49 0 79.1829 14.8896 1179 138.794 1037.27 317.729
50 0 80.2348 15.2428 1223 132.099 1037.22 319.41
51 0 84.2412 15.2657 1286 135.843 1037.89 319.971
52 0 86.2028 15.3707 1325 138.306 1038.52 321.517
53 0 90.264 15.3217 1383 136.616 1036.99 322.964
54 0 92.1866 15.5554 1434 136.999 1037.15 324.306
55 0 98.2225 15.2816 1501 134.862 1034.99 325.536
56 0 100.16 15.3255 1535 131.253 1035.19 327.287
57 0 105.279 14.9983 1579 139.776 1035.33 328.452
58 0 107.21 15.1572 1625 137.064 1035.52 329.199
59 0 112.416 15.5049 1743 135.008 1036.94 329.702
60 0 115.166 15.9683 1839 132.127 1035.95 330.826
61 1 62.1528 14.3356 891 136.021 1034.91 359.649
62 0 65.1839 14.2366 928 137.075 1035.11 361.606
63 0 67.1212 14.1833 952 132.737 1035.91 363.035
64 0 68.1009 14.038 956 141.271 1036.29 364.545
65 0 70.0953 14.6087 1024 140.922 1034.78 366.808
66 0 73.1635 14.2421 1042 132.131 1035.62 368.204
67 0 75.0502 14.2705 1071 142.663 1033.97 369.762
68 0 80.0746 14.3116 1146 137.779 1035.48 371.318
69 0 80.1444 14.5737 1168 140.642 1034.61 372.765
70 0 85.1221 14.0504 1196 138.283 1034.16 374.063
71 0 87.0647 14.1849 1235 143.848 1035.53 374.829
72 1 46.0746 12.7185 586 142.333 1035.24 398.551
73 0 48.0388 13.3642 642 132.475 1035.75 400.534
74 0 48.0547 13.6303 655 132.394 1036.4 403.34
75 0 49.1189 13.7829 677 129.979 1036.56 405.92
76 0 52.0577 13.4466 700 127.933 1036.57 407.959
77 0 53.1347 13.6257 724 126.269 1037.55 409.913
78 0 53.0619 13.6821 726 122.521 1038.17 411.938
79 0 56.0705 13.8576 777 119.521 1037.95 414.444
80 0 60.0853 13.7471 826 122.384 1037.5 416.321
81 0 62.015 13.5451 840 119.965 1037.52 419.742
82 0 63.0612 14.2401 898 117.85 1037.48 422.267
83 0 66.0636 14.2287 940 112.54 1036.59 424.766
84 0 67.2421 14.1727 953 111.396 1036.94 428.359
85 0 70.1199 13.8049 968 110.052 1036.98 431.152
86 0 72.0483 13.7963 994 114.213 1037.95 435.115
87 0 76.1136 14.163 1078 110.979 1039.71 437.911
88 0 78.1088 13.7757 1076 105.23 1038.49 442.121
89 0 81.1529 13.9983 1136 102.051 1038.81 445.639
90 0 84.0982 14.3047 1203 102.61 1037.68 449.597
91 0 87.0896 13.6756 1191 105.937 1038.93 453.933
92 1 45.0939 11.1323 502 111.076 1039.17 480.442
93 0 48.026 10.9108 524 106.616 1039.45 485.097
94 0 50.0786 11.6816 585 105.029 1040.56 489.441
95 0 52.1147 12.4533 649 102.236 1039.1 494.39
96 0 53.1091 12.2578 651 101.851 1038.25 496.86
97 0 53.1399 11.9496 635 105.587 1036.06 496.424
98 0 55.1193 11.8289 652 99.9525 1038.53 496.345
99 0 59.1657 11.8143 699 99.166 1038.33 493.97
100 0 61.1821 11.997 734 98.4482 1036.41 492.926
101 0 62.1492 11.9229 741 96.5654 1037.82 492.699
102 0 65.1693 11.9535 779 101.13 1037.84 491.067
103 0 68.1119 12.1418 827 101.063 1040.05 489.446
104 0 71.2297 11.8771 846 99.0863 1039.23 487.805
105 0 74.1334 12.7743 947 99.3791 1038.37 486.642
106 0 76.2016 12.585 959 104.498 1035.22 485.882
107 0 80.2234 12.2782 985 106.968 1036.09 484.149
108 0 83.1669 13.034 1084 105.15 1036.84 482.042
109 1 42.0876 11.0959 467 101.696 1035.9 501.874
110 0 42.0452 11.8682 499 105.553 1038.02 501.046
111 0 43.0224 12.2494 527 106.66 1038.63 500.051
112 0 46.0122 11.9968 552 112.236 1039.89 498.679
113 0 47.1198 12.2666 578 110.273 1039.12 497.836
114 0 47.0592 12.7712 601 115.165 1037.53 496.96
115 0 50.1206 12.4101 622 111.682 1040.56 496.672
116 0 53.1128 12.577 668 109.639 1039.97 494.781
117 0 53.0625 12.7208 675 114.879 1039.86 494.274
118 0 54.192 12.917 700 112.547 1037.16 493.419
119 0 57.131 12.6901 725 110.724 1037.85 492.124
120 0 58.1027 12.9598 753 110.007 1036.94 491.126
121 0 60.1202 13.5894 817 113.627 1037.85 490.131
122 0 62.0585 12.9555 804 111.582 1038.41 489.175
123 0 66.0691 12.8502 849 113.491 1036.97 487.895
124 0 66.0954 12.9207 854 113.286 1036.93 487.17
125 0 70.0968 12.8394 900 116.333 1036.68 485.487
126 0 72.0535 13.6149 981 112.529 1038.97 484.207
127 0 75.1071 12.7551 958 113.791 1038.57 483.353
128 0 77.1286 12.9913 1002 112.67 1038.51 482.005
129 0 82.1146 12.2755 1008 109.351 1039.75 481.234
130 1 41.1242 11.3315 466 115.23 1039.01 499.296
131 0 41.0721 11.8328 486 111.603 1039.27 498.516
132 0 43.0249 12.3417 531 110.49 1040.61 497.443
133 0 44.0676 12.7985 564 111.544 1037.27 497.156
134 0 47.0928 12.1887 574 115.873 1036.63 495.592
135 0 47.1227 12.5842 593 116.084 1036.74 495.3
136 0 47.0884 13.0181 613 111.755 1035.77 494.747
137 0 49.1448 13.0228 640 113.706 1036.82 494.577
138 0 52.1041 12.8973 672 110.463 1037.76 493.537
139 0 51.1976 13.4186 687 113.202 1038.8 492.802
140 0 54.1716 12.8111 694 117.611 1038.1 492.903
141 0 56.0177 13.1209 735 118.162 1035.98 491.193
142 0 57.1063 13.9914 799 112.035 1036.9 489.951
143 0 59.0503 13.3615 789 117.833 1036.34 490.218
144 0 62.02 13.6569 847 117.656 1034.86 488.991
145 1 75.1331 13.8687 1042 118.556 1038.12 480.23
146 0 77.1528 13.713 1058 126.356 1037.05 479.92
147 0 81.1217 13.942 1131 126.294 1036.72 479.021
148 0 83.2787 13.9171 1159 126.292 1036.57 477.651
149 0 85.1701 13.9251 1186 129.518 1035.02 476.946
150 0 87.1882 14.1992 1238 134.863 1034.82 475.559
151 0 91.2421 14.204 1296 134.948 1036.07 474.246
152 0 94.3372 14.2998 1349 135.491 1037.27 473.534
153 1 50.1627 12.7186 638 23.0392 1036.38 494.749
154 0 49.298 13.8748 684 141.205 1037.92 493.399
155 0 51.2778 14.0021 718 135.737 1036.17 493.153
156 0 53.239 14.0311 747 139.339 1034.5 491.987
157 0 55.3018 14.1948 785 137.987 1035.64 492.073
158 0 57.1629 14.1176 807 139.031 1034.84 490.487
159 0 59.2504 13.8564 821 136.932 1034.48 489.236
160 0 61.237 14.6317 896 138.676 1035.88 488.837
161 0 63.3213 14.3554 909 139.259 1035.79 488.119
162 0 65.3576 14.0611 919 142.684 1036.01 487.338
163 0 65.2635 14.3878 939 141.342 1037.32 486.873
164 0 69.1679 13.9516 965 135.368 1036.56 486.339
165 0 71.2134 14.1406 1007 131.153 1034.62 484.852
166 0 74.2596 14.1127 1048 144.668 1035.39 484.132
167 0 77.2041 14.2739 1102 148.103 1034.12 482.932
168 0 79.3204 13.9056 1103 149.686 1034.48 482.248
169 0 81.3386 14.3966 1171 149.337 1035.01 480.528
170 0 84.2545 14.3138 1206 144.182 1034.08 479.635
171 0 87.3216 14.2233 1242 147.758 1036.82 477.413
172 0 89.2106 14.079 1256 154.927 1037.31 476.897
173 0 94.3766 14.0925 1330 143.882 1034.27 474.829
174 0 97.2476 14.3654 1397 145.009 1034.66 472.874
175 0 100.486 14.2309 1430 149.184 1035.31 471.502
176 1 54.1703 12.9407 701 156.783 1036.84 493.385
177 0 55.0957 13.7034 755 149.678 1034.48 492.893
178 0 59.0408 13.55 800 149.34 1034.09 491.706
179 0 62.302 13.2419 825 152.165 1035.09 489.993
180 0 64.1869 13.2114 848 150.639 1034.73 488.863
181 0 67.0868 13.1322 881 145.549 1034.35 487.61
182 0 69.1563 13.1875 912 148.264 1036.47 486.5
183 0 71.2314 13.3509 951 143.097 1035.46 484.807
184 0 72.2641 13.7828 996 148.917 1036.35 483.47
185 0 75.4369 13.6008 1026 151.498 1035.38 482.314
186 0 79.3284 13.4882 1070 147.066 1036.13 480.528
187 0 83.3997 13.6931 1142 145.222 1035.53 479.709
188 0 85.2374 13.6912 1167 146.23 1036.92 477.665
189 0 87.2781 13.6117 1188 145.598 1037.06 476.748
190 0 91.3451 13.6844 1250 152.248 1037.69 474.866
191 0 93.1579 14.1588 1319 149.837 1036.09 472.579
192 0 98.2623 13.7998 1356 148.554 1036.49 471.501
193 0 101.364 14.2161 1441 149.632 1035.99 469.539
194 0 104.212 14.1442 1474 151.179 1036.81 468.421
195 0 108.259 14.2806 1546 148.734 1037.17 465.445
196 0 112.368 14.3547 1613 142.649 1036.73 463.89
197 0 115.491 14.512 1676 154.095 1036.75 461.33
198 0 119.408 14.4295 1723 152.384 1035.04 459.262
199 0 124.201 14.5973 1813 152.742 1035.2 457.194
200 0 128.426 14.4753 1859 152.019 1036.75 455.216
201 1 66.3338 12.9195 857 150.399 1037.01 484.821
202 0 70.4422 13.0746 921 146.635 1036.71 484.076
203 0 72.2125 13.211 954 151.243 1036.91 483.103
204 0 73.2897 13.6036 997 150.775 1037.91 481.311
205 0 75.3447 13.5909 1024 145.467 1038.91 480.567
206 0 80.4528 13.2624 1067 149.598 1037.38 478.599
207 0 83.3984 13.1777 1099 153.126 1037.65 477.991
208 0 84.4396 13.5481 1144 152.816 1037.12 475.875
209 0 89.5621 13.298 1191 145.427 1037.22 475.205
210 0 92.3876 13.465 1244 153.483 1037.98 473.534
211 0 96.3226 13.4859 1299 148.115 1036.58 470.698
212 0 100.248 13.5564 1359 153.897 1036.55 468.356
213 0 100.266 13.6138 1365 150.623 1037.78 466.848
214 0 107.246 13.5483 1453 148.222 1038.02 464.103
215 1 57.0511 11.4108 651 146.736 1038.14 490.614
216 0 57.1311 11.7799 673 146.223 1037.29 489.814
217 0 59.1281 12.0586 713 140.665 1037.46 487.965
218 0 60.0887 12.4982 751 141.776 1035.95 487.35
219 0 63.0904 12.2047 770 144.942 1036.9 486.462
220 0 66.0524 12.3538 816 143.525 1037.27 484.798
221 0 67.115 12.4264 834 142.601 1037.83 483.801
222 0 67.0714 12.9862 871 140.82 1038.65 482.076
223 0 71.0519 12.6809 901 140.046 1035.44 480.688
224 0 74.1628 12.486 926 134.414 1035.9 479.837
225 0 75.1699 12.7977 962 137.234 1035.25 478.396
226 0 78.0682 12.5659 981 134.536 1037.15 477.067
227 0 81.1683 12.5911 1022 131.12 1038.61 475.551
228 0 84.1222 12.9217 1087 131.572 1038.63 475.041
229 0 86.3763 12.8739 1112 134.772 1038.91 473.118
230 0 90.3055 12.7567 1152 135.46 1038.04 471.885
231 0 92.2413 12.7925 1180 135.234 1035.23 469.732
232 0 95.3008 12.98 1237 125.196 1035.68 467.897
233 1 49.1011 10.7737 529 123.616 1035.03 491.783
234 0 50.2052 11.0148 553 126.602 1037.85 491.257
235 0 53.1184 11.4085 606 117.525 1037.51 489.521
236 0 54.1082 11.6249 629 121.879 1037.49 488.938
237 0 56.122 11.8135 663 124.756 1035.1 488.57
238 0 57.1517 11.7757 673 120.976 1039.06 487.926
239 0 59.1051 11.9956 709 117.123 1035.18 486.66
240 0 60.0994 12.0634 725 127.469 1037.53 486.132
241 0 60.0994 12.0634 725 152.829 1040.53 486.132
242 0 65.1197 11.763 766 127.166 1039.02 483.728
243 0 66.0521 12.0057 793 126.13 1037.26 482.607
244 0 70.1404 11.8334 830 123.271 1036.79 480.774
245 0 72.2381 12.3065 889 125.915 1035.76 479.765
246 0 74.1103 11.9551 886 125.017 1037.56 478.534
247 0 77.2319 12.2877 949 122.715 1037.87 477.632
248 0 79.2923 12.435 986 129.689 1036.75 475.53
249 0 82.276 12.3001 1012 138.825 1037.5 475.027
250 0 85.3106 12.39 1057 134.816 1035.87 473.76
251 0 88.372 12.4813 1103 139.684 1036.43 472.493
252 1 48.0369 10.9916 528 144.759 1037.56 492.256
253 0 51.0972 10.8225 553 145.081 1038.26 490.929
254 0 51.0905 11.5286 589 145.976 1038.25 490.667
255 0 52.0797 11.6552 607 140.507 1037.84 489.675
256 0 53.074 12.1529 645 143.316 1037.39 488.788
257 0 56.102 11.7999 662 141.754 1035.09 488.092
258 0 56.1775 12.4249 698 137.155 1034.44 487.595
259 0 59.1096 12.0285 711 143.845 1034.15 487.015
260 0 61.1656 12.0983 740 141.514 1037.18 485.711
261 0 62.1434 12.5999 783 140.525 1036.98 484.921
262 0 64.1008 12.4335 797 142.609 1035.68 483.991
263 0 66.1329 12.1876 806 148.583 1035.11 483.431
264 0 68.0863 12.6457 861 137.675 1035.81 481.97
265 0 70.1426 12.4888 876 142.205 1038.73 481.289
266 0 72.1022 12.4823 900 143.198 1037.2 479.978
267 0 74.1145 13.1418 974 139.197 1036.99 477.415
268 0 75.0833 13.0388 979 144.114 1036.9 477.494
269 0 79.0677 13.0015 1028 142.922 1036.97 476.218
270 0 81.15 12.9636 1052 142.474 1036.81 474.311
271 1 41.0414 11.4275 469 134.243 1036.72 493.35
272 0 45.0307 11.0813 499 134.585 1036.93 491.301
273 0 45.0886 11.8433 534 127.034 1038.9 490.766
274 0 47.1148 11.525 543 131.816 1036.51 490.414
275 0 48.0787 11.502 553 133.105 1037.24 489.492
276 0 50.1631 11.642 584 133.271 1039.04 487.587
277 0 51.0965 12.0752 617 130.175 1038.4 487.496
278 0 52.0877 12.1718 634 133.115 1038.79 487.144
279 0 55.1214 11.8466 653 128.87 1038.45 487.193
280 0 54.107 12.7895 692 134.811 1038.27 488.026
281 0 57.0781 12.8771 735 138.423 1036.79 487.857
282 0 58.0397 12.8188 744 135.219 1036.25 487.331
283 0 60.0901 12.7142 764 136.353 1037.4 486.817
284 0 61.047 12.8262 783 142.134 1037.69 485.955
285 0 63.1024 13.3751 844 139.949 1037.54 485.064
286 0 65.2158 13.279 866 132.606 1037.6 484.798
287 0 67.0622 13.4651 903 138.987 1036.69 483.046
288 0 70.063 13.2309 927 141.598 1036.13 482.481
289 0 71.0319 13.3039 945 134.541 1038.32 482.007
290 0 74.0476 13.3968 992 140.996 1038.52 480.019
291 0 76.1424 13.501 1028 134.834 1036.42 478.075
292 0 79.11 13.5634 1073 135.972 1036.32 477.163
293 0 81.1336 13.4716 1093 140.608 1037.52 475.948
294 0 85.1159 13.4052 1141 137.098 1038.43 474.381
295 0 87.1592 13.2287 1153 138.652 1037.05 472.887
296 1 45.0595 11.962 539 145.254 1039.5 493.577
297 0 48.172 12.4969 602 141.304 1037.4 492.204
298 0 49.1044 12.5243 615 142.467 1036.03 491.782
299 0 49.1062 12.809 629 142.763 1037.42 491.421
300 0 52.1242 12.8347 669 140.079 1037.75 490.339
301 0 53.1222 13.1207 697 142.466 1037.89 490.129
302 0 52.078 13.4414 700 135.797 1037.98 489.924
303 0 56.1043 12.958 727 143.182 1039.18 489.348
304 0 56.0999 13.5294 759 144.752 1039.2 488.275
305 0 59.1231 13.1421 777 145.371 1037.01 487.539
306 0 59.0795 13.338 788 141.327 1037.57 487.353
307 0 62.2123 13.0682 813 145.528 1037.92 486.223
308 0 62.1512 13.1454 817 144.288 1037.89 485.766
309 0 65.1043 13.3939 872 149.346 1037.31 485.026
310 0 67.1216 13.4234 901 152.366 1035.76 483.797
311 0 71.1155 13.6257 969 148.231 1037.18 481.888
312 0 73.1669 13.6537 999 149.431 1038.33 481.422
313 0 76.0853 13.5506 1031 150.277 1037.82 479.847
314 0 78.1055 13.9811 1092 152.387 1038.13 477.823
315 0 79.0938 14.1351 1118 149.7 1038.93 477.178
316 0 83.1079 14.0179 1165 151.496 1036.81 475.753
317 0 87.099 13.8693 1208 156.132 1038.64 474.439
318 0 89.1058 14.0956 1256 154.198 1038.48 472.631
319 1 44.1229 13.1451 580 150.338 1038.73 493.774
320 0 47.175 12.8246 605 151.074 1037.42 493.398
321 0 49.1932 12.6847 624 157.402 1037.49 492.08
322 0 51.0662 12.7286 650 151.515 1037.11 491.652
323 0 53.0471 13.0639 693 152.215 1036.73 490.733
324 0 55.0773 13.0544 719 149.018 1036.81 489.588
325 0 56.1164 12.9196 725 151.393 1036.13 488.188
326 0 55.0464 13.2979 732 154.878 1035.26 488.038
327 0 58.0724 13.3282 774 146.08 1035.06 486.404
328 0 62.0796 13.1766 818 150.831 1035.35 485.016
329 0 64.0931 13.2932 852 147.061 1038.14 483.978
330 0 65.0168 13.5196 879 147.623 1037.06 483.284
331 0 69.0921 13.4603 930 146.24 1036.34 481.774
332 0 70.1264 13.5327 949 149.694 1039.07 480.701
333 0 74.1395 13.4341 996 147.058 1037.84 478.769
334 0 76.0462 13.4129 1020 148.793 1038.28 477.241
335 0 77.1628 13.789 1064 151.939 1035.79 476.313
336 0 81.1729 13.502 1096 149.408 1037.56 474.433
337 0 83.1649 13.7197 1141 155.662 1038.16 472.868
338 0 89.1129 13.8476 1234 157.867 1036.29 470.35
339 0 92.1732 13.5397 1248 156.49 1036.94 469.507
340 1 48.0583 11.9646 575 160.53 1037.76 490.447
341 0 49.0812 13.2841 652 159.483 1037.48 489.236
342 0 50.1755 13.2136 663 152.116 1037.36 488.617
343 0 51.1243 13.7117 701 154.877 1038.34 487.812
344 0 55.0756 13.1819 726 157.105 1037.02 486.368
345 0 57.0808 13.3145 760 153.7 1037.74 485.816
346 0 57.0808 13.3145 760 172.928 1038.74 485.816
347 0 59.0737 13.9656 825 145.302 1038.57 484.444
348 0 62.0812 13.2407 822 156.481 1038.17 483.335
349 0 63.1084 14.1503 893 155.62 1036.85 482.157
350 0 63.344 14.2397 902 158.15 1038.18 481.731
351 0 68.1572 13.953 951 157.65 1037.88 480.147
352 0 69.1529 13.8534 958 154.298 1038.29 479.314
353 0 73.1354 13.6733 1000 153.549 1037.67 477.724
354 0 75.0589 13.949 1047 153.92 1038.71 476.877
355 0 75.0589 13.949 1047 179.535 1039.71 476.877
356 0 80.1618 13.9593 1119 149.564 1038.69 473.525
357 0 81.1565 14.3303 1163 152.023 1039.86 471.855
358 0 85.206 13.8136 1177 148.195 1040.13 471.001
359 0 89.3288 13.9821 1249 152.753 1039.79 468.736
360 0 93.2171 14.0425 1309 145.386 1037.79 466.483
361 0 96.2536 13.7138 1320 152.573 1039.36 465.008
362 0 97.2436 14.0883 1370 144.975 1037.11 463.526
363 0 102.34 13.6897 1401 155.391 1037.08 461.007
364 1 54.0304 11.475 620 152.195 1037.71 484.973
365 0 56.3636 12.7387 718 149.557 1035.11 484.184
366 0 56.1092 12.8856 723 151.151 1038.3 485.499
367 0 55.0366 13.5183 744 149.44 1037.85 484.836
368 0 58.2538 13.0979 763 151.016 1040.06 483.353
369 0 62.2114 12.6343 786 144.995 1039.46 482.485
370 0 66.1924 12.932 856 146.701 1039.63 481.286
371 0 66.2268 13.2726 879 149.484 1038 480.147
372 0 69.0893 13.1424 908 141.746 1039.36 479.183
373 0 70.2568 13.5503 952 142.459 1039.71 477.691
374 0 73.261 13.3086 975 139.33 1038.71 476.234
375 0 77.1397 12.9635 1000 143.819 1039.14 474.811
376 0 78.1316 12.9909 1015 139.173 1037.92 472.156
377 0 82.3355 12.5827 1036 141.399 1038.54 470.384
378 0 86.1295 12.5393 1080 139.119 1038.53 468.893
379 0 87.1978 12.5691 1096 132.525 1037.76 467.755
380 0 90.3185 13.0317 1177 135.13 1037.85 466.413
381 0 94.0683 12.7035 1195 139.191 1037.59 463.84
382 1 51.0414 11.5201 588 63.6973 1037.12 485.287
383 0 53.0488 12.1963 647 136.124 1037.41 484.096
384 0 53.147 12.5501 667 141.093 1039.16 483.664
385 0 57.1095 12.0821 690 134.546 1037.7 483.223
386 0 57.0913 12.191 696 135.131 1038.4 482.125
387 0 58.0266 12.8562 746 138.747 1035.7 481.338
388 0 61.0696 12.7396 778 140.636 1037.66 480.386
389 0 63.1425 12.8915 814 139.606 1035.91 479.111
390 0 65.0611 12.6496 823 144.571 1038.42 478.6
391 0 67.1049 13.0989 879 140.879 1038.64 477.732
392 0 69.1045 12.908 892 144.323 1038.96 476.543
393 0 72.168 12.9975 938 139.373 1037.51 475.441
394 0 73.0994 13.1739 963 145.347 1038.77 474.781
395 0 74.1344 13.6779 1014 143.813 1038.37 473.322
396 0 79.1071 13.4122 1061 127.993 1037.46 472.369
397 0 81.1393 13.2611 1076 143.526 1038.02 471.215
398 0 82.2988 13.4024 1103 139.087 1038.07 470.434
399 0 85.2503 13.736 1171 140.366 1038.54 468.14
400 0 89.2451 13.4573 1201 145.541 1038.57 466.865
401 0 91.3006 13.921 1271 141.034 1038.74 465.702
402 0 95.2207 13.9045 1324 140.878 1038.51 463.841
403 0 99.3161 13.7641 1367 142.723 1040.39 462.708
404 0 103.296 13.7856 1424 146.888 1038.74 463.584
405 0 105.386 13.8064 1455 143.857 1037.09 461.423
406 0 109.291 14.585 1594 141.071 1037.92 459.2
407 0 113.402 13.9592 1583 137.796 1038.68 458.081
408 0 117.443 14.0749 1653 142.039 1037.1 455.543
409 0 120.384 14.2212 1712 141.999 1038.29 454.717
410 0 122.23 14.53 1776 140.823 1035.11 452.713
411 1 63.0573 12.5441 791 141.501 1035.01 483.073
412 0 66.1225 12.6583 837 138.73 1037.19 481.989
413 0 67.1127 12.9931 872 140.827 1036.4 481.044
414 0 70.0753 12.8861 903 139.05 1037.93 480.303
415 0 73.3315 13.2549 972 135.943 1037.26 478.24
416 0 75.2501 13.196 993 144.246 1036.47 478.056
417 0 79.199 13.3083 1054 147.2 1038.99 477.508
418 0 80.1895 13.5928 1090 138.814 1040.56 475.542
419 0 82.2189 13.5735 1116 143.818 1038.29 473.957
420 0 85.4139 13.9439 1191 141.044 1037.83 472.139
421 0 88.3574 13.5812 1200 140.521 1038.59 471.927
422 0 91.4393 13.714 1254 143.114 1038.2 469.566
423 0 95.2755 13.7601 1311 143.108 1037.92 467.746
424 0 98.2856 13.6744 1344 138.061 1037.68 466.179
425 0 101.416 13.7453 1394 141.468 1037.06 463.541
426 0 105.346 13.8686 1461 142.061 1036.71 462.029
427 0 105.346 13.8686 1461 175.366 1036.71 462.029
428 1 60.1125 12.593 757 140.1 1037.93 484.873
429 0 61.1519 12.5262 766 139.935 1039.1 483.952
430 0 64.0671 12.6898 813 138.001 1038.92 482.731
431 0 63.0666 13.0338 822 142.792 1039.5 482.752
432 0 67.1413 13.0173 874 137.327 1039.15 481.763
433 0 69.1549 12.5949 871 144.534 1038.5 480.49
434 0 72.338 12.9531 937 133.988 1037.69 479.237
435 0 73.2428 13.4075 982 141.882 1040.57 478.647
436 0 75.4659 13.2908 1003 139.746 1038.39 476.624
437 0 78.4463 13.0535 1024 136.579 1040.76 475.704
438 0 79.2163 13.5199 1071 141.841 1039.27 474.044
439 0 83.2653 13.439 1119 138.585 1039.92 473.063
440 0 85.3273 13.372 1141 134.905 1039 472.099
441 0 89.2381 13.3239 1189 136.126 1038.66 469.576
442 0 89.2381 13.3239 1189 165.589 1037.66 469.576
443 0 97.4357 12.8392 1251 134.124 1037.99 466.453
444 0 99.2733 13.2765 1318 135.212 1038.95 463.973
445 0 105.227 12.7819 1345 138.678 1037.54 462.31
446 1 53.0094 11.5451 612 133.42 1040.25 486.902
447 0 56.1192 11.6003 651 130.645 1040.8 486.33
448 0 57.0623 12.0395 687 121.806 1040.62 485.563
449 0 59.1301 11.8552 701 124.465 1039.12 484.421
450 0 61.1116 12.2726 750 120.76 1040.01 483.589
451 0 62.1062 12.221 759 117.679 1038.36 482.676
452 0 64.0674 12.2839 787 122.249 1036.48 481.18
453 0 67.1635 12.2686 824 121.08 1037.37 480.585
454 0 68.0967 12.2913 837 118.685 1036.85 479.269
455 0 71.1223 12.2606 872 124.22 1038.62 478.352
456 0 70.0336 12.7796 895 122.451 1036.74 477.054
457 0 74.0698 12.4882 925 130.002 1035.53 476.288
458 0 77.0946 12.5171 965 127.298 1035.58 475.739
459 0 79.1292 12.7639 1010 127.418 1039.53 473.613
460 0 81.1301 12.8066 1039 125.451 1037.37 472.239
461 0 82.1868 13.4328 1104 128.388 1038.43 471.357
462 0 86.0978 13.2988 1145 128.513 1038.39 469.582
463 0 90.127 13.1703 1187 129.152 1037.49 468.38
464 0 92.0907 13.2912 1224 133.989 1038.58 466.564
465 0 94.1486 13.4468 1266 124.27 1037.69 465.524
466 0 99.0862 13.3318 1321 131.668 1038.08 463.868
467 0 103.271 13.2661 1370 131.822 1037.89 462.004
468 0 106.171 13.2993 1412 127.737 1037.88 459.742
469 1 58.0316 11.511 668 131.428 1035.87 484.9
470 0 59.0704 11.918 704 124.795 1034.36 484.312
471 0 58.1614 12.0871 703 131.193 1036.15 483.206
472 0 63.0816 12.1113 764 130.186 1036.06 482.216
473 0 63.1111 12.581 794 128.073 1035.88 480.865
474 0 66.0915 12.6491 836 136.44 1035.52 480.457
475 0 67.1956 12.6199 848 128.62 1036.87 478.902
476 0 71.1721 12.4487 886 133.221 1036.15 477.714
477 0 73.1882 12.584 921 138.636 1035.95 476.588
478 0 74.1658 12.9844 963 138.492 1037.16 475.845
479 0 78.1744 12.6768 991 142.951 1036.01 474.641
480 0 79.1569 13.0248 1031 135.408 1036.05 473.689
481 0 81.4322 13.0784 1065 128.855 1036.31 471.999
482 0 85.3549 12.9928 1109 130.214 1036.29 470.315
483 0 88.2597 13.0297 1150 138.877 1038.06 468.357
484 0 91.1919 12.6327 1152 141.22 1035.58 467.588
485 0 93.2497 13.0939 1221 138.408 1035.44 465.637
486 1 49.2537 11.7149 577 145.165 1038.23 486.516
487 0 50.071 12.3225 617 139.475 1037.06 486.955
488 0 52.1084 12.474 650 126.558 1037.54 485.566
489 0 54.0885 12.4426 673 128.12 1036.86 485.129
490 0 54.0955 12.7737 691 124.863 1035.29 482.738
491 0 57.0711 12.4231 709 126.585 1036.89 482.622
492 0 60.0373 12.3756 743 119.859 1037.23 482.41
493 0 58.0645 13.0372 757 119.971 1037.33 481.325
494 0 61.1267 12.8749 787 112.079 1036.9 480.135
495 0 63.0451 13.1017 826 110.883 1037.5 479.328
496 0 65.0743 12.8315 835 117.116 1036.12 478.181
497 0 65.1694 13.2424 863 143.14 1038.1 478.235
498 0 68.1138 13.1985 899 121.092 1037.02 476.323
499 0 72.0885 12.9979 937 114.515 1037.86 475.129
500 0 73.1409 13.1664 963 113.926 1039.21 474.031
501 0 74.2773 13.2881 987 117.874 1038.96 473.415
502 0 78.2128 13.2203 1034 113.191 1038.84 472.184
503 0 79.2155 13.4191 1063 114.705 1037.37 470.71
504 0 80.1744 13.9446 1118 114.969 1037.21 469.278
505 0 86.2921 13.6049 1174 113.665 1038.91 467.828
506 0 89.3881 13.5029 1207 114.439 1038.56 465.083
507 0 92.5084 13.6852 1266 112.163 1036.81 463.448
508 0 95.4428 13.7674 1314 103.216 1037.7 461.747
509 0 97.3804 13.7913 1343 95.7372 1038.41 461.727
510 0 103.504 14.2121 1471 102.727 1038.42 460.452
511 0 106.344 14.0393 1493 99.7703 1035.22 458.481
512 1 58.1885 12.5626 731 100.182 1036.75 483.09
513 0 58.0635 13.3302 774 104.85 1039.51 482.757
514 0 61.1624 13.1617 805 101.393 1035.78 481.62
515 0 62.1081 13.1706 818 102.954 1039.26 480.561
516 0 64.1435 13.8128 886 96.3307 1036.76 479.362
517 0 66.2075 13.7598 911 97.2075 1039.02 478.658
518 0 68.2156 13.472 919 98.9576 1036.71 478.211
519 0 71.102 13.2064 939 97.5942 1036.83 477.219
520 0 72.2515 13.6329 985 99.3665 1037.89 475.726
521 0 75.2553 13.7 1031 102.476 1037.15 474.911
522 0 78.1379 13.7577 1075 103.713 1036.53 473.548
523 0 79.1786 13.7158 1086 105.5 1037.15 472.456
524 0 82.24 13.947 1147 105.799 1038.74 471.523
525 0 84.1899 14.0397 1182 106.037 1037.35 468.786
526 0 89.3557 13.5302 1209 105.529 1037.06 468.061
527 0 93.4098 14.0028 1308 99.0849 1036.39 464.745
528 0 96.4204 14.3538 1384 99.5686 1035.6 463.427
529 0 99.4462 13.5752 1350 97.9882 1035.75 462.049
530 0 102.399 13.6525 1398 97.8491 1035.1 461.009
531 0 104.274 13.7906 1438 93.1829 1036.46 460.161
532 0 108.274 13.5766 1470 105.213 1038.48 458.449
533 1 54.1395 12.2277 662 101.749 1037.47 485.597
534 0 57.1479 12.0214 687 94.7249 1039.75 484.432
535 0 59.017 12.759 753 92.741 1038.54 484.815
536 0 60.1101 12.8265 771 89.9261 1036.3 484.263
537 0 63.0446 12.7687 805 92.1155 1037.07 483.724
538 0 64.0415 13.2258 847 95.4664 1036.65 483.004
539 0 65.0754 13.2308 861 93.856 1036.99 482.002
540 0 66.131 13.9269 921 86.0814 1038.18 481.318
541 0 69.0523 13.8446 956 92.6077 1037.3 479.245
542 0 70.0994 14.1513 992 92.6079 1036.74 478.711
543 0 72.1978 14.0863 1017 91.3117 1035.55 477.903
544 0 76.1203 14.0961 1073 92.2675 1036.2 476.842
545 0 79.1859 14.0682 1114 92.1661 1035.86 474.921
546 0 82.2522 14.0543 1156 92.4187 1037.12 473.181
547 0 86.1744 14.0645 1212 96.1906 1037.58 472.215
548 0 88.3372 14.2748 1261 105.155 1036.81 470.508
549 0 91.2441 14.3242 1307 100.105 1039.32 468.902
550 0 95.2528 14.7922 1409 102.651 1036.45 467.414
551 0 97.3181 14.2625 1388 106.055 1035.59 466.449
552 0 100.422 14.2599 1432 105.263 1038.34 464.138
553 0 104.392 14.3115 1494 105.165 1037.33 462.75
554 1 54.2453 12.5909 683 110.146 1039.77 486.438
555 0 57.119 12.7103 726 111.671 1036.83 485.821
556 0 57.0598 13.1441 750 114.927 1037.1 485.239
557 0 61.1462 12.9362 791 117.277 1037.15 484.766
558 0 61.0898 13.1282 802 120.313 1035.82 484.812
559 0 63.1305 13.385 845 120.04 1037.88 482.846
560 0 65.1312 13.5419 882 120.349 1037.33 481.599
561 0 68.1843 13.3462 910 120.146 1037.68 480.026
562 0 69.1679 13.619 942 121.779 1037.98 480.051
563 0 73.1757 13.4198 982 115.822 1039.34 479.034
564 0 74.2703 13.8548 1029 116.578 1040.11 477.755
565 0 77.0763 14.1159 1088 118.427 1039.12 476.208
566 0 81.1134 13.3887 1086 120.769 1039.39 475.283
567 0 81.2295 13.9604 1134 120.891 1039.94 473.34
568 0 85.2937 13.647 1164 112.94 1039.05 471.947
569 0 88.2715 13.6964 1209 118.506 1038.69 470.714
570 0 90.1833 14.0713 1269 115.14 1038.96 469.24
571 0 94.1696 14.0491 1323 105.872 1036.48 466.982
572 0 97.0931 13.7394 1334 103.733 1036.36 465.515
573 0 101.239 13.5126 1368 102.898 1034.85 464.276
574 1 52.0664 12.4649 649 107.767 1038.26 487.578
575 0 54.0896 12.3684 669 103.874 1037.16 486.326
576 0 55.0612 12.9856 715 104.743 1038.79 486.204
577 0 56.0749 13.268 744 104.43 1037.43 485.29
578 0 58.1623 12.9981 756 104.255 1039.99 484.372
579 0 58.203 13.1437 765 105.945 1038.29 483.924
580 0 62.2446 12.9168 804 95.1194 1037.35 482.246
581 0 62.355 13.792 860 109.571 1039.6 482.012
582 0 65.2536 13.3632 872 115.339 1038.79 481.136
583 0 66.2362 13.316 882 112.661 1038.32 480.12
584 0 69.1626 13.9526 965 114.436 1035.29 478.18
585 0 71.3308 13.6827 976 109.644 1036.17 477.396
586 0 73.3131 14.1448 1037 105.586 1035.67 475.596
587 0 73.257 14.2648 1045 104.462 1036.68 474.384
588 0 78.3538 14.1155 1106 100.085 1037.36 473.258
589 0 79.2504 14.2838 1132 62.7085 1037.51 472.387
590 0 82.1971 14.5747 1198 116.73 1037.88 470.957
591 0 86.2452 14.4356 1245 112.447 1037.75 469.406
592 0 89.1694 14.7696 1317 116.297 1037.91 467.434
593 0 90.247 14.4271 1302 115.754 1037.98 466.683
594 0 92.3049 14.5604 1344 117.166 1035.73 464.728
595 0 97.231 14.2958 1390 112.527 1036.66 463.974
596 0 99.4696 14.4768 1440 116.986 1034.24 463.049
597 0 103.348 14.3302 1481 109.265 1036.39 461.358
598 0 105.222 14.5977 1536 111.47 1034.62 459.938
599 0 107.231 14.4082 1545 110.463 1036.86 458.874
600 0 112.185 14.5919 1637 106.732 1038.12 456.877
601 0 116.188 14.5196 1687 108.507 1036.42 454.513
602 1 60.1483 12.5523 755 93.2132 1037.14 482.483
603 0 62.1325 12.6021 783 94.8863 1035.82 481.554
604 0 63.2329 13.0154 823 92.8651 1036.96 481.266
605 0 66.2809 12.6432 838 95.8067 1036.15 479.369
606 0 66.2846 13.3214 883 93.7871 1036.44 478.767
607 0 70.2137 12.7468 895 101.389 1036.73 478.187
608 0 70.2178 13.4154 942 105.132 1037.9 476.908
609 0 74.1913 13.2226 981 105.083 1035.52 476.189
610 0 77.1633 12.8429 991 108.308 1036.58 474.749
611 0 78.1605 13.2932 1039 106.552 1036.51 474.148
612 0 82.1464 13.4881 1108 116.963 1034.89 472.496
613 0 83.2023 13.3169 1108 111.232 1035.12 471.215
614 0 87.2294 13.1492 1147 109.71 1035.28 469.878
615 0 91.2724 12.8626 1174 109.262 1035.91 468.705
616 0 94.1846 13.2506 1248 111.246 1037.46 466.063
617 1 47.2392 12.4685 589 113.514 1037.56 488.65
618 0 47.0792 12.8932 607 108.811 1037.49 488.786
619 0 49.1188 12.8057 629 109.186 1036.87 487.488
620 0 50.1168 12.431 623 107.979 1037.09 487.186
621 0 52.1844 12.7241 664 112.011 1037.94 486.33
622 0 54.1862 12.9 699 110.217 1037.42 485.906
623 0 56.2139 12.6481 711 114.861 1036.47 485.098
624 0 57.0747 13.4911 770 107.542 1036.13 483.958
625 0 60.1913 13.3076 801 102.889 1037.68 482.814
626 0 61.2031 13.5451 829 109.214 1037.6 481.662
627 0 63.155 13.4114 847 112.904 1035.59 480.749
628 0 64.1058 12.9941 833 122.969 1035.83 479.748
629 0 66.2576 13.2362 877 119.949 1036.02 478.28
630 0 68.2295 13.6158 929 115.014 1036.17 477.809
631 0 71.1079 13.3881 952 116.064 1036.14 476.822
632 0 74.2631 13.3983 995 113.558 1035.82 476.168
633 0 75.313 13.3576 1006 120.984 1038.09 474.968
634 0 80.2465 13.2591 1064 112.692 1038.42 472.909
635 0 82.4208 13.4796 1111 117.668 1038.22 471.988
636 0 84.2783 13.1351 1107 119.519 1037.37 470.824
637 0 87.3608 13.5988 1188 114.743 1039.51 468.522
638 0 91.2754 13.4319 1226 108.686 1036.62 468.208
639 1 45.2117 11.8996 538 114.805 1038.2 489.615
640 0 47.2828 12.4147 587 115.147 1036.59 488.944
641 0 49.1152 12.7659 627 106.864 1037.43 488.464
642 0 49.089 13.119 644 109.042 1035.46 487.806
643 0 49.089 13.119 644 162.102 1033.46 487.806
644 0 51.2346 13.2137 677 109.95 1036.69 486.557
645 0 53.1303 13.2316 703 108.845 1033.75 486.06
646 0 52.0909 13.8028 719 104.853 1036.01 485.434
647 0 56.0931 13.3706 750 103.199 1036.85 484.691
648 0 56.0873 13.8534 777 102.781 1038.34 484.275
649 0 60.0903 13.4464 808 110.73 1037.49 482.772
650 0 63.1202 13.2763 838 103.796 1041.29 482.433
651 0 63.0641 13.2722 837 105.186 1038.99 481.458
652 0 64.0676 13.954 894 105.974 1036.85 480.746
653 0 67.112 13.8127 927 112.454 1038.08 480.352
654 0 69.0454 13.9329 962 114.528 1037.51 480.071
655 0 71.0872 14.025 997 116.1 1037.48 478.802
656 0 73.0397 13.6775 999 115.896 1036.67 477.98
657 0 75.066 13.9877 1050 113.738 1037.2 476.86
658 0 76.1515 14.3661 1094 112.297 1034.88 475.806
659 0 81.0899 14.3914 1167 116.258 1035.78 474.524
660 0 82.1315 14.2333 1169 121.232 1036.8 473.808
661 0 86.1478 14.2198 1225 118.166 1036.02 472.353
662 0 88.135 14.3189 1262 119.399 1039.45 471.543
663 0 91.1222 14.1897 1293 114.244 1039.15 470.572
664 0 93.1938 14.3464 1337 114.822 1037.3 469.318
665 1 49.1225 12.7844 628 112.565 1036.78 490.952
666 0 51.1251 12.9682 663 110.217 1034.96 489.89
667 0 54.045 13.5628 733 105.236 1035.64 489.173
668 0 55.0444 14.1704 780 104.912 1036.3 487.804
669 0 56.0281 14.4035 807 105.254 1035.5 487.301
670 0 58.1427 14.6536 852 103.018 1036.67 486.178
671 0 62.1068 14.1852 881 105.688 1035.97 484.889
672 0 65.1074 14.3916 937 103.24 1036.62 483.814
673 0 65.0356 14.4844 942 117.876 1035.18 483.386
674 0 69.088 14.1993 981 114.608 1035.59 482.151
675 0 71.1677 14.8804 1059 118.68 1036.04 480.693
676 0 73.2717 14.8352 1087 117.038 1035.04 480.039
677 0 76.1562 14.943 1138 122.199 1036.52 478.757
678 0 78.1862 14.9131 1166 115.232 1037.03 477.39
679 0 80.155 14.9336 1197 110.744 1035.25 476.625
680 0 82.3486 15.3008 1260 110.244 1035.51 474.978
681 0 86.2638 15.0932 1302 118.65 1036.37 472.667
682 0 89.3291 15.1015 1349 123.136 1036.22 471.643
683 0 92.3446 14.944 1380 119.663 1036.87 469.968
684 0 95.193 15.2322 1450 114.29 1035.81 468.532
685 0 99.1904 15.1829 1506 121.691 1035.9 466.471
686 0 103.233 15.1405 1563 127.713 1036.97 464.925
687 0 107.222 14.9317 1601 130.602 1033.73 462.989
688 0 109.223 15.0793 1647 128.733 1034.53 460.934
689 1 59.1871 14.243 843 136.623 1036.31 485.044
690 0 60.2453 14.192 855 135.796 1035.22 484.255
691 0 62.1144 14.586 906 128.659 1035.18 483.067
692 0 66.1349 14.4251 954 131.444 1035.06 481.525
693 0 67.161 14.5174 975 130.327 1036.59 480.443
694 0 69.3437 14.6084 1013 122.966 1036.26 479.102
695 0 71.1854 14.6238 1041 129.301 1036.29 478.038
696 0 74.1998 14.8518 1102 130.906 1036.43 476.982
697 0 76.2727 14.3695 1096 145.193 1035.43 476.17
698 0 80.2188 14.2735 1145 145.549 1036.28 474.151
699 0 83.1567 14.8996 1239 146.437 1033.79 472.086
700 0 86.187 14.2713 1230 151.176 1035.55 471.199
701 0 88.2539 14.5149 1281 148.71 1033.48 469.493
702 0 92.2126 14.7594 1361 150.193 1035.59 467.965
703 0 97.1384 14.6698 1425 150.166 1035.37 465.302
704 0 100.236 14.8349 1487 146.458 1034.82 463.708
705 0 103.266 14.7386 1522 150.01 1034.57 462.196
706 0 107.206 14.6167 1567 147.482 1034.8 460.579
707 0 112.268 14.5366 1632 145.222 1035.43 457.355
708 1 60.1766 13.3274 802 149.586 1036.72 482.112
709 0 63.1763 13.4702 851 144.216 1034.11 480.568
710 0 63.2406 14.2788 903 143.405 1037.87 479.282
711 0 68.2962 13.8661 947 135.565 1037.67 478.366
712 0 70.2045 14.0447 986 110.433 1036.54 476.514
713 0 73.2025 14.1935 1039 111.409 1036.33 475.7
714 0 75.2448 13.981 1052 111.09 1036.56 474.809
715 0 77.3008 14.049 1086 127.902 1034.47 473.193
716 0 79.1325 14.1535 1120 127.382 1034.21 471.805
717 0 82.2455 14.2257 1170 125.068 1033.94 469.88
718 0 85.1469 14.3634 1223 120.454 1032.31 468.518
719 0 88.2747 14.4096 1272 119.594 1035.84 467.176
720 0 91.3416 14.4184 1317 117.852 1035.92 465.462
721 0 94.357 14.3922 1358 113.66 1036.32 463.585
722 0 98.2233 14.6503 1439 118.065 1037.34 461.727
723 0 101.24 14.3817 1456 120.967 1036.66 460.583
724 0 105.255 14.4886 1525 120.243 1038.69 458.466
725 0 109.259 14.7082 1607 117.048 1037.78 456.195
726 0 111.143 14.4408 1605 122.707 1036.78 454.868
727 0 116.254 14.1845 1649 123.865 1034.78 452.13
728 0 122.151 13.8762 1695 124.448 1036.39 450.314
729 1 66.0738 11.6688 771 123.271 1036.35 478.53
730 0 67.0795 12.4181 833 113.956 1035.29 476.884
731 0 70.2473 12.3564 868 121.318 1033.41 475.955
732 0 70.2 12.9915 912 122.062 1035 475.012
733 0 76.268 12.561 958 144.247 1035.59 473.606
734 0 77.1903 12.8902 995 136.836 1036.18 471.611
735 0 82.2588 12.4485 1024 139.491 1035.57 469.813
736 0 85.4615 12.9064 1103 139.942 1036.67 469.277
737 0 87.1243 12.8782 1122 139.957 1034.82 466.965
738 0 90.1594 12.7885 1153 133.878 1039.58 466.474
739 0 95.1818 13.0277 1240 135.356 1035 463.924
740 0 98.1586 12.9281 1269 134.233 1035.97 461.245
741 0 101.202 13.0235 1318 129.998 1035.52 460.67
742 0 104.253 12.8246 1337 131.625 1034.79 458.968
743 1 56.0962 10.892 611 121.453 1034.94 483.349
744 0 58.1792 11.4646 667 121.91 1036.39 481.778
745 0 59.1315 12.1762 720 137.515 1037.61 480.239
746 0 62.0838 12.3382 766 129.675 1034.91 479.735
747 0 62.1263 12.2331 760 135.441 1034.98 478.803
748 0 66.0979 11.8915 786 136.776 1035.23 477.43
749 0 67.1136 12.4714 837 132.282 1036.73 476.348
750 0 69.1615 12.1744 842 134.564 1038.37 475.823
751 0 72.274 12.3004 889 134.909 1037.13 474.094
752 0 72.1276 13.1156 946 135.182 1036.04 473.128
753 0 75.3844 12.8276 967 133.854 1036.46 471.483
754 0 79.4014 12.8209 1018 99.4037 1036.79 470.36
755 0 82.4354 12.81 1056 128.399 1037.5 468.209
756 0 85.5566 12.8219 1097 132.508 1037.39 468.046
757 0 87.3952 12.8954 1127 133.982 1035.96 466.308
758 0 91.2653 12.9293 1180 132.393 1038.26 465.487
759 0 94.2151 13.0871 1233 134.272 1035.59 462.045
760 0 96.3051 13.6234 1312 133.074 1037.82 461.214
761 0 99.2494 12.927 1283 135.183 1038.19 459.904
762 0 104.186 13.0439 1359 137.163 1038.62 457.769
763 1 53.1654 11.8122 628 131.296 1038.02 483.723
764 0 54.1415 12.3565 669 130.632 1038.82 483.111
765 0 58.0761 12.3803 719 130.097 1037.61 482.576
766 0 58.0823 12.6372 734 130.772 1034.7 481.655
767 0 59.0573 13.2075 780 130.613 1036.01 480.676
768 0 61.0304 12.8788 786 126.089 1037.89 480.48
769 0 63.1055 12.8832 813 131.834 1035.26 478.843
770 0 63.028 13.2005 832 128.844 1037.97 478.988
771 0 65.048 13.1441 855 129.463 1037.17 478.243
772 0 68.1353 13.1356 895 127.15 1035.56 476.703
773 0 69.1565 13.1296 908 130.525 1036.89 476.247
774 0 72.1759 13.2593 957 126.589 1038.15 474.867
775 0 74.1595 13.5788 1007 127.495 1036.54 474.13
776 0 75.227 13.6919 1030 124.81 1038.08 473.213
777 0 77.2126 13.8967 1073 124.907 1037.82 471.339
778 0 81.1318 13.6938 1111 125.508 1037.71 469.392
779 0 83.2083 13.5563 1128 128.392 1036.52 468.288
780 0 87.3335 13.3969 1170 123.423 1036.22 466.11
781 0 88.284 13.5132 1193 124.514 1036.6 463.544
782 0 92.1869 13.2448 1221 125.651 1036.2 463.079
783 0 95.0572 13.0553 1241 124.163 1038.04 461.185
784 1 49.1711 11.3685 559 123.367 1036.88 483.589
785 0 50.202 12.9676 651 118.323 1039.71 483.786
786 0 54.0188 12.4956 675 122.48 1035.68 483.259
787 0 56.1705 12.1772 684 121.861 1034.82 483.01
788 0 57.0703 12.4934 713 120.001 1035.48 481.909
789 0 60.0513 13.1887 792 120.082 1036.4 481.213
790 0 59.0218 13.351 788 120.156 1035.97 481.47
791 0 62.0807 13.0797 812 119.722 1036.26 480.339
792 0 63.0527 13.5125 852 120.656 1036.92 479.961
793 0 66.0633 12.9119 853 117.115 1037.15 478.947
794 0 67.046 13.7965 925 113.781 1037.37 477.672
795 0 70.056 13.9032 974 118.974 1038.35 477.337
796 0 70.1081 14.2352 998 117.824 1037.78 476.86
797 0 74.0584 14.1375 1047 121.122 1039.02 475.348
798 0 76.0411 13.5322 1029 114.101 1037.02 475.096
799 0 78.1458 14.3834 1124 114.873 1037.75 473.815
800 0 79.1825 14.435 1143 125.419 1035.9 473.742
801 0 83.1562 14.3706 1195 123.096 1036.45 471.792
802 0 86.1265 14.2697 1229 126.08 1034.28 470.413
803 0 89.2293 13.9416 1244 127.259 1037.51 469.199
804 0 91.1034 13.9731 1273 127.934 1036.67 468.458
805 0 94.105 14.25 1341 122.303 1035.66 466.603
806 0 95.0934 14.2491 1355 131.362 1037.34 465.753
807 0 98.1313 14.3583 1409 127.381 1037.83 464.938
808 1 50.1608 11.9615 600 126.998 1036.7 489.312
809 0 50.1502 12.5423 629 122.787 1036.65 489.059
810 0 53.0486 12.5168 664 121.268 1037.51 488.435
811 0 53.0234 12.6925 673 120.837 1037.66 487.608
812 0 54.101 13.0312 705 121.959 1037.97 487.858
813 0 57.1247 13.0591 746 120.676 1038.24 486.576
814 0 57.1259 13.2864 759 119.822 1037.11 485.763
815 0 60.0622 13.4194 806 122.213 1035.55 484.439
816 0 60.1893 13.4908 812 120.966 1037.31 484.39
817 0 63.0656 13.5256 853 117.455 1038.66 483.708
818 0 64.0748 13.5467 868 121.061 1037.28 482.986
819 0 67.1743 13.5915 913 119.012 1037.25 481.576
820 0 69.0914 13.5183 934 117.625 1037.26 480.905
821 0 70.0779 13.5991 953 117.365 1038.46 479.274
822 0 73.1697 13.8719 1015 115.526 1038.08 478.05
823 0 75.1724 13.6885 1029 120.461 1037.29 477.26
824 0 78.2588 13.8004 1080 118.205 1036.57 475.944
825 0 79.18 13.9682 1106 125.612 1036.51 473.829
826 0 83.2347 14.1768 1180 119.795 1036.71 471.899
827 0 86.2564 14.1323 1219 121.673 1037.56 470.307
828 0 86.2564 14.1323 1219 166.332 1038.56 470.307
829 0 91.2254 14.5354 1326 122.164 1038.98 467.565
830 0 96.1781 14.4835 1393 126.232 1037.1 465.097
831 0 100.13 14.9506 1497 119.26 1037.16 464.556
832 0 103.34 14.4571 1494 114.667 1037.49 462.375
833 0 106.17 14.2601 1514 122.278 1037.15 461.337
834 1 57.0346 13.0272 743 118.412 1038 484.491
835 0 58.0457 13.5583 787 122.183 1039.67 483.612
836 0 61.0461 13.5963 830 116.565 1038.63 482.429
837 0 63.1185 13.5301 854 121.08 1038.52 481.509
838 0 66.0652 13.4261 887 120.131 1037.96 480.444
839 0 67.0707 13.538 908 120.144 1038.56 479.662
840 0 69.089 13.982 966 118.893 1036.8 478.09
841 0 73.1585 13.9013 1017 123.766 1036.45 476.622
842 0 76.1181 13.6893 1042 118.655 1039.79 475.842
843 0 77.1125 14.226 1097 124.408 1037.35 473.899
844 0 81.1296 13.6325 1106 124.935 1036.29 472.897
845 0 82.1007 13.8245 1135 118.915 1037.37 471.034
846 0 86.1366 13.6063 1172 130.951 1037.08 469.292
847 0 90.062 13.8349 1246 131.968 1037.26 468.648
848 0 92.1464 13.4568 1240 129.504 1036.43 466.56
849 1 45.0709 12.3139 555 128.557 1037.84 488.121
850 0 48.1614 12.4166 598 131.293 1040.45 487.51
851 0 49.1254 12.5393 616 128.755 1037.22 486.834
852 0 50.1239 12.908 647 131.4 1036.85 486.651
853 0 52.1259 13.218 689 128.567 1035.04 485.681
854 0 51.094 13.0348 666 131.506 1036.05 484.731
855 0 54.1029 13.6037 736 126.702 1036.71 483.541
856 0 54.0548 13.3383 721 128.659 1038.53 483.451
857 0 57.1056 13.5013 771 128.112 1037.89 482.104
858 0 59.1107 13.5001 798 126.192 1037.69 481.608
859 0 60.0827 13.8642 833 124.747 1036.43 480.553
860 0 63.1252 13.6871 864 126.209 1037.24 479.559
861 0 65.1532 13.5527 883 127.028 1038.34 479.214
862 0 66.1745 13.6306 902 128.193 1037.77 477.823
863 0 67.1761 13.6507 917 127.795 1037.97 477.184
864 0 70.0432 14.1484 991 130.044 1037.44 474.927
865 0 73.1788 13.9794 1023 131.037 1037.13 473.832
866 0 74.0444 14.4238 1068 128.287 1037.12 472.776
867 0 79.1199 14.2316 1126 125.786 1039.81 470.909
868 0 80.1595 14.1343 1133 129.933 1037.08 469.137
869 0 85.1268 13.9674 1189 132.722 1037.22 468.091
870 0 88.1377 13.5697 1196 132.805 1036.34 466.266
871 0 91.3471 13.6074 1243 133.338 1036.96 464.957
872 0 95.3865 14.7924 1411 129.458 1037.08 462.955
873 0 97.2206 14.3179 1392 127.333 1038.89 462.13
874 1 52.2906 12.3349 645 127.448 1038.79 483.944
875 0 55.0363 12.3918 682 135.453 1038.11 483.081
876 0 55.0949 12.6146 695 129.771 1038.22 481.85
877 0 57.0496 12.6732 723 130.04 1039.03 481.982
878 0 58.088 12.9459 752 125.794 1039.35 480.743
879 0 61.0937 13.4384 821 127.2 1037.02 479.777
880 0 62.2051 13.8895 864 130.256 1037.86 478.529
881 0 64.145 13.6878 878 125.333 1038 477.063
882 0 68.1675 13.6722 932 130.238 1037.44 476.399
883 0 69.2518 13.2993 921 131.339 1037.85 475.292
884 0 73.1127 13.4587 984 126.233 1039.42 474.446
885 0 73.1692 13.6943 1002 129.357 1038.85 472.92
886 0 77.2332 13.6858 1057 135.335 1039.26 472.332
887 0 79.2199 13.9233 1103 133.241 1037.75 471.06
888 0 82.166 14.2516 1171 133.187 1035.94 468.566
889 0 86.357 14.0116 1210 133.772 1034.88 467.58
890 0 89.2172 13.865 1237 141.3 1037.41 466.753
891 0 91.2638 14.6389 1336 142.493 1036.68 464.626
892 0 93.1298 14.1416 1317 142.869 1039.28 462.261
893 0 98.2799 14.4384 1419 137.534 1037.88 461.388
894 0 102.274 14.6273 1496 142.62 1038.41 459.052
895 0 105.336 14.0787 1483 140.225 1037.14 457.183
896 0 110.362 14.5249 1603 140.615 1036.91 453.841
897 1 54.3047 12.927 702 141.038 1035.6 480.571
898 0 57.4931 13.1146 754 130.82 1035.57 479.951
899 0 59.173 13.5366 801 133.001 1035.72 480.634
900 0 61.1647 13.3901 819 138.168 1039.07 480.685
901 0 62.2077 13.4871 839 137.197 1038.83 479.721
902 0 65.3288 13.5009 882 133.3 1037.13 478.654
903 0 66.345 13.7916 915 134.989 1037.41 477.527
904 0 68.3424 13.8421 946 129.919 1037.58 476.106
905 0 72.2853 13.9862 1011 135.464 1036.29 474.593
906 0 72.3505 13.8907 1005 133.061 1036.52 474.246
907 0 74.5702 14.2014 1059 136.832 1036.58 472.281
908 0 77.4353 14.4379 1118 132.332 1037.41 470.311
909 0 80.4887 14.325 1153 136.189 1037.5 469.793
910 0 83.3871 14.2948 1192 131.191 1036.95 467.751
911 0 87.3511 14.2414 1244 136.742 1037.47 466.387
912 0 90.333 14.5351 1313 128.04 1036.37 464.228
913 0 92.3556 14.52 1341 133.644 1035.93 463.356
914 0 97.4049 14.2087 1384 131.566 1035.82 461.205
915 0 99.3511 14.3229 1423 130.566 1037.49 459.905
916 0 104.201 14.5968 1521 120.718 1037.62 458.245
917 0 109.139 14.2754 1558 126.427 1037.61 456.973
918 1 57.1816 12.7663 730 118.797 1038.8 481.642
919 0 60.0959 12.9793 780 116.809 1039.18 481.001
920 0 61.1567 12.8522 786 122.793 1037.34 480.125
921 0 60.2114 13.5689 817 120.201 1037.78 478.93
922 0 65.2334 13.2448 864 118.315 1037.04 477.787
923 0 67.0959 13.1901 885 115.586 1037.23 478.192
924 0 68.1659 13.7899 940 116.45 1038.03 476.778
925 0 71.3204 13.0958 934 114.026 1036.82 475.803
926 0 73.1749 13.0783 957 116.858 1038.84 475.209
927 0 75.2276 13.9178 1047 117.704 1037.25 473.337
928 0 76.289 13.3309 1017 119.817 1036.32 472.979
929 0 80.2143 13.6883 1098 116.184 1037.45 471.875
930 0 81.417 13.9529 1136 120.989 1036.32 470.038
931 0 85.3876 13.831 1181 116.356 1037.01 469.039
932 0 86.2525 13.9706 1205 123.852 1036.47 467.444
933 0 89.3607 13.7868 1232 118.86 1036.41 466.063
934 0 93.3948 14.1764 1324 122.726 1036.56 464.109
935 0 94.4997 14.5291 1373 120.476 1036.04 463.347
936 0 100.402 13.8742 1393 120.961 1034.84 463.171
937 0 103.253 13.7817 1423 115.256 1038.05 462.158
938 0 104.095 14.5924 1519 117.943 1037.44 460.332
939 1 56.1218 12.9361 726 118.346 1037.05 484.291
940 0 57.0536 13.3734 763 123.393 1036.9 483.435
941 0 60.0958 12.7297 765 130.308 1036.05 482.771
942 0 63.0522 12.6086 795 124.771 1037.06 481.469
943 0 65.2132 12.9728 846 128.206 1038.39 481.58
944 0 65.092 13.3657 870 125.756 1037.6 479.908
945 0 68.2438 13.232 903 127.346 1037.7 478.954
946 0 72.1785 13.1757 951 127.49 1037.39 477.428
947 0 73.1699 13.1748 964 126.323 1035.96 477.353
948 0 74.2985 13.4458 999 126.945 1035.43 475.975
949 0 75.3753 13.8772 1046 126.099 1034.94 474.407
950 0 79.2641 13.4361 1065 132.307 1036.66 473.469
951 0 81.195 13.7447 1116 131.412 1033.6 472.71
952 0 83.519 14.0687 1175 132.963 1034.64 470.54
953 0 86.2318 13.858 1195 135.21 1036.07 470.851
954 0 88.3421 14.0363 1240 134.969 1037.63 468.799
955 0 92.3202 13.7023 1265 129.92 1036.41 466.863
956 0 94.2579 13.9723 1317 129.703 1036.34 465.512
957 0 98.2898 14.2029 1396 133.703 1036.27 463.663
958 0 100.177 13.8755 1390 132.981 1036.37 462.432
959 0 102.26 14.0427 1436 135.905 1035.92 460.671
960 0 107.278 14.2714 1531 132.892 1036.49 459.368
961 0 111.13 13.7227 1525 141.264 1034.37 458.214
962 0 113.259 14.3917 1630 134.515 1036.19 455.644
963 1 63.0908 12.4582 786 133.845 1037.7 480.336
964 0 65.0264 12.9793 844 127.316 1035.09 479.092
965 0 67.1111 12.9636 870 132.569 1035.47 478.413
966 0 68.0589 13.1504 895 133.517 1037.41 477.236
967 0 69.0525 13.6708 944 130.492 1037.55 475.281
968 0 73.1138 13.0482 954 133.605 1037.62 474.491
969 0 74.1172 13.3707 991 133.574 1037.94 473.216
970 0 78.0892 13.7407 1073 131.848 1035.25 471.437
971 0 80.2248 13.6616 1096 126.585 1036.07 469.624
972 0 80.2248 13.6616 1096 163.346 1037.07 469.624
973 0 86.0553 13.8516 1192 129.81 1036.12 467.664
974 0 89.0796 13.6956 1220 127.855 1033.18 465.028
975 0 92.1637 13.6171 1255 134.587 1035.13 465.364
976 0 95.2852 14.0106 1335 129.452 1035.89 463.262
977 0 98.2144 13.5316 1329 129.759 1035.1 462.144
978 0 102.149 13.5879 1388 125.566 1036.87 459.628
979 0 106.212 13.859 1472 124.908 1036.49 458.585
980 0 108.144 13.6022 1471 118.035 1036.96 457.201
981 0 111.13 14.1456 1572 118.691 1036.73 454.472
982 0 114.221 13.9466 1593 120.655 1035.99 453.142
983 0 117.293 13.9309 1634 119.873 1035.84 452.247
984 0 121.108 13.9957 1695 111.212 1037.31 449.317
985 0 125.086 14.2862 1787 116.452 1035.63 447.912
986 0 129.23 14.0834 1820 115.667 1035.61 444.502
987 0 135.204 13.8309 1870 115.411 1034 441.681
988 0 140.123 14.1233 1979 112.104 1034.22 440.405
989 0 144.114 14.1346 2037 116.856 1033.01 438.654
990 0 147.269 14.117 2079 115.489 1035.13 435.699
991 0 153.251 13.8727 2126 115.917 1032.33 433.79
992 0 160.116 14.096 2257 108.547 1034.9 430.543
993 0 165.308 14.2704 2359 110.925 1035.74 427.647
994 0 171.352 14.263 2444 112.403 1036.77 424.194
995 0 177.427 14.3608 2548 112.555 1036.78 421.453
996 0 181.384 14.3067 2595 107.824 1037.51 419.846
997 0 190.361 14.2939 2721 107.304 1035.06 416.068
998 0 197.731 14.2871 2825 112.828 1035.56 413.348
999 0 204.32 14.443 2951 110.953 1034.45 409.319
1000 0 210.463 14.8339 3122 106.907 1037.22 405.857
1001 0 216.392 15.2039 3290 106.533 1036.25 401.945
1002 0 224.329 14.8977 3342 103.565 1036.04 398.004
1003 0 231.466 15.147 3506 108.159 1036.31 394.431
1004 0 242.421 15.1307 3668 109.842 1034.89 391.285
1005 1 183.193 13.5758 2487 110.402 1037.42 421.069
1006 0 187.293 14.496 2715 107.939 1036.14 417.352
1007 0 194.268 14.3462 2787 107.168 1035.1 413.383
1008 0 201.306 14.7338 2966 106.66 1037.85 410.724
1009 0 205.341 14.1667 2909 108.214 1036.62 407.194
1010 0 213.377 14.6267 3121 109.748 1036.87 403.681
1011 0 220.361 14.4808 3191 103.542 1037.24 399.748
1012 0 230.325 15.4564 3560 108.733 1036.62 393.839
1013 0 236.747 14.336 3394 105.044 1036.61 393.953
1014 0 246.89 14.7272 3636 111.531 1038.06 387.668
1015 0 253.927 14.3821 3652 112.891 1037.45 383.356
1016 1 263.685 15.6057 4115 108.061 1037.11 374.704
1017 0 275.052 17.404 4787 98.864 1036.49 365.848
1018 1 235.84 14.1537 3338 111.881 1035.64 391.371
1019 0 235.882 13.8544 3268 110.536 1034.83 391.983
1020 0 234.586 14.1312 3315 114.618 1035.46 391.424
1021 0 242.637 14.1034 3422 114.707 1036.61 386.334
1022 0 251.735 14.2173 3579 111.943 1037.13 381.96
1023 0 259.574 14.7357 3825 114.488 1037.74 377.935
1024 0 268.653 14.8407 3987 115.377 1037.14 373.347
1025 0 276.852 14.5095 4017 116.821 1038.81 369.278
1026 0 284.715 16.9538 4827 106.734 1040.67 358.564
1027 0 293.036 17.4893 5125 106.932 1038.67 355.083
1028 1 74.5486 11.9251 889 102.875 1039.41 473.053
1029 0 75.7486 12.9111 978 99.4755 1037.37 471.171
1030 0 78.6662 13.1823 1037 105.823 1038.02 470.943
1031 0 81.8245 12.5879 1030 100.362 1037.34 468.944
1032 0 84.688 13.0479 1105 101.462 1035.45 466.764
1033 0 86.6251 12.7561 1105 107.244 1035.87 465.674
1034 0 90.5766 12.5419 1136 104.548 1035.82 464.859
1035 0 93.7736 12.8608 1206 107.853 1036.45 463.607
1036 0 96.8177 14.171 1372 102.754 1036.1 460.32
1037 0 101.6 14.8818 1512 96.4597 1037.97 455.601
1038 0 101.596 13.0221 1323 106.033 1037.95 457.574
1039 0 105.553 13.1213 1385 105.358 1037.95 456.013
1040 0 108.585 13.4733 1463 105.887 1036.1 453.59
1041 0 112.845 13.1419 1483 104.492 1037.24 452.022
1042 0 116.606 12.5979 1469 107.618 1036.16 451.502
1043 0 121.518 14.0473 1707 99.9971 1037.97 448.076
1044 0 124.526 14.1256 1759 102.466 1038.04 446.591
1045 0 126.747 14.2567 1807 102.583 1037.32 445.367
1046 0 132.577 14.369 1905 101.91 1036.63 442.977
1047 0 137.687 14.1044 1942 107.238 1035.17 440.636
1048 1 74.4634 12.4088 924 102.767 1036.46 473.407
1049 0 78.2846 13.1827 1032 101.582 1038.4 473.853
1050 0 78.6336 13.7855 1084 105.328 1038.55 469.869
1051 0 82.5176 13.791 1138 104.261 1036.53 468.29
1052 0 85.5088 13.0045 1112 107.931 1037.31 469.432
1053 0 88.326 13.4955 1192 105.8 1035.32 468.029
1054 0 89.525 13.8844 1243 109.28 1035.06 465.383
1055 0 93.4412 13.463 1258 106.957 1036.5 465.291
1056 0 95.6397 14.0946 1348 110.019 1036.54 462.418
1057 0 99.4759 13.6516 1358 113.029 1034.81 461.093
1058 0 100.59 14.2459 1433 111.154 1036.88 459.385
1059 0 105.564 14.0578 1484 115.898 1037.38 457.003
1060 0 106.33 14.6055 1553 115.934 1037.45 457.966
1061 0 115.371 16.954 1956 105.381 1037.07 451.897
1062 0 117.492 16.3415 1920 111.255 1035.57 450.348
1063 0 118.348 14.0264 1660 116.47 1037.23 451.272
1064 0 122.348 14.3116 1751 117.264 1036.47 449.652
1065 0 127.418 14.0875 1795 120.887 1036.61 447.828
1066 1 67.2063 12.4542 837 115.263 1035.88 473.48
1067 0 69.0956 12.3452 853 112.842 1036.16 473.544
1068 0 70.0427 12.9492 907 117.132 1035.18 474.606
1069 0 72.0598 12.7811 921 118.068 1035.24 473.55
1070 0 75.0697 12.575 944 117.472 1035.23 472.09
1071 0 76.0741 13.2108 1005 118.246 1034.69 471.243
1072 0 79.062 13.1036 1036 116.753 1033.87 470.93
1073 0 81.0469 13.2022 1070 117.645 1034.97 470.152
1074 0 82.1469 13.0254 1070 122.098 1036.01 469.448
1075 0 86.1822 13.0886 1128 127.972 1035.6 466.321
1076 0 88.0738 14.1359 1245 127.326 1036.46 467.883
1077 0 90.0949 13.397 1207 125.079 1037.02 467.664
1078 0 95.093 13.4184 1276 130.839 1036.54 465.933
1079 0 98.0806 13.5807 1332 129.475 1035.24 463.899
1080 0 103.128 14.8359 1530 122.538 1032.22 460.246
1081 0 105.156 13.209 1389 129.359 1036.63 460.492
1082 0 109.312 13.3837 1463 131.647 1035.8 458.711
1083 1 58.1977 11.4609 667 131.691 1036.74 483.348
1084 0 61.1202 12.3036 752 131.742 1036.42 481.727
1085 0 62.1289 12.6833 788 130.16 1034.93 480.458
1086 0 62.151 12.8236 797 128.718 1033.83 480.021
1087 0 64.122 13.1 840 129.444 1034.65 479.368
1088 0 67.1949 13.3195 895 127.171 1035.08 478.143
1089 0 69.0571 13.0327 900 126.178 1037.82 477.712
1090 0 69.1434 13.4503 930 126.6 1036.98 477.063
1091 0 73.0967 13.3932 979 125.419 1037.25 475.532
1092 0 76.1512 13.6308 1038 131.103 1038.08 473.753
1093 0 80.0383 13.8309 1107 122.712 1039.11 472.368
1094 0 80.1335 14.0391 1125 128.318 1036.85 471.844
1095 0 83.1746 14.3794 1196 131.13 1039.29 471.643
1096 0 86.2324 13.4868 1163 130.465 1038.95 470.017
1097 0 89.1292 13.8899 1238 132.851 1037.01 466.992
1098 0 92.175 13.9083 1282 129.955 1037.43 463.864
1099 0 95.2373 13.6081 1296 127.431 1035.37 462.315
1100 0 99.2172 14.1508 1404 124.845 1037.2 462
1101 0 101.255 14.1622 1434 128.292 1036.11 460.906
1102 0 104.424 13.857 1447 130.802 1036 458.39
1103 1 53.1341 12.8731 684 130.415 1037.79 483.575
1104 0 57.0711 13.2642 757 125.169 1037.05 483.293
1105 0 60.0748 14.7316 885 125.632 1036.65 482.41
1106 0 59.0622 14.1376 835 132.196 1037.92 482.35
1107 0 63.0328 13.4375 847 131.113 1035.33 482.701
1108 0 63.1218 14.0839 889 130.269 1034.43 480.979
1109 0 65.06 14.3252 932 131.575 1036.05 480.735
1110 0 65.1153 14.912 971 131.365 1034.29 480.089
1111 0 70.1615 14.0105 983 132.151 1035.54 477.996
1112 0 73.1665 14.2688 1044 133.35 1034.69 476.895
1113 0 74.0983 14.6022 1082 132.283 1035.12 476.576
1114 0 77.1857 14.7048 1135 126.347 1034.92 475.968
1115 0 78.128 14.4762 1131 124.973 1034.36 473.978
1116 0 80.1109 14.792 1185 132.608 1035.62 472.899
1117 0 84.2502 14.8605 1252 124.435 1036.54 471.538
1118 0 88.1289 14.6603 1292 127.85 1035.97 469.786
1119 0 91.2282 14.8857 1358 124.553 1037.32 468.6
1120 0 94.1698 14.8561 1399 122.187 1034.34 466.252
1121 0 97.1018 14.8607 1443 123.236 1034.24 464.566
1122 0 100.234 14.6557 1469 130.882 1035.77 463.252
1123 1 49.1056 13.3386 655 128.006 1033.85 487.876
1124 0 51.0152 13.7214 700 128.064 1035.91 486.621
1125 0 54.082 14.0712 761 124.005 1033.75 485.593
1126 0 56.046 14.3989 807 124.736 1033.77 484.551
1127 0 57.1027 13.6421 779 130.71 1033.92 484.918
1128 0 57.1602 14.0657 804 130.4 1033.87 484.292
1129 0 61.0488 14.1035 861 124.178 1032.98 482.681
1130 0 63.0398 14.2608 899 122.329 1036.34 481.182
1131 0 67.0417 13.7079 919 127.849 1036.6 480.721
1132 0 68.1741 14.0816 960 133.904 1037.96 479.673
1133 0 70.0612 14.4445 1012 124.645 1036.06 477.887
1134 0 72.1102 14.5611 1050 134.319 1036.09 477.424
1135 0 75.0591 14.2554 1070 128.904 1037.44 475.159
1136 0 77.183 14.7442 1138 129.761 1037.05 474.693
1137 0 79.1583 14.7174 1165 137.233 1036.66 473.46
1138 0 83.2915 14.3952 1199 132.479 1038.08 472.546
1139 0 87.3757 14.409 1259 135.456 1037.37 470.789
1140 0 89.2188 14.6606 1308 131.702 1036.42 468.905
1141 0 91.2188 14.964 1365 132.834 1036.34 467.557
1142 0 95.1821 14.6771 1397 134.389 1035.84 465.407
1143 0 98.2256 14.6092 1435 136.39 1035.65 463.656
1144 0 103.34 14.5442 1503 136.146 1036.8 462.916
1145 0 105.217 14.741 1551 134.338 1037.87 461.467
1146 1 54.3384 12.9006 701 136.442 1037.54 485.364
1147 0 57.2003 13.0594 747 138.055 1037.12 484.841
1148 0 60.2584 13.2264 797 139.104 1036.72 484.417
1149 0 61.1762 14.3356 877 134.116 1034.65 483.312
1150 0 64.1684 14.0879 904 137.286 1037.04 482.366
1151 0 67.2995 13.9971 942 135.89 1034.07 481.376
1152 0 69.1229 14.3802 994 134.499 1034.78 480.14
1153 0 70.0613 14.8156 1038 128.54 1034.01 479.154
1154 0 71.0669 14.8311 1054 137.772 1034.08 478.583
1155 0 74.1112 14.3703 1065 136.608 1036.25 477.204
1156 0 78.0804 14.5363 1135 136.027 1035.9 475.899
1157 0 83.1658 14.2126 1182 138.8 1035.8 475.113
1158 0 85.0531 14.2146 1209 140.301 1035.93 472.846
1159 0 87.109 14.1432 1232 135.743 1035.8 471.977
1160 0 90.1388 14.3224 1291 134.422 1035.18 471.23
1161 0 92.0768 14.2055 1308 138.136 1036.07 468.828
1162 0 96.08 13.4992 1297 139.941 1035.55 468.295
1163 1 49.1079 13.2158 649 150.015 1034.61 489.549
1164 0 51.0165 14.1131 720 143.199 1036.12 488.886
1165 0 52.0473 14.3331 746 137.399 1035.17 488.156
1166 0 52.0918 14.7048 766 147.157 1035.11 487.175
1167 0 56.0424 14.15 793 144.934 1034.88 486.333
1168 0 56.0492 14.7014 824 148.311 1036.3 485.289
1169 0 58.0262 14.8209 860 147.474 1035.03 485.109
1170 0 61.0629 14.6243 893 144.026 1036.25 483.541
1171 0 64.1168 14.6607 940 141.177 1035.91 482.98
1172 0 66.0867 14.6928 971 137.728 1037.83 481.864
1173 0 66.0684 15.3477 1014 146.705 1034.67 481.01
1174 0 70.1189 15.2027 1066 144.198 1035.9 479.882
1175 0 73.15 15.4751 1132 147.422 1034.91 478.785
1176 0 74.127 16.04 1189 140.675 1035.15 478.185
1177 0 78.191 16.0249 1253 140.393 1035.97 476.321
1178 0 80.1111 15.6907 1257 145.986 1034.57 475.595
1179 0 84.235 15.5042 1306 141.577 1035.64 474.149
1180 0 85.088 15.5133 1320 146.897 1035.02 472.764
1181 0 88.3833 14.9576 1322 150.614 1034.45 471.309
1182 0 93.2309 15.0272 1401 151.499 1034.76 469.742
1183 1 44.0608 14.1169 622 168.579 1035.1 491.529
1184 0 46.1235 15.155 699 159.977 1036.48 490.564
1185 0 48.2162 15.2853 737 159.716 1034.47 489.643
1186 0 49.1517 15.7472 774 156.96 1037.32 489.217
1187 0 49.2259 15.7234 774 160.399 1035.48 488.814
1188 0 50.4836 15.7675 796 157.907 1036.34 488.604
1189 0 54.2503 15.2626 828 163.459 1033.29 487.912
1190 0 54.245 15.854 860 153.313 1033.11 486.799
1191 0 58.4871 15.5419 909 156.861 1034.9 486.14
1192 0 59.371 15.6305 928 159.972 1033.49 484.473
1193 0 60.2702 15.7955 952 161.112 1034.31 484.356
1194 0 62.1175 16.34 1015 164.98 1033.41 483.321
1195 0 63.3671 16.002 1014 157.382 1033.9 482.228
1196 0 67.5421 16.3454 1104 161.194 1032.65 481.013
1197 0 70.3651 15.7322 1107 161.945 1033.11 480.634
1198 0 75.2971 18.4204 1387 145.663 1033.12 476.094
1199 0 79.3384 18.0745 1434 147.16 1034.8 476.55
1200 0 80.4368 17.9271 1442 147.616 1034.52 474.945
1201 0 80.4208 18.0923 1455 151.906 1033.73 474.705
1202 0 82.235 16.2583 1337 152.42 1034.36 474.053
1203 0 86.2106 16.0885 1387 154.533 1033.63 473.758
1204 0 91.3539 16.157 1476 151.389 1032.5 471.404
1205 0 92.4008 16.1146 1489 154.163 1033.85 470.985
1206 0 98.5199 15.408 1518 156.797 1031.14 469.144
1207 1 47.5107 15.1334 719 162.282 1031.7 491.256
1208 0 49.4453 15.6334 773 159.728 1035.13 489.386
1209 0 51.2673 15.6435 802 157.335 1035.38 489.566
1210 0 53.1266 15.4348 820 153.605 1036.08 488.766
1211 0 57.6974 16.0492 926 154.995 1031.78 488.581
1212 0 57.3604 16.161 927 154.759 1035.43 486.355
1213 0 59.5679 15.9985 953 155.561 1035.68 484.729
1214 0 63.4131 15.6434 992 150.656 1035.43 483.607
1215 0 64.4067 16.0853 1036 152.486 1034.71 482.422
1216 0 66.6959 16.1029 1074 149.852 1034.24 480.594
1217 0 69.3026 15.858 1099 152.55 1035.4 479.328
1218 0 72.5681 15.8472 1150 156.371 1033.25 478.078
1219 0 74.467 16.2757 1212 153.519 1033.98 477.51
1220 0 79.4561 15.8452 1259 149.284 1033.29 475.674
1221 0 79.4561 15.8452 1259 179.062 1032.29 475.674
1222 0 84.4262 15.6705 1323 148.984 1034.94 472.498
1223 0 85.3292 15.8328 1351 155.001 1035.97 471.151
1224 0 89.5953 15.5477 1393 151.865 1037.2 469.752
1225 0 94.4033 15.741 1486 153.1 1035.25 468.29
1226 0 97.2456 15.394 1497 152.633 1035.62 466.868
1227 0 99.1483 15.613 1548 145.8 1035.5 465.688
1228 0 104.446 15.2328 1591 156.831 1032.51 464.238
1229 0 108.536 15.4235 1674 157.653 1033.43 461.935
1230 1 53.4338 14.2981 764 159.099 1033.28 486.488
1231 0 54.4114 14.9417 813 158.339 1032.31 485.745
1232 0 56.2217 14.9408 840 152.633 1032.77 484.795
1233 0 59.1254 14.9344 883 148.066 1033.9 483.273
1234 0 60.1604 14.6109 879 153.392 1031.89 482.917
1235 0 62.2392 14.9424 930 155.089 1032.82 481.275
1236 0 66.1861 14.565 964 156.332 1032.53 480.401
1237 0 68.2203 14.761 1007 153.959 1034.09 479.838
1238 0 69.2274 15.153 1049 146.691 1033.09 478.595
1239 0 72.1898 15.0575 1087 144.436 1035.18 477.401
1240 0 74.4294 15.0747 1122 151.637 1032.08 476.43
1241 0 78.2213 15.111 1182 149.195 1033.51 475.103
1242 0 82.5132 15.3672 1268 150 1031.95 473.188
1243 0 82.3645 15.0065 1236 154.45 1030.85 471.379
1244 0 87.5085 14.65 1282 150.748 1031.9 470.291
1245 0 89.3655 14.9275 1334 151.202 1030.27 469.241
1246 0 93.245 14.9928 1398 148.75 1031.38 468.043
1247 1 47.1606 12.5528 592 147.448 1032.11 490.434
1248 0 49.0152 13.0368 639 142.552 1031.15 489.369
1249 0 52.1366 12.87 671 142.173 1031.35 488.946
1250 0 53.1261 12.9691 689 143.179 1029.21 488.045
1251 0 57.116 12.7635 729 145.863 1029.13 486.952
1252 0 57.1062 13.0459 745 142.511 1029.96 486.38
1253 0 57.1591 13.5237 773 147.455 1031.67 486.069
1254 0 60.1293 13.0885 787 145.023 1030.82 485.131
1255 1 72.1244 13.546 977 151.998 1027.58 478.512
1256 0 72.2164 13.4042 968 150.528 1028.49 478.823
1257 0 72.3221 13.592 983 149.572 1029.48 478.674
1258 0 72.1499 13.2086 953 146.9 1030.4 478.605
1259 0 74.3669 12.8417 955 149.536 1029.84 478.072
1260 0 78.1293 12.2745 959 155.472 1032.48 476.087
1261 0 80.1978 12.6936 1018 147.534 1032.94 475.103
1262 0 88.1298 13.2645 1169 143.252 1031.52 472.453
1263 1 44.1007 12.086 533 142.171 1031.34 492.796
1264 0 45.0501 11.9866 540 143.796 1032.5 491.817
1265 0 47.0556 12.4109 584 144.428 1032.58 491.731
1266 0 47.1481 12.5562 592 136.02 1032.97 490.446
1267 0 49.0436 12.4787 612 140.002 1032 490.415
1268 0 50.1605 12.8189 643 141.412 1031.38 490.264
1269 0 50.1224 13.0081 652 141.897 1030.7 489.873
1270 0 50.0977 13.1743 660 146.736 1030.67 489.873
1271 0 49.0583 13.7591 675 139.646 1032.52 489.563
1272 0 57.0921 12.1733 695 149.506 1030.64 487.311
1273 0 56.1351 13.0221 731 142.825 1033.26 486.653
1274 0 57.0905 13.6275 778 145.582 1033.23 486.28
1275 0 57.1871 13.3247 762 149.265 1033.85 485.924
1276 0 63.1369 13.1619 831 150.75 1033.48 484.04
1277 0 73.4357 13.4676 989 148.514 1032.87 479.509
1278 0 73.0887 13.039 953 141.15 1033.46 479.976
1279 0 73.1228 13.0466 954 148.276 1034.44 479.7
1280 0 77.2241 13.2601 1024 138.951 1032.22 478.203
1281 0 78.1351 13.1951 1031 143.685 1032.21 478.229
1282 1 89.4832 13.455 1204 147.723 1032.53 472.06
1283 0 90.3418 13.5375 1223 142.527 1032.19 472.818
1284 0 89.1932 13.2073 1178 145.393 1032.92 472.553
1285 0 89.1644 13.1443 1172 140.569 1033.91 472.651
1286 0 90.2142 13.5012 1218 143.582 1032.71 471.146
1287 0 93.2774 13.3151 1242 139.158 1032.49 469.901
1288 1 49.1029 12.0563 592 143.723 1031.65 491.291
1289 0 50.1672 12.7773 641 140.512 1033.94 490.782
1290 0 52.0783 13.5757 707 136.898 1033.49 489.158
1291 0 54.2206 13.2238 717 140.795 1032.92 488.621
1292 0 54.087 13.053 706 141.666 1033.62 488.235
1293 0 54.1361 13.5954 736 150.122 1034.37 488.395
1294 0 57.1446 13.3521 763 138.214 1033.94 486.974
1295 0 60.1226 13.7552 827 139.625 1034.85 485.614
1296 0 61.0798 14.0963 861 139.265 1032.67 485.648
1297 0 61.116 14.6606 896 142.321 1032.66 484.637
1298 0 63.1183 14.861 938 139.584 1030.99 483.581
1299 0 68.044 15.7839 1074 132.531 1033.62 480.882
1300 0 69.1919 14.5682 1008 147.222 1033.65 481.887
1301 0 72.2055 14.3341 1035 141.387 1031.69 480.294
1302 0 74.2418 14.4528 1073 143.326 1035.33 479.65
1303 0 75.2345 14.7406 1109 144.109 1034.54 478.545
1304 0 79.103 14.9299 1181 146.043 1034.27 477.202
1305 0 82.2406 14.7859 1216 149.982 1033 475.257
1306 0 85.2437 15.0158 1280 145.301 1033.86 473.649
1307 0 89.2006 14.9102 1330 150.805 1032.92 471.902
1308 0 90.1979 15.078 1360 147.319 1032.57 470.672
1309 0 93.1567 14.9104 1389 148.815 1033.49 468.929
1310 0 97.151 14.4311 1402 160.67 1031.7 466.382
1311 1 48.1653 13.4121 646 153.11 1032.63 489.896
1312 0 49.0547 14.0048 687 161.076 1031.62 489.461
1313 0 52.0712 13.8848 723 156.714 1030.9 488.593
1314 0 53.1005 13.9547 741 161.062 1030.56 488.602
1315 0 54.1321 14.0397 760 157.337 1031.15 487.729
1316 0 56.0794 13.9089 780 163.101 1032.84 487.973
1317 0 58.0786 14.136 821 157.696 1031.35 486.721
1318 0 60.0616 14.4851 870 152.818 1033.29 485.383
1319 0 62.0562 13.8906 862 153.68 1033.19 483.579
1320 0 66.1038 14.1747 937 164.118 1030.48 483.114
1321 0 67.0878 14.5183 974 153.464 1031.7 481.71
1322 0 70.0765 14.0418 984 157.557 1031.16 481.456
1323 0 73.1142 14.2517 1042 158.535 1032.23 479.084
1324 0 75.1813 14.2057 1068 157.869 1032.22 477.644
1325 0 76.1238 14.345 1092 158.022 1030.81 477.251
1326 0 80.142 14.5492 1166 157.621 1032.36 475.649
1327 0 83.2103 14.7458 1227 158.378 1030.89 474.288
1328 0 83.1553 14.9239 1241 161.495 1028.64 473.691
1329 0 87.128 14.8632 1295 158.11 1029.87 472.32
1330 0 90.1592 14.3302 1292 158.033 1031.83 470.637
1331 0 94.1175 15.045 1416 150.088 1031.78 468.006
1332 0 98.1648 14.2719 1401 155.783 1031.94 467.161
1333 0 100.325 14.7421 1479 154.919 1031.04 465.173
1334 1 49.1844 13.8459 681 155.264 1030.62 488.653
1335 0 50.1556 14.3154 718 150.967 1031.84 488.737
1336 0 53.1372 14.058 747 153.53 1033.03 487.744
1337 0 57.1444 13.6846 782 144.354 1031.97 486.409
1338 0 58.349 13.9677 815 151.671 1032.38 485.827
1339 0 60.1959 14.2036 855 146.711 1032.8 484.848
1340 0 61.3342 14.1683 869 153.725 1032.18 481.611
1341 0 62.3091 14.4602 901 152.709 1031.45 480.664
1342 0 65.2792 14.5988 953 158.093 1031.08 479.468
1343 0 65.1878 14.7113 959 155.457 1030.49 478.739
1344 0 68.2855 14.3369 979 156.36 1030.99 478.106
1345 0 71.4361 14.5445 1039 158.205 1030.32 476.373
1346 0 74.5387 14.7574 1100 152.307 1031.81 474.845
1347 0 75.2229 15.155 1140 156.165 1029.65 472.597
1348 0 79.3453 14.8213 1176 153.63 1031.2 471.017
1349 0 81.4584 14.6946 1197 160.966 1031.83 470.429
1350 0 83.5089 15.196 1269 153.206 1033.38 468.831
1351 0 87.225 14.904 1300 154.522 1033.53 466.434
1352 0 91.3285 15.5921 1424 151.908 1031.62 464.497
1353 0 93.3674 14.8981 1391 143.489 1032.58 463.912
1354 0 96.2659 14.9586 1440 151.675 1032.34 462.217
1355 0 101.465 14.8524 1507 146.745 1034.46 460.879
1356 0 104.304 14.9564 1560 149.276 1033.79 459.201
1357 1 53.3307 13.2194 705 150.226 1033.05 483.811
1358 0 55.1584 13.8873 766 150.721 1033.73 482.911
1359 0 55.4244 14.1634 785 147.92 1032.62 483.101
1360 0 58.4815 13.6624 799 150.891 1030.57 481.453
1361 0 60.2698 13.8212 833 146.818 1031.51 480.947
1362 0 64.6067 13.6054 879 147.339 1031.66 479.362
1363 0 66.4738 13.7347 913 152.25 1031.9 478.118
1364 0 69.4856 13.528 940 142.677 1031.68 476.805
1365 0 71.4427 13.4653 962 149.595 1031.29 475.679
1366 0 73.3666 14.1754 1040 141.194 1032.4 474.375
1367 0 74.4123 14.5003 1079 140.441 1032.96 472.578
1368 0 77.1821 14.7184 1136 146.037 1032.93 471.774
1369 0 81.4082 14.1509 1152 147.113 1034.04 469.879
1370 0 84.4623 14.6456 1237 145.08 1034.19 467.545
1371 0 87.3297 14.6457 1279 147.962 1031.02 465.873
1372 0 90.6134 14.4239 1307 140.972 1030.52 464.535
1373 0 93.6276 14.6004 1367 141.282 1032.5 464.375
1374 0 97.6923 14.5661 1423 140.141 1032.95 461.91
1375 0 101.426 14.3356 1454 145.868 1031.65 460.38
1376 0 104.377 14.4188 1505 144.097 1031.69 458.268
1377 1 54.2896 12.7096 690 142.68 1031.99 482.839
1378 0 57.249 13.2753 760 138.008 1029.63 483.504
1379 0 59.392 13.352 793 140.798 1033.05 482.228
1380 0 60.2966 13.4999 814 144.324 1032.37 481.436
1381 0 62.4497 13.3868 836 140.353 1033.23 480.407
1382 0 63.2889 13.8255 875 143.802 1033.88 478.951
1383 0 67.4179 13.6017 917 146.246 1032.65 477.396
1384 0 68.1421 14.1469 964 145.453 1032.56 475.844
1385 0 71.3562 14.0843 1005 141.034 1032.7 474.751
1386 0 74.153 13.9172 1032 145.444 1031.67 473.366
1387 0 77.2156 13.948 1077 143.781 1031.04 472.213
1388 0 79.3274 14.0053 1111 141.896 1033.54 470.947
1389 0 83.3177 14.2347 1186 141.993 1033.05 469.501
1390 0 86.2518 13.5301 1167 139.89 1031.29 468.831
1391 0 89.346 14.0017 1251 141.724 1033.06 466.922
1392 0 93.2332 14.512 1353 139.835 1031.84 464.826
1393 0 96.3002 13.9564 1344 141.167 1030.55 463.328
1394 1 48.153 11.5881 558 143.023 1031.18 487.998
1395 0 48.038 12.6983 610 136.148 1032.66 487.446
1396 0 50.0631 12.8438 643 136.348 1034.03 488.689
1397 0 51.1252 13.0268 666 135.956 1032.5 487.905
1398 0 53.1128 12.9536 688 139.628 1034.6 487.773
1399 0 54.0962 13.0139 704 139.445 1032.14 486.912
1400 0 56.0967 13.655 766 135.642 1032.83 484.531
1401 0 57.0808 13.4896 770 139.171 1031.44 484.645
1402 0 59.0898 13.3695 790 137.533 1033.42 483.511
1403 0 61.1282 13.12 802 138.797 1032.45 483.031
1404 0 63.1244 13.4972 852 136.577 1029.87 481.641
1405 0 66.0878 13.3762 884 141.632 1030.87 481.13
1406 0 66.0367 13.4168 886 143.132 1031.01 479.723
1407 0 68.0537 13.6216 927 146.946 1031.23 478.508
1408 0 70.1223 13.8615 972 144.276 1032.71 477.623
1409 0 72.1515 13.9845 1009 147.419 1031.1 475.887
1410 0 76.0866 13.9052 1058 147.06 1032.22 475.206
1411 0 80.1094 13.6064 1090 140.709 1033.08 474.749
1412 0 81.2422 14.106 1146 145.111 1031.45 472.235
1413 0 84.2978 14.0217 1182 142.207 1031.63 471.624
1414 0 86.3448 13.9325 1203 145.866 1033.11 470.037
1415 0 91.1493 13.9112 1268 143.924 1032.28 468.522
1416 0 93.2347 13.6108 1269 144.578 1031.91 466.907
1417 0 96.4581 13.9439 1345 140.879 1030.75 466.306
1418 1 52.15 12.6175 658 142.76 1032.22 487.383
1419 0 55.1224 12.7172 701 140.616 1032.31 486.154
1420 0 57.085 12.8405 733 136.876 1031.64 485.351
1421 0 58.0678 13.2087 767 139.713 1030.8 484.905
1422 0 59.1701 13.1823 780 134.051 1031.16 483.687
1423 0 60.1192 13.257 797 135.536 1031.58 482.414
1424 0 62.179 12.9787 807 138.25 1033.29 481.178
1425 0 65.1662 12.8134 835 139.826 1031.46 480.661
1426 0 69.1431 13.0888 905 139.676 1032.78 478.155
1427 0 69.0796 13.4338 928 138.652 1031.29 478.054
1428 0 72.1631 13.0122 939 140.827 1030.65 476.029
1429 0 74.1749 13.576 1007 143.074 1031.33 475.247
1430 0 79.3729 12.7121 1009 145.889 1029.01 474.309
1431 0 81.3363 13.4257 1092 147.547 1029.29 472.399
1432 0 84.426 13.42 1133 146.612 1031.3 469.594
1433 1 41.5084 10.7207 445 150.901 1030 491.303
1434 0 42.3986 11.7457 498 145.267 1032.13 491.225
1435 0 45.1211 11.6575 526 139.901 1033.07 490.816
1436 0 45.1913 12.259 554 143.258 1031.68 490.217
1437 0 47.1221 12.2872 579 138.39 1032.92 489.009
1438 0 49.1745 12.3641 608 136.99 1034.1 488.197
1439 0 50.3044 12.1858 613 141.336 1032.85 488.015
1440 0 51.0513 12.7323 650 136.075 1033.34 487.518
1441 0 53.0612 12.495 663 143.057 1032.83 487.388
1442 0 53.0585 12.816 680 140.519 1030.91 487.007
1443 0 54.0794 13.2028 714 136.375 1031.89 485.898
1444 0 57.0354 12.8867 735 136.045 1031.8 484.435
1445 0 58.0696 13.5871 789 133.063 1032.19 483.629
1446 0 60.0871 13.2141 794 135.839 1031.27 483.207
1447 0 61.0571 13.1516 803 130.753 1032.96 482.529
1448 0 64.0477 13.1777 844 133.263 1031.01 480.432
1449 0 66.0614 13.3966 885 129.688 1030.57 480.05
1450 0 68.0447 12.8739 876 133.08 1031.17 478.596
1451 0 71.0634 13.0166 925 127.665 1031.94 477.35
1452 0 73.1859 13.09 958 123.928 1031.53 477.05
1453 0 75.2406 13.3439 1004 128.339 1031.64 475.728
1454 0 77.183 13.4097 1035 130.291 1032.72 474.623
1455 0 80.2242 13.0509 1047 129.713 1031.96 472.696
1456 0 83.2808 12.9802 1081 126.603 1031.39 471.396
1457 0 84.3331 13.1147 1106 124.348 1030.44 470.182
1458 0 88.2804 13.2079 1166 123.96 1032.61 468.172
1459 0 91.2391 13.1303 1198 124.856 1033.05 467.038
1460 1 46.1663 10.5488 487 127.776 1033.09 488.244
1461 0 48.0674 11.1302 535 124.815 1032.61 486.935
1462 0 52.1167 10.8219 564 122.222 1033.38 484.239
1463 0 52.1744 12.209 637 121.402 1033.62 485.772
1464 0 52.3166 12.7302 666 119.441 1033.94 485.429
1465 0 54.2162 12.3395 669 119.193 1035.02 484.635
1466 0 57.2069 12.044 689 126.28 1033.68 484.224
1467 0 57.1454 12.8269 733 123.506 1032.85 483.812
1468 0 61.18 12.4224 760 126.313 1032.26 482.089
1469 0 60.183 12.6115 759 122.502 1031.37 481.241
1470 0 65.2469 12.7669 833 125.324 1030.34 480.256
1471 0 67.2781 12.6341 850 128.465 1030.06 479.229
1472 0 67.2793 13.2879 894 122.578 1031.06 478.006
1473 0 71.2873 13.2843 947 123.649 1031.06 476.199
1474 0 73.27 13.0886 959 127.979 1032.29 474.929
1475 0 74.2769 14.0555 1044 122.128 1032.4 473.814
1476 0 78.4455 13.742 1078 123.863 1033.52 471.811
1477 0 78.5006 13.7196 1077 128.432 1032.58 470.983
1478 0 83.4858 13.6909 1143 124.128 1031.85 468.547
1479 0 84.3645 13.9395 1176 126.375 1033.26 467.141
1480 0 88.4835 14.0252 1241 123.23 1031.43 465.731
1481 0 90.3087 14.0961 1273 120.588 1032.49 464.778
1482 0 93.4074 14.4849 1353 121.5 1032.9 463.604
1483 1 51.2508 11.5901 594 123.773 1033.34 486.907
1484 0 53.3648 11.843 632 123.03 1031.28 485.815
1485 0 56.2808 12.1533 684 118.108 1034.11 485.525
1486 0 57.1119 12.6944 725 121.455 1034.06 484.806
1487 0 59.1358 12.9871 768 119.538 1033.44 484.783
1488 0 61.0967 12.5702 768 124.267 1032.58 483.984
1489 0 63.0885 13.0452 823 119.976 1033.06 482.137
1490 0 64.1498 13.1567 844 118.494 1033.4 481.833
1491 0 66.1868 13.205 874 113.728 1031.95 480.969
1492 0 69.1674 13.5902 940 117.69 1031.95 479.855
1493 0 70.3567 13.6021 957 119.784 1030.54 478.662
1494 0 74.2752 14.0693 1045 121.385 1032.06 478.013
1495 0 75.1843 13.5135 1016 116.487 1032.36 477.168
1496 0 79.1878 13.9163 1102 117.968 1033.3 474.946
1497 0 80.389 13.3849 1076 100.914 1031.93 473.068
1498 0 86.3086 13.0346 1125 119.068 1031.73 470.842
1499 0 88.2823 13.672 1207 118.367 1031.96 469.111
1500 0 89.2118 13.1597 1174 121.342 1033.11 467.92
1501 0 95.1621 13.188 1255 120.143 1032.55 466.277
1502 1 50.0462 10.9099 546 121.291 1034.15 487.861
1503 0 52.0717 11.753 612 119.585 1032.86 487.082
1504 0 54.1327 11.675 632 120.014 1033.57 486.964
1505 0 55.0533 11.6796 643 126.151 1032.45 486.756
1506 0 56.1632 12.5171 703 120.959 1031.51 485.585
1507 0 58.2117 12.3171 717 113.541 1031.55 484.215
1508 0 60.0879 12.3153 740 104.522 1031.35 484.032
1509 0 61.1027 12.4708 762 121.602 1033.11 483.013
1510 0 63.1365 12.7185 803 118.056 1033.37 481.687
1511 0 65.1901 12.5019 815 117.566 1032.06 481.12
1512 0 67.2723 13.0812 880 115.966 1031.57 479.673
1513 0 69.1972 12.3271 853 108.79 1032.37 479.523
1514 0 72.2568 12.6217 912 116.655 1032.91 478.457
1515 0 73.2588 12.7903 937 122.157 1032.26 476.864
1516 1 50.3196 11.427 575 125.883 1033.01 488.489
1517 0 53.122 11.5018 611 124.699 1030.74 488.334
1518 0 54.1487 12.2071 661 125.408 1030.3 486.956
1519 0 55.1324 12.5153 690 130.667 1032.02 487.178
1520 0 57.1656 12.4201 710 120.218 1031.1 486.973
1521 0 59.2097 12.4304 736 129.348 1032.8 486.101
1522 0 60.1232 12.5243 753 129.635 1031.71 485.535
1523 0 62.1984 12.5405 780 126.774 1030.42 484.424
1524 0 64.2681 13.1325 844 125.949 1030.78 482.645
1525 0 68.2372 12.779 872 128.522 1030.13 481.576
1526 0 72.2586 12.8151 926 128.06 1030.25 480.724
1527 0 73.2606 13.1995 967 128.951 1030.42 479.865
1528 0 75.3068 13.2259 996 124.824 1031.02 478.619
1529 0 79.1454 13.0393 1032 126.689 1030.38 476.87
1530 0 82.2693 13.2613 1091 127.808 1029.82 475.118
1531 0 83.4506 13.505 1127 124.382 1030.86 473.96
1532 0 88.1624 13.1802 1162 118.537 1032.51 473.214
1533 0 91.1764 13.5123 1232 125.108 1030.98 470.58
1534 0 95.3011 13.0848 1247 127.678 1031.36 468.997
1535 1 51.1441 12.2008 624 129.361 1030.38 490.524
1536 0 53.0816 11.7932 626 129.788 1030.77 488.812
1537 0 53.1764 12.6184 671 127.782 1030.24 489.356
1538 0 55.212 12.5516 693 126.926 1031.97 488.635
1539 0 57.1675 12.3322 705 123.227 1031.36 488.338
1540 0 56.1422 13.163 739 125.735 1032.8 487.909
1541 0 60.1116 12.8095 770 115.001 1032.51 486.873
1542 0 61.1318 13.021 796 124.15 1032.43 485.45
1543 0 61.1286 13.0217 796 122.319 1031.06 484.558
1544 0 65.1129 12.9621 844 126.245 1030.83 484.23
1545 0 67.3457 13.2302 891 125.224 1031.19 483.409
1546 0 69.3308 13.0534 905 129.73 1031.48 482.466
1547 0 72.4856 13.2992 964 122.564 1030.7 480.692
1548 0 74.6369 13.0096 971 125.597 1031.22 479.018
1549 0 75.3762 13.4127 1011 125.704 1031.96 478.278
1550 0 79.51 13.5706 1079 127.517 1031.02 476.481
1551 0 83.6543 13.1613 1101 126.998 1032.71 475.164
1552 0 85.4886 13.3936 1145 124.665 1034.43 473.686
1553 0 89.3314 13.2876 1187 122.646 1031.65 472.474
1554 1 47.0885 12.1049 570 130.235 1030.73 492.646
1555 0 50.0602 12.1653 609 127.644 1030.05 491.13
1556 0 51.0948 12.6432 646 129.779 1030.93 491.48
1557 0 51.0456 12.9296 660 124.889 1028.96 490.652
1558 0 54.1342 12.7276 689 128.149 1031.98 489.893
1559 0 56.0764 12.697 712 136.85 1031.97 489.781
1560 0 57.2101 12.725 728 132.74 1030.69 488.992
1561 0 60.0535 12.8885 774 131.602 1029.72 487.563
1562 0 61.1024 12.9128 789 134.669 1030.2 487.104
1563 0 62.1153 13.5393 841 133.527 1029.38 486.19
1564 0 65.117 12.8845 839 138.328 1030.35 486.079
1565 0 67.0936 13.3098 893 134.666 1030.56 484.66
1566 0 68.1004 13.2452 902 134.196 1029.68 483.992
1567 0 70.0447 13.3201 933 134.043 1030.71 482.763
1568 0 72.0742 13.5 973 134.767 1028.77 480.492
1569 0 73.0974 13.5846 993 132.989 1031.18 479.179
1570 0 77.0531 13.2246 1019 133.734 1030.51 479.137
1571 0 80.0963 13.334 1068 133.737 1030.09 477.476
1572 0 82.1523 13.3776 1099 139.258 1028.87 476.552
1573 0 87.164 13.1247 1144 131.851 1029.51 475.675
1574 0 87.14 13.9201 1213 136.608 1029.02 473.403
1575 1 44.0519 11.8724 523 139.377 1028.05 494.851
1576 0 46.041 12.4237 572 131.145 1029.37 493.675
1577 0 49.1098 12.2379 601 133.872 1030.23 492.804
1578 0 49.0943 12.6084 619 136.913 1029.15 491.806
1579 0 50.0325 12.352 618 132.586 1031.36 490.822
1580 0 0 0 0 -nan -nan -nan
1581 0 55.1049 14.5904 804 122.282 1031.2 488.929
1582 0 55.207 14.1468 781 119.348 1031.13 488.652
1583 0 57.1934 13.4281 768 124.363 1032.41 488.302
1584 0 60.134 13.1706 792 128.663 1032.54 487.682
1585 0 58.1362 13.6404 793 123.613 1032.22 487.264
1586 0 63.1255 13.1009 827 126.438 1028.9 485.8
1587 0 63.0967 13.3605 843 124.707 1032.62 485.123
1588 0 63.1274 14.0034 884 119.921 1030.89 484.068
1589 0 67.0952 13.5479 909 127.238 1030.88 482.718
1590 0 70.1931 13.5056 948 120.924 1029.68 481.916
1591 0 71.1722 13.8959 989 122.397 1031.89 480.743
1592 0 74.1979 13.5583 1006 125.785 1029.57 480.722
1593 0 77.1322 13.3407 1029 122.93 1030.34 479.009
1594 0 79.1623 13.5165 1070 125.885 1028.93 476.431
1595 0 83.1052 13.4649 1119 127.861 1027.92 475.354
1596 0 85.0686 13.9887 1190 123.376 1029.71 474.044
1597 0 88.0782 13.9649 1230 125.098 1030.35 472.611
1598 0 91.2506 13.9616 1274 125.137 1032.04 471.198
1599 0 94.2127 14.0321 1322 124.525 1030.89 469.445
1600 0 96.3396 13.8884 1338 117.27 1030.38 466.484
1601 1 47.0599 12.6647 596 129.356 1029.41 490.07
1602 0 50.2397 13.0375 655 127.478 1029.47 489.177
1603 0 52.178 13.4348 701 129.549 1028.85 490.197
1604 0 53.1531 13.2259 703 131.061 1027.08 489.064
1605 0 56.1832 13.2424 744 131.786 1028.9 488.663
1606 0 56.1303 13.4687 756 129.417 1029.4 488.222
1607 0 58.0406 13.7145 796 125.614 1032.17 486.998
1608 0 60.0588 13.57 815 132.356 1031.15 486.136
1609 0 62.1382 13.5665 843 131.231 1030.7 485.497
1610 0 64.0532 13.7542 881 129.331 1031.87 484.535
1611 0 64.1303 14.2834 916 130.823 1031.46 483.695
1612 0 68.0903 13.7171 934 130.314 1030.39 483.336
1613 0 69.0904 13.9672 965 129.684 1032.41 481.013
1614 0 73.1242 13.9078 1017 126.847 1030.38 479.933
1615 0 75.0749 14.1059 1059 127.273 1029.88 479.215
1616 0 77.1949 14.2626 1101 131.529 1030.16 479.058
1617 0 80.1372 13.714 1099 136.707 1029.83 476.864
1618 0 82.175 14.0189 1152 140.271 1026.99 475.582
1619 0 86.2231 13.8362 1193 133.447 1028.75 474.197
1620 0 87.3658 14.4336 1261 137.689 1031.29 472.734
1621 0 90.181 14.2048 1281 141.46 1030.85 471.409
1622 0 93.2531 14.0478 1310 137.469 1030.63 469.815
1623 1 50.1822 12.7734 641 147.794 1032.12 491.452
1624 0 50.1426 13.1226 658 21.696 1029.15 490.688
1625 0 51.2612 13.1678 675 146.338 1031.48 490.573
1626 0 53.1874 13.3866 712 147.979 1031.54 489.195
1627 0 56.1172 13.1689 739 144.452 1031.38 487.816
1628 0 57.2648 13.2368 758 146.946 1031.96 487.095
1629 0 58.2261 13.8769 808 149.613 1030 486.463
1630 0 62.1733 13.0924 814 147.435 1030.28 486.135
1631 0 63.1814 13.5958 859 142.963 1029.1 484.403
1632 0 65.1365 13.5868 885 141.121 1029.56 483.444
1633 0 65.11 14.4064 938 145.808 1032.36 483.096
1634 0 67.2474 14.008 942 68.4225 1030.32 482.452
1635 0 71.163 13.7009 975 148.238 1033.2 480.463
1636 0 72.3224 14.145 1023 153.916 1031.31 479.297
1637 0 74.4045 13.682 1018 144.195 1031.33 478.645
1638 0 77.2682 14.042 1085 150.717 1031.24 476.882
1639 0 80.247 14.0566 1128 157.938 1029.64 475.522
1640 0 83.345 13.8461 1154 148.539 1030.75 474.366
1641 0 86.2586 14.0392 1211 149.007 1030.03 472.699
1642 0 89.3247 13.7252 1226 153.225 1029.44 471.927
1643 0 92.4146 14.0129 1295 149.171 1030.11 470.023
1644 0 94.1231 14.0879 1326 155.875 1029.72 468.466
1645 1 48.1148 13.1768 634 147.729 1031.68 491.356
1646 0 50.1621 12.958 650 144.109 1029.11 490.206
1647 0 53.2116 12.8355 683 142.868 1032.3 489.331
1648 0 53.2373 12.9796 691 148.22 1029.76 488.658
1649 0 55.2657 12.9194 714 144.868 1033.15 488.119
1650 0 57.4332 13.1457 755 140.201 1031.44 487.168
1651 0 58.2894 13.0727 762 133.685 1030.89 486.663
1652 0 60.1087 13.409 806 142.913 1030.76 485.225
1653 0 61.3452 13.5789 833 139.791 1031.47 484.122
1654 0 65.2698 13.222 863 145.881 1031.73 483.387
1655 0 68.2806 13.1516 898 143.154 1031.71 481.937
1656 0 69.2868 13.3647 926 144.042 1031.33 481.26
1657 0 70.3318 13.0951 921 146.965 1033.24 480.547
1658 0 73.2083 13.2908 973 142.534 1032.92 478.842
1659 0 77.3127 12.9474 1001 141.389 1032.38 477.816
1660 0 77.3618 13.5338 1047 141.643 1033.26 476.348
1661 0 81.3009 13.161 1070 146.759 1031.61 475.894
1662 0 84.2057 13.277 1118 136.042 1032.48 473.152
1663 0 85.3305 13.3129 1136 145.553 1030.94 472.859
1664 0 89.3217 13.1435 1174 147.445 1030.14 471.855
1665 0 91.2063 13.0364 1189 139.815 1032.27 469.647
1666 1 50.034 12.1517 608 143.329 1031.19 489.78
1667 0 52.0304 12.3966 645 136.037 1030.4 489.079
1668 0 52.0737 12.5015 651 141.24 1027.69 489.071
1669 0 54.0634 12.3189 666 136.302 1029.59 487.968
1670 0 55.0719 12.8014 705 136.407 1029.29 487.095
1671 0 57.0829 12.911 737 134.107 1030.52 486.417
1672 0 58.1217 12.5598 730 133.925 1030.14 485.555
1673 0 60.2037 13.0557 786 131.066 1030.03 484.56
1674 0 62.1587 13.3368 829 132.01 1031.29 483.614
1675 0 65.1458 12.8021 834 128.843 1031.03 482.49
1676 0 68.1413 12.6502 862 119.039 1031.94 481.217
1677 0 69.1761 13.2994 920 126.253 1030.46 479.668
1678 0 71.1771 13.1924 939 122.05 1030.88 479.195
1679 0 73.4918 12.7497 937 120.998 1034.3 477.72
1680 0 76.3282 13.1668 1005 119.263 1032.24 476.489
1681 0 76.3282 13.1668 1005 158.69 1031.24 476.489
1682 0 83.342 12.7667 1064 117.622 1031.2 473.045
1683 0 86.2892 12.968 1119 115.33 1030.87 471.406
1684 0 89.2585 12.7831 1141 124.163 1032.25 470.462
1685 1 48.0945 11.0616 532 111.479 1031.82 491.566
1686 0 49.0187 11.3018 554 117.83 1033 490.675
1687 0 50.0371 11.7713 589 116.34 1032.58 490.472
1688 0 50.1376 12.5255 628 119.967 1031.96 489.025
1689 0 52.1324 12.6601 660 113.617 1031.84 487.952
1690 0 53.1425 12.1936 648 113.282 1032.42 487.977
1691 0 54.1601 12.7769 692 114.844 1032.58 487.312
1692 0 57.0468 12.6913 724 114.039 1031.9 486.349
1693 0 59.1191 12.5848 744 117.656 1031.23 485.472
1694 0 61.1688 12.5554 768 117.811 1031.43 484.49
1695 0 63.285 12.7834 809 103.47 1030.72 483.036
1696 0 65.2173 13.1714 859 115.01 1031.27 482.106
1697 0 67.4081 12.9806 875 110.48 1030.32 481.327
1698 0 66.1815 13.2665 878 114.002 1032.29 480.461
1699 0 71.2424 13.026 928 115.828 1032.18 478.786
1700 0 74.1888 13.1691 977 114.867 1033.6 477.697
1701 0 75.1719 13.2363 995 111.675 1032.11 476.595
1702 0 78.2434 13.3558 1045 115.444 1031.78 475.341
1703 0 79.2402 13.1751 1044 112.92 1032.69 473.99
1704 0 84.359 13.1936 1113 116.825 1031.47 473.252
1705 0 86.1679 13.6013 1172 114.774 1032.6 471.484
1706 0 89.2676 13.6556 1219 116.639 1033.19 470.284
1707 0 93.5073 13.4749 1260 116.165 1032.43 468.435
1708 0 96.2943 13.9157 1340 116.51 1030.9 465.847
1709 0 100.221 13.6897 1372 111.007 1032.21 464.375
1710 1 55.089 12.4526 686 112.404 1032.83 485.745
1711 0 57.305 12.5294 718 110.118 1032.65 484.457
1712 0 59.3166 13.0992 777 113.535 1034.21 484.537
1713 0 59.18 12.8929 763 118.185 1032.99 485.114
1714 0 64.1657 12.5768 807 111.19 1032.67 483.228
1715 0 64.1302 12.5058 802 112.623 1033.82 482.501
1716 0 67.2292 13.1342 883 108.35 1033.85 481.426
1717 0 69.1763 12.6922 878 109.719 1032.04 480.763
1718 0 72.17 13.0941 945 111.488 1033.96 479.628
1719 0 74.2103 13.071 970 112.456 1033.05 477.85
1720 0 75.1956 13.7242 1032 111.933 1032.53 477.135
1721 0 80.1884 13.2064 1059 109.855 1032.51 474.86
1722 0 82.2215 13.2934 1093 105.875 1033.8 473.737
1723 0 82.2047 13.5515 1114 107.969 1033.95 472.803
1724 0 87.1232 13.326 1161 106.342 1031.67 471.663
1725 0 90.1379 13.3129 1200 107.39 1032.65 469.696
1726 0 94.169 13.0404 1228 107.525 1032.3 467.905
1727 1 51.3205 11.9251 612 105.915 1034.43 489.745
1728 0 51.1604 12.9397 662 101.023 1033.72 488.048
1729 0 52.0787 12.9804 676 103.445 1034.1 487.632
1730 0 54.2125 12.6539 686 101.94 1032.85 486.966
1731 0 56.0969 13.031 731 103.131 1033.33 485.758
1732 0 59.432 12.3503 734 100.123 1032.98 484.955
1733 0 62.209 12.5062 778 97.8792 1032.65 483.274
1734 0 62.1282 12.9088 802 100.82 1031.99 482.713
1735 0 65.2512 12.5668 820 99.2073 1031.5 481.715
1736 0 68.2435 12.6312 862 96.2854 1032.45 480.528
1737 0 70.2694 12.9786 912 96.8618 1030.68 479.474
1738 0 71.2706 13.1892 940 99.417 1032.4 477.721
1739 0 74.3647 13.0842 973 97.2641 1032.06 476.821
1740 0 75.235 13.3316 1003 94.2592 1035.22 476.446
1741 0 79.3004 13.5056 1071 95.2176 1034.46 474.977
1742 0 83.2977 13.2297 1102 97.9292 1032.69 472.473
1743 0 85.2074 13.5552 1155 95.6147 1034.1 472.246
1744 0 88.2316 13.4532 1187 97.1483 1034.35 470.063
1745 0 92.1984 13.5143 1246 98.5096 1035.07 468.788
1746 0 95.1983 13.246 1261 96.069 1033.45 467.538
1747 1 50.2341 12.183 612 99.5588 1032.45 489.837
1748 0 51.0355 12.5795 642 93.366 1034.19 489.154
1749 0 53.0898 12.7332 676 98.7396 1032.91 488.28
1750 0 56.0934 12.497 701 99.6919 1034.9 487.25
1751 0 56.0323 13.0639 732 99.8552 1033.12 486.958
1752 0 58.1012 13.3044 773 101.441 1033.22 486.295
1753 0 60.0252 13.2278 794 99.6662 1033.11 484.962
1754 0 61.162 13.4397 822 96.4392 1034.09 484.294
1755 0 63.0479 13.1963 832 99.3413 1032.94 483.257
1756 0 65.0498 13.4205 873 97.5407 1032.22 482.522
1757 0 67.1141 13.5143 907 99.6373 1031.96 481.805
1758 0 69.161 13.8662 959 96.488 1032.19 480.882
1759 0 71.0749 13.5913 966 97.4068 1033.93 480.253
1760 0 74.2156 14.4579 1073 94.1706 1034.14 478.132
1761 0 74.1734 13.6707 1014 101.656 1033.61 477.822
1762 0 75.165 14.1289 1062 100.183 1032.87 476.382
1763 0 80.1682 13.9207 1116 101.542 1033.78 475.592
1764 0 83.1776 13.4772 1121 96.2435 1032.69 474.32
1765 0 85.2694 13.7329 1171 100.98 1034.5 473.506
1766 0 87.1267 14.0485 1224 94.6413 1033.46 471.448
1767 0 90.2737 13.8025 1246 100.697 1033.42 470.111
1768 0 94.3606 13.5544 1279 100.597 1033.73 469.255
1769 0 96.2547 13.7344 1322 101.083 1032.56 467.213
1770 1 51.0768 12.8826 658 103.904 1033.56 488.84
1771 0 53.1037 12.8428 682 98.893 1033.07 488.581
1772 0 55.216 13.1484 726 101.869 1031.99 487.428
1773 0 57.2829 12.9009 739 98.7943 1033.34 486.954
1774 0 57.22 13.4219 768 98.4583 1034.42 486.049
1775 0 59.2144 13.6284 807 103.931 1034.19 485.559
1776 0 62.1843 13.1705 819 102.111 1034.52 483.908
1777 0 64.2101 12.8952 828 103.83 1031.89 482.953
1778 0 65.2417 13.5496 884 102.084 1034.08 481.79
1779 0 67.1496 13.3284 895 104.82 1031.41 481.03
1780 0 69.1669 13.4891 933 106.549 1032.22 480.318
1781 0 72.0696 13.4315 968 108.196 1033.4 478.878
1782 0 75.1195 13.4719 1012 103.722 1034.34 477.389
1783 0 75.2271 13.7849 1037 108.192 1032.44 476.731
1784 0 78.2042 13.8356 1082 107.668 1032.54 475.261
1785 0 82.1063 13.6287 1119 107.985 1032.76 473.411
1786 0 84.18 13.5305 1139 110.081 1032.26 472.397
1787 0 88.1708 13.6326 1202 106.218 1031.95 471.34
1788 0 90.1648 13.7415 1239 108.379 1033.21 470.119
1789 0 92.12 13.7212 1264 109.162 1031.86 469.001
1790 0 95.0665 14.2321 1353 112.75 1033.19 467.381
1791 0 97.0433 14.035 1362 110.139 1032.44 466.37
1792 0 101.132 14.1201 1428 108.599 1033.75 464.034
1793 0 104.147 14.4219 1502 108.607 1031.73 462.243
1794 0 108.192 14.2617 1543 109.454 1031.88 460.723
1795 0 111.204 14.1721 1576 111.179 1032.37 458.26
1796 0 115.211 14.1046 1625 114.584 1031.51 456.516
1797 0 120.211 14.6492 1761 109.704 1033.12 452.71
1798 1 65.0765 12.6928 826 113.093 1033.43 482.12
1799 0 67.2022 13.2585 891 112.678 1031.37 481.375
1800 0 69.1162 13.1952 912 109.94 1031.02 480.473
1801 0 71.3135 13.4196 957 115.373 1029.18 478.783
1802 0 74.1629 13.4569 998 113.837 1030.71 477.455
1803 0 75.2307 13.5716 1021 113.763 1032.43 477.123
1804 0 78.1959 13.658 1068 122.658 1031.59 474.98
1805 0 82.2307 13.5472 1114 116.023 1033.87 473.811
1806 0 84.2998 13.452 1134 120.118 1032.95 472.324
1807 0 87.2452 13.5251 1180 118.117 1031.42 471.136
1808 0 91.0747 13.6591 1244 121.952 1031.37 469.562
1809 0 94.1449 13.4049 1262 122.299 1032.34 467.673
1810 0 96.2158 13.4697 1296 123.215 1031.75 465.985
1811 0 99.2134 14.0102 1390 118.306 1032.81 464.353
1812 0 103.179 13.4814 1391 120.722 1034.97 462.376
1813 0 108.15 13.2686 1435 114.783 1033.09 460.541
1814 1 55.2556 11.8359 654 119.242 1033.53 485.693
1815 0 57.2651 12.1365 695 116.446 1031.79 483.012
1816 0 61.0797 12.9175 789 113.948 1031.44 483.091
1817 0 60.2672 12.7267 767 115.982 1032.13 482.704
1818 0 63.1456 12.6375 798 115.678 1033.92 482.647
1819 0 63.1805 12.8679 813 118.986 1031.9 481.455
1820 0 67.1543 12.8808 865 114.91 1031.24 480.459
1821 0 68.2754 13.4895 921 113.807 1032.38 478.708
1822 0 70.239 13.3117 935 121.925 1031.41 478.578
1823 0 73.1081 13.1176 959 124.995 1031.57 476.886
1824 0 75.1092 13.314 1000 124.232 1032.61 475.666
1825 0 76.1255 13.596 1035 122.708 1033.91 474.482
1826 0 81.1686 13.3919 1087 126.573 1031.97 473.934
1827 0 83.1098 13.5724 1128 123.95 1030.81 470.611
1828 0 85.2026 13.6968 1167 123.804 1032.26 470.3
1829 0 87.183 13.7068 1195 128.705 1031.33 466.835
1830 0 90.1739 14.0284 1265 133.025 1031.5 467.072
1831 0 94.1756 13.9527 1314 127.519 1032.31 464.791
1832 0 97.337 14.1878 1381 130.64 1031.08 463.797
1833 0 99.2578 14.1954 1409 127.94 1031.75 461.584
1834 0 102.191 14.1891 1450 135.142 1030.53 461.248
1835 0 106.24 13.959 1483 147.143 1031.52 461.007
1836 0 108.159 14.5896 1578 150.241 1031.21 458.741
1837 0 113.159 13.8831 1571 151.487 1034.23 456.977
1838 1 59.0858 12.6596 748 145.036 1033.3 484.471
1839 0 61.2053 12.7603 781 154.154 1034.22 483.254
1840 0 62.1889 13.3464 830 146.751 1031.94 481.966
1841 0 64.182 13.1657 845 147.17 1034.54 481.324
1842 0 66.2249 12.835 850 148.166 1032.38 481.045
1843 0 66.1654 13.3907 886 149.342 1030.42 479.614
1844 0 70.1778 13.3803 939 143.659 1031.9 478.458
1845 0 70.2698 13.4055 942 149.573 1031.31 478.749
1846 0 74.2502 13.7104 1018 142.809 1031.26 475.704
1847 0 75.3108 13.6899 1031 150.121 1033.21 475.016
1848 0 77.1275 13.8472 1068 143.278 1033.55 473.436
1849 0 79.3071 13.7566 1091 149.345 1032.31 472.502
1850 0 83.3862 13.7913 1150 146.677 1031.46 469.661
1851 0 83.3862 13.7913 1150 160.707 1031.46 469.661
1852 0 88.6191 13.5298 1199 147.874 1031.4 465.122
1853 0 89.3622 14.1111 1261 148.162 1030.81 464.078
1854 0 93.3978 13.6299 1273 147.115 1031.04 463.002
1855 0 95.3625 14.0307 1338 146.244 1031.29 460.541
1856 0 99.6475 13.9994 1395 146.056 1031 459.945
1857 0 102.517 14.4074 1477 141.519 1031.18 457.852
1858 0 103.578 14.1536 1466 148.669 1030.34 456.31
1859 0 107.288 14.1209 1515 148.558 1029.74 455.045
1860 0 112.352 15.1043 1697 144.844 1030.2 451.712
1861 0 116.593 14.3148 1669 141.216 1029.59 450.594
1862 1 59.1345 12.9366 765 134.49 1032.33 479.384
1863 0 62.2055 13.15 818 141.589 1032.28 477.77
1864 0 62.3493 13.28 828 146.7 1032.19 477.28
1865 0 64.2516 13.4938 867 146.354 1031.38 475.615
1866 0 68.3239 13.4067 916 141.293 1033.39 474.157
1867 0 70.3421 13.349 939 142 1032.14 473.576
1868 0 72.2918 13.6253 985 145.504 1031.93 471.534
1869 0 77.2824 13.8842 1073 140.096 1032.37 469.768
1870 0 78.4376 13.8836 1089 142.41 1032.55 468.695
1871 0 83.4542 13.8519 1156 135.123 1033.35 467.517
1872 0 85.3255 13.9466 1190 144.723 1033.04 466.356
1873 0 87.2294 13.9173 1214 149.381 1032.72 464.158
1874 0 91.4018 13.8838 1269 144.745 1031.52 462.969
1875 0 95.2217 14.0934 1342 147.02 1031.11 461.257
1876 0 97.2472 14.4683 1407 148.647 1031.84 459.281
1877 0 102.365 14.1356 1447 151.272 1033.39 457.232
1878 0 104.256 14.0712 1467 147.66 1030.69 455.843
1879 0 108.335 14.0767 1525 154.439 1033.97 454.121
1880 0 113.428 14.1147 1601 155.505 1033.43 452.54
1881 0 116.419 14.5595 1695 146.563 1031.46 450.219
1882 0 120.365 14.3231 1724 146.702 1033.8 448.543
1883 1 65.269 12.8392 838 139.786 1034.99 476.864
1884 0 64.3524 13.2241 851 146.249 1034.25 476.725
1885 0 67.1828 13.0688 878 147.056 1036.35 474.901
1886 0 71.3314 13.0798 933 137.904 1034.35 474.483
1887 0 74.3119 12.9185 960 144.77 1033.21 473.088
1888 0 76.121 13.3603 1017 142.055 1033.12 471.423
1889 0 79.3513 13.0811 1038 102.228 1032.63 470.239
1890 0 81.1825 13.4512 1092 145.558 1031.94 469.234
1891 0 81.3239 13.5139 1099 141.331 1032.15 468.58
1892 0 87.1888 13.3503 1164 143.998 1030.32 466.261
1893 0 91.2789 13.3985 1223 146.684 1031.22 464.434
1894 0 93.2718 13.6268 1271 145.445 1031.33 462.987
1895 0 97.2412 13.5231 1315 141.56 1032.27 461.224
1896 0 99.2033 13.2455 1314 143.635 1032.49 460.561
1897 0 103.534 13.3097 1378 149.017 1032.61 457.418
1898 1 57.1514 11.6708 667 141.526 1032.2 480.63
1899 0 57.2532 12.8552 736 133.325 1035.06 479.592
1900 0 59.2632 12.7904 758 140.185 1033.94 478.405
1901 0 62.2837 12.4752 777 146.192 1036.58 477.695
1902 0 63.4223 12.9292 820 139.049 1036.01 477.326
1903 0 65.1234 12.5301 816 143.224 1034.05 476.195
1904 0 68.1288 12.5791 857 138.666 1034.15 474.883
1905 0 69.2285 13.2893 920 141.8 1033.62 473.878
1906 0 72.0944 12.7056 916 141.26 1034.07 472.206
1907 0 74.1432 12.5972 934 139.092 1031.34 470.729
1908 0 77.1488 12.8194 989 134.635 1030.5 469.465
1909 0 80.116 12.5693 1007 142.08 1031.86 467.715
1910 0 83.0395 12.8011 1063 138.115 1033.01 466.152
1911 0 87.1263 12.7401 1110 139.215 1032.75 465.454
1912 0 89.0602 12.7891 1139 140.824 1033.16 463.864
1913 0 92.2198 12.969 1196 139.921 1032.79 461.646
1914 0 95.1532 12.9791 1235 138.124 1032.7 460.287
1915 1 48.0835 11.0225 530 134.308 1033.31 484.702
1916 0 50.0817 11.641 583 135.172 1031.36 486.575
1917 0 54.1003 11.9408 646 132.215 1031.57 485.365
1918 0 54.1544 12.4274 673 129.144 1033 484.871
1919 0 55.0905 12.3433 680 131.368 1032.83 484.316
1920 0 58.1235 12.3702 719 130.305 1033.01 482.366
1921 0 60.0869 12.3654 743 125.522 1033.28 482.505
1922 0 60.2448 12.665 763 129.41 1031.87 481.422
1923 0 60.1306 12.9884 781 134.962 1030.91 481.462
1924 0 63.1642 13.2987 840 121.667 1030.35 480.585
1925 0 66.1605 12.9685 858 126.625 1032.05 480.001
1926 0 68.1414 13.2078 900 130.714 1033.86 479.067
1927 0 70.1145 13.2498 929 128.156 1032.69 477.962
1928 0 71.1396 13.6352 970 129.934 1033.98 477.486
1929 0 72.3473 13.4352 972 134.114 1034.37 476.204
1930 0 75.1471 13.3339 1002 136.121 1034.91 475.026
1931 0 78.1302 13.1959 1031 133.872 1035.09 473.945
1932 0 80.1527 13.5741 1088 137.056 1032.89 472.805
1933 0 81.208 14.1365 1148 134.388 1035.31 472.158
1934 0 85.1566 13.8803 1182 143.252 1034.1 469.686
1935 0 88.291 13.7387 1213 144.769 1032.66 468.868
1936 0 90.1648 14.0631 1268 140.506 1032.98 467.006
1937 0 91.3922 14.2791 1305 143.491 1033.13 465.981
1938 0 97.4337 13.6708 1332 146.276 1032.11 462.51
1939 0 99.33 13.6917 1360 146.885 1032.83 461.118
1940 0 103.382 13.8516 1432 143.256 1032.33 459.668
1941 0 108.303 13.7485 1489 147.45 1032.67 458.629
1942 1 56.1275 12.3647 694 138.121 1031.8 484.069
1943 0 57.1174 12.4655 712 145.482 1034.54 483.619
1944 0 58.1542 12.6044 733 140.554 1032.13 482.426
1945 0 60.0954 12.8795 774 144.773 1032.68 481.771
1946 0 61.1513 12.9842 794 151.453 1030.97 482.086
1947 0 62.0711 13.3718 830 144.761 1033.46 480.359
1948 0 64.0752 13.3281 854 140.849 1033.25 478.852
1949 0 67.0959 12.9665 870 146.637 1034.04 478.78
1950 0 69.1054 13.0525 902 145.385 1033.9 477.498
1951 0 72.077 13.0277 939 149.955 1033.01 476.814
1952 0 72.2308 13.3323 963 145.21 1033.98 476.034
1953 0 74.3982 13.0648 972 149.073 1033.18 474.619
1954 0 77.2286 13.6866 1057 151.873 1032.08 473.187
1955 0 78.2453 13.266 1038 152.822 1033.25 471.883
1956 0 80.2468 13.5582 1088 150.494 1032.56 470.605
1957 0 84.2598 13.4465 1133 146.298 1033.8 468.968
1958 0 87.2565 13.4546 1174 143.98 1033.71 467.301
1959 0 89.2188 13.2932 1186 141.783 1034.47 465.569
1960 0 90.424 13.4809 1219 146.921 1033.31 464.093
1961 0 92.4078 13.7001 1266 145.085 1032.17 462.194
1962 0 98.3071 13.3256 1310 145.256 1033.01 459.692
1963 0 101.347 12.995 1317 144.579 1034.62 459.31
1964 0 104.437 12.9552 1353 144.894 1031.24 457.738
1965 0 108.24 12.9989 1407 142.654 1034.26 456.375
1966 1 56.077 11.2167 629 142.582 1034.5 482.025
1967 0 59.0947 11.6931 691 133.384 1034.62 480.397
1968 0 61.1097 12.5512 767 131.128 1032.95 479.37
1969 0 63.0569 12.1636 767 128.216 1033.95 479.175
1970 0 64.0394 12.3986 794 136.913 1033.8 477.295
1971 0 66.0794 12.4396 822 135.049 1034.18 475.686
1972 0 70.1037 11.9965 841 136.265 1033.83 474.855
1973 0 72.0809 12.4582 898 133.668 1034.63 473.631
1974 0 73.2048 12.7178 931 128.656 1033.91 472.274
1975 0 77.2034 12.2663 947 136.927 1034.6 472.144
1976 0 78.1722 12.7155 994 133.3 1031.35 470.255
1977 0 80.1707 12.5607 1007 133.687 1031.95 469.598
1978 0 85.2319 12.6244 1076 132.983 1033.06 467.384
1979 0 87.2072 13.0264 1136 129.504 1032.65 466.461
1980 0 90.1161 12.9389 1166 134.928 1033.24 464.495
1981 1 47.0871 9.89655 466 136.908 1033.29 486.764
1982 0 48.0702 10.2558 493 137.667 1032.87 486.515
1983 0 51.1121 10.252 524 133.922 1033.81 485.573
1984 0 52.1185 10.6488 555 136.481 1033.68 485.436
1985 0 52.2426 11.2169 586 133.154 1033.88 484.258
1986 0 55.0693 11.6217 640 129.941 1034.2 483.152
1987 0 55.0509 12.1161 667 133.31 1034.87 482.762
1988 0 58.0438 12.4561 723 135.09 1032.12 480.57
1989 0 58.0777 12.3628 718 139.891 1031.8 480.68
1990 0 62.0806 12.3871 769 139.399 1034.15 480.29
1991 0 64.1137 12.5714 806 131.728 1032.51 478.77
1992 0 65.1452 13.0478 850 135.814 1032.74 477.758
1993 0 67.1906 12.8441 863 133.771 1035.04 477.228
1994 0 70.1978 12.7212 893 136.255 1034.27 475.672
1995 0 71.066 12.9035 917 137.992 1033.54 474.553
1996 0 74.1965 13.0464 968 133.277 1032.99 474.094
1997 0 76.1422 13.1071 998 143.144 1034.48 473.829
1998 0 77.1905 13.4213 1036 138.799 1037.29 472.161
1999 0 80.235 13.4106 1076 148.578 1036.66 471.086
2000 0 82.1891 13.5054 1110 151.231 1035.54 470.326
2001 0 85.1308 13.6848 1165 151.209 1033.37 469.009
2002 0 86.2015 13.7353 1184 152.533 1033.45 467.692
2003 0 90.1876 13.6382 1230 153.476 1033.7 466.482
2004 0 93.4223 14.0973 1317 159.023 1033.05 463.642
2005 0 95.233 13.6507 1300 163.432 1033.47 463.286
2006 0 98.3405 13.8295 1360 168.446 1033.07 462.273
2007 0 99.3485 14.3133 1422 164.169 1035.42 460.698
2008 0 102.273 14.0213 1434 161.905 1033.13 459.592
2009 0 105.46 14.413 1520 165.212 1031.93 457.486
2010 0 107.27 14.2072 1524 167.439 1032.66 456.343
2011 0 112.268 14.4565 1623 167.587 1031.54 454.022
2012 0 114.117 14.3362 1636 163.545 1032.2 453.12
2013 0 120.277 14.3503 1726 155.359 1033.06 450.402
2014 0 125.277 14.3123 1793 159.926 1032.49 449.115
2015 1 69.1681 13.0407 902 161.912 1034.08 476.283
2016 0 71.029 13.22 939 161.048 1035.35 476.291
2017 0 74.0549 13.598 1007 162.035 1033.8 474.67
2018 0 77.1371 13.4436 1037 162.38 1033.14 473.722
2019 0 79.1133 13.7398 1087 166.684 1032.05 471.795
2020 0 82.0704 13.4762 1106 162.267 1033.11 471.524
2021 0 86.1574 13.9744 1204 162.6 1034.07 470.189
2022 0 87.0283 13.984 1217 161.1 1035.78 468.443
2023 0 92.146 13.8367 1275 163.064 1036.08 467.587
2024 0 95.1181 13.9195 1324 163.248 1035.48 465.909
2025 0 98.16 14.2319 1397 162.444 1033.27 464.078
2026 0 99.0915 14.2293 1410 171.861 1035.74 463.346
2027 0 104.134 14.3276 1492 164.84 1033.22 461.749
2028 0 107.043 14.3401 1535 169.683 1033.54 459.953
2029 0 111.128 13.7409 1527 169.737 1033.33 459.407
2030 0 114.408 13.9937 1601 166.912 1031.72 455.9
2031 0 118.244 14.1402 1672 164.685 1032.3 454.201
2032 1 66.2794 13.2319 877 162.864 1033.49 479.743
2033 0 68.1307 13.5181 921 168.269 1035.05 479.657
2034 0 70.1466 13.8709 973 156.286 1034.95 477.672
2035 0 72.1305 14.0301 1012 160.991 1035.32 477.073
2036 0 76.1913 13.9386 1062 165.19 1035.21 475.521
2037 0 76.1427 14.3809 1095 163.379 1032.02 473.951
2038 0 80.2084 14.3003 1147 165.99 1036.18 473.062
2039 0 82.1283 14.3678 1180 169.686 1033.36 471.792
2040 0 86.2815 14.2441 1229 165.637 1033.76 470.965
2041 0 88.1427 14.5106 1279 158.97 1032.73 469.421
2042 0 92.2493 14.515 1339 163.6 1033.29 466.97
2043 0 95.1922 14.5075 1381 160.715 1031.85 465.657
2044 0 99.0801 14.2208 1409 165.665 1035.67 463.958
2045 0 102.19 14.5024 1482 164.924 1033.97 462.577
2046 0 104.323 14.6565 1529 161.759 1033.98 460.514
2047 0 109.099 14.4181 1573 165.562 1032.49 459.652
2048 0 112.229 14.5684 1635 158.914 1032.97 457.404
2049 0 115.414 14.435 1666 164.563 1036.53 455.317
2050 1 60.2812 13.8683 836 164.667 1034.26 481.197
2051 0 65.1231 14.4188 939 162.831 1034.5 479.953
2052 0 66.0993 14.4782 957 166.711 1034.9 478.412
2053 0 69.1905 13.9759 967 164.179 1033.32 477.79
2054 0 71.1553 14.0819 1002 157.469 1033.57 476.507
2055 0 73.2051 14.3842 1053 168.683 1033.75 475.726
2056 0 77.1847 14.3293 1106 167.777 1034.62 474.893
2057 0 79.1822 14.5614 1153 170.601 1034.23 473.854
2058 0 79.2127 14.7325 1167 169.545 1035.51 472.765
2059 0 85.2034 15.7036 1338 162.151 1033.37 468.994
2060 0 85.3656 14.4086 1230 167.836 1034.04 469.124
2061 0 89.2694 14.7307 1315 168.431 1035.05 467.958
2062 0 92.2192 14.9101 1375 160.953 1034.63 466.78
2063 0 97.1854 14.5495 1414 171.122 1036.56 465.47
2064 0 100.174 14.335 1436 168.723 1035.59 463.818
2065 0 102.318 14.6406 1498 171.662 1035.79 462.283
2066 0 106.151 14.2721 1515 169.247 1037.22 460.564
2067 0 111.279 14.5579 1620 163.267 1036.34 458.198
2068 0 112.13 14.5813 1635 166.052 1033.5 457.511
2069 1 57.197 13.8119 790 175.952 1034.18 484.025
2070 0 60.1059 14.1084 848 167.137 1034.51 482.486
2071 0 62.2014 14.2601 887 169.809 1033.35 481.894
2072 0 64.2129 14.3273 920 164.961 1034.16 481.371
2073 0 66.1583 14.1781 938 169.402 1034.07 480.428
2074 0 68.1072 14.6093 995 159.24 1035.16 478.48
2075 0 69.1377 14.7387 1019 170.844 1035.12 478.238
2076 0 71.1098 14.9768 1065 167.605 1034.35 476.813
2077 0 74.2236 14.591 1083 163.765 1032.6 475.392
2078 0 77.3985 14.8582 1150 166.779 1034.23 474.766
2079 0 79.19 14.964 1185 162.332 1032.8 472.972
2080 0 80.2126 15.5836 1250 155.762 1032.01 472.043
2081 0 84.1389 15.3437 1291 163.098 1033.96 470.906
2082 0 86.1536 15.1358 1304 159.562 1034.66 469.082
2083 0 89.1593 15.2872 1363 156.739 1034.76 468.031
2084 0 94.2226 15.0495 1418 154.621 1035.32 466.209
2085 0 97.3711 15.0045 1461 159.252 1036.54 464.587
2086 0 100.355 15.1661 1522 158.082 1036.25 462.076
2087 0 104.388 15.222 1589 150.282 1036 460.963
2088 0 106.232 15.1649 1611 158.127 1033.54 459.721
2089 0 111.272 15.2509 1697 158.229 1034.31 457.612
2090 1 56.5032 14.5833 824 158.371 1033.06 483.414
2091 0 59.3005 14.8734 882 159.227 1032.58 482.417
2092 0 62.3399 14.822 924 160.913 1034.3 481.439
2093 0 63.2785 15.2184 963 151.016 1034.33 480.221
2094 0 66.1285 14.9709 990 152.344 1034.64 478.098
2095 0 67.1724 15.3932 1034 157.011 1034.22 476.775
2096 0 70.0714 15.0704 1056 159.915 1035.16 476.366
2097 0 72.1913 15.265 1102 155.883 1035 474.795
2098 0 74.4232 15.6403 1164 148.767 1034.72 473.428
2099 0 76.1901 15.2251 1160 153.928 1033.88 473.122
2100 0 81.2553 15.5682 1265 144.768 1036.08 471.624
2101 0 83.0901 15.4411 1283 157.787 1034.51 470.117
2102 0 85.2619 15.599 1330 147.468 1035.5 469.18
2103 0 90.2604 15.3113 1382 153.309 1034.73 467.696
2104 0 91.2389 15.6512 1428 145.914 1034.96 466.443
2105 0 94.2523 15.5964 1470 151.184 1033.01 465.147
2106 0 97.44 15.6712 1527 153.177 1034.94 463.885
2107 0 101.172 15.7652 1595 146.154 1034.51 461.565
2108 0 105.452 15.2866 1612 145.624 1033.7 460.054
2109 0 109.452 15.7238 1721 148.088 1033.26 457.567
2110 0 113.385 15.443 1751 152.914 1034.63 456.37
2111 1 58.1509 14.7203 856 152.832 1035.88 482.665
2112 0 59.4322 14.9582 889 162.57 1033.94 481.242
2113 0 60.2091 15.7617 949 162.813 1035.3 480.199
2114 0 65.2753 15.1206 987 157.219 1032.45 479.322
2115 0 66.2864 15.2671 1012 163.404 1033.12 478.249
2116 0 67.1861 15.9706 1073 164.838 1034.63 477.436
2117 0 72.2756 15.3579 1110 161.614 1034.43 476.167
2118 0 73.3726 15.946 1170 163.457 1035.71 474.481
2119 0 77.2016 15.2587 1178 164.598 1033.04 473.116
2120 0 78.1522 16.148 1262 160.307 1033.75 471.809
2121 0 82.2867 15.7012 1292 166.43 1033.85 470.2
2122 0 84.2776 15.4608 1303 171.87 1034.16 469.972
2123 0 87.1755 15.9334 1389 165.58 1031.44 467.974
2124 0 90.1917 16.1212 1454 166.771 1035.5 467.215
2125 0 93.3444 15.791 1474 166.923 1035.79 465.906
2126 0 97.1121 16.1463 1568 167.402 1033.98 463.716
2127 0 99.1695 15.892 1576 163.617 1034.32 462.615
2128 0 103.155 15.8208 1632 171.716 1034.61 460.533
2129 0 108.19 15.8517 1715 168.049 1035.65 459.034
2130 0 110.149 16.1146 1775 165.069 1035.2 457.432
2131 1 57.0774 14.9096 851 174.173 1036.12 483.286
2132 0 59.1394 15.0999 893 77.505 1036.18 482.329
2133 0 61.1268 14.9689 915 172.614 1034.98 481.578
2134 0 64.1101 14.9898 961 171.038 1033.18 479.599
2135 0 67.3395 14.9392 1006 170.416 1032.26 478.413
2136 0 69.1053 15.3244 1059 172.074 1034.21 477.825
2137 0 71.1912 15.1564 1079 166.759 1034.17 475.902
2138 0 73.1461 15.3528 1123 164.594 1036.11 473.791
2139 0 77.0756 15.0242 1158 172.387 1035.29 472.992
2140 0 80.1118 15.0914 1209 168.233 1033.26 472.695
2141 0 83.1142 15.1238 1257 163.648 1034.42 472.193
2142 0 85.1143 15.4851 1318 171.07 1033.42 470.037
2143 0 88.1034 15.0051 1322 170.679 1034.16 468.543
2144 0 92.0833 15.095 1390 162.699 1035.12 467.006
2145 0 95.2574 15.1274 1441 160.198 1033.74 465.424
2146 0 99.1781 15.4873 1536 166.35 1033.83 463.681
2147 0 103.275 15.2893 1579 164.116 1034.78 461.995
2148 1 53.1345 14.3786 764 168.607 1034.01 485.262
2149 0 56.0769 14.6585 822 166.108 1034.58 483.777
2150 0 57.1457 14.9268 853 158.583 1034.79 483.075
2151 0 58.1132 15.3494 892 171.45 1035.99 482.13
2152 0 59.106 15.2269 900 166.87 1035.38 481.071
2153 0 63.1989 15.0635 952 166.475 1033.88 480.049
2154 0 65.078 14.7054 957 166.401 1035 479.257
2155 0 68.2099 14.5873 995 169.435 1034.62 478.102
2156 0 71.1477 15.1235 1076 159.577 1034.97 476.887
2157 0 73.1351 14.8766 1088 169.744 1035.41 475.074
2158 0 74.1002 15.1686 1124 172.021 1034.84 473.988
2159 0 78.2074 15.2032 1189 172.419 1034.81 472.087
2160 0 81.1846 14.892 1209 170.345 1036.05 471.526
2161 0 84.2649 14.8935 1255 170.058 1034.88 470.328
2162 0 86.2176 15.3681 1325 161.191 1033.72 468.614
2163 0 90.1091 15.3037 1379 169.862 1035.82 467.408
2164 0 92.1937 15.3915 1419 166.307 1036.26 466.186
2165 0 98.1502 14.9974 1472 162.188 1035.56 463.592
2166 0 101.16 15.2332 1541 159.657 1035.8 462.369
2167 0 105.129 15.0672 1584 162.182 1032.82 460.412
2168 0 109.226 15.1246 1652 168.053 1033.84 458.28
2169 0 112.21 15.6136 1752 163.946 1034.94 455.795
2170 0 120.318 15.11 1818 166.783 1035.95 453.475
2171 0 122.194 15.3526 1876 165.937 1036.29 451.194
2172 0 128.184 14.8536 1904 167.487 1036.7 449.654
2173 1 62.1428 14.692 913 170.859 1036.34 479.762
2174 0 65.0613 14.7861 962 160.823 1036.26 479.188
2175 0 68.18 14.2271 970 166.921 1037.35 478.441
2176 0 71.0148 14.3632 1020 161.355 1038.5 477.433
2177 0 72.1097 14.6166 1054 164.316 1038.48 475.362
2178 0 76.1119 14.4787 1102 168.829 1035.99 473.805
2179 0 80.0841 14.5972 1169 166.429 1036.73 471.646
2180 0 83.1064 14.6318 1216 164.926 1038.26 470.52
2181 0 85.124 14.7197 1253 162.006 1037.6 469.494
2182 0 89.0832 14.6043 1301 163.868 1035.76 467.506
2183 0 91.0824 14.7998 1348 162.076 1034.78 465.56
2184 0 97.1227 14.4868 1407 168.554 1035.6 464.307
2185 1 51.0406 14.2436 727 166.737 1036.54 484.871
2186 0 53.0837 14.3924 764 155.963 1035.96 484.458
2187 0 55.0955 14.484 798 159.896 1036.04 482.998
2188 0 58.0387 14.3525 833 160.186 1035.14 481.978
2189 0 59.1585 14.6724 868 158.085 1035.76 481.26
2190 0 61.0395 14.9248 911 161.81 1034.93 480.538
2191 0 66.1383 14.1522 936 164.6 1036.37 479.353
2192 0 67.1032 14.4852 972 164.902 1036.16 478.374
2193 0 70.0663 14.5576 1020 161.899 1036.02 476.846
2194 0 72.0428 14.9633 1078 164.876 1036.99 475.356
2195 0 75.1203 14.8429 1115 168.754 1035.98 474.854
2196 0 78.1226 14.7589 1153 162.479 1036.17 473.071
2197 0 80.0956 14.9322 1196 153.163 1035.35 470.955
2198 0 85.1256 14.8017 1260 171.775 1035.25 470.196
2199 0 88.113 14.402 1269 167.604 1037.31 468.426
2200 0 92.1546 14.7361 1358 159.507 1037.23 467.191
2201 0 95.4462 14.626 1396 168.925 1035.48 465.609
2202 0 98.1446 14.6111 1434 167.418 1036.44 464.478
2203 0 101.171 14.5595 1473 169.13 1036.12 462.248
2204 1 55.1234 13.9505 769 168.782 1035.93 484.811
2205 0 55.1412 14.345 791 165.119 1035.49 484.274
2206 0 58.0584 14.0548 816 169.04 1036.48 482.936
2207 0 61.0809 14.1124 862 163.434 1036.6 482.182
2208 0 62.2447 14.4109 897 165.251 1033.76 480.858
2209 0 65.1102 14.1452 921 165.227 1036.66 480.98
2210 0 68.1361 14.1188 962 161.656 1033.53 479.012
2211 0 68.0889 14.7308 1003 156.832 1034.42 477.585
2212 0 71.0567 14.5799 1036 163.407 1035.35 476.359
2213 0 76.2877 14.3536 1095 164.171 1034.94 475.235
2214 0 78.0825 14.7792 1154 160.929 1036.86 473.625
2215 0 80.1072 14.5555 1166 164.087 1037.03 472.628
2216 0 83.1073 14.7039 1222 163.38 1034.66 471.237
2217 0 85.1256 14.9779 1275 167.818 1035.22 470.299
2218 0 89.1189 14.8902 1327 159.463 1036.07 467.011
2219 0 93.2751 14.9022 1390 160.336 1035.05 465.689
2220 0 96.1611 14.7253 1416 165.301 1034.65 464.662
2221 0 100.129 14.791 1481 162.013 1035.44 462.944
2222 0 103.239 14.7716 1525 165.065 1035.42 461.012
2223 0 107.396 14.4232 1549 167.449 1035.41 460.517
2224 1 58.3411 14.0039 817 169.878 1033.43 483.635
2225 0 61.1051 14.4342 882 167.525 1033.13 481.89
2226 0 62.2275 14.6237 910 168.206 1031.26 481.516
2227 0 64.0846 14.4184 924 163.855 1032.92 479.943
2228 0 66.3852 14.8075 983 164.894 1033.95 478.141
2229 0 68.2012 14.8531 1013 165.832 1035.52 476.968
2230 0 71.5086 14.5577 1041 163.605 1035.89 476.131
2231 0 75.2362 14.3947 1083 120.777 1037.07 474.588
2232 0 77.0868 14.3864 1109 162.005 1036.05 473.045
2233 0 80.1909 15.0017 1203 160.687 1034.89 471.926
2234 0 82.262 14.782 1216 167.826 1035.67 470.502
2235 0 86.4314 15.0293 1299 166.367 1033.29 468.744
2236 0 88.3014 14.9148 1317 162.888 1036.28 467.572
2237 0 92.6676 14.5142 1345 165.341 1037.54 466.19
2238 0 94.2657 15.1911 1432 164.248 1037.81 464.649
2239 0 98.312 14.8303 1458 167.488 1035.62 462.997
2240 0 99.1498 15.2194 1509 166.192 1034.38 461.165
2241 0 106.224 14.6859 1560 164.742 1034.46 459.512
2242 0 107.179 14.891 1596 165.444 1034.34 457.87
2243 1 56.211 14.1965 798 164.211 1033.49 482.518
2244 0 58.2923 14.2557 831 167.177 1033.57 481.493
2245 0 60.1593 14.5281 874 162.112 1034.4 480.501
2246 0 61.132 14.9022 911 169.112 1033.55 480.426
2247 0 65.2158 14.7357 961 164.916 1032.55 478.748
2248 0 67.1593 14.4135 968 170.89 1032.89 478.058
2249 0 69.286 14.8082 1026 170.244 1034.17 476.753
2250 0 70.5529 14.7407 1040 168.647 1033.7 475.576
2251 0 73.1955 15.0282 1100 170.746 1035.05 474.265
2252 0 75.1611 15.1674 1140 166.683 1033.8 473.364
2253 0 78.368 14.904 1168 166.842 1033.44 471.854
2254 0 80.2688 15.311 1229 170.731 1034.33 470.027
2255 0 82.3337 15.4007 1268 164.949 1035.77 469.405
2256 0 87.2451 14.912 1301 173.222 1035.65 466.671
2257 0 88.3183 15.229 1345 160.452 1036.4 465.036
2258 0 93.447 15.1316 1414 172.702 1034.55 463.108
2259 0 96.4086 15.1439 1460 167.611 1033.99 461.332
2260 0 101.507 14.5704 1479 175.172 1034.7 460.028
2261 1 56.492 13.825 781 168.314 1032.72 481.111
2262 0 58.244 14.1989 827 172.592 1033.78 480.347
2263 0 57.188 14.4611 827 164.399 1033.05 479.415
2264 0 61.711 14.1304 872 170.213 1032.66 477.905
2265 0 62.4933 14.5616 910 164.846 1033.58 476.844
2266 0 63.281 14.9018 943 168.636 1035.75 476.383
2267 0 67.4865 14.5214 980 166.762 1033.89 474.791
2268 0 69.3552 14.6781 1018 165.901 1033.21 473.744
2269 0 70.358 15.1369 1065 172.311 1034.29 473.012
2270 0 74.4125 14.5137 1080 166.363 1032.65 471.899
2271 0 78.5037 14.5344 1141 170.179 1034 470.391
2272 0 81.2961 14.8962 1211 165.255 1033.31 467.866
2273 0 83.4486 14.9553 1248 168.458 1035.18 466.837
2274 0 86.4226 15.0886 1304 170.85 1036.26 465.96
2275 0 90.2203 14.8304 1338 170.678 1035.17 464.262
2276 0 93.2584 15.0228 1401 162.198 1034.93 462.39
2277 0 96.3333 15.1557 1460 164.133 1034.54 460.998
2278 0 99.3043 14.8735 1477 160.582 1036.11 459.653
2279 0 101.515 14.6876 1491 166.629 1034.02 458.307
2280 0 105.25 14.5368 1530 169.356 1034.22 456.641
2281 1 55.2178 13.9629 771 157.861 1034.8 480.411
2282 0 57.1654 14.3094 818 165.183 1034.08 479.31
2283 0 60.1107 14.2238 855 168.349 1030.99 477.236
2284 0 61.3413 14.1503 868 166.656 1031.88 477.377
2285 0 64.2259 14.4334 927 163.786 1033.07 475.835
2286 0 67.202 14.2853 960 163.266 1031.73 475.136
2287 0 69.1352 14.6525 1013 162.26 1034.92 473.233
2288 0 71.1594 14.4043 1025 164.469 1035.94 472.932
2289 0 73.223 14.49 1061 167.752 1037.01 471.911
2290 0 75.2495 14.6712 1104 166.188 1037.04 470.285
2291 0 78.1634 14.6232 1143 164.016 1036.27 469.061
2292 0 81.2938 14.5645 1184 168.166 1035.69 467.232
2293 0 84.2916 14.6041 1231 169.015 1032.92 466.841
2294 0 89.1839 14.5206 1295 156.823 1033.6 465.381
2295 0 90.1176 14.5477 1311 157.402 1032.75 464.115
2296 0 93.1997 14.6889 1369 160.643 1031.91 462.793
2297 0 98.1523 14.0292 1377 160.727 1032.36 461.379
2298 0 101.102 13.9067 1406 161.34 1031.38 460.339
2299 1 56.143 12.4682 700 153.5 1033.57 482.527
2300 0 56.0451 12.9895 728 154.216 1032.29 482.121
2301 0 59.1828 12.8923 763 149.056 1035.48 480.676
2302 0 60.1137 12.8257 771 151.459 1035.79 479.981
2303 0 64.0714 13.0636 837 152.27 1034.4 479.07
2304 0 66.2371 12.6364 837 152.593 1034.86 478.186
2305 0 68.1309 13.4154 914 149.707 1034.08 477.296
2306 0 72.1456 12.8629 928 155.583 1034.39 475.076
2307 0 73.2768 13.0328 955 150.067 1032.16 473.928
2308 0 75.1903 13.2065 993 144.194 1033.78 472.077
2309 0 79.1132 12.8803 1019 147.892 1034.02 471.25
2310 0 82.4329 12.8711 1061 147.457 1036.09 469.611
2311 0 85.3183 12.635 1078 148.324 1033.95 467.803
2312 1 48.3284 10.9046 527 147.732 1033.59 486.499
2313 0 49.1054 11.5873 569 148.425 1034.58 486.715
2314 0 51.0636 12.1417 620 144.31 1031.77 485.423
2315 0 51.0252 12.3664 631 143.387 1035.57 485.04
2316 0 54.0937 11.9977 649 142.806 1034.05 484.029
2317 0 56.1997 12.1175 681 144.593 1034.44 482.863
2318 0 56.1336 12.4702 700 142.489 1034.25 481.849
2319 0 59.069 12.4261 734 143.496 1031.81 481.572
2320 0 60.0388 12.5419 753 140.72 1031.2 480.717
2321 0 62.0646 12.487 775 146.043 1031.09 479.91
2322 0 64.1138 12.431 797 146.311 1032.59 479.099
2323 0 65.0192 13.0577 849 140.012 1034.24 478.729
2324 0 68.0857 12.8368 874 146.232 1032.59 476.231
2325 0 70.0874 12.5985 883 143.438 1033.39 475.882
2326 0 72.0209 12.5936 907 145.622 1033.61 474.576
2327 0 75.0328 12.7677 958 143.327 1031.8 474.057
2328 0 77.0597 12.7044 979 140.255 1033.78 472.545
2329 0 79.0724 13.026 1030 142.319 1034.6 471.508
2330 0 82.1755 12.4976 1027 146.946 1034.11 470.306
2331 1 46.0708 11.8079 544 142.474 1032.55 487.853
2332 0 47.1095 12.0782 569 143.176 1032.94 487.22
2333 0 48.0769 12.5216 602 140.505 1031.51 486.48
2334 0 50.0961 12.7156 637 140.628 1031.43 484.947
2335 0 52.0763 13.2498 690 137.336 1030.93 484.197
2336 0 53.0216 13.1079 695 147.859 1032.96 483.544
2337 0 54.0497 13.4506 727 142.631 1033.21 482.289
2338 0 57.0825 13.1564 751 141.682 1030.18 482.144
2339 0 59.1227 13.0407 771 135.457 1030.88 481.039
2340 0 59.0624 13.6974 809 141.083 1031.08 480.415
2341 0 62.1094 13.927 865 131.569 1029.85 479.198
2342 0 64.1273 13.6135 873 136.919 1028.67 478.813
2343 0 64.1578 14.3085 918 137.343 1029.98 477.836
2344 0 68.3153 14.0525 960 134.294 1032.01 476.351
2345 0 70.1031 14.1078 989 137.115 1031.84 475.44
2346 0 72.2414 14.0778 1017 136.54 1032.87 474.988
2347 0 73.1298 13.9751 1022 135.985 1032.65 473.461
2348 0 76.3779 13.8784 1060 130.881 1029.95 472.202
2349 0 79.217 14.0753 1115 132.915 1032.12 470.885
2350 0 80.3528 14.2248 1143 130.002 1032.13 470.194
2351 0 82.3173 14.3105 1178 131.477 1033.71 467.841
2352 0 86.2772 14.1868 1224 128.848 1032.76 467.016
2353 0 88.3022 13.9747 1234 134.971 1032.69 465.749
2354 0 93.2545 14.2192 1326 133.167 1033.41 463.939
2355 0 95.2683 13.8976 1324 132.98 1033.72 462.93
2356 0 98.1817 14.3408 1408 127.838 1034.59 460.592
2357 1 49.0757 13.0411 640 130.714 1035.36 484.586
2358 0 52.0393 13.3361 694 131.017 1035.47 483.514
2359 0 54.0488 13.5248 731 125.438 1037.6 482.521
2360 0 55.0412 13.5535 746 128.453 1036.61 481.727
2361 0 56.1038 13.6176 764 128.81 1036.02 480.666
2362 0 58.0295 14.2169 825 126.521 1035.33 479.939
2363 0 60.208 13.7191 826 129.988 1033.68 479.862
2364 0 62.1681 13.8174 859 119.324 1034.73 479.426
2365 0 62.4489 14.1716 885 124.47 1033.22 478.276
2366 0 65.2183 13.9838 912 129.235 1034.24 477.446
2367 0 67.2379 13.9653 939 131.08 1033.55 475.994
2368 0 68.101 14.7869 1007 125.677 1034.23 475.201
2369 0 72.2236 14.3166 1034 122.728 1035.25 473.574
2370 0 73.059 14.1256 1032 130.409 1032.87 472.44
2371 0 77.2247 14.3477 1108 12.4865 1035.9 471.07
2372 0 78.1657 14.4693 1131 134.89 1035.92 470.113
2373 0 80.1046 14.5185 1163 120.289 1034.71 467.352
2374 0 85.0532 14.0853 1198 133.992 1034.71 465.295
2375 0 87.3492 13.9898 1222 127.786 1036.52 463.714
2376 1 46.0646 11.8963 548 137.898 1036.6 485.423
2377 0 47.1208 13.0728 616 138.885 1035.62 483.776
2378 0 50.0845 13.617 682 144.129 1036.95 483.089
2379 0 52.1261 13.8318 721 144.61 1034.93 481.68
2380 0 52.0333 13.9526 726 143.247 1034.91 482.778
2381 0 56.2183 13.6077 765 146.38 1033.78 482.082
2382 0 57.2386 14.1688 811 143.477 1034.42 481.31
2383 0 59.3124 14.2803 847 136.628 1035.35 480.477
2384 0 60.1653 14.2441 857 146.397 1033.79 479.484
2385 0 63.1728 14.4683 914 145.924 1034.29 478.516
2386 0 64.2705 14.968 962 141.118 1032.89 477.163
2387 0 67.2087 14.5814 980 146.238 1029.9 476.014
2388 0 69.3498 15.0397 1043 145.56 1031.44 474.955
2389 0 73.1478 14.792 1082 145.254 1033.57 473.297
2390 0 74.2794 15.2667 1134 145.516 1033.13 472.236
2391 0 77.2151 14.6992 1135 155.291 1032.71 472.039
2392 0 82.2312 15.1159 1243 146.8 1036.23 469.941
2393 0 84.1335 14.9881 1261 149.291 1033.13 468.104
2394 0 88.2901 14.7582 1303 153.873 1032.46 466.439
2395 0 89.3421 14.8306 1325 153.797 1033.56 465.213
2396 0 92.3004 15.1462 1398 151.464 1035.37 464.32
2397 0 95.2493 15.3492 1462 152.7 1034.92 462.362
2398 0 100.417 15.2763 1534 153.216 1035.88 460.954
2399 0 102.114 14.7972 1511 154.377 1034.32 459.353
2400 0 106.252 15.0115 1595 152.576 1032.49 457.728
2401 0 109.222 14.8596 1623 157.643 1032.45 456.615
2402 1 59.073 14.389 850 162.638 1034.29 480.278
2403 0 62.0677 14.3714 892 161.298 1032.98 479.049
2404 0 63.0761 14.6965 927 155.557 1033.82 478.224
2405 0 65.1182 14.6656 955 160.391 1033.43 476.935
2406 0 68.1343 14.2953 974 153.563 1034.36 476.435
2407 0 71.24 14.2757 1017 151.246 1032.52 474.632
2408 0 71.1735 15.1039 1075 146.629 1033.6 473.818
2409 0 74.0973 14.8318 1099 151.438 1032.39 472.31
2410 0 78.0739 14.7681 1153 151.521 1031.92 470.89
2411 0 82.1568 14.9592 1229 152.306 1032.7 469.502
2412 0 84.1127 14.9918 1261 145.727 1031.34 467.715
2413 0 87.097 14.8455 1293 152.424 1031.77 466.045
2414 0 90.1212 14.7579 1330 148.386 1036.32 464.186
2415 0 95.2494 14.5828 1389 153.244 1034.41 462.352
2416 0 96.1241 14.939 1436 142.769 1032.97 460.791
2417 0 101.402 14.8221 1503 155.455 1035.91 459.149
2418 1 53.0408 14.0646 746 155.367 1035.28 481.905
2419 0 54.1689 14.0856 763 149.422 1035.06 480.799
2420 0 58.079 13.7916 801 157.232 1035.9 479.291
2421 0 60.0866 14.0797 846 149.793 1034.33 478.54
2422 0 61.0884 14.0943 861 148.918 1034.87 477.308
2423 0 64.093 13.9641 895 146.032 1036.67 476.327
2424 0 66.0536 14.2611 942 147.586 1036.43 475.021
2425 0 68.0381 14.1685 964 141.418 1035.01 474.331
2426 0 69.2037 14.7391 1020 148.014 1034.01 472.732
2427 0 73.1703 14.3911 1053 147.927 1035.01 471.18
2428 0 73.0913 14.5708 1065 145.092 1037.01 470.015
2429 0 77.0883 14.6326 1128 152.189 1034.71 468.499
2430 0 80.2283 14.8327 1190 148.8 1035.32 466.697
2431 0 82.1532 14.9964 1232 148.373 1035.28 465.916
2432 0 86.1382 14.7437 1270 154.341 1034.33 464.8
2433 0 87.1807 14.7166 1283 157.401 1035.14 463.698
2434 0 91.1562 14.5355 1325 161.895 1036.04 461.74
2435 0 93.126 14.9904 1396 158.721 1036.37 460.205
2436 0 97.1268 14.7539 1433 162.603 1036.46 458.844
2437 0 100.173 14.7644 1479 160.389 1037.91 457.352
2438 0 104.254 14.503 1512 159.368 1036.39 455.538
2439 0 107.154 14.6332 1568 160.526 1035.29 454.144
2440 1 60.0633 13.3692 803 161.616 1035.37 477.884
2441 0 60.075 14.0658 845 159.475 1036.02 476.209
2442 0 62.1106 13.7175 852 165.534 1036.41 474.796
2443 0 65.1236 13.912 906 164.607 1037.42 474.4
2444 0 68.3364 14.0774 962 164.01 1039.06 473.441
2445 0 71.2164 14.0136 998 159.537 1038.29 472.575
2446 0 72.3845 14.1743 1026 168.498 1036.07 473.596
2447 0 76.2941 14.2344 1086 166.648 1035.1 471.436
2448 0 78.2461 13.9432 1091 164.107 1034.94 470.796
2449 0 81.3838 14.2903 1163 164.178 1033.41 468.61
2450 0 83.3701 14.6455 1221 171.222 1035.08 467.785
2451 0 88.3101 14.4831 1279 167.96 1035.01 465.668
2452 0 90.4925 14.3437 1298 155.544 1034.21 463.427
2453 0 94.4814 14.2779 1349 168.182 1034.78 462.756
2454 0 96.2953 14.4452 1391 171.794 1034.19 461.377
2455 0 100.544 14.7 1478 169.432 1033.91 459.692
2456 0 102.525 15.0987 1548 161.596 1035.93 456.84
2457 1 56.2407 13.6734 769 162.39 1036.12 481.38
2458 0 57.152 13.6303 779 161.983 1036.86 480.89
2459 0 59.1564 13.6587 808 167.145 1037.03 479.416
2460 0 60.2631 14.0882 849 169.081 1037.08 478.357
2461 0 63.1771 13.8816 877 165.669 1034.86 477.347
2462 0 65.152 13.9673 910 157.685 1034.94 476.66
2463 0 68.3399 13.8133 944 165.485 1035.14 474.842
2464 0 71.1927 13.7795 981 165.372 1037.28 473.091
2465 0 72.2866 14.0967 1019 161.132 1037.89 471.378
2466 0 74.1447 14.1885 1052 160.653 1037.75 470.723
2467 0 77.3148 14.3828 1112 162.265 1036.49 469.267
2468 0 80.1568 14.0225 1124 155.186 1036.42 467.367
2469 0 83.3202 14.3783 1198 161.556 1036.07 465.797
2470 0 85.24 14.0896 1201 155.272 1034.76 465.193
2471 0 87.2152 14.4126 1257 160.966 1036.18 464.347
2472 0 91.2406 14.5111 1324 159.048 1037.63 462.094
2473 0 94.3455 14.2455 1344 155.475 1037.6 460.671
2474 0 99.2702 14.6267 1452 162.296 1036.75 459.545
2475 0 102.218 14.1659 1448 153.664 1036.63 456.676
2476 0 105.348 14.4379 1521 16.1486 1035.89 455.359
2477 1 53.0882 13.2798 705 152.411 1035.01 479.128
2478 0 56.0619 13.3424 748 154.767 1036.16 478.675
2479 0 57.1836 13.273 759 159.918 1034.93 477.715
2480 0 58.153 13.5161 786 160.471 1034.33 476.786
2481 0 60.161 13.5304 814 159.418 1035.14 475.865
2482 0 63.2417 13.567 858 156.104 1034.73 474.48
2483 0 64.1995 13.4736 865 156.345 1036.32 474.028
2484 0 67.3815 13.9207 938 156.113 1036.21 472.522
2485 0 68.302 14.4798 989 152.777 1036.51 471.113
2486 0 71.0852 13.9832 994 150.879 1037.71 469.736
2487 0 74.1923 13.8559 1028 152.485 1038.19 468.304
2488 0 76.1096 13.993 1065 149.876 1037.1 466.516
2489 0 79.1484 13.8727 1098 147.188 1038.35 465.245
2490 0 82.1567 14.2046 1167 149.12 1036.46 465.277
2491 0 84.1113 13.9577 1174 146.221 1035.9 464.054
2492 0 86.1552 13.9632 1203 152.744 1035.02 462.055
2493 0 90.1518 14.1761 1278 140.207 1037.13 460.143
2494 0 92.1958 14.0787 1298 150.738 1035.13 458.618
2495 0 95.0906 14.5651 1385 148.834 1037.07 457.71
2496 0 98.1513 14.4063 1414 138.99 1037.76 456.12
2497 0 101.153 14.5127 1468 148.364 1036.66 454.366
2498 0 105.138 14.4952 1524 147.168 1038.34 452.058
2499 0 108.101 14.5605 1574 137.45 1037.37 449.911
2500 0 113.117 14.3568 1624 142.376 1035.79 448.244
2501 1 60.1157 12.8585 773 142.149 1040.29 474.369
2502 0 62.2434 12.7724 795 141.278 1037.16 473.375
2503 0 66.2075 12.9895 860 132.505 1034.99 473.505
2504 0 67.121 12.9021 866 145.177 1035.3 472.599
2505 0 68.1004 13.436 915 143.949 1035.41 471.646
2506 0 71.0591 13.7069 974 141.534 1036.76 469.602
2507 0 74.1499 13.1895 978 138.148 1035.55 468.381
2508 0 76.1804 13.7174 1045 141.735 1036.51 467.242
2509 0 79.1532 13.2402 1048 145.039 1035.97 466
2510 0 83.1574 13.1558 1094 140.592 1037.72 464.881
2511 0 86.2858 13.0033 1122 147.652 1037.6 463.923
2512 0 88.2918 13.2289 1168 140.271 1036.88 462.066
2513 0 92.3491 12.9833 1199 140.991 1037.85 460.097
2514 0 94.4863 13.3564 1262 144.979 1037.5 458.281
2515 0 97.2768 13.4256 1306 146.968 1038.19 457.168
2516 0 102.402 13.3298 1365 146.807 1036.08 454.476
2517 0 104.588 13.577 1420 148.39 1036.27 453.405
2518 1 57.2888 12.0093 688 139.172 1038.64 475.863
2519 0 59.2117 12.0584 714 137.176 1037.25 474.905
2520 0 61.3877 13.0319 800 138.741 1036.78 473.615
2521 0 64.1057 13.2749 851 146.479 1034.8 474.408
2522 0 65.1032 12.7183 828 146.169 1033.74 472.05
2523 0 67.1725 13.0113 874 140.318 1033.96 470.378
2524 0 68.1731 13.3484 910 140.938 1036.66 469.923
2525 0 70.2023 12.9056 906 144.992 1036.53 469.102
2526 0 72.2066 13.1428 949 145.217 1037.33 467.969
2527 0 72.2151 13.3352 963 147.185 1037.11 467.721
2528 0 75.3047 13.2528 998 146.857 1036.7 466.452
2529 0 77.1921 13.2656 1024 146.876 1036.78 464.823
2530 0 78.2983 13.8062 1081 142.834 1037.71 464.04
2531 0 81.1134 13.4503 1091 154.041 1036.22 462.776
2532 0 85.1222 13.7567 1171 145.406 1037.73 461.431
2533 0 87.138 13.7368 1197 148.855 1037.02 459.377
2534 0 91.2259 13.187 1203 150.692 1036.81 458.636
2535 0 92.4762 13.5711 1255 145.932 1038.09 457.697
2536 0 96.4314 13.5537 1307 158.302 1038.31 455.548
2537 0 98.489 13.7274 1352 155.663 1037.02 453.771
2538 0 102.536 14.0146 1437 149.296 1036.01 451.994
2539 0 105.552 13.6993 1446 152.806 1040.16 450.707
2540 0 109.443 13.9068 1522 155.173 1036.67 448.392
2541 1 61.2568 12.4068 760 148.014 1036.96 472.629
2542 0 61.37 13.3779 821 151.101 1036.23 471.912
2543 0 63.1775 13.3434 843 154.754 1034.53 470.539
2544 0 66.4116 13.4465 893 154.496 1034.96 469.698
2545 0 66.1745 13.6004 900 155.55 1036.32 469.119
2546 0 70.4823 13.4502 948 152.884 1037.84 467.558
2547 0 71.4279 13.6641 976 153.664 1038.85 466.628
2548 0 72.2187 13.9715 1009 150.556 1037.96 465.17
2549 0 77.4935 13.8592 1074 150.721 1037.69 464.142
2550 0 80.5227 13.8719 1117 147.686 1036.86 459.677
2551 0 82.4285 14.0364 1157 152.242 1036.69 460.403
2552 0 85.5973 13.6102 1165 152.574 1034.53 459.504
2553 0 88.4788 13.9355 1233 158.038 1035.03 457.431
2554 0 89.411 13.8238 1236 155.95 1035.24 456.8
2555 0 94.4321 13.9253 1315 154.523 1035.62 455.715
2556 0 96.6796 14.5739 1409 151.123 1036.76 452.38
2557 0 97.6821 14.6086 1427 154.174 1033.66 451.078
2558 0 101.651 14.5399 1478 154.7 1036.52 449.786
2559 0 103.48 15.1624 1569 154.467 1036.05 448.559
2560 0 105.47 15.1986 1603 154.511 1036.07 447.315
2561 0 108.662 14.5866 1585 153.152 1036.12 445.479
2562 0 114.637 14.6637 1681 152.21 1035.76 443.045
2563 0 117.586 15.0018 1764 146.356 1035.17 439.79
2564 0 121.744 14.9576 1821 151.83 1036.85 438.441
2565 0 125.847 14.5176 1827 154.487 1037.34 436.908
2566 1 69.4784 12.5795 874 145.637 1038.92 465.763
2567 0 71.496 13.0637 934 145.409 1038.54 464.494
2568 0 72.6461 13.2147 960 144.199 1035.58 464.351
2569 0 75.4928 13.1933 996 149.685 1034.38 462.212
2570 0 78.5927 13.5381 1064 145.824 1034.46 461.633
2571 0 77.319 14.0457 1086 142.157 1033.29 461.405
2572 0 82.6007 13.9587 1153 148.635 1035.65 457.485
2573 0 85.6968 14.2012 1217 145.48 1036.1 456.599
2574 0 89.534 13.9835 1252 139.42 1034.64 455.168
2575 0 92.4338 14.1831 1311 144.58 1034.94 453.93
2576 0 94.5052 13.9992 1323 146.157 1035.19 452.847
2577 0 96.6432 14.3518 1387 145.803 1035.72 451.412
2578 0 99.5543 14.4343 1437 144.576 1037.13 449.843
2579 0 104.569 14.2298 1488 136.353 1035.76 447.948
2580 0 108.489 14.5637 1580 136.234 1035.4 446.371
2581 0 111.768 14.4137 1611 141.09 1037.19 443.81
2582 0 114.472 14.1431 1619 136.897 1035.95 443.306
2583 1 62.6176 12.8878 807 140.321 1036.37 467.206
2584 0 66.2393 12.9681 859 138.807 1037.05 466.712
2585 0 65.2224 13.9829 912 137.166 1037.02 466.578
2586 0 68.2994 14.0265 958 134.673 1034.63 464.894
2587 0 71.432 14.1393 1010 135.361 1036.02 463.407
2588 0 74.418 13.787 1026 140.134 1036.86 462.839
2589 0 75.4037 13.7394 1036 133.718 1037.78 461.49
2590 0 78.4741 14.3742 1128 138.584 1037.31 460.061
2591 0 82.3965 14.3938 1186 138.244 1035.79 459.812
2592 0 83.3481 14.6014 1217 138.331 1033.87 459.171
2593 0 87.46 14.3723 1257 139.084 1032.9 457.47
2594 0 89.4141 14.4273 1290 139.926 1035.6 456.664
2595 0 93.2604 14.2075 1325 141.257 1036.66 454.525
2596 0 96.387 14.006 1350 148.019 1036.01 452.857
2597 0 100.5 14.0099 1408 142.787 1034.28 452.59
2598 0 102.31 14.7102 1505 136.146 1035.45 449.726
2599 0 102.31 14.7102 1505 169.807 1037.45 449.726
2600 0 108.229 14.3585 1554 145.907 1036.51 446.383
2601 0 112.265 13.9224 1563 144.089 1038.56 445.496
2602 0 116.412 14.1996 1653 143 1036.47 443.59
2603 1 65.1921 13.1611 858 146.322 1035.77 467.787
2604 0 68.2753 13.2552 905 143.106 1036.51 466.762
2605 0 70.1746 13.8227 970 145.718 1034.17 465.189
2606 0 72.2555 13.6045 983 140.294 1035.9 463.832
2607 0 75.1585 13.8906 1044 136.439 1035.19 463.062
2608 0 77.3395 14.1196 1092 142.278 1034.48 461.386
2609 0 78.1604 14.112 1103 145.125 1034.36 460.645
2610 0 81.3002 13.9975 1138 145.277 1038.68 459.762
2611 0 84.2053 13.9302 1173 139.141 1038.9 459.071
2612 0 88.1655 14.2346 1255 138.829 1039.57 457.869
2613 0 89.2651 14.2721 1274 145.598 1038.3 455.876
2614 0 93.3074 14.2325 1328 147.56 1035.21 453.694
2615 0 96.1651 14.2983 1375 150.355 1035.06 452.448
2616 0 99.3604 14.5833 1449 138.792 1034.9 450.248
2617 0 102.377 14.4173 1476 145.671 1036.94 449.019
2618 0 106.241 14.3917 1529 151.527 1035.1 448.064
2619 0 110.244 14.5768 1607 150.953 1035.44 446.054
2620 0 113.306 14.4653 1639 152.005 1037 445.124
2621 0 117.14 14.5381 1703 150.528 1035.9 443.032
2622 0 121.205 14.4218 1748 152.641 1036 440.686
2623 1 69.1346 13.0904 905 153.61 1033.87 466.377
2624 0 71.1121 13.9076 989 148.089 1033.61 465.174
2625 0 74.0953 14.5758 1080 150.731 1034.61 463.048
2626 0 77.1581 14.0361 1083 156.949 1034.14 461.835
2627 0 79.1418 14.0886 1115 153.982 1037.12 460.3
2628 0 80.0527 14.428 1155 154.674 1035.62 459.298
2629 0 82.1803 14.6507 1204 149.016 1035.76 458.169
2630 0 85.0898 14.4318 1228 144.95 1036.79 456.537
2631 0 89.0918 16.9151 1507 132.56 1039.13 453.493
2632 0 90.1881 14.5141 1309 150.766 1037.6 453.685
2633 0 92.2339 14.9945 1383 153.172 1036.74 449.42
2634 0 97.3508 14.6275 1424 153.038 1037.07 450.09
2635 0 101.376 14.7569 1496 142.437 1036.83 444.607
2636 0 103.303 15.1012 1560 143.06 1034.94 443.092
2637 0 107.26 15.1408 1624 146.351 1033.95 444.39
2638 0 110.302 14.5782 1608 153.975 1035.93 445.242
2639 0 111.283 14.9888 1668 148.902 1036.57 443.088
2640 0 115.248 15.2454 1757 144.792 1037.25 442.113
2641 0 119.426 15.1558 1810 148.549 1035.76 439.32
2642 0 122.499 14.7837 1811 151.851 1037.59 439.124
2643 0 126.388 14.946 1889 145.274 1034.54 436.832
2644 0 132.387 17.9172 2372 135.793 1035.39 431.022
2645 0 133.353 16.3476 2180 145.168 1034.6 431.88
2646 0 139.245 15.11 2104 142.032 1037.94 430.938
2647 0 141.28 15.218 2150 148.11 1037.99 429.056
2648 0 147.381 15.1784 2237 144.714 1038.63 427.352
2649 0 151.541 15.8571 2403 148.055 1035.72 423.796
2650 0 157.388 15.0774 2373 149.829 1034.73 421.686
2651 0 164.43 15.8305 2603 146.631 1034.72 418.484
2652 0 170.466 15.8272 2698 145.205 1034.66 415.275
2653 0 175.671 15.1704 2665 153.285 1034.37 413.418
2654 1 101.344 14.1795 1437 152.232 1035.08 448.568
2655 0 105.164 14.7389 1550 149.045 1036.14 444.601
2656 0 109.257 14.6994 1606 146.216 1034.26 443.03
2657 0 114.282 14.5168 1659 154.849 1032.97 442.366
2658 0 117.205 14.9823 1756 146.604 1033.89 439.869
2659 0 121.221 15.4594 1874 144.12 1036.95 437.755
2660 0 125.209 14.935 1870 150.165 1034.64 436.052
2661 0 130.447 14.8106 1932 152.921 1036.52 434.012
2662 0 134.45 14.5482 1956 148.361 1035.2 431.344
2663 1 66.1747 13.2377 876 102.85 1035.43 465.176
2664 0 67.1912 14.2132 955 152.261 1034.82 463.791
2665 0 71.168 14.3323 1020 145.239 1035.19 462.656
2666 0 73.2776 14.4655 1060 145.664 1035.49 461.592
2667 0 75.1814 14.4052 1083 152.32 1036.87 460.557
2668 0 77.1226 14.6131 1127 150.639 1035.45 458.975
2669 0 80.0745 14.3741 1151 152.349 1033.68 458.31
2670 0 84.1863 14.4798 1219 142.914 1033.37 456.709
2671 0 86.1822 14.8174 1277 145.313 1031.55 455.098
2672 0 89.3046 14.6129 1305 147.74 1033.2 453.511
2673 0 92.1283 14.7295 1357 145.861 1036.6 451.059
2674 0 96.1572 14.8195 1425 149.34 1031.08 450.15
2675 0 100.118 14.5228 1454 150.455 1034.72 447.816
2676 0 102.167 14.672 1499 149.75 1036.77 446.484
2677 0 107.137 14.8689 1593 142.795 1034.3 445.16
2678 0 113.473 14.6819 1666 147.145 1035.41 440.484
2679 1 60.0588 13.4035 805 152.111 1036.88 468.03
2680 0 63.0442 13.3874 844 143.268 1035.39 467.472
2681 0 64.2129 13.9069 893 145.838 1036.63 466.035
2682 0 65.0825 14.0437 914 151.01 1034.71 464.991
2683 0 65.0556 14.0649 915 153.079 1034.23 464.976
2684 0 69.0967 14.212 982 151.208 1034.38 462.943
2685 0 72.1843 14.0197 1012 144.932 1034.7 462.094
2686 0 73.1246 13.9898 1023 149.587 1034.47 461.499
2687 0 77.0737 13.8309 1066 147.652 1034.43 460.109
2688 0 78.1837 14.3764 1124 54.6806 1035.88 457.932
2689 0 81.1684 14.4021 1169 142.909 1035.36 456.684
2690 0 83.2481 14.3667 1196 139.145 1035.86 455.581
2691 0 86.1847 14.643 1262 145.174 1034.61 454.998
2692 0 90.2436 14.8376 1339 144.934 1037.39 452.332
2693 0 92.2709 14.4899 1337 145.343 1035.18 451.119
2694 0 96.2201 14.9553 1439 147.428 1037.17 449.787
2695 0 99.3336 14.7785 1468 146.772 1034.23 447.77
2696 0 102.213 14.6459 1497 147.446 1035.41 447.095
2697 0 105.138 15.5511 1635 149.824 1037 443.087
2698 0 106.363 15.1463 1611 151.711 1037.97 443.089
2699 0 112.208 14.7494 1655 151.699 1035.47 441.474
2700 0 115.341 15.4066 1777 155.34 1036.95 439.459
2701 0 117.369 15.1062 1773 157.756 1037.28 438.01
2702 0 122.174 14.6185 1786 157.702 1036.89 436.711
2703 0 126.214 15.3469 1937 149.664 1035.8 434.02
2704 0 130.311 15.6549 2040 154.159 1036.59 431.843
2705 0 135.33 15.3477 2077 149.614 1034.33 429.702
2706 0 142.267 15.2952 2176 149.898 1037.48 426.355
2707 1 75.1704 13.6889 1029 155.539 1039.12 459.787
2708 0 77.0927 14.6188 1127 155.52 1038.97 457.963
2709 0 79.227 14.5658 1154 154.134 1036.82 456.832
2710 0 84.2083 14.6898 1237 156.863 1036.91 454.918
2711 0 85.1939 14.6372 1247 155.066 1037.39 453.666
2712 0 87.3135 14.6255 1277 160.097 1037.77 452.23
2713 0 92.1956 14.3065 1319 158.967 1037.21 451.049
2714 0 94.3922 14.694 1387 152.893 1036.98 449.828
2715 0 97.2615 15.1139 1470 155.544 1036.44 446.694
2716 0 100.329 14.8113 1486 153.022 1035.69 445.918
2717 0 103.19 14.8949 1537 159.133 1034.77 444.652
2718 0 106.269 14.9244 1586 162.57 1038.24 443.552
2719 0 109.197 14.8813 1625 156.41 1036.93 441.591
2720 0 113.398 14.7974 1678 158.995 1035.4 439.119
2721 0 116.486 14.8515 1730 152.744 1034.57 436.861
2722 0 121.242 15.2918 1854 156.865 1034.45 434.854
2723 0 127.278 14.6451 1864 152.035 1035.07 432.44
2724 1 69.16 13.476 932 158.131 1037.27 459.541
2725 0 72.1549 13.6096 982 154.942 1037.75 458.488
2726 0 72.3467 14.0158 1014 154.828 1037.52 457.279
2727 0 75.3202 13.9007 1047 160.204 1036.7 456.564
2728 0 79.2087 14.1399 1120 151.506 1034.29 455.245
2729 0 80.2278 15.0073 1204 152.987 1035.8 453.339
2730 0 86.4284 14.1504 1223 153.048 1036.87 452.437
2731 0 86.3509 14.5569 1257 157.604 1036.85 450.915
2732 0 89.2297 14.726 1314 152.818 1037.58 449.344
2733 0 94.3815 14.6427 1382 154.005 1037.96 447.082
2734 1 111.249 15.0293 1672 162.1 1035.88 437.443
2735 0 116.283 14.6282 1701 160.864 1036.32 436.404
2736 0 121.199 14.8351 1798 152.153 1034.58 434.511
2737 0 126.248 15.0735 1903 164.308 1034.4 433.134
2738 0 130.365 14.5745 1900 164.874 1035.78 430.817
2739 0 135.445 14.6111 1979 159.771 1035.99 429.113
2740 1 74.3432 12.7786 950 157.117 1033.51 460.368
2741 0 75.2488 13.2361 996 159.462 1033.94 459.458
2742 0 76.1616 13.4714 1026 150.482 1033.93 459.003
2743 0 78.3654 13.6923 1073 153.783 1036.72 457.074
2744 0 82.1115 13.7131 1126 146.987 1035.03 455.988
2745 0 85.4469 13.681 1169 150.453 1035.06 454.91
2746 0 86.2339 14.078 1214 149.703 1037.76 454.298
2747 0 90.4529 14.0515 1271 145.435 1036.38 452.353
2748 0 91.4356 14.2286 1301 145.838 1036.32 451.646
2749 0 96.5354 13.798 1332 147.115 1036.68 449.717
2750 0 99.396 14.1354 1405 148.636 1035.49 447.514
2751 0 102.463 14.4735 1483 148.707 1036.13 446.629
2752 0 106.405 13.8997 1479 150.332 1034.79 445.811
2753 0 109.823 14.2502 1565 147.541 1034.41 443.6
2754 0 111.475 14.4785 1614 154.6 1035.88 442.631
2755 0 116.372 14.0498 1635 153.706 1038.11 441.341
2756 0 121.421 13.9926 1699 148.798 1037.59 439.051
2757 0 125.5 14.3665 1803 147.963 1036.93 436.564
2758 0 130.642 14.2144 1857 152.317 1035.39 434.439
2759 1 73.2072 13.3457 977 146.985 1035.62 463.303
2760 0 76.1913 13.6761 1042 141.732 1037.86 462.13
2761 0 79.2207 13.2162 1047 145.499 1036.33 461.742
2762 0 83.2847 13.748 1145 146.9 1035.28 460.514
2763 0 86.1947 13.6435 1176 141.523 1034.13 459.66
2764 0 89.2999 13.6618 1220 137.453 1035.65 457.291
2765 0 92.2101 13.7404 1267 134.373 1034.35 455.497
2766 0 95.3694 13.5159 1289 140.265 1033.45 454.63
2767 0 98.3822 13.5899 1337 138.141 1034.73 452.634
2768 0 101.196 13.6863 1385 143.101 1035.25 451.626
2769 0 105.161 14.0926 1482 136.812 1037.33 449.763
2770 0 109.384 13.7588 1505 142.92 1036.16 447.587
2771 0 110.211 14.2091 1566 138.033 1035.21 446.851
2772 0 115.29 14.1123 1627 140.462 1038.69 445.986
2773 1 67.1497 12.5243 841 139.59 1034.99 470.239
2774 0 70.173 13.2957 933 140.099 1035.98 467.962
2775 0 73.2887 12.9624 950 133.173 1036.33 466.885
2776 0 74.5536 13.2656 989 126.389 1035.35 464.916
2777 0 76.2758 13.5561 1034 133.617 1036.06 463.123
2778 0 80.4629 13.4223 1080 134.795 1037.66 461.632
2779 0 83.4612 13.5392 1130 134.073 1036.48 459.675
2780 0 84.497 13.9768 1181 136.326 1037.52 458.721
2781 0 88.5433 14.0948 1248 138.277 1036.28 457.628
2782 0 91.6255 13.8171 1266 138.502 1036.32 457.223
2783 0 96.5299 13.7988 1332 134.435 1035.07 455.785
2784 0 98.4149 14.4389 1421 140.734 1036.69 454.885
2785 0 102.605 14.1416 1451 143.612 1035.15 454.287
2786 0 105.249 14.4894 1525 141.353 1035.71 452.11
2787 0 106.397 14.4459 1537 140.131 1035.19 450.968
2788 0 110.34 14.4915 1599 146.265 1035.95 450.826
2789 0 112.248 14.7085 1651 137.299 1036.45 448.977
2790 0 118.308 14.4707 1712 138.154 1036.78 447.139
2791 0 120.451 14.7778 1780 140.376 1036.62 446.05
2792 0 124.316 15.2353 1894 140.319 1038.58 444.705
2793 0 129.288 14.7345 1905 143.455 1036.71 442.008
2794 0 135.415 14.4371 1955 140.274 1036.45 441.119
2795 0 140.384 14.8734 2088 138.909 1035.85 436.738
2796 0 145.304 15.0512 2187 132.866 1037.31 435.643
2797 1 80.1836 14.0552 1127 140.771 1036.52 466.305
2798 0 84.0824 14.0339 1180 136.381 1037.76 465.736
2799 0 88.1758 13.8814 1224 143.971 1039.38 464.393
2800 0 93.1171 14.0576 1309 143.863 1038.82 461.736
2801 0 94.234 14.1775 1336 140.549 1037.54 460.716
2802 0 98.1269 14.1042 1384 144.357 1038.72 458.431
2803 0 101.109 14.4004 1456 146.034 1037.55 457.419
2804 0 105.154 14.3219 1506 148.879 1039.19 455.817
2805 0 107.183 14.5172 1556 148.699 1038.99 453.915
2806 0 112.23 14.5416 1632 149.92 1038.49 452.278
2807 0 117.192 14.489 1698 149.399 1038.66 450.429
2808 0 120.354 14.5653 1753 145.377 1038.16 447.96
2809 0 125.158 14.5417 1820 142.091 1037.8 447.213
2810 0 129.171 14.3763 1857 146.955 1039.25 444.649
2811 0 135.241 13.9973 1893 144.689 1039.38 441.442
2812 0 139.249 14.5064 2020 143.166 1039.03 439.923
2813 1 77.07 12.8455 990 137.012 1038.15 469.097
2814 0 81.0965 13.2065 1071 133.497 1037.95 468.064
2815 0 82.1745 13.3375 1096 138.078 1036.37 466.753
2816 0 87.1869 13.0983 1142 145.529 1037.2 466.314
2817 0 88.2109 13.4337 1185 138.777 1037.41 464.381
2818 0 91.4286 13.4422 1229 145.688 1037.85 462.91
2819 0 95.5281 13.2945 1270 144.924 1038.8 462
2820 0 100.367 13.62 1367 144.166 1037.68 460.897
2821 0 104.574 13.7033 1433 148.425 1036.18 460.211
2822 0 108.477 13.8279 1500 152.796 1035.77 459.946
2823 0 111.418 14.0731 1568 157.066 1036.34 458.61
2824 0 114.293 13.8503 1583 155.96 1036.24 458.329
2825 0 118.397 14.0967 1669 153.49 1036.31 455.747
2826 0 120.32 14.2619 1716 152.393 1035.87 454.378
2827 0 123.437 14.1044 1741 146.54 1035.24 454.16
2828 0 130.307 14.013 1826 149.428 1035.27 450.854
2829 0 136.319 14.2314 1940 144.048 1036.43 447.582
2830 0 140.419 13.8727 1948 150.11 1035.86 446.782
2831 0 145.47 13.9617 2031 149.802 1036.28 443.654
2832 1 86.1572 12.6281 1088 142.873 1035.43 473.29
2833 0 89.2234 13.0907 1168 145.688 1035.79 471.742
2834 0 90.1791 12.9409 1167 143.075 1036 470.515
2835 0 94.228 13.3824 1261 139.592 1036.57 469.35
2836 0 97.2423 13.3687 1300 141.013 1035.29 468.498
2837 0 103.161 13.6292 1406 139.948 1036.18 466.446
2838 0 105.184 13.0628 1374 146.667 1036.72 465.718
2839 0 107.237 13.2137 1417 147.733 1035.87 463.896
2840 0 112.174 13.7109 1538 144.745 1035.87 462.87
2841 0 116.22 13.4401 1562 142.201 1038.04 460.579
2842 0 119.22 13.8651 1653 144.537 1036.41 458.36
2843 0 123.227 13.3331 1643 135.378 1038.04 457.477
2844 0 126.21 14.151 1786 145.715 1036.01 455.7
2845 0 130.446 13.9599 1821 145.845 1036.46 454.29
2846 1 73.0941 11.5331 843 142.828 1037.22 483.197
2847 0 77.2014 12.9013 996 143.9 1036.72 481.399
2848 0 79.1512 12.7099 1006 131.638 1036.94 480.997
2849 0 81.1932 12.5873 1022 142.427 1037.74 480.137
2850 0 84.1202 13.2786 1117 145.847 1038.36 480.489
2851 0 88.249 13.0993 1156 146.217 1038.57 479.346
2852 0 88.2462 13.2357 1168 151.258 1037.79 478.276
2853 0 92.2699 13.0162 1201 155.028 1038.58 477.279
2854 0 94.2072 13.3429 1257 149.809 1037.3 476.702
2855 0 100.224 13.0906 1312 156.274 1036.73 474.906
2856 0 100.238 14.2361 1427 154.752 1034.88 474.824
2857 0 103.157 13.6588 1409 150.048 1039.49 472.827
2858 0 105.168 13.4642 1416 136.11 1037.07 471.609
2859 0 108.104 13.857 1498 143.274 1036.89 469.726
2860 0 113.094 14.0061 1584 151.694 1037.89 468.833
2861 0 115.118 13.8032 1589 149.233 1038.61 467.44
2862 0 119.312 14.2568 1701 143.704 1037.31 465.761
2863 0 122.18 14.2904 1746 146.677 1037.09 465.018
2864 0 127.208 13.6627 1738 144.495 1037.85 462.888
2865 0 129.148 14.6885 1897 149.101 1037.38 462.015
2866 0 133.198 14.9627 1993 145.411 1035.98 459.594
2867 0 138.177 14.286 1974 141.804 1038.77 458.314
2868 0 143.187 14.4567 2070 148.264 1037.68 455.778
2869 1 85.1066 12.2787 1045 143.256 1037.01 486.212
2870 0 87.0815 13.0567 1137 147.909 1038.3 483.778
2871 0 91.1751 13.6879 1248 145.37 1036.97 481.72
2872 0 91.1464 13.7252 1251 139.977 1036.01 481.781
2873 0 94.1707 13.4437 1266 141.108 1037.89 480.014
2874 0 98.3235 13.5369 1331 145.125 1037.06 479.414
2875 0 99.1238 13.8715 1375 141.157 1037.41 478.58
2876 0 101.218 14.2958 1447 141.082 1038.75 476.853
2877 0 106.186 14.2674 1515 137.483 1040.56 475.232
2878 0 110.252 13.9862 1542 142.205 1038.1 474.029
2879 0 113.199 14.1344 1600 136.794 1038.07 472.678
2880 0 118.254 14.359 1698 138.614 1038.06 472.376
2881 0 122.305 14.1613 1732 136.405 1038.04 470.54
2882 1 74.1334 13.4622 998 138.969 1041.36 490.965
2883 0 76.2069 13.5946 1036 138.99 1039.9 491.19
2884 0 80.0562 13.2657 1062 135.024 1038.16 490.569
2885 0 82.1631 14.0818 1157 136.422 1038.46 490.159
2886 0 85.1929 13.5105 1151 133.487 1038.62 489.681
2887 0 89.1742 13.6026 1213 128.045 1039.65 489.02
2888 0 91.1879 13.9273 1270 136.731 1035.7 487.338
2889 0 94.2356 13.5936 1281 136.491 1038.07 486.151
2890 0 96.2472 13.6212 1311 141.231 1036.63 486.148
2891 0 97.2322 14.1106 1372 135.123 1037.23 484.309
2892 0 101.197 13.8344 1400 130.154 1038.13 483.139
2893 0 104.258 14.2243 1483 140.645 1038.08 481.788
2894 0 106.175 13.8451 1470 141.523 1039.11 481.491
2895 0 110.139 14.2547 1570 143.432 1039.3 479.931
2896 0 113.282 13.5591 1536 138.377 1036.21 478.715
2897 0 115.124 14.3758 1655 142.868 1037.4 477.477
2898 0 120.289 14.0079 1685 146.672 1039.25 475.846
2899 0 123.279 13.8628 1709 139.852 1037.13 473.948
2900 0 126.343 14.3894 1818 146.71 1037.52 472.53
2901 0 133.182 14.4914 1930 145.185 1038.92 470.224
2902 0 137.34 14.2057 1951 142.053 1038.43 467.517
2903 1 76.1777 12.9697 988 146.019 1037.99 497.502
2904 0 80.1783 13.6197 1092 139.016 1040.4 496.64
2905 0 83.2827 13.9765 1164 139.977 1041.16 494.29
2906 0 86.0965 13.4965 1162 142.183 1040.11 493.574
2907 0 86.3166 14.2499 1230 135.007 1041.07 493.241
2908 0 91.3109 14.3028 1306 127.554 1040.76 491.685
2909 0 94.2612 14.0355 1323 138.562 1038.83 490.679
2910 0 97.1868 14.3847 1398 135.883 1039.42 489.084
2911 0 100.233 14.5161 1455 135.011 1040.24 486.817
2912 0 104.102 14.505 1510 135.272 1041.68 485.539
2913 0 106.202 14.2088 1509 135.716 1040.39 484.583
2914 0 109.137 14.8163 1617 136.626 1040.29 481.518
2915 0 115.303 14.1887 1636 135.995 1040.72 480.4
2916 0 118.407 14.3994 1705 135.734 1038.51 478.984
2917 1 66.355 12.8551 853 141.959 1038.24 500.236
2918 0 69.2065 13.6114 942 135.74 1039.21 501.005
2919 0 69.1183 13.7301 949 134.439 1038.36 501.273
2920 0 74.2984 14.4418 1073 134.01 1037.97 500.329
2921 0 76.2509 14.0195 1069 135.633 1037.13 500.466
2922 0 77.2918 14.4259 1115 131.206 1039.8 498.918
2923 0 81.2847 14.4308 1173 139.773 1038.72 497.357
2924 0 82.2855 14.4375 1188 142.057 1037.08 496.298
2925 0 86.3426 14.6625 1266 137.219 1037.66 493.655
2926 0 89.3816 14.7905 1322 140.666 1037.7 493.155
2927 0 92.3085 14.4299 1332 143.608 1038.02 491.77
2928 0 94.4076 14.8399 1401 143.859 1037.67 490.759
2929 0 97.354 14.6578 1427 144.099 1038.87 488.663
2930 0 100.383 14.873 1493 136.23 1039.44 487.502
2931 0 105.596 14.6029 1542 141.916 1038.53 486.432
2932 0 107.5 14.7628 1587 143.815 1038.51 485.042
2933 0 110.385 14.8933 1644 147.551 1038.47 483.966
2934 0 116.426 14.507 1689 143.887 1037.12 482.624
2935 1 65.356 13.6177 890 143.958 1039.28 507.01
2936 0 67.2106 14.3727 966 146.734 1040.02 504.934
2937 0 69.6277 14.4195 1004 147.811 1037.11 504.853
2938 0 71.2711 14.2133 1013 143.837 1038.91 503.096
2939 0 73.714 14.3935 1061 149.001 1038.06 502.716
2940 0 74.5372 14.7443 1099 144.08 1037.63 501.259
2941 0 78.3232 14.67 1149 147.99 1038.04 499.992
2942 0 80.6994 14.7337 1189 146.503 1039.42 498.465
2943 0 83.6836 14.8655 1244 149.702 1040.49 496.892
2944 0 86.3299 15.0353 1298 147.977 1038.44 495.142
2945 0 87.7924 14.9671 1314 147.482 1037.45 494.893
2946 0 93.7657 15.2294 1428 148.12 1038.02 492.071
2947 0 94.5173 14.8121 1400 150.458 1037.74 491.916
2948 0 99.5859 15.0925 1503 144.116 1037.85 490.277
2949 0 103.905 15.697 1631 147.668 1035.96 488.009
2950 0 103.576 15.0614 1560 152.492 1036.72 487.834
2951 0 108.503 14.8844 1615 155.09 1037.07 486.796
2952 0 111.296 14.9781 1667 161.286 1037.27 486.074
2953 0 116.369 14.8751 1731 161.005 1035.63 483.889
2954 0 119.427 14.7371 1760 158.652 1036.15 482.881
2955 0 123.321 15.2609 1882 160.879 1035.84 481.147
2956 1 67.3366 13.2617 893 161.038 1035.94 508.282
2957 0 68.5011 13.8976 952 158.143 1037.55 507.276
2958 0 72.2668 13.7684 995 166.12 1035.92 506.783
2959 0 74.3476 14.3784 1069 162.101 1035.58 504.903
2960 0 77.4681 13.9283 1079 159.271 1037.87 504.309
2961 0 77.4681 13.9283 1079 176.849 1038.87 504.309
2962 0 81.1746 14.3148 1162 161.882 1038.77 501.803
2963 0 85.3302 14.3208 1222 158.439 1037.84 501.175
2964 0 88.2115 14.0685 1241 156.191 1036.7 499.146
2965 0 90.1978 14.6899 1325 160.705 1037.77 497.964
2966 0 93.2006 14.678 1368 163.192 1035.85 496.114
2967 0 97.2582 14.7545 1435 165.2 1036.56 494.889
2968 0 100.117 14.7228 1474 160.982 1036.34 493.061
2969 0 103.222 14.4931 1496 164.289 1038.13 491.716
2970 0 108.271 14.6669 1588 158.946 1038.07 489.66
2971 0 110.217 14.6166 1611 163.126 1037.9 489.608
2972 0 115.219 14.3379 1652 169.941 1038.23 488.153
2973 0 119.215 14.6626 1748 165.792 1037.34 485.776
2974 0 123.187 14.6768 1808 162.847 1037.59 483.99
2975 0 126.255 14.9934 1893 149.135 1036.52 482.318
2976 1 67.1473 13.8204 928 158.133 1036.66 510.19
2977 0 72.185 14.1719 1023 158.282 1035.43 507.861
2978 0 73.13 14.3306 1048 167.115 1036.29 507.133
2979 0 76.1176 14.2148 1082 166.489 1035.82 506.245
2980 0 79.0537 14.2435 1126 161.766 1034.66 505.125
2981 0 81.1551 14.4045 1169 158.247 1034.65 503.37
2982 0 83.0796 14.5042 1205 156.498 1036.65 502.041
2983 0 86.1958 14.5483 1254 156.417 1035.16 500.649
2984 0 90.2026 14.667 1323 160.817 1035.56 499.101
2985 0 92.1857 15.1216 1394 164.073 1037.1 497.971
2986 0 95.343 15.1139 1441 162.512 1038.02 495.982
2987 0 97.1357 15.3908 1495 171.544 1039.43 495.252
2988 0 102.213 15.0763 1541 165.635 1038.46 493.46
2989 0 106.136 14.9149 1583 161.265 1036 492.047
2990 0 110.163 15.0231 1655 159.465 1036.32 490.671
2991 0 112.256 14.6808 1648 158.68 1037.73 489.487
2992 0 118.305 15.012 1776 160.217 1037.84 486.647
2993 0 118.203 14.9911 1772 160.828 1039.27 485.779
2994 0 123.389 15.0337 1855 165.668 1039.05 485.655
2995 1 68.2738 14.7934 1010 146.046 1036.42 510.888
2996 0 66.312 14.3262 950 156.746 1037.36 512.501
2997 0 66.2649 14.4722 959 172.059 1035.03 512.912
2998 0 69.3024 14.0688 975 162.546 1036.41 513.829
2999 0 71.3162 14.3446 1023 167.8 1038.21 513.124
3000 0 70.3721 14.5512 1024 167.385 1039.77 512.448
3001 0 70.2169 14.7685 1037 166.667 1037.91 513.114
3002 0 71.1867 14.3847 1024 163.606 1038.28 513.348
3003 0 72.3082 14.3691 1039 168.712 1037.23 513.036
3004 0 73.2507 14.1978 1040 167.145 1036.75 512.892
3005 0 74.216 14.633 1086 171.199 1036.16 513.096
3006 0 72.213 14.5819 1053 165.025 1035.82 513.567
3007 0 72.1476 14.8861 1074 170.484 1035.66 513.571
3008 0 71.2792 15.3481 1094 168.171 1035.25 514.097
3009 0 74.2731 14.5813 1083 170.931 1034.34 513.111
3010 0 76.5432 14.5147 1111 161.518 1035.87 512.412
3011 0 78.4002 14.7194 1154 169.124 1037.21 511.99
3012 0 79.4121 14.5948 1159 163.258 1036.11 511.385
3013 0 81.3816 14.9297 1215 167.109 1038.07 510.472
3014 0 85.6722 14.8006 1268 165.157 1036.83 508.543
3015 0 89.6728 15.1328 1357 169.256 1037.49 506.849
3016 0 91.529 14.9679 1370 153.957 1036.7 505.407
3017 0 94.5588 14.7845 1398 169.049 1035.93 504.397
3018 0 99.6001 14.9297 1487 166.694 1035.99 502.209
3019 0 104.76 14.7957 1550 166.894 1034.91 498.822
3020 0 109.669 15.0088 1646 161.916 1036.24 496.899
3021 0 112.877 14.8569 1677 160.553 1037 494.193
3022 0 118.909 14.6835 1746 161.43 1036.33 492.643
3023 1 66.5754 13.4284 894 153.994 1036.92 518.489
3024 0 69.7175 13.5547 945 157.593 1037.44 517.929
3025 0 69.3877 13.648 947 157.584 1035.85 517.515
3026 0 74.4653 13.6574 1017 153.242 1036.96 516.388
3027 0 76.801 13.6196 1046 147.114 1038.52 514.695
3028 0 79.7181 13.6983 1092 145.484 1037.54 513.24
3029 0 82.8728 13.8767 1150 148.377 1035.7 511.392
3030 0 84.6851 13.6388 1155 154.454 1038.34 510.683
3031 0 88.9871 13.5862 1209 150.846 1037.1 509.307
3032 0 90.7941 14.0868 1279 150.775 1038.06 507.768
3033 0 94.9976 13.9477 1325 157.278 1037.58 506.155
3034 0 96.7057 13.9806 1352 150.939 1038.19 504.768
3035 0 99.7372 14.2073 1417 156.669 1038.18 503.493
3036 0 102.964 14.17 1459 158.079 1039.3 501.925
3037 0 106.711 14.0753 1502 153.387 1037.1 499.878
3038 0 111.181 14.1211 1570 155.964 1035.66 498.382
3039 1 62.6433 13.074 819 159.875 1034.65 522.186
3040 0 66.4951 13.2942 884 152.851 1035.03 521.295
3041 0 67.4912 13.2314 893 149.338 1033.89 520.934
3042 0 68.6047 13.7017 940 152.403 1034.62 520.229
3043 0 72.5683 13.4356 975 152.552 1036.5 518.688
3044 0 74.4776 13.7088 1021 151.279 1034.56 517.736
3045 0 76.6343 13.858 1062 151.57 1034.68 516.991
3046 0 80.5494 13.9169 1121 153.572 1036.21 515.733
3047 0 83.3609 13.6995 1142 155.763 1033.75 514.759
3048 0 84.5315 13.9475 1179 157.815 1034.27 513.811
3049 0 88.4864 13.9117 1231 158.429 1034.58 512.076
3050 0 90.4557 13.9847 1265 163.13 1033.66 510.827
3051 0 93.4276 13.9359 1302 160.145 1036.17 510.299
3052 0 94.5974 14.345 1357 160.226 1036.6 508.235
3053 0 97.4973 14.6466 1428 159.924 1036.55 507.197
3054 0 100.499 14.428 1450 167.172 1036.19 506.124
3055 0 102.573 14.5068 1488 161.852 1035.44 504.298
3056 0 106.59 14.4478 1540 165.306 1038.11 503.209
3057 0 109.366 14.5749 1594 168.63 1039.64 501.259
3058 0 114.326 14.7298 1684 168.186 1038.73 499.022
3059 0 118.489 14.1955 1682 165.817 1036.21 497.741
3060 0 120.389 15.0678 1814 166.392 1037.05 496.804
3061 0 124.281 14.8695 1848 162.088 1036.61 494.806
3062 0 128.26 14.8058 1899 161.634 1035.66 492.442
3063 0 134.243 15.0772 2024 165.041 1036.97 489.406
3064 0 137.222 15.0704 2068 158.938 1038.53 488.036
3065 0 143.248 14.7297 2110 165.923 1037.6 486.26
3066 0 149.337 14.4171 2153 164.956 1036.65 484.005
3067 0 153.332 14.5892 2237 160.211 1034.61 482.025
3068 1 84.2881 13.8572 1168 164.908 1037.44 515.405
3069 0 87.1447 14.2407 1241 156.765 1037.35 513.627
3070 0 88.1796 14.7653 1302 166.006 1037.59 512.153
3071 0 90.1171 14.1815 1278 171.142 1037.67 512.523
3072 0 95.2752 14.5158 1383 160.48 1036.44 510.057
3073 0 97.2532 14.4571 1406 158.122 1036.14 509.383
3074 0 101.218 14.2959 1447 172.838 1036.53 507.731
3075 0 103.386 14.2476 1473 155.382 1035.92 506.412
3076 0 107.308 14.1182 1515 168.02 1035.1 504.912
3077 0 110.289 14.0358 1548 162.871 1035.64 503.15
3078 0 113.241 14.5266 1645 169.295 1035.53 501.474
3079 0 116.385 14.6496 1705 163.135 1038.03 499.697
3080 0 119.331 14.4472 1724 167.772 1037.69 498.537
3081 0 123.246 14.6699 1808 164.714 1035.83 496.847
3082 0 132.12 15.1605 2003 162.695 1036.26 493.121
3083 1 71.1439 13.3251 948 165.608 1036.64 523.23
3084 0 72.1281 13.6285 983 160.174 1038.18 522.276
3085 0 75.082 13.9314 1046 163.894 1036.48 521.578
3086 0 79.1629 13.8196 1094 168.519 1036.24 519.962
3087 0 81.087 14.1823 1150 166.105 1036.73 519.419
3088 0 83.1051 14.2711 1186 168.714 1035.01 518.609
3089 0 87.3551 14.4468 1262 51.1165 1035.31 517.234
3090 0 91.333 14.0803 1286 170.622 1035.13 515.84
3091 0 93.6659 14.541 1362 163.484 1036.1 513.783
3092 0 97.5806 14.2549 1391 168.5 1036.44 512.903
3093 0 97.339 14.8039 1441 170.504 1037.28 511.358
3094 0 101.391 14.9619 1517 169.968 1038.63 510.072
3095 0 105.705 14.7203 1556 172.647 1035.37 508.408
3096 0 109.683 14.7151 1614 166.408 1037.66 506.994
3097 0 112.422 14.321 1610 172.593 1037.11 505.865
3098 0 116.603 14.8881 1736 159.699 1037.33 502.973
3099 0 120.644 14.7956 1785 173.148 1035.55 502.007
3100 0 123.426 15.013 1853 168.419 1036.8 500.352
3101 0 128.592 15.1876 1953 165.168 1036.86 497.08
3102 0 130.477 15.3438 2002 166.396 1036.32 496.266
3103 0 138.652 15.0377 2085 160.658 1036.5 493.838
3104 0 143.52 14.9735 2149 162.895 1036.23 490.292
3105 0 149.689 15.265 2285 165.998 1034.4 487.762
3106 1 84.4581 13.7938 1165 164.83 1036.26 520.931
3107 0 87.5718 13.9657 1223 169.01 1038.54 520.141
3108 0 89.3754 14.0643 1257 159.148 1036.49 518.204
3109 0 92.4452 14.1489 1308 165.532 1035.05 517.07
3110 0 95.5879 14.3324 1370 164.815 1036.49 516.377
3111 0 99.8168 14.0658 1404 152.843 1034.51 514.465
3112 0 103.644 14.3954 1492 165.068 1037.28 512.939
3113 0 106.346 14.6597 1559 157.582 1034.96 511.628
3114 0 110.426 14.4894 1600 168.088 1034.13 510.239
3115 0 113.414 14.716 1669 165.046 1036.58 508.909
3116 0 117.577 14.5182 1707 171.679 1036.28 507.253
3117 0 120.31 14.6954 1768 155.854 1037.11 505.743
3118 0 124.545 14.8861 1854 169.681 1034.51 504.299
3119 0 130.602 14.7854 1931 166.205 1034.18 501.49
3120 0 134.258 14.8073 1988 164.868 1035.27 499.955
3121 0 139.28 15.0344 2094 164.115 1032.34 497.454
3122 0 143.298 14.9897 2148 169.269 1032.29 494.599
3123 0 150.39 14.8746 2237 167.403 1033.17 492.502
3124 0 156.312 14.7206 2301 168.942 1033.22 489.781
3125 0 162.281 14.5982 2369 167.068 1034.74 488.298
3126 1 89.4313 14.2456 1274 164.42 1036.03 522.932
3127 0 93.2879 13.9032 1297 160.149 1035.43 520.722
3128 0 97.2683 14.1773 1379 165.141 1035.34 519.384
3129 0 101.219 14.4636 1464 162.102 1035.69 517.136
3130 0 104.322 14.1869 1480 163.37 1035.05 516.192
3131 0 106.174 14.6741 1558 166.002 1037.1 513.856
3132 0 108.215 14.6098 1581 155.262 1036.5 512.688
3133 0 114.295 14.9087 1704 165.359 1035.76 510.717
3134 0 117.338 14.7522 1731 165.609 1035.04 509.228
3135 0 123.215 14.3245 1765 166.724 1034.88 507.648
3136 0 127.435 15.608 1989 163.993 1034.2 504.556
3137 0 129.208 14.9216 1928 161.244 1035.33 502.922
3138 0 134.239 14.8094 1988 166.386 1034.37 500.21
3139 0 143.225 15.4791 2217 157.724 1034.75 496.37
3140 1 76.3271 13.3504 1019 160.317 1035.8 530.205
3141 0 79.2364 14.034 1112 158.175 1035.54 528.74
3142 0 82.2547 14.1147 1161 158.446 1035.53 528.061
3143 0 83.261 13.9921 1165 164.644 1035.97 527.011
3144 0 86.3606 14.2542 1231 163.074 1035.96 525.653
3145 0 89.4757 14.3726 1286 163.547 1034.58 523.871
3146 0 92.2409 14.4079 1329 83.3469 1035.06 523.236
3147 0 95.6306 14.1482 1353 167.982 1035.75 521.489
3148 0 98.33 14.3496 1411 165.159 1033.72 520.176
3149 0 100.32 14.4438 1449 166.922 1034.22 519.328
3150 0 104.254 14.4359 1505 164.272 1035.27 517.662
3151 0 105.166 14.7101 1547 165.239 1035.73 516.39
3152 0 110.414 14.672 1620 168.909 1036.73 515.391
3153 0 113.355 14.8737 1686 168.042 1036.71 513.917
3154 0 119.449 14.8012 1768 161.904 1034.76 510.813
3155 0 124.407 14.5811 1814 165.695 1034.21 509.358
3156 0 127.526 14.5931 1861 165.134 1035.51 507.58
3157 0 133.301 14.6436 1952 166.27 1036.52 505.072
3158 1 75.1873 13.6858 1029 163.066 1035.85 533.683
3159 0 79.364 13.6208 1081 159.492 1037.06 530.369
3160 0 82.4178 13.565 1118 165.102 1035.08 529.672
3161 0 84.5646 13.7883 1166 155.973 1034.45 527.947
3162 0 87.3172 14.0293 1225 163.27 1033.42 526.337
3163 0 89.4761 14.149 1266 163.804 1033.39 525.332
3164 0 91.343 14.1992 1297 166.079 1033.79 524.608
3165 0 94.2169 14.3499 1352 163.064 1033.25 523.565
3166 0 97.2303 14.0903 1370 165.666 1034.46 522.769
3167 0 100.414 14.3705 1443 157.179 1033.22 520.584
3168 0 103.444 14.3652 1486 165.028 1033.23 520.029
3169 0 105.353 14.1524 1491 165.609 1034.16 519.553
3170 0 108.223 14.2298 1540 162.353 1033.18 518.677
3171 0 110.434 14.3252 1582 161.676 1032.63 517.313
3172 0 113.218 14.6531 1659 162.508 1031.89 516.224
3173 0 116.269 14.7417 1714 161.071 1033.7 515.145
3174 0 118.275 14.8214 1753 160.661 1034.17 513.3
3175 0 122.337 14.6154 1788 155.008 1032.31 511.763
3176 0 127.374 14.7362 1877 159.055 1032.1 510.668
3177 0 131.488 14.8607 1954 157.588 1033.27 507.227
3178 0 135.376 14.7958 2003 153.088 1033.06 506.23
3179 0 141.177 14.8537 2097 147.789 1032.69 503.401
3180 0 144.406 14.7085 2124 157.654 1031.7 501.099
3181 0 152.375 14.5365 2215 160.704 1034.25 498.172
3182 0 156.404 14.5841 2281 158.065 1033.5 496.827
3183 1 83.2159 13.3749 1113 154.826 1033.21 533.188
3184 0 88.4363 13.7387 1215 154.802 1031.61 531.067
3185 0 90.3914 13.9283 1259 155.183 1032.01 529.959
3186 0 94.526 14.0067 1324 151.677 1033.65 527.87
3187 0 97.4129 13.6943 1334 156.358 1033.07 527.373
3188 0 99.3871 14.197 1411 156.362 1033.29 526.186
3189 0 104.466 14.2151 1485 156.757 1033.9 525.428
3190 0 106.336 14.2191 1512 159.766 1034.13 524.253
3191 0 110.435 14.5243 1604 159.032 1031.08 522.999
3192 0 115.366 14.6404 1689 156.196 1031.22 520.281
3193 0 117.466 14.7533 1733 155.069 1031.96 519.672
3194 0 120.379 14.6952 1769 158.844 1032.13 518.136
3195 0 126.528 14.8741 1882 160.587 1032.94 514.985
3196 0 132.331 14.6677 1941 156.27 1033.1 513.026
3197 0 135.301 14.3975 1948 155.808 1033.43 512.021
3198 1 73.1309 13.2776 971 150.923 1035.64 543.448
3199 0 76.0635 13.6071 1035 154.391 1033.99 542.077
3200 0 79.0968 13.9323 1102 148.926 1035.47 540.667
3201 0 79.1699 14.2605 1129 153.048 1034.71 539.787
3202 0 84.3461 14.0611 1186 152.915 1034.58 539.262
3203 0 86.1288 14.3738 1238 150.383 1033.62 537.269
3204 0 89.1026 14.1073 1257 149.562 1035.72 535.432
3205 0 92.3068 14.3218 1322 143.787 1035.75 534.195
3206 0 95.1006 14.6476 1393 146.789 1034.68 532.814
3207 0 97.0783 14.5965 1417 143.584 1035.91 532.176
3208 0 101.212 14.3856 1456 151.536 1036.33 530.642
3209 0 102.149 15.0956 1542 78.5603 1035.77 528.326
3210 0 106.184 14.4466 1534 138.405 1034.4 527.563
3211 0 110.23 14.4607 1594 141.163 1035.64 526.82
3212 0 114.22 14.831 1694 143.367 1035.49 524.356
3213 0 116.294 14.6784 1707 142.599 1034.05 522.891
3214 0 120.279 14.8156 1782 143.248 1035.28 520.025
3215 0 127.287 14.4477 1839 137.138 1034.93 518.349
3216 0 131.251 14.7503 1936 136.984 1036.13 516.219
3217 1 73.2864 13.6724 1002 136.545 1037.58 544.031
3218 0 76.2539 13.9534 1064 136.691 1035.25 543.069
3219 0 79.1909 13.8652 1098 132.506 1036.41 543.077
3220 0 81.2996 13.9484 1134 138.354 1036.93 541.781
3221 0 83.1639 14.285 1188 139.012 1038.35 541.014
3222 0 85.106 14.2411 1212 137.521 1034.77 540.353
3223 0 89.2555 14.2848 1275 136.428 1036.3 538.517
3224 0 90.2752 14.4115 1301 133.035 1034.82 537.507
3225 0 94.3841 14.8966 1406 135.041 1034.83 535.576
3226 0 96.2386 14.5472 1400 139.832 1033.72 534.897
3227 0 99.3357 14.8788 1478 134.32 1035.39 533.319
3228 0 103.241 14.9166 1540 136.073 1033.34 532.289
3229 0 106.248 15.0026 1594 134.161 1033.95 530.488
3230 0 109.175 15.0217 1640 129.164 1035.38 530.121
3231 0 112.233 14.8441 1666 139.004 1034.18 528.649
3232 0 114.282 14.6042 1669 140.79 1032.15 528.292
3233 0 119.309 14.9192 1780 137.355 1033.48 526.25
3234 0 122.408 14.9664 1832 130.502 1031.99 524.57
3235 0 125.28 15.2219 1907 137.141 1034.47 522.762
3236 0 129.4 15.4714 2002 135.415 1035.08 521.427
3237 0 132.338 15.3017 2025 137.627 1034.84 520.003
3238 0 137.295 15.3028 2101 136.847 1032.63 517.868
3239 0 144.493 15.0942 2181 133.697 1031.32 514.869
3240 0 149.392 15.3154 2288 130.698 1033.55 512.193
3241 1 77.3724 13.7646 1065 129.966 1034.83 547.814
3242 0 80.257 14.2667 1145 131.784 1033.86 547.541
3243 0 80.176 14.4931 1162 134.085 1033.39 547.053
3244 0 84.1365 14.5834 1227 131.135 1033.78 545.566
3245 0 88.333 14.3321 1266 122.705 1033.38 544.547
3246 0 90.4004 14.1371 1278 122.6 1034.35 543.449
3247 0 93.2184 14.5036 1352 131.146 1033.22 541.572
3248 0 96.2327 14.6832 1413 130.476 1033.78 540.565
3249 0 97.2459 14.5405 1414 129.863 1033.62 540.304
3250 0 100.432 15.0449 1511 132.206 1033.14 538.377
3251 0 103.205 15.0574 1554 132.528 1032.54 536.968
3252 0 107.442 14.9196 1603 126.561 1034.73 535.149
3253 0 109.266 15.0092 1640 131.094 1034.3 533.831
3254 0 114.281 15.0244 1717 137.737 1033.4 532.222
3255 0 117.451 15.3681 1805 128.688 1034.58 530.616
3256 0 122.436 15.2079 1862 133.378 1034.89 528.85
3257 0 127.318 15.3631 1956 133.776 1034.28 527.156
3258 0 130.294 15.7413 2051 136.781 1036.55 525.115
3259 0 135.239 15.3728 2079 136.098 1036.68 524.114
3260 0 136.288 15.9296 2171 133.621 1033.19 520.65
3261 0 144.191 15.8609 2287 128.85 1034.77 518.831
3262 0 148.204 16.2614 2410 129.869 1036.63 516.225
3263 0 154.344 15.9708 2465 138.778 1035.63 514.028
3264 0 158.355 16.1599 2559 139.28 1033.85 511.798
3265 0 165.344 15.7853 2610 138.148 1035.55 507.956
3266 0 170.346 16.1553 2752 139.343 1035.57 505.482
3267 0 175.389 15.9246 2793 137.848 1034.94 502.792
3268 0 181.405 16.047 2911 137.51 1036.08 499.936
3269 0 185.348 15.7109 2912 142.673 1034.74 498.447
3270 0 192.627 16.1244 3106 137.301 1034.61 494.558
3271 0 198.518 16.0388 3184 145.546 1035.14 493.179
3272 0 204.618 16.2449 3324 137.681 1038.54 489.272
3273 0 211.664 15.7089 3325 145.628 1034.24 486.809
3274 0 218.597 16.0798 3515 147.703 1035.35 481.859
3275 0 227.379 16.3647 3721 142.734 1034.7 476.892
3276 0 236.6 15.8538 3751 147.482 1035.96 474.088
3277 0 246.733 15.8592 3913 145.22 1035.41 469.383
3278 0 256.727 16.5429 4247 137.051 1035.29 463.504
3279 0 263.681 15.9473 4205 148.034 1033.72 461.266
3280 1 200.401 15.3442 3075 150.897 1033.73 490.317
3281 0 208.744 15.3154 3197 146.612 1033.19 488.258
3282 0 214.459 16.9077 3626 139.446 1033.1 480.905
3283 0 221.672 15.6853 3477 147.097 1032.55 481.808
3284 0 229.58 15.7505 3616 151.595 1033.31 476.335
3285 0 238.665 15.5993 3723 150.123 1031.6 471.152
3286 0 244.73 15.5723 3811 147.646 1032.53 467.452
3287 0 245.66 15.4034 3784 157.17 1033.51 467.363
3288 0 245.5 15.2383 3741 157.239 1033.28 467.321
3289 0 244.398 15.352 3752 155.771 1036.03 466.961
3290 1 64.1464 13.0483 837 148.455 1036.17 556.176
3291 0 65.1564 13.859 903 148.348 1034.52 554.784
3292 0 67.2086 14.1797 953 153.618 1035.05 553.936
3293 0 69.2365 13.7644 953 152.571 1034.17 552.756
3294 0 72.3194 13.8137 999 145.827 1033.86 552.075
3295 0 75.3556 13.987 1054 148.007 1035.48 551.173
3296 0 76.3318 13.9391 1064 150.193 1035.23 549.474
3297 0 79.4075 13.84 1099 143.081 1034.04 549.477
3298 0 82.4894 13.9412 1150 147.166 1034.69 547.884
3299 0 85.4604 13.9246 1190 153.676 1032.21 546.96
3300 0 88.3402 14.3536 1268 153.703 1034.17 545.046
3301 0 90.4071 14.5011 1311 152.9 1032.65 544.325
3302 0 94.4998 14.3386 1355 153.992 1034.31 542.284
3303 0 96.4883 14.5614 1405 148.014 1035.1 541.169
3304 0 100.359 14.2388 1429 151.824 1035.36 540.376
3305 0 104.251 14.561 1518 149.556 1035.27 538.424
3306 0 107.295 14.3903 1544 152.418 1035.21 538.012
3307 0 111.411 14.2355 1586 148.631 1032.97 537.94
3308 0 115.556 14.4865 1674 153.622 1034.59 535.589
3309 0 119.545 14.597 1745 150.338 1034.87 533.923
3310 0 124.385 14.2782 1776 148.57 1035.89 533.448
3311 0 127.361 14.5884 1858 141.553 1036.41 530.199
3312 1 75.1904 13.4858 1014 146.943 1032.37 556.505
3313 0 75.3292 14.2972 1077 144.536 1034.57 556.303
3314 0 80.4751 14.6629 1180 136.438 1034.24 553.643
3315 0 84.5368 15.6973 1327 130.873 1034.09 550.613
3316 0 87.2989 15.5672 1359 137.5 1035.01 551.073
3317 0 88.4952 14.5319 1286 132.142 1034.04 551.369
3318 0 92.3379 14.7827 1365 134.124 1033.69 549.42
3319 0 94.2704 14.5539 1372 140.567 1035.61 547.49
3320 0 96.3869 15.0435 1450 128.42 1034.75 546.662
3321 0 101.357 14.3946 1459 142.681 1033.79 545.864
3322 0 104.264 14.7319 1536 142.135 1033.88 543.171
3323 0 107.183 14.8998 1597 137.528 1034.07 542.093
3324 0 111.375 14.4646 1611 132.956 1034.81 541.12
3325 0 112.387 15.1619 1704 140.266 1034.9 538.851
3326 0 117.256 14.6858 1722 137.762 1036.02 537.595
3327 1 20.0112 8.79508 176 112.108 1034.23 585.949
3328 0 18.0133 9.93709 179 114.363 1036.02 586.43
3329 1 131.412 14.6562 1926 142.282 1036.5 532.512
3330 0 139.41 16.9213 2359 128.604 1037.24 526.292
3331 1 81.347 14.014 1140 136.248 1037.49 555.851
3332 0 83.2963 14.1783 1181 136.517 1036.85 555.956
3333 0 84.2061 14.4645 1218 133.611 1034.85 554.878
3334 0 88.2152 14.3173 1263 140.948 1036.13 553.47
3335 0 91.3998 14.1904 1297 140.254 1036.46 552.547
3336 0 94.279 14.6056 1377 141.776 1033.93 550.882
3337 0 98.1587 14.4867 1422 143.058 1035.41 550.176
3338 0 99.4457 14.8624 1478 143.39 1033.49 548.995
3339 0 104.377 14.917 1557 145.739 1035.12 547.03
3340 0 107.399 14.9629 1607 142.555 1034.48 544.826
3341 0 110.51 14.7498 1630 147.478 1033.69 543.982
3342 0 115.356 14.8323 1711 145.565 1033.91 542.635
3343 0 119.391 15.0262 1794 146.992 1033.5 540.882
3344 0 122.387 15.0261 1839 147.134 1033.55 539.097
3345 0 125.344 15.0386 1885 151.33 1033.49 537.738
3346 0 131.508 14.8204 1949 151.28 1033.84 535.256
3347 1 76.2907 13.383 1021 148.15 1035.13 562.558
3348 0 77.5165 14.2421 1104 152.524 1035.62 562.111
3349 0 82.2154 15.4837 1273 143.818 1034.89 559.929
3350 0 82.4025 15.0481 1240 152.562 1036.56 559.875
3351 0 85.2841 14.6452 1249 145.086 1033.68 559.223
3352 0 87.1359 14.8618 1295 155.777 1034.79 558.206
3353 0 91.2747 14.7248 1344 147.603 1034.29 556.649
3354 0 93.2263 14.7062 1371 153.755 1033.65 555.147
3355 0 96.3925 15.053 1451 143.107 1032.67 554.018
3356 0 100.385 15.2613 1532 146.206 1034.29 552.934
3357 0 103.55 14.8237 1535 156.048 1036.4 552.489
3358 0 106.297 15.2403 1620 158.452 1035.67 550.775
3359 0 111.293 15.877 1767 153.684 1034.19 548.14
3360 0 115.291 15.0142 1731 156.124 1033.37 547.131
3361 0 118.301 15.1394 1791 157.638 1035.23 545.962
3362 0 122.282 15.3498 1877 159.766 1034.88 544.38
3363 0 125.417 15.0219 1884 157.116 1033.8 542.516
3364 0 132.335 15.1509 2005 151.42 1031.31 539.05
3365 0 137.344 15.2682 2097 148.528 1032.73 536.561
3366 1 77.1627 13.1022 1011 150.355 1030.46 568.092
3367 0 78.1853 13.6726 1069 150.475 1032.59 567.414
3368 0 82.3797 13.4014 1104 152.651 1032.67 566.275
3369 0 84.3197 13.8758 1170 147.645 1033.77 564.422
3370 0 87.2969 13.9982 1222 155.574 1035.16 563.126
3371 0 90.4292 14.0994 1275 147.855 1033.33 562.229
3372 0 91.4535 13.9415 1275 155.213 1033.63 560.715
3373 0 96.2376 13.8408 1332 148.666 1034.21 559.282
3374 0 99.426 14.2015 1412 156.313 1036.5 557.642
3375 0 103.394 14.2948 1478 155.104 1035.28 555.986
3376 0 105.585 14.1023 1489 150.62 1035.63 555.1
3377 0 108.435 14.2942 1550 149.874 1034.19 553.606
3378 0 112.412 14.4201 1621 141.632 1033.5 551.978
3379 0 114.3 14.4095 1647 152.443 1033.48 551.157
3380 0 119.766 14.5367 1741 156.436 1033.32 548.308
3381 0 123.573 14.6877 1815 153.382 1034.77 544.813
3382 0 127.388 14.2949 1821 155.328 1035.44 543.953
3383 0 132.574 14.407 1910 162.705 1035.64 542.374
3384 0 136.417 14.4703 1974 161.246 1036.86 538.664
3385 0 142.747 14.291 2040 163.633 1037.69 537.134
3386 0 145.681 14.5181 2115 162.305 1035.59 535.887
3387 0 153.509 14.5203 2229 162.93 1037.02 531.039
3388 1 84.3662 13.2755 1120 153.701 1034 565.363
3389 0 85.6782 13.8658 1188 161.403 1036.7 563.931
3390 0 89.5578 13.9016 1245 158.32 1036.36 562.294
3391 0 93.4726 14.1218 1320 159.38 1036.48 560.758
3392 0 96.579 14.1853 1370 161.655 1036.98 559.285
3393 0 99.745 14.2263 1419 162.536 1039 557.908
3394 0 103.582 14.2013 1471 149.815 1037.36 556.254
3395 0 108.625 14.168 1539 161.503 1037.59 554.47
3396 0 111.76 14.3612 1605 164.493 1038.05 552.356
3397 0 115.439 14.6831 1695 164.45 1037.1 551.158
3398 0 119.824 14.1959 1701 165.079 1036.88 550.19
3399 0 121.38 14.5082 1761 156.832 1036.48 547.984
3400 0 127.785 15.3305 1959 156.095 1038.07 544.414
3401 0 130.784 14.5355 1901 161.026 1036.45 544.217
3402 0 132.512 14.6779 1945 160.277 1034.58 542.251
3403 0 136.796 14.7665 2020 157.591 1034.8 541.089
3404 0 142.947 14.5299 2077 158.335 1035.33 538.673
3405 0 147.458 14.5194 2141 161.648 1035.61 535.99
3406 0 151.455 15.0737 2283 158.582 1033.23 533.501
3407 0 156.731 14.879 2332 156.447 1033.71 531.384
3408 0 164.769 14.5052 2390 159.765 1034.27 528.23
3409 0 170.686 14.5824 2489 153.417 1034.01 525.303
3410 1 87.4598 13.4576 1177 144.982 1034.87 564.953
3411 0 89.6005 14.0847 1262 157.331 1035.2 563.853
3412 0 92.5945 14.2449 1319 17.9227 1035.6 562.353
3413 0 96.3883 14.4935 1397 154.988 1036.99 560.559
3414 0 99.4541 14.2377 1416 155.954 1036.15 558.87
3415 0 103.425 14.426 1492 146.598 1037.75 557.609
3416 0 108.368 15.5027 1680 142.007 1037.66 554.576
3417 0 109.641 14.5474 1595 145.407 1036.68 554.499
3418 0 112.548 14.3316 1613 154.427 1037.67 553.93
3419 0 116.728 14.8464 1733 149.398 1038.98 552.696
3420 0 121.673 14.4897 1763 156.881 1037.29 551.874
3421 0 123.903 14.6485 1815 160.811 1039.05 549.392
3422 0 128.816 14.6876 1892 154.749 1037.49 548.558
3423 0 133.623 14.5259 1941 159.278 1038.8 546.188
3424 1 75.5531 14.9299 1128 156.448 1035.77 571.465
3425 0 76.4463 14.9648 1144 160.018 1035.56 569.377
3426 0 79.4652 14.5976 1160 156.918 1038.07 569.962
3427 0 83.5276 14.2588 1191 157.102 1037.47 569.103
3428 0 85.5935 14.4637 1238 161.605 1037.01 567.942
3429 0 87.5779 14.3986 1261 161.95 1036.33 567.91
3430 0 90.4527 14.4495 1307 159.394 1035.96 566.882
3431 0 93.608 14.6355 1370 157.001 1036.86 566.205
3432 0 96.8638 14.5565 1410 160.263 1038.01 564.921
3433 0 100.616 14.6199 1471 166.422 1035.05 562.723
3434 0 102.714 14.6329 1503 158.177 1036.79 561.595
3435 0 106.338 14.6796 1561 164.598 1035.88 560.757
3436 0 110.386 16.2158 1790 156.834 1035.9 557.4
3437 0 112.602 14.7866 1665 162.257 1034.51 557.904
3438 0 117.606 16.2917 1916 154.706 1035.98 554.994
3439 0 119.4 15.0586 1798 168.427 1037.54 555.651
3440 0 122.404 15.2364 1865 169.129 1034.62 553.723
3441 0 125.445 15.3693 1928 167.288 1036.46 551.787
3442 0 128.374 15.5016 1990 166.635 1036.73 550.526
3443 0 134.44 15.5906 2096 168.334 1035.58 548.378
3444 0 138.402 15.4117 2133 165.099 1036.42 545.906
3445 0 142.437 15.4595 2202 169.89 1036.34 543.561
3446 0 147.493 15.716 2318 162.592 1036.67 541.081
3447 1 14.0111 7.27992 102 126.333 1038.2 606.912
3448 0 15.0025 7.06547 106 130.708 1037.21 606.434
3449 0 16.0242 7.23906 116 129.319 1036.94 606.284
3450 0 14.0013 7.99923 112 127.321 1037.42 606.643
3451 0 16.0009 8.81198 141 124.638 1039.04 605.979
3452 0 17.0124 7.87659 134 129.552 1037.95 606.634
3453 0 16.0299 8.04748 129 120.349 1037.22 607.147
3454 0 16.0047 8.24758 132 127.136 1036.62 607.25
3455 0 17.0084 7.99607 136 125.382 1037.9 606.934
3456 0 17.05 9.03228 154 121.948 1036.71 606.812
3457 0 20.0132 8.39448 168 125.488 1038.08 606.107
3458 0 19.011 8.574 163 130.436 1034.87 606.068
3459 1 223.491 16.3139 3646 165.647 1035.45 504.136
3460 0 232.394 15.9169 3699 164.049 1035.83 501.492
3461 0 242.513 15.9455 3867 165.54 1034.28 496.796
