index division length width area intensity CMx CMy
2526 0 75.2603 11.3871 857 109.805 1309.88 466.127
2527 0 78.1647 11.5141 900 104.541 1307.46 465.211
2528 0 80.2031 10.9472 878 109.141 1309.98 462.308
2529 1 40.01 9.54761 382 109.034 1309.24 483.851
2530 0 43.0671 10.1005 435 118.326 1308.92 482.846
2531 0 43.0624 10.8679 468 93.3846 1308.09 481.449
2532 0 44.0403 10.8537 478 105.481 1307.72 480.421
2533 0 45.1458 12.0055 542 106.45 1308.04 480.341
2534 0 47.1023 10.9336 515 43.6078 1306.5 479.287
2535 0 38.1325 7.42148 283 106.841 1309.12 482.696
2536 0 35.0326 5.90878 207 122.807 1308.89 485.425
2537 0 34.0149 6.49715 221 113.122 1306.87 485.036
2538 0 34.0479 6.75518 230 117.965 1306.77 484.243
2539 0 35.0833 6.61284 232 114.608 1306.34 484.72
2540 0 37.011 7.29513 270 111.289 1306.38 484.293
2541 0 36.0129 9.55214 344 114.198 1306.35 481.442
2542 0 36.0751 9.67427 349 111.831 1304.27 481.633
2543 1 124.486 13.8248 1721 110.101 1305.63 438.451
2544 1 141.401 11.0112 1557 113.197 1305.83 430.47
2545 0 140.563 11.4326 1607 110.437 1305.59 430.987
2546 0 139.65 11.5718 1616 108.406 1307.63 430.89
2547 0 138.519 12.9513 1794 113.075 1306.63 429.561
2548 0 138.507 11.2991 1565 116.987 1307.73 432.046
2549 0 148.5 14.8619 2207 95.536 1307.02 427.373
2550 0 154.614 14.7981 2288 93.8392 1308.82 422.966
2551 0 159.673 14.3856 2297 94.8476 1305.64 420.539
2552 0 159.458 12.8812 2054 98.3661 1306.38 424.603
2553 0 159.871 12.7603 2040 108.713 1307.32 421.697
2554 0 159.456 12.2228 1949 105.485 1307.14 421.735
2555 1 88.3186 13.4739 1190 107.955 1307.77 459.616
2556 0 89.2621 11.8303 1056 111.052 1309.07 457.292
2557 1 51.0879 12.5078 639 103.238 1308.47 478.078
2558 0 49.1277 13.5361 665 99.5353 1307.82 476.883
2559 0 52.0708 12.8287 668 117.111 1307.28 476.496
2560 0 54.1133 12.9358 700 99.8086 1307.93 475.637
2561 0 54.1083 13.4915 730 101.337 1306.66 474.856
2562 0 56.2271 13.4277 755 102.419 1306.86 473.87
2563 0 57.0897 13.7153 783 101.416 1306.09 473.943
2564 0 60.1662 13.6954 824 102.087 1305.72 471.945
2565 0 63.057 13.6543 861 101.574 1305.42 472.042
2566 0 63.1226 14.7808 933 93.3548 1304.74 470.596
2567 0 64.0851 14.6212 937 98.9968 1304.05 469.778
2568 0 68.0926 14.7299 1003 95.682 1304.66 468.247
2569 0 67.0804 15.1609 1017 102.481 1305.66 467.529
2570 0 70.2157 14.6976 1032 100.032 1305.63 466.674
2571 0 72.1158 15.0037 1082 93.9261 1302.58 465.683
2572 0 74.1859 14.3693 1066 98.409 1305 464.546
2573 0 75.1805 13.8467 1041 103.667 1305.51 462.729
2574 0 80.2087 14.6742 1177 100.099 1304.19 463.34
2575 0 83.1828 13.6446 1135 104.165 1306.12 461.061
2576 0 85.0515 13.968 1188 106.76 1306.16 459.726
2577 0 89.2146 13.9775 1247 106.703 1304.65 459.407
2578 1 46.0955 12.0402 555 117.993 1306.4 478.957
2579 0 49.0764 12.4704 612 128.732 1304.18 477.477
2580 0 50.1409 12.7042 637 126.699 1305.74 476.612
2581 0 51.0627 13.1603 672 121.399 1304.11 475.927
2582 0 54.0631 13.0958 708 125.966 1304.94 476.281
2583 0 56.0917 12.9966 729 121.32 1305.23 474.35
2584 0 55.1248 13.279 732 107.116 1305.49 472.473
2585 0 57.1003 13.7302 784 104.347 1304.31 471.092
2586 0 59.1009 13.6546 807 102.108 1305.38 470.803
2587 0 61.0684 14.6066 892 102.946 1306.5 469.626
2588 0 63.1019 13.7238 866 104.543 1308.08 468.249
2589 0 63.1019 13.7238 866 131.118 1310.08 468.249
2590 0 70.1525 14.1834 995 109.899 1306.27 465.832
2591 0 72.1814 14.0756 1016 108.85 1306.05 464.57
2592 0 77.2253 14.3865 1111 106.353 1306.17 463.898
2593 0 77.2264 14.71 1136 103.085 1306.84 462.587
2594 0 80.1776 14.9668 1200 97.3117 1307.22 461.114
2595 0 85.2953 15.6281 1333 92.7104 1305.95 459.058
2596 1 41.1855 13.16 542 89.0609 1303.63 479.834
2597 0 41.1855 13.16 542 153.779 1301.63 479.834
2598 0 45.1946 12.413 561 99.107 1306.21 479.118
2599 0 46.2277 12.7413 589 106.066 1306.35 478.2
2600 0 47.1378 13.4287 633 111.859 1305.38 477.52
2601 0 48.0971 12.849 618 116.367 1305.05 476.71
2602 0 49.126 13.2924 653 111.813 1307.06 476.139
2603 0 51.1221 13.2819 679 110.552 1306.16 475.462
2604 0 53.0925 13.9003 738 104.102 1307.65 473.82
2605 0 55.0915 14.3579 791 105.689 1305.47 473.686
2606 0 57.1061 13.7814 787 108.973 1307.15 472.752
2607 0 59.1168 13.3126 787 113.485 1306.98 472.358
2608 0 61.1279 13.5617 829 108.55 1307.93 469.832
2609 0 63.1006 14.2471 899 105.459 1306.42 470.211
2610 0 65.0672 14.754 960 100.819 1306.75 468.043
2611 0 68.1133 15.1659 1033 104.109 1308.77 468.086
2612 0 70.1738 14.2788 1002 104.228 1309.27 467.672
2613 0 73.0707 14.9855 1095 113.289 1306.34 466.246
2614 0 75.0586 14.935 1121 107.651 1305.33 463.946
2615 0 78.0938 14.5082 1133 110.572 1307.12 462.498
2616 0 81.1256 14.5084 1177 126.795 1304.03 460.975
2617 1 44.0174 12.4723 549 127.393 1305.94 479.395
2618 0 46.031 11.9919 552 117.453 1305.62 479.342
2619 0 47.0356 12.7563 600 121.26 1305.28 477.69
2620 0 48.0576 13.4006 644 115.04 1306.89 477.084
2621 0 49.1184 13.7016 673 118.597 1306.09 476.646
2622 0 50.0867 13.8759 695 122.055 1306.53 475.986
2623 0 52.0788 13.422 699 117.697 1304.85 475.053
2624 0 53.0876 13.4871 716 113.837 1303.73 474.158
2625 0 55.1014 13.5387 746 121.784 1302.19 472.843
2626 0 57.1292 13.4257 767 121.545 1302.95 471.359
2627 0 59.1117 12.8232 758 140.43 1301.5 471.169
2628 0 60.0921 13.4793 810 135.743 1302.27 469.849
2629 0 63.1707 13.5348 855 140.342 1302.44 468.669
2630 0 64.1767 13.3382 856 149.306 1303.64 468.105
2631 0 66.0585 13.7 905 138.771 1302.94 467.045
2632 0 70.1143 13.1072 919 149.33 1304.58 466.235
2633 0 72.122 13.3662 964 148.285 1303.59 464.657
2634 0 74.1386 13.785 1022 147.279 1306.45 463.044
2635 0 77.0392 13.4737 1038 149.18 1306.93 461.764
2636 1 42.1475 11.3886 480 146.877 1305.49 479.248
2637 0 43.0805 11.4901 495 146.745 1303.77 478.257
2638 0 44.0709 12.4572 549 139.812 1305.76 478.071
2639 0 43.0711 12.7696 550 143.236 1307.71 477.269
2640 0 46.0976 13.0159 600 138.508 1307.58 476.192
2641 0 48.1542 12.8753 620 141.082 1305.13 475.982
2642 0 49.1226 12.9472 636 141.989 1306.64 475.695
2643 0 51.1544 13.1171 671 142.41 1305.32 475.235
2644 0 53.1908 12.8218 682 137.818 1305.26 474.183
2645 0 54.2723 12.8427 697 137.485 1303.29 473.56
2646 0 54.2723 12.8427 697 155.607 1301.29 473.56
2647 0 59.0948 13.0976 774 144.068 1306.45 472.632
2648 0 59.0597 13.3255 787 131.897 1303.17 471.459
2649 0 61.131 13.2502 810 133.015 1304.68 470.378
2650 0 63.1272 13.4015 846 141.501 1300.44 468.953
2651 0 63.084 13.9972 883 150.448 1304.37 468.173
2652 0 67.1103 13.2468 889 147.585 1305.85 467.55
2653 0 70.1582 13.9114 976 143.677 1308.05 465.306
2654 0 72.1066 14.0625 1014 142.683 1309.48 463.965
2655 0 73.1229 13.8397 1012 144.018 1307.91 463.061
2656 0 77.2958 13.9464 1078 150.609 1309.58 461.713
2657 0 80.1856 14.0549 1127 148.245 1307.62 460.435
2658 0 84.1931 14.2411 1199 141.003 1307.46 458.056
2659 0 87.0861 14.1699 1234 140.829 1306.13 456.021
2660 1 45.108 11.5279 520 144.844 1305.46 477.588
2661 0 44.2157 13.0497 577 139.158 1307.16 477.023
2662 0 48.2943 12.7137 614 139.243 1304.26 476.173
2663 0 48.1588 13.3101 641 143.281 1306.2 475.861
2664 0 51.3146 12.7254 653 140.726 1306.37 474.597
2665 0 52.1967 13.1809 688 141.805 1304.89 473.842
2666 0 54.2427 13.6055 738 125.78 1307.8 473.243
2667 0 54.216 13.4462 729 136.738 1307.33 472.501
2668 0 56.0573 13.3078 746 140.567 1307.13 471.393
2669 0 59.0871 13.7086 810 138.841 1305.87 470.78
2670 0 59.0512 13.7 809 139.806 1307.89 469.528
2671 0 63.0351 13.9605 880 138.383 1306.18 468.53
2672 0 65.0806 14.0902 917 132.059 1307.33 467.206
2673 0 69.0663 14.4644 999 125.337 1306.64 465.893
2674 0 69.2685 14.1767 982 138.62 1305.05 464.939
2675 0 72.224 13.9289 1006 135.968 1303.75 463.115
2676 0 74.2068 14.1766 1052 139.061 1305.86 462.757
2677 0 75.3203 14.6441 1103 138.466 1304.19 461.558
2678 0 80.2527 14.1553 1136 134.509 1305.1 459.88
2679 0 83.2868 14.24 1186 137.622 1305.74 457.748
2680 0 87.275 13.7955 1204 138.437 1304.61 456.871
2681 0 87.2734 14.1968 1239 143.969 1305.32 455.216
2682 0 91.1921 14.7052 1341 131.145 1305.6 452.57
2683 0 95.3051 14.3644 1369 131.252 1306.3 451.657
2684 0 97.2985 14.3887 1400 138.5 1307.06 450.352
2685 1 52.0758 12.8274 668 140.907 1305.78 473.027
2686 0 51.0892 12.9773 663 136.3 1305.26 472.911
2687 0 54.0297 12.9373 699 136.742 1305.45 472.973
2688 0 55.0284 13.1205 722 141.434 1306.44 471.075
2689 0 59.0783 12.8812 761 138.003 1305.74 470.848
2690 0 60.0938 13.612 818 138.1 1305.55 468.68
2691 0 62.0351 13.3634 829 138.666 1304.72 467.943
2692 0 62.1092 13.6856 850 140.506 1306.36 467.736
2693 0 65.0552 13.7422 894 142.173 1305.21 466.353
2694 0 68.1164 13.6091 927 140.983 1307.54 465.124
2695 0 70.1048 14.0504 985 137.687 1305.93 464.087
2696 0 72.0568 13.8086 995 144.367 1307.34 462.915
2697 0 75.0929 13.8096 1037 139.781 1306.78 460.974
2698 0 76.1646 14.3242 1091 136.639 1305.64 460.23
2699 0 80.1553 13.9729 1120 143.458 1307.19 459.55
2700 0 81.0868 14.0343 1138 147.173 1308.93 457.924
2701 0 85.145 14.1876 1208 146.22 1310.11 456.845
2702 0 88.2614 14.3098 1263 146.551 1306.92 455.151
2703 0 89.2879 14.3468 1281 147.354 1307.41 454.358
2704 0 94.2613 14.1203 1331 146.856 1309.15 452.044
2705 0 97.1991 14.0845 1369 143.855 1307.34 450.614
2706 0 97.3419 14.3618 1398 142.404 1304.71 448.78
2707 0 103.469 14.1201 1461 143.311 1309.16 446.383
2708 0 107.451 14.2669 1533 138.588 1307.42 444.077
2709 1 59.0751 12.5772 743 143.275 1308.29 468.974
2710 0 61.0769 13.1801 805 141.385 1305.63 467.6
2711 0 62.2123 13.1325 817 135.7 1309.19 466.998
2712 0 66.285 12.9743 860 136.808 1307.56 465.662
2713 0 65.2349 13.5357 883 134.025 1308.46 464.281
2714 0 67.3232 13.3683 900 136.028 1307.9 462.938
2715 0 72.3981 13.4258 972 132.338 1307.18 461.241
2716 0 75.3058 13.4651 1014 137.546 1306.77 460.714
2717 0 77.2897 13.5464 1047 140.652 1306.3 458.936
2718 0 78.2755 13.478 1055 138.771 1305.79 458.337
2719 0 82.3642 13.501 1112 140.44 1307.92 457.12
2720 0 84.3687 13.4884 1138 133.171 1309.83 455.585
2721 0 88.4395 13.4895 1193 133.138 1308.58 453.017
2722 0 90.3325 13.0629 1180 140.645 1306.75 452.326
2723 0 94.3345 13.6641 1289 135.736 1305.31 450.196
2724 0 96.2963 13.8842 1337 134.897 1307.44 448.934
2725 0 102.254 13.7011 1401 134.201 1307.18 446.303
2726 1 55.0317 12.5746 692 131.853 1308.56 469.809
2727 0 57.0326 12.4841 712 134.823 1305.59 468.719
2728 0 58.0562 12.3156 715 140.523 1305.97 468.534
2729 0 61.0366 12.3533 754 140.027 1303.64 467.269
2730 0 62.1765 12.7701 794 139.577 1307.42 466.037
2731 0 64.0762 13.2499 849 133.324 1306.08 464.423
2732 0 67.0543 12.6912 851 138.469 1304.58 463.404
2733 0 69.0646 13.4946 932 138.704 1308.89 461.686
2734 1 48.0167 11.5585 555 145.814 1303.01 472.582
2735 0 49.0513 11.3147 555 147.234 1303.57 473.64
2736 0 50.124 11.2721 565 144.878 1302.45 474.103
2737 0 52.0786 11.3866 593 143.501 1308.44 473.172
2738 0 54.0806 11.9821 648 139.455 1306.65 472.696
2739 0 55.0533 12.2972 677 139.456 1306.86 472.29
2740 0 56.1049 12.744 715 139.808 1304.93 471.333
2741 0 59.2039 12.5836 745 136.338 1306.27 470.213
2742 0 61.2533 12.4728 764 138.47 1304.82 470.102
2743 0 63.1836 12.4874 789 142.714 1307.33 469.113
2744 0 65.1653 12.4913 814 145.91 1307.22 468.574
2745 0 66.16 12.9383 856 144.459 1306.01 468.007
2746 0 69.2099 12.9895 899 144.139 1308.67 466.498
2747 0 73.079 13.0817 956 141.395 1308.5 464.858
2748 0 74.1308 13.3818 992 145.489 1307.86 464.077
2749 0 76.1465 13.4346 1023 142.186 1308.51 462.7
2750 0 80.2517 13.2832 1066 157.834 1306.17 461.56
2751 0 84.2072 13.2649 1117 146.598 1307.27 459.969
2752 0 87.2117 13.129 1145 153.293 1306.08 459.401
2753 0 90.1129 13.5386 1220 148.36 1304.12 458.068
2754 0 94.1656 13.009 1225 149.677 1307.26 456.485
2755 1 50.1442 11.427 573 157.431 1306.38 479.686
2756 0 52.0541 12.3333 642 152.95 1307.33 478.012
2757 0 54.148 12.5951 682 146.853 1306.13 476.651
2758 0 56.1557 12.7503 716 152.786 1305.16 476.816
2759 0 57.1677 12.6995 726 145.165 1306.13 475.882
2760 0 60.1461 12.586 757 147.23 1304.45 475.54
2761 0 62.2224 12.5196 779 150.032 1303.91 476.089
2762 0 62.2263 13.1134 816 155.591 1302.71 475.114
2763 0 65.1411 13.11 854 150.801 1303.3 474.557
2764 0 67.1255 12.931 868 149.18 1302.88 473.736
2765 0 68.0805 13.8659 944 148.609 1304.99 472.754
2766 0 72.0918 13.5106 974 152.869 1303.51 471.033
2767 0 73.1314 13.3322 975 151.011 1305.61 470.896
2768 0 77.1274 13.6138 1050 146.211 1306.47 469.851
2769 0 80.1055 13.2575 1062 154.38 1304.97 468.527
2770 0 83.0662 13.423 1115 149.987 1306.33 467.171
2771 0 86.1725 13.531 1166 153.754 1305.38 466.158
2772 0 88.0646 13.7967 1215 151.459 1306.63 465.272
2773 0 91.2403 13.4261 1225 146.355 1308.32 463.618
2774 0 94.1478 13.3726 1259 151.732 1304.06 463.217
2775 1 48.0797 11.9801 576 152.656 1304.7 485.715
2776 0 50.0616 12.0052 601 153.647 1305.17 485.005
2777 0 52.0517 12.6797 660 150.245 1305.88 484.126
2778 0 54.1015 12.7908 692 149.815 1305.3 483.262
2779 0 56.0717 12.9834 728 143.885 1305.69 482.842
2780 0 57.1284 12.8658 735 150.848 1304.51 482.493
2781 0 58.1283 13.1089 762 151.499 1304.24 481.248
2782 0 60.0622 13.2529 796 151.053 1307.72 481.043
2783 0 62.1014 13.4941 838 153.055 1305.88 480.199
2784 0 63.1013 13.3753 844 153.489 1306.73 479.475
2785 0 65.1105 13.5001 879 150.381 1306.74 479.659
2786 0 66.1111 13.9008 919 145.196 1307.01 478.279
2787 0 70.1105 13.5358 949 157.354 1305.27 477.066
2788 0 72.1438 13.6394 984 157.639 1305.34 475.967
2789 0 74.1472 13.662 1013 157.24 1304.88 475.28
2790 0 76.1777 13.8098 1052 158.608 1304.1 474.075
2791 0 80.1713 13.309 1067 156.219 1303.86 472.721
2792 0 82.2216 13.1596 1082 157.205 1305 472.116
2793 0 83.1329 13.5807 1129 153.314 1304.26 469.895
2794 0 87.0972 13.6399 1188 155.676 1305.59 468.716
2795 0 90.1788 13.8392 1248 147.865 1304.43 467.521
2796 0 93.1361 13.593 1266 144.77 1305.79 466.495
2797 0 96.2047 13.4193 1291 153.474 1306.56 464.463
2798 0 99.1325 13.9409 1382 146.891 1306.4 461.501
2799 1 53.089 12.3189 654 154.104 1305.86 485.651
2800 0 56.0104 12.6048 706 152.53 1304.38 484.452
2801 0 58.2214 12.8475 748 149.305 1305.03 484.345
2802 0 60.2108 13.0874 788 142.317 1305.69 484.813
2803 0 63.1779 12.7735 807 151.214 1304.26 484.203
2804 0 63.2392 13.2671 839 150.623 1303.54 482.386
2805 0 66.3819 13.9195 924 147.532 1305.97 481.542
2806 0 70.1714 13.3388 936 151.123 1306.33 480.936
2807 0 72.3011 13.6098 984 154.795 1303.27 479.746
2808 0 73.2361 13.8456 1014 156.795 1302.36 479.679
2809 0 76.3231 13.718 1047 161.107 1302.75 478.562
2810 0 79.2113 13.7859 1092 154.536 1303.44 477.826
2811 0 81.1859 13.7216 1114 158.358 1303.52 476.096
2812 0 83.2045 14.3021 1190 159.821 1303.4 474.792
2813 0 87.1992 13.8189 1205 168.189 1303.66 473.982
2814 0 91.229 13.7675 1256 165.549 1303.98 471.983
2815 0 94.2379 13.6781 1289 167.534 1302.62 470.837
2816 0 98.2002 13.9205 1367 164.91 1303.32 470.2
2817 0 101.288 14.0688 1425 164.356 1303.56 469.115
2818 1 48.137 13.0253 627 156.624 1303.48 493.995
2819 0 50.2639 13.1108 659 161.417 1304.63 494.029
2820 0 52.0846 12.7677 665 159.499 1305.68 493.88
2821 0 53.1494 12.9823 690 163.212 1306.21 493.122
2822 0 54.1361 13.3368 722 155.051 1307.32 492.982
2823 0 57.1484 13.6487 780 156.787 1304.84 491.173
2824 0 59.1341 13.3426 789 165.156 1309.02 490.331
2825 0 60.152 13.6488 821 160.709 1308.05 490.585
2826 0 63.0904 13.5361 854 162.946 1306.06 489.632
2827 0 64.095 14.2289 912 157.758 1307.17 488.861
2828 0 66.1057 13.9171 920 156.757 1306.7 487.949
2829 0 67.1742 14.2019 954 160.948 1306.08 487.198
2830 0 70.0495 13.7617 964 159.728 1304.13 487.173
2831 0 73.0691 14.2194 1039 162.247 1305.9 485.815
2832 0 76.0438 13.9525 1061 155.901 1304.11 485.077
2833 0 77.3174 14.2529 1102 166.632 1305.1 484.182
2834 0 80.2233 14.3973 1155 163.633 1305.42 482.732
2835 0 84.0786 14.1891 1193 170.709 1305.12 482.435
2836 0 86.2196 14.9154 1286 167.874 1304.38 480.91
2837 0 90.1755 14.6825 1324 162.529 1303.82 479.334
2838 0 93.4642 14.23 1330 161.318 1303.48 478.201
2839 0 96.3871 14.67 1414 166.784 1304.13 476.588
2840 0 99.3199 14.2368 1414 166.749 1305.43 476.472
2841 1 50.2448 12.7973 643 165.827 1304.7 500.588
2842 0 52.2462 13.245 692 160.844 1305.67 499.549
2843 0 53.2864 13.2116 704 161.909 1305.26 499.159
2844 0 55.1912 13.0999 723 158.203 1305.44 499.17
2845 0 56.1593 13.6754 768 162.027 1305.97 498.473
2846 0 59.2275 13.4059 794 152.248 1302.47 497.505
2847 0 61.1918 13.3024 814 160.209 1303.41 496.586
2848 0 62.1678 13.6566 849 163.694 1305.21 495.726
2849 0 64.1365 13.6272 874 160.426 1305.31 494.847
2850 0 67.1534 13.7595 924 162.885 1305.51 494.511
2851 0 68.2107 14.1034 962 162.651 1305.17 493.969
2852 0 70.1183 14.1618 993 156.194 1304.97 492.579
2853 0 72.1207 13.9072 1003 164.547 1303.31 491.437
2854 0 76.125 13.6223 1037 162.686 1306.52 490.89
2855 0 79.1073 13.1593 1041 166.181 1305.18 490.624
2856 0 80.1239 13.6539 1094 154.654 1304.47 489.266
2857 0 84.0893 13.9851 1176 160.624 1306.85 487.303
2858 0 86.2482 14.1684 1222 166.935 1307.74 486.393
2859 0 89.0882 14.1433 1260 158.844 1307.42 485.457
2860 0 91.2737 14.1662 1293 158.467 1306.12 483.687
2861 0 95.188 14.2665 1358 158.839 1304.38 481.625
2862 0 96.0666 14.4067 1384 160.049 1304.75 481.813
2863 0 100.113 14.4237 1444 157.434 1304.75 480.316
2864 0 105.064 14.1628 1488 157.646 1305.18 477.911
2865 1 54.0395 12.5464 678 157.594 1303.81 503.991
2866 0 53.0737 13.3211 707 152.246 1304.88 503.564
2867 0 58.1096 13.268 771 152.342 1303.06 502.742
2868 0 59.032 13.0946 773 157.503 1300.94 502.589
2869 0 61.0945 13.651 834 156.314 1301.66 501.141
2870 0 63.1649 13.6152 860 157.424 1306.48 500.286
2871 0 64.1374 13.6738 877 150.808 1302.93 499.745
2872 0 65.1132 14.0371 914 166.176 1305.04 499.033
2873 0 68.0718 13.9412 949 157.672 1304.6 498.647
2874 0 71.1472 13.9429 992 165.465 1304.65 497.756
2875 0 72.0492 14.0876 1015 159.481 1303.19 496.382
2876 0 75.1069 14.0333 1054 166.74 1305.52 495.818
2877 0 77.093 14.2166 1096 165.63 1307.83 494.628
2878 0 78.2147 14.0766 1101 163.504 1306.68 493.749
2879 0 82.1626 14.2157 1168 166.223 1303.38 492.379
2880 0 85.2613 14.2386 1214 161.532 1303.48 491.565
2881 0 86.1216 14.8163 1276 155.861 1304.54 490.329
2882 1 50.1605 13.1777 661 167.531 1306.95 508.045
2883 0 53.0661 12.965 688 168.602 1305.13 508.042
2884 0 56.1219 13.0787 734 165.079 1304.67 507.153
2885 0 58.12 12.8871 749 163.374 1303.82 506.374
2886 0 62.2061 13.2945 827 164.337 1304.02 504.752
2887 0 63.0943 13.2976 839 166.784 1304.44 504.57
2888 0 63.1365 13.9222 879 158.588 1302.13 503.845
2889 0 67.1847 13.2024 887 165.4 1303.06 503.053
2890 0 69.1708 13.3727 925 165.402 1302.26 501.715
2891 0 70.1505 14.0555 986 164.866 1303.05 500.608
2892 0 74.2334 13.929 1034 164.054 1304.17 499.222
2893 0 74.2334 13.929 1034 176.544 1305.17 499.222
2894 0 80.3511 13.2792 1067 162.014 1305.49 495.934
2895 0 83.5186 13.7454 1148 154.405 1303.78 494.997
2896 0 85.2444 13.7604 1173 152.966 1302.28 493.561
2897 0 89.3519 13.4189 1199 158.911 1303.32 491.023
2898 0 91.2926 13.9551 1274 157.531 1301.97 489.758
2899 1 46.2375 11.787 545 148.813 1302.79 512.855
2900 0 47.2443 12.3825 585 142.781 1302.4 512.455
2901 0 49.3289 12.4673 615 154.215 1303.04 511.961
2902 0 51.2371 12.569 644 156.07 1301.26 511.562
2903 0 52.056 12.5442 653 162.152 1302 512.444
2904 0 53.0585 13.4003 711 165.329 1305.05 512.641
2905 0 55.0678 12.984 715 160.95 1304.47 511.705
2906 0 57.0594 13.3545 762 153.304 1305.25 510.472
2907 0 60.1338 13.1873 793 162.084 1303.26 510.24
2908 0 62.1335 13.0686 812 160.133 1304.93 509.543
2909 0 64.0624 13.2371 848 165.935 1302.32 508.192
2910 0 65.2705 13.4517 878 164.474 1302.79 507.416
2911 0 67.1795 13.5309 909 159.495 1304.61 506.609
2912 0 69.1553 13.3902 926 164.717 1304.49 505.283
2913 0 70.2167 14.0138 984 159.553 1303.7 504.317
2914 0 74.1649 13.47 999 158.507 1303.67 503.181
2915 0 76.3475 13.4778 1029 164.942 1305.89 502.142
2916 0 79.2282 13.4296 1064 162.046 1305.71 500.564
2917 0 80.2078 13.5149 1084 165.858 1303.45 499.797
2918 0 85.2409 13.5146 1152 159.383 1304.31 498.964
2919 0 86.282 13.7804 1189 159.761 1303.32 497.43
2920 0 89.3043 13.4148 1198 165.098 1302.76 497.126
2921 0 90.3865 13.9401 1260 160.795 1302.52 495.603
2922 0 94.3243 13.7716 1299 156.396 1302.95 494.206
2923 0 97.3279 13.8604 1349 158.861 1302.37 491.156
2924 0 101.351 13.8725 1406 150.318 1302.98 489.746
2925 0 104.381 13.719 1432 154.717 1303.42 488.581
2926 0 106.417 14.2835 1520 157.053 1301.03 486.338
2927 0 108.338 14.5101 1572 154.433 1299.86 484.058
2928 0 115.375 14.2491 1644 154.408 1303.11 482.712
2929 0 117.397 14.1827 1665 155.332 1300.66 481.032
2930 0 123.293 14.2344 1755 154.639 1305.56 478.832
2931 0 128.415 14.1962 1823 153.229 1302.47 477.104
2932 0 130.468 14.2487 1859 152.854 1304.66 474.954
2933 0 136.356 14.3595 1958 146.96 1301.72 472.77
2934 0 141.404 14.7167 2081 142.348 1302.44 469.74
2935 0 145.357 14.5848 2120 153.574 1303.47 467.153
2936 0 149.428 14.7563 2205 152.662 1303.09 464.878
2937 0 155.42 14.5542 2262 148.653 1303.98 462.676
2938 0 162.32 14.4714 2349 154.596 1303.93 460.497
2939 0 167.439 14.4829 2425 159.444 1303.29 457.621
2940 0 174.493 14.545 2538 152.587 1304.7 454.528
2941 0 179.323 14.6885 2634 154.194 1301.23 451.365
2942 0 186.519 14.6902 2740 155.522 1303.84 447.816
2943 0 192.477 14.6303 2816 156.886 1304.57 445.511
2944 0 198.414 14.8175 2940 155.942 1304.87 442.728
2945 0 206.38 14.7301 3040 150.559 1302.92 438.75
2946 0 213.393 14.9958 3200 154.55 1304.03 435.698
2947 1 158.417 13.3067 2108 162.006 1304.31 463.166
2948 0 164.711 13.9396 2296 157.149 1302.46 460.78
2949 0 171.574 13.8774 2381 148.827 1303.7 457.913
2950 0 179.557 14.1125 2534 154.82 1305.85 453.915
2951 0 184.476 14.0398 2590 154.99 1305.83 451.006
2952 0 192.497 14.0522 2705 147.975 1306.57 448.096
2953 0 199.615 13.9318 2781 143 1306.49 444.097
2954 0 206.44 14.0089 2892 146.307 1308.82 439.453
2955 0 215.875 14.059 3035 146.447 1305.69 436.143
2956 0 221.635 14.0366 3111 149.296 1305.4 432.221
2957 0 230.607 14.18 3270 142.966 1304.6 427.612
2958 0 239.618 14.2477 3414 145.93 1303.87 424.101
2959 1 196.646 14.0608 2765 145.509 1304.52 445.124
2960 0 202.575 13.8615 2808 143.875 1304.53 442.204
2961 0 209.043 13.868 2899 137.834 1303.5 439.013
2962 0 217.632 14.4418 3143 137.42 1309.75 434.409
2963 0 225.455 14.1093 3181 147.931 1307.4 430.655
2964 0 232.769 14.2716 3322 140.9 1308.32 425.668
2965 0 239.78 14.1797 3400 145 1305.92 422.124
2966 1 69.1334 12.0347 832 139.335 1303.98 507.018
2967 0 73.2823 12.3086 902 142.237 1305.33 508.973
2968 0 75.3248 12.612 950 136.061 1305.19 507.633
2969 0 77.3557 12.9144 999 133.528 1304.7 506.387
2970 0 81.5867 12.5878 1027 133.794 1304.78 505.121
2971 0 83.2986 12.9414 1078 140.477 1307.84 503.521
2972 0 87.1995 12.7868 1115 137.858 1306.75 502.417
2973 0 88.4476 12.9342 1144 141.302 1306.61 501.339
2974 0 92.2057 12.8625 1186 132.088 1307.92 500.37
2975 0 96.2888 13.0441 1256 132.451 1306.09 497.872
2976 0 101.397 12.8504 1303 133.745 1305.52 496.696
2977 0 105.295 12.6597 1333 126.166 1307.52 494.216
2978 0 106.442 13.1527 1400 129.073 1306.03 491.812
2979 1 59.1479 11.4797 679 127.71 1305.72 516.76
2980 0 62.2146 12.0872 752 128.46 1306.99 515.703
2981 0 64.1888 11.8401 760 126.439 1306.73 514.664
2982 0 64.2289 12.362 794 134.515 1306.1 513.645
2983 0 66.1521 12.4713 825 128.131 1306.4 512.888
2984 0 71.3652 12.0507 860 133.097 1302.51 512.017
2985 0 71.3652 12.0507 860 169.658 1299.51 512.017
2986 0 73.2758 12.296 901 129.228 1305.42 509.74
2987 0 75.2366 12.8262 965 122.958 1305.39 508.293
2988 0 77.3586 13.3146 1030 129.719 1305.94 506.926
2989 0 77.4184 13.5627 1050 129.77 1301.8 506.724
2990 0 83.6528 13.1855 1103 127.381 1302.16 504.966
2991 0 86.632 13.136 1138 136.055 1302.71 504.585
2992 0 87.6509 13.337 1169 134.766 1302.18 503.602
2993 0 90.4594 13.8736 1255 133.737 1303.22 501.516
2994 0 94.7022 13.3682 1266 124.105 1302.08 500.01
2995 0 97.3924 12.999 1266 141.094 1303.05 499.981
2996 0 101.5 13.202 1340 133.11 1302.88 497.222
2997 0 103.512 13.7183 1420 132.679 1301.15 496.266
2998 1 55.3111 11.372 629 136.466 1302.51 521.582
2999 0 58.2178 11.4913 669 137.366 1306.41 520.227
3000 0 59.3056 11.9887 711 135.25 1303.79 519.218
3001 0 60.3949 12.3189 744 130.453 1303.66 519.601
3002 0 63.4717 11.9738 760 133.593 1303.7 519.279
3003 0 65.4914 12.368 810 131.92 1301.29 518.343
3004 0 66.5238 12.9878 864 133.806 1303.24 517.403
3005 0 69.8412 12.4282 868 136.785 1303.59 516.895
3006 0 70.5327 12.6608 893 132.252 1303.32 516.071
3007 0 73.5047 12.6795 932 140.258 1302.38 515.37
3008 0 75.5042 12.8735 972 137.754 1302.82 513.74
3009 0 78.6649 13.0427 1026 134.646 1300.72 512.967
3010 0 81.6427 12.7997 1045 136.27 1301.73 511.191
3011 0 83.6418 13.1752 1102 137.495 1302.58 510.484
3012 0 86.7895 13.1468 1141 134.559 1305 508.711
3013 0 89.5259 12.9236 1157 142.419 1304.88 507.36
3014 0 94.6145 12.7253 1204 144.899 1304.27 505.669
3015 0 99.5013 13.1154 1305 141.256 1304.33 504.051
3016 1 52.3803 11.5692 606 138.345 1304.66 527.564
3017 0 53.3816 11.6332 621 140.069 1304.97 527.366
3018 0 55.209 12.0814 667 139.982 1304.35 526.348
3019 0 58.4274 11.6555 681 132.695 1304.53 525.106
3020 0 60.4495 11.9604 723 135.733 1303.63 525.055
3021 0 62.239 12.4199 773 131.189 1302.36 523.699
3022 0 62.3447 11.9016 742 136.826 1304.07 524.278
3023 0 65.3461 12.1813 796 132.822 1305.44 521.985
3024 0 65.1669 12.9207 842 136.227 1305.74 521.084
3025 0 69.3516 12.7178 882 131.905 1304.37 520.995
3026 0 71.3878 12.7753 912 139.713 1304.35 519.666
3027 0 74.3402 12.6177 938 137.211 1304.79 519.103
3028 0 75.4875 13.181 995 133.992 1303.63 517.392
3029 0 79.4279 12.6026 1001 129.9 1302.87 516.739
3030 0 81.3697 12.9655 1055 134.924 1302.91 515.094
3031 0 82.524 13.1962 1089 130.524 1302.69 513.233
3032 0 84.6407 13.1024 1109 136.798 1301.56 511.442
3033 0 86.7103 13.228 1147 121.794 1303.44 510.83
3034 0 91.5392 13.1201 1201 135.266 1304.24 509.439
3035 1 50.237 10.8486 545 131.161 1305 530.266
3036 0 52.1352 11.3743 593 131.664 1304.59 530.516
3037 0 55.2206 11.8615 655 125.432 1304.38 529.078
3038 0 55.1029 12.2861 677 129.03 1303.38 528.202
3039 0 55.1326 12.7511 703 128.75 1303.94 528.206
3040 0 58.1268 12.576 731 124.995 1303.41 527.159
3041 0 60.1084 12.6106 758 126.995 1303.56 527.078
3042 0 62.0915 12.8198 796 108.508 1303.43 525.501
3043 0 64.0836 13.0767 838 123.033 1303.89 525.056
3044 0 65.1182 12.8535 837 127.088 1302.31 524.18
3045 0 67.1863 13.0979 880 126.172 1303.89 523.683
3046 0 70.1094 13.4504 943 124.496 1305.06 522.804
3047 0 72.1685 13.0666 943 124.669 1303.34 522.261
3048 0 74.087 13.5381 1003 126.833 1302.1 521.683
3049 0 77.1172 13.2137 1019 124.549 1304.16 520.194
3050 0 79.0798 13.5812 1074 129.026 1301.69 519.655
3051 0 80.2339 13.9218 1117 120.748 1306.08 518.618
3052 0 84.189 13.4578 1133 127.695 1305.65 517.145
3053 0 85.2004 14.0023 1193 126.612 1304.81 516.79
3054 0 88.1221 14.1735 1249 132.395 1304.02 515.114
3055 0 91.1885 14.1794 1293 135.049 1303.19 513.598
3056 0 93.3607 14.2137 1327 133.015 1303.76 512.523
3057 0 96.307 14.298 1377 135.919 1305.22 510.909
3058 0 99.2726 14.4954 1439 131.541 1304 509.889
3059 0 102.303 14.0758 1440 135.172 1304.81 508.019
3060 0 105.216 14.3609 1511 132.422 1303.62 506.402
3061 1 55.1899 12.303 679 130.797 1305.12 531.895
3062 0 59.2207 12.4619 738 133.753 1303.15 530.878
3063 0 60.1784 12.6125 759 129.453 1305.28 530.659
3064 0 60.2333 12.8334 773 129.353 1304.17 529.907
3065 0 63.1483 12.8428 811 129.208 1304.27 529.772
3066 0 66.1942 13.0374 863 134.162 1304.65 528.126
3067 0 67.1556 12.7763 858 140.01 1304.89 528.297
3068 0 69.2631 12.8784 892 138.16 1302.72 527.639
3069 0 70.1353 12.9322 907 140.352 1302.02 526.879
3070 0 73.1587 12.7258 931 139.868 1304.01 526.001
3071 0 74.3216 12.863 956 140.145 1303.79 525.268
3072 0 77.1116 13.1498 1014 144.773 1304.65 523.984
3073 0 78.2526 12.9708 1015 144.362 1304.67 524.057
3074 0 82.3647 13.1974 1087 145.529 1306.05 521.735
3075 0 83.2735 13.3176 1109 145.014 1305.57 520.472
3076 0 88.1677 13.0093 1147 143.295 1304.66 518.596
3077 0 90.261 12.907 1165 145.495 1305 517.07
3078 0 93.151 12.8608 1198 146.956 1306.03 515.501
3079 0 97.1478 13.0523 1268 138.868 1305.51 514.319
3080 1 48.0272 10.2025 490 145.127 1307.26 539.714
3081 0 52.0744 10.8691 566 139.574 1305.71 539.314
3082 0 54.0334 11.3263 612 140.049 1306.99 537.572
3083 0 56.2718 11.8354 666 134.656 1306.78 536.33
3084 0 57.1193 11.6598 666 143.174 1302.95 536.3
3085 0 57.1219 11.7818 673 140.587 1306.3 535.85
3086 0 62.1656 11.8393 736 134.325 1305.88 534.393
3087 0 64.0728 11.7991 756 137.821 1303.43 533.571
3088 0 63.0477 12.1178 764 139.13 1302.38 533.881
3089 0 65.0274 12.2256 795 139.966 1302.7 533.206
3090 0 68.0466 12.08 822 140.639 1302.57 531.81
3091 0 70.0311 12.3659 866 131.054 1302.24 530.814
3092 0 71.1045 12.5309 891 140.508 1301.62 529.676
3093 0 73.039 12.5686 918 140.481 1302.26 529.537
3094 0 76.0589 12.6875 965 135.158 1305.13 528.038
3095 0 79.1311 12.8142 1014 137.888 1304.33 527.228
3096 0 82.1227 12.5909 1034 150.706 1304.57 526.004
3097 0 83.1599 13.3839 1113 148.432 1304.25 524.803
3098 0 85.1752 13.1259 1118 145.718 1303.73 522.927
3099 0 89.1445 12.7209 1134 151.065 1306.97 522.429
3100 0 93.2052 12.6388 1178 149.749 1304.18 521.02
3101 1 50.0362 11.2319 562 143.162 1305.12 541.911
3102 0 50.031 11.9326 597 145.848 1302.92 542.332
3103 0 52.022 11.8027 614 148.756 1301.97 541.721
3104 0 54.0418 11.8242 639 142.426 1303.8 540.915
3105 0 55.0805 11.9461 658 148.71 1301.09 540.401
3106 0 58.0447 11.8874 690 148.291 1301.72 539.71
3107 0 59.0162 12.5559 741 148.885 1303.48 539.962
3108 0 61.0387 12.5822 768 150.44 1301.15 539.24
3109 0 62.0821 12.6284 784 152.71 1302.09 538.631
3110 0 62.0821 12.6284 784 166.45 1303.09 538.631
3111 0 65.0776 13.1228 854 155.04 1303.39 537.13
3112 0 67.0386 12.9627 869 155.591 1300.89 536.84
3113 0 70.0815 12.9849 910 152.377 1300.92 535.37
3114 0 73.1781 12.777 935 152.782 1300.7 534.687
3115 0 76.0994 13.1144 998 156.426 1300.76 534.14
3116 0 76.1789 13.3502 1017 154.008 1300.27 533.104
3117 0 80.2128 12.8658 1032 154.162 1302.56 532.503
3118 0 82.1412 13.1968 1084 155.114 1301.85 530.671
3119 0 85.1045 13.1955 1123 153.685 1300.51 529.714
3120 0 87.086 13.0331 1135 158.657 1303.09 528.931
3121 0 91.131 12.9703 1182 147.999 1303.84 526.658
3122 1 47.0132 12.0179 565 157.586 1301.89 548.377
3123 0 50.0174 12.0958 605 152.939 1301.41 547.878
3124 0 52.0656 12.2538 638 150.199 1302.85 546.975
3125 0 53.0811 12.3396 655 153.179 1304.07 546.247
3126 0 54.0709 12.724 688 152.785 1302.68 545.596
3127 0 57.0385 12.325 703 157.422 1300.11 545.474
3128 0 59.0867 12.2701 725 154.954 1300.48 543.866
3129 0 60.1038 12.7113 764 154.052 1298.48 543.127
3130 0 60.0851 13.1314 789 162.237 1301.01 542.118
3131 0 63.1156 12.9128 815 162.461 1302.68 540.973
3132 0 65.1414 12.7876 833 161.24 1302.56 539.965
3133 0 67.1127 13.2315 888 161.288 1301.85 539.605
3134 0 69.0715 13.1313 907 163.289 1300.22 539.023
3135 0 73.1337 13.1813 964 157.081 1300.29 537.122
3136 0 74.3526 13.2342 984 163.967 1298.85 536.907
3137 0 78.1081 13.8782 1084 155.507 1300.76 534.29
3138 0 80.0503 13.4915 1080 161.111 1302.25 533.299
3139 0 82.1022 13.7633 1130 155.45 1303.19 532.144
3140 0 85.2701 13.9087 1186 165.213 1302.66 531.258
3141 0 88.1732 13.8818 1224 156.753 1302.51 529.373
3142 0 91.2946 13.681 1249 162.754 1303.8 528.259
3143 0 95.2374 13.6501 1300 164.14 1302.71 526.953
3144 0 98.2448 13.3951 1316 162.439 1302.95 525.556
3145 0 102.216 13.6867 1399 164.369 1304.51 524.413
3146 0 104.339 13.4849 1407 165.319 1303.85 522.588
3147 1 58.0589 11.5917 673 163.262 1303.87 546.802
3148 0 58.0255 12.7358 739 158.253 1301.15 545.175
3149 0 62.2206 12.1664 757 153.766 1301.26 544.727
3150 0 64.0531 12.193 781 162.63 1302.38 543.403
3151 0 64.0601 12.7068 814 156.311 1302.55 542.249
3152 0 67.0731 13.2244 887 154.211 1303.83 540.965
3153 0 68.1117 12.8466 875 153.477 1303.11 540.891
3154 0 73.1204 13.0196 952 159.408 1304.31 539.319
3155 0 74.0922 13.1728 976 162.53 1302.78 538.378
3156 0 78.1243 13.0177 1017 162.18 1302.4 537.173
3157 0 80.1429 12.7647 1023 159.385 1302.37 536.068
3158 0 81.1586 13.6769 1110 163.477 1303.04 534.56
3159 0 85.1624 13.5271 1152 162.957 1302.68 533.543
3160 0 88.1138 13.528 1192 161.582 1303.5 531.979
3161 0 90.1657 13.3643 1205 167.278 1302.64 531.007
3162 0 93.2713 13.6376 1272 162.582 1301.97 528.924
3163 1 50.1865 11.6366 584 158.512 1302.3 551.086
3164 0 53.2432 11.8513 631 158.976 1304.89 550.017
3165 0 53.1044 12.3719 657 155.756 1303.4 549.58
3166 0 54.1039 12.476 675 148.406 1305.39 549.387
3167 0 55.1311 12.7333 702 157.694 1304.55 548.09
3168 0 58.168 12.653 736 157.856 1304.96 547.508
3169 0 60.1345 12.6716 762 153.197 1306.41 546.659
3170 0 62.1243 12.813 796 156.475 1304.08 546.242
3171 0 63.1492 12.8901 814 153.814 1304.96 545.657
3172 0 66.1602 12.8023 847 154.072 1303.36 544.251
3173 0 69.0637 12.988 897 148.123 1302.81 543.542
3174 0 68.0906 13.4086 913 153.939 1304.12 542.703
3175 0 71.0592 13.1158 932 148.497 1302.94 542.261
3176 0 74.12 13.3567 990 148.235 1300.91 540.831
3177 0 76.0302 13.3631 1016 153.973 1301.31 539.891
3178 0 79.0457 13.5871 1074 150.912 1300.95 538.224
3179 0 81.1079 13.4882 1094 151.549 1301.19 537.457
3180 0 83.0581 13.7614 1143 154.37 1301.89 535.857
3181 0 86.1963 14.0725 1213 148.878 1302.97 534.412
3182 0 88.2311 13.7027 1209 155.982 1303.25 533.85
3183 0 93.2014 13.1865 1229 155.536 1302.95 532.217
3184 1 51.1955 12.4034 635 158.693 1303.55 552.543
3185 0 53.0616 12.8907 684 144.064 1302.7 551.981
3186 0 54.0866 12.7203 688 155.14 1303.39 550.767
3187 0 55.0363 12.9369 712 157.626 1302.15 550.829
3188 0 57.0551 12.9349 738 151.243 1303.26 549.405
3189 0 56.0325 13.5457 759 150.574 1303.55 549.617
3190 0 58.0885 13.3073 773 154.257 1304.37 549.591
3191 0 61.0923 13.6351 833 159.359 1303.92 548.477
3192 0 62.0359 13.4116 832 155.367 1302.29 546.944
3193 0 65.1319 13.1886 859 157.108 1303.6 547.455
3194 0 68.0987 13.5832 925 153.398 1304.83 545.597
3195 0 69.2291 13.6214 943 150.882 1305.22 544.53
3196 0 72.1378 13.4326 969 155.692 1303.82 543.227
3197 0 72.3055 13.5951 983 159.467 1303.71 542.341
3198 0 77.3402 13.3824 1035 156.368 1301.85 541.242
3199 0 79.5086 13.7469 1093 152.392 1304.27 540.081
3200 0 81.4642 14.1166 1150 157.341 1304.5 538.535
3201 0 85.2421 13.3737 1140 156.354 1304.2 536.832
3202 1 45.2856 12.5868 570 165.561 1305.71 557.151
3203 0 47.1899 12.8841 608 151.053 1304.59 556.525
3204 0 48.116 13.0726 629 158.455 1305.76 555.889
3205 0 51.0928 12.9764 663 163.44 1304.31 555.774
3206 0 49.1336 13.2699 652 168.669 1302.97 554.569
3207 0 53.1554 13.2254 703 163.606 1302.38 554.613
3208 0 55.1254 13.0793 721 162.574 1303.58 553.788
3209 0 54.1911 13.7661 746 161.209 1303.4 553
3210 0 57.1282 13.7585 786 165.748 1304.96 552.327
3211 0 59.0773 13.44 794 161.515 1304.86 551.688
3212 0 58.1266 13.8835 807 162.1 1304.44 550.875
3213 0 61.1305 14.1991 868 158.156 1305.24 549.063
3214 0 64.1513 13.7487 882 157.231 1303.55 548.96
3215 0 66.1716 13.737 909 152.216 1304.56 547.785
3216 0 69.1435 14.0288 970 155.011 1304.16 547.007
3217 0 71.214 14.0843 1003 154.824 1303.62 545.588
3218 0 74.1226 14.0308 1040 149.555 1303.16 544.782
3219 0 76.1933 14.4107 1098 149.617 1304.74 543.831
3220 0 79.2724 13.7501 1090 155.974 1304.19 542.738
3221 0 81.0872 14.1329 1146 158.315 1304.4 541.431
3222 0 85.1324 14.2367 1212 160.179 1304.88 539.962
3223 0 88.0892 14.0199 1235 155.279 1305.59 538.691
3224 1 47.0562 12.6019 593 153.314 1306.24 558.202
3225 0 51.0288 12.8751 657 158.079 1307.34 556.457
3226 0 52.0629 13.1379 684 158.542 1304.59 556.868
3227 0 54.0974 13.0505 706 150.548 1305.34 556.003
3228 0 56.0855 13.1585 738 140.432 1304.7 555.051
3229 0 57.0764 13.4206 766 147.398 1305.1 554.401
3230 0 60.0897 13.2968 799 149.188 1306.29 553.809
3231 0 59.1848 13.7197 812 152.445 1308.17 553.824
3232 0 62.0414 13.8617 860 151.243 1307.14 553.078
3233 0 66.0972 13.4348 888 147.336 1306.31 551.823
3234 0 66.1807 14.264 944 143.734 1308.6 551.653
3235 0 69.0299 13.6607 943 145.801 1308.71 550.246
3236 0 70.0575 14.1455 991 146.021 1307.9 549.083
3237 0 74.1982 13.8548 1028 146.304 1307.46 548.611
3238 0 76.14 13.7378 1046 148.411 1308.17 548.185
3239 0 77.1337 13.7942 1064 146.055 1305.89 547.806
3240 0 79.107 14.2086 1124 147.902 1307.39 546.079
3241 0 84.1628 14.0323 1181 145.768 1307.08 544.353
3242 0 87.0857 14.2733 1243 146.494 1304.01 543.168
3243 0 89.1494 14.4477 1288 141.878 1305.63 541.994
3244 0 93.1394 14.1401 1317 140.802 1307.31 540.587
3245 0 95.1707 14.2796 1359 144.214 1308.25 539.282
3246 0 98.0921 14.3539 1408 147.58 1306.07 537.341
3247 0 102.165 13.7034 1400 137.921 1305.11 536.446
3248 1 53.0884 11.9047 632 143.131 1304.85 560.565
3249 0 55.105 13.1386 724 135.844 1305.79 559.898
3250 0 57.0877 12.91 737 136.476 1305.5 559.14
3251 0 59.1146 12.721 752 137.056 1306.73 557.541
3252 0 61.0969 13.2576 810 135.033 1305.2 556.668
3253 0 63.2069 13.4637 851 134.005 1306.31 556.542
3254 0 66.121 13.2484 876 137.176 1305.61 556.22
3255 0 69.171 13.6618 945 134.643 1304.49 554.89
3256 0 71.1152 13.1617 936 133.267 1304.55 554.254
3257 0 73.2636 13.9496 1022 134.037 1305.4 552.408
3258 0 75.2255 13.5991 1023 133.233 1305.49 551.69
3259 0 78.2522 13.2648 1038 138.373 1305.92 550.866
3260 0 78.3524 13.9243 1091 135.288 1304.99 549.779
3261 0 82.2795 13.8431 1139 134.794 1306.33 548.32
3262 0 87.4223 13.8981 1215 131.364 1308.25 546.583
3263 0 89.2859 14.0224 1252 133.749 1305.69 544.44
3264 0 91.4696 14.3982 1317 129.809 1305.13 543.313
3265 0 97.4194 13.601 1325 132.895 1305.78 541.603
3266 0 98.4008 13.9226 1370 131.166 1305.32 540.365
3267 0 101.34 14.1899 1438 129.884 1303.76 538.911
3268 0 104.47 14.1955 1483 133.85 1304.06 537.433
3269 0 108.638 14.4977 1575 132.116 1303.54 535.422
3270 0 113.465 14.3745 1631 133.501 1303.18 532.889
3271 1 58.2215 12.796 745 132.576 1306.63 558.381
3272 0 61.2637 12.536 768 134.439 1305.8 557.757
3273 0 63.1169 13.4196 847 126.812 1303.47 558.728
3274 0 65.1445 13.5084 880 128.662 1304.1 558.005
3275 0 69.18 13.6166 942 128.801 1302.22 556.361
3276 0 70.1985 13.5758 953 122.635 1305.22 555.086
3277 0 72.2951 13.8184 999 130.276 1304.17 554.275
3278 0 76.0971 13.2331 1007 132.648 1305.73 553.356
3279 0 78.2388 13.5738 1062 126.077 1306.82 551.984
3280 0 82.1359 13.4411 1104 130.428 1306.93 550.895
3281 0 86.2256 13.7662 1187 126.799 1308.79 548.989
3282 0 87.3087 13.3664 1167 133.281 1305.47 547.665
3283 0 89.3136 13.7045 1224 129.165 1306.11 546.097
3284 0 94.3358 13.505 1274 122.737 1305.74 544.845
3285 0 97.3687 13.7519 1339 130.438 1306.05 543.51
3286 0 99.2484 13.5116 1341 130.338 1305.21 542.761
3287 0 103.39 13.9375 1441 124.314 1305.14 539.874
3288 0 106.394 13.4969 1436 127.804 1305.13 539.405
3289 1 59.1345 11.7867 697 130.03 1304.5 562.63
3290 0 60.3317 12.4313 750 129.401 1303.23 562.508
3291 0 61.1053 12.9285 790 128.311 1305.42 561.485
3292 0 63.1499 12.795 808 125.655 1304.03 560.803
3293 0 66.1933 12.8563 851 119.895 1307.82 559.568
3294 0 68.1765 12.8783 878 125.013 1306.68 559.711
3295 0 71.2799 13.1173 935 123.63 1304.87 558.134
3296 0 73.2523 13.1463 963 131.559 1304.05 556.611
3297 0 73.3006 13.547 993 123.974 1305.53 556.401
3298 0 74.2532 13.7637 1022 128.714 1302.22 555.843
3299 0 79.2069 13.4837 1068 127.136 1301.91 554.235
3300 0 79.2312 13.6184 1079 128.591 1303.95 553.508
3301 0 84.2208 13.5596 1142 125.918 1304.29 552.148
3302 0 87.3194 13.5365 1182 127.993 1303.33 550.473
3303 0 90.3135 13.6192 1230 121.564 1305.38 548.745
3304 0 93.2659 13.1667 1228 125.679 1303.61 547.884
3305 0 97.1768 13.4703 1309 118.78 1303.57 545.68
3306 0 101.267 13.3804 1355 121.731 1302.22 544.508
3307 0 105.271 13.2325 1393 123.551 1304.05 543.358
3308 1 54.316 11.4331 621 123.876 1304.78 567.915
3309 0 56.0545 12.363 693 116.797 1304.37 566.811
3310 0 58.0978 12.1175 704 115.982 1305.34 566.888
3311 0 59.1597 12.6945 751 114.362 1302.48 566.401
3312 0 61.2272 12.4781 764 120.041 1304.27 565.588
3313 0 62.1377 13.1965 820 111.084 1304.79 564.812
3314 0 65.1426 12.4189 809 117.66 1305.4 564.341
3315 0 68.172 12.7178 867 114.949 1305.63 563.173
3316 0 70.2843 12.7482 896 111.376 1305.71 562.077
3317 0 72.2511 12.9133 933 110.615 1305 561.375
3318 0 74.3589 12.9507 963 109.139 1303.38 560.048
3319 0 74.3798 12.7857 951 110.645 1305.59 559.449
3320 0 78.2283 13.5629 1061 102.187 1304.1 558.507
3321 0 80.2322 13.7725 1105 104.274 1303.23 556.919
3322 0 85.4426 13.7636 1176 100.252 1303.62 554.523
3323 0 85.5966 13.4935 1155 107.169 1305.77 553.758
3324 0 88.4316 13.6263 1205 100.488 1306.43 553.364
3325 0 91.7258 13.0934 1201 108.087 1302.61 551.345
3326 0 96.3424 13.5454 1305 100.965 1305.09 549.846
3327 1 50.283 11.1767 562 104.993 1306.58 574.114
3328 0 51.2111 12.5168 641 96.2168 1306.82 573.46
3329 0 54.1146 12.455 674 95.7329 1307.25 572.714
3330 0 54.1354 13.0414 706 99.4433 1304.25 571.521
3331 0 58.048 12.7308 739 98.8484 1304.82 571.325
3332 0 57.0684 12.7391 727 99.3067 1304.1 571.04
3333 0 58.1018 12.9084 750 98.0747 1303.31 570.564
3334 0 59.0885 13.8098 816 95.3701 1304.39 569.353
3335 0 63.2192 13.2238 836 94.1591 1303.91 569.321
3336 0 66.161 13.0439 863 98.1414 1305.38 568.853
3337 0 68.0989 13.3482 909 93.9802 1307.17 568.044
3338 0 66.148 13.243 876 101.023 1304.5 567.474
3339 0 72.1829 13.2441 956 94.8023 1304.28 565.77
3340 0 73.1387 13.2625 970 97.3701 1305.47 565.37
3341 0 76.1809 13.2579 1010 96.1218 1307.22 564.218
3342 0 79.2033 13.3201 1055 94.6351 1305.28 563.859
3343 0 83.1372 13.0988 1089 95.0808 1304.03 562.949
3344 0 85.2558 13.1956 1125 98.2187 1305.25 561.497
3345 0 90.3004 13.4219 1212 90.9472 1304 560.125
3346 0 93.1696 13.2876 1238 94.3207 1305.15 558.571
3347 0 97.2184 13.3102 1294 95.8161 1305.31 557.111
3348 0 100.248 13.5664 1360 94.6353 1302.9 555.988
3349 1 54.0562 11.7655 636 95.8113 1303.76 579.936
3350 0 56.1723 12.7109 714 95.6359 1303.42 578.91
3351 0 58.0945 12.7723 742 94.7426 1303.74 577.88
3352 0 59.097 12.7418 753 95.7291 1305.91 576.756
3353 0 62.102 13.0109 808 96.5248 1305.95 576.318
3354 0 63.0443 12.6895 800 95.5412 1302.87 575.446
3355 0 64.0469 13.4433 861 97.0511 1303.65 574.89
3356 0 66.0627 13.2904 878 97.2494 1303.83 575.226
3357 0 69.0786 13.5932 939 96.0234 1302.17 573.789
3358 0 71.1716 14.7812 1052 92.0038 1300.81 571.759
3359 0 72.1239 14.073 1015 95.3576 1301.33 572.074
3360 0 75.1276 14.0162 1053 95.5878 1302.98 572.409
3361 0 77.1824 14.7961 1142 92.5438 1301.45 569.834
3362 0 79.1319 14.1789 1122 99.9314 1302.45 569.883
3363 0 81.1313 13.7432 1115 97.7534 1303.27 569.622
3364 0 81.1728 14.3398 1164 102.14 1305.11 567.454
3365 0 84.2321 13.7002 1154 100.313 1304.03 567.781
3366 0 88.2365 13.8265 1220 102.607 1302.07 565.734
3367 0 93.3141 14.8531 1386 94.29 1302.16 563.237
3368 0 96.1857 13.5467 1303 100.931 1304.36 563.454
3369 0 97.3127 13.7906 1342 99.9396 1305.93 561.887
3370 1 53.1123 12.0688 641 100.576 1305.39 584.668
3371 0 55.0801 12.5635 692 98.2399 1305.7 583.642
3372 0 57.0467 12.8141 731 95.8878 1305.84 582.583
3373 0 58.0576 13.1421 763 92.8781 1306.14 581.713
3374 0 61.0203 12.4221 758 95.5119 1304.36 580.78
3375 0 61.079 13.0323 796 97.5791 1304.52 580.263
3376 0 64.1079 13.3057 853 95.7222 1304.03 580.027
3377 0 65.1358 13.848 902 93.5366 1303.43 578.263
3378 0 66.0641 13.4566 889 93.2396 1303.7 578.017
3379 0 70.0628 13.6449 956 95.7667 1303.25 576.281
3380 0 70.1257 13.6754 959 93.4776 1305.72 576.129
3381 0 73.2155 13.5081 989 96.8716 1304.49 574.679
3382 0 76.0644 13.7515 1046 92.9503 1304.33 572.791
3383 0 79.1807 13.6144 1078 97.7328 1302.17 572.122
3384 0 80.1349 14.1012 1130 94.754 1301.85 570.589
3385 0 84.1225 13.837 1164 97.0241 1303.82 569.364
3386 0 87.2933 13.93 1216 100.836 1300.76 568.688
3387 0 90.3494 13.647 1233 102.358 1301.33 566.636
3388 0 94.2162 13.6495 1286 98.0257 1300.99 564.795
3389 1 50.1312 11.7891 591 103.946 1299.62 586.469
3390 0 50.0681 12.6428 633 104.041 1302.63 586.445
3391 0 52.134 13.1392 685 100.346 1302.29 585.886
3392 0 55.1194 12.5364 691 102.971 1301.21 585.402
3393 0 55.2267 13.2364 731 102.705 1302.54 584.614
3394 0 56.2226 12.9485 728 107.01 1303.48 584.556
3395 0 59.1704 12.9119 764 103.914 1301.99 582.957
3396 0 60.1898 12.9756 781 104.447 1300.36 582.305
3397 0 63.2604 12.741 806 100.218 1300.1 581.234
3398 0 62.1507 13.4029 833 105.958 1299.92 580.327
3399 0 64.1245 13.5986 872 105.425 1302.5 579.335
3400 0 67.0996 13.5023 906 108.542 1303.8 578.669
3401 0 67.0996 13.5023 906 155.85 1304.8 578.669
3402 0 71.2345 13.6731 974 108.094 1303.04 576.149
3403 0 74.0805 13.4853 999 110.682 1304.3 575.845
3404 0 76.1184 13.4396 1023 108.303 1303.68 575.104
3405 0 77.1198 14.0561 1084 114.112 1303.81 572.998
3406 0 80.3215 13.6452 1096 113.414 1302.02 572.242
3407 0 81.3937 13.9937 1139 109.424 1302.63 570.951
3408 0 86.2508 13.9477 1203 113.716 1304.83 568.88
3409 0 87.2608 13.9925 1221 114.534 1305.04 567.097
3410 0 89.2313 14.1991 1267 112.44 1306.97 567.084
3411 0 91.2246 14.4369 1317 103.906 1305.57 565.194
3412 0 94.2058 14.3516 1352 113.312 1306.4 564.399
3413 0 98.2681 14.1246 1388 110.705 1304.07 563.524
3414 0 100.281 14.2599 1430 116.081 1307.13 561.745
3415 0 102.197 14.5602 1488 118.249 1305.14 560.718
3416 0 106.351 14.3393 1525 121.801 1304.11 559.442
3417 0 111.464 14.5249 1619 118.298 1304.01 556.929
3418 0 115.226 14.5019 1671 122.333 1303.6 555.239
3419 0 119.376 14.0564 1678 118.439 1305.29 554.361
3420 1 65.2058 13.189 860 111.227 1305.22 580.872
3421 0 66.2585 13.3568 885 112.106 1305.81 579.769
3422 0 70.2331 13.3982 941 116.293 1304.54 578.878
3423 0 71.1452 13.7606 979 118.328 1307.24 578.031
3424 0 74.261 13.6545 1014 117.835 1305.82 576.39
3425 0 77.2989 13.4672 1041 122.765 1303.37 574.716
3426 0 79.3626 13.8352 1098 120.889 1305.7 573.713
3427 0 82.4118 13.5782 1119 123.828 1302.78 572.978
3428 0 83.5066 13.9989 1169 122.614 1303.79 571.43
3429 0 87.2771 13.6233 1189 126.833 1302.02 569.285
3430 0 91.2832 13.9237 1271 123.251 1303.4 567.469
3431 0 93.3371 13.9494 1302 125.542 1302.84 566.571
3432 0 95.2359 14.1753 1350 125.791 1301.54 565.739
3433 0 101.256 13.9251 1410 127.674 1300.86 563.707
3434 0 104.495 13.8188 1444 126.834 1298.52 562.702
3435 0 105.267 14.4015 1516 124.237 1301.81 560.84
3436 0 111.415 14.0197 1562 119.49 1301.53 559.33
3437 0 114.169 13.8654 1583 124.301 1302.68 556.85
3438 0 118.32 14.089 1667 124.194 1304.6 555.384
3439 0 123.272 14.4559 1782 118.514 1303.42 552.387
3440 0 129.266 13.8165 1786 122.737 1304.25 550.131
3441 1 69.0684 12.741 880 114.495 1303.76 580.049
3442 0 71.1403 13.2695 944 116.972 1303.84 579.743
3443 0 74.2144 12.7603 947 125.738 1304.95 579.461
3444 0 76.1637 12.762 972 119.006 1305.55 577.118
3445 0 78.1455 13.2317 1034 124.273 1304.79 576.134
3446 0 81.1551 13.468 1093 124.189 1307.18 575.113
3447 0 82.2116 13.5382 1113 129.23 1306.01 573.54
3448 0 86.1554 13.6149 1173 130.534 1304.02 572.408
3449 0 88.1972 13.6172 1201 132.694 1304.59 572.247
3450 0 90.1669 13.8077 1245 131.816 1304.07 570.501
3451 0 93.1895 13.5745 1265 136.808 1301.34 569.697
3452 0 95.2648 13.9611 1330 136.329 1301.83 568.214
3453 0 98.1561 13.7332 1348 137.749 1301.95 566.484
3454 0 102.21 13.7462 1405 162.922 1303.84 565.79
3455 0 105.182 13.7571 1447 161.84 1302.41 564.151
3456 0 109.258 13.9761 1527 161.006 1302.74 561.558
3457 0 112.204 14.0726 1579 150.974 1305.1 559.503
3458 0 117.203 13.8563 1624 153.113 1304.88 557.669
3459 0 122.178 13.5785 1659 156.325 1302.79 556.726
3460 1 67.2093 12.6024 847 148.502 1302.19 583.599
3461 0 70.155 12.9 905 147.685 1304.96 583.387
3462 0 70.1253 13.319 934 147.448 1301.84 582.919
3463 0 74.1239 13.302 986 148.356 1304.65 582.064
3464 0 76.2387 13.2347 1009 146.491 1305.33 580.792
3465 0 79.0788 9.86358 780 153.213 1306.66 576.617
3466 0 81.067 9.54766 774 151.535 1308.5 575.021
3467 0 76.1173 13.3215 1014 154.84 1303.75 497.919
3468 0 80.0622 12.7276 1019 153.8 1303.44 493.832
3469 0 83.1403 13.1464 1093 155.361 1302.82 490.326
3470 0 86.1517 13.1628 1134 159.698 1305.02 486.274
3471 0 89.1882 13.1295 1171 149.687 1302.99 481.968
3472 0 90.1847 13.8715 1251 150.934 1302.69 477.494
3473 0 94.2371 13.1795 1242 152.124 1304.63 473.82
3474 0 98.182 13.8518 1360 150.876 1303.98 468.389
3475 0 100.146 13.6501 1367 155.517 1303.31 463.724
3476 0 105.256 13.8425 1457 152.905 1302.37 457.229
3477 0 108.347 13.3645 1448 150.881 1301.82 453.086
3478 0 110.222 13.4819 1486 154.417 1301.5 448.04
3479 0 59.1605 11.1899 662 156.705 1302.14 527.847
3480 0 61.0794 11.526 704 157.553 1301.31 524.747
3481 0 64.0902 11.9675 767 155.576 1302.19 522.988
3482 0 65.055 12.2819 799 157.905 1302.75 519.947
3483 0 66.0684 12.9411 855 155.295 1305.59 517.474
3484 0 68.0718 12.5015 851 150.448 1305.09 513.597
3485 0 72.2122 12.4633 900 149.516 1302.16 511.08
3486 0 75.0777 12.5204 940 153.111 1303.61 506.493
3487 0 76.1752 12.7732 973 153.917 1304.42 502.102
3488 0 78.1856 12.611 986 150.413 1303.69 498.643
3489 0 82.2221 12.9162 1062 149.538 1303.57 494.13
3490 0 84.0895 12.4035 1043 147.565 1303.94 489.856
3491 0 88.3202 12.783 1129 142.713 1303.87 484.976
3492 0 91.231 13.1973 1204 142.827 1303.85 480.389
3493 0 94.1424 12.7679 1202 143.993 1304.53 475.293
3494 0 97.2838 12.7873 1244 146.424 1305.27 469.555
3495 0 101.224 13.5542 1372 147.859 1303.83 463.324
3496 0 55.1527 11.4228 630 160.495 1303.93 536.262
3497 0 58.2406 12.5342 730 155.348 1305.98 534.437
3498 0 61.108 12.5352 766 151.037 1304.03 531.214
3499 0 62.1819 12.5599 781 153.761 1305.48 528.868
3500 0 65.1761 12.7808 833 148.713 1302.83 525.114
3501 0 67.1264 13.2139 887 152.277 1300.75 522.08
3502 0 68.2849 13.1508 898 153.052 1305.48 518.192
3503 0 70.2181 13.3014 934 153.177 1303.2 514.978
3504 0 72.2505 13.121 948 161.67 1304.81 512.123
3505 0 77.2024 13.3027 1027 151.168 1303.85 509.255
3506 0 80.19 13.069 1048 156.527 1305.76 505.524
3507 0 82.1596 13.3277 1095 156.71 1305.3 501.002
3508 0 80.2111 14.1377 1134 157.33 1303.73 497.113
3509 0 85.1553 14.1271 1203 154.751 1303.55 493.413
3510 0 91.2115 13.7592 1255 158.249 1303.27 489.94
3511 0 94.2187 13.6385 1285 157.219 1302.44 485.146
3512 0 96.1662 14.5685 1401 155.132 1303.07 480.029
3513 0 99.2757 13.8705 1377 163.512 1302.81 475.809
3514 0 102.388 14.0739 1441 156.224 1303.77 471.496
3515 0 107.29 14.2045 1524 160.866 1303.66 466.273
3516 0 109.305 14.3909 1573 161.174 1305.47 461.909
3517 0 113.328 14.383 1630 160.318 1303.85 457.244
3518 0 117.277 14.2653 1673 158.93 1303.95 450.856
3519 0 122.434 14.1219 1729 155.485 1302.48 444.88
3520 0 125.268 14.5129 1818 155.174 1303.77 438.298
3521 0 128.235 14.9414 1916 156.314 1303.42 431.336
3522 1 70.1548 12.9571 909 166.865 1304.27 455.859
3523 0 71.0981 10.8442 771 148.804 1304.21 518.75
3524 0 74.0575 11.2615 834 150.588 1304.3 516.173
3525 0 76.119 12.0207 915 148.939 1304.88 513.906
3526 0 78.1054 12.1374 948 142.78 1305.42 510.998
3527 0 81.1233 11.9694 971 132.871 1304.74 507.39
3528 0 84.1264 12.4931 1051 144.022 1303.33 503.242
3529 0 87.1869 12.261 1069 137.5 1304.13 499.41
3530 0 88.2949 12.7527 1126 146.573 1304.91 495.356
3531 0 93.1387 12.9162 1203 143.894 1304.07 490.676
3532 0 95.1122 12.8795 1225 146.831 1302.98 485.157
3533 0 100.172 12.8879 1291 139.387 1304.44 480.152
3534 0 103.174 12.445 1284 143.418 1304.02 477.098
3535 0 106.261 12.5822 1337 146.376 1303.15 471.859
3536 0 110.08 13.1268 1445 143.539 1305.55 466.438
3537 1 60.0655 11.7538 706 142.929 1304.85 489.061
3538 0 55.1214 10.3045 568 139.211 1306.25 540.755
3539 0 60.1392 12.4544 749 138.676 1304.46 479.766
3540 0 59.09 11.0848 655 141.93 1303.73 535.238
3541 0 62.0332 11.6228 721 147.094 1304.68 533.229
3542 0 64.1149 12.0721 774 143.891 1305.05 530.01
3543 0 65.1083 12.5022 814 135.805 1306.4 527.072
3544 0 69.0747 12.6964 877 138.426 1306.36 523.117
3545 0 69.142 12.684 877 140.748 1304.58 520.143
3546 0 71.1667 13.1944 939 144.988 1305.17 517.399
3547 0 74.0779 12.7703 946 142.453 1302.43 514.449
3548 0 77.1195 12.9799 1001 142.843 1304.49 509.623
3549 0 79.1494 13.3798 1059 142.741 1304.41 507.112
3550 0 80.2125 13.3146 1068 144.386 1305.12 504.283
3551 0 83.0971 13.2135 1098 140.169 1304.11 499.763
3552 0 86.1279 13.7934 1188 146.178 1304.57 495.933
3553 0 88.1093 13.4833 1188 146.889 1304.51 491.587
3554 0 91.1376 13.6716 1246 145.446 1303.84 486.447
3555 0 93.1512 13.8807 1293 147.441 1303.94 481.897
3556 0 98.271 14.5109 1426 135.825 1305.21 476.194
3557 0 99.2215 13.9083 1380 142.623 1304.6 472.467
3558 0 55.2778 11.2523 622 143.796 1306.4 544.867
3559 0 56.1451 12.6636 711 142.986 1306.77 543.47
3560 0 60.1015 12.0796 726 144.712 1305.04 540.412
3561 0 59.0856 12.9812 767 147.687 1306.57 537.346
3562 0 64.0807 12.4374 797 138.809 1306.98 535.376
3563 0 66.1014 12.4506 823 142.8 1308.7 532.1
3564 0 67.0552 13.377 897 144.365 1304.79 529.53
3565 0 70.0564 12.0903 847 157.779 1307.42 526.895
3566 0 73.143 12.9746 949 149.944 1306.19 523.803
3567 0 75.067 12.5355 941 156.119 1305.46 520.489
3568 0 76.078 12.8289 976 146.894 1305 516.537
3569 0 81.1481 12.6066 1023 149.087 1305.22 513.826
3570 0 83.1237 13.0649 1086 154.257 1304.18 510.532
3571 0 86.2105 12.9683 1118 153.748 1303.22 507.217
3572 0 89.1225 12.8587 1146 154.821 1304.69 503.411
3573 0 92.1149 13.2986 1225 156.859 1304.2 497.31
3574 0 95.1375 12.8551 1223 159.236 1303.76 493.807
3575 0 98.1759 13.1397 1290 156.351 1308.02 490.75
3576 0 49.117 11.4828 564 164.926 1306.51 559.963
3577 0 50.0985 12.2958 616 159.412 1305.5 557.432
3578 0 53.1085 11.9755 636 156.514 1304.94 554.923
3579 0 56.0388 12.4021 695 149.695 1305.2 553.456
3580 0 57.0779 12.2815 701 159.531 1304.28 550.454
3581 0 58.0507 12.8681 747 146.115 1304.38 547.42
3582 0 60.0692 13.6343 819 153.814 1304.87 543.6
3583 0 63.0718 12.9059 814 156.838 1306.59 541.042
3584 0 63.0731 12.7154 802 156.352 1304.68 538.768
3585 0 65.2265 12.9549 845 161.162 1305.61 536.215
3586 0 70.1058 13.2086 926 155.133 1305.44 532.069
3587 0 70.2449 12.613 886 155.428 1304.3 529.663
3588 0 72.0862 13.5948 980 157.865 1304.89 526.21
3589 0 76.1184 13.2294 1007 162.118 1304.67 521.259
3590 0 78.137 13.4891 1054 159.159 1303.6 518.051
3591 0 82.1943 13.2978 1093 163.823 1302.65 514.654
3592 0 84.2083 13.3716 1126 165.185 1303.23 509.85
3593 0 89.138 12.8004 1141 163.322 1302.85 506.019
3594 0 91.3187 13.4803 1231 162.859 1302.12 501.69
3595 0 93.0765 13.2901 1237 163.308 1303.58 496.84
3596 0 96.1148 13.5879 1306 155.124 1304.71 491.971
3597 0 51.1073 11.3878 582 156.873 1303.08 561.117
3598 0 53.1614 11.1735 594 146.535 1303.88 559.507
3599 0 56.0935 12.4792 700 148.946 1303.37 556.116
3600 0 57.083 12.3154 703 148.017 1303.11 553.286
3601 0 60.055 12.039 723 144.079 1306.17 551.898
3602 0 62.1354 12.3762 769 145.412 1304.9 549.182
3603 0 62.1545 12.3563 768 140.326 1304.92 545.837
3604 0 66.147 12.7897 846 146.913 1304.3 544.162
