index division length width area intensity CMx CMy
0 0 71.0812 15.7426 1119 157.383 926.471 373.626
1 0 73.1215 16.1649 1182 160.387 927.701 372.256
2 0 76.0544 16.3304 1242 151.085 927.145 371.779
3 0 78.1042 16.1195 1259 151.419 928.127 370.255
4 0 81.2298 16.1886 1315 157.393 929.933 370.402
5 0 84.1418 16.1751 1361 151.68 927.914 369.377
6 0 87.1989 16.9154 1475 147.231 928.174 369.485
7 0 90.2137 16.4387 1483 153.755 926.964 369.467
8 0 93.1574 16.1233 1502 159.127 925.417 369.334
9 0 95.1879 16.189 1541 155.005 925.719 368.361
10 0 98.0727 16.2125 1590 155.935 925.061 368.471
11 0 102.086 15.9376 1627 153.934 923.554 367.683
12 0 104.153 16.0821 1675 155.001 924.294 366.724
13 1 55.0471 13.225 728 167.172 923.291 394.554
14 0 56.0801 13.659 766 158.358 922.709 395.175
15 0 58.0555 13.7455 798 157.019 922.877 394.259
16 0 58.09 14.2193 826 163.529 922.706 394.065
17 0 62.0152 14.0127 869 162.31 924.397 392.616
18 0 64.017 14.09 902 164.198 925.245 392.2
19 0 66.0944 14.1616 936 159.448 923.705 391.309
20 0 67.11 14.7221 988 162.788 923.083 390.846
21 0 70.0921 14.3097 1003 167.052 920.885 390.176
22 0 73.0709 14.438 1055 162.285 922.591 388.702
23 0 76.0492 14.609 1111 159.71 921.739 387.203
24 0 78.1396 14.5125 1134 163.368 919.778 385.652
25 0 80.0948 14.7325 1180 156.193 921.799 384.66
26 0 85.1105 14.8748 1266 155.67 921.254 383.081
27 0 86.0769 14.6148 1258 160.256 920.747 381.918
28 0 88.1538 14.8604 1310 160.677 922.995 380.495
29 0 91.1021 14.9832 1365 158.932 922.02 377.967
30 0 94.0712 14.8505 1397 152.474 924.457 374.87
31 0 99.0526 14.8103 1467 161.409 925.887 372.363
32 0 101.1 14.9159 1508 155.875 925.658 369.712
33 0 105.167 15.0427 1582 151.805 925.399 367.037
34 0 107.286 15.0626 1616 153.287 927.166 365.026
35 0 110.14 15.3896 1695 149.859 929.311 362.352
36 0 114.226 15.4606 1766 156.349 927.496 358.784
37 0 120.335 15.1826 1827 148.421 928.031 356.211
38 0 123.264 15.5763 1920 147.471 928.209 353.627
39 0 130.28 15.3055 1994 149.948 929.082 350.833
40 0 135.234 15.2255 2059 152.085 926.209 348.179
41 0 140.279 15.2624 2141 151.675 928.057 345.399
42 0 146.316 15.0223 2198 148.111 928.755 342.944
43 1 75.0457 13.2986 998 151.853 929.516 378.579
44 0 78.2679 13.901 1088 153.807 929.14 377.321
45 0 80.1714 13.6582 1095 151.75 928.776 375.984
46 0 83.2202 13.9029 1157 150.949 930.877 375.062
47 0 86.2143 13.9536 1203 147.149 931.112 373.744
48 0 89.086 14.1212 1258 148.837 930.47 372.731
49 0 90.1442 14.4213 1300 147.759 927.476 372.184
50 0 94.0452 14.174 1333 141.755 930.209 371.016
51 0 97.1409 14.1856 1378 153.844 929.708 370.316
52 0 101.171 14.174 1434 152.622 928.355 369.729
53 0 104.162 14.2759 1487 146.395 930.919 367.767
54 0 109.137 13.9183 1519 152.783 929.122 367.151
55 0 112.171 14.2194 1595 153.201 929.898 364.434
56 0 117.168 13.9031 1629 144.856 929.875 363.045
57 1 61.1195 13.1055 801 154.985 927.873 390.184
58 0 66.1091 12.5701 831 147.97 927.013 389.081
59 0 68.2842 13.1656 899 154.614 926.836 387.923
60 0 69.1653 12.9978 899 148.69 926.98 386.875
61 0 73.1481 12.9053 944 152.474 927.804 385.654
62 0 75.1171 13.3392 1002 146.035 926.708 384.208
63 0 78.2123 13.1821 1031 148.953 927.273 382.878
64 0 80.1961 13.2799 1065 151.664 927.998 381.342
65 0 84.071 13.2031 1110 149.23 927.468 379.167
66 0 87.1591 13.527 1179 144.929 927.712 377.401
67 0 90.2105 13.5461 1222 137.034 927.175 375.655
68 0 92.1764 13.2572 1222 145.27 928.014 373.763
69 0 97.2582 13.4796 1311 147.835 929.632 371.358
70 0 101.122 13.0635 1321 145.34 927.282 369.276
71 1 57.1607 12.1062 692 138.858 928.594 390.142
72 0 60.0792 12.2172 734 145.864 927.087 388.578
73 0 60.1831 12.8109 771 141.261 928.291 386.861
74 0 63.1056 12.693 801 140.151 930.117 385.898
75 0 66.1071 12.6613 837 141.389 928.345 384.087
76 0 67.1986 12.6193 848 143.162 926.396 382.823
77 0 69.2709 12.6893 879 144.813 928.893 380.975
78 0 73.2611 12.8172 939 138.159 927.361 378.894
79 0 74.1651 12.8767 955 145.957 929.509 377.655
80 0 75.3789 13.2265 997 143.554 930.556 376.431
81 0 80.2914 12.8905 1035 143.756 929.833 374.874
82 0 82.3337 13.1295 1081 143.899 930.181 373.651
83 0 86.3329 12.5329 1082 144.69 929.941 371.806
84 0 89.3991 13.0538 1167 142.183 929.511 369.841
85 1 45.181 10.5354 476 149.296 930.09 389.666
86 0 47.3481 11.3415 537 145.352 930.11 388.404
87 0 49.3059 11.4591 565 139.786 928.411 387.373
88 0 49.2496 12.8123 631 135.146 931.296 388.957
89 0 52.4271 12.3982 650 140.457 930.349 390.32
90 0 55.1732 12.1073 668 138.214 930.181 390.452
91 0 54.1264 12.674 686 134.437 927.662 389.276
92 0 57.2794 12.4477 713 139.022 929.474 388.513
93 0 58.0772 12.5178 727 139.188 928.298 388.224
94 0 59.0731 12.967 766 142.095 927.174 387.136
95 0 62.1791 12.8178 797 140.277 930.187 386.678
96 0 64.2896 12.6459 813 136.545 930.064 385.155
97 0 64.2407 13.3093 855 133.349 929.531 383.8
98 0 67.4339 13.0795 882 134.585 928.735 383.348
99 0 69.1185 12.833 887 141.091 929.528 382.567
100 0 70.1697 13.1111 920 141.233 927.442 382.22
101 0 73.1399 13.399 980 143.961 929.471 381.561
102 0 74.2074 13.2871 986 142.556 927.034 381.257
103 0 77.2556 13.3712 1033 145.797 929.016 379.967
104 0 80.0799 13.5365 1084 147.709 929.438 379.212
105 0 83.1484 13.4098 1115 146.91 927.987 377.637
106 0 84.1318 13.8711 1167 140.626 929.257 376.667
107 0 88.1092 14.0054 1234 149.626 928.589 375.28
108 0 90.105 13.9615 1258 150.037 928.165 373.687
109 0 93.0965 14.0284 1306 155.619 930.235 371.619
110 0 95.1236 14.3603 1366 151.444 931.714 370.288
111 0 99.1542 14.2505 1413 154.017 928.023 368.149
112 0 102.148 14.4496 1476 152.299 928.743 366.652
113 0 105.151 14.3127 1505 155.189 927.984 364.816
114 0 108.065 14.3062 1546 149.056 928.592 363.671
115 0 113.148 13.9552 1579 149.744 928.447 360.673
116 0 117.118 13.9347 1632 143.927 927.547 358.634
117 0 120.101 14.5295 1745 156.573 929.547 356.422
118 1 65.0605 12.9572 843 155.713 932.365 383.489
119 0 65.0605 12.9572 843 173.654 934.365 383.489
120 0 68.1294 13.1808 898 146.944 931.925 381.804
121 0 72.1569 12.5837 908 152.563 931.879 380.796
122 0 73.2139 13.1806 965 154.84 929.915 379.718
123 0 76.1177 13.2427 1008 144.014 929.381 377.904
124 0 78.1962 13.5684 1061 150.15 929.836 376.564
125 0 83.1361 13.3757 1112 149.876 932.121 374.539
126 0 85.2883 13.4837 1150 151.834 930.17 373.457
127 0 88.1626 13.339 1176 150.229 929.99 371.676
128 0 92.207 13.4372 1239 148.766 929.88 369.274
129 0 96.259 13.8377 1332 148.729 928.612 367.001
130 0 98.1796 13.9438 1369 149.503 929.711 365.551
131 1 52.079 12.1738 634 144.67 932.344 388.768
132 0 52.1772 12.1701 635 141.663 929.283 388.674
133 0 53.0916 12.808 680 146.299 930.731 387.76
134 0 55.1704 12.3255 680 145.756 931.662 386.241
135 0 56.0836 12.945 726 147.734 931.937 386.627
136 0 58.0582 12.9181 750 148.771 930.807 385.777
137 0 59.1118 12.9754 767 147.563 928.776 384.967
138 0 62.0874 12.7079 789 142.629 929.304 383.907
139 0 63.1031 13.0738 825 143.766 929.956 382.247
140 0 66.1541 13.0453 863 140.176 930.786 381.766
141 0 68.1127 13.2721 904 143.697 930.511 380.723
142 0 69.1358 13.3505 923 148.103 931.364 379.719
143 0 74.201 13.3421 990 145.377 930.839 378.814
144 0 75.1626 13.2247 994 145.919 928.826 377.716
145 1 95.2975 13.1588 1254 153.872 929.916 366.931
146 1 48.098 12.0795 581 150.578 929.766 389.9
147 0 50.1603 12.5797 631 159.946 931.306 389.984
148 0 51.1214 12.4997 639 161.419 930.878 389.473
149 0 53.1719 12.7323 677 159.297 930.708 389.149
150 0 55.1501 12.8014 706 159.792 929.186 387.874
151 0 56.1608 12.945 727 164.659 928.736 387.437
152 0 58.0934 12.9275 751 157.224 927.425 386.891
153 0 60.1108 13.1091 788 158.94 928.595 385.258
154 0 61.1098 13.0094 795 161.18 927.59 384.236
155 0 63.2402 13.1404 831 156.314 925.862 383.161
156 0 65.12 13.1757 858 158.148 929.597 382.17
157 0 69.1158 12.8191 886 157.27 929.663 380.923
158 0 72.0995 12.6908 915 162.232 927.556 379.795
159 0 73.2059 13.3049 974 156.939 930.494 377.807
160 0 75.1233 13.3114 1000 152.927 929.256 377.043
161 0 78.0874 13.0879 1022 150.827 927.785 375.805
162 0 82.0753 12.8053 1051 152.003 928.971 375.464
163 0 84.1315 13.158 1107 155.905 928.473 374.392
164 0 84.0812 13.1896 1109 153.884 930.252 373.38
165 1 46.04 11.0339 508 151.923 931.787 393.272
166 0 47.0325 11.4176 537 154.507 929.255 392.741
167 0 49.0494 11.784 578 154.016 928.4 392.211
168 0 51.1718 12.2333 626 154.342 927.762 391.513
169 0 53.1926 11.9942 638 153.732 929.013 389.65
170 0 54.1934 12.2709 665 150.623 930.395 389.543
171 0 54.1275 12.4151 672 155.699 929.101 388.838
172 0 55.1795 12.7584 704 151.77 929.801 388.449
173 0 58.1426 12.7789 743 156.37 929.985 387.271
174 0 58.1973 13.3855 779 153.859 927.47 386.623
175 0 60.0662 13.1022 787 157.095 927.818 385.4
176 0 61.1778 13.4526 823 150.469 928.921 384.17
177 0 65.0682 12.8327 835 157.471 929.135 383.532
178 0 65.0878 13.5048 879 155.849 930.154 382.507
179 0 68.0564 13.5623 923 160.431 928.02 381.295
180 0 70.187 13.521 949 158.171 929.648 380.727
181 0 73.0894 13.2714 970 157.126 929.555 379.64
182 0 75.1144 13.3663 1004 161.012 929.678 378.84
183 0 76.0763 14.0517 1069 166.504 929.174 377.485
184 0 80.0468 13.5546 1085 161.146 930.465 375.834
185 0 81.0532 13.9661 1132 159.298 929.462 374.784
186 0 86.2715 13.4459 1160 166.221 932.142 374.069
187 0 88.1031 14.1085 1243 163.484 932.141 373.177
188 0 89.1765 14.0284 1251 157.258 929.779 371.689
189 0 92.0739 14.206 1308 163.098 931.376 370.079
190 0 96.0815 14.0193 1347 170.901 929.027 369.109
191 0 98.1096 14.1169 1385 164.518 929.975 366.417
192 0 103.198 14.167 1462 158.017 928.198 365.583
193 0 105.227 14.1788 1492 162.747 928.15 364.357
194 0 109.245 14.2798 1560 162.482 930.029 362.037
195 0 112.192 13.78 1546 163.37 925.875 360.869
196 1 57.1357 12.0765 690 165.194 930.252 389.135
197 0 59.2291 11.9536 708 164.76 930.767 387.89
198 0 58.1334 12.6433 735 162.83 928.656 387.141
199 0 62.1689 12.273 763 155.524 930.367 386.104
200 0 63.2509 12.2528 775 151.24 932.631 385.391
201 0 66.1693 12.5587 831 164.449 929.972 384.335
202 0 68.1392 12.5625 856 160.759 931.23 383.783
203 0 69.1662 13.2001 913 160.913 930.286 381.932
204 0 70.1731 13.2672 931 161.303 930.314 381.14
205 0 73.113 12.9799 949 156.901 930.585 380.178
206 0 76.1422 12.9757 988 161.102 929.347 379.184
207 0 78.0727 13.0904 1022 157.806 930.828 378.191
208 0 78.1871 13.4037 1048 156.907 930.801 376.543
209 0 83.1849 12.7427 1060 155.017 931.218 375.428
210 0 86.1347 13.0493 1124 158.855 930.932 373.655
211 0 86.1997 13.1091 1130 155.851 929.396 372.604
212 0 92.1825 12.6814 1169 155.494 931.408 369.498
213 0 93.1208 13.0368 1214 156.232 932.502 367.629
214 1 53.0396 11.3123 600 151.823 933.495 388.578
215 0 55.0937 11.7436 647 149.278 932.793 387.178
216 0 55.1442 12.0049 662 148.202 930.873 386.369
217 0 58.2567 11.6725 680 149.024 930.207 384.794
218 0 58.1553 12.3119 716 149.275 932.14 383.575
219 0 60.1442 12.0876 727 143.908 930.378 382.56
220 0 63.1653 11.8894 751 144.144 930.754 381.413
221 0 65.2657 12.0431 786 140.117 932.003 380.191
222 0 67.181 11.9379 802 138.125 932.465 379.11
223 0 68.1788 12.4966 852 145.143 932.937 377.386
224 0 70.1802 12.6959 891 131.706 931.251 376.524
225 0 73.1205 12.7324 931 144.764 930.955 375.869
226 0 76.3596 12.8864 984 150.49 931.559 375.022
227 0 77.3384 13.4345 1039 152.135 929.958 373.021
228 0 80.2221 13.3006 1067 156.46 929.342 372.652
229 0 81.186 13.2781 1078 160.024 932.362 371.992
230 0 86.1475 13.3376 1149 161.694 932.313 370.811
231 0 88.2289 13.3856 1181 164.739 933.323 368.771
232 0 91.43 13.3545 1221 156.791 930.975 368.013
233 0 94.4001 13.3792 1263 163.335 930.899 365.994
234 0 97.3264 13.5832 1322 159.174 933.916 364.691
235 1 54.2356 12.0216 652 163.472 932.029 386.33
236 0 57.2034 11.9923 686 161.727 931.395 385.44
237 0 59.1953 12.3827 733 162.543 931.939 384.394
238 0 59.2148 12.5813 745 159.142 931.306 383.538
239 0 63.0926 12.5054 789 155.939 931.873 382.541
240 0 65.1704 12.5517 818 164.441 930.908 381.396
241 0 65.1812 13.0712 852 162.757 932.974 379.82
242 0 68.207 12.5354 855 159.961 932.414 378.906
243 0 71.1451 12.7767 909 157.127 933.01 377.04
244 0 73.1383 13.0438 954 158.914 932.474 375.691
245 0 75.2276 12.8942 970 159.711 932.454 374.446
246 0 79.1378 12.8763 1019 165.114 929.197 373.147
247 0 81.2402 13.3924 1088 164.03 930.964 371.791
248 0 84.283 13.1818 1111 169.181 930.86 370.059
249 0 87.3725 13.5054 1180 162.044 932.251 368.208
250 0 90.2895 13.357 1206 163.974 935.047 367.028
251 0 94.344 12.9632 1223 156.592 932.993 365.499
252 0 98.521 12.982 1279 164.24 931.329 364.418
253 1 51.2597 11.1979 574 161.507 930.969 387.702
254 0 52.2377 11.9645 625 160.782 929.011 386.562
255 0 53.1691 12.1499 646 162.037 931.054 385.675
256 0 54.2502 12.6082 684 157.719 930.839 384.899
257 0 56.1714 12.4084 697 163.726 930.654 383.776
258 0 58.1595 12.5689 731 154.918 929.932 383.43
259 0 59.1529 12.6452 748 164.666 933.773 382.727
260 0 60.1478 12.9514 779 167.171 931.253 382.024
261 0 61.2495 12.8001 784 167.376 932.602 381.088
262 0 64.1853 12.8222 823 153.425 930.288 380.281
263 0 65.2515 12.8273 837 157.544 931.29 379.053
264 0 66.1289 13.4283 888 158.069 930.314 378.214
265 0 67.2331 13.1929 887 161.744 928.103 377.738
266 0 69.3281 13.227 917 158.69 930.655 376.382
267 0 71.3499 13.2726 947 159.622 929.824 374.884
268 0 72.2601 13.4376 971 141.237 930.816 374.337
269 0 75.1835 13.6466 1026 156.005 930.147 373.927
270 0 77.2513 13.4237 1037 157.245 929.932 373.057
271 0 80.1402 13.8507 1110 157.606 929.97 371.377
272 0 81.418 13.4368 1094 152.689 930.872 369.776
273 0 83.0883 14.0333 1166 153.181 930.927 368.04
274 0 86.2546 13.9819 1206 139.356 929.848 367.837
275 0 89.2452 13.659 1219 155.229 930.642 366.447
276 0 93.2593 13.8324 1290 156.119 929.184 364.86
277 0 96.2681 13.8987 1338 152.781 931.022 363.062
278 0 98.1949 13.8806 1363 156.056 929.465 362.337
279 0 102.302 14.0369 1436 156.141 930.705 360.412
280 0 104.116 14.359 1495 158.037 929.247 359.075
281 0 107.197 14.2449 1527 157.553 930.951 357.741
282 0 109.337 14.5056 1586 158.259 930.396 356.614
283 0 113.119 14.4185 1631 158.177 931.054 355.588
284 0 115.224 14.3287 1651 160.763 932.452 354.258
285 0 120.125 14.41 1731 151.936 929.741 352.37
286 0 124.215 14.4024 1789 158.181 930.856 351.187
287 0 128.187 14.705 1885 154.007 930.699 348.734
288 0 131.226 14.6617 1924 145.486 930.697 347.543
289 0 137.174 14.8571 2038 154.824 928.843 345.27
290 0 140.422 14.6843 2062 153.145 928.873 342.449
291 0 146.155 15.0662 2202 155.167 930.834 340.57
292 0 150.262 15.0936 2268 152.258 930.929 339.009
293 0 156.211 15.0566 2352 149.392 930.631 335.59
294 0 159.191 15.0448 2395 147.163 932.195 334.239
295 0 164.27 15.1214 2484 153.441 932.452 331.462
296 0 173.361 15.5168 2690 153.937 931.159 326.997
297 0 177.196 16.8288 2982 152.894 930.759 323.579
298 0 182.256 16.9048 3081 151.788 929.585 321.418
299 0 189.281 17.0962 3236 150.395 930.349 318.096
300 0 195.357 16.8922 3300 146.96 930.162 314.866
301 0 201.221 16.6434 3349 146.863 931.633 311.726
302 0 207.37 16.579 3438 146.135 929.807 308.617
303 0 217.432 16.7041 3632 143.871 930.134 304.689
304 0 224.307 16.7672 3761 148.805 931.156 300.586
305 0 232.427 16.7752 3899 143.934 929.786 297.223
306 1 179.172 14.3884 2578 156.804 932.055 326.563
307 0 185.267 14.8542 2752 137.339 931.612 322.676
308 0 191.265 14.5662 2786 149.653 934.083 320.467
309 0 199.26 14.6743 2924 151.408 934.325 317.1
310 0 206.265 16.7988 3465 142.969 931.921 308.61
311 0 216.338 16.6175 3595 138.489 933.367 304.025
312 0 223.298 16.7534 3741 135.067 932.077 299.272
313 0 231.39 17.1096 3959 130.58 932.407 294.766
314 0 240.472 16.9001 4064 134.7 930.453 289.103
315 0 250.603 16.7476 4197 135.649 931.899 283.928
316 0 261.35 16.8089 4393 132.097 930.772 278.425
317 1 204.374 14.0625 2874 139.614 931.652 312.266
318 0 211.293 14.2693 3015 148.844 933.636 308.112
319 0 216.178 14.5482 3145 145.103 933.693 304.647
320 0 223.234 16.4088 3663 130.058 928.734 297.785
321 0 231.534 16.4641 3812 126.557 933.285 293.795
322 0 239.397 16.6126 3977 135.859 933.151 289.187
323 0 246.472 16.3021 4018 125.98 931.945 285.399
324 0 254.427 16.7081 4251 127.37 933.935 280.884
325 0 265.47 16.3823 4349 137.401 927.534 274.212
326 1 79.1003 11.6182 919 130.24 932.224 373.712
327 0 79.2666 11.3415 899 127.021 932.534 374.004
328 0 79.1702 10.9132 864 131.562 930.418 374.395
329 0 82.2657 11.6574 959 133.867 932.301 372.717
330 0 83.1957 12.0319 1001 137.615 930.023 371.959
331 0 87.2907 11.9028 1039 136.223 930.04 369.031
332 0 88.2389 12.4435 1098 127.803 930.781 367.511
333 0 93.2801 12.2749 1145 141.034 931.174 365.897
334 0 96.2685 12.3613 1190 132.75 931.463 363.57
335 0 100.322 14.6328 1468 125.213 933.14 359.475
336 0 102.256 14.7767 1511 128.032 932.261 357.191
337 0 105.339 14.6764 1546 123.744 931.655 355.188
338 0 108.227 14.9501 1618 125.923 932.482 352.875
339 0 112.373 14.7633 1659 124.667 932.534 350.546
340 0 116.431 14.8413 1728 122.98 932.597 349.17
341 0 119.321 14.968 1786 118.729 931.803 347.265
342 0 121.386 14.9441 1814 118.126 932.587 345.689
343 0 125.35 15.3809 1928 121.899 931.534 344.43
344 0 128.21 15.1705 1945 122.63 929.823 341.304
345 0 133.24 15.2656 2034 124.325 933.221 338.829
346 0 138.375 14.8293 2052 120.339 934.168 335.509
347 0 142.425 15.2501 2172 125.159 931.139 333.006
348 1 82.1692 12.024 988 129.754 932.601 367.428
349 0 83.2613 12.2506 1020 135.577 931.871 364.66
350 0 85.1401 12.7085 1082 124.433 933.114 363.733
351 0 86.2482 12.7307 1098 129.599 932.026 365.588
352 0 90.1907 12.8616 1160 129.7 931.11 365.265
353 0 91.3213 12.5601 1147 137.997 933.323 364.628
354 0 96.1638 12.6243 1214 135.619 931.467 362.194
355 0 95.1915 12.9633 1234 137.71 931.13 361.378
356 0 100.112 12.6158 1263 138.257 930.939 359.209
357 0 103.196 13.1886 1361 137.982 932.196 357.024
358 0 106.254 13.0631 1388 142.348 932.689 353.593
359 0 109.324 13.117 1434 146.288 934.213 350.202
360 0 112.301 13.0543 1466 149.008 932.177 347.422
361 0 115.251 13.1192 1512 144.263 934.802 345.821
362 0 120.434 13.0943 1577 159.162 933.612 343.107
363 0 123.294 12.7256 1569 152.774 933.558 340.305
364 0 127.175 13.108 1667 157.866 933.921 340.611
365 0 131.389 13.8748 1823 146.133 933.305 336.364
366 0 134.381 13.1194 1763 157.02 933.438 334.357
367 0 141.216 13.1289 1854 151.682 932.224 331.955
368 1 81.1759 11.4197 927 155.411 933.864 360.529
369 0 85.157 11.6608 993 148.975 932.377 359.261
370 0 88.0889 12.7712 1125 140.935 932.163 358.56
371 0 90.1715 13.7516 1240 142.746 931.934 362.322
372 0 91.3868 12.5073 1143 146.418 932.487 363.206
373 0 96.2043 12.1824 1172 154.006 933.241 362.924
374 0 98.2232 12.7363 1251 145.993 934.425 360.269
375 0 102.242 12.5877 1287 150.119 932.007 359.031
376 0 105.169 12.4371 1308 151.044 932.917 357.296
377 0 110.178 12.7884 1409 150.939 932.903 354.71
378 0 112.215 12.779 1434 142.276 932.891 351.655
379 0 114.132 12.9938 1483 148.529 933.39 351.5
380 0 120.289 12.7028 1528 150.291 933.563 348.088
381 0 123.348 12.9066 1592 148.555 932.339 345.587
382 0 128.26 13.1374 1685 143.431 933.177 343.617
383 0 131.361 12.675 1665 152.553 932.272 341.95
384 1 71.3388 11.0599 789 134.285 934.003 372.853
385 0 74.2243 11.5326 856 148.398 932.429 373.106
386 0 73.2838 11.9126 873 138.755 932.926 372.703
387 0 77.194 11.8403 914 141.679 933.822 371.259
388 0 79.2194 12.2192 968 139.971 933.768 369.012
389 0 81.1895 11.8488 962 139.095 934.091 368.167
390 0 84.193 12.1744 1025 142.698 933.624 366.146
391 0 87.3742 12.4522 1088 135.381 932.974 362.967
392 0 87.278 12.6034 1100 140.736 932.075 361.304
393 0 91.239 12.2864 1121 139.813 933.002 361.015
394 0 95.2818 12.5313 1194 136.53 934.643 360.858
395 0 97.2627 12.7181 1237 135.099 934.357 357.19
396 0 101.437 12.8159 1300 130.696 934.095 353.34
397 0 105.369 13.9985 1475 128.081 934.532 348.961
398 0 107.412 12.6522 1359 133.623 932.118 348.4
399 0 110.449 12.8566 1420 132.947 931.851 346.534
400 0 116.404 13.1525 1531 130.745 931.909 343.265
401 0 118.462 12.8986 1528 129.853 933.632 341.663
402 0 123.594 12.9537 1601 136.016 931.146 340.086
403 0 125.645 12.7343 1600 133.891 933.621 337.09
404 0 130.605 13.269 1733 133.274 932.947 335.516
405 1 67.3124 11.5283 776 129.668 932.521 366.149
406 0 70.3555 11.9962 844 129.365 932.805 364.977
407 0 69.1932 12.4579 862 129.017 932.724 364.26
408 0 74.2218 12.2201 907 128.515 932.964 371.596
409 0 75.1831 12.6491 951 122.632 934.436 369.625
410 0 77.2417 12.4026 958 120.077 932.502 366.986
411 0 81.3202 12.4077 1009 124.304 933.026 363.703
412 0 82.5143 12.5433 1035 119.851 935.434 363.32
413 0 84.2501 12.7359 1073 122.009 935.227 361.165
414 0 87.3532 12.6384 1104 117.304 933.823 360.88
415 0 90.4698 12.413 1123 120.294 933.419 355.421
416 0 92.4259 12.6372 1168 113.364 931.739 353.309
417 0 94.4871 12.8483 1214 120.044 935.998 353.063
418 0 95.4412 12.8142 1223 119.866 933.615 353.073
419 0 97.384 12.9179 1258 117.762 933.795 352.504
420 0 101.38 12.6849 1286 121.247 933.036 350.439
421 0 104.381 12.9143 1348 122.61 934.05 351.225
422 0 107.482 13.1744 1416 120.071 933.232 348.409
423 0 110.573 12.9507 1432 122.485 934.128 347.358
424 0 115.366 13.4962 1557 120.54 933.154 344.337
425 0 118.43 12.6995 1504 119.981 935.485 344.286
426 0 121.569 12.8569 1563 119.523 933.335 342.43
427 0 124.422 13.422 1670 121.734 932.79 339.989
428 0 127.408 13.6098 1734 113.749 934.379 338.434
429 0 132.452 13.2953 1761 118.546 933.668 336.03
430 0 139.301 12.7853 1781 120.831 933.691 333.916
431 0 144.407 13.0257 1881 120.537 933.785 330.743
432 1 76.4099 11.1897 855 117.614 933.488 365.965
433 0 77.2663 11.5574 893 117.179 933.837 365.206
434 0 80.3483 12.0973 972 123.361 932.91 363.626
435 0 82.5251 12.0569 995 119.751 931.951 362.09
436 0 86.3949 12.547 1084 121.702 933.027 360.992
437 0 88.4489 12.3122 1089 126.129 934.212 359.704
438 0 90.2337 12.9442 1168 123.938 933.216 357.7
439 0 94.3009 12.4495 1174 127.767 934.495 356.981
440 0 97.5859 12.1124 1182 128.497 934.645 355.258
441 0 100.38 12.5423 1259 126.753 933.234 351.662
442 0 103.416 12.2902 1271 127.359 934.255 350.124
443 0 107.364 12.4344 1335 124.376 935.383 348.545
444 0 109.303 12.4425 1360 122.624 934.969 345.896
445 0 112.386 12.9464 1455 123.836 933.776 344.102
446 0 116.453 12.9322 1506 122.226 932.851 341.355
447 0 120.422 12.8132 1543 123.544 932.897 340.426
448 0 123.554 12.6018 1557 120.936 934.039 339.096
449 0 126.527 13.0644 1653 126.065 932.489 334.672
450 0 131.546 13.0144 1712 118.223 933.421 333.676
451 0 137.486 14.1906 1951 112.993 932.823 329.853
452 0 138.477 13.309 1843 124.803 934.686 329.526
453 0 144.442 15.5564 2247 111.257 931.963 323.504
454 0 149.365 15.3784 2297 112.383 931.789 322.974
455 0 155.392 15.5156 2411 112.479 932.485 321.576
456 0 158.443 15.646 2479 112.66 932.612 317.367
457 0 163.642 15.6561 2562 116.858 932.246 317.208
458 0 170.454 15.2768 2604 117.182 932.577 317.94
459 0 174.49 15.7259 2744 118.307 932.505 317.132
460 0 181.411 15.2913 2774 115.303 931.095 313.327
461 0 187.551 15.4411 2896 117.174 929.775 311.302
462 1 112.216 12.467 1399 125.606 932.217 352.824
463 0 115.181 12.5629 1447 123.196 930.778 350.682
464 0 119.267 13.1722 1571 120.838 931.341 349.365
465 0 123.206 13.3029 1639 128.84 934.331 346.663
466 0 127.194 12.9644 1649 127.214 930.716 345.666
467 0 129.094 13.2772 1714 124.036 931.809 343.615
468 0 133.236 13.1346 1750 129.457 932.331 340.687
469 0 139.235 14.0482 1956 127.25 931.499 335.006
470 0 141.183 13.139 1855 128.327 932.818 333.005
471 0 145.214 15.3704 2232 116.386 933.335 324.946
472 0 150.441 15.0425 2263 117.271 932.872 323.114
473 0 155.242 15.434 2396 119.669 934.077 320.21
474 0 161.274 15.0551 2428 118.692 931.795 318.723
475 1 93.1292 12.0048 1118 126.772 932.276 352.982
476 0 95.1791 12.7969 1218 127.217 931.192 353.639
477 0 98.0897 12.6007 1236 120.495 933.635 349.815
478 0 102.166 12.9691 1325 137.533 932.785 356.303
479 0 104.264 13.1685 1373 129.663 932.595 355.342
480 0 108.173 12.8036 1385 131.665 932.368 354.016
481 0 110.24 13.0897 1443 134.898 933.735 351.506
482 0 115.152 12.8439 1479 135.133 934.011 350.427
483 0 117.275 13.1401 1541 132.073 934.201 348.28
484 0 121.404 13.3357 1619 133.345 932.171 346.072
485 0 125.224 13.2722 1662 133.731 933.33 345.032
486 0 127.165 13.3448 1697 136.209 934.677 338.814
487 0 132.295 14.5206 1921 130.05 933.466 333.45
488 0 136.178 13.4897 1837 130.005 931.5 331.76
489 0 143.186 14.9247 2137 134.285 932.482 330.73
490 0 145.281 15.1982 2208 131.844 932.559 330.488
491 0 148.288 13.8649 2056 135.038 935.554 331.534
492 0 152.177 13.918 2118 138.91 933.085 330.191
493 0 160.172 14.2909 2289 134.171 932.225 325.162
494 0 159.137 15.5526 2475 130.769 933.261 321.287
495 1 92.071 11.5889 1067 132.082 934.587 361.274
496 0 95.1544 12.5796 1197 127.698 932.041 358.726
497 0 96.1936 12.9323 1244 133.178 935.602 357.686
498 0 100.143 12.8417 1286 131.093 936.702 355.904
499 0 105.209 12.537 1319 129.359 934.241 353.416
500 0 108.16 12.8051 1385 130.893 934.871 352.658
501 0 110.247 13.3246 1469 137.579 937.585 350.286
502 0 115.268 12.9525 1493 140.689 934.707 348.424
503 0 116.328 13.247 1541 135.545 934.779 346.556
504 0 120.319 13.165 1584 131.906 934.635 345.263
505 0 123.317 13.1937 1627 138.532 935.979 343.524
506 0 128.273 13.0893 1679 138.715 933.184 341.218
507 0 131.259 13.401 1759 140.108 933.406 338.929
508 1 76.0433 11.4672 872 139.745 933.649 366.771
509 0 77.1717 12.2713 947 145.656 931.657 362.191
510 0 81.215 12.6947 1031 136.805 933.636 365.123
511 0 81.1378 13.0026 1055 141.196 936.013 365.144
512 0 85.1027 13.0548 1111 142.933 933.792 364.314
513 0 88.2381 13.2482 1169 138.295 933.678 362.523
514 0 89.1881 13.1632 1174 144.222 934.016 361.681
515 0 92.259 13.1694 1215 146.164 934.733 360.269
516 0 95.2609 13.3318 1270 136.368 934.131 359.072
517 0 98.1647 13.1106 1287 140.023 935.842 357.375
518 0 100.13 13.2427 1326 136.276 933.686 355.924
519 0 104.24 13.3441 1391 132.981 935.875 353.829
520 0 107.316 13.5861 1458 144.051 931.297 352.269
521 0 112.378 13.2589 1490 139.039 933.135 351.118
522 0 114.208 13.9045 1588 143.255 931.49 349.278
523 0 116.278 13.3043 1547 137.635 932.905 348.646
524 0 120.291 13.459 1619 138.778 933.027 346.497
525 0 123.312 13.4131 1654 135.204 932.563 345.033
526 0 127.308 13.5341 1723 134.759 933.28 343.36
527 0 130.239 13.5751 1768 138.766 931.769 340.472
528 0 134.318 13.6319 1831 136.15 933.333 339.313
529 1 74.0877 11.4999 852 139.038 933.736 370.123
530 0 77.1217 12.3571 953 138.762 933.838 369.277
531 0 80.2339 12.6131 1012 137.289 932.611 368.145
532 0 81.141 12.62 1024 144.617 933.473 367.434
533 0 83.2055 12.6194 1050 144.926 933.162 366.434
534 0 85.2227 13.1186 1118 146.817 929.377 364.504
535 0 87.1336 13.4506 1172 142.643 929.754 363.32
536 0 91.2077 13.2006 1204 141.64 931.591 362.268
537 0 93.1377 13.4102 1249 146.753 930.669 361.084
538 0 96.1335 13.7101 1318 141.397 931.246 360.46
539 0 100.168 13.2777 1330 147.047 929.557 358.197
540 0 100.326 13.5657 1361 144.669 932.16 356.298
541 0 106.274 13.3617 1420 139.282 928.959 355.072
542 0 108.27 13.4941 1461 142.349 931.209 353.502
543 0 111.256 13.6532 1519 147.151 930.943 351.987
544 0 113.395 13.6426 1547 146.407 930.207 350.535
545 0 116.335 13.6244 1585 143.798 931.83 348.639
546 0 119.309 13.7375 1639 147.282 930.857 347.595
547 0 121.215 14.0742 1706 148.335 931.215 346.331
548 0 126.384 13.736 1736 151.344 929.642 344.092
549 0 131.335 13.5531 1780 150.647 929.865 342.072
550 1 68.1173 12.0087 818 147.699 927.763 375.016
551 0 70.2401 12.6139 886 148.391 928.801 373.666
552 0 70.2159 13.4585 945 144.657 927.674 372.272
553 0 72.245 12.8175 926 145.711 930.301 371.138
554 0 76.1145 13.1118 998 137.568 931.416 368.731
555 0 78.3142 13.0117 1019 141.375 929.292 368.42
556 0 82.321 13.2773 1093 141.18 928.731 366.973
557 0 83.1878 13.2952 1106 144.357 931.498 365.731
558 0 86.1732 13.3916 1154 143.705 931.998 364.406
559 0 88.2495 13.5298 1194 139.322 930.186 363.522
560 0 90.2943 13.9544 1260 138.387 930.471 362.385
561 0 95.3701 13.7989 1316 137.824 930.381 360.611
562 0 96.249 14.0365 1351 140.835 930.736 359.678
563 0 100.206 14.1509 1418 137.521 932.463 358.587
564 0 104.309 14.0927 1470 130.868 929.678 356.099
565 0 108.21 14.2779 1545 134.633 930.28 354.167
566 0 110.517 13.9165 1538 135.93 929.04 352.62
567 0 116.343 14.0361 1633 140.4 927.817 351.139
568 0 119.465 14.1465 1690 135.293 928.293 348.903
569 1 63.1632 13.4255 848 134.709 927.923 375.509
570 0 64.3289 13.9906 900 132.187 928.216 374.397
571 0 66.2524 13.841 917 140.599 929.586 373.386
572 0 69.3269 13.8042 957 134.941 928.814 372.405
573 0 73.3978 13.9514 1024 44.0977 928.217 371.013
574 0 74.4827 13.8421 1031 137.969 929.047 370.513
575 0 77.3162 14.1368 1093 138.252 931.349 368.191
576 0 78.1872 14.1839 1109 142.362 930.125 367.58
577 0 80.1847 14.4417 1158 145.349 928.547 366.096
578 0 82.3265 14.4546 1190 147.549 930.361 365.128
579 0 86.3878 14.678 1268 140.937 927.899 364.047
580 0 89.2878 14.6381 1307 143.463 930.35 361.823
581 0 92.2713 14.5332 1341 142.314 929.113 360.764
582 0 94.4847 14.9548 1413 136.015 928.648 359.427
583 0 97.273 14.742 1434 141.979 929.229 358.157
584 0 99.3155 14.9524 1485 145.635 928.729 356.119
585 0 104.453 14.686 1534 144.689 931.169 354.868
586 0 106.553 14.9222 1590 149.991 932.602 352.938
587 1 56.1121 13.3305 748 154.965 933.012 376.68
588 0 57.2779 13.9146 797 150.72 933.365 373.739
589 0 60.3758 14.1447 854 147.603 930.8 373.292
590 0 62.1576 13.5945 845 156.996 929.026 372.183
591 0 64.1512 13.7955 885 142.345 928.591 371.554
592 0 67.5328 13.9488 942 155.803 931.18 370.524
593 0 68.2424 14.2873 975 155.433 933.139 370.123
594 0 72.223 14.0537 1015 148.612 931.969 369.521
595 0 75.5419 13.8069 1043 154.008 932.264 368.855
596 0 76.1666 14.0482 1070 161.441 933.742 368.25
597 0 78.2608 14.2345 1114 159.095 932.703 367.147
598 0 82.2796 14.1226 1162 161.208 932.201 365.818
599 0 84.327 14.4201 1216 158.391 933.569 364.714
600 0 86.2319 14.4958 1250 160.345 932.051 363.647
601 0 91.331 13.9383 1273 164.354 933.812 362.394
602 0 94.583 14.2838 1351 169.299 932.22 360.262
603 0 95.3601 14.2512 1359 165.076 931.632 359.639
604 1 49.0899 13.4447 660 170.488 932.773 381.858
605 0 51.1539 13.7624 704 166.473 930.821 380.771
606 0 52.1622 14.0907 735 164.804 930.554 380.399
607 0 52.186 14.3908 751 173.258 930.796 379.824
608 0 54.295 14.237 773 173.555 929.647 379.524
609 0 54.2125 14.683 796 171.376 930.619 379.063
610 0 59.2448 14.1953 841 172.351 932.191 378.304
611 0 59.2501 14.6498 868 172.569 931.442 376.791
612 0 60.2417 14.7074 886 169.04 931.411 376.503
613 0 64.2756 14.609 939 169.662 929.805 375.506
614 0 66.1641 14.4338 955 163.105 931.623 375.158
615 0 68.3789 14.5805 997 165.714 934.51 373.978
616 0 68.2655 15.0442 1027 178.076 932.723 372.938
617 0 73.2003 14.6857 1075 163.08 932.09 371.455
618 0 74.277 14.9441 1110 172.271 930.464 370.277
619 0 77.3469 14.7129 1138 167.373 929.185 369.642
620 0 78.172 15.2612 1193 165.691 927.842 367.915
621 0 83.2007 14.5912 1214 166.778 931.794 367.286
622 0 86.2457 14.9341 1288 167.825 931.527 365.45
623 0 89.3573 15.0519 1345 159.084 930.92 364.035
624 0 93.3591 14.9209 1393 160.6 932.106 361.974
625 0 95.3302 14.7382 1405 174.291 929.586 360.973
626 1 47.0367 14.2442 670 172.434 929.578 382.952
627 0 49.1283 14.2688 701 176.892 930.302 382.051
628 0 51.0898 14.8953 761 173.558 931.967 380.549
629 0 54.1742 14.3611 778 168.284 934.042 380.048
630 0 55.0685 14.9269 822 172.659 934.05 379.794
631 0 57.1159 14.8295 847 164.681 933.026 378.835
632 0 61.1018 14.5822 891 161.297 931.374 377.897
633 0 60.2134 15.2292 917 175.42 932.052 377.354
634 0 65.1582 14.6259 953 167.627 931.977 375.8
635 0 66.2627 14.9858 993 167.537 930.453 375.076
636 0 67.1407 15.0281 1009 176.025 932.372 374.094
637 0 70.2542 15.0169 1055 177.695 931.106 372.876
638 0 74.3464 14.9839 1114 168.631 930.343 371.815
639 0 76.4198 14.7868 1130 168.043 930.811 370.895
640 0 79.266 15.0632 1194 172.781 931.005 369.043
641 0 82.2024 14.8414 1220 174.553 929.91 367.941
642 0 85.2676 15.3165 1306 171.377 934.39 366.172
643 0 86.4981 15.1333 1309 162.339 931.689 364.463
644 0 90.165 15.028 1355 166.946 931.84 363.826
645 0 93.4103 15.2125 1421 171.361 931.338 362.005
646 0 98.5455 14.8561 1464 159.514 933.098 360.545
647 0 102.274 14.9793 1532 168.557 932.888 359.113
648 0 106.258 14.8224 1575 170.187 931.186 357.365
649 0 108.445 15.1136 1639 164.55 930.696 355.198
650 0 113.229 14.9078 1688 171.755 932.972 354.583
651 1 59.0492 14.344 847 176.135 931.766 380.038
652 0 60.1726 14.4252 868 175.63 931.606 379.377
653 0 63.2085 14.381 909 172.868 932.167 378.653
654 0 65.1798 14.4984 945 169.014 932.392 377.434
655 0 66.2275 14.4049 954 177.895 932.606 377.162
656 0 68.1844 14.6954 1002 173.659 931.49 375.799
657 0 72.1615 14.3983 1039 171.72 933.555 374.905
658 0 74.1864 14.6792 1089 170.108 933.675 374.209
659 0 78.2001 14.4757 1132 174.235 930.37 373.011
660 0 80.2249 14.5092 1164 175.729 930.421 371.681
661 0 82.2039 14.5492 1196 168.281 930.288 370.028
662 0 86.2682 14.281 1232 171.098 931.466 369.396
663 0 89.3207 14.4983 1295 170.812 932.568 367.799
664 1 45.3314 13.2138 599 175.162 930.548 388.462
665 0 47.1618 13.1462 620 172.092 930.75 387.769
666 0 49.1491 13.1437 646 175.249 932.167 387.224
667 0 49.0516 13.2717 651 172.55 932.667 386.636
668 0 52.075 13.1349 684 162.352 931.325 385.323
669 0 54.1719 13.4202 727 169.409 931.37 384.856
670 0 55.2373 13.614 752 172.334 932.358 384.027
671 0 58.1696 13.581 790 168.992 930.266 382.595
672 0 59.1584 13.6244 806 172.648 929.883 382.47
673 0 60.3762 13.9459 842 171.088 930.841 382.198
674 0 60.3762 13.9459 842 182.84 931.841 382.198
675 0 66.2739 13.7158 909 171.006 933.464 379.263
676 0 68.2269 13.9534 952 171.037 932.832 377.913
677 0 72.185 13.6178 983 166.397 931.983 377.037
678 0 73.3255 14.1697 1039 173.324 930.772 375.943
679 0 77.2431 13.6582 1055 167.986 929.104 373.87
680 0 80.3579 13.7261 1103 166.343 929.935 372.787
681 0 83.2459 13.5622 1129 158.572 931.507 370.793
682 0 85.3176 13.901 1186 160.957 930.078 369.191
683 1 45.1676 12.7082 574 164.869 931.73 389.002
684 0 47.1332 12.6874 598 164.441 932.724 387.507
685 0 50.1916 12.771 641 169.724 932.735 387.062
686 0 51.4743 12.9968 669 161.679 933.187 386.212
687 0 51.2629 13.421 688 170.778 930.273 386.201
688 0 54.4019 13.051 710 163.045 931.711 384.696
689 0 56.4296 13.2377 747 164.557 934.029 383.771
690 0 58.3136 13.4102 782 165.771 935.349 383.309
691 0 58.2393 13.6849 797 167.478 934.183 382.622
692 0 60.329 13.8076 833 162.384 932.412 381.1
693 0 61.2997 14.111 865 155.916 930.273 380.353
694 0 65.374 13.7822 901 168.77 930.881 378.888
695 0 66.3395 14.0037 929 171.489 931.489 378.002
696 0 70.2633 13.5917 955 173.263 931.646 377.324
697 0 71.4276 14.1122 1008 170.246 931.304 375.804
698 0 74.3683 14.1324 1051 168.389 932.899 374.31
699 0 77.3702 13.9847 1082 169.403 932.095 373.044
700 0 79.2788 14.0517 1114 169.872 933.356 371.893
701 0 82.2872 13.8539 1140 168.823 934.279 370.436
702 0 85.2166 13.8471 1180 167.837 932.334 369.648
703 0 88.5168 14.0651 1245 147.661 931.507 367.284
704 0 90.2339 14.1521 1277 164.703 933.808 365.76
705 0 95.3257 13.8578 1321 161.703 933.422 363.744
706 1 47.1527 13.2336 624 164.234 933.873 385.144
707 0 50.5188 13.6187 688 157.483 930.673 384.129
708 0 51.3254 13.7164 704 160.082 932.403 383.554
709 0 53.2149 13.6804 728 159.574 930.214 382.926
710 0 55.3583 13.7107 759 156.138 930.995 382.175
711 0 55.1867 14.0614 776 154.863 930.517 381.308
712 0 59.3174 13.7734 817 156.22 929.922 380.405
713 0 60.2298 13.6145 820 159.874 931.811 379.911
714 0 61.3066 14.2236 872 154.403 931.948 378.539
715 0 62.278 14.4192 898 154.829 933.586 377.683
716 0 65.1878 14.6807 957 143.153 932.55 377.018
717 0 68.293 14.306 977 163.595 930.997 376.17
718 0 69.3934 14.9582 1038 162.489 932.156 375.174
719 0 74.4909 14.3642 1070 157.324 931.8 373.684
720 0 75.4395 14.4487 1090 156.33 932.411 372.355
721 0 78.2722 14.8073 1159 161.86 930.462 370.776
722 0 81.2787 14.9609 1216 165.735 930.774 369.683
723 0 84.3731 14.9337 1260 159.29 930.879 367.793
724 0 87.2447 15.3133 1336 168.14 930.267 366.302
725 0 91.2764 14.8998 1360 163.632 930.522 365.66
726 0 94.36 14.9322 1409 168.3 930.039 363.603
727 0 96.2493 15.1482 1458 158.067 930.172 361.906
728 0 102.421 14.9286 1529 160.515 932.436 360.335
729 1 54.2444 13.4392 729 172.942 932.835 382.867
730 0 56.2402 13.6913 770 167.321 933.314 382.1
731 0 57.4049 13.7619 790 170.077 932.095 381.854
732 0 59.2511 13.89 823 168.537 932.666 380.925
733 0 61.2016 13.6924 838 168.375 931.863 380.52
734 0 62.1512 14.0786 875 177.786 930.814 379.206
735 0 63.2837 14.6167 925 175.456 930.648 378.208
736 0 67.3019 14.2195 957 171.93 931.067 377.558
737 0 70.4289 14.4117 1015 173.167 928.674 376.294
738 0 70.2551 14.5897 1025 169.077 932.731 375.763
739 0 73.2051 14.5072 1062 168.467 933.669 374.723
740 0 75.3567 14.5973 1100 175.426 930.767 373.481
741 0 79.1801 14.5112 1149 166.068 932.202 371.753
742 0 81.1854 14.7071 1194 168.065 931.987 370.527
743 0 85.2351 14.8765 1268 173.232 931.8 369.8
744 0 88.3867 14.8099 1309 171.937 932.387 368.192
745 0 92.1321 14.7614 1360 170.16 932.862 366.323
746 0 94.2406 15.0572 1419 173.638 931.557 365.247
747 0 98.2607 14.8686 1461 160.852 933.428 363.348
748 0 102.223 14.7911 1512 165.608 932.868 362.103
749 0 106.148 14.9603 1588 160.535 932.436 360.425
750 1 58.1891 13.1468 765 159.016 933.451 383.62
751 0 61.1273 13.251 810 162.453 929.881 382.886
752 0 62.2078 13.7443 855 170.237 931.884 382.256
753 0 65.2044 13.496 880 163.682 930.934 380.439
754 0 68.1393 13.5164 921 163.228 931.957 380.43
755 0 69.2886 13.4943 935 13.9797 931.852 379.528
756 0 72.1781 13.2034 953 169.749 930.435 379.299
757 0 74.1449 13.8782 1029 161.837 931.142 378.273
758 0 77.1873 13.7069 1058 160.237 932.396 377.716
759 0 80.0951 13.9459 1117 160.371 931.531 376.515
760 0 82.2499 13.8845 1142 170.376 930.928 376.264
761 0 86.194 13.6088 1173 165.171 931.816 375.328
762 0 88.1512 13.9987 1234 166.403 931.626 374.056
763 0 92.147 13.7932 1271 169.334 928.88 373.356
764 0 96.1192 14.1179 1357 163.486 932.539 371.807
765 0 99.1374 13.6376 1352 160.742 932.773 371.099
766 0 99.2131 14.1514 1404 166.197 933.699 370.122
767 0 104.265 14.1371 1474 164.053 930.077 368.696
768 0 108.429 13.8247 1499 162.959 931.717 368.64
769 0 110.285 14.2177 1568 158.164 930.092 367.002
770 0 114.276 14.4913 1656 161.957 932.643 366.673
771 0 116.192 14.7342 1712 164.277 932.261 365.782
772 0 121.415 14.504 1761 162.864 933.097 365.078
773 0 124.292 14.5866 1813 157.082 933.269 364.809
774 0 128.165 15.0041 1923 157.108 935.771 363.233
775 0 133.33 14.9629 1995 163.154 931.29 362.42
776 0 138.446 14.7639 2044 163.971 930.949 361.774
777 0 141.332 14.9152 2108 171.046 931.376 360.87
778 0 149.179 14.8748 2219 164.189 930.947 360.17
779 1 82.155 12.3547 1015 156.998 930.456 397.986
780 0 86.1771 12.7992 1103 156.91 931.836 400.361
781 0 90.1051 12.8628 1159 152.206 928.928 403.729
782 0 93.2284 11.9277 1112 160.316 931.782 405.397
783 1 50.0801 10.8027 541 143.841 929.878 429.882
784 0 51.063 11.4369 584 145.447 930.44 432.505
785 0 53.0648 11.6273 617 143.462 933.817 433.606
786 0 58.135 13.1418 764 136.233 932.556 438.203
787 0 59.1607 12.6097 746 135.838 933.225 439.883
788 0 57.2368 12.7366 729 136.451 933.693 439.428
789 0 59.1435 12.681 750 137.087 932.287 441.032
790 0 61.1895 12.4041 759 141.465 930.931 442.573
791 0 62.2217 12.1662 757 146.958 930.564 443.588
792 0 64.2608 12.0914 777 142.987 930.256 445.265
793 0 66.2133 12.1275 803 148.441 931.66 447.31
794 0 68.4368 12.0111 822 140.361 930.693 449.479
795 0 68.1505 12.4724 850 142.751 931.609 450.625
796 0 73.5917 12.0938 890 139.145 931.96 452.685
797 0 77.1914 12.1516 938 145.644 934.765 454.756
798 0 77.3649 12.008 929 147.144 931.452 456.677
799 0 81.4277 12.2071 994 143.521 934.139 459.016
800 1 44.2237 9.20322 407 139.172 935.061 480.808
801 0 45.1063 10.6194 479 144.067 934.067 484.132
802 0 48.1086 10.9959 529 140.486 931.888 485.737
803 0 49.1424 11.5379 567 134.425 933.152 489.451
804 0 49.2231 11.458 564 142.931 933.098 490.491
805 0 49.3416 11.7548 580 141.402 930.097 489.931
806 0 51.3001 10.9941 564 142.007 930.28 490.823
807 0 52.2357 11.429 597 143.526 928.992 489.521
808 0 53.1824 11.3947 606 137.404 930.604 488.805
809 0 54.2125 11.2151 608 147.243 930.936 489.02
810 0 55.2166 11.4096 630 146.262 931.233 488.894
811 0 56.2615 11.0733 623 149.457 932.862 489.074
812 0 56.1468 11.6124 652 149.086 931.282 488.949
813 0 55.2988 11.6639 645 141.473 930.704 488.163
814 0 58.3046 11.4056 665 148.738 932.797 488.044
815 0 58.275 11.6173 677 146.761 934.62 487.148
816 0 62.2343 11.3764 708 141.843 933.905 486.438
817 0 63.2057 11.4388 723 148.223 934.936 485.367
818 0 65.3203 11.8034 771 140.61 932.224 483.73
819 0 67.2906 12.0522 811 149.38 932.068 482.745
820 0 71.2746 12.1221 864 145.752 933.103 480.664
821 0 72.2594 12.1507 878 149.104 932.008 479.978
822 0 76.1431 11.5703 881 151.88 934.009 479.548
823 0 78.3583 11.575 907 153.12 932.916 479.04
824 0 85.2864 12.159 1037 153.436 932.194 474.831
825 1 44.1742 10.5491 466 143.294 932.678 494.32
826 0 44.0862 10.9785 484 148.184 933.3 493.362
827 0 46.0536 11.1392 513 143.641 930.002 489.756
828 0 49.0723 11.7582 577 144.158 931.088 488.889
829 0 48.0811 12.3957 596 147.872 931.287 489.035
830 0 51.023 11.779 601 145.195 935.078 488.772
831 0 50.0544 12.4265 622 145.17 935.799 488.831
832 0 54.0577 11.2287 607 149.025 936.272 488.208
833 0 52.1099 12.2434 638 151.243 935.895 487.881
834 0 53.0766 11.945 634 147.833 933.426 487.871
835 0 54.1915 11.7915 639 153.465 933.806 487.473
836 1 112.339 14.1447 1589 156.462 933.24 458.724
837 0 113.476 14.47 1642 162.023 933.476 458.208
838 0 117.397 14.3104 1680 161.318 932.139 456.727
839 0 122.352 14.1886 1736 155.994 933.898 454.393
840 0 128.367 14.3729 1845 160.393 932.578 451.262
841 0 133.63 14.2707 1907 159.337 933.225 448.053
842 0 136.674 14.3407 1960 157.467 933.514 445.315
843 0 141.452 14.132 1999 156.655 933.566 442.755
844 0 145.492 14.3445 2087 161.083 935.874 441.05
845 0 148.406 14.9253 2215 159.316 932.75 438.502
846 0 153.749 14.5562 2238 161.71 932.343 437.482
847 0 155.758 14.7922 2304 164.283 931.407 437.128
848 0 163.576 15.1795 2483 162.046 930.88 432.633
849 0 168.9 14.9733 2529 163.802 930.771 430.129
850 0 175.826 14.7475 2593 161.041 932.478 427.2
851 1 45.3142 11.8947 539 150.206 932.327 490.314
852 0 47.2301 12.4285 587 152.865 934.775 489.143
853 0 48.1878 12.7211 613 153.863 932.897 488.744
854 0 48.2625 12.6599 611 151.175 933.899 488.278
855 0 50.1164 12.3712 620 149.129 934.237 487.294
856 0 51.1701 12.4487 637 148.069 934.06 487.755
857 0 52.1163 12.4529 649 152.621 933.696 487.336
858 0 52.148 12.3878 646 156.831 935.268 487.723
859 1 111.575 16.1774 1805 146.272 934.492 455.873
860 0 111.296 15.2027 1692 143.728 934.93 456.796
861 0 114.534 14.4673 1657 156.588 932.351 457.639
862 0 117.605 14.4297 1697 158.794 932.123 456.957
863 0 119.813 14.8481 1779 151.987 932.571 455.491
864 0 123.753 14.9734 1853 155.084 932.567 453.709
865 1 62.1505 13.4029 833 151.908 930.982 481.764
866 0 67.2512 13.2191 889 159.62 932.442 479.721
867 0 68.2094 13.4146 915 151.644 932.961 478.475
868 0 70.1549 13.3704 938 160.309 930.855 477.733
869 0 72.0877 13.22 953 161.587 936.209 477.569
870 1 116.359 13.5099 1572 149.718 934.726 457.601
871 0 115.499 13.4113 1549 164.107 933.372 457.801
872 0 121.462 13.6256 1655 149.847 933.982 454.566
873 1 46.0798 13.0209 600 162.25 931.688 489.152
874 0 47.0465 13.4335 632 160.59 932.503 487.902
875 0 48.042 13.4674 647 158.1 932.25 488.003
876 0 52.1349 14.098 735 153.427 933.948 485.803
877 0 50.2869 13.7809 693 162.263 931.522 485.192
878 0 54.3127 13.3486 725 159.709 932.138 484.156
879 0 55.2107 13.2945 734 164.574 931.851 483.894
880 1 108.404 16.3646 1774 146.247 932.485 457.64
881 0 109.189 16.1279 1761 149.17 930.797 457.065
882 0 110.321 14.902 1644 157.654 932.523 458.175
883 0 113.322 14.7279 1669 154.857 931.599 457.253
884 0 116.272 14.9563 1739 154.344 932.683 455.809
885 0 119.185 14.7166 1754 153.694 931.809 454.448
886 0 125.336 14.6805 1840 153.714 934.645 451.828
887 0 131.295 14.3113 1879 154.561 934.734 448.841
888 0 136.212 14.4334 1966 156.43 932.593 445.131
889 0 141.252 14.4493 2041 148.947 934.298 443.635
890 0 144.656 14.6347 2117 142.062 933.968 443.286
891 0 146.199 15.0959 2207 151.019 932.216 441.339
892 0 151.239 15.0953 2283 152.8 929.691 438.915
893 0 159.351 14.6155 2329 155.987 931.584 436.67
894 1 103.222 17.0894 1764 123.019 929.918 458.57
895 0 104.438 17.5032 1828 123.975 931.713 457.646
896 0 106.123 17.1406 1819 132.821 931.831 456.837
897 0 107.339 16.9928 1824 134.777 931.957 455.897
898 0 108.177 17.2218 1863 135.232 933.594 455.267
899 0 111.19 16.4314 1827 142.119 932.539 455.144
900 0 111.156 15.3659 1708 156.406 934.403 456.482
901 0 111.312 14.7154 1638 155.404 933.436 456.425
902 0 115.302 14.5965 1683 156.496 932.859 455.692
903 0 119.459 14.641 1749 155.734 932.578 454.459
904 0 124.385 14.5516 1810 154.672 931.734 452.195
905 0 130.458 14.5105 1893 150.218 932.072 448.391
906 0 138.591 14.2073 1969 146.683 929.668 443.549
907 0 143.3 14.1591 2029 153.419 931.465 440.028
908 0 148.501 14.2692 2119 146.808 929.508 438.082
909 0 152.433 14.4129 2197 143.219 931.683 436.273
910 0 155.562 14.3416 2231 149.523 932.079 436.253
911 0 159.453 14.6877 2342 144.181 932.383 433.273
912 0 168.299 14.2901 2405 149.75 930.322 430.988
913 1 41.188 10.7799 444 136.568 930.655 493.574
914 0 44.1129 11.2212 495 140.539 932.255 490.877
915 0 44.1474 11.6202 513 143.977 931.131 490.333
916 0 48.1302 11.9883 577 140.057 930.594 487.704
917 0 49.1211 12.2147 600 140.997 930.398 486.828
918 0 51.2343 12.0037 615 143.276 931.054 485.927
919 0 52.2515 11.6743 610 149.43 932.759 486.09
920 0 53.2898 11.9535 637 149.419 930.835 485.598
921 1 111.528 16.0318 1788 148.567 931.347 455.189
922 0 112.64 15.1722 1709 153.315 930.62 455.077
923 0 113.289 14.6617 1661 151.868 931.713 455.957
924 0 115.72 13.6709 1582 171.968 930.235 456.776
925 0 118.848 13.9674 1660 165.283 931.486 454.925
926 0 125.892 13.5672 1708 161.378 931.602 450.687
927 1 140.424 12.9536 1819 151.998 931.839 441.785
928 0 140.322 13.5047 1895 161.225 931.963 441.407
929 0 145.419 13.3133 1936 165.315 932.366 440.817
930 0 147.585 13.2602 1957 163.185 931.858 440.28
931 0 151.393 13.4947 2043 162.276 930.134 439.16
932 0 155.587 13.6451 2123 167.314 931.577 437.153
933 0 163.621 13.4824 2206 161.258 929.563 434.187
934 1 130.271 12.9346 1685 163.712 931.209 448.723
935 1 44.0962 10.8399 478 155.111 930.038 492.533
936 0 45.1181 11.215 506 153.765 933.96 492.37
937 0 45.0627 11.5617 521 147.326 930.983 492.136
938 0 47.1963 11.6746 551 149.501 932.506 490.924
939 0 48.3262 12.0639 583 149.122 933.702 487.674
940 0 49.3512 11.8133 583 147.281 931.666 488.623
941 0 52.271 11.6699 610 150.605 932.584 488.47
942 0 53.1515 11.7212 623 152.515 932.82 488.286
943 0 53.3079 11.3867 607 157.4 932.684 489.417
944 1 110.493 13.3493 1475 161.643 929.87 461.152
945 0 112.454 13.2321 1488 159.066 930.786 460.637
946 0 113.396 13.3691 1516 160.225 931.848 460.294
947 0 116.61 13.3779 1560 157.16 928.678 458.83
948 0 120.405 13.2552 1596 160.204 929.796 456.742
949 1 59.1442 12.1398 718 151.71 931.57 486.272
950 0 63.1781 11.6654 737 149.811 931.807 484.334
951 0 64.2977 12.4732 802 146.19 929.83 482.332
952 0 68.364 12.4334 850 148.066 931.052 480.859
953 0 68.2617 12.3788 845 143.427 932.292 481.194
954 0 70.2598 12.1264 852 145.049 932.835 480.842
955 0 72.2157 11.7288 847 151.863 930.42 480.198
956 1 111.355 12.0785 1345 153.985 930.583 461.862
957 0 116.54 12.382 1443 149.507 932.521 458.126
958 0 119.486 13.1563 1572 145.802 931.298 455.607
959 0 124.916 13.2009 1649 145.331 930.341 452.518
960 0 132.524 13.1071 1737 142.366 928.123 447.82
961 1 98.4434 16.3139 1606 131.416 927.705 460.352
962 1 48.1262 11.9478 575 155.082 929.419 486.157
963 0 49.223 12.5754 619 153.664 930.826 484.441
964 0 50.0369 12.6107 631 143.043 930.986 486.353
965 0 52.22 12.3707 646 154.303 932.523 487.05
966 0 54.3325 12.6076 685 155.542 933.753 486.406
967 0 53.2173 12.7778 680 157.687 929.813 486.006
968 0 56.2617 12.6374 711 156.195 928.316 485.257
969 1 111.325 14.049 1564 162.871 929.764 458.485
970 0 115.326 13.9691 1611 154.201 929.643 456.487
971 0 117.232 13.7163 1608 155.251 931.217 455.971
972 0 118.407 14.0194 1660 162.572 932.556 454.922
973 0 123.414 14.3743 1774 154.613 933.414 452.709
974 0 128.425 14.4365 1854 158.552 933.67 448.235
975 0 134.484 14.4553 1944 146.05 934.401 446.673
976 0 139.39 14.3339 1998 151.494 933.408 444.337
977 0 143.383 14.3252 2054 149.463 932.527 442.11
978 0 148.538 14.71 2185 139.64 932.812 440.299
979 0 152.305 14.622 2227 152.832 933.479 438.707
980 0 158.475 14.4881 2296 146.078 930.074 434.6
981 0 167.608 14.8501 2489 145.518 930.171 430.096
982 1 99.6439 16.9403 1688 125.295 931.522 459.52
983 0 104.349 16.694 1742 123.052 930.564 458.683
984 1 48.2916 13.0251 629 142.054 931.582 487.355
985 0 49.0879 12.9971 638 146.281 931.265 487.335
986 0 50.073 13.2806 665 148.09 931.859 487.149
987 0 53.1658 12.7149 676 151.34 931.089 486.812
988 0 53.143 12.8333 682 149.821 934.249 486.557
989 0 53.143 12.8333 682 173.943 937.249 486.557
990 1 113.232 14.0773 1594 148.906 930.963 457.967
991 0 116.384 14.1686 1649 157.256 930.25 456.301
992 0 121.244 14.3265 1737 156.846 932.363 454.138
993 0 127.388 14.4048 1835 156.195 930.675 451.478
994 0 131.306 14.3177 1880 159.862 931.497 449.699
995 0 135.327 14.5942 1975 153.705 930.492 446.554
996 0 141.456 14.3932 2036 158.58 930.718 444.266
997 0 144.349 14.5134 2095 158.6 929.4 442.342
998 0 147.27 14.7348 2170 159.693 928.394 441.381
999 0 153.32 14.5512 2231 153.627 928.949 438.935
1000 0 158.357 14.7136 2330 154.275 929.68 436.174
1001 0 165.311 14.5967 2413 156.789 932.857 433.502
1002 0 172.243 14.6073 2516 161.634 926.618 429.699
1003 0 180.489 14.3998 2599 158.783 932.057 425.914
1004 0 189.465 14.1609 2683 157.608 932.719 421.546
1005 1 104.314 16.7475 1747 135.879 930.48 459.543
1006 0 104.306 16.9981 1773 139.86 932.398 458.452
1007 0 106.128 16.81 1784 142.868 931.195 457.67
1008 0 107.178 16.5612 1775 146.191 930.75 457.81
1009 0 107.166 15.8073 1694 153.834 929.025 458.059
1010 0 111.407 15.1606 1689 157.116 928.513 457.717
1011 0 112.323 14.1823 1593 163.38 929.652 458.542
1012 0 117.295 14.3996 1689 165.274 929.918 456.187
1013 0 122.426 14.7027 1800 169.034 929.191 453.449
1014 0 127.408 14.3084 1823 166.24 930.021 450.772
1015 0 132.259 14.5775 1928 166.606 927.659 447.626
1016 0 137.262 15.1026 2073 158.656 929.152 445.484
1017 0 143.455 14.7154 2111 157.883 931.422 443.369
1018 0 148.265 14.6629 2174 163.936 930.74 441.687
1019 0 151.236 14.679 2220 166.983 929.825 440.588
1020 0 156.364 15.029 2350 161.132 929.522 437.824
1021 0 163.247 14.5301 2372 160.127 928.503 434.192
1022 0 170.566 14.8154 2527 161.523 929.25 431.213
1023 0 176.421 14.6978 2593 158.415 929.162 428.215
1024 0 182.756 14.6097 2670 168.57 927.86 425.74
1025 0 189.849 14.6327 2778 157.564 927.31 423.112
1026 0 195.687 14.5743 2852 166.71 926.748 418.032
1027 0 203.705 14.1823 2889 167.163 928.845 415.424
1028 1 103.187 17.2308 1778 148.115 932.261 460.516
1029 0 105.299 16.5054 1738 149.697 930.484 459.822
1030 0 107.294 16.739 1796 145.952 931.214 458.208
1031 0 108.345 16.7613 1816 152.393 931.922 457.603
1032 0 109.382 16.6024 1816 154.119 930.681 458.059
1033 0 109.281 15.84 1731 162.55 930.133 458.684
1034 0 110.319 14.8025 1633 169.956 929.104 460.02
1035 0 114.173 14.3029 1633 166.487 928.874 459.006
1036 0 116.281 14.2929 1662 171.037 931.004 457.901
1037 0 121.287 14.6677 1779 163.208 930.302 455.075
1038 0 126.371 14.4337 1824 160.251 930.492 452.43
1039 0 130.222 14.4368 1880 172.184 930.17 450.288
1040 0 135.328 14.8084 2004 165.077 929.696 446.623
1041 0 141.262 14.8235 2094 166.352 930.452 444.972
1042 0 145.174 14.9338 2168 159.941 928.385 442.677
1043 0 148.215 14.8028 2194 164.738 927.037 441.199
1044 0 152.389 15.0011 2286 160.597 926.971 439.055
1045 0 160.425 15.1036 2423 161.683 927.621 435.059
1046 1 106.403 18.4018 1958 142.885 929.23 455.375
1047 0 104.119 16.2698 1694 147.531 927.923 461.345
1048 0 104.174 16.9141 1762 137.089 928.3 459.671
1049 0 107.111 17.5145 1876 142.366 932.356 457.325
1050 0 106.1 16.6447 1766 142.271 930.117 458.195
1051 0 108.397 16.9008 1832 152.734 928.28 457.197
1052 0 109.223 15.9307 1740 152.572 931.753 457.833
1053 0 108.216 15.1271 1637 163.823 931.98 459.004
1054 0 113.501 14.5373 1650 163.096 931.29 458.261
1055 0 116.249 14.7701 1717 169.938 930.616 456.772
1056 0 120.314 14.6117 1758 174.887 929.914 455.254
1057 0 123.41 14.8367 1831 169.631 929.882 452.496
1058 0 131.332 14.5813 1915 166.604 931.043 449.443
1059 0 134.211 14.9093 2001 170.711 931.358 446.648
1060 0 140.349 14.8273 2081 169.804 930.337 444.679
1061 0 143.25 14.6108 2093 159.29 931 443.247
1062 0 149.244 14.7142 2196 167.283 930.15 441.327
1063 0 154.218 14.7713 2278 171.637 928.431 438.958
1064 0 159.169 15.0281 2392 170.704 929.487 437.158
1065 0 164.281 15.0717 2476 163.566 929.064 433.376
1066 0 173.439 14.8467 2575 166.54 930.466 429.916
1067 1 99.2479 17.1994 1707 144.323 930.062 463.333
1068 0 102.293 16.7363 1712 140.326 928.961 461.785
1069 0 104.206 17.283 1801 138.44 929.143 460.134
1070 0 106.226 17.2274 1830 147.515 931.163 459.151
1071 0 107.217 16.7231 1793 152.291 929.887 459.381
1072 0 108.282 16.9187 1832 151.051 929.819 458.596
1073 0 109.289 16.4609 1799 157.042 930.223 458.794
1074 0 112.827 15.9004 1794 163.955 929.794 458.376
1075 0 114.356 14.656 1676 167.52 929.894 458.05
1076 0 117.472 14.5566 1710 167.096 930.041 456.815
1077 0 122.522 15.0014 1838 168.45 929.35 453.768
1078 0 126.503 15.0431 1903 168.439 927.729 451.932
1079 0 132.488 14.5749 1931 167.516 928.669 448.949
1080 0 137.363 14.9458 2053 159.289 926.459 445.305
1081 0 143.422 14.6282 2098 163.408 927.602 442.446
1082 0 147.605 14.7353 2175 163.194 927.175 441.831
1083 0 151.33 14.7954 2239 161.783 928.129 440.243
1084 0 155.645 14.7644 2298 162.604 928.366 436.845
1085 0 162.567 14.7939 2405 162.271 930.752 433.756
1086 1 42.0377 12.3698 520 152.596 932.292 492.16
1087 0 44.0926 12.5872 555 160.38 930.596 490.259
1088 0 45.107 12.9026 582 157.229 933.589 489.751
1089 0 46.0822 12.6513 583 164.58 930.379 489.477
1090 0 46.127 13.0293 601 163.602 931.015 489.691
1091 0 48.1177 12.6772 610 158.254 931.625 489.389
1092 1 107.523 16.0431 1725 156.159 930.55 457.183
1093 0 110.525 15.4082 1703 157.198 931.068 457.723
1094 0 109.534 15.0638 1650 164.116 930.999 458.978
1095 0 113.739 14.6915 1671 170.759 927.605 459.063
1096 0 115.447 14.7601 1704 169.525 929.967 458.201
1097 0 117.819 14.8278 1747 170.444 929.278 456.552
1098 0 125.64 14.7246 1850 166.434 928.854 453.176
1099 0 132.636 14.6416 1942 166.639 928.627 447.791
1100 0 138.561 14.5928 2022 167.557 928.755 443.253
1101 0 145.64 14.3573 2091 162.417 929.217 440.245
1102 0 149.414 14.1486 2114 169.859 927.517 438.46
1103 0 153.666 14.4664 2223 164.813 928.659 438.021
1104 0 156.502 14.594 2284 168.556 928.462 437.485
1105 0 160.559 14.68 2357 165.09 927.965 435.793
1106 1 117.18 13.6371 1598 168.259 928.161 455.599
1107 0 126.415 13.8195 1747 166.095 930.098 451.39
1108 0 131.458 13.7078 1802 167.098 928.246 448.632
1109 0 135.234 13.8131 1868 167.211 925.453 446.043
1110 0 141.575 13.8019 1954 163.404 927.08 443.884
1111 1 46.0303 13.2087 608 157.076 928.286 488.612
1112 0 49.0972 13.7686 676 154.893 928.917 487.32
1113 0 52.0462 12.5273 652 158.143 929.939 487.658
1114 0 50.1128 13.0506 654 161.853 928.566 487.653
1115 0 53.1369 12.3455 656 158.716 928.377 487.399
1116 0 55.2217 12.1691 672 157.235 927.869 486.885
1117 0 56.1603 12.3219 692 164.618 926.621 486.767
1118 0 57.1848 12.1886 697 158.651 925.683 486.478
1119 1 71.1466 15.1799 1080 143.726 927.272 477.704
1120 0 70.1381 15.0845 1058 151.47 927.606 477.388
1121 0 68.0715 14.617 995 144.81 928.733 477.921
1122 0 69.1371 13.2056 913 158.122 927.981 478.074
1123 0 70.1325 12.4194 871 156.89 925.39 479.61
1124 1 109.265 12.3553 1350 168.093 926.939 461.685
1125 0 110.423 12.76 1409 162.452 928.558 460.864
1126 0 113.356 13.1444 1490 170.489 929.776 459.548
1127 0 116.787 13.2463 1547 170.601 929.014 459.156
1128 0 119.073 13.5798 1617 168.914 928.852 458.826
1129 0 124.641 13.8478 1726 166.378 929.52 454.079
1130 0 132.859 13.5181 1796 168.955 929.078 449.999
1131 1 51.0804 14.8394 758 147.609 929.478 488.202
1132 0 51.2056 14.6859 752 150.763 928.757 487.118
1133 0 51.249 13.3661 685 165.569 927.27 487.901
1134 0 50.2297 12.9007 648 168.073 928.127 488.542
1135 0 51.1698 12.9178 661 174.673 929.681 488.363
1136 0 53.1688 12.8459 683 165.22 928.045 488.104
1137 1 109.412 14.843 1624 163.576 929.738 459.874
1138 0 110.316 14.1413 1560 168.542 929.573 460.571
1139 0 111.688 14.075 1572 165.943 928.966 460.976
1140 0 115.691 14.2621 1650 167.874 929.547 458.53
1141 0 117.661 14.3377 1687 167.105 929.851 458.193
1142 0 122.635 14.1884 1740 161.57 928.452 455.795
1143 0 129.767 14.2178 1845 161.664 929.605 451.905
1144 1 138.735 14.0484 1949 160.746 927.693 443.46
1145 0 143.312 14.0323 2011 162.346 928.248 443.958
1146 0 146.537 14.3786 2107 163.537 929.062 442.889
1147 0 149.354 14.248 2128 162.879 929.215 442.404
1148 0 152.659 14.195 2167 159.769 928.415 441.239
1149 0 155.387 14.1969 2206 160.703 929.274 439.365
1150 1 115.58 13.7481 1589 165.079 928.115 459.239
1151 0 119.398 14.0789 1681 165.68 926.706 457.218
1152 0 122.456 14.6746 1797 160.376 929.31 455.505
1153 0 126.171 14.4804 1827 162.205 925.837 453.924
1154 0 126.026 14.9731 1887 162.802 929.252 453.848
1155 1 103.352 16.7292 1729 143.644 929.536 459.522
1156 0 104.448 16.8791 1763 145.411 932.058 459.56
1157 0 106.282 17.0961 1817 153.495 931.267 458.841
1158 0 105.429 16.6558 1756 157.417 928.972 458.965
1159 0 110.382 15.3376 1693 161.403 928.849 459.454
1160 0 109.287 15.2626 1668 164.289 928.019 459.751
1161 0 112.309 14.7807 1660 168.507 928.77 459.142
1162 0 114.281 14.7794 1689 166.537 928.372 458.41
1163 0 118.523 14.7904 1753 167.448 928.592 456.909
1164 0 122.443 14.668 1796 169.047 929.872 455.157
1165 0 127.453 14.8839 1897 166.244 929.425 451.985
1166 0 134.345 14.8275 1992 164.896 931.311 447.92
1167 0 140.304 15.11 2120 166.251 930.796 444.713
1168 0 145.369 14.9069 2167 163.629 929.084 442.339
1169 0 149.289 14.9978 2239 169.718 928.281 441.248
1170 0 153.441 14.794 2270 164.681 927.372 439.551
1171 0 155.525 15.1294 2353 166.164 929.65 438.896
1172 0 159.957 15.3979 2463 161.376 929.341 436.813
1173 0 163.61 15.2252 2491 168.659 930.427 435.991
1174 0 163.67 13.8816 2272 172.7 931.105 434.573
1175 1 101.328 17.4088 1764 137.226 930.62 462.192
1176 0 102.174 17.7149 1810 135.443 930.11 460.094
1177 0 103.102 17.6331 1818 140.911 929.701 459.341
1178 0 104.337 16.9546 1769 143.435 930.773 459.394
1179 0 105.375 17.0345 1795 152.141 930.96 459.153
1180 0 108.528 16.4289 1783 154.777 931.84 459.622
1181 0 109.338 15.6304 1709 162.432 929.355 459.055
1182 0 111.379 14.6707 1634 167.482 929.33 460.201
1183 0 114.709 14.2011 1629 164.012 931.333 458.6
1184 0 118.549 14.281 1693 164.233 928.859 456.849
1185 0 123.646 14.5496 1799 164.555 929.639 453.873
1186 0 129.649 14.5239 1883 159.461 930.917 450.522
1187 1 141.638 13.4003 1898 161.829 927.767 443.595
1188 0 142.667 13.6682 1950 165.702 928.934 443.618
1189 0 146.488 13.9534 2044 164.119 929.307 442.85
1190 0 149.356 14.0604 2100 167.314 927.922 442.517
1191 0 152.335 14.304 2179 171.476 927.832 441.342
1192 0 157.545 14.3768 2265 166.895 928.184 438.955
1193 0 161.642 14.0743 2275 168.1 929.686 437.347
1194 0 170.441 14.2454 2428 163.032 929.778 433.059
1195 1 45.0985 13.6368 615 164.672 927.616 490.242
1196 0 49.0628 12.9018 633 158.709 927.197 489.288
1197 0 51.1526 12.9417 662 166.932 927.363 488.524
1198 0 50.0475 13.5471 678 164.112 928.748 488.372
1199 0 54.06 13.0226 704 166.501 930 487.979
1200 0 54.0503 13.2099 714 167.591 928.706 487.394
1201 0 56.0653 13.0562 732 165.051 932.262 487.332
1202 1 110.232 16.5742 1827 157.044 929.66 457.395
1203 0 110.295 16.4467 1814 161.503 930.881 458.691
1204 0 112.422 15.5308 1746 160.515 929.398 458.762
1205 0 115.258 14.6367 1687 169.097 931.004 459.659
1206 0 118.632 14.7094 1745 171.226 928.438 458.301
1207 0 123.247 14.7671 1820 168.707 930.01 455.627
1208 0 131.411 14.7629 1940 169.719 929.66 450.245
1209 0 137.398 14.6872 2018 167.057 928.986 447.305
1210 0 141.277 14.6875 2075 165.224 928.276 445.795
1211 0 143.394 15.2795 2191 171.01 928.521 444.299
1212 0 149.622 14.7572 2208 168.167 928.752 443.311
1213 0 150.632 15.0897 2273 169.378 929.697 441.828
1214 0 156.805 14.8337 2326 168.626 929.875 439.988
1215 1 48.0395 12.802 615 165.065 931.377 490.811
1216 0 52.0253 15.2618 794 153.597 931.121 486.783
1217 0 53.0353 14.1415 750 159.091 930.449 487.517
1218 0 54.087 13.1085 709 170.309 930.32 487.039
1219 0 55.0298 12.9748 714 167.954 930.454 487.929
1220 0 57.0814 12.7012 725 169.309 928.941 487.273
1221 1 110.27 15.0177 1656 156.575 930.804 460.592
1222 0 111.474 14.0122 1562 168.026 930.193 460.844
1223 0 114.504 14.0781 1612 167.581 929.788 459.99
1224 0 117.525 14.1161 1659 159.254 930.395 457.022
1225 0 123.41 13.9454 1721 156.901 930.22 453.431
1226 0 132.304 13.5521 1793 163.113 928.945 449.706
1227 0 136.437 13.8452 1889 161.014 928.096 447.6
1228 0 141.453 13.4391 1901 155.416 932.113 445.972
1229 0 143.586 13.8662 1991 153.361 930.608 444.543
1230 0 147.735 13.9033 2054 165.451 929.798 443.266
1231 0 154.737 14.0497 2174 163.491 930.589 441.309
1232 1 44.146 12.2321 540 151.609 928.748 492.793
1233 0 50.0345 14.9497 748 137.68 929.197 488.603
1234 0 51.0468 14.3985 735 141.903 930.054 488.886
1235 0 51.0796 13.1559 672 143.988 930.741 488.539
1236 0 51.1636 12.6653 648 150.806 928.474 488.988
1237 0 52.3106 12.3875 648 158.715 926.986 488.73
1238 0 52.3135 12.6354 661 151.899 927.832 488.141
1239 0 55.3206 12.3643 684 152.067 928.554 488.056
1240 0 55.3082 12.2947 680 155.19 929.175 487.762
1241 0 57.2479 11.9655 685 154.625 928.968 487.726
1242 0 55.2158 12.6232 697 156.063 931.737 487.623
1243 0 59.2797 12.2639 727 157.787 930.385 486.261
1244 0 64.1675 12.3427 792 152.331 928.821 484.533
1245 0 65.3181 12.1406 793 153.343 930.473 483.45
1246 0 69.2711 12.083 837 148.183 929.288 481.701
1247 0 71.1909 12.3752 881 148.583 930.407 480.494
1248 0 73.1932 12.2552 897 151.404 931.38 479.059
1249 0 76.227 11.8462 903 151.6 929.259 478.581
1250 0 76.3766 12.0456 920 149.071 929.69 478.698
1251 0 78.5579 12.424 976 156.946 927.785 478.382
1252 1 39.2075 11.3244 444 149.036 927.901 496.34
1253 0 43.1769 11.9508 516 154.06 930.422 494.7
1254 0 46.3142 12.4152 575 147.979 931.633 491.266
1255 0 48.2341 12.3149 594 150.976 929.786 490.099
1256 0 50.2484 12.4382 625 149.39 932.275 489.328
1257 0 50.2444 12.7974 643 148.123 930.002 488.135
1258 0 51.247 12.7422 653 145.815 928.53 487.685
1259 0 51.3222 12.7235 653 148.496 926.395 488.066
1260 0 52.1837 12.8584 671 155.155 928.703 487.89
1261 0 54.2476 12.6457 686 157.822 927.501 487.806
1262 0 55.264 12.3408 682 152.405 927.312 487.692
1263 0 56.2707 12.6531 712 159.153 926.195 487.301
1264 0 62.2337 12.2442 762 157.073 926.65 485.066
1265 0 62.1444 12.648 786 163.008 928.089 485.033
1266 0 65.1508 12.6169 822 160.13 930.335 483.781
1267 0 68.2006 12.6832 865 158.652 928.773 481.91
1268 0 70.3101 12.9853 913 164.061 929.297 481.218
1269 0 72.0716 13.2507 955 162.983 929.761 479.882
1270 1 149.27 14.9996 2239 161.831 930.364 442.891
1271 0 152.334 14.9605 2279 164.753 930.197 441.54
1272 0 158.32 14.7359 2333 154.761 929.805 438.605
1273 0 163.537 14.8896 2435 150.981 930.971 436.59
1274 0 171.413 14.8121 2539 162.009 930.594 432.936
1275 1 42.1623 13.3769 564 170.541 928.66 494.25
1276 0 46.2663 13.1845 610 165.131 930.246 490.723
1277 0 48.1956 13.3415 643 169.4 929.501 491.118
1278 0 48.1596 13.4553 648 167.207 927.651 491.295
1279 0 49.0792 13.2643 651 172.702 928.634 490.906
1280 1 109.308 16.147 1765 151.198 928.806 459.95
1281 0 111.374 15.8655 1767 160.749 928.671 460.307
1282 0 112.308 14.7807 1660 167.165 929.283 461.398
1283 0 114.293 14.8041 1692 167.178 930.304 460.423
1284 0 118.322 15.0099 1776 163.223 929.136 458.686
1285 0 122.263 14.7142 1799 163.733 930.201 456.183
1286 0 127.344 15.1165 1925 167.276 927.648 453.096
1287 0 134.402 14.7468 1982 171.613 929.695 450.494
1288 0 137.507 15.0465 2069 166.453 928.556 448.498
1289 0 142.56 15.0603 2147 163.837 928.067 446.214
1290 0 147.397 15.0885 2224 161.85 927.57 443.112
1291 0 150.269 15.2326 2289 161.37 928.122 441.777
1292 0 155.374 15.0475 2338 166.509 927.239 440.886
1293 0 160.561 15.2964 2456 101.307 925.94 437.907
1294 0 166.705 14.9846 2498 168.403 926.393 435.038
1295 0 173.739 14.8787 2585 167.148 926.24 431.236
1296 0 182.504 14.3449 2618 169.355 928.25 427.152
1297 1 45.0425 12.1441 547 164.307 928.578 492.68
1298 0 47.1439 12.6421 596 163.376 929.232 490.931
1299 0 48.087 13.4132 645 161.14 929.916 490.22
1300 0 49.1997 13.1098 645 158.087 931.008 489.713
1301 0 50.0655 13.2027 661 164.092 929.911 489.903
1302 0 53.1353 12.8916 685 158.571 929.099 489.396
1303 0 54.1407 12.8923 698 164.577 930.115 489.725
1304 0 56.0561 13.0227 730 164.836 928.864 489.229
1305 0 55.1129 12.9371 713 160.966 929.128 489.4
1306 0 55.0985 13.7572 758 168.624 930.369 488.175
1307 0 56.0664 13.2878 745 164.953 928.227 488.16
1308 0 56.0763 13.553 760 166.879 926.9 487.562
1309 0 55.0471 13.6974 754 170.989 926.538 487.336
1310 1 134.397 14.6135 1964 156.238 927.518 450.13
1311 0 141.322 14.3927 2034 163.77 927.155 446.234
1312 0 146.34 14.1041 2064 158.39 928.988 445.023
1313 0 150.351 14.4994 2180 161.141 929.741 443.344
1314 0 153.277 14.3205 2195 161.378 930.553 442.641
1315 0 158.409 14.532 2302 165.068 928.627 440.264
1316 0 164.393 14.2707 2346 165.774 928.066 437.508
1317 0 172.357 14.2843 2462 162.519 929.509 434.955
1318 0 171.658 14.5173 2492 164.492 928.351 432.474
1319 0 171.321 14.4057 2468 163.685 930.93 431.766
1320 1 106.21 16.4957 1752 143.378 928.382 461.497
1321 0 106.343 16.6537 1771 152.811 927.139 460.967
1322 0 108.242 16.149 1748 153.805 926.537 461.225
1323 0 108.272 16.3662 1772 152.695 927.461 460.836
1324 0 112.351 15.318 1721 156.608 927.496 460.752
1325 0 113.375 14.5093 1645 170.455 928.074 461.119
1326 0 113.375 14.5093 1645 181.359 929.074 461.119
1327 0 118.47 14.8139 1755 165.588 928.096 458.275
1328 0 124.339 14.935 1857 167.382 929.446 455.224
1329 0 131.304 14.295 1877 170.474 927.895 453.101
1330 0 136.406 14.6401 1997 163.863 928.436 449.242
1331 0 141.436 14.3457 2029 167.07 929.835 447.763
1332 0 146.543 14.4326 2115 163.05 928.847 445.171
1333 0 151.582 14.5202 2201 163.37 927.486 442.766
1334 0 154.648 14.4457 2234 162.377 928.432 441.228
1335 0 161.418 14.4779 2337 161.639 926.777 437.966
1336 0 169.703 14.3662 2438 168.329 928.103 433.686
1337 1 45.1288 12.1652 549 164.811 928.271 494.776
1338 0 45.1172 12.7224 574 160.676 925.887 493.962
1339 0 46.0475 12.9214 595 154.097 928.543 492.084
1340 0 50.0433 13.908 696 157.08 927.467 490.56
1341 0 50.0443 13.6479 683 160.447 927.208 489.78
1342 0 51.1431 13.2765 679 165.091 928.599 489.807
1343 1 111.461 16.5888 1849 145.572 929.947 459.224
1344 0 111.601 16.1917 1807 156.965 930.295 460.066
1345 0 112.442 16.1772 1819 160.253 929.193 459.393
1346 0 116.328 16.3847 1906 155.296 928.644 458.112
1347 0 116.435 15.7169 1830 163.844 928.917 459.094
1348 0 118.43 14.6077 1730 173.402 928.75 458.751
1349 0 123.79 14.4842 1793 159.841 928.51 456.199
1350 0 130.315 14.4113 1878 158.723 927.818 452.153
1351 0 137.234 14.938 2050 169.811 930.145 446.662
1352 0 142.274 14.451 2056 165.887 928.379 445.588
1353 0 145.422 15.0321 2186 167.229 929.604 443.923
1354 0 150.363 14.7376 2216 156.887 928.54 443.572
1355 0 152.729 14.8695 2271 165.193 928.289 442.649
1356 0 156.663 14.8153 2321 160.009 927.526 441.162
1357 1 116.179 13.7461 1597 173.791 927.966 460.981
1358 0 119.806 14.4567 1732 172.827 929.488 459.197
1359 0 125.992 14.5406 1832 170.166 927.287 455.901
1360 0 134.734 14.5175 1956 160.959 931.425 451.033
1361 0 138.369 14.2084 1966 162.409 931.088 448.91
1362 1 101.226 17.6438 1786 145.01 929.245 462.231
1363 1 50.0604 12.9843 650 167.092 930.357 490.312
1364 0 51.1155 13.1858 674 169.079 928.288 489.604
1365 0 53.0848 13.0357 692 169.368 928.526 489.899
1366 0 54.0208 13.1061 708 170.127 927.151 490.15
1367 0 54.0445 12.9893 702 166.89 926.868 489.836
1368 1 110.13 16.1355 1777 154.57 928.802 461.149
1369 0 112.3 15.3696 1726 158.133 929.571 460.342
1370 0 114.367 14.4623 1654 164.237 929.061 461.085
1371 0 119.268 14.4549 1724 155.951 929.445 459.605
1372 0 122.612 14.5989 1790 160.753 927.277 456.915
1373 0 129.409 14.8753 1925 155.797 927.404 453.665
1374 0 135.455 14.5214 1967 149.5 929.731 450.213
1375 0 138.343 15.1146 2091 156.404 929.918 447.294
1376 0 145.532 14.6703 2135 148.163 930.413 445.751
1377 0 148.749 14.9783 2228 152.579 928.387 443.704
1378 0 151.69 14.8592 2254 153.749 930.876 442.913
1379 0 155.73 14.9746 2332 148.063 929.104 442.085
1380 0 160.632 14.9036 2394 151.952 926.515 440.117
1381 0 166.655 15.1331 2522 147.806 929.372 436.698
1382 1 46.0716 13.5441 624 155.258 930.707 492.832
1383 0 49.2086 13.2497 652 157.883 931.006 487
1384 0 49.2055 13.3115 655 155.313 930.773 488.289
1385 0 51.2793 13.3387 684 162.76 931.335 488.38
1386 0 51.2025 13.3978 686 160.601 929.965 488.44
1387 0 50.2 13.7649 691 163.127 928.236 488.122
1388 0 54.1786 13.4001 726 166.023 930.643 488.063
1389 1 110.28 15.3518 1693 155.732 931.2 460.321
1390 0 111.736 14.8028 1654 161.493 930.995 460.651
1391 0 114.558 15.084 1728 162.198 931.39 459.425
1392 0 118.916 14.8508 1766 163.46 929.424 457.42
1393 0 123.49 15.0296 1856 162.596 929.032 452.947
1394 0 133.22 14.5774 1942 158.433 928.788 447.76
1395 0 137.237 14.7919 2030 157.703 929.367 445.708
1396 0 141.425 14.665 2074 161.798 929.429 445.392
1397 0 144.377 14.6492 2115 161.045 929.02 444.314
1398 0 147.595 14.9802 2211 167.741 928.218 443.017
1399 0 154.684 14.8367 2295 163.497 930.982 440.047
1400 0 162.904 14.5116 2364 165.385 928.515 436.526
1401 0 168.399 14.6022 2459 165.928 930.456 433.003
1402 0 177.483 14.6268 2596 163.643 929.397 429.554
1403 1 44.0963 12.9263 570 159.651 933.102 490.958
1404 0 46.1133 12.6428 583 151.681 930.775 491.153
1405 0 46.1133 12.6428 583 164.07 928.775 491.153
1406 0 48.2419 12.769 616 154.542 930.891 490.185
1407 0 48.4342 12.7389 617 164.838 930.89 490.904
1408 0 49.4244 12.8884 637 155.786 931.016 489.495
1409 1 112.52 13.8553 1559 161.868 930.479 461.03
1410 0 113.414 14.0724 1596 158.685 929.098 459.561
1411 0 117.458 14.6776 1724 157.911 928.425 457.458
1412 0 122.558 14.4993 1777 154.985 928.008 455.077
1413 1 58.4213 12.8207 749 155.151 928.856 485.708
1414 0 59.3304 13.7198 814 156.711 929.898 483.246
1415 0 60.3722 13.8474 836 158.727 929.227 481.711
1416 0 64.4474 13.0339 840 152.749 929.661 482.333
1417 0 66.1547 12.9696 858 154.383 930.395 482.528
1418 0 68.2285 12.8392 876 163.005 929.986 483.497
1419 1 111.249 14.1035 1569 161.658 929.709 462.808
1420 0 114.452 14.5563 1666 165.088 930.588 461.352
1421 0 119.325 14.6407 1747 162.406 930.673 459.638
1422 0 124.489 14.5234 1808 158.75 929.577 456.421
1423 0 131.251 14.697 1929 165.167 928.714 453.285
1424 0 136.472 14.699 2006 165.578 928.583 450.419
1425 1 45.0284 13.3693 602 165.453 929.699 492.709
1426 0 47.03 13.1831 620 162.297 928.566 491.618
1427 0 49.0255 13.3196 653 160.965 928.651 490.753
1428 0 48.0211 13.4732 647 159.479 929.465 490.674
1429 0 50.1144 13.13 658 161.439 928.866 490.492
1430 0 51.0955 12.5256 640 171.298 927.891 490.841
1431 0 52.0701 12.8289 668 159.982 927.801 490.335
1432 1 112.376 15.8664 1783 155.012 927.484 459.581
1433 0 114.474 15.4359 1767 151.209 930.667 458.918
1434 0 119.377 14.3914 1718 154.05 929.995 458.136
1435 0 125.398 14.2347 1785 164.545 929.328 454.708
1436 0 130.538 14.2794 1864 157.481 928.333 451.488
1437 1 141.488 13.6973 1938 153.694 929.459 445.748
1438 0 144.424 13.7789 1990 152.995 929.823 445.179
1439 0 148.357 13.8383 2053 161.22 929.236 443.792
1440 0 152.164 14.0178 2133 158.205 928.144 442.652
1441 0 156.365 14.0569 2198 160.826 927.92 440.828
1442 1 117.379 13.7674 1616 162.809 929.637 458.801
1443 1 39.0574 12.0336 470 163.051 928.785 496.738
1444 0 42.0944 11.9256 502 159.052 928.924 494.978
1445 0 42.1343 12.6263 532 161.318 930.598 494.571
1446 0 43.1809 12.3666 534 158.247 929.371 494.221
1447 0 45.1482 12.4479 562 151.504 929.788 493.66
1448 0 47.0731 12.215 575 157.24 929.619 491.41
1449 0 50.0712 12.4623 624 150.051 927.245 490.971
1450 0 50.1175 12.2312 613 148.817 929.248 490.933
1451 0 52.135 11.9498 623 148.23 929.34 490.388
1452 0 50.1568 12.5407 629 140.752 928.859 490.463
1453 1 110.5 14.4978 1602 144.376 929.119 461.637
1454 0 111.239 14.2216 1582 152.592 931.094 460.58
1455 0 114.299 14.3308 1638 148.396 928.093 458.444
1456 0 118.619 14.2304 1688 149.145 927.585 457.404
1457 0 122.361 14.1466 1731 150.627 927.511 455.763
1458 0 128.3 14.1154 1811 146.358 929.745 452.183
1459 0 137.536 13.4365 1848 150.794 928.399 447.992
1460 1 34.0291 10.5792 360 143.664 930.464 498.628
1461 0 35.16 11.1206 391 138.363 930.169 498.069
1462 0 36.0791 11.0867 400 138.728 930.48 498.345
1463 1 108.568 13.9083 1510 146.07 928.203 461.642
1464 0 112.562 14.7296 1658 151.838 928.483 459.88
1465 0 114.742 14.4846 1662 147.498 927.316 459.075
1466 0 115.934 14.8965 1727 149.018 927.206 458.638
1467 0 120.049 14.8356 1781 157.696 927.988 457.629
1468 0 124.209 15.1116 1877 158.205 929.171 456.419
1469 1 46.1292 12.6601 584 140.925 929.649 492.752
1470 0 49.0226 14.2791 700 135.41 928.549 490.564
1471 0 49.1154 13.0509 641 140.39 926.802 490.939
1472 0 50.0434 12.669 634 144.705 926.476 491.278
1473 0 49.2441 13.1183 646 147.568 926.681 490.28
1474 0 52.2076 12.2779 641 152.922 930.362 490.031
1475 0 53.2413 12.2273 651 153.177 929.438 490.063
1476 0 53.2182 12.8903 686 148.959 927.433 489.72
1477 1 112.488 14.0282 1578 146.596 927.032 461.323
1478 0 114.714 14.0175 1608 156.87 927.209 460.437
1479 0 118.625 14.1117 1674 153.25 928.219 457.87
1480 0 123.462 14.061 1736 158.657 927.571 456.526
1481 0 129.35 13.877 1795 159.031 927.216 453.615
1482 1 139.38 13.7538 1917 161.085 927.392 445.495
1483 0 142.379 13.5764 1933 156.266 927.843 446.258
1484 0 144.517 13.5486 1958 154.973 925.626 445.872
1485 1 109.655 12.968 1422 167.342 925.916 465.089
1486 0 110.595 13.9337 1541 156.685 926.032 463.469
1487 0 113.887 14.8393 1690 161.312 929.466 461.68
1488 0 116.039 14.1762 1645 165.977 929.102 462.182
1489 0 120.146 13.9663 1678 161.493 929.787 460.701
1490 0 124.037 14.0603 1744 168.708 932.041 458.159
1491 0 132.687 13.7843 1829 165.788 930.082 454.129
1492 1 52.3447 15.4552 809 133.713 930.543 489.197
1493 0 53.0805 14.8642 789 147.515 930.231 489.569
1494 0 54.1111 14.1745 767 155.682 932.241 490.535
1495 0 54.1448 13.076 708 156.692 929.836 489.46
1496 0 53.3093 13.1309 700 166.99 929.817 488.85
1497 0 54.266 12.9363 702 163.462 931.024 489.023
1498 1 110.837 15.1934 1684 152.066 929.214 460.822
1499 0 110.403 14.6917 1622 161.168 930.331 460.853
1500 0 111.735 13.6215 1522 161.191 929.631 462.168
1501 0 114.817 13.7175 1575 165.194 930.095 460.459
1502 0 119.756 13.8115 1654 161.539 931.158 459.043
1503 0 124.547 13.7137 1708 157.512 930.6 456.046
1504 0 133.21 13.3624 1780 153.217 930.488 449.912
1505 0 138.326 13.2802 1837 161.097 930.997 449.407
1506 0 142.333 13.876 1975 148.413 930.649 447.029
1507 0 145.479 13.5002 1964 161.915 929.224 446.429
1508 0 146.638 13.5299 1984 161.798 929.872 445.761
1509 0 150.867 14.2112 2144 152.034 929.423 443.973
1510 1 117.6 13.8691 1631 162.825 931.524 460.391
1511 0 109.546 12.5244 1372 157.932 931.02 468.446
1512 0 100.149 16.3956 1642 137.843 930.362 457.434
1513 0 101.383 16.3439 1657 144.071 930.751 458.478
1514 0 102.399 16.3771 1677 146.621 931.309 460.527
1515 0 107.191 16.326 1750 143.037 930.445 460.906
1516 1 120.329 14.2941 1720 173.398 929.197 458.112
1517 0 124.452 14.6241 1820 84.3478 930.261 455.971
1518 0 129.458 14.8233 1919 169.24 928.714 453.941
1519 0 136.423 15.232 2078 156.078 928.092 450.247
1520 0 143.35 14.3216 2053 165.156 928.708 447.892
1521 0 147.301 14.7318 2170 160.612 931.338 445.226
1522 0 150.303 14.7235 2213 159.006 930.692 444.254
1523 0 152.546 14.7038 2243 164.864 929.659 443.164
1524 0 157.529 14.8925 2346 160.567 929.717 441.642
1525 0 164.791 14.4425 2380 164.12 927.257 439.496
1526 0 172.772 14.4584 2498 165.274 927.424 435.288
1527 1 46.054 13.1802 607 169.178 927.216 494.985
1528 0 53.0372 14.2353 755 157.624 925.947 491.22
1529 0 53.088 13.7131 728 158.22 927.641 491.157
1530 0 52.0214 13.4945 702 170.125 923.595 491.647
1531 0 53.062 13.0036 690 167.436 924.365 491.038
1532 0 55.0727 13.1281 723 169.56 927.242 491.033
1533 1 111.12 16.1807 1798 156.933 925.935 461.713
1534 0 111.337 15.6013 1737 161.356 925.104 462.199
1535 0 114.308 14.8371 1696 170.76 926.315 462.892
1536 0 116.347 14.4138 1677 169.719 924.504 462.425
1537 0 119.411 14.9735 1788 167.654 926.4 460.55
1538 0 126.543 14.4931 1834 169.079 924.203 457.773
1539 0 131.422 14.442 1898 165.177 923.524 453.483
1540 0 138.578 14.2375 1973 161.899 926.082 451.304
1541 0 141.333 14.6534 2071 164.877 924.603 448.7
1542 0 147.668 14.5868 2154 166.13 923.241 445.872
1543 0 151.727 14.5063 2201 166.24 923.398 444.689
1544 0 155.489 14.5605 2264 160.543 920.409 443.04
1545 0 162.784 14.8111 2411 158.658 926.868 439.317
1546 0 169.713 14.4243 2448 164.712 924.896 435.607
1547 0 177.674 14.2283 2528 159.274 925.034 431.91
1548 1 46.2993 12.4408 576 159.002 924.776 494.536
1549 0 49.2087 13.209 650 152.92 923.44 493.682
1550 0 48.1702 13.0164 627 156.967 926.922 493.856
1551 0 49.2332 12.5525 618 158.32 923.942 493.874
1552 0 50.3098 12.6615 637 158.856 924.146 493.436
1553 0 49.1407 12.8 629 160.224 926.102 493.744
1554 0 50.3338 12.8939 649 163.709 925.407 493.401
1555 0 59.3131 13.1843 782 147.701 924.89 489.636
1556 0 60.4282 12.9244 781 152.074 924.789 489.749
1557 0 60.1849 13.3256 802 157.706 923.455 489.628
1558 0 60.3274 12.6145 761 159.938 924.039 489.704
1559 0 62.1795 12.9464 805 163.193 926.506 489.256
1560 0 61.1925 13.9069 851 159.727 926.894 487.541
1561 0 65.3751 13.7208 897 154.62 927.904 485.62
1562 0 68.1938 13.359 911 160.468 930.122 485.868
1563 0 69.1792 13.3422 923 157.612 928.484 485.459
1564 0 72.3429 13.5466 980 157.73 927.57 484.701
1565 0 75.1762 13.5149 1016 156.249 927.126 482.872
1566 0 78.598 13.3209 1047 161.522 926.113 481.733
1567 0 80.094 13.5466 1085 158.638 927.206 480.99
1568 0 82.2218 13.5974 1118 159.908 925.225 478.974
1569 0 85.1681 13.5144 1151 163.1 927.511 477.348
1570 0 91.2592 13.7301 1253 157.513 926.288 474.854
1571 1 48.2269 12.7937 617 161.149 927.451 494.165
1572 0 50.309 13.1189 660 154.117 927.285 492.052
1573 0 53.2603 13.0303 694 156.154 928.62 491.647
1574 0 54.2421 13.3476 724 155.778 928.508 491.448
1575 0 55.1832 12.9568 715 160.368 928 491.299
1576 0 56.2213 13.0022 731 165.107 926.135 490.986
1577 1 112.502 14.7019 1654 154.034 928.631 463.824
1578 0 116.254 15.0619 1751 160.895 928.689 462.384
1579 0 120.423 15.2545 1837 157.136 926.386 460.329
1580 0 124.51 15.1955 1892 156.596 924.191 458.32
1581 0 128.493 15.0981 1940 153.176 926.612 457.044
1582 0 132.584 15.3488 2035 156.177 925.503 454.008
1583 0 139.537 15.1286 2111 152.195 926.276 450.869
1584 0 143.304 14.8984 2135 160.596 927.697 448.954
1585 0 147.337 14.8639 2190 163.243 925.813 447.408
1586 0 149.343 15.2869 2283 158.903 925.58 445.461
1587 0 154.263 15.2013 2345 167.446 925.841 444.616
1588 0 158.323 15.5505 2462 162.862 925.397 441.136
1589 0 165.221 15.3128 2530 159.294 924.106 437.392
1590 1 104.244 18.3895 1917 143.879 926.344 461.917
1591 0 102.587 17.3512 1780 147.121 922.958 464.839
1592 0 102.291 17.7337 1814 142.845 926.472 464.349
1593 0 106.136 17.374 1844 142.043 925.325 463.259
1594 0 107.219 16.8254 1804 154.843 924.44 464.085
1595 0 108.19 16.8038 1818 155.507 927.18 462.807
1596 0 111.196 16.2416 1806 153.223 924.973 462.781
1597 0 112.274 15.5156 1742 156.941 923.886 462.393
1598 0 112.605 14.9461 1683 168.751 924.441 463.098
1599 0 114.408 15.1563 1734 168.416 926.251 461.855
1600 0 119.648 14.8102 1772 168.546 925.376 460.117
1601 0 123.447 14.889 1838 160.879 926.239 458.276
1602 0 129.358 14.8425 1920 166.481 926.473 454.932
1603 0 133.394 14.7608 1969 163.996 926.057 451.979
1604 0 139.423 14.5098 2023 170.038 925.631 449.912
1605 0 146.479 14.4253 2113 166.396 929.144 447.03
1606 0 150.396 14.6214 2199 170.427 928.624 445.771
1607 0 153.465 14.6809 2253 165.271 926.601 443.682
1608 0 157.344 14.6939 2312 161.952 926.511 442.001
1609 0 165.441 14.6638 2426 167.944 926.268 438.095
1610 0 175.405 14.6632 2572 164.619 924.672 432.602
1611 0 184.37 14.4709 2668 167.795 926.389 428.35
1612 1 103.194 17.1327 1768 142.175 927.53 464.791
1613 0 103.478 16.9022 1749 144.764 927.227 463.776
1614 0 106.203 16.5344 1756 142.106 929.576 462.48
1615 0 105.426 16.3242 1721 151.102 927.912 463.643
1616 0 109.253 15.5877 1703 151.869 926.651 463.898
1617 0 110.438 14.8137 1636 163.962 927.391 462.881
1618 0 112.414 14.1619 1592 164.634 926.166 462.717
1619 0 114.249 14.6959 1679 170.884 926.77 460.99
1620 0 119.39 14.4652 1727 171.631 927.83 459.77
1621 0 123.366 14.842 1831 164.836 928.685 457.313
1622 0 128.513 14.2787 1835 164.002 926.077 454.249
1623 0 136.388 14.2022 1937 168.598 928.307 452.359
1624 0 140.378 14.3399 2013 167.458 923.877 449.705
1625 0 143.405 14.2952 2050 164.718 925.506 447.979
1626 0 148.39 14.3676 2132 167.003 927.357 445.415
1627 0 152.423 14.5647 2220 162.974 927.914 442.611
1628 0 161.473 14.3553 2318 165.37 927.1 438.381
1629 0 167.361 14.0774 2356 170.522 929.207 436.015
1630 1 100.367 16.9977 1706 134.154 927.965 465.8
1631 1 47.0587 12.0275 566 163.595 924.691 493.707
1632 0 48.0398 12.8227 616 155.69 925.291 490.295
1633 0 50.0464 12.6283 632 157.434 923.492 492.509
1634 0 51.141 12.8077 655 161.264 924.629 492.223
1635 0 52.2325 12.9613 677 160.696 926.301 491.801
1636 0 55.2575 12.1612 672 161.263 926.417 491.33
1637 0 54.1956 12.4733 676 165.848 925.467 490.891
1638 0 63.2957 12.3863 784 159.492 925.397 487.027
1639 0 63.2811 12.5788 796 165.101 923.946 486.533
1640 0 63.2706 12.6283 799 161.434 925.554 487.159
1641 0 62.2121 12.7949 796 157.535 926.307 487.74
1642 0 61.1489 13.3445 816 161.146 927.882 486.526
1643 0 66.1921 12.5846 833 163.848 927.471 485.466
1644 0 69.261 12.8788 892 164.497 926.585 484.15
1645 0 70.1865 12.88 904 160.906 928.415 484.007
1646 0 81.2656 12.7729 1038 159.81 928.584 479.339
1647 0 81.3282 13.1443 1069 164.569 926.978 478.614
1648 0 80.1798 12.7588 1023 163.285 926.675 479.176
1649 0 80.2223 12.403 995 153.953 927.008 479.227
1650 0 84.2057 12.4338 1047 162.52 925.915 477.413
1651 0 87.1692 12.8256 1118 156.852 926.891 475.399
1652 0 90.308 12.8006 1156 163.258 925.275 473.29
1653 1 48.4912 12.0847 586 163.377 926.705 491.241
1654 0 50.5004 12.3761 625 161.486 926.074 490.397
1655 0 52.2702 12.7032 664 157.702 924.818 490.63
1656 0 54.3211 12.3893 673 165.071 927.315 490.825
1657 0 55.1875 12.1586 671 159.311 927.167 490.768
1658 0 55.2077 12.5707 694 163.079 926.073 490.683
1659 1 111.476 14.2901 1593 159.178 926.679 462.121
1660 0 113.26 14.4269 1634 160.991 928.122 461.606
1661 0 117.674 14.0472 1653 166.63 927.114 460.659
1662 0 120.334 14.252 1715 162.174 927.376 458.486
1663 0 126.47 14.2879 1807 162.916 928.196 455.792
1664 0 130.494 14.3838 1877 168.527 929.666 452.713
1665 0 137.612 14.1849 1952 156.652 928.409 448.129
1666 0 142.681 14.1014 2012 168.495 927.379 446.585
1667 0 147.464 14.0102 2066 163.943 925.758 445.149
1668 0 149.456 14.4323 2157 160.379 926.206 443.735
1669 0 153.42 14.242 2185 163.757 928.293 442.319
1670 0 161.461 14.2078 2294 164.622 926.729 438.24
1671 0 167.502 14.0416 2352 160.244 926.901 435.228
1672 0 175.543 13.9851 2455 163.911 926.868 430.974
1673 1 44.063 12.3686 545 171.198 926.266 494.532
1674 0 46.2564 12.5388 580 163.843 927.041 493.809
1675 0 46.1508 13.3259 615 164.917 926.029 493.021
1676 0 49.1543 13.1423 646 158.789 925.562 491.783
1677 0 49.2597 13.236 652 167.106 924.074 491.87
1678 0 49.1422 13.1455 646 165.613 926.522 491.712
1679 0 52.2127 12.813 669 161.637 926.592 491.13
1680 0 52.2302 13.1916 689 170.904 929.194 491.493
1681 0 55.4117 12.741 706 168.63 926.65 491.068
1682 0 59.2 13.0068 770 173.455 927.344 488.245
1683 0 59.3382 12.9596 769 168.105 926.81 488.57
1684 0 58.3032 13.1554 767 168.765 925.211 488.201
1685 0 61.3611 13.2005 810 173.358 925.214 486.89
1686 0 65.2331 13.4288 876 166.126 925.736 484.475
1687 0 69.2923 13.3637 926 165.58 924.851 483.489
1688 0 69.1973 12.9918 899 166.442 926.583 482.947
1689 1 150.51 14.7765 2224 164.225 926.026 442.986
1690 0 154.094 14.3419 2210 164.192 926.53 442.614
1691 0 158.663 14.5466 2308 159.338 927.122 440.263
1692 0 164.739 14.6717 2417 163.955 927.486 437.567
1693 0 174.566 14.3613 2507 164.249 925.379 432.232
1694 0 183.663 14.4722 2658 164.441 927.801 428.354
1695 1 46.4205 12.516 581 165.935 926.487 493.227
1696 0 47.1104 12.7785 602 166.003 925.03 493.228
1697 0 46.0931 13.3859 617 169.7 926.585 492.878
1698 0 47.0975 13.4402 633 166.513 926.006 492.002
1699 0 51.1332 12.8879 659 167.502 927.03 491.137
1700 0 52.1656 12.8437 670 171.493 925.34 490.773
1701 1 109.444 15.8346 1733 161.585 924.478 461.381
1702 0 111.469 14.8023 1650 47.0733 925.407 462.078
1703 0 114.386 14.2588 1631 164.16 926.18 460.83
1704 0 117.476 14.4711 1700 171.809 926.755 460.537
1705 0 119.617 14.7053 1759 164.243 926.648 459.051
1706 0 123.53 14.8223 1831 166.761 927.139 456.708
1707 0 128.46 14.6349 1880 169.614 924.671 454.269
1708 0 135.517 14.3155 1940 164.187 925.135 450.33
1709 0 140.636 14.4699 2035 162.055 922.554 445.411
1710 0 146.711 14.2184 2086 166.864 925.039 443.809
1711 0 148.896 14.1441 2106 166.119 925.253 443.142
1712 0 153.587 14.3306 2201 166.526 927.397 441.562
1713 0 157.96 14.3201 2262 165.754 925.235 440.228
1714 0 162.741 14.4217 2347 168.199 925.587 437.83
1715 0 168.965 14.2811 2413 167.463 923.192 435.361
1716 0 159.62 14.2776 2279 165.606 922.21 437.546
1717 0 159.446 14.1364 2254 167.783 924.004 437.931
1718 1 48.2388 12.521 604 164.043 927.078 491.313
1719 0 48.2462 13.058 630 160.546 924.96 488.605
1720 0 50.1572 12.8995 647 165.964 925.692 490.053
1721 0 52.0892 12.7858 666 157.818 928.468 490.212
1722 0 53.1866 12.5596 668 160.162 928.019 489.792
1723 0 53.0835 12.9796 689 164.486 927.591 489.813
1724 0 55.0807 12.8357 707 162.883 927.56 489.013
1725 0 56.2396 13.4958 759 167.017 925.989 488.527
1726 0 59.2286 12.8823 763 157.008 925.423 487.368
1727 1 119.369 14.5934 1742 156.22 924.445 458.107
1728 0 126.588 13.7059 1735 159.025 924.926 455.428
1729 0 132.672 14.1778 1881 158.841 925.539 451.5
1730 0 137.291 13.7809 1892 156.664 925.79 448.342
1731 0 141.303 14.0903 1991 163.261 924.803 446.102
1732 0 147.385 13.7056 2020 161.477 925.692 444.49
1733 0 150.479 14.1282 2126 159.959 926.04 442.275
1734 0 154.413 14.1051 2178 152.982 925.77 440.428
1735 0 160.401 14.2144 2280 153.432 926.079 436.035
1736 1 43.0479 12.0099 517 160.373 924.602 493.928
1737 0 45.0734 12.1801 549 162.455 925.889 492.811
1738 0 48.1806 12.5569 605 155.717 928.534 484.327
1739 0 48.2195 12.6712 611 156.851 927.722 485.581
1740 0 50.0979 12.9147 647 154.873 926.453 488.071
1741 0 52.1439 12.9449 675 154.265 924.613 489.199
1742 0 52.079 12.9611 675 163.559 926.105 488.896
1743 0 53.0545 12.7039 674 163.108 926.343 489.405
1744 0 55.231 12.1128 669 166.233 926.281 488.761
1745 0 57.1616 12.5259 716 163.633 926.286 488.177
1746 0 56.2292 13.0715 735 164.307 924.648 487.469
1747 0 57.1691 13.5913 777 162.781 925.528 486.744
1748 0 57.2592 13.7795 789 159.08 925.904 486.807
1749 0 57.2702 13.445 770 165.644 925.005 486.413
1750 1 138.97 14.1829 1971 163.983 926.141 447.318
1751 0 143.007 14.2441 2037 161.106 926.994 446.661
1752 0 147.988 14.8728 2201 161.172 928.481 443.76
1753 0 151.724 14.1836 2152 162.063 925.513 442.931
1754 0 155.835 14.3742 2240 167.275 925.001 440.589
1755 0 163.62 14.0814 2304 158.181 926.64 437.139
1756 0 171.717 14.3725 2468 161.177 926.331 432.592
1757 1 44.064 12.1414 535 168.178 928.286 494.247
1758 0 50.346 14.3408 722 149.507 929.048 487.09
1759 0 48.2309 12.4402 600 163.953 928.907 486.905
1760 0 50.2592 12.336 620 163.494 926.248 489.108
1761 0 50.1847 12.8525 645 161.136 925.064 490.716
1762 0 53.1879 12.1644 647 157.924 923.423 490.144
1763 0 53.0958 12.4869 663 163.089 925.995 490.265
1764 0 53.0882 12.5075 664 164.977 926.182 489.774
1765 0 55.1268 12.7343 702 160.712 927.377 488.91
1766 0 55.2676 12.8285 709 165.556 924.616 489.2
1767 0 55.1276 12.5708 693 157.58 926.742 488.929
1768 0 60.1934 12.6924 764 156.177 925.626 487.402
1769 0 63.2259 11.9255 754 154.975 926.752 485.306
1770 0 66.2849 12.3708 820 157.035 925.965 483.809
1771 0 69.4082 12.2608 851 154.39 926.498 482.806
1772 0 69.4509 13.002 903 151.539 927.28 481.857
1773 0 73.2953 12.7566 935 153.603 928.894 480.196
1774 0 75.4489 12.2599 925 159.917 927.454 480.133
1775 0 82.4451 12.3719 1020 158.968 926.258 477.519
1776 1 41.1427 11.375 468 145.137 925.135 496.479
1777 0 44.2447 11.5268 510 141.414 927.776 495.267
1778 0 50.1008 14.371 720 131.253 925.742 490.633
1779 0 52.1265 14.3305 747 133.072 926.538 489.679
1780 0 53.1277 13.7216 729 141.396 924.719 490.376
1781 0 49.1179 12.6023 619 145.879 925.212 490.2
1782 0 51.1068 12.6402 646 146.02 926.201 489.621
1783 0 53.1534 12.0971 643 152.333 926.137 490.008
1784 0 55.1183 11.938 658 149.134 925.979 490.254
1785 0 54.0514 12.6361 683 155.401 927.069 489.479
1786 0 54.1608 12.3336 668 154.816 925.837 489.246
1787 0 57.1551 12.1774 696 157.397 924.583 489.319
1788 0 62.2573 12.0628 751 154.675 927.312 487.3
1789 0 61.1451 12.5276 766 157.95 924.726 487.268
1790 0 63.2999 12.5277 793 158.285 925.791 485.749
1791 0 68.2374 12.9841 886 154.433 926.168 482.798
1792 0 70.3065 12.9433 910 157.396 924.475 480.503
1793 0 72.2583 12.7736 923 150.405 922.697 481.068
1794 0 71.2786 12.879 918 159.416 924.419 481.025
1795 0 74.3268 12.6334 939 154.53 922.74 480.388
1796 0 79.3964 12.5572 997 166.755 923.11 477.913
1797 0 78.4352 12.0992 949 159.838 924.866 477.376
1798 1 120.444 13.7491 1656 161.071 924.672 456.546
1799 0 127.527 13.5109 1723 169.796 923.429 454.216
1800 1 46.2237 12.1799 563 163.247 925.828 488.412
1801 0 46.1585 12.4571 575 158.261 923.81 484.637
1802 0 47.3437 12.5677 595 154.061 922.37 485.894
1803 0 48.1286 11.9264 574 155.683 924.021 488.413
1804 0 49.1011 12.7288 625 163.157 924 488.253
1805 0 50.2333 12.7007 638 167.016 923.561 488.328
1806 0 50.1987 13.0282 654 167.719 922.965 487.743
1807 0 53.1675 12.5641 668 177.895 922.427 487.488
1808 1 110.59 14.1966 1570 164.653 924.77 459.605
1809 0 113.918 14.0627 1602 167 923.919 458.355
1810 0 115.893 14.5479 1686 168.59 924.99 457.181
1811 0 119.71 14.6103 1749 171.917 924.386 454.759
1812 0 126.624 14.318 1813 169.865 924.747 452.002
1813 0 131.831 14.6324 1929 168.639 924.731 448.71
1814 0 137.606 14.4035 1982 163.287 924.939 445.62
1815 0 140.5 14.5338 2042 162.071 924.614 443.276
1816 0 144.487 14.2781 2063 171.476 924.149 443.465
1817 0 147.77 14.3737 2124 165.605 926.143 441.308
1818 0 151.445 14.9361 2262 165.821 925.646 439.061
1819 0 157.758 14.7124 2321 163.017 924.745 435.659
1820 0 163.452 14.7261 2407 163.715 923.661 431.721
1821 1 38.052 11.7471 447 160.673 922.387 493.562
1822 0 41.1494 12.0779 497 155.541 921.654 492.316
1823 0 44.0976 13.4474 593 142.766 921.266 490.059
1824 0 45.1027 13.2365 597 152.586 923.26 490.422
1825 0 46.1187 12.2293 564 153.215 922.021 489.793
1826 0 47.1188 12.5428 591 156.222 922.812 489.049
1827 0 48.0758 12.0019 577 158.882 923.6 489.043
1828 0 49.0588 12.0264 590 147.339 924.346 488.322
1829 0 49.0454 12.152 596 158.248 926.126 488.532
1830 1 110.426 13.7739 1521 161.156 924.119 458.773
1831 0 111.452 14.0329 1564 165.751 923.119 458.334
1832 0 113.525 14.2523 1618 162.964 924.659 457.646
1833 0 119.394 14.3056 1708 162.571 921.86 457.333
1834 0 123.688 14.4961 1793 163.258 924.565 454.268
1835 1 60.163 12.7653 768 159.93 923.909 485.143
1836 0 67.1403 14.5367 976 143.517 924.556 480.225
1837 0 68.1217 13.9456 950 149.622 924.738 479.839
1838 0 67.1479 13.1501 883 157.607 923.948 480.736
1839 0 70.1862 12.88 904 162.51 921.347 479.919
1840 0 71.3681 12.5126 893 158.736 922.996 480.272
1841 1 159.684 14.2594 2277 161.849 921.803 437.375
1842 0 164.915 14.2377 2348 160.991 925.348 434.923
1843 0 173.556 14.3066 2483 161.375 924.156 429.705
1844 1 95.6313 16.4904 1577 127.96 921.834 462.609
1845 1 42.1297 12.1767 513 152.306 924.127 492.049
1846 0 44.066 12.6855 559 154.494 921.39 491.107
1847 0 46.296 12.3769 573 154.654 926.335 489.038
1848 0 49.2689 12.0766 595 150.05 924.035 486.773
1849 0 51.0954 12.4082 634 155.677 923.535 489.667
1850 0 50.069 12.6825 635 157.676 922.783 489.48
1851 0 52.0562 12.5633 654 158.343 921.281 489.266
1852 0 54.0457 12.0269 650 164.52 922.126 488.951
1853 0 55.2087 12.0814 667 158.454 923.717 488.594
1854 0 55.0805 12.6724 698 162.53 925.589 487.897
1855 0 55.0945 12.9051 711 159.889 923.48 487.799
1856 0 60.0165 12.7798 767 160.944 924.24 486.654
1857 0 62.1433 12.5516 780 164.031 924.324 485.283
1858 0 65.0691 12.602 820 164.584 922.194 483.689
1859 0 67.102 12.7865 858 172.262 922.625 482.841
1860 0 70.1477 12.5307 879 162.619 921.396 481.184
1861 0 72.1659 12.6098 910 168.938 923.16 480.07
1862 0 81.3447 12.7605 1038 168 924.201 476.434
1863 0 81.2532 12.6764 1030 166.687 922.969 476.493
1864 0 81.3241 12.6531 1029 165.431 922.104 476.78
1865 0 82.3824 12.709 1047 168.326 924.043 476.216
1866 0 84.2054 12.9327 1089 170.622 923.289 474.611
1867 1 45.1942 12.2803 555 156.843 923.274 492.587
1868 0 47.1861 12.8216 605 161.106 922.405 491.577
1869 0 51.1572 14.2697 730 149.06 924.2 487.949
1870 0 51.3399 12.9529 665 156.159 924.089 487.353
1871 0 53.2935 13.5289 721 160.938 925.316 486.709
1872 0 53.4054 13.4631 719 163.958 922.787 488.188
1873 0 53.2917 13.398 714 162.557 924.071 487.591
1874 0 56.3549 12.9536 730 172.599 923.807 487.788
1875 1 111.542 15.3933 1717 161.98 924.075 459.74
1876 0 112.431 15.574 1751 111.402 926.516 459.883
1877 0 115.682 14.7041 1701 165.976 923.999 458.668
1878 0 118.7 14.6083 1734 168.839 924.055 457.522
1879 0 122.547 15.0065 1839 168.279 924.348 455.436
1880 0 125.76 14.9969 1886 166.251 924.197 453.151
1881 0 132.425 14.9368 1978 168.87 924.33 450.873
1882 0 137.466 14.8327 2039 162.802 924.665 447.781
1883 0 141.472 15.1691 2146 164.108 924.034 445.818
1884 0 145.233 15.0929 2192 165.394 922.728 444.086
1885 0 147.416 15.3715 2266 167.586 921.91 442.862
1886 0 156.447 15.0978 2362 168.943 924.11 439.644
1887 0 162.382 15.2172 2471 165.248 925.161 435.353
1888 1 44.0199 12.5398 552 166.986 924.29 492.681
1889 0 46.1066 13.1001 604 161.3 922.644 490.57
1890 0 48.1088 14.0307 675 162.521 925.209 489.342
1891 0 48.1211 14.3388 690 168.258 924.874 489.041
1892 0 49.2131 13.1469 647 167.852 923.927 489.856
1893 0 50.0746 13.5398 678 170.021 926.018 489.037
1894 0 52.2184 13.4818 704 173.51 924.862 489.368
1895 0 53.1416 13.5487 720 168.076 925.979 488.446
1896 0 53.2349 13.6189 725 171.637 924.417 488.156
1897 0 56.2307 13.249 745 163.149 923.809 487.774
1898 1 115.295 14.8488 1712 163.366 922.375 459.378
1899 0 117.296 14.8599 1743 162.077 925.469 458.478
1900 0 121.372 15.1106 1834 170.282 924.601 456.477
1901 0 125.524 15.6464 1964 164.361 925.259 454.018
1902 0 131.514 15.3216 2015 161.776 926.208 451.676
1903 0 137.24 15.3235 2103 163.126 925.578 447.763
1904 0 140.234 15.4029 2160 161.37 923.557 445.915
1905 0 146.477 15.2788 2238 155.288 924.057 443.443
1906 0 149.494 15.3384 2293 162.993 923.332 442.619
1907 0 150.433 15.6282 2351 163.926 924.778 441.129
1908 0 156.595 15.7348 2464 164.134 927.659 438.579
1909 0 161.46 15.942 2574 164.325 925.651 436.16
1910 0 168.713 15.6123 2634 166.198 926.065 433.72
1911 0 176.373 15.4672 2728 162.169 925.828 429.175
1912 1 104.906 17.6253 1849 137.209 924.647 462.464
1913 0 102.156 18.1488 1854 145.789 923.704 461.717
1914 0 104.172 18.3158 1908 145.972 923.289 459.846
1915 0 105.379 18.6755 1968 145.855 924.912 459.003
1916 0 107.241 17.4934 1876 151.086 923.406 459.319
1917 0 107.278 16.928 1816 152.437 923.224 459.361
1918 0 110.254 16.0901 1774 159.517 922.899 459.589
1919 0 110.346 15.1795 1675 172.423 923.254 459.804
1920 0 114.316 15.0898 1725 169.183 921.402 458.456
1921 0 116.299 15.3398 1784 165.59 922.268 457.307
1922 0 116.299 15.3398 1784 174.716 923.268 457.307
1923 0 127.57 15.5052 1978 168.094 923.27 452.868
1924 0 130.337 15.3756 2004 164.766 924.144 450.543
1925 0 136.453 15.4339 2106 151.239 925.199 447.151
1926 0 141.267 15.5167 2192 160.614 924.615 445.689
1927 0 146.338 15.2524 2232 160.271 925.828 443.851
1928 0 151.283 15.4545 2338 161.543 925.496 441.198
1929 0 157.195 15.503 2437 161.581 925.247 437.821
1930 0 164.473 15.3399 2523 162.078 925.746 433.684
1931 0 172.298 15.1772 2615 161.808 925.031 428.896
1932 1 99.4966 18.282 1819 134.33 926.396 462.926
1933 0 101.384 17.7642 1801 144.025 927.846 461.493
1934 1 46.1062 13.7509 634 165.287 925.593 488.172
1935 0 48.0605 13.4206 645 166.631 923.341 489.254
1936 0 49.1277 13.5565 666 158.243 925.158 488.781
1937 0 51.2087 13.0447 668 176.705 924.036 488.985
1938 0 51.2398 13.1734 675 167.133 924.593 489.281
1939 1 110.607 15.7947 1747 166.301 924.358 459.441
1940 0 111.42 14.8268 1652 171.13 923.982 459.963
1941 0 114.488 14.6303 1675 174.549 924.555 459.407
1942 0 117.477 14.8455 1744 171.47 923.282 457.034
1943 0 124.389 14.535 1808 170.122 924.239 454.695
1944 0 131.532 14.4223 1897 166.766 924.931 449.929
1945 1 139.4 13.924 1941 155.922 923.81 442.154
1946 0 142.554 14.2262 2028 159.697 924.146 442.857
1947 0 147.533 14.4984 2139 153.984 923.535 442.115
1948 0 150.523 14.5625 2192 154.651 921.569 440.927
1949 0 154.229 14.4979 2236 152.972 925.735 440.148
1950 0 161.258 14.6411 2361 146.405 924.951 436.228
1951 0 167.655 14.4583 2424 147.566 923.727 433.238
1952 0 175.558 14.3314 2516 150.54 924.081 429.219
1953 1 44.2126 12.7566 564 150.768 924.872 491.596
1954 0 46.0977 13.2328 610 155.364 923.497 489.946
1955 0 47.1872 13.1603 621 155.23 923.356 488.491
1956 0 49.1331 13.2497 651 149.154 921.986 487.849
1957 0 51.0906 13.5054 690 153.893 924.043 486.825
1958 0 53.1167 13.0467 693 152.697 923.349 486.694
1959 0 54.1893 13.2683 719 152.791 926.561 486.687
1960 0 54.1964 13.2666 719 154.328 925.637 487.416
1961 1 110.255 16.1807 1784 148.189 926.22 458.531
1962 0 112.188 15.3759 1725 148.73 924.974 458.636
1963 0 113.244 15.2502 1727 151.011 925.283 457.363
1964 0 117.372 15.5658 1827 167.927 926.211 455.236
1965 0 124.535 14.8793 1853 174.357 926.793 453.267
1966 0 131.479 14.8997 1959 167.009 925.137 448.434
1967 0 136.468 14.6628 2001 169.898 927.534 444.764
1968 0 142.281 14.8369 2111 166.384 927.31 442.187
1969 0 145.369 14.7625 2146 168.423 927.637 440.549
1970 0 147.413 15.1479 2233 169.397 924.524 438.24
1971 0 153.422 14.9131 2288 164.248 925.518 436.44
1972 0 159.375 15.0274 2395 157.806 926.261 433.077
1973 0 164.316 15.1963 2497 166.584 924.773 430.806
1974 1 45.0793 12.2229 551 159.512 922.639 489.768
1975 0 45.1359 12.9166 583 164.081 923.966 489.12
1976 0 50.0689 13.9608 699 151.468 926.282 486.02
1977 0 51.0243 13.5622 692 153.559 924.303 486.368
1978 0 51.0857 13.4871 689 156.826 924.869 485.657
1979 0 53.0744 13.0006 690 152.571 923.514 485.343
1980 0 54.1368 13.1334 711 154.435 923.191 484.812
1981 0 56.0956 12.7639 716 154.869 923.482 484.042
1982 0 56.0601 12.772 716 153.764 922.575 484.527
1983 0 59.1983 12.8044 758 155.533 924.681 483.834
1984 0 59.1122 13.1276 776 146.361 923.678 483.523
1985 0 60.1458 12.9352 778 160.248 923.721 482.701
1986 0 63.1297 13.1792 832 157.951 923.536 480.887
1987 0 68.0564 12.8864 877 154.488 923.513 479.505
1988 0 70.1313 13.1468 922 153.589 923.932 477.318
1989 0 73.13 12.8128 937 158.489 923.475 476.852
1990 0 74.1329 12.572 932 152.021 926.761 476.723
1991 0 74.0962 12.7942 948 158.301 924.728 476.335
1992 0 79.1037 12.6796 1003 155.548 927.752 474.279
1993 1 40.0231 11.9681 479 156.338 925.171 492.094
1994 0 43.0246 12.0629 519 147.919 925.47 490.129
1995 0 44.0485 12.3727 545 146.035 923.743 487.745
1996 0 46.2396 12.4136 574 150.434 924.108 486.688
1997 0 48.0168 12.8288 616 149.607 925.192 487.284
1998 0 49.0598 12.7599 626 144.185 926.665 486.446
1999 0 50.053 12.8863 645 153.29 925.233 487.296
2000 0 51.1336 12.8878 659 154.3 925.285 486.88
2001 0 52.0961 12.7841 666 159.539 926.779 487.128
2002 1 110.159 14.8058 1631 159.275 924.741 457.961
2003 0 111.444 14.4736 1613 162.847 926.301 457.403
2004 0 115.197 14.6098 1683 162.409 924.969 455.453
2005 0 117.231 14.6036 1712 167.121 924.583 453.943
2006 0 125.206 14.5041 1816 169.633 926.057 451.518
2007 1 64.0341 13.2586 849 156.715 924.125 480.681
2008 0 67.0886 13.0126 873 159.747 923.097 479.285
2009 0 67.0458 13.4386 901 159.044 923.374 477.797
2010 0 70.0252 13.1667 922 162.066 924.983 477.653
2011 0 71.0805 12.8868 916 162.082 921.983 477.022
2012 0 73.1558 13.6011 995 169.787 924.645 476.006
2013 0 73.0638 13.6867 1000 162.328 925.26 475.86
2014 0 73.1818 13.7056 1003 165.489 925.692 475.465
2015 1 103.096 18.9435 1953 139.985 926.082 455.549
2016 1 45.2002 12.2123 552 162.455 927.085 489.149
2017 0 48.183 12.3695 596 163.832 925.086 488.728
2018 0 49.2504 13.2588 653 155.694 925.404 486.539
2019 0 50.2268 12.8617 646 162.711 924.19 486.43
2020 0 51.1468 13.4124 686 159.376 923.551 486.62
2021 0 52.1618 13.3048 694 166.254 924.965 486.16
2022 0 53.2789 12.9132 688 162.496 924.904 486.124
2023 0 56.1673 12.9079 725 171.04 922.766 486.091
2024 0 55.1827 13.9899 772 166.281 922.978 484.859
2025 0 56.3083 13.9411 785 164.25 921.702 484.987
2026 0 56.1302 14.1991 797 173.434 922.586 484.89
2027 0 56.1343 14.2515 800 168.841 920.878 484.322
2028 0 64.0473 13.49 864 155.09 922.28 481.334
2029 0 65.1182 14.0821 917 164.98 923.877 479.264
2030 0 69.1847 13.9482 965 164.152 923.517 478.042
2031 1 145.276 14.9784 2176 168.933 926.037 441.652
2032 0 148.4 14.5014 2152 168.403 926.132 440.774
2033 0 153.296 14.7688 2264 169.846 925.246 439.984
2034 0 158.218 14.5749 2306 160.21 924.958 437.042
2035 0 165.428 14.8464 2456 172.941 924.928 433.299
2036 0 175.226 14.5755 2554 170.347 926.463 428.671
2037 1 45.2624 12.6816 574 170.491 924.723 489.943
2038 0 48.1753 12.9319 623 162.194 924.323 487.462
2039 0 49.1088 13.0934 643 162.813 925.656 488.345
2040 0 50.0844 13.1977 661 163.458 926.38 488.681
2041 0 52.095 13.1491 685 164.236 926.679 487.896
2042 0 52.1233 12.9501 675 164.441 927.487 487.822
2043 0 53.113 13.0476 693 158.913 926.633 487.17
2044 0 56.2085 12.5782 707 158.897 927.577 486.634
2045 1 112.355 15.0238 1688 162.851 927.227 459.296
2046 0 115.359 14.8927 1718 161.914 925.628 457.045
2047 0 119.235 15.0459 1794 161.119 924.098 455.832
2048 0 123.561 15.11 1867 152.694 925.792 453.286
2049 0 131.244 14.6445 1922 159.467 926.146 449.147
2050 0 137.183 14.7248 2020 148.82 924.362 445.721
2051 0 140.317 14.4744 2031 150.621 925.904 444.746
2052 0 146.561 14.2603 2090 155.567 925.229 442.81
2053 0 150.224 13.9192 2091 159.994 924.676 441.736
2054 0 155.337 15.2249 2365 145.822 924.616 438.037
2055 0 157.76 14.3826 2269 150.082 926.07 438.434
2056 0 161.781 14.7731 2390 154.756 925.594 435.849
2057 0 161.651 19.2514 3112 129.232 925.708 425.654
2058 1 45.0805 12.7549 575 142.704 925.113 491.812
2059 0 45.1398 13.2477 598 145.194 923.687 490.301
2060 0 46.1183 12.9666 598 152.56 925.38 490.254
2061 0 48.1375 12.859 619 144.774 926.027 489.845
2062 0 47.2711 13.412 634 149.871 925.563 489.962
2063 0 50.0894 13.0367 653 147.896 925.17 489.851
2064 0 50.2703 13.0296 655 151.887 924.65 489.876
2065 1 110.497 16.471 1820 145.868 923.677 457.872
2066 0 112.621 15.5832 1755 151.711 924.84 458.45
2067 0 116.739 14.5796 1702 158.267 924.821 458.655
2068 0 119.556 14.2945 1709 162.396 923.803 457.018
2069 0 126.556 14.3494 1816 152.257 924.928 453.116
2070 0 134.662 14.2579 1920 161.373 927.497 447.893
2071 0 139.456 14.3557 2002 152.914 924.512 443.107
2072 0 144.477 13.8846 2006 161.695 924.581 443.951
2073 0 146.552 14.1929 2080 157.02 925.089 442.407
2074 1 108.45 13.7575 1492 167.099 924.36 461.431
2075 0 112.654 13.7146 1545 169.5 923.395 460.056
2076 0 115.681 14.1855 1641 164.564 924.088 458.01
2077 0 120.099 13.9135 1671 167.51 923.99 455.802
2078 0 124.836 14.0184 1750 164.134 924.283 453.532
2079 0 129.891 14.3659 1866 157.399 925.397 449.262
2080 1 46.2829 12.8773 596 140.446 924.651 491.347
2081 0 54.2134 14.9594 811 134.413 924.181 486.527
2082 0 53.2471 14.6299 779 139.503 925 486.164
2083 0 52.2628 13.5661 709 145.977 925.357 486.57
2084 0 55.2239 12.5851 695 154.073 925.16 486.81
2085 0 54.3659 12.747 693 148.101 924.496 486.266
2086 0 55.4923 12.7045 705 153.348 927.017 486.708
2087 0 58.2835 12.3706 721 155.896 923.607 485.935
2088 0 60.2404 12.4667 751 162.071 924.844 485.704
2089 0 60.246 12.9635 781 156.722 926.12 484.574
2090 0 60.4171 12.8275 775 154.138 926.507 484.195
2091 0 65.323 12.1244 792 156.554 926.056 482.261
2092 0 69.3092 12.2206 847 146.679 926.79 480.279
2093 0 72.2451 12.0977 874 156.285 925.318 479.28
2094 1 40.0439 11.1628 447 153.758 925.935 494.315
2095 0 42.0363 11.3473 477 151.474 923.698 493.857
2096 0 43.0284 11.5273 496 158.266 924.294 493.401
2097 0 45.2621 11.577 524 150.45 922.763 492.515
2098 0 45.1857 12.1056 547 152.239 926.291 491.062
2099 0 47.3214 11.9396 565 151.184 924.816 490.49
2100 0 50.5539 12.1652 615 148.405 924.969 482.46
2101 0 50.4227 12.7919 645 138.719 924.006 483.964
2102 0 54.1661 12.5724 681 148.606 921.94 486.204
2103 0 54.1808 12.3291 668 150.132 923.57 486.636
2104 0 56.2744 11.8704 668 145.608 925.29 485.627
2105 0 57.2941 11.7464 673 151.058 923.749 486.288
2106 0 59.2408 11.9175 706 149.466 923.174 485.435
2107 0 60.1978 12.0104 723 150.487 925.548 484.784
2108 0 61.2514 11.6406 713 148.457 924.098 484.205
2109 0 64.1249 12.0078 770 151.616 925.223 482.349
2110 1 36.2377 10.5139 381 149.244 924.047 494.021
2111 0 35.1045 11.4515 402 147.266 926.189 494.627
2112 0 38.0631 11.2707 429 150.494 924.779 495.17
2113 0 39.0897 11.512 450 151.136 926.867 494.831
2114 0 37.1991 12.339 459 149.956 923.349 494.743
2115 1 110.876 13.9795 1550 167.836 923.988 460.379
2116 0 114.714 13.7734 1580 157.262 923.184 459.932
2117 0 119.35 13.9422 1664 157.593 924.049 457.919
2118 1 52.2406 16.0986 841 133.62 926.249 486.869
2119 0 50.2732 15.9926 804 139.553 922.096 486.153
2120 0 50.4062 13.1531 663 154.554 924.211 482.252
2121 0 50.3491 13.3865 674 155.818 924.54 484.636
2122 0 53.3665 12.8732 687 157.1 926.566 487.314
2123 0 53.2709 13.0277 694 156.794 921.929 486.96
2124 0 55.2708 13.1896 729 167.584 922.543 486.964
2125 0 64.3959 12.9046 831 163.063 922.106 483.727
2126 0 63.3454 13.3869 848 163.502 923.508 483.583
2127 0 65.43 12.884 843 168.414 925.145 483.703
2128 0 64.3294 13.0889 842 168.65 924.732 483.486
2129 0 62.1549 13.3698 831 167.013 925.149 483.194
2130 0 65.1537 13.1689 858 173.353 926.345 482.258
2131 0 65.1537 13.1689 858 183.728 926.345 482.258
2132 0 67.1466 13.9248 935 167.811 924.911 479.968
2133 0 72.1989 13.6567 986 165.52 925.454 478.822
2134 0 75.2223 13.1477 989 170.639 925.07 478.185
2135 0 83.3863 13.0237 1086 167.997 923.826 474.152
2136 0 83.344 12.9823 1082 173.177 926.353 474.587
2137 0 84.1446 13.1322 1105 166.426 925.287 473.868
2138 0 83.1647 13.7077 1140 168.963 924.378 473.351
2139 0 89.4734 14.0377 1256 168.175 924.65 469.828
2140 1 108.069 17.1835 1857 134.768 924.88 459.831
2141 0 103.176 18.0178 1859 135.981 923.274 458.481
2142 0 104.261 17.3219 1806 146.384 923.314 458.87
2143 0 104.155 16.7443 1744 149.547 924.097 458.038
2144 0 109.164 16.7821 1832 146.8 925.566 458.172
2145 0 112.147 16.0771 1803 156.558 923.506 457.985
2146 0 111.29 14.9789 1667 157.169 925.429 458.249
2147 0 114.364 14.1828 1622 165.814 923.952 458.21
2148 0 117.387 14.2861 1677 161.393 927.036 457.907
2149 0 119.41 14.8564 1774 159.6 924.517 455.812
2150 0 122.701 14.9387 1833 160.067 924.73 454.417
2151 0 126.443 15.0187 1899 165.637 926.509 452.639
2152 0 133.733 15.2617 2041 169.246 926.8 449.599
2153 0 137.425 15.4121 2118 167.03 924.3 446.602
2154 0 141.437 15.5122 2194 164.341 924.701 444.649
2155 0 146.655 15.383 2256 162.709 925.82 442.987
2156 0 149.55 15.8609 2372 155.122 924.591 439.98
2157 0 149.55 15.8609 2372 167.841 923.591 439.98
2158 1 100.617 19.609 1973 142.372 925.763 458.234
2159 0 97.3663 17.542 1708 139.342 922.332 460.967
2160 0 102.951 18.0086 1854 131.088 925.89 457.709
2161 0 103.65 17.3662 1800 143.479 924.759 458.534
2162 0 104.577 17.3844 1818 141.526 924.833 457.564
2163 0 107.465 17.2336 1852 143.178 925.252 457.744
2164 0 109.313 17.0154 1860 139.92 925.074 457.865
2165 0 110.45 16.5232 1825 151.906 925.514 457.484
2166 0 111.594 15.6729 1749 155.271 926.201 457.775
2167 0 112.262 14.4662 1624 163.292 926.305 458.908
2168 0 115.214 14.6163 1684 161.007 926.467 458.306
2169 0 120.453 14.3293 1726 160.561 927.056 455.873
2170 0 125.284 15.0857 1890 160.841 926.059 453.421
2171 1 66.2907 13.0939 868 158.437 926.329 481.582
2172 0 67.3195 13.4285 904 163.414 926.617 480.876
2173 0 70.4286 13.1481 926 156.864 923.746 479.309
2174 0 72.2434 13.3853 967 161.611 926.294 478.567
2175 0 75.3859 13.4641 1015 158.196 925.226 477.574
2176 0 75.3659 13.3615 1007 158.516 926.355 477.055
2177 0 80.1645 13.3226 1068 155.369 926.164 474.36
2178 0 82.208 13.624 1120 159.579 927.761 473.066
2179 0 84.3821 13.984 1180 160.054 927.379 470.685
2180 1 99.4589 17.5449 1745 133.791 926.029 459.252
2181 0 100.656 17.6145 1773 137.914 925.805 458.316
2182 0 103.602 16.7275 1733 142.855 924.689 457.84
2183 0 103.542 17.1331 1774 136.618 927.063 457.58
2184 0 106.473 16.3704 1743 143.464 925.974 458.824
2185 0 109.426 16.1662 1769 137.566 925.3 457.92
2186 0 107.417 15.5096 1666 153.436 925.405 458.764
2187 0 111.403 14.8112 1650 154.981 925.279 458.354
2188 0 115.319 14.6723 1692 156.919 925.209 456.726
2189 0 118.368 14.8267 1755 155.718 927.226 454.668
2190 0 124.368 15.2209 1893 155.294 927.575 452.877
2191 0 127.283 14.7388 1876 151.425 926.901 450.56
2192 0 131.416 14.6558 1926 154.761 924.984 448.128
2193 0 137.364 15.0767 2071 149.915 925.329 444.467
2194 0 142.427 14.7515 2101 150.046 927.181 442.313
2195 0 148.34 14.6083 2167 153.034 925.686 440.631
2196 0 151.426 14.7464 2233 151.32 927.093 439.249
2197 0 157.342 15.0564 2369 157.693 926.381 435.684
2198 1 83.4385 12.68 1058 153.129 925.422 473.219
2199 0 87.2967 13.1162 1145 160.748 925.863 470.431
2200 1 100.473 16.8802 1696 130.481 925.781 460.139
2201 0 101.468 17.444 1770 129.753 924.15 457.797
2202 0 104.647 18.1085 1895 135.296 926.309 456.681
2203 0 106.524 17.3294 1846 133.446 924.483 456.744
2204 0 108.307 17.4781 1893 134.701 925.898 456.64
2205 0 110.38 17.5575 1938 137.471 925.55 457.051
2206 0 111.299 16.586 1846 146.813 924.01 456.523
2207 0 114.314 15.7199 1797 156.205 925.885 456.817
2208 0 116.289 14.5156 1688 153.057 925.717 456.783
2209 0 120.284 14.4408 1737 148.63 927.021 454.448
2210 0 126.286 14.6731 1853 158.457 926.517 451.391
2211 0 131.454 14.7732 1942 161.705 927.882 449.946
2212 0 133.318 14.6342 1951 158.732 927.808 448.093
2213 0 140.413 14.8419 2084 158.79 927.297 445.818
2214 0 145.377 14.6378 2128 164.88 927.893 443.185
2215 0 149.306 14.8152 2212 158.235 925.127 439.964
2216 0 156.324 14.7578 2307 162.676 927.764 438.297
2217 0 159.424 15.3615 2449 164.89 928.482 435.443
2218 0 167.29 15.1413 2533 163.748 925.815 431.795
2219 0 175.405 14.9996 2631 154.845 926.374 427.521
2220 1 104.251 18.4267 1921 126.643 924.711 458.819
2221 0 106.167 17.4725 1855 145.642 926.218 458.718
2222 0 108.624 17.6297 1915 144.16 925.432 457.405
2223 0 108.326 17.3551 1880 145.798 922.69 457.655
2224 0 109.315 17.1156 1871 148.754 927.317 457.032
2225 0 111.285 16.3545 1820 155.478 926.745 456.653
2226 0 113.412 15.0072 1702 158.565 926.658 456.864
2227 0 116.195 14.708 1709 156.69 927.115 455.946
2228 0 120.219 14.6317 1759 163.314 926.73 453.674
2229 0 124.286 15.0781 1874 152.906 926.816 450.762
2230 0 129.235 15.1197 1954 158.84 926.928 448
2231 0 136.266 14.9854 2042 154.593 925.363 445.238
2232 0 139.357 15.2415 2124 156.217 925.063 442.525
2233 0 146.601 14.8839 2182 151.023 923.242 440.516
2234 0 151.278 15.0518 2277 151.914 925.158 438.537
2235 0 153.302 14.9769 2296 155.724 924.642 437.052
2236 0 159.412 14.7041 2344 148.029 925.375 434.905
2237 0 166.651 14.7374 2456 152.057 925.531 429.784
2238 1 105.181 17.1704 1806 114.154 924.648 457.976
2239 0 107.461 17.5692 1888 124.725 926.246 455.666
2240 0 106.138 16.4502 1746 126.137 926.976 456.123
2241 0 106.138 16.4502 1746 135.791 927.976 456.123
2242 0 110.202 16.7511 1846 130.068 927.914 454.551
2243 0 111.073 16.1246 1791 137.773 925.283 454.499
2244 0 112.228 15.7358 1766 139.984 923.867 454.106
2245 0 113.361 15.1374 1716 147.53 925.809 454.83
2246 0 113.344 14.6545 1661 148.537 925.61 455.22
2247 0 115.559 14.114 1631 150.578 925.332 454.871
2248 0 122.375 14.1532 1732 144.543 926.353 452.339
2249 0 128.77 13.9241 1793 153.289 926.714 448.004
2250 0 133.284 14.0301 1870 152.4 926.968 444.173
2251 0 139.492 13.7857 1923 149.637 927.733 442.468
2252 0 143.296 13.7897 1976 145.243 925.11 438.961
2253 0 146.296 13.9853 2046 146.846 925.208 437.83
2254 0 151.26 13.4603 2036 141.922 925.336 436.607
2255 0 152.533 13.9052 2121 148.947 927.826 435.555
2256 0 160.773 14.1069 2268 159.362 925.641 432.428
2257 1 101.487 14.859 1508 116.428 925.993 459.312
2258 1 48.2207 10.6593 514 130.792 925.288 486.243
2259 0 48.1222 11.2214 540 132.044 922.546 487.207
2260 0 51.1759 11.1185 569 133.8 924.928 482.102
2261 0 52.318 11.583 606 136.013 926.32 483.536
2262 0 53.3328 11.6626 622 133.309 927.143 484.834
2263 0 53.3208 11.5902 618 138.189 926.424 485.235
2264 0 56.2304 11.6663 656 139.739 925.771 484.453
2265 0 56.3278 11.4331 644 142.707 925.974 483.829
2266 0 57.5731 11.62 669 139.679 925.957 484.191
2267 0 60.2761 11.0326 665 150.964 927.293 483.829
2268 0 59.2157 11.8212 700 144.22 926.173 483.086
2269 0 68.3773 11.5682 791 147.872 927.729 480.075
2270 0 65.5765 11.8793 779 146.727 926.444 480.281
2271 0 69.4588 12.4966 868 148.251 927.667 475.659
2272 0 71.4728 12.1725 870 149.308 926.754 476.057
2273 0 73.2864 11.803 865 146.579 926.889 475.295
2274 0 75.2717 12.156 915 148.032 926.495 475.009
2275 0 76.2544 11.9075 908 154.652 927.28 475.093
2276 0 75.3359 11.8138 890 146.262 926.221 474.013
2277 0 83.4067 11.9175 994 148.414 925.131 471.331
2278 0 87.3802 12.2453 1070 148.799 923.964 468.282
2279 0 87.3802 12.2453 1070 158.962 922.964 468.282
2280 1 49.4884 13.8416 685 133.747 926.648 480.6
2281 0 48.3109 12.2747 593 137.691 927.523 480.944
2282 0 51.1901 12.3657 633 135.341 927.769 483.518
2283 0 51.4032 12.6451 650 137.778 926.788 484.126
2284 0 53.3987 12.3224 658 140.679 927.445 485.096
2285 0 55.243 12.273 678 140.369 928.59 484.59
2286 0 53.3509 12.3334 658 145.767 929.223 485.538
2287 0 54.4195 12.0729 657 150.755 928.714 485.146
2288 0 57.5184 12.17 700 154.76 925.98 484.266
2289 0 58.4994 12.3933 725 159.774 926.95 484.006
2290 0 58.2881 12.1809 710 153.442 925.67 483.718
2291 0 60.5033 12.4952 756 151.636 925.64 482.228
2292 0 62.2445 13.0293 811 155.111 924.928 481.247
2293 0 65.5311 13.2151 866 151.518 923.552 477.707
2294 0 70.5998 12.9179 912 146.761 923.83 475.939
2295 0 71.6122 12.6375 905 147.199 924.16 476.459
2296 0 71.2607 13.0928 933 153.572 926.128 476.936
2297 0 73.275 12.5554 920 160.268 927.724 477.083
2298 0 75.4152 12.0798 911 151.305 927.65 477.01
2299 0 77.3569 12.2549 948 157.081 925.535 475.658
2300 1 167.928 14.2501 2393 150.307 926.827 431.57
2301 1 43.3577 12.1778 528 162.229 926.341 488.447
2302 0 45.1567 12.0026 542 164.952 924.315 488.952
2303 0 45.1361 13.1159 592 161.331 925.275 489.272
2304 0 47.3959 13.3556 633 156.731 925.155 486.038
2305 0 47.2748 13.3686 632 151.476 925.788 487.354
2306 0 50.2358 13.1181 659 160.798 925.114 487.527
2307 0 50.2887 13.502 679 161.859 924.633 487.854
2308 0 53.2708 12.9715 691 164.612 924.744 487.149
2309 0 53.2394 12.7913 681 164.132 923.988 487.37
2310 0 54.1898 12.936 701 155.478 923.245 486.401
2311 0 54.0918 13.8099 747 161.831 924.104 485.917
2312 0 55.2949 13.5455 749 160.849 924.033 485.403
2313 0 56.2816 13.7167 772 155.959 924.641 485.648
2314 0 63.3238 13.2652 840 162.415 923.054 482.254
2315 0 65.3042 13.4601 879 163.014 926.965 480.499
2316 0 68.5437 13.4075 919 164.397 926.453 478.505
2317 0 70.2807 13.4176 943 152.99 927.46 478.164
2318 0 72.3418 12.8695 931 167.774 925.96 477.905
2319 0 73.3428 13.8255 1014 164.592 926.405 476.781
2320 0 73.4166 13.798 1013 159.454 925.491 476.68
2321 0 82.2707 13.3948 1102 162.27 927.196 472.89
2322 1 43.2893 12.5204 542 158.528 928.05 487.871
2323 0 44.116 13.0112 574 160.456 928.578 488.544
2324 0 46.0925 12.4315 573 156.218 924.731 487.483
2325 0 50.2248 14.0369 705 142.946 924.365 483.603
2326 0 48.2075 13.7945 665 153.958 927.021 484.326
2327 0 49.2503 12.9745 639 159.8 927.862 484.648
2328 0 50.1429 13.4217 673 158.863 925.938 484.889
2329 0 51.1622 13.0956 670 158.145 924.476 485.048
2330 0 52.1018 13.2049 688 155.15 925.318 484.279
2331 0 53.0936 12.8264 681 162.493 923.533 483.866
2332 0 54.0906 13.0891 708 159.571 926.597 483.653
2333 0 60.146 12.5528 755 156.09 927.657 482.457
2334 0 59.2844 12.7352 755 155.681 927.981 481.587
2335 0 61.2139 13.2323 810 154.551 926.447 480.678
2336 0 65.094 12.9351 842 155.002 925.879 478.127
2337 0 67.1238 13.2293 888 155.259 926.481 476.792
2338 0 69.265 13.138 910 151.107 926.423 475.759
2339 0 70.1976 12.9349 908 151.631 925.384 475.373
2340 0 72.2073 12.6026 910 146.747 923.753 474.805
2341 0 75.1908 12.3153 926 150.404 925.035 474.305
2342 0 77.2366 12.7012 981 151.104 922.472 471.815
2343 0 82.2279 12.8788 1059 156.924 925.096 469.959
2344 1 42.1113 12.277 517 151.807 926.418 486.406
2345 0 43.113 12.2005 526 151.616 924.857 486.578
2346 0 44.0497 13.0307 574 149.157 924.747 486.005
2347 0 47.0805 12.8291 604 143.136 926.47 485.995
2348 0 48.1055 12.9299 622 145.995 924.535 484.559
2349 0 50.1165 12.8301 643 141.126 926.064 484.989
2350 0 51.1417 12.2014 624 152.726 924.838 484.622
2351 0 52.0961 12.4002 646 153.621 926.783 484.11
2352 0 52.1093 12.5313 653 153.665 925.27 483.816
2353 0 54.0626 12.8555 695 155.875 927.459 482.898
2354 0 59.1525 12.696 751 153.972 927.787 481.901
2355 0 58.134 12.9184 751 157.949 926.617 481.832
2356 0 60.2826 13.586 819 155.542 927.706 479.839
2357 0 63.1741 13.4391 849 153.347 926.585 478.229
2358 0 63.1741 13.4391 849 167.319 925.585 478.229
2359 0 68.1375 13.3847 912 158.157 926.172 475.975
2360 0 69.2612 13.5574 939 162.979 925.22 475.624
2361 0 72.2679 13.2147 955 162.818 926.57 475.699
2362 0 72.1263 13.7814 994 160.424 923.52 474.129
2363 0 76.1898 13.2957 1013 168.758 923.452 472.763
2364 0 81.1459 13.0752 1061 160.121 925.601 471.444
2365 0 84.2079 13.6686 1151 162.958 927.81 468.791
2366 1 100.307 17.4763 1753 129.105 928.006 458.576
2367 1 46.0355 13.142 605 165.83 926.775 487.112
2368 0 47.0625 13.0677 615 155.119 926.363 485.93
2369 0 47.1318 13.6214 642 162.265 928.02 485.277
2370 0 50.0802 12.9193 647 163.039 925.597 485.359
2371 0 52.0993 13.052 680 161.476 927.556 485.143
2372 0 53.1047 13.012 691 169.253 928.486 484.36
2373 1 111.284 16.0221 1783 156.968 926.02 456.145
2374 0 112.145 15.2036 1705 158.451 925.53 456.849
2375 0 116.258 14.9754 1741 158.329 928.748 455.975
2376 0 120.323 15.0346 1809 158.117 927.323 453.52
2377 0 126.398 14.8578 1878 156.773 927.335 450.498
2378 0 131.212 15.0138 1970 152.769 926.588 447.049
2379 0 138.367 14.8518 2055 155.927 926.865 443.604
2380 0 142.256 15.1065 2149 150.8 927.29 441.604
2381 0 145.374 15.1265 2199 152.462 928.508 440.533
2382 0 147.441 15.1993 2241 157.015 928.041 440.331
2383 0 153.785 15.1901 2336 156.643 928.433 438.285
2384 0 158.47 15.0375 2383 157.17 926.876 435.941
2385 0 165.784 16.6301 2757 152.22 926.756 430.39
2386 0 171.465 14.9885 2570 155.949 927.902 430.988
2387 1 46.1395 12.874 594 154.813 926.961 489.274
2388 0 46.2455 13.6446 631 151.326 929.607 488.718
2389 0 49.3069 13.0002 641 154.978 931.345 486.758
2390 0 50.276 13.227 665 154.057 929.786 486.968
2391 0 50.276 13.227 665 171.056 928.786 486.968
2392 0 52.1947 13.0856 683 160.707 927.931 486.944
2393 0 53.2432 12.8843 686 161.703 927.02 486.583
2394 0 56.1136 13.4192 753 153.821 927.456 485.535
2395 0 56.1107 13.4734 756 158.139 928.44 485.616
2396 0 56.0988 13.7614 772 159.259 927.452 485.525
2397 0 56.129 13.8609 778 163.339 928.925 484.374
2398 0 57.2178 14.2788 817 160.601 928.262 484.411
2399 0 63.0918 13.2188 834 163.638 927.61 481.974
2400 0 66.2061 13.6996 907 156.564 927.58 480.376
2401 0 68.2205 13.6323 930 162.64 930.009 479.104
2402 0 71.1889 13.8364 985 163.752 929.878 478.14
2403 0 74.2606 13.5334 1005 160.649 927.998 477.248
2404 0 78.4196 13.5298 1061 165.108 927.13 475.546
2405 0 78.3064 13.5238 1059 156.841 928.193 475.317
2406 0 80.213 13.6512 1095 159.761 927.942 473.547
2407 0 86.299 13.5343 1168 158.858 925.397 469.961
2408 1 46.1491 12.9363 597 159.548 926.189 488.166
2409 0 48.0331 13.2617 637 149.185 927.264 486.761
2410 0 50.3112 13.4165 675 152 925.444 486.409
2411 0 51.227 13.2742 680 161.981 929.053 486.176
2412 0 53.2326 12.9808 691 158.718 928.26 485.902
2413 0 55.1419 13.2204 729 156.874 928.956 485.383
2414 0 55.2031 13.5318 747 155.26 929.541 484.956
2415 0 55.0546 13.6955 754 76.6857 927.159 485.084
2416 0 58.0559 13.3664 776 162.62 927.793 484.593
2417 0 62.256 13.6051 847 146.903 927.932 483.308
2418 0 61.2143 13.6896 838 162.261 927.764 483.147
2419 0 65.2485 13.3643 872 161.736 927.142 481.597
2420 0 68.4366 13.7207 939 161.575 925.535 479.164
2421 0 72.2346 13.913 1005 153.994 928.245 477.435
2422 0 74.3315 14.247 1059 158.611 927.184 476.327
2423 0 77.537 13.6451 1058 154.342 928.214 475.809
2424 0 77.5453 13.8242 1072 154.407 926.98 475.065
2425 0 77.3989 14.1087 1092 169.547 926.967 474.348
2426 0 85.333 13.6055 1161 164.925 926.544 471.926
2427 0 90.2973 13.2673 1198 165.78 927.352 469.492
2428 1 45.214 13.2039 597 164.094 928.181 488.704
2429 0 47.209 13.4932 637 164.38 929.218 484.578
2430 0 50.0629 13.503 676 163.685 927.399 486.791
2431 0 50.2089 13.1451 660 161.88 929.021 486.756
2432 0 50.1024 13.652 684 162.963 927.76 486.599
2433 0 53.1367 12.9854 690 164.899 929.114 486.4
2434 1 111.386 15.3699 1712 157.226 930.468 457.034
2435 0 113.353 14.7592 1673 161.721 930.568 456.562
2436 0 115.557 14.6249 1690 164.088 928.004 456.764
2437 0 118.564 14.9961 1778 167.194 929.612 454.74
2438 0 122.555 14.8178 1816 169.536 928.28 452.536
2439 1 61.1198 13.4326 821 160.019 927.16 481.935
2440 0 65.0835 13.2753 864 162.406 926.358 481.078
2441 0 67.0943 14.0549 943 158.276 927.835 478.778
2442 0 69.153 13.6364 943 160.454 926.685 477.786
2443 0 71.1003 13.052 928 163.581 928.346 477.906
2444 1 84.0859 13.617 1145 164.216 929.879 471.416
2445 0 84.3967 13.638 1151 161.321 926.209 471.092
2446 0 85.3229 13.7595 1174 164.499 927.673 471.851
2447 0 84.2273 13.5111 1138 162.116 927.583 472.039
2448 1 45.097 13.3933 604 160.348 931.114 489.376
2449 0 46.1043 13.9033 641 157.844 930.011 487.543
2450 0 48.2088 13.4623 649 158.153 930.072 487.274
2451 0 50.3384 13.7867 694 159.602 931.171 484.535
2452 0 51.1584 14.113 722 160.614 928.781 483.321
2453 0 51.1188 14.1826 725 159.731 926.692 483.603
2454 0 53.2699 13.8727 739 164.843 929.212 484.114
2455 0 54.4628 14.1748 772 161.977 929.948 483.842
2456 0 55.2255 14.2144 785 163.804 930.468 483.284
2457 0 56.3006 13.9963 788 161.159 930.381 483.426
2458 0 59.4043 13.4334 798 167.754 929.469 482.768
2459 0 60.1627 14.145 851 169.353 929.398 481.592
2460 0 64.1806 13.945 895 168.763 928.553 479.815
2461 0 66.3741 14.4333 958 163.709 928.848 477.953
2462 0 69.2149 14.6934 1017 161.969 929.064 476.063
2463 0 73.5009 13.9046 1022 161.421 927.557 474.687
2464 0 72.2343 14.4391 1043 165.399 929.413 474.244
2465 1 148.312 14.7459 2187 154.813 928.016 439.053
2466 0 151.521 14.4534 2190 163.642 927.808 439.04
2467 0 156.541 15.0312 2353 159.081 928.009 435.497
2468 1 45.0611 13.6703 616 158.922 927.112 486.325
2469 0 45.208 14.2453 644 159.918 930.301 484.748
2470 0 47.4014 13.5017 640 158.034 929.673 484.197
2471 0 49.1957 13.7207 675 156.373 929.363 483.693
2472 0 50.1998 13.9642 701 161.87 929.134 482.235
2473 0 52.3769 14.0138 734 160.798 931.702 481.843
2474 0 52.1585 14.0725 734 164.189 929.902 482.477
2475 1 110.284 17.6001 1941 144.949 928.868 453.139
2476 0 110.194 17.0154 1875 151.013 931.519 453.037
2477 0 112.583 15.8817 1788 158.866 930.124 452.842
2478 0 115.345 15.0591 1737 160.805 929.792 452.441
2479 0 119.118 15.6987 1870 159.784 930.264 450.36
2480 0 125.381 15.5447 1949 150.805 930.287 446.484
2481 0 132.254 16.1659 2138 152.418 928.513 444.211
2482 0 137.395 15.3863 2114 137.519 927.806 441.29
2483 0 143.3 15.6385 2241 145.888 927.801 438.945
2484 0 146.258 15.6983 2296 144.041 927.489 437.416
2485 0 152.286 15.7533 2399 147.676 929.008 434.137
2486 0 159.278 15.52 2472 145.929 928.2 430.952
2487 0 167.192 15.5988 2608 147.632 929.343 427.109
2488 1 100.198 21.9266 2197 115.396 928.73 450.837
2489 1 49.2661 12.7268 627 135.965 927.356 483.201
2490 0 51.1099 12.8546 657 133.562 926.438 482.423
2491 0 50.0616 13.1038 656 138.694 927.985 481.872
2492 0 54.1118 13.0655 707 131.004 926.88 480.501
2493 0 54.1072 13.4733 729 145.163 928.868 480.462
2494 1 108.337 17.4549 1891 132.289 927.719 451.738
2495 0 107.241 17.0457 1828 137.6 928.507 451.901
2496 0 111.102 15.4633 1718 147.43 929.917 452.75
2497 0 112.086 15.5952 1748 153.252 929.066 452.826
2498 0 115.242 15.5413 1791 160.866 928.384 450.868
2499 0 116.252 15.8793 1846 159.238 929.241 449.307
2500 0 123.404 15.3966 1900 156.407 928.121 446.707
2501 0 131.259 15.2752 2005 157.547 927.849 443.222
2502 0 138.35 15.0416 2081 161.179 930.252 439.107
2503 0 142.278 15.0972 2148 162.358 932.411 437.022
2504 0 145.23 15.355 2230 158.151 931.552 435.421
2505 0 151.171 15.0359 2273 163.54 932.659 434.405
2506 0 156.302 15.2845 2389 162.393 931.506 430.808
2507 1 99.351 19.2449 1912 121.206 934.047 452.187
2508 1 48.1336 11.842 570 152.872 930.847 481.761
2509 0 52.2083 12.7566 666 145.721 932.628 480.572
2510 0 53.1345 13.2494 704 146.737 932.825 481.109
2511 0 53.0541 12.5155 664 147.467 932.508 481.343
2512 0 53.15 12.7564 678 153.777 930.425 480.206
2513 1 108.528 17.0094 1846 141.597 930.546 450.788
2514 0 110.293 15.9576 1760 142.578 930.786 451.427
2515 0 113.291 14.5819 1652 150.099 931.748 451.907
2516 0 116.434 13.9994 1630 154.487 930.77 450.961
2517 0 121.336 14.4639 1755 146.179 929.409 448.047
2518 0 126.367 13.9989 1769 144.276 930.481 445.927
2519 0 133.611 14.3551 1918 137.15 929.584 440.394
2520 0 139.372 14.4434 2013 133.697 930.546 438.567
2521 0 145.377 15.2018 2210 152.336 931.078 438.318
2522 0 146.388 14.4069 2109 139.336 931.994 435.42
2523 0 152.481 14.8215 2260 130.846 928.26 431.501
2524 0 162.917 14.5842 2376 127.965 931.397 428.264
2525 0 170.692 14.3182 2444 129.367 930.908 423.478
2526 1 102.216 17.8055 1820 100.479 931.176 452.82
2527 1 51.1817 12.5826 644 117.056 928.241 479.938
2528 0 51.0705 13.08 668 121.126 931.28 478.78
2529 0 52.2805 13.1024 685 121.194 930.356 478.546
2530 0 54.0772 12.8705 696 133.251 930.338 478.414
2531 0 56.0944 12.782 717 108.368 929.314 478.354
2532 1 109.65 15.5495 1705 122.114 928.836 451.71
2533 0 109.459 15.9877 1750 126.677 928.873 452.214
2534 0 113.351 15.0594 1707 52.3644 927.328 451.465
2535 0 116.468 15.5322 1809 115.552 930.467 451.103
2536 0 121.508 14.5752 1771 130.738 930.283 448.106
2537 0 127.539 14.9367 1905 119.497 928.616 444.677
2538 0 132.51 15.5762 2064 121.771 928.701 441.246
2539 0 137.41 15.7776 2168 116.949 928.713 438.424
2540 0 141.744 15.8455 2246 116.723 928.795 436.505
2541 0 145.528 17.1719 2499 116.368 928.888 433.111
2542 0 149.492 16.3554 2445 118.362 926.688 432.713
2543 0 154.532 16.3979 2534 120.721 927.826 430.419
2544 0 160.646 17.0064 2732 115.33 927.756 428.441
2545 0 165.24 16.2733 2689 113.952 927.493 425.103
2546 1 100.283 20.7013 2076 89.6228 930.124 451.414
2547 0 103.24 20.7284 2140 95.6785 929.246 450.711
2548 1 51.1504 14.1152 722 116.589 929.892 479.727
2549 0 50.2612 14.1859 713 103.725 928.972 479.397
2550 0 54.1546 13.5907 736 100.808 930.78 478.571
2551 0 53.1196 14.232 756 101.308 927.503 478.388
2552 0 55.1186 13.9517 769 103.943 928.687 478.164
2553 1 111.23 18.0527 2008 105.941 929.381 449.551
2554 0 113.22 17.9739 2035 104.104 929.287 449.791
2555 0 112.418 17.0347 1915 122.581 929.464 450.601
2556 0 117.183 16.1542 1893 123.462 930.82 449.728
2557 0 118.226 16.7053 1975 119.162 930.244 448.332
2558 0 122.394 16.5122 2021 116.102 929.455 446.832
2559 0 128.435 15.5566 1998 133.94 928.956 442.446
2560 0 134.319 15.5599 2090 113.383 929.614 437.951
2561 0 140.562 16.1139 2265 113.351 928.386 435.316
2562 0 144.577 16.5517 2393 113.982 928.455 432.419
2563 0 150.27 16.4437 2471 114.425 927.569 431.367
2564 0 151.627 17.0946 2592 114.401 927 429.619
2565 0 160.567 16.6036 2666 115.651 926.638 427.32
2566 0 167.582 16.9827 2846 105.367 925.999 422.009
2567 1 45.1852 12.3713 559 110.005 926.306 479.946
2568 0 49.0342 12.1956 598 105.794 927.401 478.786
2569 0 50.0449 13.348 668 109.449 926.624 477.028
2570 0 50.1223 13.886 696 105.93 926.826 477.032
2571 0 50.0889 14.2746 715 99.3608 924 477.284
2572 0 53.0431 13.4796 715 104.71 926.373 476.971
2573 0 54.0788 13.4433 727 108.238 927.292 476.542
2574 0 56.0537 13.4335 753 108.799 926.181 476.76
2575 0 61.1822 12.8469 786 111.364 927.938 475.121
2576 0 61.1243 13.7752 842 113.659 927.86 474.905
2577 0 61.1308 12.7759 781 115.817 926.206 474.588
2578 0 63.1658 13.3458 843 117.891 927.679 473.32
2579 0 69.263 13.9902 969 125.351 925.46 468.513
2580 0 69.166 13.7062 948 126.638 927.109 468.194
2581 0 71.3164 13.2788 947 125.116 925.39 468.231
2582 0 71.2507 13.3192 949 131.072 926.203 469.327
2583 1 152.622 14.6178 2231 122.97 926.486 430.522
2584 0 157.547 16.2555 2561 107.607 926.883 428.349
2585 0 164.578 16.0957 2649 105.715 925.57 426.537
2586 1 100.132 23.3192 2335 75.8839 927.562 449.073
2587 0 98.1788 21.0636 2068 86.8931 928.19 448.964
2588 0 102.184 21.197 2166 85.5896 929.728 448.169
2589 0 103.174 20.4315 2108 84.5764 928.982 447.454
2590 0 105.248 19.2023 2021 96.9624 928.306 447.781
2591 0 105.166 18.5231 1948 98.9543 928.044 446.97
2592 0 107.249 18.872 2024 99.6502 928.191 447.723
2593 0 109.262 17.9934 1966 99.1796 928.587 449.054
2594 0 110.337 16.8031 1854 97.9984 928.983 449.269
2595 0 115.323 16.6056 1915 95.0538 927.665 448.318
2596 0 118.38 16.2697 1926 89.2892 925.264 446.592
2597 0 121.517 16.0636 1952 89.5799 925.786 446.587
2598 0 130.424 16.132 2104 95.4933 927.769 440.486
2599 0 136.465 15.3299 2092 103.454 927.901 436.367
2600 0 141.371 15.1234 2138 109.369 926.929 434.205
2601 0 144.617 15.3786 2224 110.115 926.746 431.618
2602 0 147.373 15.3964 2269 107.487 928.712 431.477
2603 0 154.528 15.7706 2437 105.6 927.926 427.742
2604 0 162.437 15.9939 2598 99.8661 929.203 423.742
2605 1 107.213 19.1394 2052 84.3421 927.751 450.513
2606 0 105.802 18.8276 1992 88.8439 929.241 448.832
2607 0 104.45 20.3256 2123 91.2605 929.358 447.893
2608 0 106.57 20.4185 2176 88.3801 930.168 446.139
2609 0 109.541 19.5087 2137 89.9139 928.45 446.309
2610 0 109.454 20.1819 2209 88.3219 928.703 445.913
2611 0 112.263 18.3765 2063 96.2598 930.794 446.737
2612 0 111.348 16.3272 1818 101.367 931.247 449.491
2613 0 114.538 16.1343 1848 112.325 928.231 448.962
2614 0 118.409 16.2573 1925 105.767 927.249 446.22
2615 0 123.368 15.936 1966 107.825 928.995 444.448
2616 0 128.39 15.4452 1983 124.967 925.967 440.711
2617 0 133.685 15.342 2051 123.04 928.092 438.838
2618 0 136.464 16.1215 2200 111.885 927.778 435.398
2619 0 141.383 14.8674 2102 120.891 927.456 434.845
2620 0 146.342 16.1198 2359 112.185 927.837 431.783
2621 0 149.312 15.645 2336 117.977 927.335 430.095
2622 0 157.609 15.5575 2452 120.614 927.885 428.221
2623 0 165.554 15.6082 2584 112.642 926.383 422.288
2624 1 103.419 20.2767 2097 90.8565 925.314 447.781
2625 0 103.329 20.517 2120 100.488 923.531 447.208
2626 0 104.209 20.3534 2121 100.207 924.44 445.091
2627 0 105.283 17.3912 1831 124.7 923.154 447.792
2628 0 107.377 16.633 1786 127.593 924.18 447.278
2629 0 108.333 15.277 1655 138.152 924.259 449.057
2630 0 111.429 14.8076 1650 149.024 925.496 447.735
2631 0 114.496 15.0748 1726 138.698 925.143 446.62
2632 0 117.239 15.2594 1789 148.173 926.663 444.748
2633 0 122.312 15.3214 1874 146.89 925.465 442.724
2634 0 128.323 16.3259 2095 144.286 928.19 438.33
2635 0 130.282 15.7581 2053 149.867 928.633 438.268
2636 0 137.287 15.5587 2136 142.329 927.481 433.662
2637 0 144.551 14.8252 2143 144.485 925.448 431.238
2638 0 145.388 15.1869 2208 141.798 927.113 429.538
2639 0 151.413 15.1639 2296 142.675 928.939 428.138
2640 0 155.202 15.2511 2367 141.925 928.988 427.171
2641 0 162.491 14.8809 2418 144.856 926.115 424.878
2642 0 170.295 16.6534 2836 136.86 927.708 418.231
2643 0 179.544 14.91 2677 144.383 926.362 414.248
2644 0 185.527 14.7418 2735 139.911 926.505 412.283
2645 1 101.207 19.4453 1968 112.754 924.674 445.773
2646 0 101.207 19.4453 1968 126.157 922.674 445.773
2647 0 103.172 18.5031 1909 129.479 927.636 446.572
2648 0 106.197 17.3169 1839 122.44 924.629 445.819
2649 0 107.09 16.2199 1737 129.511 926.229 444.912
2650 0 110.144 15.0258 1655 144.833 922.03 445.514
2651 0 111.193 14.866 1653 157.315 926.03 445.709
2652 0 114.13 14.6149 1668 155.025 927.435 444.51
2653 0 117.125 14.7706 1730 154.713 929.534 442.962
2654 0 121.226 14.5595 1765 155.689 931.063 440.999
2655 0 126.248 14.6061 1844 154.761 929.714 438.05
2656 0 133.265 14.5875 1944 162.295 931.307 435.673
2657 0 137.433 15.1419 2081 158.429 929.633 432.189
2658 0 140.317 15.4009 2161 153.606 929.356 430.079
2659 0 146.6 15.1841 2226 156.144 927.951 427.341
2660 0 149.607 15.5006 2319 156.707 927.276 425.692
2661 0 152.494 15.3711 2344 157.319 928.042 425.388
2662 0 157.519 15.3695 2421 159.138 925.315 422.972
2663 0 164.696 15.7623 2596 161.286 927.294 419.164
2664 0 173.383 15.163 2629 161.226 927.644 415.618
2665 1 100.285 16.7822 1683 136.004 926.252 442.02
2666 0 101.356 16.6344 1686 124.39 929.008 443.069
2667 1 55.0836 12.1633 670 152.681 927.751 471.058
2668 0 57.0617 12.3551 705 156.057 926.678 470.196
2669 0 58.148 12.6918 738 157.218 925.767 470.272
2670 0 59.2184 12.5637 744 156.879 928.058 470.25
2671 0 60.1811 12.3128 741 161.777 926.691 469.463
2672 0 62.2219 12.3269 767 154.641 927.952 468.36
2673 0 64.1535 12.5636 806 149.221 927.397 467.34
2674 0 69.1805 12.4457 861 159.164 925.527 465.509
2675 0 70.1622 12.3998 870 154.882 924.257 464.231
2676 0 73.1672 12.5739 920 157.158 926.399 463.353
2677 0 74.1395 12.8676 954 154.796 924.536 462.195
2678 0 77.1578 12.9216 997 149.571 925.663 461.085
2679 0 80.1101 12.7075 1018 153.29 926.293 460.33
2680 0 82.1465 12.5386 1030 155.752 925.052 458.597
2681 0 87.1294 12.4987 1089 157.361 925.603 457.025
2682 1 47.1179 11.0362 520 140.933 926.113 467.275
2683 0 48.3411 11.4395 553 141.553 927.995 470.257
2684 0 51.1038 12.0148 614 146.114 928.15 472.845
2685 0 52.0881 11.8837 619 153.003 925.255 472.622
2686 0 53.3964 12.1169 647 147.59 924.808 472.485
2687 0 55.1224 11.7194 646 148.7 924.732 472.255
2688 0 54.092 12.3124 666 152.98 925.595 472.006
2689 0 56.0564 11.9344 669 154.417 924.912 471.54
2690 0 57.0612 12.583 718 155.574 924.758 470.118
2691 0 58.1011 12.3405 717 157.396 924.091 470.255
2692 0 62.0807 12.2099 758 155.95 925.778 468.763
2693 0 64.2347 12.6256 811 158.258 925.116 467.111
2694 0 67.1626 12.8643 864 152.742 927.603 464.572
2695 0 69.1012 12.981 897 151.916 925.769 463.637
2696 0 71.0701 12.6073 896 162.011 927.198 463.569
2697 0 73.11 12.5291 916 157.787 926.659 462.714
2698 1 146.302 14.4154 2109 152.349 926.73 426.059
2699 0 153.657 14.2526 2190 158.753 928.207 423.613
2700 0 160.513 14.6717 2355 157.62 929.93 419.575
2701 0 167.623 14.5147 2433 157.901 931.071 415.829
2702 1 96.5012 17.3987 1679 131.68 929.018 444.258
2703 0 100.562 16.895 1699 133.791 929.218 442.546
2704 1 49.3118 12.2486 604 158.637 931.013 469.939
2705 0 51.3007 12.7484 654 152.541 929.442 470.072
2706 0 50.487 13.2113 667 152.078 926.67 470.003
2707 0 51.4175 13.1473 676 155.599 930.678 470.355
2708 0 54.5651 12.6638 691 153.113 928.686 469.792
2709 0 55.2922 12.6781 701 158.431 929.576 470.127
2710 0 56.3012 12.7528 718 160.226 926.691 469.472
2711 0 58.3344 12.2912 717 154.802 930.146 469.403
2712 0 59.4138 12.7412 757 156.449 928.547 468.654
2713 0 61.3973 12.8345 788 151.052 929.713 467.043
2714 0 64.491 12.9475 835 150.413 929.195 464.243
2715 0 66.276 12.7799 847 148.839 928.481 463.006
2716 0 67.5304 13.0015 878 155.805 928.366 462.959
2717 0 69.3392 12.9652 899 160.02 927.917 462.274
2718 0 71.3949 12.69 906 155.158 927.469 461.909
2719 0 74.2673 12.7243 945 156.386 929.626 460.995
2720 0 77.336 12.8401 993 146.969 931.573 459.052
2721 0 80.357 13.0543 1049 145.369 930.303 455.453
2722 0 79.455 12.334 980 153.407 928.607 455.215
2723 0 78.4366 12.1627 954 152.651 927.135 454.005
2724 0 78.4028 12.0787 947 150.131 929.022 454.254
2725 0 79.8582 11.8585 947 148.402 928.64 453.886
2726 1 51.186 11.5461 591 146.557 930.455 467.335
2727 0 55.2479 12.3263 681 144.352 927.366 467.154
2728 0 57.2431 12.2285 700 149.344 927.373 467.303
2729 0 59.6399 11.7036 698 150.928 925.486 466.914
2730 0 60.4354 12.2114 738 151.272 929.233 466.157
2731 0 59.1537 12.5267 741 146.703 927.792 465.29
2732 0 63.4068 12.5223 794 149.971 926.275 465.04
2733 0 64.4668 12.9059 832 151.23 930.709 463.41
2734 1 98.5714 17.1043 1686 132.505 924.722 440.983
2735 0 98.4321 17.5045 1723 131.205 925.166 441.389
2736 0 99.4025 17.5348 1743 131.813 924.281 441.573
2737 0 98.5344 15.9944 1576 130.475 930.237 444.174
2738 0 98.4533 15.6115 1537 135.242 928.239 444.866
2739 1 52.4087 11.811 619 148.111 928.375 471.116
2740 0 54.5109 11.7775 642 148.693 926.389 473.798
2741 0 54.1412 12.726 689 147.044 927.97 472.936
2742 0 58.3243 12.0876 705 150.149 926.275 473.288
2743 0 57.5666 12.7331 733 152.21 928.767 473.153
2744 0 62.2874 12.5868 784 152.645 928.454 472.43
2745 0 62.5541 12.3893 775 152.617 927.266 472.223
2746 0 64.6375 12.3612 799 153.568 929.847 470.737
2747 0 67.6706 12.6938 859 150.038 928.997 469.333
2748 0 70.7979 12.8252 908 152.834 928.563 468.215
2749 0 72.4361 12.7423 923 148.514 929.403 467.412
2750 0 74.5982 12.8287 957 163.367 927.077 467.009
2751 0 77.5427 12.4963 969 154.338 928.032 465.756
2752 0 78.6907 13.1274 1033 158.306 926.618 465.364
2753 0 83.5049 12.7537 1065 154.474 924.406 464.361
2754 0 85.605 13.5623 1161 150.349 927.532 461.765
2755 1 103.048 17.3705 1790 126.606 926.753 449.302
2756 0 102.056 15.9619 1629 135.731 927.66 450.592
2757 0 104.888 16.7321 1755 128.454 927.323 449.44
2758 1 55.478 11.6803 648 152.207 926.444 479.336
2759 0 55.2531 12.6509 699 147.107 927.853 477.205
2760 0 58.2835 12.1647 709 148.021 926.093 477.743
2761 0 60.2886 11.9591 721 153.104 925.743 478.254
2762 0 61.2912 12.4161 761 156.614 924.531 477.665
2763 0 63.2742 11.9954 759 152.859 924.991 477.618
2764 0 65.2954 12.1295 792 149.766 924.658 476.875
2765 0 69.3223 12.4924 866 147.125 926.672 474.512
2766 0 70.202 13.0053 913 149.013 925.034 473.22
2767 0 73.363 12.1451 891 146.474 927.131 473.089
2768 0 74.3736 12.6792 943 142.304 927.937 472.179
2769 0 77.5531 12.4818 968 147.71 926.57 471.836
2770 0 77.5884 12.4245 964 146.421 927.755 470.805
2771 0 82.4679 12.5018 1031 148.864 926.908 469.791
2772 0 86.6155 13.4733 1167 140.765 927.728 464.275
2773 0 85.6861 17.0039 1457 123.369 929.603 459.322
2774 0 84.8219 17.0357 1445 130.457 925.474 458.853
2775 0 84.6742 12.6721 1073 145.743 925.308 463.517
2776 0 86.7673 12.62 1095 144.887 925.266 463.366
2777 1 54.3202 11.2665 612 139.779 926.17 481.971
2778 0 54.3917 11.8768 646 140.872 926.923 482.571
2779 0 55.2049 12.1366 670 137.819 927.584 482.625
2780 0 58.3658 12.1818 711 144.532 926.426 482.293
2781 0 61.141 12.5775 769 143.571 925.914 480.704
2782 0 63.2805 12.3419 781 141.721 929.611 481.242
2783 0 64.4407 12.8801 830 143.44 927.634 480.336
2784 0 67.3368 12.6677 853 143.129 928.226 479.672
2785 0 66.1354 13.1095 867 141.935 928.352 478.949
2786 0 70.2494 12.8542 903 137.866 928.522 476.94
2787 1 142.469 14.7962 2108 143.705 926.819 446.121
2788 0 147.552 15.0862 2226 141.743 927.41 443.622
2789 0 149.392 15.5028 2316 141.583 926.801 442.763
2790 0 152.81 15.4375 2359 145.088 925.984 441.492
2791 0 163.622 15.0591 2464 140.729 925.677 436.404
2792 1 109.529 17.274 1892 114.733 926.39 461.242
2793 0 104.932 18.574 1949 113.081 925.633 460.934
2794 0 103.671 18.8289 1952 118.81 926.996 459.227
2795 0 103.707 17.5591 1821 122.984 925.96 459.841
2796 0 104.693 17.3937 1821 122.075 927.31 459.321
2797 0 109.65 17.9481 1968 127.224 928.288 458.32
2798 0 110.493 17.2681 1908 127.214 928.101 459.03
2799 0 111.256 16.4666 1832 139.713 927.852 458.751
2800 0 114.178 16.3254 1864 140.84 926.198 458.378
2801 0 116.127 14.5703 1692 143.931 926.69 459.468
2802 0 119.146 14.906 1776 136.803 927.367 458.541
2803 0 124.333 15.0402 1870 145.35 925.779 456.381
2804 0 130.381 15.0635 1964 145.685 925.062 452.745
2805 0 136.498 14.9013 2034 146.016 927.468 450.632
2806 0 138.345 15.1 2089 148.226 927.849 448.333
2807 0 142.338 15.3648 2187 150.719 924.714 446.89
2808 0 148.196 15.6617 2321 150.518 924.29 444.744
2809 0 153.497 15.6029 2395 154.96 924.778 443.39
2810 0 159.448 15.6477 2495 148.224 925.444 439.437
2811 0 165.58 15.491 2565 152.236 925.412 435.624
2812 0 174.57 15.4608 2699 154.384 925.134 432.52
2813 1 104.709 17.3242 1814 133.3 925.454 465.923
2814 0 103.698 18.4092 1909 130.646 925.641 462.5
2815 0 103.489 17.2192 1782 138.526 924.068 464.092
2816 0 104.504 17.5974 1839 139.384 924.749 461.278
2817 0 106.64 17.667 1884 140.552 925.007 462.345
2818 0 109.407 17.4212 1906 138.675 925.276 462.215
2819 0 111.295 16.7662 1866 148.395 926.367 463.36
2820 0 114.165 15.3988 1758 150.618 927.545 463.185
2821 0 115.46 14.4899 1673 159.441 928.111 464.476
2822 0 118.404 14.6955 1740 151 929.175 462.306
2823 0 126.197 14.3743 1814 153.854 926.555 459.219
2824 0 129.463 14.8846 1927 157.472 930.696 457.691
2825 0 134.269 14.4933 1946 155.096 929.762 455.476
2826 0 138.261 14.5377 2010 155.488 927.869 453.298
2827 0 142.353 14.4499 2057 150.9 929 451.149
2828 0 149.334 15.1606 2264 145.027 928.462 448.948
2829 0 152.248 15.0216 2287 148.346 927.748 447.415
2830 0 159.515 14.7823 2358 146.011 925.964 443.816
2831 0 166.776 14.6304 2440 149.579 927.57 440.207
2832 1 98.4731 18.8376 1855 114.401 925.801 468.757
2833 0 102.636 18.1223 1860 125.632 926.582 468.505
2834 0 104.478 17.9176 1872 125.67 926.958 467.54
2835 0 105.482 18.1831 1918 132.641 926.759 467.574
2836 0 107.438 17.1076 1838 138.592 925.93 467.134
2837 0 110.308 16.8891 1863 135.766 925.612 467.868
2838 0 111.245 16.2613 1809 139.865 925.081 467.721
2839 0 113.464 15.8905 1803 150.601 925.473 468.478
2840 0 116.182 14.8301 1723 154.724 926.702 468.807
2841 0 119.309 14.8019 1766 156.555 925.465 468.067
2842 0 124.297 15.0526 1871 153.818 926.645 465.139
2843 0 127.245 15.1126 1923 153.591 926.21 463.876
2844 0 132.453 15.2355 2018 151.101 926.291 461.667
2845 0 136.455 15.0013 2047 156.591 926.857 460.506
2846 0 142.44 15.0239 2140 145.56 923.529 458.621
2847 0 147.517 15.3339 2262 152.699 924.467 455.78
2848 0 151.501 15.3002 2318 157.242 926.27 453.386
2849 0 158.507 15.3621 2435 154.029 926.351 451.322
2850 0 165.511 15.7694 2610 155.826 926.492 448.74
2851 0 173.532 15.3747 2668 156.257 926.765 446.51
2852 0 178.391 15.0904 2692 149.878 926.445 440.269
2853 0 179.346 16.3092 2925 138.481 924.678 434.231
2854 0 179.662 16.4642 2958 137.15 927.838 434.539
2855 0 179.515 17.1407 3077 139.884 926.471 434.284
2856 1 108.474 17.8845 1940 128.503 925.776 472.714
2857 0 110.383 17.095 1887 141.088 928.528 472.685
2858 0 112.215 16.3258 1832 153.023 929.496 472.758
2859 0 113.229 15.6585 1773 152.293 929.195 473.025
2860 0 116.253 14.7265 1712 157.671 928.013 472.97
2861 0 119.2 14.396 1716 161.028 926.229 472.617
2862 0 121.198 14.9012 1806 161.432 926.465 471.925
2863 0 124.288 15.0215 1867 160.043 926.394 470.291
2864 0 127.293 15.2483 1941 160.394 926.674 467.772
2865 0 131.301 15.4911 2034 161.667 925.398 466.528
2866 0 135.241 15.2616 2064 156.94 926.556 464.224
2867 0 140.381 15.2229 2137 159.726 924.628 463.508
2868 0 146.328 15.1851 2222 160.895 922.59 461.703
2869 0 149.703 15.2435 2282 162.117 923.313 459.125
2870 0 158.733 14.9055 2366 160.609 928.273 454.472
2871 1 104.205 18.1277 1889 122.353 924.776 477.622
2872 0 103.565 18.6744 1934 136.402 926.94 477.02
2873 0 106.493 17.3345 1846 134.135 926.374 477.432
2874 0 108.42 16.9987 1843 143.379 926.314 477.219
2875 0 110.132 16.8343 1854 138.655 924.676 476.725
2876 0 111.376 16.5656 1845 147.596 927.002 476.712
2877 0 112.409 16.0129 1800 151.35 929.273 476.866
2878 0 113.48 15.6855 1780 149.864 927.777 476.671
2879 0 114.704 15.5967 1789 157.133 924.384 476.77
2880 0 116.617 14.8006 1726 156.486 924.402 477.244
2881 0 119.065 14.8406 1767 153.963 925.43 476.969
2882 1 142.534 14.7122 2097 159.412 927.881 462.608
2883 0 146.467 14.8156 2170 160.024 925.965 461.788
2884 0 148.637 15.3057 2275 158.278 925.548 460.697
2885 0 152.595 15.0136 2291 160.437 924.63 459.976
2886 0 157.735 15.152 2390 164.915 924.846 458.437
2887 0 163.427 14.9058 2436 167.431 925.686 456.263
2888 0 170.5 14.9912 2556 159.183 923.404 452.682
2889 0 175.533 14.7379 2587 164.832 924.18 449.231
2890 0 184.681 14.3328 2647 162.813 923.357 444.859
2891 1 101.324 17.3601 1759 131.435 924.837 483.661
2892 0 102.326 16.8481 1724 138.293 926.067 484.261
2893 0 104.672 16.5087 1728 134.042 925.269 482.637
2894 0 105.383 16.7294 1763 139.074 927.543 481.9
2895 1 57.1981 11.434 654 147.791 926.049 510.118
2896 0 58.1658 11.8454 689 146.798 924.395 509.502
2897 0 58.3531 12.51 730 152.907 925.577 509.959
2898 0 58.126 12.4901 726 156.946 923.86 509.712
2899 0 61.2696 12.5837 771 150.281 924.013 509.261
2900 0 62.4412 12.1234 757 147.692 923.584 509.369
2901 0 62.2272 13.0489 812 158.378 924.259 508.947
2902 0 61.175 13.3878 819 159.442 922.49 509.161
2903 0 62.2881 13.6302 849 160.596 922.754 508.183
2904 0 71.215 13.2275 942 162.514 926.251 505.166
2905 0 74.3042 13.4178 997 156.341 925.861 502.861
2906 0 75.3936 13.9269 1050 149.246 926.629 501.566
2907 0 79.3307 13.7652 1092 159.966 924.672 501.057
2908 0 79.3743 13.6064 1080 158.805 926.332 500.881
2909 0 83.3984 13.7892 1150 165.643 923.642 499.82
2910 0 85.3324 13.6877 1168 166.769 924.163 498.615
2911 0 87.3281 13.8329 1208 163.18 925.844 497.735
2912 1 102.278 17.3938 1779 138.236 925.775 487.983
2913 0 104.235 18.2089 1898 134.621 925.22 486.053
2914 0 104.095 17.8011 1853 137.771 924.987 485.499
2915 0 106.174 17.0098 1806 148.071 927.076 486.584
2916 0 105.151 17.2894 1818 148.46 926.979 485.911
2917 0 110.259 16.6517 1836 155.087 924.953 485.51
2918 0 109.426 15.5813 1705 157.899 925.842 486.004
2919 0 112.395 14.6092 1642 162.41 924.985 485.877
2920 0 116.301 14.8149 1723 166.861 924.407 484.564
2921 0 118.411 14.9311 1768 164.034 924.211 483.076
2922 0 124.587 14.6083 1820 160.857 924.725 481.409
2923 0 129.439 14.8177 1918 162.32 924.394 478.106
2924 0 133.327 14.6182 1949 155.782 924.974 475.244
2925 0 140.237 14.7607 2070 157.888 925.395 472.717
2926 0 144.281 14.8807 2147 161.757 923.076 469.467
2927 1 79.1524 13.0887 1036 161.571 922.119 502.345
2928 0 82.0543 13.3692 1097 162.441 925.316 501.274
2929 0 85.1166 13.4404 1144 161.743 922.733 498.774
2930 0 87.1077 13.9368 1214 158.757 927.595 497.455
2931 0 93.2628 14.0463 1310 156.709 924.332 493.656
2932 1 103.387 17.3135 1790 132.799 926.697 485.706
2933 0 104.314 16.7954 1752 133.976 923.525 485.8
2934 0 104.435 16.2589 1698 135.439 924.212 485.241
2935 0 108.385 16.5245 1791 144.039 925.39 485.055
2936 0 108.268 16.533 1790 147.342 925.065 484.755
2937 0 110.226 15.8946 1752 148.18 925.928 485.24
2938 0 112.203 15.561 1746 158.034 925.771 484.966
2939 0 114.511 14.5663 1668 168.7 925.111 485.796
2940 0 117.302 14.9529 1754 161.459 926.735 484.641
2941 0 122.475 15.0154 1839 164.677 923.258 482.048
2942 0 130.346 15.0983 1968 164.666 925.879 478.372
2943 0 132.319 15.0848 1996 166.977 926.674 476.901
2944 0 138.281 15.0057 2075 167.044 927.06 474.581
2945 0 143.384 14.8692 2132 163.963 924.983 471.768
2946 0 146.455 15.3221 2244 169.283 925.978 469.563
2947 0 151.429 15.5584 2356 170.157 926.325 468.458
2948 0 158.412 15.769 2498 166.199 924.463 465.163
2949 0 165.288 15.1251 2500 160.688 925.524 461.339
2950 1 103.321 17.0827 1765 138.132 927.878 490.071
2951 0 101.229 17.574 1779 141.244 927.854 488.895
2952 0 106.379 16.9394 1802 138.49 928.219 487.584
2953 0 106.119 16.7925 1782 137.683 927.949 487.857
2954 0 108.123 16.5368 1788 145.296 930.252 487.93
2955 0 109.3 16.5233 1806 149.677 927.221 487.787
2956 0 111.284 16.3814 1823 155.984 926.951 488.179
2957 0 111.309 15.6681 1744 157.084 926.067 488.147
2958 0 113.453 15.0283 1705 166.263 925.521 488.666
2959 0 115.34 14.609 1685 168 926.041 487.915
2960 0 119.373 14.685 1753 165.072 926.118 486.485
2961 0 123.637 14.2433 1761 159.873 925.242 483.889
2962 0 129.316 14.5921 1887 160.114 931.41 479.977
2963 0 136.339 13.8991 1895 171.564 928.996 478.517
2964 0 141.394 14.2934 2021 162.438 929.913 475.385
2965 0 142.416 14.6051 2080 167.738 927.625 475.093
2966 0 147.24 14.6631 2159 167.804 925.198 474.211
2967 0 152.26 14.6919 2237 172.688 926.282 473.03
2968 0 159.412 14.3465 2287 168.758 925.883 468.514
2969 0 166.566 14.4388 2405 166.052 925.257 463.71
2970 0 175.483 14.178 2488 162.303 925.518 460.161
2971 1 99.2646 17.4886 1736 139.014 928.951 494.232
2972 0 102.227 17.2949 1768 139.021 927.734 492.556
2973 0 105.101 17.4309 1832 141.592 927.63 491.93
2974 0 104.164 16.858 1756 140.399 928.926 491.653
2975 0 107.22 16.5082 1770 144.562 926.969 491.627
2976 0 108.306 16.4072 1777 149.289 926.28 491.934
2977 0 109.158 15.7112 1715 145.734 928.166 491.527
2978 0 111.292 14.5833 1623 158.406 927.057 491.375
2979 0 114.434 14.1828 1623 160.817 926.661 491.486
2980 0 117.605 14.6848 1727 163.016 928.704 489.812
2981 0 122.41 14.6556 1794 156.781 928.065 487.08
2982 0 129.383 14.6541 1896 165.71 927.406 483.344
2983 0 136.337 14.6402 1996 155.385 927.56 479.46
2984 0 139.488 14.6106 2038 162.609 923.64 479.299
2985 0 139.488 14.6106 2038 175.203 920.64 479.299
2986 0 145.349 15.0603 2189 159.219 926.49 476.744
2987 0 147.456 14.9265 2201 154.494 926.507 475.225
2988 1 159.712 14.6013 2332 160.88 927.212 469.328
2989 1 98.2433 17.9452 1763 128.024 923.246 495.341
2990 0 101.324 16.9851 1721 127.771 923.713 495.578
2991 0 102.465 17.5864 1802 134.179 924.235 495.301
2992 0 105.289 17.0862 1799 136.512 923.629 492.877
2993 0 105.346 16.6973 1759 141.179 924.536 493.476
2994 0 108.305 16.5736 1795 130.263 923.425 492.911
2995 0 110.252 16.2628 1793 148.694 924.412 493.211
2996 0 110.293 15.8215 1745 145.848 924.27 493.335
2997 0 112.349 14.7576 1658 153.156 922.537 494.382
2998 0 112.313 15.1273 1699 157.884 923.436 494.358
2999 0 118.306 14.623 1730 161.835 927.372 492.259
3000 0 123.321 14.5069 1789 160.284 925.21 490.323
3001 0 129.291 14.7651 1909 153.635 925.001 486.793
3002 0 131.205 15.1748 1991 157.143 925.169 485.282
3003 0 137.367 14.9817 2058 156.458 922.671 482.534
3004 0 142.368 15.2141 2166 158.102 924.584 480.577
3005 0 147.336 14.9658 2205 159.498 925.073 478.273
3006 0 155.387 14.7116 2286 153.947 924.697 475.563
3007 0 160.805 15.2669 2455 162.179 923.822 473.42
3008 0 165.511 15.1712 2511 160.616 924.302 471.329
3009 0 170.586 15.2006 2593 159.089 922.239 469.032
3010 1 70.3096 12.445 875 158.397 923.597 519.047
3011 0 72.1276 13.185 951 157.399 924.341 518.282
3012 0 75.1258 13.1646 989 152.766 926.721 516.8
3013 0 79.1433 13.2544 1049 159.86 926.634 514.831
3014 0 80.2003 13.3915 1074 161.912 926 515.282
3015 0 82.3337 13.421 1105 160.78 926.034 513.796
3016 0 86.3254 13.6924 1182 155.836 925.865 511.838
3017 1 101.367 16.7214 1695 131.058 926.238 502.794
3018 0 100.323 17.7627 1782 129.512 925.809 501.48
3019 0 103.165 17.4283 1798 127.287 925.969 498.586
3020 0 104.14 16.8523 1755 136.703 924.871 499.778
3021 0 106.268 16.4584 1749 137.304 923.747 499.764
3022 0 108.298 15.836 1715 145.88 925.465 499.972
3023 0 108.218 15.1084 1635 148.807 926.646 499.996
3024 0 110.184 14.3124 1577 160.651 926.926 501.341
3025 0 113.156 14.7319 1667 156.828 925.521 500.016
3026 0 116.235 14.6686 1705 166.914 925.699 499.406
3027 0 121.232 14.5754 1767 164.189 925.922 497.168
3028 0 126.142 14.3965 1816 163.841 924.787 495.462
3029 0 130.304 14.7348 1920 157.232 924.034 492.891
3030 0 135.197 14.4752 1957 166.438 924.241 490.752
3031 0 139.439 14.8308 2068 160.685 924.136 487.925
3032 0 143.64 15.0655 2164 167.747 923.232 486.423
3033 0 147.554 14.8691 2194 151.39 924.987 483.19
3034 0 152.514 15.4346 2354 167.433 925.841 483.607
3035 0 160.442 15.0896 2421 161.636 926.197 479.105
3036 0 167.366 15.009 2512 165.012 926.076 476.041
3037 1 102.241 17.6543 1805 133.735 926.991 503.68
3038 0 103.253 17.3651 1793 140.047 926.277 504.12
3039 0 104.251 17.7552 1851 140.446 926.791 501.924
3040 0 107.28 16.5176 1772 142.944 926.006 502.591
3041 0 108.571 16.1737 1756 150.782 926.163 503.043
3042 0 108.167 16.1417 1746 132.979 925.947 502.669
3043 0 111.239 14.8329 1650 158.173 926.378 503.887
3044 0 112.325 14.7251 1654 161.661 924.643 502.745
3045 0 116.22 14.3435 1667 163.248 925.823 502.185
3046 0 121.33 15.0417 1825 159.552 927.265 499.269
3047 0 127.385 14.5778 1857 158.747 925.436 496.693
3048 0 133.394 14.7833 1972 160.467 924.327 494.062
3049 1 74.2229 12.705 943 156.249 926.673 524.178
3050 0 75.2895 13.0828 985 162.437 924.054 523.096
3051 0 78.2294 13.1281 1027 150.732 928.347 521.759
3052 0 80.3806 13.2495 1065 159.426 927.988 520.026
3053 0 85.1994 13.5212 1152 155.258 926.797 518.427
3054 1 102.721 16.5303 1698 133.525 925.393 507.12
3055 0 100.279 17.3516 1740 137.642 924.326 505.402
3056 0 101.386 17.2015 1744 138.256 924.755 505.208
3057 0 101.373 16.9472 1718 145.265 926.303 505.889
3058 0 103.247 16.6882 1723 143.786 925.187 506.023
3059 0 107.397 16.2482 1745 145.432 926.517 505.658
3060 0 109.149 16.1247 1760 145.273 925.218 505.46
3061 0 110.112 16.2925 1794 146.134 926.133 505.149
3062 0 111.427 15.6066 1739 157.596 923.893 505.099
3063 0 114.177 14.2673 1629 159.32 926.044 505.489
3064 0 118.267 14.0191 1658 158.449 924.92 504.7
3065 0 119.37 14.4844 1729 157.515 925.005 503.133
3066 0 125.352 14.6148 1832 162.887 925.559 500.457
3067 0 131.181 14.5601 1910 166.147 926.052 497.609
3068 0 135.504 14.531 1969 164.204 923.573 496.016
3069 0 140.62 14.4859 2037 162.605 923.244 493.923
3070 0 145.418 14.6405 2129 161.063 925.252 491.961
3071 0 148.482 14.5607 2162 159.943 925.907 490.608
3072 0 155.069 14.7547 2288 163.834 926.74 488.898
3073 0 161.487 14.3541 2318 162.103 926.545 485.562
3074 1 101.418 16.072 1630 135.789 928.25 512.784
3075 0 102.409 15.7799 1616 139.604 927.416 512.911
3076 0 103.342 17.0114 1758 133.619 926.594 510.953
3077 0 105.421 16.5432 1744 138.814 926.69 510.369
3078 0 107.501 16.158 1737 144.79 927.254 509.877
3079 0 109.184 15.2403 1664 143.51 926.648 509.419
3080 0 110.23 15.0322 1657 156.103 927.948 510.771
3081 0 110.209 13.8827 1530 161.033 926.352 511.755
3082 0 116.177 14.0562 1633 161.778 928.205 509.747
3083 0 119.213 14.0504 1675 159.439 928.383 507.865
3084 0 121.204 14.3065 1734 167.151 924.396 506.566
3085 0 128.44 14.0533 1805 163.675 927.898 504.47
3086 1 74.1775 12.9015 957 163.555 927.448 530.736
3087 0 75.1263 12.6986 954 163.468 926.237 530.324
3088 0 77.1398 12.8598 992 162.132 925.073 529.622
3089 0 80.1476 12.8388 1029 163.962 925.093 528.044
3090 0 80.1961 13.1677 1056 163.344 925.057 527.027
3091 0 84.2238 12.6568 1066 154.409 924.608 525.379
3092 0 87.2592 12.8124 1118 162.538 923.941 524.338
3093 1 13.0063 8.07302 105 126.076 925.4 559.81
3094 0 33.4445 4.03653 135 109.541 931.77 562.57
3095 0 13.0006 6.84586 89 126.483 927.292 560
3096 0 14.0263 7.84238 110 136.536 927.091 559.927
3097 1 116.581 18.4078 2146 136.13 925.534 506.911
3098 0 116.385 17.949 2089 137.241 924.929 507.004
3099 0 120.459 17.2258 2075 145.125 928.137 506.695
3100 0 120.445 17.0451 2053 148.872 925.347 507.012
3101 0 122.535 15.9057 1949 150.383 926.224 507.094
3102 0 124.668 14.3661 1791 163.338 924.058 507.683
3103 0 128.476 14.3606 1845 164.9 923.879 506.751
3104 0 134.212 14.179 1903 157.023 925.862 503.188
3105 1 74.2248 12.8798 956 155.378 923.19 534.052
3106 0 74.2883 12.9765 964 159.814 924.075 533.164
3107 0 77.2824 13.0948 1012 160.476 925.755 532.43
3108 0 80.2512 13.0465 1047 161.417 923.462 531.476
3109 0 82.0745 12.976 1065 161.173 924.382 530.248
3110 0 86.2659 13.0063 1122 153.773 925.381 528.614
3111 1 98.6015 16.8152 1658 132.743 925.81 515.998
3112 0 102.38 16.3508 1674 133.703 923.36 515.04
3113 0 102.395 16.4657 1686 132.716 923.435 514.2
3114 0 105.375 16.389 1727 133.55 923.096 514.569
3115 0 107.27 16.6123 1782 138.697 923.064 515.566
3116 0 109.383 16.3097 1784 138.222 922.368 515.62
3117 0 111.264 15.7732 1755 140.963 924.754 515.425
3118 0 113.249 14.8876 1686 148.856 923.862 515.84
3119 0 115.243 13.9184 1604 151.248 922.362 516.5
3120 0 119.218 14.4189 1719 154.133 924.775 514.981
3121 0 120.241 14.1216 1698 146.15 925.575 512.776
3122 0 127.25 14.7348 1875 156.281 924.187 510.721
3123 0 130.271 14.6388 1907 153.873 923.488 508.42
3124 0 134.276 14.7086 1975 151.787 925.129 505.801
3125 0 139.27 14.8417 2067 152.05 926.233 504.158
3126 0 144.232 15.1492 2185 151.03 923.955 501.886
3127 0 150.426 14.5387 2187 155.41 921.331 499.845
3128 0 156.378 15.5456 2431 148.606 921.775 494.991
3129 0 161.382 14.6051 2357 151.659 919.578 495.113
3130 0 167.394 15.0125 2513 158.177 922.366 491.687
3131 1 104.23 17.1256 1785 128.462 924.512 520.703
3132 0 104.31 16.4796 1719 131.924 924.548 520.843
3133 0 105.458 16.7555 1767 134.256 924.115 517.818
3134 0 106.206 16.6846 1772 138.214 922.44 518.434
3135 0 107.147 15.6514 1677 141.425 922.272 519.846
3136 0 111.209 15.0078 1669 150.627 920.677 519.972
3137 0 112.183 13.7989 1548 152.849 922.441 519.628
3138 0 117.293 13.8628 1626 156.195 923.755 518.338
3139 0 118.173 14.8258 1752 148.086 924.299 516.186
3140 0 123.426 14.6242 1805 159.842 923.954 514.896
3141 0 126.305 14.4571 1826 151.942 923.806 513.043
3142 0 131.252 14.0645 1846 157.375 925.023 511.579
3143 0 134.338 15.5653 2091 155.774 923.862 508.498
3144 0 139.424 14.4523 2015 155.25 923.957 507.671
3145 0 145.268 14.3046 2078 158.921 925.357 506.319
3146 0 149.44 14.4138 2154 157.742 924.947 503.529
3147 0 155.289 14.4312 2241 155.771 925.083 501.065
3148 0 96.4002 16.5767 1598 126.492 923.023 515.996
3149 0 98.3142 16.6812 1640 124.501 922.586 518.443
3150 0 104.469 16.1197 1684 130.745 923.849 522.077
3151 0 104.587 16.8759 1765 125.352 923.942 520.206
3152 0 106.469 16.709 1779 130.015 925.18 520.88
3153 0 107.214 16.7049 1791 131.415 925.075 521.496
3154 0 110.228 16.3389 1801 140.136 925.938 520.973
3155 0 110.25 15.9546 1759 147.601 924.351 521.055
3156 0 114.238 14.6623 1675 154.164 923.78 521.712
3157 0 115.268 14.2016 1637 153.549 923.771 521.268
3158 0 119.134 13.9171 1658 162.432 924.454 520.359
3159 0 122.183 14.3473 1753 160.235 924.15 517.21
3160 0 126.156 14.3711 1813 158.78 925.091 515.316
3161 0 131.188 14.5059 1903 161.572 924.314 513.717
3162 0 136.293 14.3661 1958 159.355 923.659 511.391
3163 0 141.259 14.1443 1998 155.988 923.349 508.942
3164 0 145.37 14.6729 2133 157.062 925.503 506.256
3165 0 150.164 14.624 2196 157.095 924.728 504.188
3166 0 156.342 14.8777 2326 149.311 926.528 500.592
3167 0 162.332 14.9077 2420 157.541 925.774 499.04
3168 0 169.407 14.5803 2470 158.593 926.308 495.784
3169 1 100.171 18.2688 1830 127.406 927.919 525.48
3170 0 103.3 17.241 1781 133.562 925.618 525.141
3171 0 103.361 17.047 1762 135.555 926.691 525.051
3172 0 108.344 16.4846 1786 136.471 924.824 523.916
3173 0 108.203 16.5708 1793 136.675 924.358 523.468
3174 0 109.274 16.7194 1827 141.57 926.091 523.446
3175 0 111.305 15.8933 1769 141.002 925.003 523.454
3176 0 113.337 14.7172 1668 147.631 922.99 524.395
3177 0 116.45 15.6205 1819 148.501 923.686 520.715
3178 0 119.287 14.6369 1746 149.639 923.521 521.031
3179 0 122.537 14.9587 1833 148.33 923.603 519.644
3180 0 126.315 14.923 1885 151.214 924.066 517.763
3181 0 131.453 15.7699 2073 143.653 924.715 514.215
3182 0 138.27 16.6919 2308 141.344 925.094 510.306
3183 0 140.396 14.9577 2100 148.089 924.74 511.925
3184 0 146.509 15.371 2252 147.202 925.547 508.777
3185 0 150.312 15.7406 2366 133.655 925.004 506.363
3186 0 156.358 15.279 2389 145.45 926.159 504.27
3187 0 161.388 15.0011 2421 148.677 925.039 502.192
3188 0 167.475 15.1068 2530 141.145 926.078 499.925
3189 0 172.577 15.0715 2601 141.122 925.729 497.439
3190 1 99.3503 18.3693 1825 126.057 926.766 526.482
3191 0 106.508 18.1207 1930 130.128 926.299 525.262
3192 0 106.194 18.4474 1959 126.583 924.712 523.337
3193 0 108.24 18.8378 2039 129.093 925.829 523.474
3194 0 109.346 18.254 1996 133.748 926.803 524.218
3195 0 112.076 17.8896 2005 133.391 927.477 524.464
3196 0 112.185 18.1575 2037 139.653 925.897 522.893
3197 0 114.148 17.0306 1944 148.703 925.477 523.741
3198 0 115.197 15.339 1767 156.983 923.378 525.546
3199 0 118.206 15.5406 1837 153.847 925.764 524.776
3200 0 121.162 15.7805 1912 160.171 926.084 522.737
3201 0 128.277 15.4042 1976 155.568 925.939 519.715
3202 0 133.368 15.5284 2071 162.131 927.234 517.781
3203 0 139.269 15.9762 2225 148.304 925.923 513.6
3204 0 142.385 15.9778 2275 155.492 927.057 511.974
3205 0 147.624 15.8917 2346 161.203 925.526 510.798
3206 0 152.494 15.6006 2379 165.554 924.227 508.746
3207 0 158.385 16.0242 2538 162.526 923.656 505.775
3208 0 163.367 15.8539 2590 160.703 925.002 502.919
3209 0 170.502 15.513 2645 160.595 924.936 499.596
3210 1 103.38 18.0885 1870 144.013 926.685 531.684
3211 0 101.191 18.638 1886 142.571 926.615 530.135
3212 0 103.207 17.9833 1856 146.781 926.33 530.068
3213 0 104.196 17.8029 1855 151.058 926.939 529.161
3214 0 106.151 17.4468 1852 153.195 925.444 529.012
3215 0 108.268 16.6161 1799 153.737 926.445 529.027
3216 0 110.177 15.5567 1714 165.845 925.907 530.84
3217 1 56.1192 15.6275 877 173.593 925.018 555.203
3218 0 58.0344 15.8699 921 166.545 924.85 554.612
3219 0 62.1929 15.4359 960 168.109 925.967 553.947
3220 0 64.1676 15.6777 1006 171.412 925.421 552.986
3221 0 65.1254 16.3531 1065 172.098 925.183 551.601
3222 0 69.1853 16.2029 1121 176.383 925.727 550.418
3223 0 72.2897 16.2402 1174 170.318 926.361 549.322
3224 0 73.4665 15.9392 1171 167.892 926.757 548.587
3225 0 75.4923 15.7632 1190 178.953 927.924 547.439
3226 0 79.4055 15.8427 1258 178.907 925.991 547.003
3227 0 81.5136 15.7397 1283 169.387 927.048 545.705
3228 0 85.5357 15.5374 1329 161.737 926.427 544.13
3229 0 88.3618 15.6063 1379 169.925 926.665 542.989
3230 0 92.3201 15.9012 1468 169.409 927.842 541.61
3231 1 105.519 19.0962 2015 145.531 930.042 533.969
3232 0 105.451 18.1032 1909 154.111 928.74 534.498
3233 0 107.492 19.4899 2095 145.021 927.869 531.414
3234 0 108.312 18.6037 2015 151.133 930.273 532.946
3235 0 108.293 18.0714 1957 156.734 930.468 532.617
3236 0 113.356 16.5673 1878 163.812 929.493 533.091
3237 0 116.194 16.197 1882 166.07 928.987 532.664
3238 1 59.2608 16.2671 964 174.745 929.766 559.948
3239 0 61.1506 15.9279 974 173.106 927.388 559.408
3240 0 63.2718 16.1367 1021 176.613 929.183 558.179
3241 0 66.2321 16.4875 1092 170.749 928.67 556.905
3242 0 69.7385 16.4472 1147 172.375 925.391 555.974
3243 0 70.344 16.2061 1140 170.12 927.128 555.673
3244 0 72.2684 16.0651 1161 169.638 928.695 555.149
3245 0 75.3061 16.1474 1216 173.674 929.343 554.192
3246 0 76.3518 16.7907 1282 176.466 927.314 553.119
3247 0 81.4716 15.9074 1296 164.093 926.304 551.496
3248 0 86.5063 15.7445 1362 168.975 926.035 549.959
3249 1 100.612 19.4112 1953 136.475 927.377 540.77
3250 0 102.273 19.2133 1965 138.687 928.002 540.423
3251 0 104.653 19.493 2040 138.453 929.107 538.094
3252 0 106.418 18.8408 2005 145.073 927.288 538.446
3253 0 106.67 18.9275 2019 147.937 928.349 537.714
3254 0 108.361 19.0197 2061 154.007 927.625 537.649
3255 0 111.519 17.5486 1957 161.49 926.019 537.856
3256 1 56.1779 16.2697 914 171.412 926.158 564.371
3257 0 57.2521 16.8029 962 174.289 926.861 563.606
3258 0 61.5974 16.1046 992 171.821 927.153 562.627
3259 0 64.4011 16.0556 1034 174.634 927.393 561.981
3260 0 65.8014 17.0361 1121 167.748 926.428 559.614
3261 0 69.274 16.543 1146 170.185 927.831 559.357
3262 0 70.4647 16.3628 1153 169.675 929.907 558.791
3263 0 72.1764 16.432 1186 172.436 927.444 557.332
3264 0 73.6194 17.0064 1252 168.911 926.752 556.228
3265 0 73.5082 17.2906 1271 168.757 927.318 555.864
3266 0 73.274 17.0593 1250 169.978 926.898 555.713
3267 0 73.3973 17.3303 1272 166.902 925.208 555.528
3268 0 73.2027 23.1549 1695 143.267 926.162 551.637
3269 1 103.819 19.4859 2023 140.108 925.488 541.922
3270 0 103.576 20.6515 2139 139.919 925.392 540.266
3271 0 106.771 19.3967 2071 143.645 928.287 540.181
3272 0 108.73 19.5254 2123 149.021 927.541 539.201
3273 0 109.671 19.0934 2094 144.224 924.806 537.797
3274 0 111.714 18.1625 2029 153.333 925.569 538.415
3275 0 111.8 17.1557 1918 161.974 923.687 539.84
3276 0 115.827 16.7663 1942 156.638 926.807 538.288
3277 0 122.787 16.5652 2034 166.849 925.655 536.254
3278 0 127.581 17.1655 2190 164.525 927.38 533.529
3279 0 132.804 16.7917 2230 158.826 928.493 530.988
3280 0 138.617 17.0831 2368 162.416 928.619 528.456
3281 0 143.491 16.8303 2415 161.588 930.461 526.329
3282 0 149.285 16.8134 2510 165.736 927.172 523.344
3283 0 154.513 16.7429 2587 159.755 928.031 522.333
3284 0 156.576 16.8098 2632 152.81 927.655 520.795
3285 1 110.315 16.1447 1781 173.474 927.856 542.761
3286 0 112.441 16.3286 1836 169.362 926.92 543.751
3287 0 116.48 16.9644 1976 162.153 926.831 540.206
3288 0 121.535 16.9828 2064 163.348 926.851 538.303
3289 0 127.773 16.8972 2159 167.358 926.399 535.538
3290 0 133.48 16.6617 2224 166.25 924.734 533.809
3291 0 137.596 17.0063 2340 165.059 926.982 530.59
3292 0 142.67 16.5557 2362 162.45 925.498 528.58
3293 0 147.536 16.6062 2450 154.522 929.322 526.626
3294 0 155.655 16.5687 2579 161.28 928.233 523.005
3295 1 104.65 20.172 2111 138.435 926.821 544.871
3296 0 106.431 20.1257 2142 148.483 926.028 544.336
3297 0 106.451 21.0708 2243 139.921 927.479 542.255
3298 0 108.514 20.5596 2231 149.072 924.152 542.109
3299 0 111.458 19.4961 2173 153.566 923.76 542.52
3300 0 111.604 19.5602 2183 159.1 925.834 541.725
3301 0 113.584 18.1893 2066 165.172 925.95 542.428
3302 0 115.854 17.0732 1978 175.41 924.985 542.981
3303 0 120.476 17.0407 2053 167.438 927.128 541.373
3304 0 127.504 16.7995 2142 171.19 925.36 537.908
3305 1 55.338 16.4986 913 165.998 925.091 570.699
3306 0 57.33 16.5533 949 169.544 923.718 569.902
3307 0 61.268 16.5666 1015 170.153 925.503 569.062
3308 0 61.3134 16.538 1014 173.355 926.674 568.96
3309 0 61.2423 16.3286 1000 172.68 926.239 568.851
3310 0 72.2395 16.6529 1203 170.058 927.005 564.011
3311 0 73.4206 16.0582 1179 169.919 924.194 564.351
3312 0 73.1955 16.6404 1218 173.896 925.839 564.357
3313 0 73.2778 15.7619 1155 166.206 926.302 565.411
3314 0 73.2667 16.1328 1182 173.31 926.981 565.094
3315 0 77.2566 15.4679 1195 173.515 927.136 563.156
3316 0 79.1817 15.9254 1261 168.074 927.256 562.104
3317 0 83.2812 15.4297 1285 170.016 926.398 561.026
3318 0 86.2765 15.2649 1317 167.983 924.666 560.006
3319 1 50.2653 15.8161 795 168.367 926.699 573.707
3320 0 51.2067 16.1307 826 162.507 925.039 572.964
3321 0 53.1392 16.071 854 166.785 924.033 572.361
3322 0 53.1365 16.6552 885 165.124 924.175 571.88
3323 0 55.0447 16.2595 895 176.429 926.441 572.073
3324 0 57.0633 15.9647 911 168.224 927.09 571.868
3325 0 56.0673 16.3732 918 179.072 923.326 571.62
3326 0 59.1322 16.0995 952 173.617 925.947 571.693
3327 0 63.1168 16.0496 1013 177.257 927.228 570.816
3328 0 62.2056 16.349 1017 168.146 927.739 570.594
3329 0 67.0769 17.0402 1143 164.423 928.849 565.609
3330 0 69.0766 16.8074 1161 170.126 926.063 564.004
3331 0 70.1765 16.7008 1172 172.867 926.644 564.235
3332 0 70.0677 16.7124 1171 173.675 925.769 564.626
3333 0 73.1879 16.4918 1207 172.762 924.988 564.915
3334 0 73.2014 16.5571 1212 173.37 926.063 564.795
3335 0 76.2544 16.445 1254 173.359 925.624 563.966
3336 0 81.0826 16.8347 1365 175.206 926.994 561.379
3337 0 83.3311 17.2685 1439 165.293 928.985 558.231
3338 0 88.2318 17.012 1501 171.138 926.346 554.466
3339 1 91.1563 17.651 1609 160.77 926.127 544.234
3340 0 94.4244 17.2837 1632 166.858 927.377 544.624
3341 0 96.4158 17.4868 1686 165.396 928.96 545.445
3342 0 101.151 17.3108 1751 162.952 926.848 546.501
3343 0 104.277 17.0604 1779 161.953 925.661 547.51
3344 0 108.447 17.1235 1857 168.316 926.404 547.513
3345 0 112.625 17.0833 1924 158.908 924.723 547.048
3346 0 116.368 17.1611 1997 160.834 926.329 545.597
3347 0 121.464 16.7621 2036 166.712 926.206 544.423
3348 1 50.4558 14.7654 745 166.173 923.537 579.258
3349 0 52.2813 14.6706 767 166.439 923.714 578.503
3350 0 54.2524 14.6537 795 169.751 924.483 578.054
3351 0 56.3237 14.9493 842 167.031 924.403 576.466
3352 0 58.3907 15.0366 878 167.334 926.649 575.908
3353 0 59.5072 15.7628 938 166.274 926.846 575.336
3354 0 61.235 15.6446 958 163.924 924.828 574.458
3355 0 65.4242 14.9792 980 167.313 925.497 574.028
3356 0 68.3332 14.7512 1008 166.871 925.746 573.641
3357 0 69.2581 15.1029 1046 163.957 923.857 573.024
3358 0 72.3278 14.6279 1058 163.257 922.154 572.142
3359 0 73.4953 14.6132 1074 163.473 922.799 571.81
3360 1 90.34 18.4193 1664 127.9 924.812 553.421
3361 0 92.2665 17.5253 1617 130.937 923.19 554.047
3362 1 42.2601 13.9612 590 166.651 923.731 579.744
3363 0 44.2647 13.8937 615 161.972 924.75 580.12
3364 0 45.2158 14.1543 640 166.591 926.272 580.159
3365 0 47.3852 14.1817 672 162.729 924.99 580.372
3366 0 47.2742 14.7649 698 166.255 922.948 581.212
3367 0 51.3958 13.6198 700 160.923 922.683 582.569
3368 0 52.5804 13.7504 723 166.368 925.248 583.16
3369 0 57.3874 13.5047 775 164.619 926.587 582.075
3370 0 58.364 13.6728 798 166.429 926.066 582.158
3371 0 58.5169 13.9959 819 166.822 925.8 582.422
3372 0 59.3945 13.5366 804 162.914 927.282 582.425
3373 0 63.3096 13.4419 851 159.924 927.57 580.323
3374 0 63.6004 13.6634 869 162.947 925.659 579.82
3375 0 67.6452 13.8073 934 162.723 925.494 577.615
3376 0 68.3052 14.0985 963 162.134 924.899 576.61
3377 0 72.3951 13.4539 974 161.43 924.608 576.746
3378 0 74.2224 13.3383 990 160.08 924.826 576.778
3379 0 74.1596 13.3631 991 167.651 924.457 576.832
3380 0 76.3417 13.6492 1042 162.302 927.177 576.595
3381 0 80.1101 13.6063 1090 166.917 926.043 574.842
3382 1 43.078 13.0229 561 163.492 925.806 591.585
3383 0 44.0983 13.9008 613 166.277 923.326 589.967
3384 0 48.1818 13.2208 637 161.998 923.102 589.314
3385 0 48.0736 13.2921 639 168.274 924.912 589.501
3386 0 50.1774 14.2494 715 168.811 921.793 584.968
3387 0 51.2292 13.9959 717 169.84 922.317 585.739
3388 0 52.2114 13.5411 707 165.44 922.1 586.465
3389 1 108.18 17.2305 1864 150.578 921.099 558.093
3390 0 112.303 18.1384 2037 147.063 924.692 555.935
3391 0 113.403 16.6575 1889 154.033 923.3 556.833
3392 0 115.287 15.1621 1748 162.232 923.133 558.572
3393 0 120.403 14.5262 1749 167.063 923.771 556.258
3394 0 123.551 16.3171 2016 159.546 924.271 550.818
3395 0 134.768 15.931 2147 155.459 922.814 544.055
3396 0 138.351 16.0895 2226 154.276 921.164 543.54
3397 0 141.863 15.9731 2266 148.916 920.993 543.263
3398 0 145.644 16.2382 2365 158.934 920.921 541.75
3399 0 150.534 16.5013 2484 156.678 923.539 539.254
3400 0 156.529 16.6231 2602 159.685 924.9 536.513
3401 1 125.547 14.162 1778 172.451 924.131 555.769
3402 0 115.141 18.638 2146 124.336 924.763 549.529
3403 0 94.3073 16.0539 1514 164.406 925.376 561.026
3404 0 96.2638 16.2574 1565 160.279 924.828 562.305
3405 0 100.493 16.5185 1660 163.808 925.18 562.64
3406 0 102.366 16.4802 1687 164.166 923.564 562.785
3407 0 103.243 16.8051 1735 157.757 924.256 561.769
3408 0 106.597 16.8954 1801 163.894 926.651 560.472
3409 0 109.697 17.1108 1877 162.06 926.839 559.1
3410 0 112.582 17.2229 1939 157.98 928.792 557.766
3411 0 114.443 17.2662 1976 146.792 927.457 556.14
3412 0 119.408 17.3439 2071 156.173 928.269 553.79
3413 0 125.409 17.2476 2163 150.588 925.858 550.437
3414 0 130.526 17.146 2238 157.399 928.833 546.957
3415 0 137.683 17.0391 2346 158.24 926.837 544.169
3416 0 143.78 17.04 2450 159.889 925.806 539.815
3417 0 147.69 17.2795 2552 155.431 925.819 538.628
3418 0 151.653 17.0257 2582 163.896 925.281 537.991
3419 0 153.615 16.9775 2608 159.032 926.774 537.419
3420 0 159.737 16.8903 2698 150.883 926.415 534.012
3421 0 170.426 16.758 2856 148.09 927.114 528.758
3422 1 45.3124 12.5793 570 159.553 925.604 590.467
3423 0 47.1535 13.3182 628 157.9 927.96 589.588
3424 0 48.1481 14.1023 679 155.788 926.622 587.7
3425 0 51.2401 13.7002 702 159.613 924.325 588.328
3426 0 51.2237 13.9193 713 158.634 926.759 589.648
3427 0 51.1193 14.1825 725 161.748 924.051 590.167
3428 0 53.1672 13.5422 720 160.136 925.381 589.732
3429 0 56.1722 13.1026 736 163.876 923.64 589.39
3430 0 56.2684 13.5422 762 160.127 925.134 588.479
3431 0 56.1803 13.7949 775 162.439 924.64 588.866
3432 0 59.1582 13.3371 789 161.801 923.269 588.46
3433 0 62.2589 13.4439 837 161.479 922.52 586.722
3434 0 65.2492 13.6094 888 157.152 920.17 585.365
3435 0 68.2983 13.9242 951 151.93 923.124 583.497
3436 0 70.2274 13.9404 979 144.715 922.654 582.18
3437 0 72.3085 13.8711 1003 149.054 924.104 581.58
3438 0 73.1662 13.8452 1013 152.433 926.147 581.81
3439 0 77.1709 13.8135 1066 143.992 924.77 580.039
3440 0 83.6443 13.9519 1167 142.935 925.268 574.123
3441 1 48.3592 13.3791 647 137.604 925.394 588.544
3442 0 48.4933 13.4658 653 138.161 925.224 588.959
3443 0 48.3076 13.4347 649 144.462 926.1 589.396
3444 0 47.2878 13.1747 623 136.449 926.507 589.048
3445 0 48.5602 13.3237 647 140.161 925.657 589.915
3446 0 49.3633 14.0793 695 139.545 928.212 589.853
3447 0 52.4182 13.4877 707 142.545 927.139 589.997
3448 0 53.3415 13.2355 706 144.03 925.258 590.82
3449 0 54.2076 13.7435 745 144.723 925.859 590.499
3450 0 57.2966 14.3813 824 138.46 925.507 589.062
3451 0 56.2708 14.0215 789 145.677 922.559 589.11
3452 0 63.3952 14.0547 891 141.95 922.672 586.502
3453 0 63.288 14.2997 905 140.851 922.962 586.366
3454 0 65.3887 13.9932 915 168.358 924.977 585.574
3455 0 68.2769 14.5144 991 165.013 923.508 583.786
3456 0 71.3372 14.0179 1000 165.798 924.072 582.74
3457 0 73.2012 14.2347 1042 156.177 926.392 581.652
3458 0 76.232 14.023 1069 159.713 926.032 580.308
3459 0 76.3419 14.3827 1098 163.635 923.9 579.986
3460 0 82.3918 14.0427 1157 157.426 923.341 577.542
3461 0 82.3417 19.4312 1600 135.812 925.841 571.275
3462 1 102.448 18.3702 1882 128.652 922.856 565.502
3463 0 111.842 17.6231 1971 129.766 925.654 563.109
3464 0 107.547 20.047 2156 121.996 926.59 559.941
3465 0 110.154 19.0552 2099 126.716 926.153 559.916
3466 0 118.084 18.6055 2197 125.503 927.775 558.869
3467 0 120.66 18.9376 2285 124.204 926.154 556.245
3468 0 120.418 20.0468 2414 121.96 926.163 553.97
3469 0 119.324 19.4345 2319 130.48 925.212 554.883
3470 0 121.433 19.6899 2391 136.632 927.693 553.911
3471 0 124.165 18.8621 2342 133.051 925.639 553.082
3472 0 130.305 19.1397 2494 133.971 925.308 549.337
3473 0 135.512 18.4633 2502 136.782 927.313 547.559
3474 0 139.27 18.4964 2576 138.285 926.652 544.833
3475 0 145.26 18.2225 2647 142.364 925.966 542.892
3476 0 148.551 18.2429 2710 142.539 924.959 541.332
3477 0 152.359 18.0101 2744 140.741 924.201 539.434
3478 0 160.176 18.4423 2954 141.677 923.827 534.607
3479 0 168.377 18.5417 3122 139.735 924.092 529.823
3480 1 41.0285 13.6978 562 166.407 923.425 597.094
3481 0 43.1 14.7332 635 159.348 923.773 595.885
3482 0 43.117 13.8228 596 172.562 924.205 596.275
3483 0 43.124 13.8438 597 172.881 927.273 596.188
3484 0 44.2271 13.182 583 168.904 927.088 595.923
3485 0 44.1868 13.2619 586 169.594 924.217 595.754
3486 1 103.395 18.3858 1901 149.11 925.696 563.344
3487 0 106.344 18.7693 1996 149.592 926.599 561.744
3488 0 105.288 17.7703 1871 154.798 926.068 562.292
3489 0 109.357 14.9876 1639 168.859 925.624 563.548
3490 0 113.461 15.3709 1744 161.864 926.048 560.28
3491 0 120.302 15.1119 1818 158.404 925.93 557.485
3492 0 125.454 14.9457 1875 160.854 925.898 555.41
3493 0 131.45 14.9943 1971 160.57 926.607 551.935
3494 0 135.289 15.2193 2059 162.89 927.539 550.164
3495 0 138.283 15.96 2207 165.311 926.138 548.201
3496 0 144.317 15.2026 2194 168.789 926.073 546.639
3497 0 149.355 15.4263 2304 166.4 928.232 543.651
3498 1 34.1124 13.1331 448 166.444 926.79 600.886
3499 0 36.0416 13.7341 495 165.855 927.75 599.75
3500 0 40.1185 15.0055 602 154.658 925.203 597.427
3501 0 39.1416 14.0771 551 168.51 923.109 597.79
3502 0 40.3256 13.639 550 166.2 927.8 597.982
3503 0 40.0808 14.0217 562 165.746 925.644 597.765
3504 0 41.2903 13.9984 578 172.138 927.249 597.337
3505 0 42.2844 14.0241 593 162.59 926.413 597.098
3506 0 42.134 14.3115 603 168.08 928.4 596.536
3507 0 43.207 14.0718 608 169.99 927.997 596.005
3508 0 48.1559 13.8716 668 165.662 926.46 594.75
3509 0 50.307 14.2724 718 161.579 926.104 592.919
3510 0 52.285 14.3445 750 163.481 926.001 592.093
3511 0 54.0986 14.3627 777 161.829 925.106 591.064
3512 0 56.2094 14.2147 799 164.466 925.698 590.428
3513 0 61.1056 13.8776 848 166.866 925.432 588.888
3514 0 60.1161 13.6735 822 163.013 926.341 588.218
3515 1 148.683 18.3209 2724 142.887 926.033 540.854
3516 0 156.524 18.3423 2871 142.59 927.727 537.074
3517 1 32.0714 14.0624 451 169.703 926.361 601.783
3518 0 36.2431 14.2096 515 164.92 926.555 600.365
3519 0 38.1016 15.5112 591 152.887 924.738 598.9
3520 0 37.08 15.1564 562 162.1 925.867 599.313
3521 0 38.0783 14.8379 565 168.218 925.412 599.145
3522 0 38.1822 14.9022 569 168.475 925.747 598.988
3523 0 38.1663 15.2228 581 165.272 926.091 598.978
3524 0 38.2104 14.5248 555 168.002 925.744 599.296
3525 0 37.4083 14.5422 544 172.739 926.517 599.324
3526 0 38.3753 14.697 564 164.553 926.495 598.784
3527 0 40.3213 14.1613 571 155.354 926.539 598.342
3528 0 40.2152 15.3176 616 168.364 925.417 597.42
3529 0 42.1646 14.9177 629 158.482 925.917 596.682
3530 0 45.1741 15.0086 678 166.416 926.73 595.662
3531 0 52.1056 15.3151 798 159.949 926.063 592.722
3532 0 54.1423 15.3854 833 163.418 924.912 591.179
3533 0 56.2114 14.7123 827 155.015 926.232 591.024
3534 0 56.0898 14.762 828 159.936 925.686 590.892
3535 1 134.823 15.2941 2062 156.65 925.002 553.294
3536 0 138.431 15.4156 2134 157.361 927.824 551.098
3537 0 145.484 15.8574 2307 151.032 926.886 547.753
3538 0 153.434 15.0488 2309 145.381 928.042 543.996
3539 1 83.1793 17.9852 1496 125.322 926.286 576.078
3540 0 85.255 18.7555 1599 123.66 925.203 573.697
3541 1 31.0906 14.3773 447 161.166 926.154 601.653
3542 0 32.1915 14.8797 479 157.764 926.459 600.956
3543 0 33.0616 14.7906 489 150.72 928.043 600.771
3544 0 32.0659 14.5638 467 157.379 927.991 601.049
3545 0 33.0949 14.5944 483 155.445 926.542 601.041
3546 0 34.0858 14.0821 480 164.781 927.258 600.652
3547 0 36.1056 14.6515 529 158.45 924.495 599.287
3548 0 37.0486 14.3325 531 161.367 926.531 599.267
3549 0 37.1022 14.6622 544 163.577 926.564 599.055
3550 0 39.0556 14.4154 563 161.996 927.163 598.185
3551 0 42.0247 14.1821 596 155.56 926.233 596.928
3552 0 43.153 14.5529 628 163.745 927.024 596.131
3553 0 46.0793 14.8006 682 161.21 926.695 594.965
3554 0 48.1761 15.0282 724 159.703 925.986 593.767
3555 0 50.0623 14.7017 736 162.986 926.2 592.821
3556 0 52.094 15.2609 795 153.033 927.561 591.535
3557 0 52.1005 14.7599 769 161.222 927.004 591.515
3558 0 53.0427 15.0068 796 158.758 928.388 590.622
3559 0 57.12 14.4258 824 163.044 928.789 589.591
3560 0 66.1951 15.3486 1016 157.79 927.054 584.532
3561 0 66.0898 14.6467 968 162.107 928.181 585.139
3562 0 68.119 14.8857 1014 153.118 928.55 583.848
3563 0 71.1015 14.7676 1050 155.41 930.131 582.319
3564 1 27.0398 13.3876 362 159.204 926.812 603.583
3565 0 28.099 13.3101 374 170.396 929.174 603.484
3566 0 29.0118 13.8565 402 162.229 927.627 602.702
3567 0 30.022 13.7566 413 168.443 926.998 602.007
3568 0 30.0322 14.2847 429 160.254 926.706 601.627
3569 1 88.1501 17.629 1554 147.263 927.197 572.919
3570 0 88.1893 17.213 1518 157.449 926.095 572.974
3571 0 90.163 16.1485 1456 161.473 925.111 573.145
3572 0 94.0652 15.7444 1481 163.665 926.805 571.731
3573 0 101.164 15.7862 1597 166.128 926.296 567.458
3574 0 108.134 15.6196 1689 162.549 925.683 563.514
3575 0 112.15 15.9073 1784 158.115 929.898 561.097
3576 0 117.527 15.7411 1850 162.708 928.019 559.496
3577 0 120.175 15.7603 1894 159.433 927.434 557.629
3578 0 124.218 15.4969 1925 158.461 926.666 556.788
3579 0 128.289 15.356 1970 155.287 926.751 555.138
3580 0 137.222 15.3328 2104 159.691 925.824 550.654
3581 1 14.0026 11.2122 157 151.994 924.981 609.783
3582 0 16.0133 11.8027 189 158.429 925.704 608.884
3583 0 16.0211 12.858 206 162.015 927.34 608.432
3584 0 18.0041 12.3305 222 158.541 925.937 608.198
3585 0 17.0153 13.341 227 166.172 927.031 608.009
3586 0 20.0453 12.821 257 161.595 926.825 607.113
3587 0 20.0349 13.4765 270 155.881 925.296 606.6
3588 0 21.0763 13.1427 277 163.502 926.043 606.404
3589 1 78.1987 18.7343 1465 144.403 926.244 576.171
3590 0 79.3496 18.2232 1446 146.376 924.986 575.806
3591 0 79.3106 17.7908 1411 154.407 923.994 575.925
3592 0 80.3425 17.2885 1389 159.778 925.049 576.317
3593 0 80.4046 16.2926 1310 164.447 924.532 576.541
3594 0 82.356 15.7244 1295 170.667 923.605 576.736
3595 0 83.4132 16.1126 1344 169.849 925.216 576.253
3596 0 86.3437 15.89 1372 164.835 926.219 574.783
3597 1 33.12 13.2246 438 164.842 924.721 600.954
3598 0 43.0767 15.6465 674 134.723 925.795 595.372
3599 0 43.0648 14.4434 622 152.727 925.22 595.593
3600 0 42.1281 13.2928 560 155.957 924.962 596.084
3601 0 41.1364 13.4917 555 155.241 927.978 596.034
3602 0 52.2395 14.4527 755 154.197 926.868 590.326
3603 0 52.3516 13.8869 727 146.147 926.67 590.336
3604 1 8.00013 11.2498 90 138.433 926.222 611.867
