time division length width area intensity CMx CMy
0 0 80.1338 14.6505 1174 59.3935 1173.49 470.251
1 0 81.0939 13.7495 1115 62.9085 1172.83 468.15
2 0 84.048 14.5393 1222 62.9624 1173.67 467.118
3 0 86.201 14.1878 1223 64.547 1172.76 467.792
4 0 88.1582 14.8143 1306 64.9533 1173.8 465.12
5 0 92.1121 14.6343 1348 66.2522 1173.33 463.413
6 1 47.0078 11.6151 546 70.5641 1173.56 484.901
7 0 50.0429 11.7499 588 70.5799 1173.41 484.808
8 0 51.1002 13.6203 696 68.5101 1173.45 485.024
9 0 52.1078 13.5488 706 69.6204 1173.88 484.229
10 0 51.1861 13.871 710 71.4366 1174.53 490.732
11 0 55.1054 13.574 748 70.7674 1174.05 488.908
12 0 55.1499 13.3636 737 73.0678 1175.07 487.659
13 0 58.1913 13.0776 761 72.4757 1174.06 486.485
14 0 60.2293 13.7807 830 71.5663 1173.83 485.576
15 0 61.179 13.2398 810 73.1494 1173.69 486.11
16 0 64.177 14.1484 908 71.1663 1174.2 484.948
17 0 65.2713 13.4975 881 73.3905 1173.37 482.573
18 0 68.1412 13.5014 920 73.9174 1173.54 482.345
19 0 69.089 13.7214 948 73.8523 1173.37 480.776
20 0 72.2385 13.6908 989 73.4358 1172.01 479.544
21 0 71.1664 13.8408 985 74.5371 1172.23 478.526
22 0 74.0582 13.3004 985 74.5371 1171.4 478.134
23 0 77.0643 13.9105 1072 72.9356 1171.41 474.324
24 0 79.077 13.4046 1060 72.9349 1171.09 473.493
25 0 82.0727 13.549 1112 72.6754 1171.09 472.969
26 0 84.1047 14.2679 1200 71.1325 1171.38 470.152
27 0 85.1197 13.2284 1126 73.2726 1171.39 469.008
28 0 88.1271 13.4919 1189 71.6249 1171.34 468.694
29 0 90.1653 12.6213 1138 73.0202 1170.6 469.25
30 0 93.1335 13.4538 1253 71.66 1170.62 467.073
31 0 95.2781 13.151 1253 71.5634 1171.16 464.507
32 0 99.2144 13.2541 1315 70.8236 1170.52 462.844
33 0 99.2144 13.3448 1324 127.384 1169.54 462.82
34 0 104.118 12.5915 1311 71.897 1170.37 462.619
35 0 106.143 12.615 1339 72.3077 1170.96 461.248
36 0 113.164 12.7956 1448 70.8177 1171.32 458.178
37 0 116.199 13.0552 1517 70.4469 1170.65 456.75
38 0 121.213 13.8846 1683 69.8241 1170.83 454.229
39 0 124.201 12.1336 1507 72.44 1170.23 452.53
40 0 128.131 13.455 1724 71.3863 1170.5 448.796
41 0 134.244 13.2892 1784 69.8077 1170.5 446.842
42 0 139.25 14.2406 1983 69.7035 1170.72 445.802
43 0 142.253 12.8574 1829 72.1372 1171.33 442.405
44 0 148.199 13.7788 2042 70.8854 1170.81 439.159
45 0 153.196 12.7941 1960 72.4189 1170.3 437.107
46 0 159.344 13.1853 2101 72.9867 1170.65 435.48
47 0 165.373 13.2851 2197 73.0232 1170.29 433.227
48 0 194.359 7.65593 1488 77.5497 1170.6 445.631
49 0 195.408 8.43365 1648 77.4909 1170.48 444.967
50 0 195.406 9.46747 1850 76.7108 1170.2 440.146
51 0 195.416 10.6081 2073 76.1679 1170.19 435.223
52 0 196.51 13.7194 2696 72.3772 1170.73 420.016
53 0 202.338 13.4181 2715 73.6523 1169.75 415.671
54 0 208.527 13.4611 2807 74.5529 1170.32 414.789
55 0 217.519 14.4907 3152 73.2256 1170.1 409.415
56 0 224.626 13.9387 3131 76.7266 1170.73 408.727
57 0 232.515 14.7217 3423 76.2808 1170.64 400.676
58 0 239.601 14.3447 3437 78.0882 1170.79 401.713
59 0 247.661 14.4795 3586 78.5206 1171.63 397.91
60 0 255.51 13.2167 3377 82.0749 1170.8 395.538
63 1 221.416 14.7053 3256 86.9702 1170.83 400.978
64 1 79.2962 12.2831 974 81.9466 1171.09 480.549
65 0 80.2461 13.7203 1101 81.8056 1171.08 478.4
66 0 83.2645 14.3519 1195 79.5808 1171.19 475.764
67 0 84.2439 13.4016 1129 83.6368 1171.46 475.546
68 0 87.4283 13.92 1217 82.3583 1171.65 475.18
69 0 92.3045 13.8996 1283 82.7942 1171.87 472.263
70 0 94.3407 13.748 1297 83.9507 1171.88 471.367
71 0 97.2596 13.1606 1280 84.593 1171.87 471.316
72 0 101.171 13.3536 1351 84.7276 1172.03 467.791
73 0 105.271 15.0469 1584 82.8283 1172.05 465.359
74 0 109.353 14.5492 1591 83.6248 1171.43 464.811
75 0 112.24 13.1682 1478 87.9019 1171.36 462.723
76 0 117.205 14.368 1684 84.7185 1171.27 461.799
77 0 122.369 14.7749 1808 82.937 1171.16 458.814
78 1 66.2248 12.1254 803 85.3512 1171.36 486.087
79 0 70.2184 12.8741 904 82.7301 1171.87 484.822
80 0 72.2124 12.754 921 76.8491 1172.6 482.892
81 0 70.2993 11.7924 829 77.7479 1172.92 484.315
82 0 75.2696 12.4486 937 77.6425 1172.72 481.492
83 0 76.2008 12.244 933 78.8371 1172.35 480.084
84 0 81.2965 13.3708 1087 79.1555 1172.61 480.14
85 0 84.2313 13.5935 1145 78.9293 1172.25 477.558
86 0 87.3137 13.7092 1197 79.6842 1172.84 476.49
87 0 89.1219 13.3301 1188 80.3375 1172.8 475.481
88 0 93.3019 13.9976 1306 78.9946 1173 472.245
89 0 97.3959 14.0355 1367 78.5304 1171.83 468.448
90 0 100.361 14.0791 1413 79.9844 1172.85 466.847
91 0 104.579 14.2763 1493 79.4139 1172.63 466.66
92 0 106.285 13.8214 1469 82.5636 1172.67 463.972
93 1 50.1666 12.7774 641 80.1498 1173.49 490.131
94 0 53.3663 13.4167 716 80.5936 1173.1 487.95
95 0 55.2142 13.4386 742 77.2318 1173.2 487.891
96 0 55.1864 12.0863 667 76.015 1172.48 493.037
97 0 56.1526 12.003 674 77.1825 1172.05 490.61
98 0 59.1725 12.979 768 76.181 1171.09 489.379
99 0 61.1318 12.9392 791 77.0303 1171.83 488.971
100 0 62.091 12.2401 760 78.9776 1171.71 487.911
101 0 65.1615 13.3054 867 77.2768 1172.18 486.723
102 0 67.1248 14.1081 947 77.2598 1171.51 485.222
103 0 68.1951 12.8455 876 80.6701 1171.58 484.136
104 0 72.1861 12.9803 937 81.3746 1171.64 480.854
105 0 73.211 13.5772 994 80.8944 1171.98 478.676
106 0 76.3448 13.5962 1038 81.4345 1171.94 476.752
107 0 79.5258 13.744 1093 83.2882 1171.7 473.226
108 0 80.3084 13.8217 1110 84.2874 1171.1 472.143
109 0 84.5592 14.2622 1206 84.3358 1171.3 471.313
110 0 87.3418 13.8536 1210 86.0438 1170.88 470.157
111 1 44.2055 12.3288 545 81.2697 1172.04 492.908
112 0 46.48 13.2315 615 79.6472 1172.36 491.872
113 0 47.2866 13.1327 621 80.0966 1171.81 492.14
114 0 50.2672 13.5675 682 85.5396 1172.34 493.798
115 0 51.2822 13.026 668 86.9236 1171.85 491.433
116 0 54.3367 12.6802 689 87.7707 1171.69 489.017
117 0 56.346 13.7366 774 85.5568 1171.6 488.42
118 0 57.6868 13.504 779 86.9435 1170.79 487.103
119 0 57.6868 13.5733 783 155.212 1169.78 487.073
120 0 60.4169 14.2675 862 86.2796 1170.96 486.53
121 0 61.4132 13.8081 848 89.0366 1170.88 485.562
122 0 64.4842 13.5847 876 89.7237 1171.08 484.62
123 0 66.6767 14.1729 945 89.1048 1170.91 483.006
124 0 68.4616 14.3146 980 90.4878 1171.65 482.362
125 0 69.5496 14.292 994 91.83 1172.01 480.905
126 0 71.3961 14.4125 1029 93.585 1171.21 480.489
127 0 73.4494 14.4045 1058 94.5586 1171.77 480.465
128 0 77.493 14.7239 1141 93.5372 1171.45 479.607
129 0 78.3824 14.9651 1173 95.4297 1171.7 478.855
130 0 79.4834 14.632 1163 96.3156 1171.18 476.471
131 0 85.5284 15.4919 1325 92.9789 1170.82 474.491
132 0 85.5113 15.4599 1322 94.7526 1170.16 473.558
133 0 89.4978 15.3076 1370 95.4715 1170.62 471.954
134 0 91.4186 15.2376 1393 96.2986 1171.02 471.599
135 0 95.5323 15.7852 1508 94.5491 1170.51 469.174
136 1 48.3021 13.0843 632 99.182 1170.85 490.859
137 0 49.2604 13.6621 673 98.6137 1170.41 491.211
138 0 52.2687 14.0428 734 97.3515 1169.86 488.982
139 0 52.2304 14.6658 766 95.9256 1169.33 489.433
140 0 55.2399 14.2107 785 96.0446 1169.96 488.606
141 0 56.4 14.2731 805 95.4708 1169.12 489.641
142 0 59.472 14.1243 840 97.2667 1169.07 488.777
143 0 61.2863 14.6526 898 96.5657 1169.89 488.497
144 0 62.3041 14.67 914 96.4508 1169.57 487.059
145 0 62.2072 14.934 929 97.2906 1169.79 487.202
146 0 64.2665 14.5955 938 98.1055 1169.04 487.365
147 0 66.2845 15.0261 996 97.6827 1169.68 485.979
148 0 70.2815 15.0537 1058 95.2836 1169.03 485.064
149 0 73.3792 14.9089 1094 95.5814 1169.51 483.43
150 0 75.2498 15.1495 1140 95.8377 1169.35 479.793
151 0 76.2744 14.8149 1130 96.0867 1169.73 479.817
152 0 78.2248 15.2126 1190 94.921 1169.36 478.245
153 0 82.1872 15.197 1249 91.6621 1169.15 477.307
154 0 84.2284 15.0543 1268 95.4953 1168.88 475.805
155 0 86.1896 15.5123 1337 94.0658 1169 475.316
156 0 90.2282 14.8845 1343 94.5555 1169.22 473.152
157 0 93.2085 15.342 1430 91.9951 1169.13 471.852
158 0 96.2042 15.0825 1451 90.6471 1169.3 471.339
159 0 100.187 15.8105 1584 88.6862 1169.33 469.528
160 0 103.238 15.5853 1609 89.3145 1169.26 467.86
161 0 104.222 15.0832 1572 90.3594 1170 465.691
162 1 56.108 13.0819 734 92.2003 1169.62 489.451
163 0 59.0797 13.6426 806 91.3176 1169.51 489.831
164 0 58.0659 14.1219 820 93.4524 1169.09 486.644
165 0 63.1319 14.1767 895 91.1631 1169.87 486.906
166 0 65.2012 13.7574 897 91.2664 1169.93 486.486
167 0 68.0983 14.4497 984 91.0254 1170.83 484.571
168 0 70.1097 14.5201 1018 91.7721 1171.15 483.187
169 0 71.098 14.4308 1026 93.4873 1171.07 482.27
170 0 73.0934 14.2968 1045 94.5971 1170.56 480.235
171 0 75.1251 14.2429 1070 94.9168 1171.2 479.463
172 0 79.0946 15.1843 1201 93.1882 1171.34 476.621
173 0 79.0831 14.8578 1175 95.4536 1171.11 476.493
174 0 83.0699 14.4096 1197 95.5071 1171.42 474.178
175 0 87.084 14.6181 1273 95.8178 1170.93 472.976
176 0 89.099 15.2639 1360 95.4485 1170.51 472.614
177 0 92.1458 14.5313 1339 96.9731 1170.95 471.656
178 0 96.0678 15.0831 1449 96.7854 1170.72 469.189
179 0 100.166 14.8554 1488 97.0491 1171.16 466.886
180 0 101.129 14.5556 1472 99.6019 1170.92 464.378
181 1 54.0572 11.0069 595 91.6975 1172.22 491.871
182 0 56.0567 12.0235 674 91.957 1172.02 489.034
183 0 59.0532 11.4812 678 92.3481 1171.62 488.612
184 0 57.0476 10.9207 623 86.1846 1170.03 489.835
185 0 58.0498 11.0939 644 87.045 1170.68 489.269
186 0 60.0957 10.9159 656 87.8826 1170.55 487.906
187 0 63.1663 10.8919 688 88.5567 1170.75 488.156
188 0 66.0565 11.2025 740 88.127 1170.85 486.297
189 0 68.1016 11.4682 781 88.3892 1171.1 484.75
190 0 71.0849 10.9165 776 88.9201 1170.54 481.878
191 0 75.1118 11.4097 857 88.7421 1169.71 479.634
192 0 75.057 11.4313 858 89.218 1169.04 481.126
193 0 79.102 11.4156 903 88.0842 1169.08 479.786
194 0 80.1063 11.3224 907 90.6582 1168.98 476.804
195 0 84.148 11.254 947 89.1542 1169.2 476.699
196 1 46.0327 10.3622 477 87.8197 1169.96 494.96
197 0 47.0294 11.3333 533 86.6698 1169.13 493.011
198 0 49.061 11.3124 555 85.3568 1169.32 493.607
199 0 50.0767 11.0431 553 86.8608 1169.72 491.586
200 0 52.065 11.4664 597 87.0017 1169.81 489.97
201 0 50.0533 11.268 564 86.9149 1169.54 491.942
202 0 51.0166 10.2516 523 112.931 1170.14 492.597
203 0 52.0366 10.2043 531 111.793 1169.93 492.269
204 0 54.0478 10.4722 566 111.155 1169.84 490.64
205 0 57.0593 10.8659 620 106.75 1170.08 489.873
206 0 58.0547 11.1274 646 108.203 1170.15 488.573
207 0 61.039 10.3213 630 108.225 1169.82 486.61
208 0 62.0548 10.7002 664 105.98 1169.54 487.479
209 0 65.0384 10.8244 704 106.03 1169.6 484.828
210 0 66.0416 10.4328 689 109.128 1168.85 483.448
211 0 68.1019 10.6164 723 107.611 1169.01 482.535
212 0 66.0692 10.3376 683 111.458 1169.63 481.161
213 0 69.1668 10.106 699 112.378 1169.04 481.512
214 0 72.0607 10.5744 762 109.94 1168.87 479.543
215 0 74.0815 10.232 758 110.631 1168.67 479.001
216 0 76.2079 10.7469 819 109.717 1168.82 476.471
217 0 79.1796 10.4572 828 110.051 1168.37 474.249
218 0 83.1404 10.1756 846 109.163 1167.83 472.511
219 0 86.2056 10.2429 883 108.686 1168.43 471.02
220 0 88.3071 10.0445 887 106.917 1167.98 469.247
221 0 91.1695 10.3872 947 105.975 1167.74 464.959
222 0 93.2352 10.1142 943 107.466 1168.1 466.715
223 0 95.1926 10.2529 976 108.889 1167.95 463.268
224 0 99.2134 9.9785 990 110.88 1168.35 462.207
225 0 101.209 9.96945 1009 108.977 1168.38 460.366
226 0 105.188 10.0012 1052 109.163 1168.33 460.198
227 0 105.215 9.36179 985 107.748 1168.12 456.703
228 0 107.504 9.61823 1034 107.176 1168.12 455.993
229 0 110.349 8.85369 977 109.027 1168.1 455.477
230 1 55.1537 7.01676 387 100.827 1168.36 485.767
231 0 54.2338 7.2464 393 99.1959 1168.39 485.555
232 0 58.1798 7.59714 442 98.233 1167.89 485.007
233 0 59.1917 6.53808 387 97.7804 1168.58 484.039
234 0 59.1687 6.135 363 99.2424 1168.45 482.868
235 0 66.3183 7.05688 468 96.6987 1168.53 479.425
236 0 65.1528 4.85013 316 98.6076 1168.6 479.848
237 0 68.1512 6.45623 440 97.1136 1168.52 479.211
238 0 73.1509 6.6438 486 96.7099 1169.26 477.265
239 0 81.204 10.3813 843 90.2633 1168.72 478.637
240 1 44.0988 9.43336 416 87.6274 1169.16 498.288
241 0 45.1178 9.77441 441 87.6485 1168.86 498.122
242 0 46.1526 10.1836 470 88.0574 1169.84 496.46
243 0 49.1623 10.4755 515 86.965 1169.07 496.979
244 0 49.1562 10.7413 528 87.6818 1169.5 496.294
245 0 50.1938 10.3001 517 86.9787 1168.73 494.362
246 0 52.1106 12.0513 628 83.6529 1168.73 493.234
247 0 54.0349 11.3075 611 84.1178 1167.78 491.578
248 0 55.106 11.4325 630 85.6143 1167.77 489.046
249 0 57.0924 11.4376 653 87.242 1167.9 490.727
250 0 57.1135 11.8711 678 87.9631 1167.72 490.302
251 0 60.1276 11.9912 721 88.0485 1168.16 489.889
252 0 63.1828 12.2343 773 85.5356 1168.33 487.978
253 0 64.2221 11.7717 756 89.664 1167.9 486.84
254 0 66.1544 12.1685 805 86.1764 1167.61 485.18
255 0 69.177 12.7933 885 84.8 1167.96 485.136
256 0 69.2614 12.0991 838 87.463 1168.16 485.044
257 0 72.1934 12.3695 893 85.1478 1168.69 483.521
258 0 73.1873 12.3655 905 86.295 1168.61 481.318
259 0 76.2162 12.9106 984 85.5711 1168.82 479.47
260 0 77.16 11.8714 916 86.7304 1168.07 479.288
261 0 81.1114 12.5876 1021 83.9001 1167.73 478.019
262 0 81.1389 11.659 946 87.0655 1168.39 474.875
263 0 85.1061 12.2083 1039 85.8816 1167.78 475.607
264 0 86.1587 12.0359 1037 87.9045 1167.66 473.737
265 0 90.2462 11.5573 1043 90.1687 1168.98 473.114
266 0 91.3707 12.3563 1129 89.434 1169.32 471.432
267 1 49.3542 10.759 531 87.5273 1171.07 490.104
268 0 51.2871 10.8994 559 88.2809 1170.39 489.324
269 0 52.2862 10.9207 571 89.3713 1170.55 489.641
270 0 52.3688 11.1517 584 89.3408 1170.56 488.861
271 0 54.4174 11.4669 624 88.5304 1170.15 487.324
272 0 56.4005 12.0921 682 86.6642 1169.76 487.465
273 0 56.41 12.0014 677 134.474 1169.77 487.477
274 0 60.0432 12.4077 745 90.843 1170.56 488.301
275 0 62.0441 12.5556 779 90.5071 1171.15 486.191
276 0 64.0651 12.0034 769 89.7087 1170.66 484.259
277 0 66.0546 12.2172 807 89.1896 1170.61 484.503
278 0 68.062 12.6355 860 87.0756 1171.19 482.037
279 0 70.0625 13.1311 920 85.95 1170.82 481.584
280 0 71.0434 11.866 843 88.3488 1170.98 481.768
281 0 74.0252 12.5903 932 85.8519 1170.76 480.594
282 0 75.0665 12.4556 935 86.0503 1170.37 478.34
283 0 79.064 12.7618 1009 85.7522 1170.13 477.095
284 0 82.0369 12.6041 1034 85.6354 1170.02 476.802
285 0 85.1007 12.5146 1065 85.5202 1170 476.176
286 0 86.3291 12.7883 1104 87.096 1169.41 474.878
287 1 44.0429 10.4671 461 85.5119 1171.48 495.644
288 0 44.0498 10.2157 450 86.3578 1170.99 496.087
289 0 45.0328 10.5257 474 84.8819 1171.4 496.422
290 0 46.0532 11.3564 523 85.4302 1170.51 494.352
291 0 45.0087 10.6202 478 86.8368 1171.5 491.548
292 0 51.0454 12.0285 614 83.7036 1171.11 493.011
293 0 51.0776 11.7273 599 86.5927 1171.1 491.467
294 0 52.0417 11.952 622 85.5611 1170.46 490.987
295 0 54.0626 12.1341 656 85.5168 1170.28 490.244
296 0 54.0793 12.2043 660 87.2985 1169.59 490.841
297 0 54.0793 11.779 637 144.986 1169.55 490.363
298 0 56.1764 12.0513 677 86.5377 1169.94 489.62
299 0 57.0271 11.854 676 89.3565 1170.38 488.818
300 0 60.093 12.1811 732 87.5792 1169.73 488.992
301 0 60.0534 11.6563 700 89.11 1169.77 487.034
302 0 62.1023 12.2701 762 87.5171 1169.87 486.623
303 0 64.1536 11.5504 741 89.39 1169.53 486.684
304 0 66.1513 12.0935 800 87.2312 1169.16 485.074
305 0 65.2918 12.3293 805 88.8609 1168.69 482.297
306 0 69.1555 12.2188 845 88.9882 1169.33 482.285
307 0 70.1435 12.1323 851 89.4324 1167.3 481.374
308 0 73.2951 12.975 951 88.1619 1167.34 480.437
309 0 75.1732 12.7705 960 88.775 1167.28 479.679
310 0 77.1579 12.8049 988 89.9747 1167.34 478.18
311 0 79.1533 12.8864 1020 89.6627 1167.9 477.42
312 0 83.1664 12.9259 1075 91.6623 1167.77 476.388
313 0 85.2809 12.7227 1085 93.8912 1167.8 475.703
314 0 87.2518 12.9281 1128 93.828 1167.65 475.06
315 0 89.1824 13.1304 1171 93.8275 1168.49 473.64
316 0 93.2144 12.8092 1194 95.8534 1168.64 472.988
317 0 96.184 12.2993 1183 95.9552 1168.34 470.325
318 0 99.224 12.4365 1234 95.8476 1166.99 469.666
319 1 51.0888 10.7264 548 92.0511 1166.97 494.788
320 0 50.3577 11.1204 560 92.2786 1167.63 493.98
321 0 49.2286 10.9895 541 85.9002 1167.57 488.804
322 0 53.3405 12.1109 646 90.4628 1167.83 492.969
323 0 57.1051 12.6959 725 89.1559 1169.52 494.232
324 0 58.027 12.5287 727 88.8982 1169.71 494.402
325 0 58.0578 12.4703 724 91.4517 1169.09 494.374
326 0 61.0369 13.2215 807 87.746 1169.24 492.89
327 0 62.0334 12.8801 799 89.2065 1169.15 490.921
328 0 63.0762 13.1428 829 88.4704 1168.97 490.965
329 0 65.1283 13.1894 859 86.8382 1169.15 492.152
330 0 67.0769 13.2236 887 87.7531 1168.67 490.24
331 0 67.069 13.1954 885 137.958 1167.69 490.191
332 0 71.0738 13.1272 933 88.7052 1168.86 485.471
334 0 73.0757 13.3013 972 89.9969 1168.63 486.245
335 0 73.0648 12.2357 894 94.1163 1168.09 485.951
336 0 77.1117 12.7477 983 92.2258 1168.01 484.48
337 0 79.1046 12.1105 958 94.4708 1168.19 484.597
338 0 80.1356 12.8033 1026 95.3051 1168.21 481.071
339 0 83.1618 13.5278 1125 92.4996 1168.04 480.766
340 0 90.3204 14.0389 1268 89.7421 1167.16 474.837
341 0 87.0635 11.7615 1024 91.0859 1166.68 471.198
342 0 88.0917 11.0453 973 93.5272 1166.73 469.007
343 1 47.046 10.0115 471 85.0021 1167.03 491.066
344 0 51.0548 10.5965 541 86.6285 1166.74 491.477
345 0 50.025 11.4143 571 82.0263 1166.24 489.713
346 0 55.2383 12.2198 675 88.8696 1166.71 494.323
347 0 56.1617 12.7845 718 87.798 1166.9 492.93
348 0 58.1657 12.8426 747 88.5649 1166.72 493.805
349 0 58.1227 11.665 678 92.4425 1166.12 492.773
350 0 59.1895 11.8433 701 91.9658 1166.73 492.899
351 0 61.2232 12.0052 735 91.5156 1166.7 492.283
352 0 63.1452 12.0199 759 90.8274 1166.23 491.061
353 0 66.2065 12.8537 851 88.8989 1166.28 490.032
354 0 67.1595 12.716 854 88.63 1166.36 491.177
355 0 69.241 12.8103 887 89.4194 1166.75 486.847
356 0 69.1521 12.1616 841 92.2342 1166.58 486.455
357 0 74.1442 12.8398 952 86.8676 1166.77 485.362
358 0 74.1673 11.6628 865 92.7272 1166.43 485.296
359 0 77.1391 11.9006 918 90.5632 1166.46 483.855
360 0 81.1454 12.3482 1002 91.7864 1166.17 480.902
361 0 83.1908 12.8259 1067 92.0909 1165.46 478.995
362 0 85.2115 11.8646 1011 92.4224 1165.99 477.026
363 1 46.0135 11.8009 543 90.3738 1166.84 498.617
364 0 48.0303 12.2631 589 86.6418 1167.2 496.874
365 0 47.1307 12.1152 571 87.1033 1167.56 495.765
366 0 50.1896 12.6321 634 83.6877 1167.94 497.197
367 0 53.1606 13.2429 704 81.1151 1167.4 496.649
368 0 53.1749 13.0701 695 82.9568 1166.86 495.586
369 0 56.1877 13.01 731 82.632 1166.92 495.583
370 0 56.155 13.3737 751 83.779 1167.08 493.64
371 0 57.1973 13.5321 774 83.1434 1166.71 492.335
372 0 60.1711 13.445 809 81.5179 1166.46 491.062
373 0 61.1606 13.1457 804 83.3657 1167.5 492.26
374 0 61.1166 12.6807 775 86.2052 1166.97 489.805
375 0 64.1703 12.5603 806 83.505 1167.6 487.953
376 0 66.2168 12.4289 823 81.4423 1166.91 486.96
377 0 70.2132 12.989 912 81.0011 1167.1 487.067
378 0 72.1436 12.4197 896 82.9252 1167.38 486.129
379 0 73.1184 12.7191 930 83.9387 1166.85 484.494
380 0 77.1761 12.1152 935 85.4321 1167.11 484.003
381 0 80.1784 12.5221 1004 86.9323 1166.57 482.084
382 0 82.1168 12.7988 1051 88.4691 1166.76 480.917
383 0 85.2263 12.59 1073 90.6729 1167.1 478.719
384 0 87.082 13.4126 1168 89.536 1166.91 476.661
385 1 46.1911 11.4524 529 89.9943 1167.74 496.535
386 0 48.2832 11.0598 534 90.9064 1168.76 495.717
387 0 51.3003 12.0077 616 88.9756 1167.46 493.669
388 0 51.2106 11.9116 610 88.818 1167.8 493.513
389 0 54.1773 12.1453 658 87.383 1166.83 493.491
390 0 52.0538 12.2181 636 92.522 1168.05 493.294
391 0 53.1072 11.6557 619 94.4039 1167.74 492.955
392 0 57.1078 12.3626 706 89.5467 1167.8 490.265
393 0 59.0524 12.4804 737 89.7069 1167.7 489.327
394 0 59.0632 11.6316 687 92.5124 1167.82 488.744
395 0 63.1018 12.8364 810 89.4444 1168.35 486.215
396 0 66.086 12.0449 796 90.7085 1168.53 486.681
397 0 66.1318 12.6717 838 92.1778 1167.65 484.891
398 0 70.1341 12.3905 869 93.0725 1168.2 486.277
399 0 70.1409 12.9169 906 99.8201 1169.05 484.1
400 0 74.1502 13.2434 982 100.067 1168.91 481.507
401 0 77.1342 13.2756 1024 100.652 1168.52 478.848
402 0 79.1675 13.2504 1049 101.579 1168.33 477.398
403 0 83.1677 13.3586 1111 102.879 1168.09 477.152
404 0 84.2114 13.5017 1137 105.447 1168.56 476.418
405 0 87.1018 13.8229 1204 104.014 1168.8 477.223
406 0 89.148 13.6178 1214 104.332 1168.46 477.932
407 0 92.1487 13.565 1250 105.627 1168.71 476.152
408 0 95.1657 13.4607 1281 106.124 1168.31 474.507
409 0 99.2836 13.4564 1336 106.252 1168.33 473.252
410 0 102.311 13.5371 1385 107.716 1168.42 471.051
411 1 54.0347 11.067 598 110.465 1169.28 493.736
412 0 54.0192 11.5329 623 109.751 1168.93 493.815
413 0 58.026 12.4944 725 105.117 1168.73 492.879
414 0 60.0465 13.1398 789 104.999 1168.44 492.117
415 0 59.093 11.9473 706 96.4263 1166.95 492.652
416 0 61.0574 12.2016 745 95.3651 1167.25 492.332
417 0 63.0983 12.4726 787 93.9111 1167.3 490.809
418 0 64.0603 12.1292 777 94.677 1167.01 491.676
419 0 64.0642 12.1909 781 147.54 1166.02 491.72
420 0 67.0653 12.0331 807 95.0136 1166.96 487.989
421 0 71.1088 12.277 873 94.425 1165.58 486.308
422 0 74.0776 11.6904 866 95.3372 1166.04 485.876
423 0 77.1114 12.4106 957 94.5674 1167.26 483.333
424 0 80.1452 12.3027 986 95.1775 1166.28 481.822
425 0 83.1182 11.7904 980 97.1908 1165.71 480.497
426 0 84.0878 12.4869 1050 96.7952 1165.35 479.78
427 0 87.0801 12.4024 1080 96.0991 1165.92 477.602
428 0 90.139 12.7137 1146 95.5401 1166.4 476.009
429 0 92.096 11.9115 1097 96.2315 1166.05 473.236
430 1 50.0266 10.9542 548 91.0328 1165.3 497.516
431 0 51.0563 11.6734 596 88.1057 1165.6 495.242
432 0 52.028 11.8013 614 88.5537 1164.67 493.765
433 0 52.0521 12.1609 633 99.6698 1167.99 493.562
434 0 54.0722 12.4648 674 98.1068 1167.87 492.82
435 0 54.096 12.5517 679 99.1723 1168.73 492.247
436 0 54.096 12.5148 677 144.03 1169.71 492.272
437 0 58.0383 12.2161 709 99.2102 1167.72 490.67
438 0 62.2326 12.3087 766 97.7128 1166.57 488.195
439 0 62.047 13.0224 808 96.9406 1166.14 486.955
440 0 64.1101 13.3988 859 95.6426 1166.73 487.034
441 0 68.1401 13.2815 905 95.7083 1166.53 485.281
442 0 69.2166 13.0171 901 95.7636 1166.71 486.196
443 0 71.1767 12.8413 914 96.3917 1166 483.49
444 0 74.1909 13.6809 1015 93.7744 1166.31 483.195
445 0 76.1885 12.8103 976 94.2613 1165.25 480.26
446 0 78.2075 13.0422 1020 94.4598 1165.3 479.62
447 0 82.314 13.2784 1093 93.9396 1165.64 478.242
448 0 83.2326 12.9517 1078 95.1679 1165.95 477.109
449 0 83.2738 12.2487 1020 99.3226 1165.65 478.898
450 0 86.3124 12.7792 1103 98.7833 1165.68 477.141
451 0 89.3563 12.937 1156 98.6107 1165.82 476.454
452 0 92.3532 12.8095 1183 98.5985 1166.12 474.423
453 0 95.3757 12.8859 1229 97.6794 1166.58 473.711
454 1 50.2097 10.0777 506 97.9842 1165.56 495.563
455 0 51.1258 10.8556 555 93.636 1165.24 495.8
456 0 52.0644 10.948 570 91.4719 1166.17 496.228
457 0 55.0436 10.9913 605 89.7587 1168.34 494.658
458 0 53.2061 10.5627 562 90.9769 1165.7 495.512
459 0 53.1486 10.6118 564 91.4699 1165.88 494.504
460 0 57.2112 11.4313 654 89.3379 1165.92 492.671
461 0 56.1696 11.216 630 89.8841 1166.12 492.914
462 0 59.1705 11.2218 664 88.6626 1166.47 490.994
463 0 62.2328 11.5695 720 88.0403 1166.21 491.185
464 0 61.2446 12.295 753 88.1633 1166.49 489.155
465 0 64.1733 12.0767 775 88.8232 1165.86 489.045
466 0 65.2297 11.8351 772 91.8536 1166.37 487.041
467 0 67.211 11.9921 806 91.4603 1166.13 484.483
468 0 68.0456 11.4482 779 93.3209 1165.26 484.578
469 0 72.1311 12.6298 911 90.135 1165.19 482.593
470 0 74.151 12.2857 911 92.5192 1165.98 481.497
471 0 76.273 12.3635 943 91.2068 1165.95 482.897
472 0 81.3731 13.0756 1064 90.1165 1165.86 480.616
473 0 81.3291 12.1851 991 93.004 1165.19 478.761
474 0 83.4813 12.5058 1044 94.3448 1165.9 476.284
475 1 43.0686 9.9144 427 86.9157 1165.27 492.3
476 0 41.2663 9.7416 402 85.3731 1165.97 488.42
477 0 42.2824 10.0278 424 84.7807 1165.72 490.403
478 0 46.2127 9.99725 462 86.2229 1165.39 491.385
479 0 49.0501 11.8043 579 85.7168 1168.65 496.463
480 0 50.1253 10.8129 542 87.2011 1168 495.95
481 0 51.0692 11.0047 562 87.7544 1166.7 495.496
482 0 52.0431 11.0293 574 87.0645 1167.55 493.725
483 0 54.0581 11.2657 609 86.9967 1167.54 491.87
484 0 57.1016 11.6459 665 84.4692 1167.65 492.77
485 0 59.204 11.2155 664 85.7876 1167.02 490.964
486 0 61.0886 12.0153 734 83.4687 1167.06 490.948
487 0 63.1049 11.5047 726 85.1804 1167.81 490.882
488 0 64.088 11.8119 757 84.6407 1167.43 488.612
489 0 66.0792 12.2278 808 84.0359 1167.49 487.748
490 0 69.1282 11.674 807 84.6506 1167.71 488.088
491 0 71.0687 11.8477 842 83.3705 1167.12 485.508
492 0 73.0517 12.2516 895 82.438 1167.91 485.563
493 0 75.0787 11.5212 865 84.2798 1167.97 483.627
494 0 79.2242 11.3602 900 82.5856 1167.7 484.678
495 0 81.1768 11.9369 969 83.7977 1166.91 480.652
496 0 82.1655 11.8419 973 83.5838 1166.73 480.613
497 1 45.0481 11.077 499 85.2064 1167.25 498.691
498 0 46.0265 11.9714 551 84.706 1168.22 498.309
499 0 48.0574 11.736 564 85.8511 1168.73 497.915
500 0 47.102 12.0377 567 85.7936 1168.04 496.88
501 0 50.129 11.8095 592 86.8463 1167.23 496.01
502 0 50.042 11.6302 582 89.311 1167.32 496.342
503 0 50.044 11.9495 598 90.4298 1167.36 496.923
504 0 51.015 12.4473 635 88.9276 1167.64 494.967
505 0 53.0694 12.738 676 87.6686 1167.29 494.212
506 0 55.0382 12.7366 701 87.117 1167.28 492.659
507 0 56.0375 12.5809 705 87.383 1167.18 493.57
508 0 58.0264 12.3047 714 86.8109 1167.56 492.643
509 0 60.035 12.6759 761 84.5007 1167.48 492.501
510 0 62.0639 12.2132 758 85.9406 1167.78 489.732
511 0 64.1072 12.8067 821 84.3021 1167.62 488.899
512 0 65.1501 12.6938 827 87.006 1167.67 488.11
513 0 68.0925 13.0558 889 85.7424 1166.82 488.25
514 0 70.1085 13.2509 929 85.3972 1166.42 487.184
515 0 72.0642 13.4741 971 84.8414 1167.5 485.485
516 0 74.0278 13.1167 971 86.3769 1167.11 484.788
517 0 76.0896 13.3921 1019 85.3533 1167.07 483.73
518 0 78.0542 12.786 998 87.2545 1166.94 485.036
519 0 80.1228 12.8178 1027 88.5706 1166.44 483.541
520 0 82.0814 12.6703 1040 89.8019 1166.88 481.302
521 0 84.038 12.6728 1065 86.5427 1165.85 482.008
522 0 88.0741 12.6484 1114 86.2172 1166.68 481.022
523 0 90.1796 13.2402 1194 84.6868 1165.77 479.796
524 0 91.1987 12.4015 1131 84.0088 1165.93 478.472
525 0 93.1593 12.3337 1149 77.1749 1164.67 478.261
526 0 96.3041 12.2009 1175 76.5294 1165.6 475.896
527 0 100.211 12.6534 1268 76.5465 1165.33 476.141
528 0 100.149 12.3016 1232 78.3011 1165.39 474.592
529 0 104.162 12.2693 1278 79.59 1166.1 471.293
530 0 107.122 11.977 1283 81.092 1165.39 470.152
531 0 110.186 12.8056 1411 80.4947 1165.34 470.605
532 0 114.396 12.5704 1438 81.3254 1164.69 465.876
533 0 120.469 12.2355 1474 81.6669 1164.74 463.222
534 0 124.432 13.0754 1627 89.3583 1164.64 461.331
535 1 64.2657 10.8923 700 77.6143 1165.7 490.99
536 0 66.2825 11.4359 758 77.3654 1166.4 493.066
537 0 69.2248 12.1199 839 75.2122 1165.82 491.768
538 0 70.0933 12.8258 899 73.7586 1164.29 490.635
539 0 71.2436 12.7871 911 73.281 1164.58 491.931
540 0 74.1304 13.1255 973 73.5334 1164.49 489.866
541 0 76.1523 12.9346 985 74.9127 1164.22 488.244
542 0 79.0821 13.3659 1057 75.5951 1165.97 486.855
543 0 83.0757 12.4946 1038 80.3439 1166.36 484.351
544 0 85.0328 12.4893 1062 82.4991 1166.06 484.51
545 0 88.1666 12.9074 1138 82.7953 1165.67 482.59
546 0 90.1392 12.0924 1090 83.0358 1166.12 482.688
547 0 94.0734 12.8092 1205 82.0888 1165.9 480.656
548 0 95.1203 12.3948 1179 83.436 1166.1 478.175
549 0 99.2546 12.9969 1290 83.1767 1164.75 475.126
550 0 100.238 12.201 1223 84.3385 1165.4 472.791
551 0 104.524 12.313 1287 84.1772 1165.4 469.304
552 1 54.3543 10.7075 582 80.0601 1165.77 495.526
553 0 55.3624 11.3615 629 79.132 1164.78 493.897
554 0 55.3266 11.4592 634 80.3454 1164.91 495.222
555 0 59.327 12.1867 723 76.4426 1164.88 494.104
556 0 59.1373 11.9045 704 78.4943 1163.88 496.521
557 0 61.1981 12.337 755 77.2397 1164.3 495.734
558 0 61.0823 11.3945 696 78.8851 1163.87 494.879
559 0 66.0877 12.4834 825 74.2642 1163.9 494.972
560 0 69.1152 12.8192 886 73.447 1164.33 494.063
561 0 71.0976 12.5039 889 73.6558 1163.94 491.445
562 0 70.1912 12.2665 861 75.9535 1164.61 491.576
563 0 76.0416 12.7956 973 73.6691 1165.34 487.423
564 0 76.045 12.3216 937 75.1014 1165.24 487.668
565 0 81.1031 13.1438 1066 74.0863 1165.23 486.949
566 0 84.0338 13.328 1120 73.6688 1165.17 486.45
567 0 83.3436 12.5385 1045 74.2833 1164.59 486.231
568 0 87.3627 13.5298 1182 72.5093 1165.22 484.712
569 0 90.1896 12.7731 1152 76.171 1164.98 482.314
570 0 92.3893 13.2916 1228 76.2785 1165.14 480.142
571 0 95.2415 12.988 1237 80.7817 1164.75 477.529
572 0 99.3524 13.0244 1294 79.8107 1164.64 476.878
573 0 102.389 12.8333 1314 79.8592 1165.37 475.091
574 0 104.361 12.6196 1317 81.4996 1165.24 472.301
575 1 56.3946 11.5082 649 76.339 1166.13 497.368
576 0 58.2822 11.7188 683 76.1552 1165.44 496.455
577 0 59.3679 12.9026 766 74.9582 1165.74 494.963
578 0 60.3827 13.1163 792 76.7626 1165.47 494.066
579 0 63.2456 12.5226 792 76.6149 1165.17 494.081
580 0 63.2456 12.491 790 137.344 1165.19 494.077
581 0 66.0522 13.2774 877 78.1232 1165.58 492.534
582 0 70.078 13.3565 936 75.843 1165.93 493.237
583 0 73.098 14.0907 1030 75.1437 1166.13 491.548
584 0 75.0829 13.4651 1011 77.9674 1166.54 489.051
585 0 78.0764 14.14 1104 77.4303 1166.11 489.224
586 0 81.2057 14.9497 1214 75.3814 1165.67 487.946
587 0 82.1897 14.1624 1164 79.6357 1165.67 485.673
588 0 86.1877 14.7701 1273 79.6936 1164.67 484.634
589 0 86.2472 13.7628 1187 84.3252 1165.07 483.824
590 0 91.2097 14.3406 1308 82.9656 1165.27 482.714
591 0 93.2152 13.8068 1287 85.5983 1165.11 480.799
592 0 97.0941 13.5539 1316 93.6915 1165.53 479.801
593 1 51.0156 12.0355 614 95.4495 1165.55 503.822
594 0 52.0409 12.0482 627 97.0112 1165 503.164
595 0 55.0976 12.4869 688 95.6424 1166.04 502.044
596 0 55.0976 12.5051 689 168.734 1167.03 502.029
597 0 55.0252 12.4125 683 97.0293 1165.03 501.389
598 0 58.2295 12.8972 751 91.538 1165.01 498.698
599 0 60.0408 13.7573 826 88.8547 1162.84 499.149
600 0 62.1832 13.4924 839 91.7032 1164.75 496.781
601 0 60.1269 12.3406 742 95.6887 1164.79 499.755
602 0 63.1451 12.3842 782 95.2596 1164.97 497.992
603 0 66.105 12.3138 814 98.2396 1164.83 495.372
604 0 70.0946 12.8826 903 95.4983 1164.95 494.134
605 0 73.0448 12.7182 929 95.0377 1164.37 494.153
606 0 74.099 12.3079 912 96.386 1164.2 492.954
607 0 77.0656 12.7294 981 90.3751 1164.36 491.394
608 0 80.0718 13.3505 1069 87.9626 1162.65 489.957
609 0 81.0393 12.5618 1018 90.89 1163.03 486.468
610 0 84.0384 12.6014 1059 90.2323 1162.34 487.004
611 0 88.0957 13.1448 1158 88.4586 1163.11 483.896
612 0 91.0535 12.8166 1167 90.1474 1163.1 483.129
613 0 94.0844 13.3391 1255 88.6884 1162.88 481.939
614 1 47.0779 11.619 547 96.7112 1162.74 502.43
615 0 51.0758 13.0003 664 90.9277 1162.7 502.678
616 0 52.1375 13.5795 708 88.2782 1163.06 501.401
617 0 53.0818 13.5075 717 93.1283 1162.16 499.485
618 0 55.1428 13.2565 731 87.5978 1163.49 499.394
619 0 56.1368 12.9861 729 86.2373 1164.14 497.609
620 0 55.1003 12.2141 673 89.838 1164.17 496.012
621 0 57.107 12.1176 692 88.6503 1164.13 496.366
622 0 60.1642 12.8482 773 86.238 1164.6 495.797
623 0 63.188 12.1067 765 87.2614 1164.2 496.146
624 0 63.0698 12.6051 795 88.5069 1164.44 494.713
625 0 66.1135 12.5542 830 89.0566 1164.1 493.007
626 0 69.0662 14.1169 975 86.842 1164.09 491.484
627 0 69.1224 12.6587 875 92.0937 1164.25 490.754
628 0 71.1122 13.4576 957 91.6667 1164.07 488.454
629 0 74.1186 13.222 980 92.3674 1163.87 488.352
630 0 79.1933 13.7638 1090 90.6532 1164.97 486.698
631 0 79.15 13.5313 1071 93.3623 1165.25 485.562
632 0 83.1264 13.6659 1136 93.9956 1164.81 483.98
633 0 85.0707 14.1882 1207 93.1988 1164.06 482.882
634 0 89.2272 13.9195 1242 94.07 1164.44 480.68
635 1 43.0199 11.1344 479 97.9812 1164.1 502.958
636 0 47.0249 12.5678 591 96.8393 1164.68 500.014
637 0 49.0225 12.0557 591 97.0863 1165.34 500.946
638 0 50.0461 12.7682 639 93.0078 1165.6 500.119
639 0 52.0966 13.0527 680 90.95 1164.43 499.276
640 0 51.1255 12.5965 644 93.9752 1164.23 498.328
641 0 53.1143 13.5557 720 92.0306 1164.66 497.561
642 0 55.0319 13.0652 719 100.801 1165.85 497.567
643 0 58.1202 12.9731 754 97.9191 1165.5 495.71
644 0 59.1184 13.5322 800 95.7162 1164.61 494.19
645 0 62.1286 13.8101 858 95.0058 1165.11 492.346
646 0 63.1279 13.9083 878 94.303 1164.52 491.527
647 0 65.0971 13.8562 902 94.0443 1164.68 490.863
648 0 66.0907 13.6933 905 96.2784 1164.77 489.552
649 0 69.0665 13.5811 938 96.2516 1165.18 487.135
650 0 71.1001 13.7131 975 96.6369 1164.8 486.342
651 0 74.1465 13.4194 995 98.5688 1164.86 486.16
652 0 76.1628 14.5215 1106 95.1636 1164.74 485.004
653 0 78.0541 14.0544 1097 97.5187 1165.68 484.292
654 0 81.0802 14.7385 1195 96.3481 1164.99 482.408
655 0 83.1076 14.018 1165 98.2566 1165.19 482.21
656 0 86.0647 13.5015 1162 99.1463 1165.15 480.379
657 1 43.063 10.6124 457 90.5427 1165.66 501.51
658 0 46.1089 11.5813 534 86.6966 1165.77 500.474
659 0 47.0465 11.2017 527 82.1385 1167.08 501.662
660 0 48.1319 12.1749 586 82.5495 1166.46 499.386
661 0 49.082 12.5097 614 85.2345 1164.79 500.016
662 0 51.1407 12.5731 643 85.7838 1165.92 497.781
663 0 53.1034 12.3721 657 84.4201 1166.43 496.922
664 0 53.109 13.3499 709 86.275 1165.5 495.818
665 0 57.1079 12.8354 733 94.839 1165.39 495.483
666 0 58.2646 12.8723 750 98.5947 1165.4 494.171
667 0 60.1108 13.4086 806 97.1749 1164.89 493.397
668 0 61.1828 12.5035 765 98.4366 1165.57 491.894
669 0 64.2025 13.2549 851 99.8942 1166.58 489.91
670 0 64.2701 12.6809 815 102.094 1166.49 490.492
671 0 67.1811 13.5752 912 100.124 1167.08 487.704
672 0 68.378 13.323 911 101.812 1167.53 488.392
673 0 71.3754 13.0297 930 103.739 1167.19 487.117
674 0 72.397 13.3707 968 104.317 1167.24 486.268
675 0 76.3425 13.9503 1065 101.687 1166.33 483.928
676 0 77.2643 12.9555 1001 105.475 1166.16 484.044
677 0 80.183 12.1347 973 94.8787 1165.92 481.879
678 0 82.1485 12.9522 1064 91.4821 1165.73 479.522
679 0 86.1859 11.9741 1032 94.6793 1166.03 477.14
680 0 88.2158 12.6395 1115 94.4511 1165.44 477.729
681 0 90.1933 12.2404 1104 94.9656 1165.92 475.967
682 0 94.2255 12.4064 1169 89.1369 1166.09 476.102
683 1 48.1201 10.2244 492 90.4695 1166.97 501.317
684 0 49.2149 11.6225 572 89.542 1167.92 500.549
685 0 52.3729 12.8884 675 87.6459 1168.05 495.375
686 0 54.4757 12.6111 687 89.9723 1167.18 493.086
687 0 57.1865 13.08 748 87.5254 1167.5 495.92
688 0 59.059 13.5119 798 87.8897 1168.51 495.982
689 0 59.0372 13.0934 773 90.4373 1168.39 495.069
690 0 62.04 13.2173 820 89.6244 1168.45 495.005
691 0 64.0563 12.77 818 92.3668 1168.1 493.589
692 0 66.0558 13.8216 913 90.5783 1168.92 492.611
693 0 68.0716 12.9276 880 93.633 1168.54 492.097
694 0 71.0988 13.8962 988 92.6285 1168.82 490.18
695 0 74.0867 13.5787 1006 92.9284 1168.24 489.451
696 0 75.1004 13.4087 1007 92.7418 1167.97 488.195
697 0 78.0835 13.4087 1047 106.667 1168.29 486.958
698 0 81.1366 13.1137 1064 106.044 1168.24 486.255
699 0 82.1647 13.1565 1081 105.047 1167.76 486.046
700 0 85.0827 13.1402 1118 104.479 1167.52 483.757
701 0 88.3413 13.5044 1193 102.24 1167.58 484.319
702 0 90.2409 12.5774 1135 103.292 1167.43 481.295
703 0 92.3291 12.6396 1167 102.884 1167.31 478.734
704 0 93.3889 12.8709 1202 101.254 1166.2 479.359
705 1 46.07 10.7011 493 93.5801 1167.82 504.02
706 0 50.0722 11.9827 600 89.5583 1166.78 502.447
707 0 50.0226 11.8746 594 89.4529 1166.3 500.645
708 0 53.051 12.1016 642 89.0561 1166.21 499.481
709 0 53.1055 11.7502 624 88.0849 1165.05 502.462
710 0 54.0736 12.0946 654 88.1529 1165.4 500.388
711 0 55.0759 11.4751 632 89.0965 1165.95 501.206
712 0 58.1704 11.4319 665 89.0887 1165.12 498.704
713 0 61.1809 12.2424 749 88.1869 1165.27 497.953
714 0 62.1699 11.8707 738 90.7995 1164.43 495.787
715 0 64.1037 12.433 797 90.1117 1165.35 493.883
716 0 67.1667 11.8511 796 93.3769 1165.5 492.77
717 0 71.0859 12.9562 921 96.9023 1165.34 492.066
718 0 70.1659 12.7982 898 99.0412 1165.7 490.347
719 0 74.1548 13.0133 965 98.5171 1165.71 490.088
720 0 75.1445 12.6423 950 100.415 1166.61 487.988
721 0 80.2495 13.8069 1108 97.1579 1165.77 486.048
722 0 80.1967 13.4794 1081 99.087 1165.93 484.447
723 0 83.216 13.3388 1110 99.5739 1165.9 485.341
724 0 86.2153 12.9327 1115 101.864 1165.94 483.042
725 0 88.2159 13.1722 1162 104.17 1165.83 482.539
726 0 91.1962 13.948 1272 103.326 1165.22 481.079
727 1 44.2009 11.4025 504 102.581 1165.8 505.091
728 0 45.2133 11.4568 518 101.566 1166.04 504.759
729 0 47.2655 11.9749 566 102.436 1165.99 502.717
730 0 49.3351 13.0941 646 101.907 1166.61 501.274
731 0 48.107 12.3683 595 112.889 1166.67 498.711
732 0 51.1628 12.9586 663 108.463 1166.84 497.712
733 0 53.4157 12.8614 687 107.112 1166.59 498.568
734 0 54.3487 13.1926 717 107.314 1166.92 495.781
735 0 55.3414 13.6787 757 106.155 1166.76 494.264
736 0 57.2817 13.6344 781 106.344 1167.09 492.958
737 0 60.3486 13.7037 827 106.229 1166.68 492.069
738 0 61.3005 14.2739 875 106.783 1167.17 491.831
739 0 63.331 13.9584 884 108.128 1167.31 491.971
740 0 65.4369 14.3039 936 106.942 1168.09 491.075
741 0 67.2618 14.0942 948 107.874 1167.72 489.38
742 0 69.4416 14.6166 1015 107.434 1167.31 489.025
743 0 71.3772 14.7106 1050 108.65 1166.59 487.025
744 0 72.3974 14.4066 1043 108.998 1166.69 487.931
745 0 75.4828 15.0763 1138 107.122 1167.11 486.498
746 0 77.4858 14.8285 1149 109.795 1167.55 484.307
747 0 77.2194 14.8149 1144 112.574 1167.72 483.15
748 0 79.2031 15.1257 1198 114.349 1167.49 481.677
749 0 81.2549 14.8545 1207 114.958 1166.98 481.196
750 0 84.2914 14.5922 1230 116.699 1167.41 480.659
751 0 86.3524 14.7072 1270 116.076 1167.6 478.515
752 0 87.2247 15.2938 1334 115.127 1167.49 478.537
753 0 90.1964 14.7789 1333 115.62 1167.11 477.156
754 0 92.1725 15.113 1393 115.289 1167.2 476.12
755 0 97.1649 15.695 1525 112.142 1167.44 474.593
756 0 101.262 15.8104 1601 111.586 1167.48 474.526
757 0 103.146 15.4636 1595 112.597 1167.33 472.489
758 0 106.26 15.4527 1642 112.868 1167.42 471.211
759 0 109.243 15.2046 1661 114.311 1167.25 469.243
760 0 112.292 15.4063 1730 113.396 1167.75 467.784
761 0 115.177 15.6195 1799 113.113 1167.34 466.314
762 0 120.193 15.9993 1923 109.501 1167.46 465.339
763 0 123.168 16.1406 1988 110.408 1166.55 462.958
764 0 127.209 15.5413 1977 110.285 1166.36 458.684
765 1 64.2008 12.897 828 122.312 1167.08 488.576
766 0 66.1693 13.7526 910 119.38 1166.53 486.87
767 0 69.1929 14.5246 1005 116.157 1166.97 485.421
768 0 71.2021 14.5501 1036 118.782 1166.75 483.401
769 0 74.1542 15.2655 1132 115.394 1166.55 480.308
770 0 76.1644 15.0464 1146 116.082 1166.96 478.891
771 0 79.1345 15.1767 1201 114.913 1166.47 479.085
772 0 82.138 15.8148 1299 111.186 1166.69 477.315
773 0 85.0889 15.0783 1283 113.407 1166.77 475.765
774 0 87.1122 14.8659 1295 113.764 1166.42 473.992
775 0 90.1081 15.4148 1389 112.099 1165.76 471.52
776 0 91.0978 14.5558 1326 115.124 1166.59 470.154
777 0 96.0931 15.0063 1442 111.136 1166.26 468.621
778 0 99.0731 14.9687 1483 109.338 1165.68 464.842
779 0 102.125 14.7956 1511 109.152 1165.69 463.797
780 0 107.093 14.8375 1589 106.578 1165.78 461.165
781 0 108.12 14.4192 1559 105.983 1165.32 455.432
782 1 53.0714 9.77928 519 100.085 1165.06 478.973
783 0 54.1002 9.98147 540 97.7889 1165.21 477.913
784 0 62.0875 12.2247 759 97.2701 1163.75 486.066
785 0 63.0653 11.6387 734 98.8038 1164.8 486.531
786 0 66.0673 11.8818 785 99.5338 1164.83 486.47
787 0 68.0342 12.5525 854 98.274 1165.03 486.179
788 0 72.0817 12.5829 907 98.1786 1165.22 483.783
789 0 74.05 12.0864 895 99.7084 1164.81 483.486
790 0 76.2367 12.1857 929 99.3305 1164.97 482.997
791 0 78.1049 11.8046 922 100.289 1165.11 481.839
792 0 81.1799 12.2321 993 99.6365 1164.74 479.187
793 0 84.08 12.2264 1028 100.499 1164.8 476.983
794 0 88.1753 12.6906 1119 97.4808 1164.92 476.861
795 0 89.158 12.3713 1103 99.4134 1165.2 474.535
796 0 92.2583 12.5951 1162 99.2031 1165.46 473.587
797 0 95.2354 12.4743 1188 100.099 1165.84 472.125
798 0 98.1831 12.4563 1223 100.808 1165.94 471.907
799 0 98.1831 12.4767 1225 148.293 1165.93 471.842
800 1 55.107 11.5956 639 93.6573 1166.11 493.216
801 0 58.116 11.4082 663 94.5204 1165.95 493.299
802 0 59.13 11.7538 695 93.9137 1165.52 492.994
803 0 58.0354 11.4413 664 97.8042 1166.04 491.75
804 0 61.0929 11.8508 724 95.9655 1165.67 491.55
805 0 60.0534 11.9727 719 87.9054 1164.82 492.587
806 0 59.1141 10.725 634 91.7303 1165.31 492.155
807 0 64.0344 11.7593 753 89.2457 1165.29 493.29
808 0 66.0444 11.9768 791 89.9962 1165.94 490.996
809 0 66.0426 11.9317 788 92.4061 1165.43 488.883
810 0 68.0294 11.495 782 94.5665 1165.12 489.022
811 0 71.0432 11.7393 834 94.4568 1164.74 485.868
812 0 74.0694 11.6512 863 95.1553 1164.72 484.275
813 0 74.0671 11.6246 861 96.0964 1164.83 483.848
814 0 77.0372 12.0591 929 95.93 1164.25 483.734
815 0 79.0661 12.2303 967 96.8428 1163.97 483.316
816 0 80.0858 12.2244 979 98.0858 1164.28 482.759
817 0 85.1551 12.1308 1033 97.8538 1164.51 482.232
818 0 86.0663 12.6879 1092 97.9579 1163.67 479.636
819 0 86.0944 12.0682 1039 99.4639 1163.79 480.763
820 0 90.1041 12.1193 1092 98.6767 1164.16 478.359
821 0 94.095 12.5299 1179 96.4402 1163.64 476.168
822 0 96.137 12.6798 1219 96.6628 1163.36 474.37
823 0 98.1135 12.4346 1220 96.9164 1163.53 474.752
824 0 102.116 12.0745 1233 96.3771 1162.79 472.04
825 0 104.166 12.2112 1272 95.6289 1162.49 472.228
826 0 109.11 12.162 1327 94.5968 1162.71 470.231
827 0 112.093 12.793 1434 92.8319 1162.63 467.415
828 0 117.086 12.2133 1430 92.2441 1162.52 466.272
829 0 120.18 11.4911 1381 90.3519 1162.97 464.401
830 1 67.0956 10.3434 694 80.8285 1164.68 492.301
831 0 69.1041 10.3467 715 79.5441 1164.54 491.257
832 0 70.0521 10.6635 747 76.5141 1164.48 488.435
833 0 73.0863 11.1512 815 77.746 1164.12 488.436
834 0 74.144 11.154 827 77.809 1163.98 486.519
835 0 78.2828 11.7012 916 75.9749 1163.05 486.116
836 0 81.1871 11.6644 947 76.7033 1162.93 483.933
837 0 83.1285 10.9469 910 79.2681 1163.05 480.698
838 0 85.0781 11.2602 958 83.2662 1163.1 479.048
839 0 89.1493 11.3966 1016 83.2815 1162.52 475.411
840 0 91.1586 12.1217 1105 79.9846 1162.09 476.251
841 0 93.1798 11.3007 1053 83.4796 1162.52 473.444
842 0 97.1567 12.2071 1186 82.9283 1162.12 472.922
843 0 100.192 11.7474 1177 81.8326 1162.68 470.15
844 0 103.166 11.6803 1205 81.0564 1162.55 470.633
845 0 107.192 11.6986 1254 81.7679 1163.32 467.453
846 0 112.182 12.1142 1359 81.4577 1163.19 465.511
847 0 114.138 12.3534 1410 82.2872 1162.49 465.618
848 0 121.272 12.3772 1501 82.473 1162.7 463.416
849 0 122.242 12.2871 1502 85.1225 1163.24 460.014
850 0 128.238 12.1415 1557 88.729 1163.28 456.151
851 1 65.0629 9.88274 643 82.2131 1163.64 489.969
852 0 69.1249 10.6185 734 80.7657 1163.69 489.076
853 0 72.118 10.9681 791 81.9785 1163.65 488.764
854 0 72.0927 11.4159 823 83.6659 1163.55 487.563
855 0 76.1199 12.5854 958 81.4509 1163.9 486.565
856 0 78.1101 12.2519 957 82.9833 1163.58 484.994
857 0 81.1223 12.9557 1051 83.4567 1163.84 481.744
858 0 82.185 12.3867 1018 100.368 1163.57 481.419
859 0 86.1281 12.2956 1059 100.204 1163.55 481.413
860 0 89.1489 12.7876 1140 100.485 1163.21 479.944
861 0 92.1405 12.9259 1191 99.8354 1163.22 478.003
862 0 95.1533 13.4625 1281 97.7447 1163.19 476.696
863 0 97.1856 13.4794 1310 97.8221 1163.93 475.879
864 0 99.164 13.5634 1345 98.4342 1164.25 474.493
865 0 101.198 13.4192 1358 100.147 1163.17 472.432
866 0 105.139 13.2586 1394 100.338 1163.33 470.187
867 0 107.123 12.7704 1368 102.939 1164.38 467.906
868 0 111.169 13.565 1508 97.4814 1164.52 467.133
869 0 112.174 12.6054 1414 101.1 1164.55 464.598
870 1 59.0684 10.9534 647 98.3678 1165.6 491.717
871 0 60.151 11.521 693 99.5426 1164.37 490.273
872 0 62.1165 11.8487 736 99.9918 1164.21 488.571
873 0 63.1664 11.8892 751 100.288 1164.25 489.461
874 0 66.1552 12.6067 834 97.5671 1163.96 488.329
875 0 69.1234 12.6007 871 97.8014 1164.25 487.427
876 0 72.2014 13.2962 960 96.9396 1163.7 486.728
877 0 75.202 13.6432 1026 97.2144 1164.28 484.241
878 0 75.1578 12.9727 975 100.279 1163.91 482.525
879 0 78.1962 12.4431 973 103.06 1162.82 481.816
880 0 80.233 12.875 1033 102.218 1162.87 481.97
881 0 82.2016 12.9438 1064 102.78 1163.07 480.779
882 0 85.2113 13.4724 1148 101.398 1163.39 480.73
883 0 89.1602 13.4477 1199 101.696 1163.35 480.109
884 0 92.2524 12.8127 1182 104.51 1163.52 474.892
885 0 95.3472 13.4456 1282 102.661 1163.7 477.046
886 0 97.2669 12.8204 1247 105.111 1163.54 472.698
887 1 51.033 11.1105 567 101.268 1165.9 496.056
888 0 53.0593 11.7227 622 97.574 1164.85 496.428
889 0 54.1064 12.2351 662 92.639 1165.06 494.858
890 0 56.1486 12.3601 694 99.8386 1165.23 494.075
891 0 56.1398 12.6826 712 96.059 1163.93 494.753
892 0 57.0771 12.8773 735 93.8014 1165.44 493.83
893 0 58.0943 13.0133 756 96.1243 1165.58 493.221
894 0 61.0955 12.9142 789 94.2712 1165.43 492.644
895 0 63.0898 12.6803 800 98.4375 1165.84 491.311
896 0 65.1745 13.1954 860 96.0221 1165.73 490.573
897 0 67.1981 13.3784 899 94.911 1165.07 489.754
898 0 69.1515 13.2029 913 95.5225 1165.56 487.65
899 0 72.2016 13.5177 976 94.8914 1165.39 486.113
900 0 74.2558 13.871 1030 93.8961 1166.11 486.869
901 0 76.3088 13.4585 1027 97.0954 1165.45 484.081
902 0 77.3227 13.476 1042 98.3829 1165.52 481.966
903 0 79.3449 13.2838 1054 99.185 1165.67 480.821
904 0 82.4596 13.6794 1128 98.0408 1165.93 478.789
905 0 85.4134 13.7449 1174 97.3816 1165.75 477.44
906 0 84.2755 13.266 1118 99.3551 1166.66 474.392
907 0 88.2395 13.4634 1188 97.6195 1166.88 472.407
908 1 43.0226 10.8083 465 98.6817 1166.84 493.363
909 0 44.0727 10.9138 481 91.8857 1166 491.57
910 0 45.1247 11.0361 498 87.7189 1165.5 490.681
911 0 47.1696 11.7024 552 83.8678 1164.99 490.065
912 0 48.1463 11.5897 558 88.3584 1165.78 492.668
913 0 50.1919 12.1733 611 103.151 1166.54 494.848
914 0 53.2506 12.6008 671 102.684 1166.68 493.757
915 0 54.2282 12.263 665 101.917 1166.2 494.493
916 0 54.1949 13.23 717 101.165 1166.17 493.473
917 0 55.2601 12.4502 688 105.105 1166.27 492.946
918 0 57.2 12.7273 728 102.712 1165.9 493.337
919 0 59.1684 12.8616 761 102.384 1166.16 490.541
920 0 60.1996 12.741 767 103.154 1165.9 489.193
921 0 62.1809 13.0908 814 102.686 1165.54 488.592
922 0 65.1973 13.2674 865 103.264 1166.1 489.423
923 0 66.2682 13.1436 871 103.831 1166.27 492.316
924 0 70.197 13.4194 942 103.132 1165.49 490.338
925 0 71.2129 13.2139 941 105.944 1165.26 486.864
926 0 72.223 13.2922 960 107.206 1165.24 486.108
927 0 72.2247 13.2642 958 154.8 1165.24 486.143
928 0 77.1532 13.6611 1054 105.726 1165.3 483.566
929 0 79.1645 13.8825 1099 105.294 1165.04 483.826
930 0 82.2857 13.3924 1102 106.73 1164.97 483.537
931 1 42.0519 11.4858 483 106.867 1165.96 503.474
932 0 45.1553 12.0252 543 104.451 1165.44 502.357
933 0 46.1176 12.1862 562 90.4235 1165.72 502.82
934 0 46.0495 12.2694 565 92.0354 1164.21 502.407
935 0 48.0837 12.8526 618 91.6278 1164.72 502.181
936 0 47.0827 12.3825 583 94.7839 1164.74 502.739
937 0 49.0637 12.1475 596 93.5755 1164.16 502.753
938 0 50.1404 12.3852 621 93.2206 1164.15 501.428
939 0 52.0764 12.04 627 95.3286 1163.81 501.258
940 0 52.0833 12.8256 668 92.8982 1164.08 501.37
941 0 54.1319 12.9683 702 91.265 1163.42 500.628
942 0 58.2008 13.1785 767 89.5815 1163.22 498.987
943 0 57.2104 13.1969 755 90.2053 1163.07 498.423
944 0 59.2646 13.0769 775 88.5974 1163.26 497.679
945 0 63.2053 13.5432 856 86.5608 1163.28 492.562
946 0 67.2188 12.5411 843 87.2206 1163.02 492.95
947 0 67.2523 13.3527 898 86.0234 1162.81 490.48
948 0 70.2097 13.417 942 86.2197 1162.5 489.998
949 0 73.1956 12.9653 949 86.7492 1163.51 489.406
950 0 74.1413 12.8943 956 87.1966 1163.45 487.087
951 0 79.0538 13.2189 1045 93.2038 1162.13 488.212
952 0 82.0965 13.204 1084 93.6919 1162.76 487.106
953 0 84.1382 12.8479 1081 97.4357 1164.45 485.751
954 0 87.0953 13.8813 1209 97.8925 1162.89 483.175
955 0 90.1049 13.229 1192 102.22 1163.13 481.696
956 1 46.0939 10.5003 484 88.2273 1161.79 503.488
957 0 45.053 11.1424 502 87.751 1161.44 503.299
958 0 50.1459 10.5692 530 87.6245 1162.4 500.523
959 0 51.0629 11.4369 584 86.5051 1163.04 500.329
960 0 54.109 11.8095 639 84.0423 1162.83 497.177
961 0 54.2069 12.0095 651 85.1874 1163.08 498.968
962 0 55.097 12.1604 670 85.0731 1163.03 497.14
963 0 56.1559 12.3584 694 85.1095 1162.74 496.14
964 0 60.0947 13.1126 788 82.2462 1162.93 495.774
965 0 61.1254 11.9263 729 81.9383 1163.08 496.082
966 0 65.1008 12.2886 800 82.7025 1163.92 495.152
967 0 69.174 12.9095 893 80.2643 1163.71 493.77
968 0 70.1576 12.9423 908 81.1145 1163.73 488.866
969 0 73.1639 12.9162 945 82.1651 1164.38 491.436
970 0 76.1202 12.9795 988 83.08 1164.01 486.135
971 0 77.1372 13.0676 1008 83.6875 1164.27 485.868
972 0 80.2161 13.0148 1044 89.3544 1163.95 485.235
973 0 82.1726 13.5325 1112 87.9218 1164.4 483.988
974 0 84.1683 13.0453 1098 89.6393 1164.45 482.559
975 0 84.1683 12.9621 1091 148.492 1164.45 482.619
976 0 89.1707 12.7396 1136 89.8398 1164.95 480.954
977 0 92.1777 13.1702 1214 88.6302 1164.78 479.825
978 0 94.3054 12.8413 1211 89.8505 1165.02 474.067
979 0 98.4528 13.2449 1304 96.339 1166.17 472.311
980 0 98.4604 12.8986 1270 99.0535 1166.49 472.118
981 0 103.425 13.6911 1416 95.6066 1167.02 470.53
982 0 106.435 13.4166 1428 97.6387 1166.48 470.712
983 0 110.525 13.2006 1459 87.0665 1166.49 468.841
984 0 110.443 12.8755 1422 88.5084 1165.54 466.342
985 0 116.296 13.5516 1576 86.455 1166.18 467.098
986 1 62.1328 12.1031 752 85.242 1166.51 492.904
987 0 62.0834 11.9678 743 86.856 1166.89 493.361
988 0 67.0456 12.2901 824 82.6335 1167.25 491.067
989 0 69.071 13.2472 915 82.271 1165.32 490.317
990 0 69.0801 11.7255 810 85.8679 1165.55 490.842
991 0 70.0953 12.0265 843 84.3369 1164.48 488.735
992 0 74.0773 12.7435 944 84.1515 1164.34 485.727
993 0 77.0963 12.3093 949 85.4752 1164.91 486.302
994 0 79.1668 11.4947 910 87.0714 1164.49 485.975
995 0 83.202 12.8002 1065 82.5944 1163.98 483.387
996 0 87.1915 12.9829 1132 82.7836 1163.92 482.134
997 0 89.2388 12.6851 1132 84.1458 1164.57 480.67
998 0 92.266 12.529 1156 84.083 1165.18 479.625
999 0 94.2602 12.7201 1199 84.5488 1164.65 478.532
1000 0 94.2602 12.7201 1199 151.621 1163.65 478.528
1001 1 51.073 11.8458 605 82.9818 1164.31 499.076
1002 0 52.0883 12.6708 660 82.0439 1164.7 498.245
1003 0 53.1951 12.52 666 83.7417 1166.67 494.059
1004 0 53.2692 13.0845 697 84.4706 1166.54 493.7
1005 0 55.0992 12.8858 710 88.4225 1167.1 494.421
1006 0 57.0644 12.9853 741 82.8934 1165.31 494.244
1007 0 58.0735 12.7597 741 83.5277 1166.22 494.065
1008 0 57.0701 12.0553 688 86.2384 1165.91 495.138
1009 0 59.0729 12.0191 710 85.6845 1165.35 496.28
1010 0 63.0782 12.7619 805 83.3627 1165.77 493.157
1011 0 64.06 12.1605 779 86.6316 1164.94 490.865
1012 0 66.0644 13.4112 886 84.377 1164.34 488.938
1013 0 67.0309 12.9642 869 84.9873 1163.35 488.478
1014 0 72.098 13.2043 952 83.3025 1163.88 487.83
1015 0 74.0628 13.2725 983 84.294 1163.61 486.529
1016 0 76.066 12.476 949 86.2308 1163.98 484.723
1017 0 79.0766 13.1012 1036 85.8793 1164.4 484.787
1018 0 82.1274 12.919 1061 86.4288 1165.05 483.879
1019 0 85.0794 13.0231 1108 87.88 1165.34 482.124
1020 0 89.0769 13.6399 1215 87.1909 1165.11 479.662
1021 1 47.0554 11.0508 520 87.7885 1165.62 498.415
1022 0 48.0919 11.8315 569 87.4763 1165.97 497.018
1023 0 50.057 11.6867 585 84.2 1165.85 494.077
1024 0 50.0374 11.5314 577 75.9272 1166.82 494.248
1025 0 52.0414 11.2795 587 75.1073 1167.05 495.085
1026 0 50.0891 11.2799 565 75.8673 1166.12 493.501
1027 0 54.0602 11.3392 613 76.1419 1165.3 492.958
1028 0 54.0849 11.408 617 76.7877 1165.47 492.381
1029 0 55.0356 11.7197 645 77.4651 1166.13 490.688
1030 0 59.138 12.0058 710 77.3958 1165.64 491.156
1031 0 61.0083 12.6868 774 74.615 1165.68 491.044
1032 0 64.0889 12.2018 782 75.6714 1165.73 489.485
1033 0 65.158 12.1244 790 76.4722 1165.89 489.239
1034 0 67.0439 12.0667 809 77.5142 1165.44 487.43
1035 0 70.0775 12.4719 874 77.5938 1165.55 486.176
1036 0 73.0979 12.0386 880 78.875 1164.92 486.501
1037 0 73.0692 12.6866 927 79.1672 1164.89 485.242
1038 0 74.1016 12.078 895 81.8804 1164.8 482.854
1039 0 78.1097 12.2776 959 80.5756 1164.26 482.662
1040 0 82.0526 11.9314 979 80.8958 1164.48 481.377
1041 0 86.107 12.8096 1103 79.2312 1165.04 479.037
1042 0 88.1086 11.9739 1055 82.3697 1165.43 478.723
1043 1 46.121 11.2964 521 76.9635 1165.9 500.086
1044 0 46.1038 10.7366 495 78.8121 1165.86 499.497
1045 0 49.1135 12.1962 599 79.7145 1166.02 497.434
1046 0 51.0399 11.6575 595 79.8487 1165.54 496.284
1047 0 52.0678 11.5234 600 79.5717 1167.25 493.448
1048 0 54.0811 11.4458 619 87.8288 1167.41 494.21
1049 0 55.0565 12.7687 703 97.559 1166 497.91
1050 0 59.128 13.1748 779 93.9076 1166.81 495.783
1051 0 60.0379 13.2416 795 93.3786 1166.49 494.029
1052 0 63.1294 13.4961 852 91.8697 1166.68 492.189
1053 0 64.1154 12.8362 823 94.096 1166.4 491.283
1054 0 65.1518 12.893 840 95.3119 1166.37 491.588
1055 0 68.1466 13.9112 948 92.7722 1166.95 490.061
1056 0 70.1086 13.5504 950 93.8074 1166.85 488.445
1057 0 72.1882 13.5341 977 93.0123 1166.55 487.967
1058 0 73.1722 13.6801 1001 93.977 1165.95 487.424
1059 0 75.2219 13.3605 1005 94.5741 1166.35 486.224
1060 0 78.2939 13.973 1094 92.3163 1166.54 487.848
1061 0 81.33 14.0293 1141 91.5162 1165.96 483.491
1062 0 85.2403 13.8197 1178 91.6545 1164.98 485.314
1063 1 42.2366 11.0094 465 96.8559 1166.06 505.832
1064 0 43.1851 11.9717 517 95.5609 1166.25 503.917
1065 0 44.0927 12.2696 541 89.6821 1166.82 502.845
1066 0 45.075 12.0022 541 92.0296 1164.42 501.388
1067 0 48.2462 12.8093 618 89.1926 1166.4 500.464
1068 0 47.2916 12.7718 604 92.8278 1165.8 501.604
1069 0 48.2647 12.8873 622 92.8778 1165.87 500.399
1070 0 50.3178 12.7986 644 91.8773 1165.46 499.766
1071 0 52.2923 13.0038 680 90.7397 1164.94 498.856
1072 0 53.3072 12.6249 673 91.7013 1165.48 497.15
1073 0 55.2939 13.3107 736 90.3438 1165.78 497.978
1074 0 55.3052 12.639 699 91.731 1165.56 498.229
1075 0 59.3053 13.0174 772 90.9184 1165.66 496.794
1076 0 60.196 13.5059 813 88.6162 1165.08 496.01
1077 0 61.2157 12.4641 763 90.6121 1165.28 495.043
1078 0 64.2402 13.1071 842 88.8979 1165.17 492.874
1079 0 65.1804 13.1021 854 90.4262 1165.5 491.925
1080 0 70.1805 13.1233 921 88.8827 1165.08 492.889
1081 0 71.1638 13.4197 955 90.2691 1165.08 489.46
1082 0 72.2429 13.51 976 90.3402 1165.27 490.266
1083 0 75.2525 12.8634 968 91.8461 1164.88 487.491
1084 0 77.182 13.5135 1043 90.6002 1164.9 487.618
1085 0 81.2186 13.5683 1102 89.8394 1165.21 485.437
1086 0 82.2542 13.3975 1102 89.5345 1165.42 485.051
1087 0 82.1383 12.8077 1052 89.3403 1165 480.974
1088 0 86.2626 12.9372 1116 88.9364 1164.51 479.092
1089 0 86.1736 12.9622 1117 101.389 1164.19 478.762
1090 0 88.1582 13.4758 1188 101.113 1164.76 476.631
1091 0 93.2152 13.8604 1292 99.6633 1164.2 474.957
1092 0 96.1893 13.7541 1323 99.5299 1164.24 473.925
1093 0 99.3179 13.482 1339 99.7379 1164.4 474.022
1094 0 101.209 13.7538 1392 99.0869 1164.5 471.529
1095 0 105.254 13.4817 1419 99.2826 1164.38 467.438
1096 0 107.185 13.8359 1483 103.636 1164.79 469.513
1097 0 113.222 14.2021 1608 102.697 1164.71 469.032
1098 0 115.27 13.785 1589 105.424 1165.46 469.465
1099 0 120.303 13.8151 1662 102.794 1164.43 468.218
1100 0 125.222 14.5182 1818 101.012 1166.3 465.805
1101 0 128.255 14.2607 1829 102.49 1166.3 460.474
1102 0 132.25 14.1852 1876 103.402 1166.3 457.964
1103 0 136.347 13.9571 1903 103.543 1165.9 456.444
1104 0 139.3 13.3596 1861 99.2773 1165.88 460.305
1105 0 147.454 14.2756 2105 98.1287 1165.64 459.751
1106 1 77.1793 13.6306 1052 105.837 1165.85 490.249
1107 0 81.3249 14.2884 1162 104.429 1165.52 487.657
1108 0 83.2521 14.7864 1231 104.158 1165.37 485.582
1109 0 84.2028 15.3677 1294 102.137 1165.27 486.02
1110 0 89.3456 15.0875 1348 101.993 1165.48 485.628
1111 0 92.2427 14.6461 1351 103.891 1165.26 483.359
1112 0 92.4623 14.2761 1320 110.323 1164.52 483.312
1113 0 97.492 14.3807 1402 108.69 1165.3 481.419
1114 0 98.2683 14.033 1379 109.842 1164.97 479.822
1115 0 103.257 14.0232 1448 107.668 1164.81 480.82
1116 0 106.283 14.339 1524 106.869 1165.47 478.835
1117 0 107.295 14.1945 1523 108.711 1165.23 477.946
1118 0 112.562 13.9834 1574 107.75 1165.23 474.941
1119 0 117.431 14.2552 1674 107.29 1164.61 472.029
1120 0 122.327 14.6166 1788 105.589 1164.61 468.958
1121 0 125.351 13.6018 1705 109.076 1164.3 469.003
1122 0 133.373 14.2083 1895 105.104 1165.17 467.832
1123 0 136.338 13.9066 1896 106.527 1164.72 465.8
1124 0 144.283 14.3468 2070 106.134 1164.87 460.406
1125 1 75.1736 14.1672 1065 112.056 1165.45 491.925
1126 0 75.1115 14.5251 1091 112.656 1165.97 490.831
1127 0 79.3093 15.2189 1207 107.606 1166.85 486.997
1128 0 81.3258 15.7269 1279 106.405 1166.47 486.529
1129 0 81.4907 14.5293 1184 111.262 1166.13 485.283
1130 0 84.4358 14.3659 1213 110.909 1166.15 485.207
1131 0 87.5161 15.003 1313 109.76 1166.06 483.476
1132 0 89.4612 14.3414 1283 112.772 1166.28 482.605
1133 0 91.4293 14.3499 1312 114.008 1165.98 481.104
1134 0 93.4281 14.9955 1401 111.778 1166.21 479.272
1135 0 95.5228 14.6771 1402 111.989 1165.67 479.097
1136 0 99.4633 14.6084 1453 110.536 1165.5 477.844
1137 0 102.361 14.4781 1482 110.361 1165.18 473.514
1138 0 106.425 14.5924 1553 107.709 1165.76 472.791
1139 0 112.307 14.8165 1664 106.959 1165.74 469.609
1140 1 62.3016 12.8087 798 112.247 1166.63 496.222
1141 0 64.31 13.7304 883 110.8 1166.06 494.06
1142 0 65.185 13.8529 903 110.783 1166 490.563
1143 0 68.2263 14.276 974 108.708 1165.6 489.831
1144 0 71.111 14.7235 1047 107.261 1165.49 488.952
1145 0 73.0879 15.2146 1112 106.273 1165.68 486.853
1146 0 75.2002 14.8271 1115 107.596 1165.82 486.47
1147 0 78.1444 14.5372 1136 109.222 1164.93 486.467
1148 0 81.1435 14.8502 1205 110.335 1164.73 484.593
1149 0 84.1686 14.9462 1258 109.971 1165.14 482.677
1150 0 87.1873 15.4954 1351 95.7831 1165.47 481.111
1151 0 86.17 14.8195 1277 98.9381 1164.97 481.731
1152 0 88.2118 14.8733 1312 99.5633 1164.21 479.735
1153 0 91.2666 15.0329 1372 99.1465 1163.46 477.335
1154 0 94.222 15.1132 1424 99.2514 1164.04 476.107
1155 0 97.2421 15.0552 1464 99.2288 1163.59 474.223
1156 0 99.2625 15.0006 1489 100.33 1163.23 473.089
1157 0 103.275 14.4468 1492 102.895 1163.83 470.446
1158 0 106.25 15.0117 1595 101.754 1163.84 469.858
1159 0 109.227 14.9688 1635 102.407 1164.27 468.661
1160 0 111.342 15.0527 1676 104.305 1164.09 467.327
1161 0 114.394 15.027 1719 106.538 1164.29 464.462
1162 0 120.377 15.3933 1853 106.057 1163.87 463.959
1163 0 122.326 14.9109 1824 109.877 1164.05 461.112
1164 0 125.346 15.2777 1915 109.628 1163.94 460.397
1165 0 130.273 14.6231 1905 112.188 1163.28 457.702
1166 0 134.332 14.9852 2013 110.201 1163.47 455.283
1167 1 68.1882 11.043 753 115.349 1163.49 484.247
1168 0 72.1065 11.8713 856 109.196 1163.68 482.244
1169 0 73.2135 12.2109 894 110.536 1163.74 479.311
1170 0 73.1533 12.3303 902 108.043 1163.93 476.78
1171 0 74.1371 11.9778 888 109.617 1163.84 473.948
1172 0 75.1361 11.5657 869 114.197 1163.31 472.158
1173 0 80.1725 12.1114 971 110.755 1163.77 472.531
1174 0 82.0969 12.0711 991 111.607 1163.28 469.06
1175 0 82.0531 11.0294 905 115.67 1163.36 466.737
1176 0 84.1128 11.7937 992 113.576 1162.39 465.009
1177 0 87.167 11.3346 988 114.968 1162.92 463.888
1178 0 90.0992 10.8769 980 117.72 1162.71 460.698
1179 0 96.1148 12.0273 1156 114.035 1162.35 461.312
1180 0 96.1025 12.0809 1161 159.19 1160.34 461.45
1181 0 102.194 11.1064 1135 117.856 1162.76 459.733
1182 0 110.126 11.3779 1253 117.052 1163.39 459.087
1183 0 110.221 11.4588 1263 121.39 1162.76 453.702
1184 0 119.214 10.7622 1283 121.715 1162.83 453.336
1185 0 123.166 11.18 1377 120.863 1162.8 453.508
1186 0 127.196 11.1482 1418 123.107 1162.83 452.104
1187 0 132.278 11.9294 1578 120.188 1163.16 451.329
1188 0 138.207 11.5696 1599 122.033 1162.73 449.508
1189 0 140.152 11.0451 1548 125.673 1162.89 447.869
1190 0 142.215 10.8919 1549 128.663 1162.37 444.72
1191 0 150.326 11.3953 1713 126.392 1163.12 442.639
1192 0 151.31 10.7065 1620 130.413 1163.07 437.793
1193 0 158.29 10.9103 1727 132.204 1163.5 435.963
1194 0 164.275 11.0546 1816 129.211 1163.2 435.006
1195 0 169.373 11.2946 1913 130.473 1162.78 429.07
1196 0 176.376 11.2827 1990 130.314 1162.31 426.311
1197 0 181.372 11.3579 2060 131.099 1163.37 422.457
1198 1 38.0152 8.07571 307 88.4104 1163.83 505.612
1199 0 36.0578 7.98717 288 89.6528 1162.8 504.944
1200 0 43.1776 8.8935 384 97.8359 1162.05 503.021
1201 0 43.1987 8.44933 365 100.364 1162.54 502.584
1202 0 46.2048 9.02504 417 98.271 1162.73 501.525
1203 0 45.1142 8.84423 399 99.6992 1163.17 501.694
1204 0 44.1921 8.80248 389 101.231 1163.16 500.789
1205 0 45.1803 9.22968 417 99.4988 1163.08 500.146
1206 0 49.3156 9.26685 457 99.1969 1162.84 499.142
1207 0 49.2562 9.50134 468 100.248 1163.46 497.609
1208 0 51.2903 9.22201 473 101.467 1163.31 496.421
1209 0 53.3974 9.06411 484 100.771 1163.64 497.64
1210 0 53.2531 9.72714 518 101.334 1163.51 495.369
1211 0 54.2176 9.11144 494 104.617 1162.93 494.909
1212 0 56.2514 8.79979 495 105.996 1163.03 495.248
1213 0 53.5011 9.21477 493 103.536 1164.28 489.73
1214 0 54.2028 8.41285 456 108.162 1163.91 491.73
1215 0 57.2247 8.24818 472 109.388 1163.73 491.703
1216 0 59.2716 8.48636 503 107.05 1163.02 489.241
1217 0 61.2 8.64379 529 105.871 1162.78 488.739
1218 0 62.2083 8.61621 536 108.299 1163.44 486.825
1219 0 69.2341 7.09188 491 109.271 1163.52 488.322
1220 0 69.371 8.04371 558 110.183 1163.8 485.063
1221 0 68.3353 8.38512 573 109.853 1163.46 484.709
1222 0 70.2436 8.15733 573 107.555 1163.99 484.967
1223 0 69.1307 9.5616 661 101.023 1166.6 482.949
1224 0 71.0488 8.2197 584 100.93 1165.59 479.608
1225 1 37.0341 7.6146 282 95.9823 1165.17 499.95
1226 0 37.0409 7.77518 288 93.9826 1164.73 496.771
1227 0 38.0628 7.75035 295 93.6203 1164.62 494.447
1228 0 40.1508 8.34355 335 81.8627 1163.78 496.666
1229 0 42.2416 8.26201 349 97.1519 1164.8 491.825
1230 0 42.2407 9.56423 404 97.5594 1165.73 489.646
1231 1 53.1684 11.078 589 87.7216 1166.78 494.564
1232 0 51.2631 10.846 556 92.1781 1165.78 493.531
1233 0 53.2201 11.0673 589 85.5263 1166.92 494.168
1234 0 54.2842 10.6845 580 87.6017 1166.81 494.934
1235 0 55.1296 11.2281 619 86.6107 1167.31 495.171
1236 0 56.1055 11.0506 620 86.3145 1166.7 496.787
1237 0 58.2583 10.7109 624 87.1619 1166.36 493.82
1238 0 60.2179 10.2793 619 83.8207 1166.03 495.291
1239 0 62.4453 11.1938 699 82.382 1165.6 494.999
1240 0 63.2007 10.8068 683 88.1406 1166.47 494.818
1241 0 63.2051 11.3598 718 88 1167.13 492.811
1242 0 66.1369 11.325 749 86.4766 1166.37 493.101
1243 0 67.2407 10.8714 731 88.7045 1165.73 488.118
1244 0 69.3119 11.1092 770 89.0779 1166.32 488.032
1245 0 72.2766 11.8572 857 86.1202 1166.72 487.415
1246 0 71.304 10.6866 762 88.6509 1166.56 487.116
1247 0 74.2338 11.383 845 87.1562 1165.8 483.537
1248 0 78.2561 11.3857 891 85.7576 1165.74 482.187
1249 0 80.3527 11.0762 890 85.3607 1164.46 481.402
1250 0 83.361 11.2643 939 84.2556 1165.3 478.737
1251 0 85.3509 11.2594 961 83.846 1165.33 478.332
1252 0 87.391 11.214 980 83.7112 1165.73 477.456
1253 0 91.1771 11.2967 1030 81.7369 1163.79 476.57
1254 0 94.2064 10.9971 1036 81.6593 1164.22 478.671
1255 0 97.2339 9.71883 945 88.9503 1164.56 473.63
1256 1 53.141 12.0058 638 85.1756 1164.25 493.806
1257 0 55.1018 12.1956 672 83.6786 1163.68 494.516
1258 0 58.1838 11.5152 670 83.3194 1163.53 491.566
1259 0 58.1351 11.5937 674 83.9228 1162.65 489.067
1260 0 58.1956 11.7019 681 84.6652 1163.26 489.408
1261 0 60.1939 11.8451 713 84.6648 1163.27 487.846
1262 0 63.1553 12.3822 782 83.1867 1163.61 486.899
1263 0 64.1038 12.2614 786 83.43 1163.37 485.02
1264 0 64.0854 12.0152 770 83.787 1164.08 486.621
1265 0 66.0466 11.5222 761 85.6018 1163.68 485.394
1266 0 66.0786 11.9857 792 84.5833 1163.6 486.568
1267 0 67.0424 11.7836 790 84.124 1163.27 485.462
1268 0 68.1969 10.6896 729 80.524 1165.78 484.605
1269 0 72.1825 11.3324 818 81.4438 1165.89 481.78
1270 0 75.2484 11.6813 879 82.8874 1165.46 483.662
1271 0 74.1067 11.1866 829 84.5042 1165.84 480.643
1272 0 76.3185 10.8493 828 84.035 1164.56 479.486
1273 0 80.3966 10.7218 862 83.4582 1164.51 477.002
1274 0 86.3865 12.0736 1043 80.6251 1163.98 475.514
1275 0 88.4959 11.2661 997 82.2788 1164.68 472.184
1276 1 44.0414 9.89977 436 82.6835 1164.76 494.385
1277 0 46.0189 10.2349 471 82.4437 1164.8 494.822
1278 0 41.0682 9.39901 386 79.6684 1163.58 491.295
1279 0 47.067 10.6232 500 83.442 1162.91 496.232
1280 0 50.0529 11.1282 557 82.2837 1163.09 495.223
1281 0 50.0789 10.9028 546 83.5861 1163.07 493.888
1282 0 50.0627 11.2259 562 82.5142 1163.02 492.868
1283 0 51.045 11.1274 568 82.3416 1163.02 493.65
1284 0 50.1132 10.5361 528 77.839 1164 496.669
1285 0 51.0736 10.3968 531 76.806 1164.45 494.356
1286 0 54.058 10.6737 577 75.2253 1164.35 493.886
1287 0 57.1008 10.9806 627 74.6587 1164.27 493.281
1288 0 57.0546 10.6565 608 76.0082 1164.5 492.342
1289 0 60.0408 11.692 702 74.2037 1164.34 490.38
1290 0 61.0394 12.0578 736 75.6821 1163.96 489.659
1291 0 66.0398 12.8559 849 75.7915 1164.13 489.66
1292 0 66.0712 11.3211 748 77.8463 1163.72 487.48
1293 0 68.0061 11.7195 797 76.6575 1163.52 486.402
1294 0 70.0386 11.7792 825 77.057 1164.04 487.195
1295 0 71.0909 12.1534 864 78.4931 1164.09 485.652
1296 0 75.1636 11.8807 893 88.5129 1164.17 484.263
1297 0 77.0792 11.8579 914 80.5405 1163.67 484.235
1298 0 79.1624 12.5438 993 79.28 1164.08 482.368
1299 0 81.2143 11.7713 956 80.9257 1164.3 481.972
1300 0 84.0587 11.7656 989 83.1689 1164.2 480.665
1301 0 88.0825 12.3748 1090 82.4312 1163.76 477.21
1302 0 89.088 12.931 1152 82.0972 1163.88 477.751
1303 0 92.1088 13.0064 1198 82.8214 1164.19 476.508
1304 0 96.3276 12.4471 1199 84.4954 1163.9 477.198
1305 1 54.0649 11.5602 625 84.2384 1163.41 497.077
1306 0 55.0133 11.27 620 84.6581 1163.08 496.273
1307 0 57.3387 12.1907 699 82.9528 1166.16 493.877
1308 0 58.1294 11.8873 691 85.3777 1163.43 492.44
1309 0 58.1538 12.0542 701 85.5235 1163.23 492.98
1310 0 61.1374 12.1857 745 85.1423 1163.61 491.965
1311 0 64.0532 12.3803 793 83.4376 1163.7 492.668
1312 0 65.058 12.6195 821 83.7795 1163.88 490.769
1313 0 66.0704 12.5472 829 84.5621 1163.45 489.925
1314 0 66.0704 12.5018 826 140.108 1163.46 489.962
1315 0 73.0492 13.1555 961 84.0999 1163.06 489.415
1316 0 75.0442 12.4327 933 87.1265 1162.87 488.662
1317 0 77.0624 13.2101 1018 85.9578 1162.87 486.822
1318 0 80.0428 12.8181 1026 86.5565 1162.97 485.908
1319 0 82.0471 12.2978 1009 89.1705 1163.27 483.96
1320 0 85.1652 13.1861 1123 87.8175 1163.48 483.99
1321 0 88.245 13.8025 1218 86.881 1163.69 483.311
1322 0 89.2227 12.9339 1154 89.7305 1163.36 479.776
1323 0 92.1829 13.202 1217 89.9704 1163.93 478.65
1324 0 95.2248 13.4629 1282 90.0343 1164.47 476.172
1325 1 50.0951 10.9392 548 89.8978 1164.48 500.405
1326 0 51.244 11.0452 566 89.3587 1166.82 498.157
1327 0 52.3495 11.748 615 78.6358 1166.04 496.146
1328 0 55.3909 12.2944 681 77.1292 1167.2 496.035
1329 0 55.1028 12.9213 712 76.2612 1163.55 496.889
1330 0 59.0585 12.9533 765 76.6771 1163.12 497.618
1331 0 58.1215 12.6287 734 80.0068 1165.75 496.198
1332 0 60.0296 12.5938 756 80.422 1165.55 496.573
1333 0 61.0706 12.6575 773 81.2704 1166.18 495.247
1334 0 66.0728 13.4851 891 78.7441 1166.33 494.205
1335 0 67.1119 12.5313 841 80.9441 1166.11 495.159
1336 0 70.0769 12.9144 905 80.7624 1165.71 493.224
1337 0 72.1226 13.7405 991 79.4521 1166.31 491.118
1338 0 74.1111 13.4798 999 81.0641 1165.84 491.297
1339 0 76.0845 13.5902 1034 82.6228 1166.28 490.046
1340 0 79.0512 14.3451 1134 82.6676 1165.27 489.108
1341 0 81.1881 13.3763 1086 84.4309 1165.41 487.027
1342 0 83.1015 13.8746 1153 84.3955 1165.89 486.059
1343 0 86.1392 13.1996 1137 87.1003 1165.52 483.663
1344 0 87.2533 13.3634 1166 86.8096 1164.4 482.412
1345 0 90.2401 13.2314 1194 87.459 1165.05 484.182
1346 0 93.1106 13.296 1238 89.7149 1164.75 480.989
1347 0 95.1159 13.1629 1252 89.4097 1164.36 479.375
1348 1 50.0872 10.7812 540 94.9444 1165.67 501.637
1349 0 53.0951 11.3758 604 92.9172 1165.52 501.103
1350 0 55.0335 11.4476 630 91.4524 1165.46 500.817
1351 0 54.0783 11.8162 639 91.2848 1166.15 499.139
1352 0 57.0709 12.5458 716 84.588 1165.58 498.443
1353 0 57.0664 12.3014 702 86.3262 1164.65 499.567
1354 0 60.0501 12.806 769 83.4239 1165.29 497.576
1355 0 59.0316 12.146 717 87.9191 1164.28 497.707
1356 0 62.0856 12.1767 756 87.9286 1165.02 494.952
1357 0 64.0907 12.6227 809 87.9493 1164.83 496.053
1358 0 64.0824 12.4839 800 88.66 1165.17 494.519
1359 0 67.1176 12.3515 829 91.2256 1165.4 493.198
1360 0 71.1112 12.5859 895 91.1777 1165.42 492.769
1361 0 72.1354 12.5874 908 91.8535 1165.64 491.559
1362 0 75.0973 12.9033 969 91.6223 1164.97 491.34
1363 0 76.1026 13.1139 998 92.8106 1165.55 489.541
1364 0 79.1712 13.275 1051 92.471 1165.67 488.066
1365 0 80.0722 12.9633 1038 94.3834 1165.32 486.465
1366 0 84.1138 12.7803 1075 94.3684 1165.01 485.02
1367 0 86.1096 12.9138 1112 95.366 1164.83 484.851
1368 0 87.1486 13.3565 1164 96.0326 1164.88 483.989
1369 0 91.16 13.0979 1194 98.6005 1165.04 483.362
1370 0 93.2117 12.7345 1187 97.7464 1164.46 482.7
1371 0 95.2258 12.9797 1236 98.0655 1163.72 479.526
1372 0 96.194 13.2129 1271 99.8222 1164.44 479
1373 0 102.252 12.968 1326 99.2655 1164.72 478.115
1374 0 104.18 13.803 1438 97.7239 1164.8 478.887
1375 0 108.284 13.6216 1475 97.1024 1164.24 475.506
1376 0 111.206 14.2439 1584 94.0063 1163.92 472.389
1377 1 59.0917 10.6106 627 86.5742 1164.04 491.74
1378 0 60.0726 11.5693 695 92.8 1164.38 494.232
1379 0 63.1366 11.6889 738 86.0447 1164.54 494.721
1380 0 63.0714 12.145 766 93.154 1164.72 493.305
1381 0 65.1751 13.3333 869 98.6283 1163.46 497.12
1382 0 64.0861 12.7173 815 97.9791 1162.19 499.973
1383 0 65.0892 12.6288 822 97.9088 1162.12 499.663
1384 0 66.0656 12.6844 838 96.6158 1161.92 499.216
1385 0 70.081 12.6996 890 94.4697 1161.41 496.564
1386 0 69.1313 12.4256 859 94.2724 1162.29 497.059
1387 0 74.145 12.8802 955 90.7225 1161.75 496.182
1388 0 76.1093 12.7054 967 89.8407 1162.43 493.952
1389 0 77.221 12.5743 971 87.6365 1162.12 494.178
1390 0 78.2414 12.5253 980 88.2888 1161.19 491.792
1391 0 81.2824 12.758 1037 87.7859 1161.65 490.069
1392 0 85.1451 13.0718 1113 85.5984 1161.56 490.803
1393 0 85.2498 12.9385 1103 86.9048 1161.88 489.181
1394 0 88.2463 13.179 1163 87.0843 1161.72 487.528
1395 0 88.2457 13.1791 1163 154.63 1160.72 487.595
1396 0 94.1542 13.5204 1273 90.8468 1161.9 485.529
1397 0 94.3959 12.6594 1195 94.9339 1161.7 483.881
1398 0 97.328 12.6993 1236 97.6092 1161.7 482.109
1399 0 100.188 13.2052 1323 99.6463 1161.49 480.383
1400 0 102.18 12.9673 1325 99.7864 1161.06 481.011
1401 0 104.177 12.8723 1341 101.996 1161.81 479.166
1402 0 106.171 12.4327 1320 106.265 1161.5 476.239
1403 0 110.318 13.026 1437 104.605 1160.92 475.271
1404 0 111.364 12.3469 1375 107.371 1161.1 472.591
1405 0 114.284 12.2327 1398 108.938 1160.91 471.695
1406 0 120.219 12.8016 1539 107.645 1161.27 469.537
1407 0 123.193 11.8513 1460 110.191 1161.47 468.971
1408 0 127.298 12.3332 1570 109.508 1161.31 465.585
1409 0 133.182 12.5918 1677 111.68 1161.52 463.843
1410 0 135.213 12.2251 1653 113.08 1161.44 462.273
1411 0 141.325 12.8074 1810 113.27 1162.16 459.823
1412 0 143.242 12.3776 1773 115.821 1161.63 457.113
1413 0 146.203 12.6947 1856 113.007 1162.37 453.328
1414 0 150.331 12.4924 1878 114.342 1161.96 451.978
1415 0 155.361 12.0623 1874 111.704 1161.43 448.72
1416 0 161.378 12.7837 2063 109.838 1161.78 448.267
1417 0 165.518 12.2464 2027 115.062 1162.24 444.196
1418 0 167.385 11.8887 1990 112.727 1161.82 436.471
1419 1 90.3792 10.1683 919 113.276 1161.23 473.591
1420 0 93.2979 10.7505 1003 111.672 1162.19 472.674
1421 0 98.2578 11.4291 1123 103.614 1162.19 475.036
1422 0 101.3 11.2043 1135 107.686 1162.53 472.189
1423 0 103.194 11.0374 1139 107.928 1162.54 471.32
1424 0 106.366 11.6202 1236 104.937 1162.4 469.905
1425 0 110.157 11.9466 1316 104.248 1163.77 469.012
1426 0 115.307 11.7686 1357 103.582 1163.61 465.55
1427 0 117.142 11.1488 1306 104.672 1164.16 462.658
1428 0 123.244 11.9844 1477 101.72 1164.84 461.944
1429 0 128.273 12.1928 1564 97.4003 1164.35 461.026
1430 0 132.245 12.1593 1608 98.3041 1164.42 457.596
1431 1 74.1427 10.6282 788 92.8541 1164.64 488.374
1432 0 75.1921 9.93455 747 90.5636 1164.14 486.031
1433 0 79.3032 11.5002 912 91.4375 1164.36 486.502
1434 0 82.1491 11.5278 947 86.962 1164.66 485.506
1435 0 84.1798 11.2022 943 88.1442 1164.73 483.411
1436 0 89.2375 12.3603 1103 84.7017 1164.77 483.182
1437 0 91.2659 12.4691 1138 84.8779 1164.09 482.138
1438 0 90.1404 11.7372 1058 86.758 1164.58 482.481
1439 0 92.1109 11.3667 1047 84.5244 1163.87 479.862
1440 0 97.1775 11.4738 1115 84.7722 1163.87 478.782
1441 0 99.1466 11.8007 1170 84.4752 1163.92 477.691
1442 0 100.249 10.7632 1079 85.9166 1163.98 475.766
1443 0 105.139 11.2993 1188 85.9394 1164.08 473.141
1444 0 108.228 11.2171 1214 85.542 1164.26 471.891
1445 1 61.0507 10.8435 662 80.361 1165.23 495.23
1446 0 62.0315 11.075 687 80.5706 1163.82 494.296
1447 0 63.0631 12.1148 764 82.5406 1163.11 494.182
1448 0 67.1154 11.6963 785 79.4204 1163.77 493.065
1449 0 67.0881 12.2675 823 78.4046 1163.4 492.465
1450 0 69.0831 12.029 831 78.8087 1164.35 492.187
1451 0 69.1606 11.9866 829 81.8649 1164.06 491.698
1452 0 71.0852 11.3385 806 81.4231 1163.57 491.448
1453 0 72.0816 11.1124 801 83.5094 1164.28 487.886
1454 0 76.1219 11.81 899 82.1936 1164.71 485.363
1455 0 77.0917 11.2463 867 84.3126 1164.27 485.111
1456 0 80.1148 11.4461 917 85.7045 1163.95 483.458
1457 0 83.1799 11.4811 955 86.4084 1163.94 482.739
1458 0 85.1976 11.4675 977 88.2293 1165.04 481.806
1459 0 88.2118 12.1979 1076 84.7807 1163.86 480.954
1460 0 90.2922 11.3963 1029 89.1263 1163.67 479.218
1461 0 92.2539 12.0212 1109 89.2849 1164.06 477.197
1462 0 95.2318 11.0047 1048 89.9389 1163.6 473.513
1463 0 97.2854 11.2555 1095 90.2612 1163.82 472.205
1464 0 103.266 12.2306 1263 92.7245 1164.15 469.325
1465 1 59.2348 10.1967 604 83.2649 1164.73 493.803
1466 0 59.1229 9.82699 581 84.0017 1165.04 493.535
1467 0 62.1756 10.7277 667 82.7286 1164.34 490.55
1468 0 62.2241 10.7515 669 83.0807 1164.32 488.584
1469 0 64.3144 11.9258 767 87.4042 1164.91 491.448
1470 0 64.2884 10.8729 699 89.9728 1164.87 489.951
1471 0 66.2128 11.3875 754 88.6286 1164.29 488.562
1472 0 69.2658 11.1166 770 88.5169 1164.27 487.549
1473 0 69.2743 11.173 774 122.295 1164.29 487.469
1474 0 74.276 11.7939 876 87.0708 1164.25 485.097
1475 0 77.3651 12.0468 932 86.8133 1164.7 483.943
1476 0 80.3684 12.2934 988 86.502 1164.96 482.234
1477 0 82.2607 12.1443 999 86.1562 1164.61 481.721
1478 0 86.3551 12.2749 1060 81.2717 1164.08 480.273
1479 0 86.2513 11.7563 1014 84.9418 1164.49 478.235
1480 0 90.2798 12.1511 1097 85.0629 1163.82 476.982
1481 0 93.2813 12.4891 1165 86.1142 1164.61 474.403
1482 0 95.3225 11.907 1135 88.407 1164.15 472.009
1483 0 98.3058 11.7694 1157 91.4702 1163.7 470.346
1484 0 100.259 11.8593 1189 90.5097 1163.78 469.884
1485 0 103.286 12.4509 1286 85.437 1163.45 466.15
1486 0 107.164 12.4389 1333 83.3181 1162.76 463.822
1487 0 110.166 11.7731 1297 83.6476 1164.08 463.51
1488 0 115.154 12.0621 1389 86.5068 1164.57 461.241
1489 0 115.15 10.9857 1265 91.6134 1164.4 456.171
1490 0 115.149 10.9249 1258 125.875 1164.4 455.985
1491 1 69.1151 10.8804 752 78.4641 1164.58 490.814
1492 0 69.1482 10.7595 744 80.2581 1165.23 484.755
1493 0 72.0362 12.0634 869 78.5961 1163.91 486.145
1494 0 72.0738 11.6964 843 80.3274 1165.37 484.266
1495 0 74.0749 11.3669 842 81.5891 1165.63 483.208
1496 0 78.0781 11.4245 892 81.2298 1165.09 483.271
1497 0 83.11 11.924 991 89.8103 1165.91 482.616
1498 0 83.1117 11.9478 993 142.051 1165.91 482.663
1499 0 88.0583 11.6173 1023 92.6422 1166.14 479.074
1500 0 89.0805 11.484 1023 92.3099 1166.16 477.472
1501 0 92.1037 11.8779 1094 91.2285 1165.71 474.701
1502 0 95.0843 11.3899 1083 90.3241 1166.23 473.681
1503 0 96.0694 11.1378 1070 90.7486 1165.67 469.756
1504 0 97.0428 10.8612 1054 91.3036 1165.76 470.349
1505 0 101.117 11.0169 1114 89.2738 1165.8 469.626
1506 0 105.089 11.3903 1197 88.1938 1165.45 467.143
1507 0 106.256 11.3406 1205 87.8224 1165.23 464.126
1508 0 111.375 10.7115 1193 88.4728 1165.34 462.13
1509 0 113.316 11.437 1296 87.6698 1165.47 458.948
1510 0 118.359 11.2539 1332 86.5608 1164.95 459.342
1511 0 122.424 10.4064 1274 87.8093 1165.07 458.664
1512 1 67.3947 9.43694 636 77.011 1165.54 484.719
1513 0 70.3637 10.4315 734 75.1594 1164.88 487.46
1514 0 72.1004 10.2496 739 75.5061 1163.3 487.229
1515 0 72.1685 10.4755 756 76.9656 1163.94 485.278
1516 0 76.1308 10.7053 815 76.6601 1164.33 486.112
1517 0 78.1538 11.375 889 76.2913 1164.01 483.774
1518 0 80.0673 11.2031 897 77.4236 1163.93 481.834
1519 0 83.1416 11.4624 953 78.7629 1165.46 481.41
1520 0 85.1432 11.2986 962 81.8306 1165.79 481.319
1521 0 88.065 11.6959 1030 79.668 1166.36 479.938
1522 0 91.1042 11.3826 1037 82.0984 1166.19 476.36
1523 0 93.1245 11.4041 1062 83.7307 1165.34 474.097
1524 0 95.1587 11.938 1136 84.456 1165.71 472.891
1525 0 98.1361 11.4331 1122 85.5677 1165.67 471.908
1526 0 101.191 11.3943 1153 85.4527 1165.96 469.324
1527 0 105.264 11.7039 1232 84.5601 1165.67 468.092
1528 0 106.355 11.4992 1223 86.0254 1165.81 467.196
1529 0 108.329 11.1605 1209 88.3433 1164.34 468.137
1530 0 110.383 11.6413 1285 87.9969 1165.23 464.676
1531 0 116.455 12.3824 1442 86.7115 1165.66 464.665
1532 0 115.441 11.7376 1355 88.8701 1165.52 460.537
1533 0 119.483 11.8762 1419 89.5729 1166.11 456.98
1534 0 125.526 12.9694 1628 85.9767 1165.72 456.693
1535 0 128.567 11.9782 1540 88.2708 1165.4 452.497
1536 0 131.418 12.3727 1626 88.3856 1164.04 449.753
1537 0 136.492 12.1472 1658 89.4144 1164.61 448.819
1538 0 139.383 12.2253 1704 88.9689 1164.33 450.211
1539 0 142.351 12.1109 1724 90.4878 1164.98 444.359
1540 0 148.473 12.3995 1841 89.0266 1164.63 441.805
1541 0 154.58 12.7248 1967 88.2923 1164.55 440.861
1542 0 157.567 12.3566 1947 89.623 1164.18 436.206
1543 1 88.3361 11.2298 992 79.628 1165.35 474.339
1544 0 91.249 11.1892 1021 81.5162 1165.38 472.08
1545 0 92.1533 10.6127 978 80.8231 1164.88 471.383
1546 0 96.1882 11.7374 1129 84.4588 1163.28 474.19
1547 0 100.145 12.0725 1209 84.8246 1163.36 472.677
1548 0 103.204 12.0925 1248 85.6066 1163.26 472.109
1549 0 105.279 12.7661 1344 84.901 1163.16 468.825
1550 0 107.184 12.4925 1339 84.9709 1163.41 467.081
1551 0 111.276 12.0421 1340 85.4798 1163.74 463.801
1552 0 115.196 11.9883 1381 91.727 1164.91 463.264
1553 0 116.149 10.874 1263 88.5669 1164.75 457.826
1554 0 119.151 11.2211 1337 91.6619 1165.2 459.645
1555 0 123.147 11.4579 1411 88.6733 1164.34 456.68
1556 0 126.173 11.2069 1414 90.3982 1164.22 456.515
1557 0 131.258 11.8393 1554 88.4163 1164.31 454.441
1558 0 134.269 11.4844 1542 90.4488 1164.39 453.712
1559 0 139.222 11.9737 1667 89.7522 1164.44 450.449
1560 0 142.322 11.6356 1656 90.183 1164.94 450.69
1561 0 146.171 10.994 1607 91.9092 1164.19 447.737
1562 1 79.4057 10.7045 850 82.7812 1165.53 481.778
1563 0 83.465 10.9028 910 80.822 1165.35 479.452
1564 0 86.4598 11.9477 1033 79.0978 1165.14 478.256
1565 0 86.2311 11.5967 1000 79.193 1165.5 479.672
1566 0 90.3831 12.3696 1118 95.78 1166.06 478.404
1567 0 93.4255 12.5233 1170 96.847 1165.98 476.155
1568 0 95.403 11.7921 1125 98.0089 1166.17 475.18
1569 0 98.3684 12.2499 1205 97.9436 1166.6 472.941
1570 0 100.375 12.4334 1248 99.734 1166.22 472.126
1571 0 102.401 12.9686 1328 99.6566 1165.74 471.252
1572 0 104.446 12.3988 1295 101.747 1165.65 469.093
1573 0 107.36 12.3976 1331 102.244 1165.81 468.542
1574 0 109.379 12.8269 1403 102.076 1165.63 466.408
1575 0 113.391 12.8581 1458 101.722 1165.01 465.149
1576 0 114.338 12.9178 1477 103.502 1165.47 463.445
1577 0 119.269 11.7298 1399 95.8163 1163.78 463.271
1578 0 124.317 11.9775 1489 94.413 1164.62 461.273
1579 0 125.299 11.5803 1451 88.7016 1164.22 461.341
1580 0 129.338 11.3114 1463 89.7143 1164.11 456.492
1581 0 133.26 12.2467 1632 90.2353 1164.01 456.656
1582 1 75.2375 11.2444 846 90.2683 1165.82 485.067
1583 0 76.2148 10.8771 829 88.456 1165.78 483.806
1584 0 79.2347 12.1285 961 85.7784 1165.5 482.546
1585 0 80.2165 11.9053 955 85.1351 1165.51 482.121
1586 0 83.2378 11.6534 970 88.3969 1165.59 482.481
1587 0 83.1866 11.5884 964 90.4824 1166.01 481.796
1588 0 87.219 11.6947 1020 90.8461 1165.78 480.948
1589 0 89.3026 11.7578 1050 90.5448 1165.19 478.401
1590 0 91.2543 11.857 1082 90.6164 1165.29 476.247
1591 0 93.1554 11.2715 1050 91.8524 1165.4 476.685
1592 0 97.3243 11.8059 1149 90.5779 1165.93 474.153
1593 0 97.322 12.2686 1194 135.829 1165.97 475.351
1594 0 102.268 11.6752 1194 89.7588 1165.43 470.316
1595 0 106.283 12.2221 1299 88.0169 1164.91 468.779
1596 0 109.271 12.2997 1344 86.4457 1164.8 465.795
1597 0 110.245 11.2476 1240 88.825 1164.46 464.184
1598 0 115.288 12.7247 1467 88.0702 1164.44 460.212
1599 0 116.226 11.9336 1387 89.5537 1164.42 458.559
1600 0 120.264 12.6888 1526 88.0983 1164.04 453.855
1601 0 120.264 12.6306 1519 128.946 1163.01 453.867
1602 1 65.0608 11.5738 753 88.166 1162.32 480.268
1603 0 67.036 10.8748 729 86.6502 1162.59 476.99
1604 0 75.2121 12.498 940 82.8319 1163.91 484.533
1605 0 75.2317 12.3352 928 84.3147 1163.5 480.857
1606 0 79.2598 12.6924 1006 82.1958 1163.78 480.139
1607 0 79.2378 12.7212 1008 123.871 1163.78 480.137
1608 0 83.3414 12.6228 1052 80.4164 1163.77 476.486
1609 0 87.2923 12.3149 1075 80.6828 1163.7 475.768
1610 0 93.1718 13.5878 1266 76.0348 1163.62 476.228
1611 0 94.2862 13.2999 1254 78.0167 1163.42 474.456
1612 0 94.476 13.0298 1231 78.4387 1163.42 472.617
1613 0 98.4036 13.1398 1293 80.7548 1163.71 470.478
1614 0 100.419 13.2346 1329 80.9112 1163.7 470.476
1615 0 104.26 12.2866 1281 80.9001 1163.69 466.411
1616 0 108.256 12.8861 1395 80.4846 1163.25 467.382
1617 0 110.15 12.8098 1411 80.8873 1164.06 466.601
1618 0 115.186 12.4842 1438 81.274 1163.56 461.7
1619 0 117.197 12.3382 1446 81.852 1163.56 459.781
1620 0 120.149 12.0101 1443 81.0146 1164.29 458.766
1621 0 121.148 12.1504 1472 80.4314 1163.79 455.861
1622 0 124.163 11.7185 1455 79.3416 1164.34 453.953
1623 0 132.197 12.6554 1673 81.2092 1163.67 454.928
1624 0 135.204 12.4183 1679 80.9994 1163.5 453.684
1625 0 140.176 12.891 1807 80.3459 1163.31 451.119
1626 0 144.283 12.4963 1803 80.7438 1163.99 448.017
1627 1 155.273 10.3108 1601 79.1849 1164.3 446.535
1628 0 158.278 11.7072 1853 79.9493 1164.55 446.444
1629 0 157.319 13.4058 2109 79.0427 1164.34 445.872
1630 0 164.32 13.5102 2220 79.0586 1164.27 443.145
1631 0 168.328 13.1767 2218 78.1479 1163.67 440.363
1632 0 172.301 12.6117 2173 80.4777 1162.66 437.726
1633 0 176.28 12.4405 2193 81.1236 1162.59 432.298
1634 0 181.47 12.4373 2257 79.5942 1161.46 431.198
1635 0 187.646 13.8186 2593 77.5106 1163.4 426.03
1636 0 193.505 12.1186 2345 81.5753 1162.62 422.577
1637 1 86.4219 10.9926 950 72.2884 1163.38 478.924
1638 0 89.3812 10.8412 969 71.7915 1163.66 479.208
1639 0 94.4403 11.584 1094 71.8958 1163.37 476.974
1640 0 93.3772 10.4522 976 76.1004 1163.19 473.593
1641 0 97.3208 12.1351 1181 73.2261 1163.99 474.963
1642 0 98.4113 11.6958 1151 75.2259 1163.97 473.102
1643 0 102.37 12.406 1270 74.415 1163.15 471.068
1644 0 106.422 12.084 1286 75.2162 1163.96 470.529
1645 0 105.272 11.0191 1160 73.9293 1162.79 467.078
1646 0 112.437 12.6026 1417 72.7297 1163.74 466.982
1647 0 113.323 11.7629 1333 74.7809 1163.66 465.217
1648 0 118.342 12.3202 1458 75.1502 1163.9 461.933
1649 0 123.317 12.853 1585 75.588 1164.2 463.45
1650 0 125.369 12.1322 1521 78.3859 1163.85 461.477
1651 0 128.513 13.4773 1732 77.3326 1164.29 460.786
1652 0 131.441 13.3672 1757 78.9431 1163.95 457.898
1653 0 136.408 13.4816 1839 80.068 1163.48 457.325
1654 0 139.538 13.9962 1953 80.2954 1162.95 452.847
1655 0 144.434 13.4041 1936 83.046 1163.12 450.974
1656 0 148.466 13.599 2019 86.9316 1162.87 448.488
1657 0 152.464 14.2919 2179 88.1863 1163.04 445.856
1658 0 157.484 14.3443 2259 88.1478 1162.3 446.883
1659 0 158.498 13.8299 2192 93.3481 1163.04 444.629
1660 0 163.31 14.1203 2306 88.4389 1162.59 440.813
1661 0 171.549 16.0887 2760 84.3134 1163.05 432.672
1662 0 186.355 20.1551 3756 72.598 1162.69 421.277
1663 0 185.436 19.7751 3667 76.0003 1162.27 420.598
1664 0 183.491 16.2461 2981 87.5891 1162.61 426.412
1665 0 185.384 14.2084 2634 93.0528 1162.5 425.913
1666 0 190.33 14.0598 2676 93.9948 1162.24 423.869
1667 0 201.269 17.7275 3568 84.454 1162.69 411.41
1668 0 202.403 15.0789 3052 92.2048 1162.11 410.736
1669 0 208.3 15.7705 3285 88.6648 1161.62 410.714
1670 0 215.458 15.9057 3427 89.3008 1162.81 409.875
1671 0 221.329 15.9898 3539 89.6801 1161.96 406.394
1672 0 227.368 15.763 3584 91.3209 1161.81 405.825
1673 0 235.291 16.18 3807 90.8962 1161.76 400.915
1674 0 241.32 15.7633 3804 93.2224 1162.02 398.847
1675 1 58.0501 11.8863 690 77.9841 1161.74 493.826
1676 0 61.0424 12.1882 744 79.2702 1161.35 492.344
1677 0 65.1701 12.2602 799 86.5094 1162.57 492.173
1678 0 66.2531 11.8334 784 88.9541 1162.89 492.055
1679 0 66.0977 11.3166 748 93.3503 1162.48 489.349
1680 0 68.0817 11.9415 813 90.8499 1161.3 488.658
1681 0 72.0663 12.1555 876 90.6804 1164.68 487.663
1682 0 73.0454 12.4169 907 90.3142 1164.37 485.86
1683 0 76.0557 11.3995 867 92.5398 1165.01 485.203
1684 0 78.0622 11.7983 921 92.7079 1165.05 485.081
1685 0 82.0687 11.795 968 92.9318 1165.36 483.528
1686 0 84.1241 11.2096 943 94.7731 1164.33 482.775
1687 0 84.1137 11.1754 940 136.94 1164.32 482.787
1688 0 89.1089 11.4467 1020 94.1578 1165.25 479.488
1689 1 47.0761 10.6848 503 92.3678 1165.22 500.441
1690 0 48.0169 11.2877 542 93.3506 1164.85 498.601
1691 0 50.0308 10.8533 543 93.558 1164.8 497.459
1692 0 50.0531 11.0882 555 93.4504 1164.84 495.292
1693 0 53.063 11.4015 605 91.9289 1165.04 494.737
1694 0 54.0999 10.8688 588 91.983 1164.97 493.367
1695 0 54.0736 10.8001 584 92.8836 1164.59 494.421
1696 0 57.0674 11.4777 655 89.5771 1165.06 493.18
1697 0 59.094 10.9487 647 90.966 1164.47 491.951
1698 0 61.0618 11.7094 715 89.0923 1165.09 489.625
1699 0 63.0562 12.1162 764 87.7526 1165.58 488.571
1700 0 63.0148 11.3307 714 89.4678 1165.68 488.48
1701 0 66.0544 11.1121 734 90.0204 1165.52 487.132
1702 0 68.0597 11.152 759 89.9736 1166.12 487.178
1703 0 71.0999 12.1378 863 87.3766 1166.06 488.441
1704 0 72.1881 12.2735 886 87.395 1165.69 486.597
1705 0 74.0838 12.4589 923 87.3554 1165.27 486.922
1706 0 74.1363 12.3152 913 88.724 1166.17 485.45
1707 0 78.1185 12.225 955 88.7351 1165.46 485.005
1708 0 79.038 12.9937 1027 87.7361 1165.25 483.66
1709 0 82.0838 12.2436 1005 88.5234 1164.68 484.504
1710 0 85.0865 13.0455 1110 86.0847 1164.74 482.673
1711 0 88.1324 13.3889 1180 86.7695 1165.38 480.574
1712 0 90.1508 12.5678 1133 89.2577 1165.09 478.994
1713 0 91.0884 13.1411 1197 88.0819 1165.13 478.855
1714 0 93.0954 12.4711 1161 91.3755 1165.95 476.215
1715 0 99.129 13.4673 1335 90.3978 1165.53 473.574
1716 0 102.23 12.8436 1313 92.8751 1165.1 473.401
1717 1 52.0345 10.4162 542 94.0351 1165.66 497.146
1718 0 55.1266 11.6096 640 91.0203 1165.33 497.558
1719 0 57.0859 12.0345 687 83.7715 1165.39 496.236
1720 0 59.021 11.3349 669 74.275 1163.33 495.72
1721 0 62.1392 12.3593 768 79.0404 1164.88 494.371
1722 0 63.0312 12.6921 800 77.6825 1164.87 493.736
1723 0 65.1048 12.7333 829 77.9928 1164.59 491.641
1724 0 66.076 12.1829 805 75.3739 1164.2 489.775
1725 0 67.0479 12.0958 811 75.9988 1164.54 487.243
1726 0 68.0298 12.3475 840 78.6631 1163.88 488.936
1727 0 72.0669 11.7946 850 76.1365 1163.85 485.211
1728 0 72.1704 12.2904 887 77.8794 1163.62 483.734
1729 0 75.1069 12.2226 918 78.2712 1163.6 483.312
1730 0 80.0597 12.703 1017 76.94 1163.59 481.823
1731 0 84.0775 13.6422 1147 74.4132 1163.49 481.865
1732 0 86.1987 13.7937 1189 75.4584 1163.59 481.375
1733 0 88.2235 14.0099 1236 76.4822 1162.96 479.625
1734 0 90.2169 13.7336 1239 78.088 1163.84 479.677
1735 0 94.1987 14.2571 1343 81.9151 1163.66 478.503
1736 0 97.2884 14.308 1392 81.6961 1163.8 476.593
1737 0 100.422 13.9113 1397 87.9764 1163.37 474.512
1738 0 103.405 14.0032 1448 84.5456 1163.42 472.053
1739 1 50.0989 11.0781 555 87.3748 1164.06 497.443
1740 0 54.0354 12.1032 654 83.7905 1164.66 496.639
1741 0 55.2895 12.95 716 86.6997 1165.29 495.011
1742 0 57.0732 12.9658 740 85.3581 1164.19 497.445
1743 0 58.1452 13.4835 784 83.6811 1164.26 495.909
1744 0 61.1829 13.5168 827 82.8247 1164.37 493.63
1745 0 63.1122 13.4998 852 81.6937 1164.24 493.619
1746 0 65.2115 12.9272 843 83.9775 1163.44 491.791
1747 0 65.1188 12.8842 839 84.4827 1163.5 490.426
1748 0 67.0491 13.244 888 83.2804 1163.8 491.452
1749 0 71.1668 13.4894 960 80.9875 1163.9 487.684
1750 0 71.0884 13.6872 973 82.5951 1164.1 487.609
1751 0 75.1018 13.8479 1040 82.8067 1163.17 486.312
1752 0 76.0923 14.3773 1094 82.1261 1163.4 486.673
1753 0 78.0973 13.8929 1085 84.3714 1163.36 485.9
1754 0 80.0983 13.9953 1121 85.8466 1163.58 484.26
1755 0 84.2779 14.2861 1204 84.2517 1163.76 482.561
1756 0 87.3298 14.3479 1253 84.8875 1163.28 479.363
1757 0 89.4014 14.2503 1274 86.3077 1163.81 477.974
1758 0 93.2444 14.9178 1391 83.064 1163.77 477.203
1759 0 94.1826 14.3551 1352 86.3987 1164.07 475.618
1760 0 100.482 13.5646 1363 86.8298 1163.62 472.901
1761 0 102.324 14.0339 1436 86.6978 1164.15 470.031
1762 0 102.324 13.9948 1432 167.727 1164.14 469.879
1763 0 108.556 13.9467 1514 89.7728 1164.3 468.63
1764 1 58.3048 12.0573 703 90.4395 1164.23 492.289
1765 0 60.3165 12.252 739 90.1854 1164.74 491.782
1766 0 59.2912 12.582 746 91.6783 1164.78 493.184
1767 0 63.2332 13.4423 850 89.2388 1164.25 492.706
1768 0 63.1568 13.2686 838 91.7422 1163.84 492.754
1769 0 66.1705 13.1327 869 92.5639 1163.72 490.592
1770 0 70.2483 12.769 897 92.3567 1164.41 489.421
1771 0 71.2146 13.5646 966 91.3137 1163.93 487.297
1772 0 73.2425 13.4894 988 92.753 1163.91 486.137
1773 0 76.1857 13.0996 998 92.6854 1163.97 485.436
1774 0 79.1964 13.7759 1091 91.6691 1164.23 483.317
1775 0 81.2207 13.7896 1120 92.8866 1163.95 481.595
1776 0 83.2267 13.5894 1131 93.3466 1163.94 480.138
1777 0 85.1525 13.5639 1155 92.9082 1164.45 477.247
1778 0 88.1195 13.6519 1203 93.8396 1164.79 477.019
1779 0 90.1656 13.5196 1219 95.0886 1164.85 476.122
1780 0 93.1995 13.573 1265 95.1257 1164.6 473.783
1781 0 97.1742 13.5118 1313 96.3085 1164.07 472.487
1782 0 98.223 13.4286 1319 100.277 1163.92 470.519
1783 0 103.102 14.2966 1474 95.7524 1164.38 469.438
1784 0 103.1 14.2386 1468 146.954 1164.39 469.458
1786 0 109.219 13.7064 1497 98.4382 1164.51 466.398
1787 0 113.177 13.501 1528 99.3639 1164.86 465.26
1788 1 59.0879 11.2036 662 92.5151 1165.65 493.44
1789 0 62.1006 11.6907 726 90.4504 1165.86 492.657
1790 0 65.2816 12.6835 828 92.0362 1165.39 491.75
1791 0 67.0469 12.4838 837 98.0669 1165.65 490.897
1792 0 71.0978 12.2507 871 97.5166 1165.09 487.697
1793 0 74.0994 12.3618 916 98.3395 1165.64 485.676
1794 0 76.32 12.762 974 97.037 1164.69 485.844
1795 0 78.2867 12.1477 951 99.2187 1164.64 484.066
1796 0 82.2986 12.5154 1030 99.1903 1164.11 482.459
1797 0 84.2816 12.7193 1072 100.927 1164.76 481.258
1798 0 89.301 13.0794 1168 99.5565 1164.43 479.792
1799 0 92.2608 12.6164 1164 98.7972 1164.05 478.778
1800 0 94.2867 12.812 1208 98.8642 1164.17 476.75
1801 0 96.107 12.4237 1194 102.465 1164.56 477.002
1802 0 101.119 12.5001 1264 102.33 1164.55 475.441
1803 1 54.029 10.2167 552 97.8496 1164.06 497.161
1804 0 57.0576 11.3044 645 97.6915 1163.7 495.671
1805 0 57.0473 11.1662 637 97.6342 1163.36 495.272
1806 0 58.0139 12.135 704 95.5511 1164.43 494.912
1807 0 61.0544 11.3505 693 96.925 1165.41 496.356
1808 0 62.029 11.3012 701 96.9601 1165.24 493.548
1809 0 66.0721 11.6388 769 94.8023 1165.07 491.934
1810 0 67.195 11.9056 800 94.69 1164.79 491.612
1811 0 68.0562 11.9607 814 96.0983 1164.6 490.096
1812 0 70.023 11.739 822 95.7798 1164.71 490.628
1813 0 73.0605 12.0859 883 96.2854 1164.55 488.381
1814 0 75.2 11.8883 894 97.3535 1164.29 487.481
1815 0 78.1203 12.3911 968 97.0238 1163.97 487.352
1816 0 79.0615 12.0919 956 99.0649 1164.26 485.088
1817 0 83.0906 11.662 969 101.05 1164.45 483.645
1818 0 85.0619 12.2969 1046 100.312 1163.82 484.132
1819 0 87.0699 11.9215 1038 103.016 1163.76 481.937
1820 0 88.0976 11.964 1054 103.269 1164.26 482.274
1821 0 92.0565 12.7204 1171 102.81 1163.76 480.153
1822 0 93.0838 11.8388 1102 104.92 1164.11 477.311
1823 0 96.1362 12.6695 1218 104.994 1162.9 478.125
1824 0 98.134 12.0244 1180 107.841 1161.94 473.858
1825 0 101.176 12.5524 1270 105.704 1162.42 473.191
1826 0 105.137 12.498 1314 102.536 1162.9 470.645
1827 0 108.111 12.6352 1366 98.9649 1163.82 468.908
1828 1 61.0527 10.925 667 88.9085 1163.7 494.156
1829 0 63.0366 11.4854 724 92.2845 1164.25 491.994
1830 0 63.1672 11.43 722 93.7105 1162.5 490.886
1831 0 67.1027 12.4734 837 90.5114 1162.68 491.533
1832 0 66.1416 10.8101 715 95.6266 1164.13 493.317
1833 0 68.1704 11.2512 767 95.5671 1164.56 491.506
1834 0 71.2261 11.0914 790 95.143 1164.32 490.532
1835 0 73.234 11.3472 831 93.5511 1163.9 489.407
1836 0 75.1878 10.7464 808 95.0396 1164.21 487.301
1837 0 77.2042 11.0357 852 98.527 1164.34 486.563
1838 0 79.2792 11.428 906 97.4316 1163.83 484.076
1839 0 84.2134 10.9009 918 97.8105 1163.1 484.08
1840 0 86.2006 11.276 972 97.9342 1163.37 482.402
1841 0 90.2134 11.5504 1042 97.6795 1163.63 479.057
1842 0 92.2158 12.0261 1109 96.1037 1163.35 477.655
1843 0 94.2376 11.6514 1098 95.1421 1163.61 477.377
1844 0 96.25 11.0857 1067 96.4667 1164 473.613
1845 0 101.189 11.8294 1197 96.4269 1163.59 471.936
1846 1 54.1319 10.8808 589 97.6265 1165.62 493.862
1847 0 57.0965 11.5769 661 97.5129 1165.39 492.684
1848 0 58.1184 11.9756 696 95.4842 1165.29 491.437
1849 0 61.2608 12.3407 756 92.2235 1164.73 492.258
1850 0 62.3157 12.4046 773 93.5627 1165.17 491.189
1851 0 64.1711 12.7316 817 89.8384 1164.44 490.749
1852 0 64.1375 11.8339 759 92.8498 1164.98 490.279
1853 0 67.1131 12.9185 867 90.2757 1164 489.979
1854 0 67.2196 12.1542 817 94.825 1165.18 489.665
1855 0 68.1826 11.6452 794 94.3073 1165.08 490.825
1856 0 69.2633 12.1276 840 94.3119 1164.98 488.057
1857 0 73.188 12.6933 929 93.2874 1164.74 486.702
1858 0 74.1755 12.4704 925 93.4378 1165.36 485.543
1859 0 75.2273 12.2429 921 95.3648 1165.46 483.735
1860 0 79.2036 12.6004 998 93.7495 1164.65 483.042
1861 0 82.1882 13.3718 1099 92.4622 1164.62 481.056
1862 0 83.2335 12.7953 1065 94.3315 1165.13 479.768
1863 0 85.2084 12.7452 1086 96.6087 1164.97 480.262
1864 0 89.1832 12.7154 1134 96.0379 1164.92 478.954
1865 0 91.1621 13.7228 1251 95.3789 1164.32 476.898
1866 0 94.2196 13.4898 1271 96.2848 1164.49 476.703
1867 0 97.1767 13.7276 1334 97.542 1164.51 474.849
1868 0 99.1987 13.6595 1355 97.6221 1164.36 473.988
1869 0 103.274 14.2824 1475 96.7837 1164.27 470.516
1870 0 105.208 13.516 1422 98.0148 1164.14 467.496
1871 0 108.253 14.1058 1527 97.2214 1164.84 467.772
1872 1 56.0235 11.3881 638 101.734 1165.73 493.837
1873 0 59.0261 11.7406 693 100.431 1165.31 492.794
1874 0 59.0655 12.3422 729 98.321 1162.22 492.713
1875 0 63.0685 12.2724 774 89.969 1163.88 491.739
1876 0 62.0581 13.0523 810 90.9679 1164.46 490.835
1877 0 63.1743 12.4734 788 89 1163.42 491.179
1878 0 64.1082 12.3853 794 89.6927 1163.8 489.832
1879 0 67.1171 12.6942 852 89.0258 1163.38 488.268
1880 0 71.1519 12.5928 896 86.1987 1163.46 486.462
1881 0 72.1687 12.9142 932 87.2564 1163.27 483.15
1882 0 74.087 12.9172 957 86.5695 1162.64 484.806
1883 0 76.1808 13.3236 1015 86.666 1162.26 483.941
1884 0 77.0698 12.7028 979 87.7875 1162.91 482.047
1885 0 81.1138 12.5256 1016 87.6408 1163.81 481.321
1886 0 81.1062 12.6378 1025 88.3385 1163.35 479.606
1887 0 86.1194 12.8891 1110 86.1541 1163.41 478.292
1888 0 90.3274 12.0451 1088 88.4044 1162.44 478.164
1889 0 91.1922 12.6327 1152 87.3464 1162.89 477.753
1890 0 94.0841 12.2125 1149 83.9347 1162.1 477.654
1891 0 95.0914 12.1883 1159 83.6877 1162.72 473.186
1892 0 100.11 13.2154 1323 83.0008 1162.43 473.707
1893 0 102.075 12.7358 1300 84.0669 1162.7 472.822
1894 0 105.057 12.3171 1294 86.0332 1163.25 472.682
1895 1 55.0507 11.8981 655 82.2321 1163.03 497.145
1896 0 56.076 11.7341 658 83.2523 1162.88 496.935
1897 0 58.0376 12.1128 703 82.0555 1163.37 495.512
1898 0 61.0877 11.77 719 81.8846 1163.17 494.018
1899 0 60.0675 12.2695 737 84.445 1164.16 492.039
1900 0 64.0534 12.2086 782 85.5396 1161.7 491.949
1901 0 63.0438 12.293 775 88.8632 1162.13 493.072
1902 0 67.0763 12.687 851 87.5347 1162.16 491.71
1903 0 69.0774 12.5511 867 88.0265 1162.35 490.298
1904 0 70.0635 12.5315 878 87.9533 1162.22 490.084
1905 0 72.0574 12.046 868 89.7961 1162.51 490.012
1906 0 75.1082 12.8215 963 87.2773 1162.73 489.021
1907 0 78.0946 12.6129 985 88.2609 1162.89 487.618
1908 0 79.0423 12.0315 951 86.5121 1162.25 483.869
1909 0 81.0974 12.6638 1027 88.6037 1162.19 485.407
1910 0 87.1384 13.0826 1140 84.5132 1162.52 484.56
1911 0 88.2066 12.448 1098 87.4162 1162.22 480.349
1912 0 93.1998 12.5751 1172 86.2491 1162.1 478.425
1913 0 97.1204 12.85 1248 85.1947 1161.99 476.206
1914 0 98.1034 12.3747 1214 85.4951 1161.6 474.699
1915 0 101.09 13.2753 1342 83.8875 1161.67 475.095
1916 0 105.153 12.7148 1337 84.472 1161.85 476.473
1917 0 107.166 12.0467 1291 85.8675 1161.41 472.384
1918 0 113.185 13.1908 1493 84.1092 1161.9 469.419
1919 0 116.149 12.7251 1478 86.7104 1161.71 469.003
1920 1 64.1305 11.96 767 87.4772 1162.36 493.593
1921 0 66.137 12.6102 834 88.6763 1163.29 491.095
1922 0 67.262 12.7561 858 93.2704 1162.47 489.268
1923 0 70.0219 13.3101 932 94.5161 1165.24 488.884
1924 0 71.127 12.3722 880 86.5636 1163.16 490.553
1925 0 72.1572 12.3342 890 87.5258 1163.24 489.327
1926 0 76.1809 12.1553 926 87.8056 1163.15 489.278
1927 0 79.3026 12.8621 1020 87.2637 1163.02 488.043
1928 0 81.2332 13.0119 1057 87.9839 1162.84 485.178
1929 0 83.401 12.6377 1054 89.3112 1162.48 482.522
1930 0 86.2146 12.7125 1096 89.5119 1162.2 481.709
1931 0 90.4286 13.3033 1203 88.6775 1162.75 481.217
1932 0 91.2486 12.6906 1158 95.0855 1163.2 481.813
1933 0 96.3446 13.296 1281 94.2966 1162.88 477.767
1934 0 100.435 13.1329 1319 94.1077 1162.75 474.556
1935 0 101.344 12.9954 1317 95.8588 1162.51 472.512
1936 1 50.2229 11.4091 573 93.192 1163.09 496.698
1937 0 52.3704 11.8387 620 93.5613 1163.13 496.529
1938 0 55.5445 12.8726 715 90.5902 1162.78 495.473
1939 0 55.4165 12.6316 700 91.6 1162.8 496.346
1940 0 59.186 12.8747 762 92.626 1162.13 496.73
1941 0 61.2321 12.6894 777 92.1956 1162.84 497.331
1942 0 62.316 13.0946 816 93.0135 1162.44 495.976
1943 0 64.2662 12.8217 824 92.7767 1162.56 494.937
1944 0 65.1722 12.6741 826 95.0896 1162.11 494.507
1945 0 67.248 13.3982 901 93.5128 1162.05 491.43
1946 0 70.3188 12.8984 907 94.3131 1161.23 489.89
1947 0 73.2896 12.7167 932 95.6609 1161.82 488.144
1948 0 73.3517 12.9377 949 95.8114 1161.96 486.05
1949 0 77.2395 13.1927 1019 94.5613 1162.44 484.025
1950 0 79.3597 12.248 972 96.8333 1162.62 483.427
1951 0 81.5848 12.6862 1035 96.1932 1162.36 481.998
1952 0 83.4114 12.9838 1083 96.7073 1162.29 482.555
1953 0 86.3271 13.2288 1142 96.3695 1162.63 480.948
1954 0 89.2852 13.3169 1189 95.7208 1162.15 478.615
1955 0 93.3186 13.1914 1231 96.1454 1162.58 478.884
1956 0 94.4363 13.2258 1249 96.4396 1162.69 478.628
1957 0 97.3317 13.7468 1338 96.1966 1162.4 475.195
1958 0 100.457 13.0902 1315 96.3103 1161.71 471.821
1959 0 103.435 13.0807 1353 96.6637 1161.87 470.775
1960 1 54.2561 12.0355 653 90.2833 1162.66 495.375
1961 0 55.1774 11.3996 629 88.655 1162.44 496.428
1962 0 58.093 11.3267 658 90.3739 1163.77 495.021
1963 0 60.0355 12.376 743 90.3176 1161.94 492.596
1964 0 60.0405 11.5922 696 89.9598 1162.96 492.835
1965 0 63.1243 12.2457 773 88.3946 1162.33 491.721
1966 0 64.1282 11.9916 769 89.7841 1162.15 491.311
1967 0 67.2112 11.9325 802 89.081 1162.66 490.233
1968 0 69.1329 12.2228 845 88.232 1161.72 487.675
1969 0 73.1463 13.1107 959 88.9093 1161.51 487.384
1970 0 75.1412 12.8159 963 93.1734 1161.36 485.309
1971 0 78.1502 13.3333 1042 92.7457 1161.48 483.805
1972 0 80.3314 12.7721 1026 93.9912 1161.91 482.655
1973 0 82.2089 13.1859 1084 93.8376 1161.49 479.8
1974 0 87.5182 13.62 1192 91.6233 1161.91 477.771
1975 0 88.2738 12.8804 1137 94.3641 1161.76 476.53
1976 0 91.3563 12.9165 1180 93.089 1161.5 472.618
1977 0 93.2765 12.8971 1203 93.5353 1161.63 472.604
1978 0 96.3132 12.885 1241 93.0129 1161.32 471.797
1979 0 99.2637 13.5699 1347 91.8686 1161.08 468.662
1980 0 103.311 13.2609 1370 94.811 1161.03 469.647
1981 0 105.293 13.2773 1398 94.2504 1161.21 467.714
1982 0 108.311 13.3227 1443 94.8905 1161.5 466.046
1983 1 60.2092 11.759 708 91.524 1162.56 491.199
1984 0 62.2311 12.8553 800 89.09 1162.1 489.539
1985 0 64.4861 12.5608 810 88.6 1162.45 492.926
1986 0 65.2421 12.1547 793 90.6784 1161.92 491.975
1987 0 68.1978 12.9183 881 88.5585 1161.37 490.792
1988 0 70.2949 12.6467 889 89.3723 1162.1 490.983
1989 0 73.3798 13.0554 958 90.2944 1161.8 485.967
1990 0 75.4318 13.1244 990 91.3677 1161.72 484.369
1991 0 76.5041 13.1888 1009 93.8662 1161.35 481.592
1992 0 80.5093 13.5761 1093 93.3449 1161.26 480.89
1993 0 82.482 12.9604 1069 94.3237 1160.9 480.298
1994 0 86.3275 12.9159 1115 94.696 1160.7 481.024
1995 0 88.394 13.157 1163 96.0241 1161.26 477.794
1996 0 89.368 13.1703 1177 97.9788 1161.04 476.983
1997 0 92.3828 13.0652 1207 98.7208 1160.61 476.047
1998 0 96.275 13.4095 1291 98.3625 1160.5 473.668
1999 0 98.2046 13.5941 1335 99.3041 1161.05 471.526
2000 0 101.386 13.4832 1367 100.452 1160.8 469.322
2001 0 103.213 13.7289 1417 100.751 1160.9 468.065
2002 0 110.41 13.5405 1495 100.918 1160.87 465.968
2003 0 112.486 13.7261 1544 101.972 1160.74 465.078
2004 0 115.373 13.2094 1524 103.707 1160.86 461.989
2005 0 120.363 13.3845 1611 101.782 1160.11 462.469
2006 0 124.41 12.7562 1587 104.483 1160.65 459.616
2007 0 127.469 13.3915 1707 103.94 1160.49 457.812
2008 1 66.3365 11.7281 778 98.8946 1161.43 489.6
2009 0 66.2052 12.1743 806 100.266 1161.98 489.806
2010 0 70.2635 12.2966 864 100.712 1161.72 491.108
2011 0 71.2438 12.0712 860 103.887 1161.89 489.037
2012 0 73.2807 12.841 941 103.299 1161.48 488.081
2013 0 76.2489 12.9576 988 101.257 1161.11 487.542
2014 0 78.2995 12.8609 1007 102.614 1160.85 485.094
2015 0 81.3717 13.0144 1059 101.652 1160.68 483.651
2016 0 82.4647 12.9146 1065 103.181 1160.79 478.918
2017 0 86.5179 13.1996 1142 102.329 1160.72 479.105
2018 0 88.281 12.902 1139 104.338 1160.61 476.475
2019 0 92.4229 13.2435 1224 103.144 1161.29 474.378
2020 0 95.399 12.5578 1198 103.239 1160.96 474.068
2021 0 99.5742 12.8849 1283 103.122 1161.11 472.577
2022 0 102.374 12.7278 1303 104.326 1160.79 470.545
2023 0 105.503 13.4024 1414 101.996 1160.57 470.502
2024 0 108.603 13.4158 1457 101.618 1160.67 469.134
2025 0 110.54 13.0993 1448 103.747 1160.79 467.11
2026 0 112.449 12.5834 1415 105.526 1160.99 465.633
2027 0 116.667 12.7285 1485 104.678 1160.9 464.545
2028 0 120.479 12.8238 1545 105.533 1160.92 461.653
2029 0 125.532 13.3671 1678 103.06 1161.44 459.748
2030 0 127.625 13.8765 1771 102.311 1161.89 458.772
2031 0 133.815 14.0044 1874 101.526 1161.15 455.383
2032 0 136.834 13.8123 1890 102.975 1161.42 452.539
2033 0 138.73 14.157 1964 102.094 1161.17 451.518
2034 0 144.608 14.4667 2092 100.545 1161.58 450.282
2035 0 146.664 14.1275 2072 101.065 1161.16 447.943
2036 0 149.619 14.3097 2141 100.527 1161.73 444.201
2037 0 154.824 14.6425 2267 98.6131 1161.41 445.181
2038 0 161.442 14.3086 2310 98.4541 1161.94 439.539
2039 0 163.453 14.004 2289 99.7785 1162.44 437.506
2040 0 171.682 14.4919 2488 97.2773 1162.17 434.99
2041 0 175.612 14.2473 2502 98.1023 1161.85 431.947
2042 0 175.622 14.2465 2502 163.132 1161.85 431.844
2043 0 174.841 11.9823 2095 103.204 1161.46 435.867
2044 0 173.647 10.8496 1884 104.278 1161.28 438.177
2045 1 37.3237 11.7888 440 87.7909 1161.75 500.005
2046 0 38.2415 11.4797 439 86.0638 1161.37 499.547
2047 0 38.1229 11.3842 434 86.182 1161.07 501.832
2048 0 40.217 12.7061 511 84.4677 1161.42 502.875
2049 0 43.1967 12.8713 556 82.2194 1161.06 504.608
2050 0 45.0518 12.9851 585 82.8479 1161.92 502.962
2051 0 46.1433 12.938 597 83.7253 1161.55 502.797
2052 0 46.1729 12.8214 592 85.8682 1162.15 502.571
2053 0 48.2457 12.8302 619 86.3344 1161.88 502.609
2054 0 50.2047 12.3295 619 96.3069 1161.98 500.491
2055 0 51.0761 12.6478 646 89.8963 1163.54 500.226
2056 0 53.0183 12.5428 665 93.0571 1163.18 499.893
2057 0 53.0468 13.1582 698 94.7307 1161.67 500.06
2058 0 53.0935 12.8829 684 95.9518 1162.39 498.158
2059 0 55.0939 12.6874 699 95.7053 1161.37 495.977
2060 0 57.125 13.0416 745 95.7799 1162.48 492.64
2061 0 58.1519 12.6049 733 97.3861 1162.23 494.437
2062 0 59.0846 13.4384 794 95.8514 1162.56 495.283
2063 0 59.2518 13.4848 799 96.5657 1162.59 490.899
2064 0 61.577 12.9432 797 97.9222 1162.31 489.942
2065 0 65.3562 12.8832 842 98.0178 1162.71 488.796
2066 0 68.4937 13.9867 958 93.9781 1162.72 487.482
2067 0 69.4715 13.4876 937 96.3372 1162.81 486.965
2068 0 73.3596 13.9995 1027 94.0175 1162.49 486.311
2069 0 74.4234 13.5173 1006 98.336 1162.51 484.52
2070 0 77.433 13.8313 1071 97.4603 1162.43 484.071
2071 0 78.4328 13.757 1079 100.504 1161.92 483.52
2072 0 80.4317 13.5394 1089 104.65 1161.68 483.253
2073 0 83.4777 14.2912 1193 103.214 1161.24 479.76
2074 0 84.411 13.8489 1169 106.597 1161.47 477.54
2075 0 89.4537 14.3538 1284 104.931 1161.15 477.606
2076 0 89.4537 14.3873 1287 165.828 1161.14 477.572
2077 0 94.47 14.2585 1347 107.851 1161.17 472.442
2078 0 96.3715 14.7243 1419 107.228 1161.42 470.901
2079 0 102.377 14.974 1533 105.377 1160.62 469.58
2080 1 51.3717 12.1078 622 109.768 1161.13 495.026
2081 0 55.4288 12.7731 708 108.494 1161.51 491.168
2082 0 56.2498 13.44 756 107.114 1162.01 490.474
2083 0 59.3365 13.988 830 104.658 1161.75 489.808
2084 0 60.3681 14.6601 885 102.806 1161.99 490.173
2085 0 62.3504 14.3864 897 103.176 1162.71 489.177
2086 0 65.3389 14.7998 967 103.12 1163.02 488.205
2087 0 66.3779 14.5832 968 105.133 1163.03 487.071
2088 0 69.3747 14.6451 1016 102.281 1162.38 487.72
2089 0 70.5788 14.4944 1023 103.352 1162.19 486.931
2090 0 74.4017 14.5158 1080 105.706 1162.38 486.645
2091 0 76.438 14.9271 1141 105.621 1162.85 484.013
2092 0 76.4199 14.4727 1106 109.183 1162.55 483.596
2093 0 80.6234 15.0577 1214 107.337 1162.63 481.359
2094 0 83.3254 14.7614 1230 108.426 1163.3 480.902
2095 0 84.4673 15.3314 1295 106.829 1163.7 480.217
2096 0 87.2827 14.8827 1299 107.945 1163.16 477.581
2097 0 92.3053 15.1671 1400 105.946 1163.49 476.699
2098 0 95.5574 15.2474 1457 105.421 1163.04 474.934
2099 0 99.4638 15.5232 1544 105.503 1163.56 472.896
2100 0 102.351 15.0756 1543 108.148 1163.06 471.39
2101 0 105.562 15.1475 1599 109.7 1162.88 468.397
2102 1 50.285 13.0655 657 111.997 1162.85 496.388
2103 0 53.2048 14.322 762 110.108 1162.54 495.037
2104 0 53.284 14.6573 781 113.073 1163.65 495.223
2105 0 56.2139 13.9289 783 112.849 1163.07 493.789
2106 0 57.3475 14.508 832 112.106 1162.89 492.225
2107 0 59.3732 13.811 820 113.166 1162.81 491.37
2108 0 62.2763 15.0137 935 109.514 1162.97 489.278
2109 0 63.3811 14.042 890 113.78 1163.31 489.143
2110 0 64.3718 14.4162 928 114.05 1163.3 486.913
2111 0 67.4124 14.5671 982 112.397 1163.41 484.477
2112 0 70.4278 14.8379 1045 111.037 1162.97 482.011
2113 0 72.4839 14.7757 1071 111.98 1162.61 479.5
2114 0 77.4144 14.4934 1122 110.072 1162.32 478.82
2115 0 78.5701 14.5221 1141 110.992 1162.63 477.21
2116 0 83.4843 14.8651 1241 107.736 1162.19 476.608
2117 0 86.4233 14.6951 1270 108.529 1162.09 476.682
2118 1 45.3215 11.8487 537 103.235 1163.31 495.883
2119 0 44.145 12.912 570 101.884 1163.44 496.126
2120 0 48.0502 12.6534 608 100.556 1162.64 495.773
2121 0 50.0706 12.5223 627 101.453 1161.89 495.855
2122 0 51.0909 12.8594 657 101.551 1162.1 494.129
2123 0 54.1168 13.2306 716 99.1592 1162.48 493.367
2124 0 54.0532 13.4867 729 99.9108 1162.24 491.835
2125 0 56.0573 12.7548 715 103.448 1162.49 491.144
2126 0 58.0478 12.9032 749 98.4673 1161.53 488.208
2127 0 61.0699 13.3454 815 98.346 1161.97 486.356
2128 0 61.0521 12.9398 790 103.625 1162.22 489.252
2129 0 65.0292 13.0557 849 103.201 1162.36 488.41
2130 0 67.0286 13.6957 918 101.142 1161.77 487.69
2131 0 69.0951 13.2716 917 102.863 1162.25 485.328
2132 0 69.0264 12.8936 890 104.721 1162.42 484.235
2133 0 71.0616 12.5243 890 107.108 1162.21 482.38
2134 0 74.0337 13.3588 989 105.122 1162.2 481.676
2135 0 78.0497 13.2223 1032 105.543 1162.79 480.879
2136 0 81.0425 12.7464 1033 106.913 1163.17 479.099
2137 1 40.0488 10.637 426 95.2042 1162.83 500.383
2138 0 42.0424 11.417 480 91.0708 1162.93 500.692
2139 0 44.0405 10.9445 482 91.7075 1162.34 497.037
2140 0 46.0271 12.1233 558 89.7491 1162.06 497.733
2141 0 48.0392 12.3441 593 88.5818 1162.28 496.164
2142 0 49.2733 12.5423 618 93.9401 1163.61 497.021
2143 0 49.2075 12.742 627 95.7209 1163.49 496.281
2144 0 49.1676 12.2235 601 98.3261 1164.18 493.85
2145 0 52.0892 12.0754 629 99.8474 1163.7 492.418
2146 0 54.1617 12.8319 695 95.8547 1163.31 490.469
2147 0 54.1754 12.6256 684 97.7997 1163.55 489.167
2148 0 56.1865 12.6365 710 96.6648 1163.82 489.716
2149 0 58.209 12.8159 746 96.0952 1164.97 490.16
2150 0 58.1286 12.868 748 97.6618 1163.9 489.941
2151 0 61.1649 13.1611 805 96.4795 1165.15 486.385
2152 0 61.166 13.0792 800 96.98 1164.79 486.56
2153 0 66.2109 13.4419 890 94.0786 1165.1 486.864
2154 0 68.2252 12.9278 882 100.709 1164.31 485.294
2155 0 68.1421 12.4299 847 102.455 1164.81 484.541
2156 0 72.2087 13.2117 954 98.0294 1163.47 483.818
2157 0 73.1935 12.8017 937 97.8356 1164.12 482.703
2158 0 75.2174 12.9624 975 97.0236 1164.11 481.03
2159 0 78.1768 12.8811 1007 96.9563 1164.06 480.001
2160 0 80.3621 12.4063 997 96.5246 1163.66 480.001
2161 0 82.1988 12.5063 1028 95.9835 1164.68 475.98
2162 0 84.2048 12.3152 1037 95.5863 1163.84 475.724
2163 0 90.2522 12.6313 1140 92.3088 1164.14 473.576
2164 0 92.062 11.8616 1092 91.1722 1164.38 468.908
2165 0 95.0358 11.7745 1119 90.4397 1164.01 468.819
2166 1 50.0436 9.43177 472 83.0551 1164.01 492.294
2167 0 52.0332 10.7431 559 79.7639 1164.02 492.857
2168 0 53.0333 9.82402 521 82.2246 1163.88 491.384
2169 0 55.0398 10.7922 594 79.1886 1164.62 489.722
2170 0 58.0765 11.0372 641 83.2792 1164.69 489.016
2171 0 60.129 11.6749 702 88.5171 1163.62 487.689
2172 0 61.1816 11.85 725 89.3338 1163.04 486.39
2173 0 62.0793 11.6142 721 90.552 1163.26 485.531
2174 0 66.098 11.7855 779 90.104 1163.38 485.701
2175 0 71.1417 10.7251 763 91.4168 1163.33 483.632
2176 0 72.1302 11.909 859 88.2072 1163.76 482.887
2177 0 73.1577 11.7418 859 89.1746 1163.62 482.423
2178 0 73.1577 11.8101 864 131.049 1163.62 482.403
2179 0 79.1129 11.8059 934 86.9711 1163.11 481.008
2180 0 79.1257 12.3222 975 86.0195 1163.76 477.585
2181 0 84.1018 12.7108 1069 83.6614 1165.24 476.477
2182 0 86.1223 12.4474 1072 84.0905 1164.98 473.433
2183 0 86.2078 11.2287 968 83.3461 1164.81 474.858
2184 1 47.0155 10.7624 506 80.1443 1165.42 496.409
2185 0 48.0355 10.5963 509 80.4892 1164.69 496.067
2186 0 50.0687 10.7652 539 79.7978 1162.94 495.577
2187 0 47.0532 9.2236 434 76.0115 1164.18 497.5
2188 0 48.0797 10.025 482 75.9813 1165.32 497.22
2189 0 51.0485 10.1668 519 75.6994 1165.19 495.324
2190 0 53.1091 10.9397 581 74.9966 1165.7 494.836
2191 0 55.2018 10.3439 571 74.5377 1165.55 495.417
2192 0 55.069 10.6049 584 73.8048 1164.92 494.752
2193 0 57.0672 10.2335 584 74.5565 1164.87 494.315
2194 0 60.0563 10.1738 611 74.2897 1164.8 494.128
2195 0 62.107 11.6412 723 73.1425 1164.09 491.187
2196 0 64.1038 11.2474 721 73.8807 1162.99 491.229
2197 0 66.1668 10.9874 727 75.1032 1163.97 491.96
2198 0 67.1549 11.3469 762 78.5407 1163.52 490.039
2199 0 70.2501 11.3879 800 78.0538 1163.13 487.888
2200 0 72.1349 11.5478 833 77.3517 1163.22 489.252
2201 0 74.1782 10.987 815 77.9877 1162.64 486.834
2202 0 76.1238 11.2842 859 80.2515 1162.91 486.08
2203 0 80.1642 11.7384 941 79.9022 1163.06 485.556
2204 0 82.1918 11.68 960 82.0073 1163.14 483.008
2205 1 45.1212 11.2364 507 81.286 1162.74 502.996
2206 0 45.1164 10.8608 490 84.0102 1162.74 501.808
2207 0 45.1 11.5299 520 83.95 1162.72 502.058
2208 0 48.3129 12.7088 614 81.5081 1163.92 497.476
2209 0 47.2595 11.9129 563 80.071 1163.05 499.677
2210 0 49.109 11.6272 571 79.2522 1162.28 501.07
2211 0 52.032 11.5314 600 77.4817 1162.75 501.633
2212 0 50.0748 11.403 571 80.3695 1162.39 500.306
2213 0 54.0955 12.4594 674 78.322 1161.79 500.003
2214 0 56.0776 12.9285 725 77.5159 1162.29 498.284
2215 0 58.0617 12.4178 721 77.9598 1162.53 498.295
2216 0 57.0602 13.2492 756 77.7884 1162.61 497.06
2217 0 58.0903 12.1707 707 80.2277 1162.56 496.757
2218 0 62.0808 12.3226 765 78.8824 1162.37 495.472
2219 0 62.1022 12.9625 805 78.3901 1162.93 494.399
2220 0 63.1022 12.3926 782 80.2238 1162.43 493.468
2221 0 65.0782 12.6617 824 79.5376 1163.2 492.413
2222 0 66.0896 12.9067 853 79.408 1162.44 491.642
2223 0 70.1041 13.1947 925 77.9838 1162.52 491.172
2224 0 71.1143 12.8244 912 78.7643 1162.67 490.822
2225 0 74.142 12.9077 957 78.9582 1162.31 489.606
2226 1 37.0297 11.1802 414 81.4976 1161.51 507.978
2227 0 37.0366 11.1781 414 82.5097 1162.14 507.471
2228 0 39.03 10.4791 409 83.7457 1161.93 506.971
2229 0 39.0167 11.1234 434 80.7903 1162.09 506.276
2230 0 41.0129 11.216 460 79.8717 1162.18 505.25
2231 0 42.1029 11.7094 493 84.1156 1163.75 503.789
2232 0 45.1168 11.7473 530 81.9509 1163.98 503.568
2233 0 45.027 11.9484 538 83.3141 1163.61 504
2234 0 48.0832 12.9775 624 80.3766 1162.73 502.242
2235 0 49.0306 12.7675 626 80.1789 1162.14 503.986
2236 0 50.1008 13.413 672 79.9911 1161.45 500.688
2237 0 50.046 13.028 652 82.1856 1161.47 499.406
2238 0 51.1356 13.3566 683 82.2928 1160.91 499.9
2239 0 53.2319 12.9997 692 82.4379 1162.02 501.351
2240 0 53.1263 13.0444 693 83.3564 1161.97 500.367
2241 0 56.1736 12.675 712 83.9522 1161.9 498.435
2242 0 57.118 13.3933 765 81.6458 1161.27 498.417
2243 0 58.1428 13.1229 763 82.5557 1161.74 498.16
2244 0 60.1738 13.5607 816 81.0184 1161.09 497.808
2245 0 59.1172 12.3991 733 85.1501 1161.61 498.401
2246 0 61.1737 12.2275 748 85.373 1160.96 498.549
2247 0 63.1475 11.7344 741 86.6059 1160.88 495.757
2248 0 67.1544 12.5681 844 83.7666 1161.14 495.478
2249 0 65.1296 11.2238 731 87.617 1161.61 495.103
2250 0 69.0914 12.1144 837 85.2712 1161.45 494.602
2251 0 73.1314 12.8672 941 83.0436 1161.71 494.308
2252 0 74.1361 13.0166 965 84.1668 1161.68 493.608
2253 0 77.0897 12.2584 945 86.6413 1161.66 492.324
2254 0 78.1074 12.5724 982 86.6762 1161.71 490.605
2255 0 83.1282 12.2582 1019 86.5005 1162.38 488.27
2256 0 85.1307 12.2283 1041 87.3439 1162.25 489.294
2257 0 86.1842 12.3572 1065 88.1136 1162.29 485.747
2258 0 90.107 12.3742 1115 88.1848 1161.84 484.246
2259 0 90.107 12.3631 1114 145.549 1160.83 484.354
2260 0 94.1655 13.1789 1241 85.22 1161.77 483.735
2261 0 95.1483 12.223 1163 88.0499 1162.09 481.977
2262 1 53.067 11.9095 632 89.5111 1161.76 501.157
2263 0 55.1502 13.019 718 87.9067 1162.27 500.68
2264 0 58.0879 12.5499 729 87.487 1163.26 499.402
2265 0 59.1756 13.5191 800 86.0375 1163.35 497.499
2266 0 61.0885 13.2267 808 89.9121 1162.58 497.505
2267 0 62.1066 13.9921 869 90.977 1162.9 496.262
2268 0 64.1584 13.9654 896 90.6529 1162.75 494.718
2269 0 67.0791 13.1039 879 82.7884 1163.24 492.314
2270 0 67.0791 13.2083 886 139.2 1164.26 492.212
2271 0 71.066 13.8322 983 81.2716 1163.68 490.803
2272 0 74.0583 14.016 1038 80.6012 1163.31 490.329
2273 0 77.1058 13.7733 1062 81.5979 1162.51 487.727
2274 0 78.1127 13.711 1071 83.0719 1163.22 486.529
2275 0 79.0515 13.409 1060 84.8151 1163.3 487.087
2276 0 83.1182 13.5951 1130 86.5487 1164.07 486.143
2277 0 85.0863 13.88 1181 87.044 1163.11 483.925
2278 0 89.1725 14.186 1265 86.4055 1162.96 484.039
2279 0 91.099 13.9848 1274 86.9804 1162.99 482.872
2280 0 92.233 13.0756 1206 89.8566 1163.61 483.449
2281 0 95.1574 13.3883 1274 89.7677 1163.4 483.63
2282 0 96.2089 13.242 1274 90.7582 1163.06 481.492
2283 0 99.2915 13.5158 1342 89.4069 1162.63 481.523
2284 0 102.27 13.5915 1390 91.0122 1162.98 479.083
2285 0 105.23 13.4848 1419 91.8781 1162.95 478.225
2286 0 106.241 13.4224 1426 91.1739 1162.79 476.919
2287 0 111.23 13.8902 1545 92.912 1163.21 474.479
2288 0 114.143 13.8335 1579 94.3547 1161.82 471.673
2289 0 120.222 14.3817 1729 90.0214 1162.53 470.888
2290 1 62.0099 13.1753 817 96.5239 1163.31 497.914
2291 0 65.0613 13.9868 910 94.7516 1163.51 496.612
2292 0 69.1752 14.4561 1000 96.213 1163.63 493.498
2293 0 71.0915 14.5024 1031 96.6751 1163.31 492.517
2294 0 74.1389 14.4863 1074 97.0549 1163.29 491.896
2295 0 76.1472 14.2619 1086 98.6142 1163.38 490.852
2296 0 77.1718 14.1891 1095 100.637 1163.67 490.233
2297 0 82.1603 14.776 1214 98.6722 1163.32 485.177
2298 0 84.3324 14.4666 1220 99.7934 1163.46 483.199
2299 0 85.2939 15.089 1287 99.9977 1162.32 482.53
2300 0 88.2275 14.4739 1277 102.984 1163.16 480.007
2301 0 89.3964 13.9827 1250 105.108 1162.92 479.163
2302 0 94.3241 14.6834 1385 102.806 1162.84 478.357
2303 0 95.3035 14.6165 1393 105.526 1163.21 477.635
2304 0 97.4004 14.8767 1449 106.528 1163.79 475.781
2305 0 101.439 14.9746 1519 106.007 1163.53 474.599
2306 0 106.592 14.8885 1587 105.949 1163.34 472.993
2307 0 111.428 14.5835 1625 107.066 1162.91 471.66
2308 0 114.477 14.9201 1708 108.203 1162.6 470.249
2309 0 117.307 14.6454 1718 109.518 1163.15 469.311
2310 0 121.421 14.9562 1816 110.67 1163.42 467.037
2311 0 124.463 14.7272 1833 113.003 1162.8 465.522
2312 1 66.2711 13.2486 878 111.408 1163.38 492.281
2313 0 68.2521 13.4062 915 111.067 1162.78 492.251
2314 0 72.3607 13.3774 968 110.032 1162.52 490.978
2315 0 73.1735 13.5841 994 109.301 1162.51 490.326
2316 0 77.2053 13.4317 1037 109.2 1163.35 488.285
2317 0 80.2949 13.8739 1114 106.367 1163.34 486.862
2318 0 82.2717 13.9173 1145 106.261 1163.36 485.789
2319 0 85.199 14.0847 1200 105.245 1163.07 483.572
2320 0 88.2816 14.0007 1236 105.43 1163.7 481.172
2321 0 90.2663 14.003 1264 104.829 1163.3 478.737
2322 0 93.2869 13.7104 1279 104.998 1163.29 477.028
2323 0 95.2531 14.0573 1339 102.518 1163.36 476.385
2324 0 97.2014 14.1047 1371 102.48 1163.97 474.324
2325 0 101.224 14.5123 1469 102.452 1163.48 471.595
2326 0 104.221 14.095 1469 103.99 1163.22 469.291
2327 0 108.291 14.0732 1524 103.19 1163.33 466.136
2328 0 112.199 14.3406 1609 102.06 1163.44 463.533
2329 0 116.21 14.7836 1718 100.446 1163.34 462.584
2330 0 118.19 14.3075 1691 101.681 1163.61 461.856
2331 0 123.155 15.1353 1864 99.1819 1163.44 459.946
2332 0 126.135 14.762 1862 100.563 1164.1 454.45
2333 0 129.231 15.0815 1949 100.903 1163.68 451.831
2334 0 135.181 14.7654 1996 102.902 1163.86 450.467
2335 0 139.223 15.1555 2110 102.809 1163.94 449.891
2336 0 142.298 15.3481 2184 103.878 1164.34 447.458
2337 0 148.265 15.4993 2298 103.624 1164.66 443.97
2338 0 153.356 15.5977 2392 104.12 1164.08 442.204
2339 0 160.371 15.6761 2514 103.033 1163.83 439.783
2340 1 80.2236 12.4527 999 104.309 1164.8 479.793
2341 0 81.0944 12.467 1011 106.211 1164.84 480.87
2342 0 85.1059 13.8063 1175 103.34 1165.57 480.618
2343 0 88.1097 14.062 1239 104.024 1165 479.433
2344 0 91.0896 14.5351 1324 103.571 1162.7 478.691
2345 0 94.0988 13.709 1290 106.018 1162.32 477.687
2346 0 97.1315 13.9193 1352 104.777 1163.15 476.448
2347 0 100.151 14.0988 1412 103.187 1163.28 475.397
2348 0 103.153 13.7272 1416 103.528 1162.77 473.958
2349 0 107.361 14.4187 1548 101.519 1162.56 471.811
2350 0 111.234 14.1144 1570 101.61 1162.03 469.394
2351 0 115.236 14.1188 1627 101.241 1161.87 469.434
2352 0 119.37 14.3755 1716 100.614 1161.65 468.438
2353 0 122.331 13.7659 1684 102.998 1161.97 466.482
2354 0 127.251 14.1139 1796 101.896 1161.21 463.945
2355 0 132.267 14.4556 1912 101.085 1160.64 460.866
2356 1 73.2298 11.184 819 98.1795 1160.09 494.158
2357 0 75.1342 11.8055 887 96.6167 1160.09 493.189
2358 0 74.067 10.8415 803 99.6463 1160.49 491.884
2359 0 80.0995 12.6343 1012 94.753 1159.69 491.225
2360 0 79.1495 10.8655 860 84.7326 1160.32 492.254
2361 0 81.1047 10.5789 858 85.2424 1160.56 491.484
2362 0 84.1253 10.7815 907 85.2955 1160.57 490.219
2363 0 87.3012 11.214 979 84.7559 1159.76 488.155
2364 0 91.1306 10.9952 1002 84.6986 1159.38 486.36
2365 0 92.1384 11.461 1056 85.5985 1159.82 484.709
2366 0 95.1206 11.333 1078 85.602 1159.88 480.387
2367 0 98.2746 11.5187 1132 92.5795 1159.13 476.347
2368 0 103.235 12.3601 1276 89.8856 1158.96 478.944
2369 0 103.233 12.341 1274 135.043 1158.96 478.938
2370 0 109.206 12.362 1350 89.8348 1159.18 473.134
2371 0 113.209 11.8806 1345 89.6156 1158.62 468.848
2372 0 118.208 11.3614 1343 90.7632 1158.37 468.676
2373 1 64.1041 10.093 647 79.4281 1158.33 496.468
2374 0 65.0867 10.6012 690 79.5449 1158.03 494.899
2375 0 69.0868 11.1888 773 80.9418 1159.62 493.257
2376 0 72.0931 11.1245 802 80.5 1159.69 492.017
2377 0 73.0634 10.3061 753 81.9907 1160.15 490.673
2378 0 75.0942 11.439 859 80.3586 1160.25 489.17
2379 0 78.0892 10.1166 790 81.5785 1160.17 488.69
2380 0 80.1704 10.7147 859 81.1304 1160.23 487.775
2381 0 82.0733 11.441 939 80.2567 1159.69 485.521
2382 0 86.1272 11.2508 969 81.2559 1159.79 485.643
2383 0 86.1556 10.6551 918 84.7113 1160.39 483.135
2384 0 88.1349 10.4045 917 85.9248 1160.32 481.024
2385 0 92.1022 11.4221 1052 85.2205 1160.42 480.078
2386 1 44.0576 9.64646 425 78.48 1159.37 505.626
2387 0 46.0201 10.8214 498 76.8775 1160.02 503.683
2388 0 47.0253 11.1429 524 76.4828 1159.7 502.223
2389 0 49.0916 11.2239 551 75.1307 1160.33 502.013
2390 0 46.0706 10.0281 462 78.9394 1159.97 502.597
2391 0 50.1183 9.85668 494 77.2773 1160.26 502.719
2392 0 51.0601 9.92947 507 76.1815 1160.93 501.187
2393 0 52.0862 10.0986 526 75.924 1160.17 498.534
2394 0 55.1124 10.7054 590 73.9746 1160.65 496.949
2395 0 56.0996 10.9092 612 74.0261 1160.44 496.444
2396 0 57.0948 10.4913 599 110.983 1160.4 496.611
2397 0 58.1616 10.4708 609 73.6946 1161.87 496.25
2398 0 60.271 11.216 676 72.9808 1161.53 494.389
2399 0 61.1542 10.4163 637 73.9027 1161.16 492.835
2400 0 65.204 11.1803 729 74.3937 1161.06 491.491
2401 0 66.183 11.574 766 73.1867 1161.57 489.888
2402 0 67.1881 12.1301 815 75.7767 1161.54 487.849
2403 0 68.1193 11.8616 808 79.2277 1161.28 487.832
2404 0 71.3 11.4867 819 78.9353 1161.34 485.569
2405 0 75.4117 11.9743 903 77.6999 1161.66 485.611
2406 0 76.3749 11.3912 870 80.6138 1162.01 481.221
2407 0 80.5992 11.8736 957 80.3668 1161.68 481.537
2408 0 84.6925 12.5985 1067 79.1303 1161.87 479.009
2409 0 85.698 12.7774 1095 80.6667 1161.48 479.208
2410 0 89.6769 13.1249 1177 80.1079 1162.24 476.285
2411 1 44.4778 9.42043 419 79.2267 1163.28 499.033
2412 0 45.3426 10.8287 491 80.1242 1162.63 497.155
2413 0 47.1565 11.4088 538 81.0558 1163.46 495.626
2414 0 48.1587 11.6282 560 82.9482 1163.7 499.154
2415 0 48.1508 11.6094 559 85.7585 1164.67 495.678
2416 0 51.2605 12.2707 629 84.9142 1164.5 495.946
2417 0 51.2764 12.1693 624 87.024 1163.96 492.075
2418 0 53.2838 11.9361 636 88.3774 1163.78 491.343
2419 0 56.4561 12.8241 724 86.4006 1164.01 489.711
2420 0 58.5069 12.4772 730 87.0192 1164.22 489.773
2421 0 59.4661 12.7131 756 87.3558 1164.54 490.302
2422 0 60.4416 12.1936 737 89.4301 1164.12 488.997
2423 0 63.4757 12.7608 810 88.4642 1164.34 487.359
2424 0 64.3107 12.7351 819 90.6239 1164.4 488
2425 0 66.3039 12.8047 849 91.5371 1164.86 486.188
2426 0 71.5086 13.5788 971 89.3254 1164.73 484.895
2427 0 71.3315 13.6686 975 91.1754 1164.75 484.52
2428 0 74.3682 13.5542 1008 92.5814 1164.35 482.335
2429 0 78.5073 14.1006 1107 90.6622 1163.32 482.813
2430 0 79.4992 13.7737 1095 92.2831 1163.79 482.811
2431 0 81.3404 13.2898 1081 95.432 1164.05 480.077
2432 0 84.2458 13.7336 1157 94.5073 1164.38 480.57
2433 0 88.3255 13.2238 1168 95.613 1164.2 477.914
2434 0 89.3171 13.0322 1164 98.5052 1164.15 476.519
2435 0 92.2034 13.1882 1216 97.204 1164.53 475.104
2436 0 93.2148 13.7854 1285 97.2218 1164.1 474.999
2437 0 96.3842 13.8093 1331 97.6739 1163.84 472.664
2438 0 98.3475 13.371 1315 100.125 1164.17 471.573
2439 0 102.366 14.1258 1446 97.278 1164.12 470.268
2440 0 105.197 13.6411 1435 98.9115 1164.03 469.632
2441 0 107.288 13.9345 1495 98.8763 1163.93 469.852
2442 0 111.292 14.2329 1584 97.9205 1163.92 467.179
2443 0 114.439 14.4968 1659 97.5515 1163.88 465.621
2444 0 117.432 14.2295 1671 99.5248 1163.92 464.807
2445 0 121.386 14.4333 1752 99.9458 1164.12 461.655
2446 0 125.267 14.9441 1872 98.7628 1164.58 461.829
2447 0 128.408 14.2748 1833 101.208 1164.05 458.276
2448 0 131.387 14.8036 1945 101.957 1163.69 456.89
2449 0 136.295 15.0629 2053 100.823 1163.62 456.377
2450 0 140.413 14.7636 2073 102.313 1163.51 454.018
2451 0 145.365 14.9899 2179 101.805 1163.17 452.623
2452 0 148.611 15.0325 2234 101.412 1162.46 451.087
2453 0 153.305 15.1985 2330 102.184 1162.26 446.771
2454 0 158.446 14.7243 2333 102.881 1162.61 445.63
2455 0 162.373 14.1957 2305 104.746 1162.92 445.184
2456 1 86.1618 12.5346 1080 106.895 1164.29 482.161
2457 0 87.2247 12.5423 1094 109.595 1163.45 480.277
2458 0 91.2713 13.3887 1222 107.169 1164.35 479.239
2459 0 92.1892 13.7652 1269 107.309 1163.73 476.444
2460 0 93.1621 14.0186 1306 108.306 1164.37 476.411
2461 0 96.1327 14.1887 1364 108.129 1164.38 473.437
2462 0 100.154 14.3479 1437 107.444 1163.87 470.358
2463 0 104.222 13.8838 1447 108.094 1163.8 469.76
2464 0 106.255 14.2488 1514 108.573 1164.48 469.535
2465 0 109.292 14.1364 1545 109.082 1163.9 469.132
2466 0 114.202 14.6495 1673 107.112 1163.55 466.83
2467 0 116.211 14.4221 1676 109.202 1163.74 465.448
2468 0 120.398 14.4604 1741 109.191 1163.22 461.31
2469 0 125.226 14.5018 1816 109.03 1162.97 459.929
2470 0 128.287 14.7638 1894 109.925 1162.29 458.53
2471 0 131.287 14.4417 1896 111.971 1162.67 454.372
2472 0 135.3 14.4715 1958 111.614 1162.54 449.875
2473 0 139.26 14.7278 2051 111.471 1162.31 445.88
2474 0 147.437 14.4672 2133 110.247 1161.68 442.694
2475 0 148.449 14.3281 2127 111.754 1162.11 439.576
2476 0 155.495 14.8108 2303 109.531 1161.83 438.984
2477 0 161.201 14.088 2271 110.205 1161.66 436.413
2478 1 87.1489 11.9451 1041 110.407 1161.53 472.391
2479 0 90.2531 11.9996 1083 111.149 1161.97 472.373
2480 0 94.2474 12.7112 1198 108.879 1161.54 470.739
2481 0 98.2587 12.7215 1250 108.726 1160.97 469.212
2482 0 102.285 12.6607 1295 108.318 1161.69 467.696
2483 0 102.285 12.7193 1301 162.685 1163.69 467.831
2484 0 109.457 13.9142 1523 100.196 1161.6 463.898
2485 0 113.378 13.821 1567 100.308 1161.63 458.93
2486 1 58.2412 9.90708 577 97.7574 1162.2 486.449
2487 0 60.2227 10.4944 632 97.4478 1162.98 485.82
2488 0 63.2933 10.8068 684 96.6652 1162.51 483.098
2489 0 67.2225 10.8297 728 95.6346 1161.67 482.97
2490 0 73.1774 10.6864 782 95.179 1163.76 483.974
2491 0 75.1411 11.2854 848 95.23 1162.86 483.084
2492 0 79.1148 11.8941 941 101.414 1162.28 485.778
2493 0 81.0897 12.147 985 102.987 1161.9 485.991
2494 0 82.1175 11.7271 963 106.191 1161.74 482.738
2495 0 88.148 11.9912 1057 104.171 1161.71 483.544
2496 0 90.238 12.334 1113 104.424 1162.16 481.342
2497 0 91.272 12.3258 1125 106.653 1162.04 480.126
2498 0 95.2823 12.6466 1205 105.261 1162.74 478.306
2499 0 95.2777 12.6472 1205 145.417 1163.74 478.326
2500 0 102.44 12.0656 1236 101.875 1162.56 475.623
2501 1 52.0951 9.98175 520 92.7442 1160.88 501.052
2502 0 54.1063 10.2761 556 89.214 1161.7 500.924
2503 0 56.1815 10.6263 597 89.1022 1161.64 499.648
2504 0 58.1371 11.4041 663 87.8688 1162.25 499.344
2505 0 61.0472 11.4665 700 101.546 1163.81 497.624
2506 0 63.0666 11.8288 746 100.106 1163.65 496.434
2507 0 63.0342 11.6127 732 103.031 1163.4 495.592
2508 0 65.0867 11.9994 781 102.223 1163.08 494.446
2509 0 67.1106 12.0398 808 103.507 1163.73 494.58
2510 0 67.1144 11.9796 804 105.034 1163.22 493.638
2511 0 71.1104 11.897 846 104.457 1162.97 491.878
2512 0 71.0879 12.168 865 106.482 1162.56 490.972
2513 0 73.0798 12.0279 879 105.157 1162.61 490.053
2514 0 75.0956 12.544 942 103.672 1163.29 489.443
2515 0 77.1014 12.1658 938 104.553 1162.2 488.96
2516 0 81.1074 12.28 996 103.077 1162.31 487.189
2517 0 83.1804 11.7816 980 106.601 1161.34 485.262
2518 0 84.2276 12.1338 1022 103.664 1161.33 480.412
2519 0 86.1845 11.8467 1021 103.842 1161.36 481.656
2520 0 90.1579 12.8663 1160 99.9897 1161.7 481.188
2521 0 90.1748 11.8326 1067 103.24 1161.39 479.112
2522 0 93.1139 12.7478 1187 100.296 1160.71 478.889
2523 0 95.1381 11.7618 1119 101.017 1161.77 477.046
2524 0 96.1502 11.638 1119 101.138 1161.59 474.248
2525 0 102.118 12.0547 1231 99.6791 1161.14 474.128
2526 0 104.123 12.1299 1263 100.172 1160.85 473.097
2527 0 105.118 11.1113 1168 104.425 1161.09 470.429
2528 0 108.182 11.8042 1277 102.787 1161.92 469.223
2529 0 112.136 11.7714 1320 103.942 1161.35 468.256
2530 0 116.164 11.9658 1390 103.395 1161.4 467.098
2531 1 64.0524 10.4446 669 96.2033 1159.91 491.402
2532 0 66.2511 11.7885 781 96.5109 1161.6 483.475
2533 0 68.3834 11.9912 820 96.5244 1162.22 482.466
2534 0 71.2988 12.4687 889 96.1474 1161.66 483.209
2535 0 71.2098 11.9085 848 98.2394 1163.11 487.183
2536 0 74.2432 12.4321 923 97.7053 1162.34 485.399
2537 0 77.25 12.712 982 95.6344 1162.26 485.764
2538 0 78.2568 12.3056 963 100.574 1162.88 483.359
2539 0 82.2556 12.9718 1067 95.2765 1162.81 482.884
2540 0 84.2421 12.6421 1065 96.0394 1161.94 479.592
2541 0 86.2476 12.6844 1094 96.1079 1161.76 476.94
2542 0 90.2588 12.3534 1115 95.557 1161.65 477.782
2543 0 92.247 12.5641 1159 94.9689 1162.22 477.472
2544 0 94.2949 11.9201 1124 97.6352 1161.74 474.406
2545 0 95.204 14.2116 1353 82.1101 1161.33 476.772
2546 1 50.1054 10.4579 524 91.3855 1163.63 497.418
2547 0 51.0878 10.5113 537 90.946 1163.76 497.155
2548 0 52.0626 11.4478 596 102.718 1164.09 497.069
2549 0 54.0984 11.9597 647 103.156 1164.23 494.612
2550 0 53.0716 12.4172 659 95.5448 1163.19 495.604
2551 0 55.0997 12.4139 684 93.9415 1163.72 495.595
2552 0 55.0933 12.3608 681 128.601 1164.71 495.604
2553 0 58.2888 11.8376 690 95.2783 1164.37 495.183
2554 0 60.1472 12.087 727 94.6561 1165.61 493.267
2555 0 62.0891 13.1424 816 91.1912 1164.15 492.941
2556 0 63.1832 13.1681 832 91.7861 1164.8 491.3
2557 0 64.1367 12.6449 811 92.7953 1164.74 489.123
2558 0 67.2582 12.6081 848 92.4564 1163.57 488.66
2559 0 68.2725 12.3036 840 94.2155 1163.93 487.733
2560 0 69.1747 13.4731 932 92.7961 1163.15 485.536
2561 0 71.1577 13.0274 927 94.849 1162.98 485.298
2562 0 73.215 13.1394 962 95.2412 1162.73 483.698
2563 0 77.1754 13.0482 1007 95.2294 1163.05 481.712
2564 0 77.2178 12.2899 949 96.2603 1162.43 481.209
2565 0 80.2017 12.9548 1039 94.0683 1163.08 476.452
2566 0 83.279 12.5001 1041 95.0048 1162.17 475.372
2567 0 85.2155 12.2043 1040 95.7769 1162.84 476.419
2568 0 88.157 12.3643 1090 96.1101 1162.33 473.788
2569 0 90.2316 12.3017 1110 95.873 1163 474.175
2570 0 92.1197 11.5285 1062 96.3719 1162.62 470.62
2571 1 47.0054 8.2331 387 92.6202 1163.5 492.695
2572 0 48.2421 9.30723 449 89.1648 1163.05 491.695
2573 0 52.2274 11.3733 594 96.0774 1164.1 494.801
2574 0 52.0902 10.8658 566 93.6201 1164.61 494.899
2575 0 54.1176 11.9924 649 92.7797 1164.1 494.333
2576 0 55.102 12.0504 664 90.5286 1164.55 492.714
2577 0 56.1113 11.6376 653 93.6095 1163.93 492.827
2578 0 57.1541 12.0551 689 93.6226 1164.1 494.595
2579 0 58.0911 11.8435 688 94.3023 1164.46 492.824
2580 0 61.1828 12.2257 748 94.5348 1164.55 492.225
2581 0 62.2231 11.3302 705 97.6567 1164.48 491.773
2582 0 63.1066 11.6153 733 97.6126 1164.32 492.25
2583 0 64.1686 11.6412 747 99.7617 1164.1 489.926
2584 0 68.1864 12.5832 858 97.3963 1164.32 489.582
2585 0 70.1678 12.3846 869 98.3705 1164.23 488.322
2586 0 71.1634 12.0989 861 101.285 1164.11 486.878
2587 0 72.2109 12.1311 876 103.257 1164.32 486.305
2588 0 76.2647 12.4697 951 101.523 1164.25 484.579
2589 0 79.1667 11.8232 936 100.99 1163.79 483.293
2590 0 82.2026 12.2746 1009 99.9673 1162.76 480.7
2591 0 84.2203 12.4673 1050 100.336 1163.04 479.934
2592 0 87.1956 12.8447 1120 98.4598 1162.7 478.946
2593 0 89.1856 12.3563 1102 99.8639 1162.94 478.104
2594 0 91.2054 12.8611 1173 98.613 1163.68 476.621
2595 0 94.1978 12.357 1164 98.0301 1163.3 476.844
2596 0 97.1519 12.465 1211 96.9678 1162.93 476.633
2597 0 100.229 12.4016 1243 96.8294 1162.62 473.268
2598 0 102.164 12.2939 1256 97.9053 1162.74 472.649
2599 0 108.207 12.2358 1324 99.7772 1162.5 470.643
2600 0 112.262 12.5599 1410 98.4411 1162.72 470.739
2601 1 59.2309 11.8182 700 93.0386 1163.91 495.441
2602 0 62.2997 13.098 816 89.1103 1163.81 493.009
2603 0 63.2449 12.5069 791 90.2528 1163.66 492.382
2604 0 66.0147 12.8456 848 99.2512 1163.38 491.601
2605 0 68.038 13.3602 909 97.8658 1163.25 490.298
2606 0 71.0396 13.035 926 97.1728 1163.53 489.796
2607 0 73.05 12.6352 923 98.3716 1164.39 487.649
2608 0 76.0913 12.3799 942 100.97 1163.66 484.93
2609 0 78.0725 12.9239 1009 99.4708 1163.06 483.858
2610 0 79.0637 12.4457 984 100.85 1163.84 482.617
2611 0 83.0502 13.0644 1085 97.8461 1163.66 482.3
2612 0 85.0587 12.897 1097 98.5397 1163.78 481.794
2613 0 87.059 12.9682 1129 99.5474 1163.67 478.404
2614 0 91.0662 13.5176 1231 96.879 1163.61 477.184
2615 0 94.081 12.8081 1205 98.078 1164.05 475.807
2616 0 95.1175 13.1101 1247 96.8348 1163.99 475.545
2617 0 100.106 13.0561 1307 96.1224 1163.46 473.217
2618 0 102.039 12.9754 1324 96.3097 1164.22 470.847
2619 0 105.069 12.9343 1359 96.1538 1163.77 468.859
2620 0 108.171 11.8517 1282 98.7052 1162.83 468.148
2621 1 55.2693 10.2589 567 90.3457 1163.36 495.646
2622 0 58.3826 11.7158 684 88.462 1163.2 492.672
2623 0 60.2769 12.4758 752 86.504 1162.67 492.352
2624 0 59.1076 11.183 661 91.5946 1163.8 493.281
2625 0 62.2086 11.2846 702 91.4558 1163.96 491.271
2626 0 64.2181 11.4454 735 91.5782 1163.77 490.325
2627 0 66.2222 12.0654 799 91.0989 1163.24 489.705
2628 0 68.2072 11.9196 813 92.3506 1163.56 488.916
2629 0 70.2532 11.7005 822 93.1569 1163.53 488.448
2630 0 73.3154 11.8938 872 92.3566 1163.33 487.778
2631 0 75.2847 12.4992 941 90.6716 1163.24 486.728
2632 0 77.1956 12.5525 969 90.9742 1163.53 485.108
2633 0 80.2205 12.9393 1038 91.4152 1163.05 483.973
2634 0 84.2854 12.5289 1056 90.3778 1163.48 481.734
2635 0 85.2202 12.1685 1037 91.9817 1162.92 481.107
2636 0 89.1962 12.7135 1134 90.3607 1163.57 479.503
2637 0 92.2235 12.6432 1166 91.1166 1163.08 479.855
2638 1 49.0263 11.4632 562 88.4555 1164.91 501.185
2639 0 51.0207 11.9559 610 85.9377 1164.14 499.323
2640 0 52.0232 12.5137 651 84.6375 1164.46 498.916
2641 0 51.1015 11.5456 590 87.8508 1162.9 500.336
2642 0 53.1432 12.5134 665 86.9233 1162.41 497.908
2643 0 55.1261 11.9181 657 91.2648 1161.44 497.006
2644 0 56.13 11.5981 651 86.5054 1162.57 496.816
2645 0 56.0792 11.3768 638 87.569 1162.12 496.111
2646 0 59.1384 12.1241 717 84.3654 1161.89 496.575
2647 0 63.1002 12.2028 770 83.8429 1161.83 493.994
2648 0 64.0987 12.6836 813 88.5228 1162.08 494.496
2649 0 66.0566 12.4136 820 89.2793 1161.94 492.385
2650 0 68.1463 12.2677 836 90.0096 1160.84 490.713
2651 0 70.1739 12.5545 881 90.0238 1161.24 490.991
2652 0 71.1485 12.8464 914 91.3731 1160.94 489.317
2653 0 74.0979 12.6994 941 90.8151 1161.11 488.83
2654 0 77.2285 13.0651 1009 90.6432 1161.81 486.898
2655 0 81.1537 13.4436 1091 90.1439 1161.3 485.683
2656 0 82.1056 12.9102 1060 91.9858 1160.89 484.415
2657 0 84.16 12.9515 1090 91.489 1160.76 482.919
2658 0 89.148 13.1803 1175 90.8111 1161.68 482.191
2659 1 45.0387 12.1007 545 91.9835 1162.01 501.71
2660 0 46.0719 12.589 580 91.5 1162.12 500.545
2661 0 47.067 12.854 605 85.476 1163.68 500.917
2662 0 46.0871 11.7603 542 87.8616 1161.58 501.816
2663 0 47.0774 12.1715 573 89.9983 1161.47 499.682
2664 0 48.1439 11.7564 566 89.659 1161.35 499.378
2665 0 50.0175 11.8758 594 92.6633 1160.63 498.155
2666 0 51.1587 11.2982 578 90.7993 1161.75 498.247
2667 0 54.1033 11.9771 648 89.216 1161.68 494.346
2668 0 55.0868 11.7451 647 90.8949 1161.47 493.597
2669 0 57.1202 12.1148 692 88.7442 1161.75 495.006
2670 0 58.1195 11.7688 684 89.655 1161.37 495.022
2671 0 60.1117 12.4435 748 91.004 1161.63 492.535
2672 0 61.0739 11.6744 713 91.4222 1161.67 492.631
2673 0 65.0519 11.56 752 90.2487 1161.79 491.666
2674 0 67.048 11.708 785 90.1019 1162.28 490.832
2675 0 67.0836 11.6869 784 91.5179 1162.17 487.441
2676 0 70.1383 11.6484 817 89.4663 1161.92 488.715
2677 0 73.0861 12.0816 883 89.1223 1161.12 486.956
2678 0 73.1327 11.2535 823 89.0279 1161.04 485.08
2679 0 78.0771 11.7832 920 87.7522 1161.6 482.917
2680 0 80.1062 11.9466 957 88.7701 1161 481.708
2681 0 82.1107 11.3262 930 90.0505 1161.1 481.794
2682 0 86.1103 12.4956 1076 88.0353 1160.62 480.424
2683 0 86.0692 11.5372 993 87.9325 1160.62 482.203
2684 0 89.085 11.4161 1017 86.8751 1160.33 481.237
2685 1 46.1456 10.1635 469 87.5117 1160.97 500.548
2686 0 48.0764 12.0641 580 82.3362 1160.99 498.759
2687 0 51.0655 12.1413 620 80.95 1162.85 498.9
2688 0 51.1532 12.0814 618 84.0825 1162.32 498.853
2689 0 51.0855 11.6276 594 83.3333 1160.7 498.951
2690 0 51.0874 11.3139 578 84.7924 1161.23 496.979
2691 0 54.0664 11.4489 619 83.7819 1160.98 496.417
2692 0 54.1453 11.5245 624 86.6522 1161.42 495.492
2693 0 58.1471 10.9894 639 86.698 1160.88 493.89
2694 0 61.158 11.8218 723 84.4634 1161.7 494.021
2695 0 61.1379 12.022 735 85.1265 1161.86 492.699
2696 0 65.087 12.4602 811 83.3946 1161.02 491.159
2697 0 67.0363 11.8891 797 86.6587 1160.95 491.379
2698 0 67.0363 11.8891 797 156.541 1160.94 491.309
2699 0 71.0521 12.7512 906 86.8013 1160.45 488.292
2700 0 72.0858 13.3036 959 87.2659 1161.01 487.023
2701 0 76.1028 12.9562 986 87.8276 1161.21 486.85
2702 0 78.0896 12.9723 1013 88.6604 1161.13 486.102
2703 0 79.1152 13.158 1041 90.7099 1160.68 484.511
2704 0 82.1188 13.2735 1090 91.744 1161.43 483.469
2705 0 84.1002 13.5553 1140 92.4351 1161.57 481.632
2706 0 85.2186 13.0488 1112 95.8885 1160.81 480.295
2707 0 88.2518 13.0536 1152 95.3898 1161.32 480.029
2708 0 92.1029 13.1592 1212 88.2005 1162.26 480.244
2709 0 94.1161 12.8352 1208 91.3088 1162.09 477.719
2710 0 97.2973 13.1453 1279 91.7615 1161.54 476.049
2711 0 99.1593 13.0396 1293 93.0742 1161.18 475.514
2712 0 103.125 13.7697 1420 90.5141 1161.4 474.125
2713 1 56.0389 11.3849 638 94.1395 1161.36 495.462
2714 0 57.0339 12.3611 705 91.9277 1162.09 496.033
2715 0 58.0648 12.3827 719 91.0626 1161.43 495.832
2716 0 61.0558 12.7097 776 91.2835 1161.6 492.517
2717 0 63.1003 12.6624 799 90.791 1163.48 490.936
2718 0 66.0351 13.4777 890 88.7112 1162.52 489.192
2719 0 66.0439 12.3251 814 91.8612 1162.35 489.531
2720 0 67.016 12.7731 856 91.4907 1162.6 489.862
2721 0 70.0381 12.4646 873 92.0802 1162.28 487.852
2722 0 71.0293 12.5864 894 92.1465 1162.06 486.628
2723 0 74.0712 12.893 955 90.3801 1161.23 486.175
2724 0 77.0274 12.9045 994 89.1187 1160.05 484.457
2725 0 79.1069 12.1481 961 90.7503 1159.94 483.42
2726 0 81.0423 12.0554 977 91.5855 1160.01 481.078
2727 0 84.0294 11.853 996 91.9096 1160.8 481.237
2728 0 85.0236 12.2084 1038 90.263 1161.21 477.332
2729 0 88.0786 11.9439 1052 89.4924 1161.13 478.458
2730 0 91.0939 12.284 1119 88.9321 1162.01 476.989
2731 0 91.0826 12.3185 1122 90.0544 1162.53 475.66
2732 0 96.0984 12.0397 1157 89.8176 1161.58 473.289
2733 0 99.1012 12.24 1213 90.7189 1160.92 472.555
2734 1 53.0627 11.6843 620 92.1113 1161.6 493.163
2735 0 55.1475 12.3124 679 90.2224 1161.43 492.019
2736 0 56.0804 12.696 712 82.3904 1162.08 492.239
2737 0 58.0888 12.9973 755 87.947 1163.13 489.963
2738 0 58.0714 12.2436 711 90.7496 1163.44 490.214
2739 0 61.1041 12.7651 780 90.0833 1164.18 487.265
2740 0 63.1436 12.5587 793 89.5977 1164.25 488.067
2741 0 65.1032 12.964 844 89.9621 1163.96 486.078
2742 0 66.0924 13.2088 873 88.5968 1163.55 486.384
2743 0 70.064 12.6884 889 89.0124 1163.89 484.82
2744 0 71.0634 12.6648 900 89.8922 1163.53 484.847
2745 0 73.0126 13.3265 973 88.4861 1163.87 482.873
2746 0 75.0703 12.8813 967 89.0765 1164.81 483.033
2747 0 76.1411 13.278 1011 89.4125 1164.59 481.525
2748 0 79.0654 13.0272 1030 89.8806 1163.89 479.809
2749 0 82.0767 13.4996 1108 87.8231 1163.52 477.676
2750 0 84.1477 12.8346 1080 90.2611 1163.83 476.323
2751 0 86.1058 13.2047 1137 89.825 1163.79 475.726
2752 0 89.0259 13.0861 1165 89.1451 1163.22 475.937
2753 0 92.0913 13.5952 1252 88.3946 1163.39 474.413
2754 0 96.0563 14.2 1364 84.1334 1162.57 473.462
2755 0 98.0909 13.1001 1285 87.8895 1163.19 471.514
2756 0 100.098 13.5267 1354 87.5295 1163.35 469.824
2757 0 100.196 13.1442 1317 83.5042 1162.82 469.61
2758 0 105.302 13.1241 1382 84.1324 1162.35 468.708
2759 0 109.233 14.4095 1574 84.4905 1162.62 465.896
2760 0 108.487 13.0707 1418 83.5642 1162.93 466.937
2761 0 112.393 13.1059 1473 84.7142 1162.97 464.377
2762 1 63.1705 13.4398 849 84.02 1163.54 490.681
2763 0 61.0537 12.923 789 87.0152 1163.52 489.987
2764 0 66.0922 13.5871 898 84.4644 1162.96 487.933
2765 0 67.0648 13.4944 905 84.8541 1163.38 488.335
2766 0 69.0818 12.1595 840 77.0214 1162.13 489.115
2767 0 70.0377 12.9644 908 78.2324 1162.25 487.155
2768 0 71.1876 12.2212 870 80.2138 1161.29 487.249
2769 0 75.1406 12.5764 945 79.3196 1161.86 485.667
2770 0 77.1013 12.6198 973 79.1254 1162.06 484.677
2771 0 79.0965 11.8969 941 79.7524 1161.67 484.563
2772 0 82.0645 12.3683 1015 81.935 1161.22 484.668
2773 0 84.057 12.6819 1066 83.622 1161.13 481.777
2774 0 87.0689 12.783 1113 86.1042 1161.01 480.188
2775 0 90.1728 12.7976 1154 86.2331 1161.79 478.692
2776 0 93.0639 13.3779 1245 84.8177 1160.99 477.694
2777 0 96.1361 11.827 1137 88.3377 1161.23 476.705
2778 1 50.0452 11.6295 582 88.0052 1160.89 496.328
2779 0 51.1167 11.5618 591 87.8054 1161.63 495.628
2780 0 54.006 12.3134 665 83.4436 1163.51 493.749
2781 0 56.0664 12.503 701 84.0228 1163.22 493.937
2782 0 57.0855 12.6827 724 83.8467 1163.34 494.594
2783 0 59.0664 12.3928 732 86.2992 1163.22 493.754
2784 0 60.2097 12.3402 743 86.8668 1162.41 493.685
2785 0 63.1896 13.1193 829 84.1568 1162.1 491.782
2786 0 65.0678 13.1401 855 83.5462 1161.82 490.889
2787 0 67.0751 13.1942 885 82.0994 1161.77 490.612
2788 0 68.0983 11.6743 795 78.1711 1162.55 490.497
2789 0 68.0764 11.6781 795 79.2604 1162.59 489.438
2790 0 70.2089 12.1922 856 79.6892 1162.65 488.014
2791 0 74.1275 12.2896 911 79.1932 1161.78 486.122
2792 0 77.0913 12.0896 932 79.9828 1162.43 485.179
2793 0 77.1134 11.4247 881 80.445 1161.88 484.54
2794 0 81.2143 12.6702 1029 77.9806 1161.97 483.752
2795 0 82.16 11.8428 973 79.3392 1161.72 482.412
2796 0 85.0678 12.1785 1036 78.6921 1161.75 481.444
2797 0 88.1287 12.1073 1067 78.7216 1161.54 481.732
2798 1 45.0664 11.4054 514 79.5058 1161.41 502.597
2799 0 47.0639 11.7925 555 82.8937 1161.63 501.079
2800 0 49.0342 11.4818 563 84.0959 1161.9 499.719
2801 0 50.1151 12.9103 647 82.1669 1161.59 499.257
2802 0 52.0519 12.4491 648 82.1759 1161.74 498.952
2803 0 51.1171 12.4029 634 82.2823 1161.18 497.913
2804 0 52.0577 11.1223 579 74.7565 1161.91 498.237
2805 0 54.0811 11.982 648 72.8873 1161.85 496.644
2806 0 55.1251 11.7732 649 72.6194 1161.31 497.997
2807 0 55.1352 11.6985 645 73.8744 1162.2 497.741
2808 0 57.193 11.4525 655 72.826 1161.99 497.757
2809 0 59.116 11.7904 697 73.6686 1161.78 495.252
2810 0 61.1201 11.9928 733 72.6085 1161.45 495.16
2811 0 62.0642 12.1326 753 72.6122 1161.74 494.165
2812 0 65.0502 11.6525 758 74.0712 1161.56 490.64
2813 0 67.1229 12.5591 843 72.7224 1161.44 491.803
2814 0 69.0829 12.4778 862 74.3388 1161.3 491.284
2815 0 73.1155 11.899 870 75.2448 1160.93 491.131
2816 0 73.1139 11.0786 810 77.216 1161.78 489.586
2817 1 41.0996 11.1923 460 75.0935 1161.79 505.737
2818 0 41.114 10.9938 452 75.7699 1162.35 506.597
2819 0 43.1096 11.204 483 77.3458 1161.19 504.648
2820 0 43.1207 11.549 498 76.5382 1161.5 504.697
2821 0 44.0759 11.5483 509 77.8802 1161.65 503.208
2822 0 46.0745 12.2193 563 82.1865 1163.92 502.016
2823 0 45.1039 10.6421 480 78.2896 1161.94 503.133
2824 0 47.1099 11.2503 530 76.483 1161.73 502.328
2825 0 48.1192 11.5754 557 79.0467 1161.53 501.115
2826 0 48.0873 11.4999 553 79.5714 1162.23 501.13
2827 0 50.0583 11.8262 592 80.0186 1162.08 501.019
2828 0 50.0983 11.7569 589 81.6401 1161.55 500.368
2829 0 52.1078 11.8984 620 82.1097 1161.69 498.653
2830 0 54.0478 11.7859 637 81.0691 1161.73 498.9
2831 0 56.086 11.7676 660 81.1939 1161.2 498.911
2832 0 58.1605 11.623 676 82.571 1161.43 498.006
2833 0 60.0603 12.2877 738 82.0881 1160.64 496.137
2834 0 61.1399 12.4632 762 84.6706 1160.73 495.119
2835 0 62.0954 12.3036 764 87.1191 1160.77 495.585
2836 0 66.1267 12.5517 830 88.3374 1160.65 494.18
2837 0 67.0595 12.72 853 90.5522 1160.94 493.407
2838 0 71.1158 12.5148 890 90.0438 1161.23 493.937
2839 0 73.1021 12.5851 920 91.062 1160.55 490.946
2840 0 73.097 12.3945 906 94.2318 1160.4 489.22
2841 0 77.0867 12.4405 959 95.0302 1160.93 488.086
2842 0 78.1082 12.4955 976 94.9477 1160.91 489.462
2843 0 80.0692 12.5766 1007 94.9752 1160.68 487.606
2844 0 81.0889 13.3187 1080 93.3898 1160.31 485.381
2845 0 86.2618 13.0649 1127 91.9184 1160.85 485.52
2846 0 87.2926 13.1512 1148 92.2988 1161.84 482.768
2847 0 94.2482 13.6448 1286 95.1617 1161.44 480.096
2848 0 97.2772 13.1891 1283 97.3344 1161.38 479.177
2849 0 98.3856 14.3619 1413 95.5188 1161.67 476.984
2850 1 52.1721 11.9029 621 91.3092 1162.27 500.981
2851 0 53.0635 11.4768 609 93.7307 1161.98 500.949
2852 0 55.0747 12.1471 669 94.5889 1161.73 500.034
2853 0 56.0561 12.987 728 89.8626 1161.78 500.113
2854 0 58.0522 13.1261 762 89.6535 1161.15 497.73
2855 0 61.1007 13.535 827 90.7412 1160.97 496.417
2856 0 62.2126 13.1002 815 90.2859 1160.77 495.256
2857 0 64.201 13.5668 871 86.9678 1160.51 495.238
2858 0 64.0884 13.0133 834 89.3058 1161.06 496.139
2859 0 68.1391 13.0909 892 87.4574 1162.07 495.015
2860 0 69.1128 12.4145 858 88.6014 1162.63 494.956
2861 0 71.1637 12.7312 906 87.8355 1163 492.96
2862 0 73.3034 12.2505 898 86.4154 1163.11 491.595
2863 0 76.1761 12.8124 976 85.9539 1162.88 491.363
2864 0 78.1289 12.505 977 86.2252 1162.31 487.25
2865 0 78.1289 12.4538 973 137.997 1161.29 487.309
2866 0 84.1313 12.5637 1057 84.8306 1161.43 486.465
2867 0 86.1744 12.7996 1103 85.1487 1161.68 485.441
2868 0 88.0981 13.2012 1163 84.7162 1162.1 484.252
2869 0 89.165 12.4264 1108 87.0857 1161.77 483.379
2870 0 92.1631 12.7708 1177 85.2999 1161.91 480.266
2871 0 97.0991 12.7911 1242 83.7262 1162.04 480.508
2872 0 98.2369 12.5818 1236 85.7953 1161.61 477.871
2873 1 52.0611 12.7158 662 83.0272 1161.95 501.214
2874 0 54.0787 12.0565 652 87.5828 1162.86 499.066
2875 0 57.0405 12.4648 711 91.519 1163.17 497.989
2876 0 58.0301 11.9076 691 88.3994 1161.3 498.113
2877 0 57.1325 12.3923 708 89.0989 1161.22 499.501
2878 0 59.1677 12.1857 721 90.4369 1161.98 498.519
2879 0 63.1472 12.558 793 89.203 1161.2 496.681
2880 0 65.1255 13.1746 858 88.2401 1161.99 495.572
2881 0 67.2006 12.9463 870 90.0287 1161.72 493.985
2882 0 70.1477 12.773 896 91.3136 1161.85 493.258
2883 0 71.1157 13.1335 934 93.5428 1162.64 491.801
2884 0 74.256 13.1303 975 94.7949 1162.23 491.833
2885 0 75.1539 13.0399 980 96.4398 1161.95 489.59
2886 0 78.1998 12.9028 1009 100.467 1162.04 488.355
2887 0 82.1408 13.5256 1111 96.5365 1161.77 486.982
2888 0 82.1052 12.3622 1015 101.884 1162.53 486.388
2889 0 87.2548 12.7901 1116 101.645 1161.91 484.024
2890 1 46.0223 13.1023 603 96.6368 1162.66 505.413
2891 0 47.0665 13.4066 631 97.859 1161.55 503.17
2892 0 49.0639 13.1461 645 86.3116 1160.78 501.881
2893 0 50.0598 13.1643 659 91.0986 1160.73 501.757
2894 0 49.0888 13.2209 649 97.3837 1160.42 500.817
2895 0 49.0575 12.7809 627 104.158 1160.64 500.742
2896 0 50.0701 12.7421 638 96.8668 1160.54 500.02
2897 0 52.0806 13.2871 692 99.4061 1161.3 499.195
2898 0 51.0722 14.0389 717 100.746 1161.38 499.696
2899 0 52.0655 13.0413 679 103.545 1161.11 500.944
2900 0 54.0275 13.16 711 102.549 1160.98 500.215
2901 0 54.1236 13.3583 723 101.16 1160.91 498.732
2902 0 57.0941 13.6792 781 98.1869 1161.49 497.885
2903 0 57.0982 13.4505 768 97.8203 1161.36 496.958
2904 0 59.1065 13.7379 812 94.5727 1161.33 496.138
2905 0 61.0741 13.8193 844 93.6481 1161.42 494.922
2906 0 64.12 12.8041 821 95.2497 1161.4 495.262
2907 0 66.2037 12.9298 856 104.533 1160.63 492.638
2908 0 67.1835 13.3961 900 102.998 1160.14 493.354
2909 0 68.1276 12.7555 869 100.838 1160.63 492.244
2910 0 68.0774 13.044 888 94.8176 1161.5 490.622
2911 0 72.1261 12.6168 910 104.585 1161.18 489.93
2912 1 36.0826 11.5845 418 103.517 1161.66 507.888
2913 0 39.1072 12.0694 472 102.339 1161.89 507.538
2914 0 38.0918 12.6536 482 98.1743 1162.46 507.743
2915 0 39.1729 12.6618 496 98.7399 1162.78 506.44
2916 0 40.1588 12.5751 505 101.23 1162.33 505.471
2917 0 41.1321 12.1073 498 104.076 1161.59 505.319
2918 0 43.1028 12.5282 540 102.404 1161.91 505.006
2919 0 41.2508 12.5089 516 107.035 1161.39 504.345
2920 0 44.1288 12.7128 561 106.759 1161.79 503.055
2921 0 44.1191 12.5342 553 108.727 1161.94 502.803
2923 0 46.1428 13.1765 608 108.472 1161.73 501.859
2924 0 46.1875 12.839 593 110.68 1161.59 502.283
2925 0 47.122 13.3059 627 111.136 1161.26 502.158
2926 0 48.0994 13.0979 630 115.643 1161.66 502.184
2927 0 49.1406 13.0849 643 118.502 1161.77 500.995
2928 0 51.1882 12.9131 661 118.561 1161.2 500.607
2929 0 51.1493 13.4899 690 136.442 1160.98 499.12
2930 0 55.1704 13.0867 722 138.503 1161.35 498.536
2931 0 55.2076 13.4764 744 139.921 1161.07 498.039
2932 0 57.1501 13.5608 775 142.552 1161.29 497.573
2933 0 57.145 13.177 753 147.19 1161.14 496.849
2934 0 61.162 14.1591 866 142.098 1161.63 496.245
2935 0 61.1674 13.8146 845 146.527 1161.32 495.786
2936 0 62.1823 13.4765 838 150.038 1161.47 494.749
2937 0 63.1398 13.6681 863 150.589 1161.27 493.418
2938 0 67.159 14.1604 951 146.799 1161.72 492.653
2939 0 67.1529 13.5512 910 151.315 1161.55 490.648
2940 0 70.2325 12.9997 913 151.469 1161.62 489.932
2941 0 72.263 13.3955 968 144.034 1161.67 490.221
2942 0 73.2087 12.9356 947 151.581 1161.69 488.007
2943 0 76.2878 12.9903 991 150.722 1161.77 486.705
2944 1 40.1029 10.9967 441 145.392 1162.95 504.562
2945 0 40.0531 11.0853 444 143.73 1164.07 503.225
2946 0 42.112 12.0868 509 136.845 1163.32 503.813
2947 0 43.1637 11.7228 506 139.814 1163.05 502.925
2948 0 44.1259 12.9176 570 123.125 1163.18 502.514
2949 0 45.1662 12.8636 581 122.071 1163.15 502.843
2950 0 47.1159 13.2015 622 119.31 1162.53 501.957
2951 0 47.1902 13.096 618 119.278 1162.4 500.44
2952 0 50.1238 13.3669 670 115.934 1163.23 499.931
2953 0 51.1276 13.1436 672 116.406 1162.81 499.676
2954 0 52.13 12.8141 668 129.74 1162.65 498.192
2955 0 54.1649 12.4804 676 127.664 1162.2 497.286
2956 0 56.1367 13.1108 736 122.685 1162.52 496.611
2957 0 56.1152 12.706 713 125.863 1162.19 494.642
2958 0 58.177 12.9604 754 123.178 1162.75 495.004
2959 0 61.1984 12.9905 795 120.199 1162.95 494.019
2960 0 62.1929 13.7797 857 117.833 1162.37 492.657
2961 0 64.2744 12.6956 816 122.108 1161.89 491.661
2962 0 65.1721 13.6715 891 108.154 1162.31 491.45
2963 0 66.1707 13.9034 920 107.954 1162.08 489.803
2964 0 69.1761 13.0536 903 118.73 1162.21 488.621
2965 0 71.2 13.2163 941 117.032 1162.34 489.426
2966 0 72.169 13.7455 992 115.831 1161.97 487.834
2967 0 76.2481 14.1118 1076 112.292 1161.4 486.783
2968 0 75.105 13.5144 1015 114.037 1162.65 486.106
2969 0 78.1858 13.8772 1085 104.898 1162.25 485.683
2970 0 80.1723 13.6207 1092 112.897 1162.6 482.01
2971 0 82.214 12.7715 1050 112.289 1162.29 482.579
2972 0 84.2073 12.7424 1073 107.486 1162.71 481.897
2973 1 45.1162 10.3511 467 104.092 1163.78 503.103
2974 0 46.1028 11.8214 545 100.593 1163.4 502.272
2975 0 46.1241 11.2089 517 102.06 1163.13 502.586
2976 0 46.0311 11.2098 516 100.357 1164.2 501.752
2977 0 50.0759 12.0417 603 96.7396 1163.53 500.886
2978 0 50.1726 11.4405 574 98.3014 1163.79 499.692
2979 0 52.1436 12.3889 646 94.418 1163.3 498.717
2980 0 56.1354 12.9864 729 92.561 1163.23 497.962
2981 0 57.0312 12.6071 719 89.5104 1163.08 497.732
2982 0 57.1406 12.4955 714 90.5266 1162.97 496.924
2983 0 58.067 12.2961 714 89.7857 1162.62 496.352
2984 0 61.0964 12.4557 761 89.8975 1162.33 494.907
2985 0 63.2756 12.4218 786 90.2875 1162.43 494.01
2986 0 66.3753 12.5951 836 91.7799 1162.48 492.679
2987 0 67.2399 12.5223 842 90.6936 1161.6 491.511
2988 0 69.1733 12.9963 899 91.03 1161.54 490.122
2989 0 73.1465 12.5228 916 91.8428 1161.94 489.573
2990 0 76.1148 13.5191 1029 89.9951 1161.42 488.105
2991 0 78.1328 12.9907 1015 91.3005 1161.46 485.183
2992 0 81.1705 13.4778 1094 92.1152 1161.93 485.096
2993 0 83.1145 13.692 1138 91.9903 1161.19 483.869
2994 0 85.1426 13.6242 1160 97.5621 1160.37 482.418
2995 0 86.1704 13.4269 1157 97.8418 1161.29 482.392
2996 0 89.1934 13.5548 1209 96.4524 1161.24 480.899
2997 0 90.1646 13.7304 1238 95.9903 1161.42 477.921
2998 0 94.1773 13.602 1281 94.6081 1161.47 478.468
2999 0 96.2374 13.2901 1279 95.4128 1161.11 475.67
3000 0 99.1767 13.6524 1354 93.4431 1161.31 474.423
3001 0 101.138 13.2097 1336 94.6969 1161.36 473.028
3002 0 105.261 13.5853 1430 92.8685 1160.68 471.99
3003 0 109.338 13.5817 1485 91.6653 1161.16 469.539
3004 0 110.329 13.3691 1475 94.3898 1161.59 468.238
3005 0 117.285 13.8125 1620 91.6407 1161.29 466.135
3006 0 119.289 14.1756 1691 91.1254 1161.92 466.221
3007 0 121.371 13.6853 1661 93.7092 1162.05 464.323
3008 0 127.291 13.7166 1746 93.5796 1161.94 459.703
3009 0 130.343 14.2547 1858 93.8391 1161.28 458.286
3010 0 135.283 14.4734 1958 93.0552 1162.04 457.444
3011 0 139.32 13.8673 1932 95.7785 1161.96 455.528
3012 0 142.229 14.104 2006 96.0673 1162.79 452.012
3013 0 145.184 13.6172 1977 97.9747 1161.99 451.753
3014 0 149.174 13.3602 1993 99.7652 1161.86 449.824
3015 0 156.2 13.886 2169 97.9802 1161.61 447.744
3016 0 160.207 14.4626 2317 98.0764 1161.64 444.15
3017 0 163.312 13.9978 2286 102.253 1162.3 439.267
3018 0 169.287 14.0176 2373 102.297 1162.61 438.123
3019 0 174.282 14.9872 2612 100.317 1161.77 434.882
3020 0 178.211 14.5614 2595 102.793 1162.35 432.054
3021 0 185.235 14.4951 2685 102.293 1162.38 431.505
3022 0 190.278 14.6365 2785 101.691 1162.41 428.09
3023 0 197.329 14.6405 2889 102.595 1162.15 423.655
3024 0 203.286 14.7133 2991 100.643 1161.84 420.636
3025 0 207.35 14.6564 3039 100.227 1162.38 414.992
3026 0 216.475 15.6646 3391 97.2793 1162.38 412.098
3027 0 222.316 14.6908 3266 101.396 1162.03 410.709
3028 0 229.425 15.0594 3455 97.3328 1161.51 410.778
3029 0 238.503 15.0816 3597 97.27 1162.04 407.937
3030 1 53.0199 12.4482 660 96.4121 1164.92 498.705
3031 0 57.0371 12.7987 730 97.0808 1165.01 497.464
3032 0 55.054 12.8964 710 92.8084 1161.64 498.107
3033 0 56.0966 12.2645 688 98.9855 1161.3 495.974
3034 0 58.0951 12.3246 716 97.6732 1162.03 494.676
3035 0 62.0717 12.9205 802 102.506 1160.67 493.786
3036 0 61.1233 12.2048 746 99.5322 1160.6 494.898
3037 0 63.1197 12.6427 798 98.8383 1161.17 492.038
3038 0 66.1031 12.7982 846 100.008 1160.78 491.726
3039 0 66.1663 13.2091 874 100.87 1161.52 491.062
3040 0 69.143 13.7975 954 96.174 1161.23 489.075
3041 0 71.2067 13.6223 970 97.5515 1161.32 488.179
3042 0 73.1015 13.6523 998 98.2475 1161.5 487.169
3043 0 75.1081 13.4207 1008 98.8562 1161.76 486.058
3044 0 77.2171 12.6267 975 100.796 1161.25 487.165
3045 0 79.125 13.5103 1069 97.1235 1161.2 484.926
3046 0 82.1615 12.086 993 97.9144 1161.2 484.455
3047 0 83.1732 11.9149 991 99.1332 1161.89 483.588
3048 0 87.1378 11.9581 1042 98.025 1161.59 482.992
3049 0 90.1317 12.4928 1126 97.5195 1161.95 480.663
3050 1 50.051 11.4883 575 93.4835 1163.19 500.003
3051 0 50.0745 11.7026 586 91.2184 1162.54 499.288
3052 0 52.2719 11.8419 619 94.63 1163.21 494.583
3053 0 53.0594 11.7793 625 94.6144 1161.56 495.514
3054 0 56.076 13.0002 729 91.4198 1162.9 495.989
3055 0 54.0689 11.8368 640 99.1859 1163.43 496.63
3056 0 56.1597 11.8412 665 99.4977 1163.5 494.992
3057 0 56.15 11.8789 667 146.76 1162.48 495.002
3058 0 61.2266 12.3476 756 98.7302 1163.56 494.159
3059 0 63.1849 12.5663 794 99.8035 1163.34 493.188
3060 0 63.1836 13.1363 830 100.48 1163.61 493.404
3061 0 66.2072 13.065 865 100.563 1163.41 493.6
3062 0 68.1633 13.3503 910 100.621 1162.95 491.258
3063 0 71.1356 13.2002 939 99.869 1163.6 490.768
3064 0 74.2151 13.1644 977 101.075 1163.6 489.542
3065 0 75.1559 12.8267 964 101.589 1163.29 488.981
3066 0 78.3853 14.0715 1103 98.8187 1162.89 486.014
3067 0 79.2205 13.7212 1087 102.629 1163 484.671
3068 0 83.241 13.1546 1095 104.919 1162.71 483.99
3069 0 84.2725 14.0022 1180 103.563 1163.01 482.378
3070 0 89.2953 14.2561 1273 102.045 1163.49 481.605
3071 0 90.1221 14.1697 1277 104.365 1163.36 478.849
3072 0 92.1829 14.1349 1303 105.474 1163.45 477.672
3073 0 95.2936 13.9149 1326 105.67 1163.38 474.622
3074 0 99.3441 13.9314 1384 104.774 1162.96 472.762
3075 1 53.2176 12.3643 658 104.774 1163.27 496.09
3076 0 54.2544 12.3308 669 104.888 1163.36 497.248
3077 0 56.2128 12.8085 720 104.951 1163.83 494.485
3078 0 59.2706 12.9406 767 105.017 1163.31 494.638
3079 0 59.2706 12.8732 763 169.823 1162.33 494.671
3080 0 60.0912 13.5128 812 104.991 1162.33 494.297
3081 0 64.0317 13.4621 862 114.426 1163.29 491.703
3082 0 65.0305 13.4245 873 114.548 1163.62 491.292
3083 0 66.047 13.6115 899 111.423 1163.35 490.94
3084 0 69.0294 13.9506 963 110.971 1163.39 488.199
3085 0 71.0813 13.4072 953 110.346 1163.78 487.541
3086 0 73.0689 13.2478 968 107.778 1163.39 487.633
3087 0 75.0131 13.7709 1033 105.281 1163.43 486.351
3088 0 77.0285 13.1899 1016 106.614 1163.47 485.24
3089 0 80.0297 13.3825 1071 105.77 1163.64 483.798
3090 0 84.0268 13.4719 1132 104.08 1163.55 483.413
3091 0 86.0292 14.0185 1206 101.243 1163.67 483.07
3092 0 89.0773 13.6174 1213 101.636 1163.08 480.547
3093 0 90.113 13.25 1194 102.293 1162.95 479.817
3094 0 94.1132 14.3126 1347 98.5932 1162.58 478.782
3095 0 96.0865 13.5399 1301 102.562 1163.23 477.416
3096 1 50.0319 11.4927 575 101.322 1164.14 498.677
3097 0 50.0678 11.045 553 98.6184 1164.1 499.418
3098 0 51.0385 11.4228 583 96.8079 1163.66 499.117
3099 0 54.0216 12.5135 676 91.5991 1162.26 499.254
3100 0 57.2487 12.7164 728 90.1552 1163.25 495.32
3101 0 59.1978 13.4802 798 87.3985 1162.92 493.138
3102 0 59.2169 13.2395 784 89.3061 1163.18 493.672
3103 0 61.029 13.1577 803 90.6887 1162.56 493.697
3104 0 61.0758 12.4436 760 92.9776 1163.33 492.639
3105 0 64.0483 12.6467 810 91.2247 1163.36 491.247
3106 0 66.0283 12.8884 851 92.0846 1162.62 490.118
3107 0 71.0532 13.4547 956 89.75 1162.37 488.749
3108 0 71.0548 13.1448 934 90.3094 1162.35 488.262
3109 0 74.0559 13.0307 965 88.6746 1162.13 487.387
3110 0 75.1839 12.8219 964 89.5083 1161.87 484.727
3111 0 78.0957 12.7792 998 89.01 1161.79 484.808
3112 0 80.1067 13.5195 1083 86.6925 1161.59 484.374
3113 0 84.0765 13.3093 1119 86.2225 1162.77 481.227
3114 0 85.1212 13.2047 1124 86.6254 1162.36 481.823
3115 0 86.2778 13.5493 1169 86.9213 1162.08 480.615
3116 0 90.1552 13.1995 1190 87.4353 1162 479.363
3117 0 93.1735 13.3407 1243 86.0595 1162.63 479.037
3118 0 96.129 13.846 1331 85.257 1161.96 475.183
3119 0 100.088 13.2783 1329 85.4485 1161.74 476.042
3120 0 103.147 13.0396 1345 86.6223 1161.66 473.772
3121 0 108.086 14.1092 1525 83.562 1162.03 470.464
3122 1 58.0391 12.3882 719 92.968 1162.86 493.533
3123 0 59.0951 13.0129 769 88.4681 1162.36 493.661
3124 0 61.0744 13.4917 824 86.4332 1162.24 491.977
3125 0 63.0774 13.8401 873 85.1272 1162.7 489.457
3126 0 66.0769 14.1653 936 84.8408 1163.16 488.266
3127 0 68.0588 13.5912 925 81.8205 1162.88 488.518
3128 0 71.0281 13.7974 980 83.0735 1163.21 486.932
3129 0 74.0402 14.4516 1070 81.4467 1163.26 485.897
3130 0 77.0668 15.0778 1162 81.2719 1163.08 484.343
3131 0 76.2667 14.1346 1078 81.8367 1162.61 484.445
3132 0 77.1392 13.6766 1055 83.4341 1163.19 484.461
3133 0 79.1642 13.2888 1052 84.7548 1162.32 482.434
3134 0 81.1071 13.9938 1135 85.5357 1162.53 480.622
3135 0 86.176 14.0062 1207 85.691 1162.39 478.952
3136 0 87.1547 13.7227 1196 84.7132 1162.7 477.437
3137 0 92.0729 13.6522 1257 82.6858 1162.65 476.889
3138 0 94.1321 13.8423 1303 83.8104 1161.9 476.15
3139 0 97.2798 14.1653 1378 83.9775 1161.96 474.351
3140 0 101.137 14.2084 1437 81.7349 1161.96 471.597
3141 0 102.112 13.5636 1385 79.9105 1161.41 467.631
3142 0 104.143 13.5198 1408 81.5206 1161.95 465.375
3143 0 109.161 13.6496 1490 81.0497 1161.29 463.821
3144 0 113.086 14.2723 1614 80.9195 1161.39 462.794
3145 0 118.126 14.3744 1698 82.2397 1160.8 463.645
3146 0 124.136 15.0722 1871 81.3971 1161.53 461.902
3147 0 127.138 15.7152 1998 81.4004 1161.14 460.424
3148 1 72.0492 11.7558 847 89.1547 1161.67 485.352
3149 0 75.0905 12.4383 934 89.3255 1161.98 482.612
3150 0 77.0474 13.1218 1011 90.4224 1161.97 481.094
3151 0 79.0585 13.9643 1104 87.856 1161.59 483.109
3152 0 82.1005 13.9341 1144 89.1407 1162.33 483.704
3153 0 84.1494 13.1789 1109 91.6339 1161.49 481.413
3154 0 86.0848 13.4983 1162 92.4639 1162.02 479.114
3155 0 91.1707 13.9957 1276 91.3856 1161.44 478.176
3156 0 93.103 14.0597 1309 92.4034 1162.07 477.163
3157 0 97.0892 13.7399 1334 95.1522 1161.98 474.851
3158 0 100.167 13.6172 1364 97.1246 1161.33 471.707
3159 0 103.122 14.1482 1459 97.5977 1161.83 470.642
3160 0 108.126 14.5756 1576 95.8268 1161.38 469.555
3161 0 110.247 14.2045 1566 97.0971 1161.95 468.153
3162 0 113.271 14.2666 1616 97.5736 1161.34 463.602
3163 0 118.597 14.7137 1745 95.2436 1161.45 458.133
3164 0 122.518 14.4795 1774 95.9036 1161.43 457.994
3165 0 126.461 14.6369 1851 95.6234 1161.76 455.947
3166 1 58.3096 12.2107 712 92.625 1161.74 488.812
3167 0 60.2122 12.2899 740 88.8365 1162.99 491.711
3168 0 61.085 12.9001 788 88.099 1162.22 491.984
3169 0 64.1171 13.0075 834 86.8993 1162.74 489.534
3170 0 66.1389 13.1088 867 87.9412 1162.95 489.155
3171 0 69.1696 12.9103 893 87.6081 1162.94 487.302
3172 0 71.2106 12.8913 918 88.7146 1162.98 485.408
3173 0 72.2481 13.1353 949 88.764 1162.14 484.796
3174 0 75.2794 13.4167 1010 88.0089 1162.89 483.078
3175 0 78.0552 12.6705 989 96.3316 1163.72 482.311
3176 0 81.1054 12.6625 1027 99.2376 1163.65 481.347
3177 0 83.172 12.6244 1050 99.8333 1163.6 481.168
3178 0 85.0795 12.9173 1099 99.3813 1163.64 480.372
3179 0 87.1097 12.9607 1129 102.244 1163.11 476.805
3180 0 90.1445 13.789 1243 98.5841 1163.64 476.974
3181 0 92.1152 11.9307 1099 100.983 1162.31 471.355
3182 0 96.1248 12.7022 1221 102.665 1162.73 470.749
3183 0 99.0688 12.7891 1267 99.1768 1163.34 468.047
3184 0 101.199 13.0733 1323 98.1754 1162.97 466.886
3185 0 105.112 13.3381 1402 102.501 1161.62 466.967
3186 0 110.076 13.4089 1476 101.306 1161.99 465.781
3187 1 57.0652 10.637 607 94.1334 1162.98 492.165
3188 0 57.2172 11.8496 678 93.1121 1162.82 493.813
3189 0 61.1418 11.825 723 87.852 1161.96 491.96
3190 0 62.0822 11.7103 727 96.6052 1160.32 490.884
3191 0 65.0388 11.9928 780 87.7038 1161.2 489.513
3192 0 66.1542 12.879 852 87.3028 1161.24 488.812
3193 0 66.0643 11.5039 760 89.5592 1161.82 487.633
3194 0 70.1619 12.4141 871 86.5718 1161.91 486.216
3195 0 70.1074 12.2384 858 89.0886 1161.58 485.273
3196 0 73.1491 11.9345 873 88.992 1161.57 484.315
3197 0 73.0424 11.8698 867 90.068 1161.69 482.805
3198 0 77.1464 12.3402 952 87.4779 1162.4 482.874
3199 0 78.2057 12.0963 946 90.1903 1162.35 480.771
3200 0 82.2354 11.5522 950 89.4537 1162.27 479.345
3201 0 84.1623 11.9412 1005 89.0368 1162.35 477.822
3202 0 86.1742 11.9525 1030 89.1379 1161.96 476.235
3203 0 88.2884 12.0288 1062 88.6789 1161.5 474.12
3204 0 90.4778 12.1466 1099 88.5105 1162.55 473.192
3205 0 95.4362 12.4691 1190 87.4487 1162.5 471.484
3206 0 96.4585 12.6376 1219 88.0541 1162.22 468.272
3207 0 101.645 13.1437 1336 86.6138 1161.28 462.527
3208 0 102.538 12.2491 1256 88.5685 1161.45 463.436
3209 0 105.56 12.1543 1283 91.1333 1161.06 460.732
3210 0 107.532 12.5172 1346 89.6738 1161.28 461.533
3211 0 111.53 12.5437 1399 89.1987 1161.59 458.44
3212 0 115.571 12.209 1411 88.8377 1161.21 459.919
3213 0 119.531 12.6912 1517 88.1074 1161.28 455.34
3214 0 121.536 11.9636 1454 88.9649 1161.73 453.419
3215 0 125.633 12.3295 1549 88.3402 1161.7 449.838
3216 0 129.444 12.3297 1596 88.1786 1161.67 447.778
3217 0 133.531 11.9822 1600 89.2506 1161.43 447.528
3218 0 139.663 12.4156 1734 87.128 1162.28 446.433
3219 0 142.435 12.6022 1795 88.4969 1162.46 445.861
3220 1 79.11 11.4903 909 79.7228 1163.17 481.659
3221 0 81.0517 11.8443 960 82.0979 1163.64 479.091
3222 0 84.1119 12.1505 1022 81.2838 1163.33 477.401
3223 0 86.2269 12.0264 1037 82.269 1162.62 477.254
3224 0 90.2549 12.3317 1113 81.3252 1162.4 475.217
3225 0 92.1619 12.0332 1109 84.1326 1161.72 473.011
3226 0 95.2224 12.4656 1187 83.5333 1162.19 472.832
3227 0 97.2096 12.1902 1185 86.2641 1161.7 471.374
3228 0 103.263 12.6958 1311 85.2113 1162.06 469.865
3229 0 105.255 12.0374 1267 87.8587 1161.82 466.695
3230 0 111.332 12.6918 1413 88.0368 1162.13 464.203
3231 0 114.515 12.9678 1485 89.2148 1162.2 461.601
3232 0 117.494 12.8432 1509 90.2233 1161.88 460.326
3233 1 59.1166 10.8768 643 87.0233 1162.66 492.448
3234 0 62.1465 12.0039 746 85.9156 1163.23 491.788
3235 0 65.1755 12.7348 830 85.9398 1163.29 490.947
3236 0 67.1637 12.3876 832 86.5144 1162.98 489.906
3237 0 65.1671 12.3068 802 90.8254 1162.86 489.963
3238 0 69.2298 11.8157 818 92.0073 1163.05 488.919
3239 0 73.2729 13.1972 967 87.6577 1163 487.161
3240 0 74.1601 12.2708 910 92.9681 1163.35 486.656
3241 0 76.2115 12.3866 944 90.4597 1163.08 484.595
3242 0 77.1973 12.4875 964 93.5166 1163.29 484.655
3243 0 80.2724 12.333 990 92.1657 1163.29 482.926
3244 0 82.2446 12.6938 1044 94.3898 1163.32 483.145
3245 0 84.157 13.1421 1106 96.123 1162.66 481.045
3246 0 86.1116 12.3212 1061 101.735 1161.65 479.304
3247 0 87.1495 12.8744 1122 101.358 1161.3 478.045
3248 0 92.1628 12.9879 1197 99.782 1161.18 478.383
3249 0 95.2164 12.5294 1193 99.7619 1161.23 476.451
3250 0 96.2757 12.5785 1211 100.523 1161.25 473.926
3251 0 99.2605 13.0969 1300 98.7869 1160.8 471.297
3252 0 101.159 12.515 1266 99.6185 1161.82 471.957
3253 0 104.336 13.054 1362 99.1659 1161.7 468.902
3254 0 107.276 12.3233 1322 100.439 1161.38 466.76
3255 1 60.1268 10.5943 637 95.7457 1161.53 488.498
3256 0 61.1166 10.03 613 93.3426 1161.75 484.055
3257 0 65.2912 11.3032 738 88.0569 1161.95 483.355
3258 0 65.1047 11.0438 719 92.6161 1163.31 488.371
3259 0 69.1506 12.2631 848 88.8184 1163.62 488.739
3260 0 70.1649 12.4991 877 89.2805 1163.53 486.732
3261 0 73.1843 12.571 920 89.1022 1163.64 487.438
3262 0 74.1365 12.9356 959 88.0031 1163.42 486.617
3263 0 75.1059 12.6754 952 89.1817 1163.33 485.898
3264 0 78.2058 12.9019 1009 88.1834 1163.19 485.67
3265 0 82.1545 12.9999 1068 86.662 1163.19 484.341
3266 0 84.2391 13.248 1116 87.7625 1163.4 482.486
3267 0 86.1571 13.6495 1176 86.4787 1162.46 479.133
3268 0 88.1471 12.7287 1122 88.3815 1162.62 477.125
3269 0 90.1898 13.1722 1188 86.1768 1161.82 479.835
3270 0 94.2418 13.5715 1279 85.9531 1162.1 475.061
3271 0 98.1994 13.7679 1352 82.5858 1162.36 471.746
3272 0 99.1756 12.2913 1219 88.0943 1162.2 470.679
3273 0 101.154 12.8517 1300 87.1123 1162.63 471.153
3274 0 107.204 13.6749 1466 88.9195 1162.65 467.386
3275 0 108.212 13.6122 1473 88.3754 1161.98 466.552
3276 0 114.246 13.7335 1569 82.9452 1162.46 465.808
3277 0 114.187 13.5829 1551 83.2212 1162.31 463.981
3278 0 118.167 13.557 1602 85.2659 1162.16 464.376
3279 0 121.142 14.1487 1714 83.951 1162.19 463.529
3280 0 123.18 13.939 1717 83.1206 1162.22 460.672
3281 0 127.163 14.0843 1791 82.0279 1162.66 459.415
3282 0 131.099 13.959 1830 79.8639 1162.93 454.826
3283 0 133.2 13.1382 1750 81.6349 1161.8 451.227
3284 0 137.169 12.8164 1758 79.9078 1161.48 454.061
3285 0 141.195 13.322 1881 79.6178 1161.3 448.911
3286 0 147.174 13.3787 1969 79.0482 1161.64 447.534
3287 0 151.196 13.2411 2002 82.0984 1161.26 443.537
3288 0 156.162 13.787 2153 81.9118 1161.93 442.317
3289 0 159.169 13.7339 2186 82.5791 1161.96 440.322
3290 0 167.189 14.1098 2359 80.6431 1162.42 435.939
3291 0 167.217 12.9293 2162 81.9602 1162.1 435.651
3292 0 172.221 13.384 2305 84.7939 1160.98 430.886
3293 0 179.208 13.5485 2428 84.7644 1161.57 429.12
3294 0 186.231 14.1759 2640 83.0508 1161.31 427.597
3295 0 191.283 13.7074 2622 84.4031 1162.45 424.555
3296 0 193.26 12.6772 2450 84.5482 1162.06 426.448
3297 0 201.215 13.3737 2691 82.8161 1162 420.926
3298 0 207.288 12.8565 2665 83.7171 1162.43 418.383
3299 1 218.192 14.0885 3074 81.3247 1161.6 409.38
3300 0 226.3 14.6796 3322 80.4253 1161.57 403.767
3301 0 232.246 14.2651 3313 80.4962 1161.97 399.352
3302 0 240.341 13.6015 3269 81.966 1161.71 396.818
3303 1 65.112 11.8104 769 79.0182 1162.65 482.757
3304 0 71.1959 13.2311 942 77.9236 1162.74 481.098
3305 0 74.131 13.7055 1016 78.5187 1163.12 480.508
3306 0 75.2594 13.4468 1012 78.7105 1163.09 482.473
3307 0 78.2762 12.2643 960 82.275 1162.87 480.524
3308 0 78.262 13.1226 1027 82.038 1162.83 479.016
3309 0 83.1208 13.6789 1137 81.6596 1162.6 476.522
3310 0 86.168 13.5781 1170 81.1188 1163.33 477.896
3311 0 88.1687 13.4969 1190 82.479 1162.96 476.44
3312 0 93.2566 14.2081 1325 81.4574 1163.86 475.113
3313 0 95.2363 13.5138 1287 83.0583 1163.41 473.777
3314 0 98.1937 14.0437 1379 82.1661 1163.17 472.975
3315 0 100.239 13.6275 1366 83.1274 1163.21 473.106
3316 0 106.217 13.9055 1477 84.0007 1162.97 466.014
3317 0 109.451 13.4398 1471 84.8436 1162.22 466.641
3318 0 110.21 12.5397 1382 85.3133 1162.76 466.192
3319 1 64.2285 11.8016 758 79.7678 1164.21 490.296
3320 0 64.2285 11.7705 756 153.033 1164.21 490.249
3321 0 70.3483 12.3102 866 75.3326 1163.88 484.987
3322 0 71.3589 12.4301 887 75.6291 1163.82 482.442
3323 0 73.1689 11.617 850 78.0647 1163.11 485.515
3324 0 75.167 11.8004 887 77.3179 1163.04 482.823
3325 0 77.228 11.4725 886 79.2562 1162.76 481.021
3326 0 81.2264 12.1389 986 79.0193 1162.73 480.747
3327 0 83.1415 12.5208 1041 80.244 1162.87 476.656
3328 0 85.2004 12.3943 1056 79.8608 1162.7 477.638
3329 0 86.1837 12.044 1038 81.5954 1162.71 477.927
3330 0 91.3318 13.6754 1249 78.3395 1162.62 474.071
3331 0 95.2473 14.1736 1350 78.0467 1162.67 471.725
3332 0 96.2538 13.5579 1305 80.9172 1162.65 472.481
3333 0 98.1988 13.5338 1329 81.7148 1163.37 469.199
3334 0 102.224 13.5193 1382 82.1042 1162.85 470.706
3335 0 101.376 13.6718 1386 83.1089 1162.69 466.18
3336 0 106.437 13.7265 1461 83.4018 1162.38 465.101
3337 0 108.418 13.6416 1479 83.6119 1162.48 463.778
3338 1 61.287 12.0254 737 83.4925 1162.49 487.459
3339 0 64.2194 12.5819 808 82.9035 1162.52 488.983
3340 0 66.1524 12.9398 856 81.0444 1162.42 491.033
3341 0 68.1521 12.6042 859 82.5297 1163.39 487.605
3342 0 71.0778 13.3094 946 81.4123 1163.41 486.135
3343 0 72.038 13.479 971 81.2348 1162.78 484.447
3344 0 75.2203 13.4538 1012 83.086 1162.51 485.392
3345 0 75.2015 13.7497 1034 84.0638 1162.72 484.49
3346 0 80.3238 13.7942 1108 83.7121 1162.71 482.436
3347 0 81.2608 13.8812 1128 87.5239 1162.9 481.776
3348 0 83.1926 14.2561 1186 88.7968 1163.43 481.36
3349 0 86.1553 14.056 1211 89.4244 1163.07 479.94
3350 0 89.1515 14.0547 1253 89.7199 1162.22 478.642
3351 0 91.2105 13.6059 1241 94.6374 1162.24 476.75
3352 0 95.2212 13.1693 1254 98.6364 1162.27 475.611
3353 0 98.232 13.6921 1345 97.8914 1162.08 475.66
3354 0 101.282 13.4674 1364 99.4677 1162.04 472.601
3355 0 104.199 14.1556 1475 98.6434 1162.47 470.466
3356 0 107.189 13.742 1473 100.533 1162.14 468.916
3357 0 112.152 13.9187 1561 98.0487 1162.07 469.926
3358 1 56.0762 12.055 676 98.3639 1163 495.349
3359 0 58.0817 12.2414 711 99.3052 1163.87 494.468
3360 0 61.19 13.2048 808 100.199 1163.77 492.344
3361 0 62.1223 13.3285 828 92.9082 1161.57 492.638
3362 0 61.0597 13.5605 828 93.5326 1162.32 491.705
3363 0 66.027 13.4339 887 100.423 1163.31 489.93
3364 0 69.0604 13.0465 901 100.968 1163.52 489.115
3365 0 71.0419 13.8932 987 98.23 1163.86 488.491
3366 0 71.1144 13.7103 975 100.633 1164.02 487.911
3367 0 75.035 12.9806 974 102.175 1163.95 485.975
3368 0 76.0446 13.2817 1010 102.529 1164.02 484.898
3369 0 77.0469 13.1738 1015 101.999 1163.55 483.162
3370 0 79.0886 13.2257 1046 102.428 1163.99 482.752
3371 0 84.0439 13.6 1143 101.398 1163.9 480.713
3372 0 85.053 13.2623 1128 102.194 1163.99 478.262
3373 0 89.0598 13.4292 1196 100.666 1163.69 478.255
3374 0 90.0396 13.6495 1229 100.384 1163.93 477.096
3375 0 92.0899 13.5085 1244 100.449 1163.84 476.689
3376 0 95.0487 13.7508 1307 99.6787 1164.09 475.972
3377 0 95.0904 13.1454 1250 103.007 1163.3 473.052
3378 0 96.131 13.0031 1250 99.1168 1162.03 476.201
3379 0 98.112 12.9648 1272 99.4615 1161.86 473.61
3380 0 103.198 13.1204 1354 97.5724 1161.62 471.114
3381 0 105.1 12.6736 1332 95.515 1161.92 466.311
3382 0 109.168 13.4106 1464 94.2486 1162.19 465.857
3383 0 112.083 13.3115 1492 95.0462 1162.28 465.151
3384 0 112.101 12.676 1421 98.1907 1162.38 462.911
3385 0 116.264 13.0393 1516 97.8054 1161.91 460.899
3386 0 121.119 13.012 1576 99.1961 1162.75 457.912
3387 0 127.184 13.8933 1767 99.5354 1162.27 455.173
3388 0 131.181 13.508 1772 99.1693 1161.78 455.52
3389 0 136.288 13.6696 1863 98.9903 1161.7 452.826
3390 1 74.068 11.1384 825 99.8885 1161.32 484.156
3391 0 78.0791 12.3721 966 92.6636 1161.6 481.39
3392 0 81.2635 13.1917 1072 94.3274 1163.31 474.667
3393 0 82.3421 13.954 1149 95.3734 1162.92 474.346
3394 0 85.0797 13.4697 1146 96.8805 1160.69 477.508
3395 0 85.1002 12.6909 1080 100.175 1160.36 479.729
3396 0 90.1287 13.392 1207 98.1624 1161.01 477.151
3397 0 93.0963 13.1692 1226 98.2806 1161.34 475.888
3398 0 95.076 12.937 1230 99.2285 1161.51 474.851
3399 0 98.0543 13.4109 1315 99.2487 1161.17 474.989
3400 0 102.212 13.0415 1333 98.9205 1162.08 472.839
3401 0 104.279 13.1091 1367 98.2275 1162.34 470.19
3402 0 109.183 13.308 1453 98.3159 1162.03 468.261
3403 0 113.187 13.0934 1482 97.7915 1161.85 466.997
3404 0 119.252 13.4422 1603 96.8896 1161.53 464.807
3405 0 122.175 13.3743 1634 97.3452 1161.31 463.793
3406 0 125.317 13.6215 1707 98.3527 1161.52 461.788
3407 1 69.1261 11.4573 792 104.455 1163.09 489.355
3408 0 74.0493 12.3161 912 99.4748 1161.02 487.366
3409 0 77.1299 13.1856 1017 97.9233 1162.39 487.671
3410 0 76.1145 13.4403 1023 98.2727 1162.61 486.645
3411 0 78.0849 12.7938 999 99.1381 1163 483.8
3412 0 80.0621 12.7276 1019 91.21 1161.2 484.825
3413 0 83.094 13.0094 1081 90.9362 1159.88 484.337
3414 0 84.0333 13.0543 1097 91.1586 1159.62 483.15
3415 0 86.0587 12.0615 1038 94.501 1160.88 481.522
3416 0 90.0267 12.052 1085 94.7733 1160.7 479.928
3417 0 93.0347 12.3287 1147 94.3409 1160.78 479.389
3418 0 94.1171 12.7395 1199 93.0776 1160.98 478.698
3419 0 96.0339 12.4331 1194 94.773 1160.84 478.556
3420 0 97.1015 12.3376 1198 95.6603 1160.86 476.556
3421 0 102.107 12.5652 1283 94.8176 1160.41 476.136
3422 0 105.096 13.264 1394 93.8142 1160.16 473.522
3423 0 107.291 13.0953 1405 96.3559 1159.93 473.262
3424 0 111.279 12.4102 1381 97.719 1159.9 471.455
3425 0 116.074 13.233 1536 92.0911 1161.55 468.695
3426 0 119.106 12.6526 1507 93.2283 1160.28 467.232
3427 0 121.187 13.112 1589 98.6016 1160.89 464.419
3428 0 126.167 13.0462 1646 96.9259 1160.37 461.849
3429 1 73.1293 12.0335 880 98.8045 1159.12 486.945
3430 0 75.0659 12.2159 917 89.639 1161.05 487.075
3431 0 79.1285 12.4355 984 88.8628 1160.92 485.25
3432 0 79.1384 12.2065 966 92.0745 1161.22 488.495
3433 0 79.1738 11.8095 935 93.0578 1161.67 487.882
3434 0 83.1648 12.2528 1019 92.7655 1161.03 484.546
3435 0 84.1981 12.043 1014 93.9201 1160.97 484.915
3436 0 88.1815 12.6217 1113 93.8437 1160.83 478.78
3437 0 92.1731 12.6176 1163 94.5838 1161.16 477.946
3438 0 95.1414 12.4656 1186 96.4621 1159.82 473.09
3439 0 100.136 12.7327 1275 98.9922 1159.6 472.525
3440 1 53.0864 10.643 565 95.9699 1160.02 494.793
3441 0 55.1176 10.904 601 94.5092 1160.32 494.894
3442 0 55.1067 10.6158 585 90.8462 1160.67 491.462
3443 0 58.0921 11.9982 697 97.8078 1163.72 492.086
3444 0 60.0588 12.3546 742 102.776 1163.43 491.221
3445 0 61.1075 13.0099 795 101.291 1164.07 491.123
3446 0 62.0506 12.9733 805 101.168 1163.92 491.384
3447 0 65.0395 13.561 882 100.27 1164.21 489.849
3448 0 66.214 13.1543 871 103.897 1162.19 489.606
3449 0 69.1562 12.7682 883 105.839 1161.37 488.981
3450 0 71.2316 13.8843 989 104.371 1161.74 487.803
3451 0 71.1615 13.5888 967 107.372 1161.77 486.348
3452 0 75.2068 13.536 1018 107.907 1161.38 484.682
3453 0 77.0969 14.164 1092 107.454 1161.7 485.083
3454 0 78.1168 13.6846 1069 110.223 1161.09 482.527
3455 0 81.0984 13.8967 1127 108.988 1161.35 481.389
3456 0 85.1385 14.0829 1199 107.673 1161.47 479.438
3457 0 86.125 13.7126 1181 110.398 1161.07 478.991
3458 0 85.1203 13.4633 1146 172.127 1160.08 478.127
3459 0 91.208 13.7488 1254 109.246 1161.3 477.049
3460 0 92.1894 13.9604 1287 109.099 1161.11 474.282
3461 0 96.2515 13.8803 1336 107.5 1161.12 473.74
3462 0 98.234 13.7732 1353 108.747 1160.42 472.338
3463 0 99.2355 13.7552 1365 108.542 1160.32 472.133
3464 0 102.172 13.7904 1409 109.307 1160.66 469.746
3465 0 105.246 14.1668 1491 106.997 1160.88 469.588
3466 0 107.305 14.538 1560 100.549 1160.42 466.687
3467 0 110.293 14.0081 1545 102.423 1160.59 466.27
3468 0 114.196 13.7308 1568 107.561 1161 464.471
3469 0 117.238 13.1272 1539 108.958 1160.11 461.6
3470 0 120.173 13.1061 1575 106.664 1160.41 460.659
3471 1 63.1856 10.3821 656 93.0351 1161.61 483.159
3472 0 68.1615 11.9422 814 91.4877 1162.86 484.711
3473 0 72.1648 12.8594 928 90.847 1163.08 483.528
3474 0 73.1962 12.6783 928 92.9397 1163.75 485.302
3475 0 73.1019 12.3526 903 95.5161 1163.71 484.784
3476 0 76.2427 12.5651 958 95.5125 1163.1 483.16
3477 0 77.1594 12.0011 926 98.0691 1162.66 480.692
3478 0 79.1628 12.6954 1005 96.791 1162.49 478.549
3479 0 82.1573 12.0257 988 98.0253 1163 477.64
3480 0 84.1641 12.036 1013 97.0612 1162.91 476.462
3481 0 86.1388 12.0271 1036 96.1863 1162.72 474.878
3482 0 90.201 12.45 1123 93.9964 1162 473.388
3483 0 91.1223 12.2802 1119 96.017 1162.07 471.842
3484 0 95.1839 12.4076 1181 95.0119 1162.54 471.259
3485 0 96.3271 12.4679 1201 95.637 1162.9 469.077
3486 0 99.169 11.9392 1184 96.3277 1162.71 467.473
3487 0 103.268 12.3368 1274 93.1444 1162.5 464.48
3488 0 106.305 12.3701 1315 94.162 1162.65 464.217
3489 1 60.1389 9.99353 601 94.5557 1163.21 487.839
3490 0 61.1209 10.831 662 99.4139 1162.37 486.115
3491 0 64.1802 11.4833 737 98.5916 1162.72 484.034
3492 0 64.0432 11.2892 723 86.1355 1163.64 485.306
3493 0 65.087 10.8931 709 87.8054 1163.45 483.829
3494 0 68.0905 10.8385 738 87.3103 1163.32 482.046
3495 0 71.0887 10.7049 761 87.8988 1163.63 483.394
3496 0 74.1345 11.6545 864 87.7037 1163.13 481.168
3497 0 76.1271 11.021 839 89.708 1162.28 481.509
3498 0 77.099 13.0092 1003 82.1585 1161.56 478.237
3499 0 80.1891 11.7971 946 88.8436 1162.11 478.794
3500 0 83.0662 11.7497 976 88.6701 1161.77 478.217
3501 0 85.1118 11.949 1017 88.4838 1161.72 477.136
3502 0 86.0945 11.9752 1031 89.0834 1161.59 477.093
3503 0 91.1276 12.3563 1126 88.1297 1161.68 476.419
3504 0 92.0735 11.6755 1075 90.6967 1161.53 474.008
3505 0 92.076 12.153 1119 90.8999 1161.7 471.656
3506 0 96.0884 11.9994 1153 92.5681 1161.42 470.897
3507 0 100.11 12.5662 1258 90.9269 1161.75 470.316
3508 0 103.132 12.6731 1307 91.2884 1161.42 469.222
3509 0 104.147 12.5496 1307 93.2372 1161.18 466.402
3510 0 108.139 12.8076 1385 93.0123 1160.97 466.46
3511 0 113.181 13.1029 1483 100.91 1162.22 463.219
3512 0 117.163 12.6149 1478 101.888 1161.84 461.69
3513 0 121.097 12.4446 1507 101.63 1162.28 460.512
3514 0 125.12 12.6199 1579 102.167 1162.77 459.688
3515 0 128.117 13.2691 1700 100.729 1162.67 457.092
3516 0 134.157 13.8196 1854 98.3732 1162.42 455.709
3517 0 137.14 13.1398 1802 101.183 1162.65 451.246
3518 0 142.263 13.8475 1970 96.3964 1161.58 450.566
3519 0 147.207 13.4776 1984 98.4652 1161.67 449.705
3520 0 152.209 13.7442 2092 96.7261 1161.19 447.188
3521 0 155.236 13.9852 2171 96.3413 1160.72 443.117
3522 0 161.264 14.3925 2321 95.1878 1161.03 441.663
3523 0 167.432 14.2685 2389 94.7899 1161.09 437.242
3524 0 170.266 14.3247 2439 95.501 1160.78 435.827
3525 0 177.413 14.283 2534 96.0639 1160.72 432.333
3526 0 183.354 14.9437 2740 94.8161 1160.15 430.704
3527 0 187.295 14.8002 2772 98.1024 1160.5 427.274
3528 0 191.349 15.2078 2910 99.0942 1160.09 424.986
3529 0 196.216 14.0763 2762 105.401 1159.51 423.742
3530 0 200.27 13.3919 2682 108.458 1160.34 421.745
3531 0 204.432 14.034 2869 105.636 1158.99 409.237
3532 0 210.492 13.7535 2895 104.606 1159.16 406.668
3533 1 222.488 14.2569 3172 103.941 1159.37 405.379
3534 1 168.329 12.4934 2103 105.725 1160.14 431.795
3535 0 176.314 13.7199 2419 102.829 1160.23 428.728
3536 0 181.345 13.2951 2411 103.839 1160.32 425.358
3537 0 185.318 12.832 2378 105.068 1160.1 421.823
3538 0 194.282 13.1047 2546 103.59 1160.73 418.071
3539 0 199.309 13.0952 2610 103.901 1161.27 414.104
3540 0 208.283 12.7663 2659 103.639 1161.08 412.438
3541 0 215.316 12.7905 2754 103.896 1160.98 408.131
3542 0 223.284 12.455 2781 104.142 1160.55 403.535
3543 0 235.255 13.5087 3178 100.721 1160.88 397.884
3544 1 63.0246 9.78983 617 84.6515 1163.43 486.846
3545 0 65.1589 10.3746 676 90.0725 1163.11 488.114
3546 0 66.112 11.541 763 87.7339 1163.46 487.982
3547 0 70.0896 11.7421 823 93.1908 1165.07 484.857
3548 0 70.114 11.41 800 99.5888 1163.93 483.554
3549 0 73.123 11.6379 851 98.8038 1164.09 483.658
3550 0 75.1008 11.5179 865 99.0173 1164.26 480.171
3551 0 75.0858 11.9197 895 98.362 1164.6 478.363
3552 0 79.132 12.6498 1001 95.3297 1165.38 474.694
3553 0 81.0616 11.8922 964 97.6919 1165.02 476.77
3554 0 83.1099 12.0082 998 97.7455 1164.82 476.086
3555 0 86.0441 12.3193 1060 96.384 1164.73 474.808
3556 0 89.1487 12.5184 1116 95.6989 1164.67 472.283
3557 0 90.0673 12.2242 1101 96.436 1164.75 470.43
3558 0 93.0681 12.3351 1148 96.7352 1164.81 469.031
3559 0 96.0606 12.3672 1188 97.016 1165.34 466.178
3560 0 98.0715 11.9301 1170 100.128 1164.57 464.04
3561 0 101.105 12.6502 1279 96.9898 1165.27 462.988
3562 1 60.0321 9.61152 577 95.3414 1164.73 487.686
3563 0 60.0422 10.2761 617 92.6921 1163.76 486.804
3564 0 62.0147 10.5136 652 88.7239 1163.55 484.758
3565 0 65.0954 12.0439 784 90.0778 1163.46 484.649
3566 0 67.09 12.0584 809 81.7664 1165.74 484.426
3567 0 68.1646 12.7926 872 81.5459 1166.43 481.028
3568 0 70.2063 12.2496 860 83.5965 1166.11 479.791
3569 0 67.1573 11.2869 758 89.9182 1166.22 479.968
3570 0 70.0743 11.3879 798 90.3083 1164.77 479.208
3571 0 71.1113 11.1234 791 92.9709 1165.52 479.896
3572 0 73.1786 10.6042 776 94.3222 1166.21 479.965
3573 0 76.1664 10.3064 785 93.1631 1165.77 480.758
3574 0 77.2206 11.0981 857 91.5858 1166.73 474.016
3575 0 78.128 11.2124 876 93.3116 1165.86 475.21
3576 0 82.1072 11.351 932 91.5247 1165.23 475.907
3577 0 83.1222 11.1523 927 92.4229 1165.91 475.261
3578 0 84.1984 10.5465 888 92.2646 1166.93 472.097
3579 0 86.1815 10.8144 932 90.6491 1167.39 473.666
3580 0 89.1349 10.8712 969 92.969 1166.82 472.376
3581 0 93.1982 11.7599 1096 90.635 1166.87 469.005
3582 0 96.25 12.0935 1164 90.5404 1167.21 466.703
3583 0 99.2375 11.6488 1156 91.6868 1166.56 465.873
3584 0 102.252 12.2149 1249 90.1105 1166.17 464.084
3585 0 103.292 11.5013 1188 92.1902 1166.12 466.272
3586 1 59.1331 10.3157 610 89.718 1167.58 487.433
3587 0 62.051 11.136 691 87.6223 1168.6 486.197
3588 0 63.119 11.2644 711 88.3713 1167.36 486.146
3589 0 64.0785 11.4079 731 87.2654 1166.83 482.386
3590 0 63.2921 11.8814 752 87.9614 1165.98 483.077
3591 0 68.0471 12.124 825 91.337 1163.86 483.678
3592 0 70.0192 12.4537 872 90.8601 1164.06 482.545
3593 0 71.0365 13.1482 934 88.363 1164.12 481.791
3594 0 73.0478 13.0052 950 88.8116 1164.49 482.209
3595 0 76.0409 13.2166 1005 88.202 1164.4 480.949
3596 0 78.0517 13.6064 1062 88.8701 1166.35 479.033
3597 0 80.0318 13.2822 1063 90.1157 1164.27 477.508
3598 0 82.0287 13.6538 1120 89.5116 1163.93 476.01
3599 0 83.0434 13.5833 1128 91.2775 1164.13 474.886
3600 0 85.0472 13.71 1166 90.9734 1164.52 476.164
3601 0 89.1324 14.0241 1250 91.3088 1164.11 472.708
3602 0 91.1243 13.8602 1263 92.6762 1164.24 470.003
3603 0 94.0911 14.4966 1364 91.9567 1163.99 471.132
3604 0 96.0729 13.573 1304 94.2738 1163.16 467.35
3605 0 98.084 14.039 1377 93.5149 1163.9 466.996
3606 0 102.077 14.4596 1476 93.1572 1163.45 465.609
3607 0 102.06 13.982 1427 95.131 1163.59 463.905
3608 0 108.089 13.933 1506 94.9216 1163.68 462.205
3609 0 109.236 13.5029 1475 96 1165.15 461.522
3610 0 113.195 13.6755 1548 95.9257 1164.37 459.658
3611 0 115.333 13.1099 1512 98.7447 1163.82 460.124
3612 0 120.255 13.2219 1590 96.9849 1164.17 456.788
3613 1 61.066 10.5623 645 96.262 1164.59 479.85
3614 0 63.0599 11.164 704 94.5852 1162.99 477.634
3615 0 69.0325 12.2116 843 91.4484 1164.08 485.658
3616 0 69.0756 11.596 801 94.0799 1162.58 484.222
3617 0 73.1168 11.9535 874 91.3295 1163.93 482.944
3618 0 75.1011 12.3434 927 92.3269 1162.14 483.831
3619 0 75.0804 11.7208 880 96.5057 1162.45 481.811
3620 0 81.0956 12.0475 977 94.6326 1161.49 481.746
3621 0 82.1032 12.6548 1039 97.8643 1162.81 479.925
3622 0 83.0637 12.3279 1024 100.744 1161.73 478.917
3623 0 86.0344 12.6577 1089 99.8604 1161.04 477.568
3624 0 87.0977 12.905 1124 101.733 1161.1 474.99
3625 0 90.0979 13.0747 1178 102.374 1161.56 475.326
3626 0 94.2892 13.4798 1271 99.0236 1162.17 476.043
3627 0 97.148 12.9184 1255 101.834 1161.79 472.813
3628 0 102.2 13.1214 1341 101.086 1161.12 470.368
3629 0 103.465 12.9029 1335 100.771 1161.99 469.012
3630 0 108.232 13.1569 1424 100.422 1161.56 468.089
3631 1 60.116 11.2449 676 87.6228 1163.93 491.328
3632 0 58.12 10.3063 599 85.1553 1163.36 489.972
3633 0 62.1731 11.7575 731 97.0274 1161.55 490.081
3634 0 64.0874 12.1397 778 89.1452 1162.58 491.83
3635 0 67.0632 13.0325 874 96.7597 1163.66 490.175
3636 0 69.0197 12.5326 865 98.5445 1163.8 489.135
3637 0 70.0272 13.0092 911 98.1471 1164.01 488.093
3638 0 70.038 12.3219 863 100.947 1163.99 486.072
3639 0 73.0627 12.9341 945 97.8688 1163.48 486.524
3640 0 77.1103 12.6442 975 99.0226 1162.89 484.197
3641 0 77.0608 12.6783 977 100.633 1162.71 482.28
3642 0 79.0688 12.799 1012 100.107 1163.09 480.954
3643 0 81.0702 13.0874 1061 99.6937 1162.72 481.949
3644 0 84.0666 13.5369 1138 98.0492 1163.27 479.335
3645 0 88.1093 13.3017 1172 99.7449 1162.88 475.428
3646 0 89.0315 13.411 1194 100.925 1162.64 474.393
3647 0 90.1184 13.3491 1203 101.328 1162.96 473.606
3648 0 95.0791 13.8937 1321 98.5193 1162.83 474.108
3649 0 96.0726 13.7812 1324 101.096 1162.35 473.264
3650 0 98.1202 13.5548 1330 102.129 1161.91 468.732
3651 0 99.1982 12.9942 1289 100.104 1160.25 470.206
3652 0 102.173 12.9584 1324 101.942 1160.21 466.625
3653 0 104.121 12.543 1306 101.56 1160.12 467.162
3654 0 108.199 12.8744 1393 101.09 1160.32 465.385
3655 0 111.167 12.8816 1432 101.868 1160.73 464.552
3656 1 64.0529 11.2719 722 100.307 1160.32 486.289
3657 0 68.0936 12.0569 821 95.2473 1160.91 485.149
3658 0 71.0875 13.2935 945 91.655 1160.87 485.681
3659 0 70.0468 12.2204 856 89.7605 1163.86 483.105
3660 0 74.1621 11.7311 870 88.8299 1163.89 483.121
3661 0 74.0397 12.2232 905 90.0972 1164.09 481.313
3662 0 75.1365 11.6721 877 91.9316 1163.68 480.975
3663 0 78.0542 11.6714 911 92.5796 1164.59 479.257
3664 0 83.1594 12.2055 1015 89.5783 1163.98 478.954
3665 0 82.0701 12.1847 1000 90.971 1164.47 477.998
3666 0 85.17 12.7979 1090 90.089 1164.5 476.45
3667 0 89.2161 13.4281 1198 88.5851 1163.52 474.169
3668 0 92.2063 13.3397 1230 90.1179 1163.42 472.751
3669 0 94.2108 13.5441 1276 96.2476 1162.28 471.274
3670 0 94.2108 13.5229 1274 158.749 1162.28 471.294
3671 0 99.1807 13.3292 1322 91.9251 1162.63 470.402
3672 0 103.112 12.9858 1339 90.189 1163.64 467.967
3673 0 107.076 13.5885 1455 97.6488 1164.39 465.724
3674 0 110.111 12.9778 1429 99.6018 1164.24 463.325
3675 0 112.129 13.1813 1478 98.8518 1164.14 462.333
3676 0 115.315 13.2766 1531 91.6127 1163.72 459.771
3677 0 120.088 12.9072 1550 94.9348 1163.81 459.952
3678 1 66.1012 10.9226 722 94.7604 1164.05 486.744
3679 0 66.1115 10.9814 726 94.7686 1164.28 485.376
3680 0 72.1166 11.8974 858 93.7774 1164.07 484.779
3681 0 74.2266 12.0442 894 93.3613 1164.02 483.032
3682 0 74.1259 12.5597 931 94.174 1163.08 483.317
3683 0 75.2604 11.9186 897 96.4158 1163.58 482.925
3684 0 77.2419 11.833 914 98.0109 1162.99 481.054
3685 0 79.3167 12.406 984 98.0549 1162.9 478.536
3686 0 83.3047 11.9801 998 98.1623 1162.75 478.7
3687 0 84.2152 12.1118 1020 98.3039 1162.31 476.133
3688 0 85.3328 11.6837 997 100.744 1163.07 471.508
3689 0 88.251 12.8271 1132 95.8366 1162.58 472.273
3690 0 89.3218 12.4718 1114 97.2101 1162.55 471.479
3691 0 91.4036 12.4722 1140 98.0237 1162.04 472.988
3692 0 96.3096 12.844 1237 97.7599 1161.78 470.975
3693 0 96.1947 12.6514 1217 99.9408 1161.98 469.375
3694 0 97.279 12.4898 1215 102.215 1161.95 464.877
3695 0 98.0924 12.2334 1200 103.658 1161.05 463.269
3696 0 102.278 12.994 1329 101.496 1161.12 463.439
3697 0 105.161 13.3414 1403 99.4825 1160.94 459.766
3698 0 108.116 13.0508 1411 101.825 1160.99 458.659
3699 0 108.187 13.0237 1409 102.901 1161.34 458.172
3700 0 115.202 13.3852 1542 101.998 1161.23 456.652
3701 0 118.358 12.986 1537 104.147 1161.39 455.284
3702 0 125.437 13.6084 1707 103.155 1161.51 454.875
3703 1 67.2202 10.964 737 99.7626 1161.5 480.962
3704 0 72.052 12.3938 893 100.522 1161.79 484.001
3705 0 73.1146 12.5283 916 99.3679 1162.42 482.513
3706 0 76.1016 12.7461 970 100.334 1163.49 482.079
3707 0 80.1355 13.0279 1044 99.7328 1162.76 481.288
3708 0 80.0922 11.9113 954 94.8763 1162.16 483.303
3709 0 80.1209 12.3563 990 96.1616 1162.3 481.299
3710 0 83.1013 12.1418 1009 96.6353 1162.26 478.832
3711 0 88.1483 13.1256 1157 93.2092 1162.79 480.471
3712 0 90.1746 13.241 1194 94.041 1162.12 477.451
3713 0 93.1538 13.9661 1301 92.5903 1161.49 477.749
3714 0 93.0732 13.2154 1230 96.0797 1161.93 475.902
3715 0 98.1744 14.2298 1397 94.0988 1161.82 475.266
3716 0 100.171 13.3671 1339 98.1912 1160.95 473.03
3717 0 104.154 13.288 1384 97.2132 1160.63 470.471
3718 0 105.14 13.9338 1465 95.9747 1160.69 468.218
3719 0 109.164 13.7866 1505 96.1216 1160.45 467.742
3720 0 113.107 14.4731 1637 93.6988 1159.85 461.797
3721 0 115.122 13.5161 1556 96.9769 1160.1 460.379
3722 0 119.309 13.6369 1627 103.924 1160.51 459.164
3723 0 123.192 14.0594 1732 101.5 1160.16 458.86
3724 0 125.222 14.4704 1812 101.505 1160.05 456.371
3725 0 129.122 13.3517 1724 97.9054 1159.71 453.546
3726 0 133.229 13.0002 1732 99.903 1159.9 449.273
3727 1 74.2095 11.6158 862 92.6612 1159.91 482.393
3728 0 77.0604 11.4196 880 92.9568 1159.55 481.464
3729 0 76.1457 11.977 912 93.1031 1159.25 480.289
3730 0 80.1117 12.4826 1000 90.579 1159.77 477.898
3731 0 83.1001 12.515 1040 90.4365 1159.47 477.169
3732 0 84.1507 12.4538 1048 91.6822 1159.65 475.433
3733 0 87.1924 12.4437 1085 91.6525 1160.04 473.997
3734 0 89.3807 12.7768 1142 91.6016 1160.74 476.706
3735 0 92.2066 12.7974 1180 97.6229 1160.82 469.851
3736 0 95.2335 12.7476 1214 96.7158 1160.68 469.295
3737 0 98.1877 12.3641 1214 96.5972 1160.6 468.462
3738 0 100.237 11.8918 1192 96.8775 1160.88 468.524
3739 0 103.171 12.0577 1244 95.1712 1160.24 467.583
3740 0 108.115 11.386 1231 90.541 1159.65 467.715
3741 0 108.403 11.5126 1248 91.4663 1160.24 462.357
3742 0 114.302 11.7146 1339 90.4712 1159.91 461.487
3743 0 117.239 12.3509 1448 88.9772 1159.95 458.809
3744 0 120.293 11.8544 1426 90.2475 1159.77 456.119
3745 0 123.324 11.6847 1441 91.1284 1160.14 453.145
3746 0 128.252 11.3994 1462 91.2647 1160.26 452.269
3747 1 74.1036 9.7971 726 82.3085 1160.49 482.843
3748 0 76.0679 10.6615 811 81.7349 1160.26 480.868
3749 0 80.1177 10.9339 876 82.2032 1161.45 477.724
3750 0 82.1905 11.6437 957 90.5131 1162.39 477.498
3751 0 85.0765 11.8834 1011 82.9318 1160.9 476.586
3752 0 87.0936 12.4693 1086 86.5083 1160.54 475.285
3753 0 89.1542 11.4521 1021 88.3663 1160.05 474.99
3754 0 93.0687 11.701 1089 87.2195 1160.88 472.669
3755 0 95.1949 11.6288 1107 87.7344 1161.94 470.222
3756 0 96.2896 11.4654 1104 86.3225 1161.09 468.066
3757 0 100.314 11.8229 1186 85.8044 1162.46 466.137
3758 0 103.468 11.9747 1239 84.7926 1162.29 464.511
3759 0 104.343 11.7689 1228 84.9308 1162.03 462.392
3760 0 108.549 11.7551 1276 83.8911 1162 461.98
3761 0 109.476 11.6007 1270 84.4551 1162.22 459.572
3762 0 115.531 11.4861 1327 84.2653 1162.64 454.293
3763 0 118.561 11.6227 1378 84.3701 1162.21 455.275
3764 0 123.481 11.3863 1406 84.4509 1162.19 451.463
3765 0 128.505 12.7933 1644 81.9939 1162.66 450.996
3766 1 71.2917 10.7726 768 76.8268 1162.04 483.271
3767 0 70.1523 10.9334 767 78.0248 1162.31 482.043
3768 0 73.0845 11.3841 832 78.6502 1161.07 480.555
3769 0 76.101 11.3665 865 79.7457 1161.95 480.711
3770 0 77.1345 11.1882 863 80.7659 1161.88 480.371
3771 0 78.187 11.3318 886 82.1749 1162.08 479.155
3772 0 83.1362 11.9443 993 81.0715 1162.32 479.278
3773 0 83.1556 11.7611 978 84.136 1162.02 475.637
3774 0 86.1417 12.0035 1034 84.3714 1161.82 474.687
3775 0 88.2678 12.2242 1079 87.3587 1162.1 472.101
3776 0 92.2014 12.0714 1113 88.9407 1162.28 470.421
3777 0 94.364 12.0067 1133 89.2886 1162.4 468.608
3778 0 97.2385 12.9475 1259 87.6878 1162.48 465.078
3779 0 98.3069 12.6644 1245 89.3205 1162.15 465.71
3780 0 101.316 13.0483 1322 88.4917 1162.61 463.632
3781 0 102.811 13.0822 1345 89.1048 1162.34 461.816
3782 0 105.511 12.3399 1302 90.9355 1162.25 458.842
3783 0 110.509 12.4968 1381 90.0999 1162.46 457.288
3784 0 113.921 12.6579 1442 89.8259 1162.6 454.283
3785 0 119.618 12.5985 1507 89.081 1162.76 455.486
3786 1 66.4827 10.7095 712 82.7177 1162.07 484.274
3787 0 68.3685 10.9992 752 83.9282 1161.7 484.476
3788 0 69.1502 11.0918 767 85.7784 1162.47 483.437
3789 0 72.0605 11.3377 817 88.6793 1161.74 479.998
3790 0 74.145 11.6259 862 87.1589 1161.85 478.513
3791 0 76.1338 11.5849 882 88.5816 1161.61 478.214
3792 0 78.1917 11.7404 918 89.4564 1162.68 477.319
3793 0 78.1082 11.3688 888 92.2162 1162.69 474.251
3794 0 81.2125 11.8824 965 91.2725 1162.32 473.374
3795 0 84.2014 11.4487 964 97.4668 1163.01 471.42
3796 0 86.234 11.9558 1031 90.5286 1162.82 473.568
3797 0 90.3289 12.2331 1105 92.9095 1162.2 471.262
3798 0 91.3261 12.0338 1099 95.0673 1163.05 469.05
3799 0 93.4811 11.7778 1101 96.3388 1162.82 465.708
3800 0 95.5045 11.8843 1135 97.6978 1162.58 462.685
3801 0 100.479 12.321 1238 96.849 1161.73 459.671
3802 0 101.433 12.077 1225 98.102 1161.79 458.26
3803 1 57.2646 10.3729 594 89.5202 1162.31 485.67
3804 0 59.197 10.4566 619 89.8853 1163.4 485.814
3805 0 61.0624 11.6111 709 90.3935 1163.88 484.598
3806 0 61.2363 11.5618 708 91.3955 1165.91 485.315
3807 0 63.2095 11.2325 710 90.9254 1166.43 486.075
3808 0 64.2015 11.0901 712 91.3483 1166.84 483.441
3809 0 67.3248 11.6153 782 91.7161 1165.69 483.527
3810 0 68.1834 11.5424 787 92.5743 1165.93 481.809
3811 0 72.1648 12.1527 877 91.0513 1165.3 481.261
3812 0 72.2084 11.5776 836 93.6914 1165.13 480.043
3813 0 73.2211 11.4585 839 94.4422 1164.67 477.863
3814 0 76.2503 11.7901 899 93.2314 1164.96 476.514
3815 0 80.2795 12.3568 992 91.9849 1165.06 476.965
3816 0 81.2712 11.923 969 93.8648 1164.63 475.726
3817 0 84.2819 12.0904 1019 95.6183 1164.27 474.086
3818 0 88.2731 13.141 1160 90.0405 1164.28 475.417
3819 0 89.3338 12.4253 1110 92.4685 1164.74 473.177
3820 0 91.2902 12.2028 1114 92.2828 1164.28 472.974
3821 0 93.3017 12.7329 1188 92.2399 1164.39 470.661
3822 0 97.292 12.406 1207 92.28 1163.62 470.525
3823 0 100.474 13.4064 1347 89.8263 1163.83 468.511
3824 0 102.272 12.7699 1306 92.3951 1163.53 465.966
3825 0 104.281 12.8882 1344 91.2016 1163.8 462.678
3826 0 108.353 12.6346 1369 90.5391 1163.19 463.593
3827 0 110.423 12.5064 1381 90.4345 1163.27 460.469
3828 0 115.376 12.3336 1423 89.0963 1163.24 460.878
3829 0 118.43 12.7079 1505 88.8359 1163.62 457.796
3830 1 68.2688 10.6344 726 88.2204 1164.52 481.915
3831 0 68.2688 10.5173 718 139.922 1164.52 481.841
3832 0 68.2434 11.7667 803 89.8917 1164.6 478.986
3833 0 70.2878 12.2496 861 89.0743 1164.12 477.259
3834 0 70.1223 12.1074 849 89.7809 1164.96 474.854
3835 0 74.2497 12.4041 921 85.7546 1164.68 476.058
3836 0 77.289 12.8349 992 85.0605 1164.18 476.601
3837 0 80.4374 12.5936 1013 85.8598 1164.05 474.963
3838 0 78.301 12.784 1001 87.3197 1164.53 472.634
3839 0 79.22 12.825 1016 87.5276 1164.7 471.392
3840 0 83.309 12.3876 1032 88.0417 1165.15 468.012
3841 0 83.199 12.7886 1064 87.9549 1164.78 465.692
3842 0 86.2354 12.7094 1096 87.8522 1164.59 464.584
3843 0 86.1787 12.7294 1097 90.144 1163.71 462.905
3844 0 90.187 12.6958 1145 89.0952 1164.6 462.429
3845 0 91.2924 11.863 1083 91.7719 1164.06 463.384
3846 0 93.2137 12.0583 1124 91.9822 1164.03 459.576
3847 0 93.1518 12.6997 1183 91.6948 1163.16 457.187
3848 0 96.1758 11.9677 1151 93.1095 1163.56 456.215
3849 0 100.289 12.135 1217 92.3722 1163.37 455.682
3850 0 107.189 12.9397 1387 89.7837 1163.9 454.108
3851 0 109.182 12.6211 1378 90.9637 1163.93 451.234
3852 1 59.1096 10.1506 600 91.8033 1164.42 473.02
3853 0 62.0947 10.7256 666 89.9459 1164.44 472.577
