time division length width area intensity CMx CMy
0 0 50.1035 12.9931 651 59.3379 1250.39 491.108
1 0 51.1043 12.543 641 63.3619 1249.83 488.739
2 0 53.2156 13.6426 726 63.1377 1250.93 489.642
3 0 53.119 13.2344 703 66.8208 1250.01 489.681
4 0 56.0834 13.4799 756 67.6931 1250.84 487.644
5 0 57.1298 12.7604 729 71.2085 1250.71 486.295
6 0 58.1453 13.2599 771 71.1881 1251.24 486.786
7 0 60.0722 12.8013 769 73.2211 1250.98 487.081
8 0 62.1597 13.401 833 73.0912 1250.79 485.465
9 0 64.0755 13.3124 853 74.2872 1251.23 484.695
10 0 64.1034 12.4018 795 76.8868 1250.71 484.901
11 0 68.0891 13.497 919 74.4342 1250.14 483.69
12 0 71.0716 13.3387 948 75.9821 1250.92 482.689
13 0 73.1037 13.6655 999 74.7347 1249.82 479.425
14 0 76.14 13.8692 1056 75.1676 1249.32 478.958
15 0 78.178 13.6739 1069 76.898 1249 477.479
16 0 82.2448 14.007 1152 78.1354 1250.06 477.383
17 0 85.3126 13.6674 1166 79.7067 1249.21 475.508
18 0 89.296 13.976 1248 79.8285 1249.34 474.928
19 0 93.4091 14.5917 1363 79.5282 1249.15 472.054
20 0 95.2312 14.8691 1416 81.0565 1247.75 470.626
21 1 49.0514 12.5786 617 79.3177 1248.73 494.277
22 0 48.1477 12.7109 612 80.0997 1247.88 492.828
23 0 51.2002 13.2031 676 77.3195 1249.08 490.938
24 0 53.0319 14.199 753 76 1248.58 491.772
25 0 54.0842 13.7378 743 77.7483 1248.28 489.623
26 0 57.1448 14.3145 818 75.7311 1248.45 486.911
27 0 58.0142 13.7725 799 84.6233 1248.9 486.762
28 0 62.0528 15.1806 942 80.4374 1248.89 486.879
29 0 62.0489 14.2468 884 82.9231 1248.37 486.431
30 0 64.0182 14.1835 908 83.5529 1248.17 485.155
31 0 67.0332 14.4555 969 81.9897 1248.8 484.811
32 0 68.0699 14.2207 968 82.4587 1248.24 483.461
33 0 68.0699 14.2354 969 162.528 1247.24 483.426
34 0 73.1808 14.6486 1072 77.5299 1247.88 481.188
35 0 75.0652 14.614 1097 78.0729 1248.34 482.064
36 0 78.1541 14.7273 1151 77.9687 1248.7 479.861
37 0 79.1713 14.6518 1160 80.3302 1248.12 478.109
38 0 82.1499 14.1205 1160 82.7957 1248.22 477.246
39 0 83.1122 14.5466 1209 81.4376 1247.7 476.394
40 0 87.0922 14.1804 1235 83.4332 1248.02 474.544
41 0 90.125 14.3467 1293 83.6798 1247.7 474.008
42 0 94.3002 14.3584 1354 83.1987 1247.66 472.357
43 0 94.2352 13.8908 1309 85.3972 1247.67 468.546
44 0 100.228 14.0479 1408 84.3438 1247.44 466.17
45 0 103.269 13.6634 1411 84.8887 1246.96 464.589
46 0 107.352 14.1404 1518 83.6443 1247.3 462.162
47 0 110.324 14.6569 1617 82.9431 1247.03 461.565
48 0 114.452 14.2505 1631 84.141 1247.5 457.604
49 0 118.454 14.9003 1765 82.9314 1247.18 454.912
50 0 122.393 14.8947 1823 82.5052 1247 454.132
51 0 125.366 14.6132 1832 83.7118 1247.02 450.41
52 0 131.414 14.7853 1943 82.0304 1247.76 448.477
53 0 136.483 15.0421 2053 81.492 1246.84 445.816
54 0 139.537 14.1969 1981 83.7587 1247.38 441.075
55 0 143.362 14.3692 2060 82.2306 1247.25 439.534
56 0 149.297 14.4946 2164 82.9704 1247.89 433.866
57 1 74.1654 12.7013 942 80.5329 1248.32 468.481
58 0 75.1829 13.3142 1001 80.3457 1248.28 468.616
59 0 77.1704 13.1916 1018 80.0815 1249.16 468.471
60 0 80.1857 13.4937 1082 78.6488 1248.66 469.687
61 0 83.1193 13.1498 1093 79.4565 1248.4 474.232
62 0 85.1221 12.8521 1094 80.7221 1248.3 472.013
63 0 87.0879 12.7802 1113 81.0512 1248.19 472.489
64 0 92.1357 13.784 1270 79.6142 1247.94 467.779
65 0 94.1123 13.5051 1271 80.4524 1248.21 468.504
66 0 97.0971 13.5946 1320 79.7227 1247.99 465.679
67 0 99.0709 13.3137 1319 79.7976 1248.27 464.627
68 0 103.116 13.3248 1374 79.2504 1248.3 461.713
69 0 104.132 12.9163 1345 80.4796 1248.31 459.091
70 0 107.143 13.356 1431 80.1279 1248.36 457.208
71 0 113.145 13.6285 1542 80.2879 1248.21 453.725
72 0 114.211 12.906 1474 82.6235 1248.16 449.664
73 0 119.239 13.259 1581 82.3112 1248.15 446.441
74 0 124.179 13.6013 1689 82.3884 1247.3 445.156
75 0 125.165 13.5501 1696 84.3219 1247.36 444.67
76 0 135.232 14.1756 1917 82.5336 1247.08 441.709
77 0 136.086 13.7413 1870 85.8433 1246.88 437.725
78 0 143.2 13.75 1969 85.4764 1246.99 437.261
79 1 73.0646 11.5788 846 78.9232 1247.42 478.547
80 0 75.0242 12.476 936 84.515 1247.57 478.765
81 0 78.0609 13.0539 1019 79.1452 1249.75 479.2
82 0 77.0937 12.5821 970 80.9598 1249.36 477.003
83 0 80.0959 13.2466 1061 78.3836 1248.55 477.922
84 0 83.1336 13.4964 1122 78.5882 1249.58 475.012
85 0 86.0409 13.9236 1198 78.0576 1248.68 475.311
86 0 88.1018 12.8488 1132 79.7765 1249.09 474.479
87 0 89.1583 13.2349 1180 79.0237 1249.55 471.868
88 0 92.0778 13.456 1239 78.8814 1249.32 471.863
89 0 95.2045 13.3922 1275 78.0471 1248.25 468.439
90 0 98.1587 12.816 1258 78.3315 1249.1 468.581
91 0 101.131 12.8645 1301 78.1668 1249.1 467.045
92 0 104.17 13.7468 1432 77.8317 1248.96 464.282
93 0 107.107 13.3978 1435 77.6718 1248.82 463.029
94 0 110.119 12.768 1406 78.8229 1248.62 463.25
95 0 112.169 12.8645 1443 79.4865 1248.78 458.307
96 0 117.117 12.7565 1494 79.666 1248.45 457.616
97 1 65.072 9.40496 612 75.9837 1248.3 486.485
98 0 66.2565 11.2442 745 73.655 1248.49 481.384
99 0 70.1572 11.8733 833 72.6122 1248.22 481.101
100 0 72.1402 12.6282 911 74.5565 1249.07 480.241
101 0 73.1162 12.4323 909 81.0429 1249.43 477.499
102 0 79.1339 12.4346 984 79.7317 1248.96 477.379
103 0 80.0928 12.2483 981 80.7951 1249.2 477.34
104 0 82.0693 11.9046 977 81.4933 1249.42 473.523
105 0 84.0788 12.7499 1072 79.3134 1249.72 470.629
106 0 86.1567 11.9201 1027 80.1178 1249.57 469.644
107 0 90.1346 12.1929 1099 79.4268 1249.29 469.561
108 0 91.1343 12.3225 1123 78.9492 1248.71 468.655
109 0 94.1981 12.0066 1131 78.8603 1249.03 466.611
110 0 99.3992 12.3945 1232 77.7378 1248.4 464.177
111 0 102.244 12.7832 1307 76.5409 1248.93 463.734
112 0 103.195 12.365 1276 77.3166 1249.03 462.375
113 0 106.164 12.1039 1285 76.8389 1248.58 460.265
114 1 57.1501 10.0437 574 71.9355 1248.31 486.667
115 0 59.1473 11.0233 652 66.8681 1247.62 484.018
116 0 61.2706 9.9232 608 68.7895 1247.36 482.678
117 0 62.086 10.5821 657 67.21 1246.99 482.588
118 0 66.1385 12.0354 796 65.8693 1246.09 480.872
119 0 66.1317 11.9761 792 103.207 1245.15 480.819
120 0 69.0965 12.3161 851 65.0235 1246.97 478.264
121 0 74.1725 12.9563 961 64.3611 1246.96 479.763
122 0 75.0852 12.8521 965 64.3648 1247.13 477.736
123 0 79.1857 12.136 961 63.7627 1247.12 476.427
124 0 80.1667 12.8732 1032 63.4293 1247.75 475.216
125 0 84.1971 11.5087 969 63.581 1248.29 472.879
126 0 84.1063 11.8778 999 63.0831 1247.49 472.897
127 0 89.255 11.6184 1037 62.2006 1247.61 472.017
128 0 92.1372 12.2643 1130 61.7947 1247.75 470.445
129 0 95.1891 11.8186 1125 61.8373 1247.74 469.092
130 0 97.1784 10.774 1047 64.2741 1247.41 467.921
131 1 50.0463 9.93081 497 65.2173 1246.81 491.256
132 0 51.0444 10.1676 519 62.6609 1245.94 490.547
133 0 55.1007 10.0906 556 58.5701 1247.35 488.424
134 0 56.0922 10.8571 609 58.688 1247.27 490.241
135 0 56.0095 10.159 569 57.2021 1246.63 484.942
136 0 55.0206 10.6142 584 60.8134 1249.22 479.726
137 0 53.0148 9.4502 501 64.0419 1248.47 479.118
138 0 57.0985 11.2262 641 60.3261 1245.99 478.289
139 0 57.0968 9.73784 556 63.9281 1245.48 476.286
140 0 62.1112 9.7567 606 62.7013 1246.3 477.63
141 0 63.1743 9.49753 600 63.7817 1245.47 476.925
142 0 66.1279 10.4041 688 64.7994 1246.28 476.952
143 0 70.1997 11.3248 795 63.6491 1246.4 476.732
144 0 73.0954 11.1909 818 64.2457 1246.21 474.968
145 0 75.1075 10.931 821 65.6188 1246.43 475.826
146 0 79.2009 12.0579 955 70.5152 1246.9 476.591
147 0 86.0894 13.6486 1175 71.486 1246.03 479.085
148 0 89.1884 13.7125 1223 71.9902 1246.12 476.816
149 0 90.1793 13.9611 1259 73.4392 1246.52 474.053
150 0 92.1791 13.9945 1290 75.1729 1246.45 472.249
151 0 96.1377 13.9696 1343 74.9092 1246.79 472.506
152 0 99.1705 14.0566 1394 75.9842 1246.4 470.257
153 0 103.167 15.0242 1550 73.0123 1246.32 470.319
154 0 105.134 14.296 1503 78.851 1245.92 466.867
155 0 107.212 13.6645 1465 79.9638 1245.97 466.056
156 1 56.0788 12.0366 675 78.2341 1245.73 493.093
157 0 57.0977 12.2247 698 76.5616 1245.94 492.764
158 0 58.2848 13.5198 788 74.5254 1247.01 489.849
159 0 59.0675 12.7651 754 71.3408 1246 489.515
160 0 62.0369 13.3791 830 72.3747 1245.56 489.94
161 0 63.0387 12.9286 815 74.0442 1246.19 488.417
162 0 66.0481 13.4145 886 72.6648 1245.85 488.56
163 0 64.0481 12.7717 818 76.8399 1245.66 489.452
164 0 65.0691 12.7557 830 77.9446 1245.04 487.404
165 0 68.0442 12.5801 856 77.9463 1245.59 487.133
166 0 72.0475 13.3384 961 76.0708 1245.74 485.57
167 0 74.0532 12.8421 951 78.9832 1246.41 483.12
168 0 76.0277 13.8107 1050 77.561 1246.69 483.723
169 0 77.0433 13.5768 1046 79.2409 1246.53 482.652
170 0 79.0608 13.0785 1034 80.353 1246.08 480.486
171 0 82.0528 13.8082 1133 78.8129 1246.48 478.883
172 0 85.0536 13.8266 1176 78.4966 1246.54 476.727
173 0 87.0591 14.1054 1228 79.3518 1246.22 474.915
174 0 89.0369 13.7808 1227 79.3488 1246.47 475.637
175 0 92.059 14.0345 1292 79.7995 1245.86 474.286
176 0 95.0818 13.9985 1331 79.9519 1245.48 472.03
177 0 100.143 14.1299 1415 78.3654 1246.6 472.564
178 0 102.12 14.0129 1431 79.7729 1247.11 469.665
179 0 104.193 13.974 1456 79.8379 1247.39 468.049
180 0 107.168 13.3716 1433 80.4759 1247.12 465.073
181 0 111.111 13.1941 1466 80.2115 1247.32 464.412
182 1 62.0769 12.9839 806 81.273 1248.11 487.917
183 0 63.1901 13.3091 841 82.1189 1247.95 486.95
184 0 65.0945 13.2576 863 81.3557 1247.92 486.634
185 0 65.1318 12.6359 823 80.0583 1247.55 487.892
186 0 66.1084 13.1148 867 80.4002 1247.38 485.678
187 0 68.071 12.4576 848 80.8255 1247.75 487.591
188 0 70.1725 12.9681 910 80.3143 1248.05 485.103
189 0 71.1824 12.5733 895 82.0704 1248.22 483.984
190 0 74.2034 12.87 955 81.2335 1248.21 479.912
191 0 76.2053 12.1251 924 83.3182 1247.49 479.239
192 0 79.1932 12.943 1025 83.1902 1247.01 478.42
193 0 80.2214 12.7522 1023 83.6295 1246.91 477.312
194 0 85.157 13.4692 1147 82.6129 1246.57 476.854
195 0 87.1359 13.1404 1145 83.6384 1246.81 475.713
196 0 91.1201 13.4438 1225 83.9918 1247.48 473.296
197 0 93.192 12.8552 1198 86.3873 1246.5 470.617
198 0 96.1076 12.9022 1240 85.3847 1246.31 469.793
199 0 98.2029 12.8815 1265 86.1423 1246.62 468.65
200 1 51.0251 11.4649 585 87.812 1247.39 490.349
201 0 52.0402 11.4719 597 87.3082 1245.75 490.702
202 0 56.0279 12.3332 691 110.266 1246.25 489.887
203 0 57.0673 12.7043 725 109.145 1246.7 488.663
204 0 56.1273 12.5251 703 106.023 1246.08 489.871
205 0 59.1747 12.0998 716 104.149 1246.19 488.782
206 0 58.1189 11.9755 696 107.277 1246.25 488.296
207 0 62.1083 12.9612 805 104.086 1246.13 485.708
208 0 64.1146 12.9144 828 103.688 1245.82 486.669
209 0 67.255 13.2481 891 102.898 1246.27 485.264
210 0 68.1482 13.0891 892 107.021 1245.24 483.41
211 0 72.2831 13.2811 960 104.579 1246.03 483.709
212 0 74.273 13.3427 991 105.286 1246.74 481.492
213 0 74.2442 13.7385 1020 110.352 1246.56 480.671
214 0 78.2744 13.8359 1083 108.374 1246.17 478.699
215 0 81.2329 14.1814 1152 108.019 1246.09 477.816
216 0 83.1347 13.7969 1147 109.732 1246.65 476.874
217 0 88.2413 14.1204 1246 108.278 1244.56 475.279
218 0 88.2083 13.8762 1224 110.01 1244.12 474.3
219 0 92.1628 13.6389 1257 110.837 1244.86 471.185
220 0 96.2761 13.9079 1339 108.063 1244.63 469.436
221 1 52.3478 12.0731 632 109.19 1244.95 490.774
222 0 55.3953 11.6255 644 110.655 1245.92 489.571
223 0 56.2934 13.2342 745 105.573 1245.38 489.901
224 0 58.0382 13.0087 755 105.882 1247.7 488.57
225 0 59.0323 13.7213 810 101.88 1247.61 486.949
226 0 61.0601 13.5277 826 102.203 1247.56 486.134
227 0 63.049 13.0216 821 104.227 1246.88 485.948
228 0 65.061 13.6795 890 102.122 1247.04 484.775
229 0 66.0599 12.9579 856 104.766 1247.18 484.692
230 0 66.0877 12.6045 833 102.661 1246.84 485.4
231 0 66.1256 12.7636 844 101.301 1247.13 484.013
232 0 71.1108 12.8672 915 99.4284 1246.48 483.049
233 0 71.0645 12.0735 858 102.663 1247.21 480.492
234 0 74.0947 12.511 927 102.443 1247.1 478.77
235 0 76.1668 11.9737 912 103.786 1247 477.407
236 0 78.1468 12.259 958 102.514 1246.75 477.463
237 0 81.2052 12.2406 994 102.369 1246.39 477.137
238 0 83.2272 12.4719 1038 101.961 1246.88 477.212
239 0 84.1692 11.7383 988 105.787 1245.99 473.804
240 0 87.3441 11.7924 1030 105.826 1245.72 472.107
241 0 89.1395 12.5421 1118 103.144 1246.43 470.816
242 0 90.1101 12.0852 1089 104.343 1246.88 469.178
243 0 92.2037 11.7132 1080 101.449 1246.26 467.214
244 0 93.1481 11.6696 1087 99.1325 1246.25 464.13
245 0 94.2214 11.197 1055 103.597 1245.5 460.072
246 0 100.242 11.8314 1186 101.75 1245.65 458.724
247 1 49.0631 9.86485 484 90.4607 1246.24 484.758
248 0 52.0579 10.738 559 89.0233 1246.09 484.649
249 0 53.0194 11.2789 598 91.112 1246.61 482.247
250 0 56.0472 10.6339 596 95.2718 1246.49 483.861
251 0 60.058 11.7387 705 100.43 1247.27 486.143
252 0 62.0825 12.129 753 97.8592 1247.46 485.458
253 0 62.0447 12.217 758 100.513 1247.1 483.801
254 0 64.0673 12.0654 773 99.2678 1246.83 481.463
255 0 65.0358 12.6853 825 98.1503 1246.93 480.984
256 0 67.0479 11.8274 793 101.462 1246.97 479.723
257 0 69.0531 13.0479 901 97.1199 1247.51 480.375
258 0 73.0593 12.7568 932 98.1491 1247.31 477.536
259 0 74.0554 13.1523 974 98.0554 1247.36 476.283
260 0 75.03 12.6749 951 100.2 1246.53 473.905
261 0 76.1511 13.1449 1001 99.2088 1246.36 474.16
262 0 79.0981 13.4011 1060 98.534 1246.47 471.785
263 0 81.226 12.7176 1033 102.774 1244.13 472.84
264 0 85.2335 13.4337 1145 101.12 1244.19 471.655
265 0 86.174 12.9505 1116 103.444 1245.24 470.168
266 0 90.1429 13.5784 1224 101.705 1244.83 469.538
267 0 92.1838 13.2887 1225 102.59 1245.15 466.998
268 0 96.161 13.5398 1302 103.171 1244.54 464.333
269 0 98.1676 13.2121 1297 104.591 1244.98 464.152
270 0 102.272 13.4543 1376 103.569 1244.9 462.719
271 0 104.323 12.8064 1336 104.897 1244.86 460.612
272 0 108.317 13.4512 1457 102.784 1244.56 460.238
273 0 108.317 13.4605 1458 151.467 1244.56 460.233
274 0 116.383 13.593 1582 101.318 1244.83 457.73
275 1 53.2354 11.5337 614 98.886 1245.09 487.64
276 0 55.1608 11.8381 653 96.9847 1244.53 485.683
277 0 57.4163 12.6097 724 93.6036 1245.66 488.088
278 0 58.364 12.799 747 93.7202 1245.78 486.791
279 0 61.4386 12.7444 783 94.1545 1245.5 485.92
280 0 63.2005 13.1012 828 94.6063 1245.52 485.198
281 0 64.2863 12.8332 825 96.9212 1245.67 483.708
282 0 65.3059 13.0922 855 96.324 1245.54 484.64
283 0 69.4011 13.2563 920 96.988 1245.32 483.443
284 0 72.3368 13.5339 979 96.5679 1245.18 482.233
285 0 74.3232 13.7911 1025 96.5873 1245.34 481.59
286 0 78.1924 13.3005 1040 97.85 1243.73 481.955
287 0 77.1965 13.226 1021 100.417 1243.98 480.043
288 0 80.1828 13.0203 1044 100.302 1243.92 479.687
289 0 83.1341 12.8828 1071 99.8403 1243.93 478.331
290 1 46.0766 11.2204 517 94.0812 1243.97 497.029
291 0 45.0502 11.1431 502 86.4701 1245.76 497.125
292 0 48.0846 12.1037 582 87.6649 1246.61 495.854
293 0 48.0199 12.0992 581 97.4062 1246.99 495.207
294 0 47.4049 11.5811 549 101.745 1245.72 494.24
295 0 51.2775 12.3056 631 101.239 1245.68 492.691
296 0 50.3198 12.4802 628 102.895 1245.19 493.011
297 0 50.3198 12.4205 625 166.766 1245.11 492.944
298 0 55.3516 12.9174 715 99.5538 1245.29 490.947
299 0 56.3903 12.8923 727 102.265 1245.74 489.853
300 0 55.3751 12.4966 692 104.342 1245.54 490.085
301 0 59.2222 13.1539 779 97.665 1245.4 488.237
302 0 58.2267 12.2452 713 89.8738 1244.97 491.405
303 0 61.2251 11.9069 729 89.4582 1245.28 492.08
304 0 61.2119 12.1055 741 90.2132 1245.14 488.233
305 0 63.2078 12.4985 790 90.8646 1244.44 485.737
306 0 67.3832 11.4569 772 91.6516 1244.95 486.947
307 0 67.1862 12.056 810 89.6877 1244.58 483.43
308 0 70.3071 12.1325 853 87.5205 1244.38 485.06
309 0 73.2196 12.8791 943 87.106 1244.27 482.475
310 0 76.1564 12.8683 980 88.7633 1244.26 481.472
311 0 79.1814 12.3514 978 91.7802 1244.81 478.421
312 0 81.1446 12.299 998 94.016 1244.58 479.257
313 1 43.0481 9.84945 424 85.8844 1244.42 500.314
314 0 42.1111 10.9472 461 85.8091 1244.46 500.002
315 0 44.1516 10.781 476 86.4181 1244.15 498.674
316 0 45.3104 11.035 500 86.962 1244.61 497.214
317 0 48.4543 11.2271 544 83.7132 1246.22 494.715
318 0 49.5002 11.3535 562 86.0605 1244.7 491.064
319 0 50.1766 11.9976 602 84.887 1244.04 494.85
320 0 51.1992 12.4807 639 84.8983 1245.28 495.488
321 0 55.1476 11.6778 644 84.059 1244.72 494.804
322 0 56.2735 12.8302 722 84.2784 1245.35 494.493
323 0 57.2145 12.8988 738 86.1423 1244.6 492.866
324 0 58.2604 12.9076 752 85.8311 1244.82 494.529
325 0 58.2788 12.7319 742 89.5674 1244.14 492.349
326 0 61.2423 12.2791 752 89.9295 1244.28 492.465
327 0 61.2859 12.303 754 91.5252 1244.33 490.577
328 0 65.2537 12.6583 826 100.88 1244.21 490.827
329 0 65.2575 12.0293 785 102.852 1244.5 490.287
330 0 68.2601 12.6282 862 99.8132 1243.82 489.385
331 0 68.2531 12.6588 864 148.484 1243.82 489.439
332 0 72.2277 13.2636 958 96.5919 1244.12 485.213
333 0 74.2269 12.2058 906 100.832 1243.76 484.706
334 0 77.2615 12.2053 943 99.4624 1243.27 485.082
335 0 78.1638 12.2563 958 100.542 1243 482.898
336 0 83.3414 12.6468 1054 98.7343 1242.84 481.694
337 0 83.3549 12.8007 1067 100.881 1242.73 477.888
338 0 85.4629 12.5318 1071 100.554 1242.61 474.967
339 0 88.443 12.5278 1108 102.463 1242.52 474.178
340 0 92.4764 12.76 1180 100.226 1241.82 471.769
341 0 93.3675 12.3705 1155 102.987 1241.26 469.465
342 0 98.4257 12.6999 1250 101.716 1241.32 470.596
343 0 100.551 11.7552 1182 104.259 1241.38 467.975
344 1 53.1768 10.324 549 98.5373 1241.24 492.996
345 0 53.1372 11.6303 618 97.945 1243.1 495.861
346 0 57.0975 11.5942 662 102.279 1243.28 493.304
347 0 57.1443 12.6697 724 100.702 1240.82 492.377
348 0 57.1416 11.9703 684 104.655 1240.65 492.371
349 0 58.169 11.8448 689 104.425 1240.1 492.967
350 0 62.0411 12.3628 767 95.4785 1240.93 491.484
351 0 61.0794 11.6078 709 98.268 1241.07 490.735
352 0 63.0658 11.7972 744 97.0242 1240.61 490.281
353 0 66.1315 12.7776 845 94.4343 1240.93 488.783
354 0 67.0672 12.2713 823 96.1434 1240.87 488.035
355 0 71.1262 12.4427 885 94.6441 1241.55 487.621
356 0 73.1366 12.6886 928 95.4235 1241.29 486.245
357 0 75.1542 12.3346 927 96.2837 1241.79 484.945
358 0 77.1259 12.4342 959 96.8707 1241.35 483.347
359 0 79.2295 12.7478 1010 96.8703 1241.49 482.755
360 0 82.1388 12.7832 1050 101.051 1241.61 479.885
361 0 84.1157 12.887 1084 101.71 1240.52 478.043
362 0 87.0504 12.6364 1100 102.539 1242.3 475.561
363 0 90.1465 12.6794 1143 99.2642 1241.37 476.847
364 0 93.1889 12.5337 1168 98.8211 1241.84 473.875
365 0 97.156 13.3497 1297 96.2328 1242.64 471.753
366 0 100.311 13.0594 1310 96.4687 1243.07 470.403
367 0 102.412 12.8305 1314 97.019 1242.73 467.935
368 0 106.262 12.7797 1358 96.6355 1241.76 466.276
369 1 53.2781 10.3983 554 91.5108 1243.69 492.892
370 0 55.2085 10.7954 596 90.6762 1244.02 490.545
371 0 58.1867 11.6006 675 86.7867 1243.35 488.954
372 0 59.1712 11.9484 707 85.6322 1243.48 487.621
373 0 60.0449 11.7246 704 86.2727 1242.92 489.641
374 0 61.1751 11.7205 717 86.3612 1241.58 488.172
375 0 63.0941 10.7934 681 88.8811 1242.58 487.586
376 0 62.089 10.4527 649 88.0324 1242.15 486.602
377 0 64.1063 10.8726 697 87.439 1242.26 485.08
378 0 67.1688 10.6448 715 86.5427 1242.81 483.649
379 0 69.1675 10.7131 741 85.363 1242.33 484.223
380 0 73.0997 10.985 803 84.462 1242.55 482.394
381 0 74.1593 11.3809 844 84.9526 1242.33 479.94
382 0 78.1417 11.428 893 84.9429 1242.59 479.984
383 0 79.2342 10.8034 856 85.1881 1242.88 477.855
384 0 82.159 11.0152 905 83.3083 1243.31 475.864
385 0 86.1484 11.0043 948 85.7943 1243.78 474.509
386 0 88.2248 10.9946 970 87.1763 1244.01 471.802
387 0 92.241 11.7843 1087 83.4462 1243.17 470.672
388 0 92.2106 10.4543 964 86.0415 1243.99 468.992
389 0 96.2209 10.9124 1050 84.2467 1243.83 468.026
390 0 100.27 10.9405 1097 83.1422 1243.6 465.413
391 0 102.126 12.1223 1238 83.3538 1243.22 464.204
392 0 107.301 12.1434 1303 80.3899 1243.71 461.063
393 0 111.289 11.9598 1331 84.8911 1243.59 458.052
394 1 60.1019 9.73347 585 80.6462 1244.82 486.515
395 0 60.0858 9.86922 593 78.0084 1245.46 484.892
396 0 64.2233 11.4289 734 78.6131 1245.29 483.136
397 0 65.1518 11.312 737 79.5767 1243.63 482.161
398 0 68.1584 12.3242 840 76.9762 1244.74 483.452
399 0 69.1794 11.781 815 79.5031 1245.22 481.499
400 0 68.1871 10.5592 720 82.2722 1245.23 480.844
401 0 74.1997 12.5068 928 77.8071 1244.82 478.259
402 0 75.2406 11.2838 849 80.7079 1244.69 477.021
403 0 77.1088 11.6848 901 81.4351 1244.61 475.688
404 0 81.2162 12.0789 981 81.6004 1245.08 475.953
405 0 83.1501 11.8942 989 82.1709 1244.9 476.624
406 0 86.2832 12.4474 1074 81.2765 1244.39 475.147
407 0 88.235 12.0134 1060 82.8085 1244.64 474.614
408 0 90.283 12.2947 1110 83.4541 1244.34 472.705
409 0 92.4126 11.8815 1098 85.6448 1244.18 469.719
410 0 96.4491 11.6953 1128 88.3165 1243.93 467.542
411 0 99.5141 12.1691 1211 87.7085 1243.77 466.245
412 0 103.482 12.5046 1294 87.9219 1243.08 465.389
413 0 99.1878 11.0397 1095 83.4493 1244.42 456.969
414 1 51.0497 9.97068 509 83.1866 1245.18 485.232
415 0 52.02 10.0538 523 84.7667 1245.52 484.973
416 0 59.2415 12.5081 741 82.4548 1244.26 487.984
417 0 63.0398 11.9766 755 86.0119 1245.94 487.51
418 0 63.045 12.039 759 86.6719 1245.48 489.215
419 0 63.045 12.0073 757 145.972 1244.49 489.305
420 0 69.0845 12.5643 868 85.2949 1245.09 484.897
421 0 68.1914 11.937 814 88.3882 1242.79 483.172
422 0 68.1914 12.025 820 146.624 1241.76 483.129
423 0 72.2288 11.8928 859 89.9523 1245.07 481.57
424 0 76.2468 12.2497 934 89.9251 1244.12 480.318
425 0 75.2167 12.5637 945 91.5164 1243.5 479.835
426 0 79.2729 13.1192 1040 89.974 1243.17 478.371
427 0 81.3211 12.506 1017 91.5221 1243.98 476.542
428 0 85.3341 12.7968 1092 91.3306 1244.29 476.571
429 0 87.3403 12.8234 1120 90.2536 1244.18 476.451
430 0 88.2503 12.8725 1136 91.3504 1242.93 474.36
431 0 92.3134 13.0642 1206 90.6584 1243.37 473.197
432 0 94.4337 12.1461 1147 92.6609 1242.59 471.882
433 0 95.351 12.627 1204 92.2865 1243.15 469.838
434 0 100.229 12.7009 1273 91.586 1243.23 468.2
435 1 50.0188 10.796 540 90.4278 1245.65 492.278
436 0 50.0174 10.8362 542 144.31 1246.64 492.269
437 0 55.1078 11.8132 651 85.4578 1244.04 491.63
438 0 57.0518 11.6736 666 86.5405 1244.06 489.863
439 0 57.1254 12.0262 687 86.2999 1243.57 487.952
440 0 60.1026 11.131 669 86.843 1244.14 488.833
441 0 61.1196 12.2056 746 85.4182 1243.28 487.302
442 0 62.0612 11.6981 726 85.3361 1243.74 488.021
443 0 64.0726 12.1113 776 84.2461 1243.64 486.642
444 0 66.102 12.1025 800 83.9762 1244.54 485.335
445 0 68.068 12.37 842 82.5938 1243.51 484.519
446 0 69.0906 12.2159 844 83.0474 1242.98 485.156
447 0 71.0735 12.5645 893 83.2318 1243.74 482.204
448 0 73.1411 12.428 909 83.2684 1243.35 481.199
449 0 75.0698 12.3352 926 85.433 1241.79 481.718
450 0 78.0583 12.7341 994 84.2817 1241.76 480.549
451 0 78.0285 11.688 912 88.9364 1241.6 478.798
452 0 81.045 12.2895 996 85.4829 1242.11 479.097
453 0 85.0581 12.4973 1063 85.0122 1242.2 478.298
454 0 87.0435 12.2123 1063 84.4967 1241.52 476.077
455 0 87.0667 11.7956 1027 87.6417 1241.17 473.627
456 0 91.0432 11.3353 1032 86.8169 1241.18 474.202
457 1 47.024 10.4415 491 83.5173 1242.4 495.646
458 0 47.0573 10.9016 513 83.3021 1241.82 493.986
459 0 47.011 10.1253 476 83.9454 1241.93 492.973
460 0 49.0063 11.1822 548 79.6898 1242.32 490.969
461 0 52.0164 11.1503 580 80.6483 1245.25 491.333
462 0 53.0157 11.3174 600 79.8717 1245.59 490.117
463 0 55.0258 11.5946 638 78.1301 1245.17 489.346
464 0 56.0639 11.148 625 79.0208 1245.37 489.798
465 0 57.0434 11.4649 654 78.9327 1244.74 488.896
466 0 60.0426 11.1088 667 79.8636 1244.94 486.75
467 0 62.0503 11.958 742 78.973 1245.18 483.633
468 0 65.028 12.7483 829 76.7986 1244.85 483.344
469 0 67.0831 12.164 816 77.9301 1244.63 482.411
470 0 70.0824 11.9574 838 78.4284 1245.36 483.655
471 0 71.0965 12.3494 878 77.6025 1245.05 483.329
472 0 71.2536 12.2661 874 79.8833 1243.79 480.989
473 0 74.3053 12.5698 934 78.6617 1243.04 479.043
474 0 76.3514 12.2329 934 79.8298 1243.13 477.32
475 0 77.3199 12.0668 933 78.7814 1243.3 476.116
476 0 80.202 12.6306 1013 77.5726 1243.11 474.095
477 0 81.2238 12.6071 1024 77.7773 1242.79 475.286
478 0 85.2187 11.934 1017 79.1554 1242.68 472.68
479 0 86.2492 12.3016 1061 77.7314 1243.39 473.366
480 0 89.3064 12.7314 1137 76.9332 1242.41 470.677
481 0 93.1824 11.6546 1086 76.7974 1242.02 467.248
482 0 94.2276 11.4192 1076 76.4638 1241.97 466.592
483 1 45.0308 9.30474 419 72.8305 1243.98 492.155
484 0 48.0903 9.35739 450 68.16 1243.83 491.731
485 0 49.0632 10.2725 504 68.5437 1243.23 490.698
486 0 51.1762 10.2587 525 69.5181 1242.31 490.973
487 0 52.1968 10.8053 564 71.9202 1243.87 492.429
488 0 52.1625 11.0808 578 70.628 1243.76 489.701
489 0 53.086 10.9822 583 72.8062 1243.96 490.597
490 0 58.1955 11.6504 678 70.5664 1244.06 491.886
491 0 58.1321 11.3879 662 72.2628 1243.37 490.394
492 0 60.1318 11.8573 713 71.3857 1243.93 489.979
493 0 62.1146 11.9135 740 73.0041 1243.68 488.284
494 0 62.1963 12.2355 761 72.1104 1243.77 487.639
495 0 65.2421 11.5263 752 73.3896 1242.84 486.931
496 0 65.1868 12.0116 783 73.0932 1242.45 485.421
497 0 68.2159 12.4458 849 72.4205 1242.24 485.011
498 0 70.3088 13.014 915 72.0831 1243.3 483.527
499 0 70.1738 12.0273 844 77.4301 1243.74 482.596
500 0 74.2522 12.6596 940 76.0851 1243.24 479.964
501 0 75.1586 12.1609 914 77.3501 1242.72 478.623
502 0 80.1971 12.7062 1019 77.2355 1242.63 478.124
503 0 81.3863 11.9922 976 79.4426 1242.43 476.389
504 0 84.3314 11.8461 999 79.7077 1242.74 474.058
505 0 85.1378 12.1685 1036 78.8176 1242.56 469.949
506 0 86.1389 11.435 985 81.1949 1242.92 468.389
507 1 43.0248 10.0872 434 79.8825 1243.42 490.046
508 0 43.0995 9.76809 421 78.9192 1243.7 485.941
509 0 46.1529 10.1185 467 76.2955 1243.25 486.084
510 0 47.0583 10.6889 503 76.334 1243.48 484.28
511 0 45.0978 10.4883 473 72.704 1242.86 485.273
512 0 50.065 9.98702 500 74.338 1243.87 485.99
513 0 52.0738 9.33291 486 75.6276 1242.67 483.257
514 0 55.1619 10.5145 580 74.1431 1242.34 484.462
515 0 54.115 10.0342 543 76.1308 1243.1 483
516 0 60.0929 11.8317 711 71.789 1242.37 484.778
517 0 64.0408 12.5545 804 77.7052 1242.77 486.57
518 0 67.0496 12.0806 810 78.637 1242.97 487.72
519 0 68.0282 12.5683 855 79.6164 1242.72 486.523
520 0 70.1254 12.1924 855 81.0058 1242.95 485.22
521 0 73.0508 11.9095 870 81.4172 1242.41 483.876
522 0 76.0915 12.4193 945 79.1069 1242.98 482.62
523 0 78.0754 11.6554 910 81.0736 1242.52 482.988
524 0 81.0944 12.7752 1036 78.416 1242.21 481.228
525 0 84.0862 12.2612 1031 79.7701 1243.16 479.193
526 0 84.1155 11.7101 985 80.7086 1242.96 479.091
527 0 89.064 12.4293 1107 79.2782 1242.71 477.743
528 0 92.1074 12.0946 1114 80.9659 1242.85 476.381
529 0 94.1322 11.7813 1109 82.4698 1242.69 474.512
530 1 48.1269 9.82819 473 77.6004 1241.95 496.56
531 0 50.0204 10.8156 541 75.8336 1241.33 497.996
532 0 51.3596 11.1956 575 76.1687 1242.21 493.736
533 0 53.174 11.6598 620 74.9806 1240.92 497.555
534 0 57.3814 12.7567 732 84.4713 1242.52 492.717
535 0 58.1965 12.4234 723 74.5145 1242.56 493.473
536 0 58.2729 13.3166 776 74.5773 1243.13 493.378
537 0 59.3104 12.4767 740 75.9014 1242.85 491.669
538 0 61.228 12.4943 765 76.1922 1242.46 490.252
539 0 64.1132 12.7431 817 85.8127 1242.96 491.387
540 0 66.1342 12.3688 818 86.7445 1242.79 490.851
541 0 69.1215 12.4708 862 86.9014 1242.34 488.679
542 0 71.1471 12.7482 907 86.4719 1242.71 488.185
543 0 73.1388 12.9206 945 86.8085 1242.68 488.326
544 0 74.1713 12.7812 948 89.1751 1242.19 485.86
545 0 76.0308 12.2319 930 90.8935 1241.71 485.53
546 0 79.0238 12.9581 1024 89.8594 1242.32 483.963
547 0 83.0688 12.8448 1067 90.6504 1242.35 482.748
548 0 85.0759 13.2 1123 90.5886 1242.66 481.322
549 0 87.0961 13.2383 1153 91.4458 1242.22 479.661
550 0 90.0682 13.4121 1208 91.6134 1242.32 477.627
551 0 94.0986 13.5709 1277 91.5278 1242.56 475.06
552 0 97.0365 14.2318 1381 90.1774 1241.92 476.371
553 0 101.029 14.5602 1471 89.6662 1240.95 472.154
554 1 55.0328 11.4477 630 89.4889 1242.54 497.351
555 0 55.0516 11.9706 659 88.5873 1243.12 495.866
556 0 57.1277 11.5356 659 89.2777 1242.93 494.742
557 0 57.0839 13.086 747 77.9639 1240.46 496.161
558 0 59.1158 11.9427 706 89.17 1240.24 495.414
559 0 61.1769 12.8643 787 85.5997 1240.42 495.362
560 0 62.1799 12.2708 763 88.5872 1240.7 495.071
561 0 66.165 12.5293 829 86.4222 1240.47 493.002
562 0 67.0415 13.0665 876 86.6918 1240.04 490.565
563 0 69.1692 12.4622 862 88.4988 1240.04 489.857
564 0 72.1408 13.5568 978 86.4243 1239.93 489.282
565 0 72.1096 12.8 923 90.4756 1239.71 488.749
566 0 75.1958 12.9529 974 89.6509 1239.67 489.229
567 0 76.1663 13.1292 1000 91.073 1239.99 487.408
568 0 77.1099 12.7221 981 93.0418 1240.45 485.343
569 0 83.1137 13.7402 1142 91.4676 1240.23 483.715
570 0 85.1208 13.3692 1138 92.7777 1240.1 482.975
571 0 85.0688 13.2599 1128 95.2872 1239.84 481.715
572 0 89.1805 13.097 1168 95.7671 1239.54 480.633
573 0 90.0704 13.0454 1175 96.703 1239.54 477.94
574 0 96.1287 12.8994 1240 96.8363 1240.26 477.897
575 1 49.101 10.3053 506 92.4407 1242.27 501.125
576 0 51.0589 11.2419 574 89.7735 1242.31 500.814
577 0 51.0734 11.2975 577 92.3865 1242.97 499.456
578 0 54.0185 11.2924 610 91.2787 1242.84 499.905
579 0 57.0604 12.7058 725 88.0262 1242.69 498.338
580 0 57.0604 12.7584 728 145.996 1242.69 498.424
581 0 59.1702 12.5063 740 87.0284 1239.83 497.615
582 0 60.0979 12.4131 746 85.1984 1240.32 497.71
583 0 61.1297 12.5144 765 84.9712 1240.62 496.978
584 0 61.0843 12.4746 762 86.252 1241.04 494.735
585 0 63.0787 11.8265 746 87.5094 1240.5 494.29
586 0 66.0723 12.8496 849 83.3863 1240.58 494.677
587 0 67.0751 12.8364 861 84.6922 1240.09 492.012
588 0 70.069 13.0015 911 85.101 1239.15 491.223
589 0 70.04 13.064 915 87.9956 1239.49 490.378
590 0 73.0217 12.6949 927 86.9536 1239.59 492.108
591 0 75.0703 13.0678 981 87.3262 1239.44 489.256
592 0 79.0811 12.7085 1005 88.7323 1239.57 487.073
593 0 80.0751 12.4508 997 89.8405 1239.29 486.708
594 0 83.073 13.0247 1082 87.4316 1238.7 485.766
595 0 86.1144 12.7621 1099 88.5942 1240.01 484.749
596 0 86.1144 12.7969 1102 148.234 1241.02 484.784
597 0 90.1982 12.151 1096 90.4215 1239.13 482.118
598 0 93.2373 12.4736 1163 89.8504 1239.75 479.251
599 0 96.179 12.903 1241 89.2981 1238.99 478.009
600 0 101.292 12.7256 1289 89.1606 1239.62 475.445
601 0 103.397 12.099 1251 89.6091 1240.09 471.193
602 1 53.1027 11.3554 603 87.4876 1239.57 492.048
603 0 55.033 11.5567 636 86.989 1239.43 498.714
604 0 57.0624 11.689 667 86.078 1239.52 497.669
605 0 60.073 11.9188 716 84.5796 1238.48 496.661
606 0 61.102 11.3417 693 85.2049 1238.63 496.071
607 0 61.0381 11.4846 701 81.9315 1239.18 494.582
608 0 65.0345 12.009 781 80.0461 1238.54 492.882
609 0 68.0745 12.4422 847 79.4604 1238.92 489.617
610 0 70.0552 11.9763 839 81.6091 1238.28 488.727
611 0 70.0713 12.1876 854 81.6604 1238.94 489.115
612 0 72.0394 12.507 901 82.9756 1239.02 488.528
613 0 75.0288 11.9954 900 83.6467 1238.76 488.647
614 0 77.0398 12.4351 958 83.7547 1238.64 487.068
615 0 82.0637 12.5878 1033 84.0891 1238.16 485.088
616 0 84.0689 12.8109 1077 86.4522 1238.09 482.94
617 0 87.1243 13.4406 1171 85.5474 1238.13 481.908
618 0 90.1152 12.8169 1155 91.4528 1238.65 478.985
619 0 92.1325 13.3938 1234 88.6224 1239.16 477.71
620 0 95.0633 12.7915 1216 90.5411 1239.39 474.89
621 0 98.0801 13.1933 1294 90.391 1238.95 474.492
622 0 101.205 14.0309 1420 93.4007 1240.84 474.246
623 0 103.153 13.3588 1378 92.9332 1240.46 472.839
624 1 57.0742 11.1959 639 89.7214 1241.73 496.987
625 0 58.0462 11.8526 688 88.3619 1241.16 496.15
626 0 61.0862 12.114 740 87.4824 1239.94 493.532
627 0 61.0444 12.2206 746 90.6193 1240.83 493.735
628 0 64.0399 13.1168 840 94.2143 1241.07 491.904
629 0 68.0512 12.9755 883 93.5368 1241.57 491.993
630 0 68.0829 12.5288 853 95.7644 1242.45 490.206
631 0 72.0539 12.7266 917 95.0665 1243.1 487.869
632 0 74.0366 12.9936 962 94.4137 1242.12 488.018
633 0 75.127 12.7384 957 95.4211 1240 486.45
634 0 77.1306 13.0947 1010 95.501 1240.15 483.475
635 0 80.0894 12.8856 1032 96.4845 1239.74 483.055
636 0 81.1377 12.7068 1031 96.8177 1239.81 482.071
637 0 83.051 12.2214 1015 97.1202 1239.83 480.459
638 0 87.0565 12.1071 1054 94.8188 1240.02 479.287
639 0 90.0593 12.2697 1105 92.7122 1239.93 479.019
640 0 94.1268 12.0688 1136 91.7975 1239.74 476.016
641 0 96.0621 12.1796 1170 91.1564 1240.12 476.373
642 0 98.1517 12.5112 1228 90.807 1240.2 473.492
643 0 100.075 12.5906 1260 88.6103 1241.13 472.96
644 0 103.115 12.3648 1275 89.4149 1240.31 469.675
645 0 107.145 11.9371 1279 91.0469 1240.88 467.235
646 0 111.286 12.5173 1393 84.7344 1240.33 466.648
647 0 112.117 12.3889 1389 85.6551 1240.4 463.816
648 1 60.0528 11.6064 697 84.6815 1242.35 492.092
649 0 62.0839 10.8241 672 86.1086 1244.19 489.484
650 0 64.0417 11.3988 730 85.2151 1243.85 487.144
651 0 65.0678 11.5418 751 84.9654 1243.71 488
652 0 69.0276 11.7055 808 90.8403 1243.79 485.476
653 0 72.0644 12.3362 889 90.1946 1244.21 484.34
654 0 73.0763 11.8096 863 92.0498 1244.01 484.211
655 0 76.0329 12.2052 928 91.1573 1243.44 483.852
656 0 77.0929 12.245 944 92.429 1243.07 481.655
657 0 78.0465 12.39 967 92.5853 1243.7 480.014
658 0 83.0606 12.6895 1054 90.4222 1244.11 477.928
659 0 84.0681 12.4423 1046 92.0153 1243.95 477.966
660 0 86.1006 12.8454 1106 90.179 1244.4 476.119
661 0 87.1162 12.7186 1108 91.3204 1243.59 474.478
662 0 90.0556 13.0253 1173 90.0494 1244.77 472.414
663 0 92.0463 12.4285 1144 92.4213 1244.58 471.389
664 0 95.161 12.4 1180 92.4975 1244.01 471.252
665 0 98.1284 13.0849 1284 90.3022 1243.64 469.866
666 0 103.164 12.7176 1312 90.0267 1244.05 468.512
667 0 103.227 13.0005 1342 89.7578 1242.77 466.915
668 0 109.227 13.1103 1432 87.5642 1242.34 466.555
669 1 56.0118 10.6763 598 83.5903 1243.08 491.462
670 0 59.0391 10.5523 623 82.3884 1240.55 489.483
671 0 60.1444 11.755 707 78.1146 1244.53 487.648
672 0 62.0712 12.5662 780 83.8744 1245.02 487.969
673 0 62.0936 12.1752 756 78.5516 1243.99 488.37
674 0 65.0116 11.8902 773 79.3739 1243.36 486.882
675 0 65.2082 11.2256 732 79.7978 1243.62 485.844
676 0 66.0808 11.2741 745 81.1423 1240.94 486.682
677 0 68.0929 11.2493 766 80.5496 1241.83 485.725
678 0 70.0874 10.9863 770 78.1273 1241.54 484.223
679 0 72.1409 11.1726 806 79.5943 1242.21 483.326
680 0 76.2791 11.589 884 80.0826 1242.69 480.199
681 0 78.2536 12.025 941 79.0818 1243.17 479.342
682 0 81.348 12.047 980 79.5653 1243.1 478.093
683 0 82.3453 11.1968 922 82.436 1243.85 477.305
684 0 86.2454 11.618 1002 81.2295 1244.13 477.455
685 0 89.1993 11.8723 1059 81.4835 1243.9 476.348
686 1 45.0912 10.0241 452 84.4934 1244.33 497.834
687 0 47.0501 10.627 500 85.256 1244.77 498.27
688 0 50.0728 11.703 586 81.9386 1245.13 496.915
689 0 51.0364 11.5604 590 77.6169 1245.29 496.034
690 0 53.0212 12.3347 654 80.2982 1245.55 495.755
691 0 55.0527 12.5879 693 80.1126 1245.06 495.033
692 0 54.0608 12.5784 680 81.0662 1246.05 494.087
693 0 58.0523 12.4026 720 80.1528 1245.62 493.568
694 0 60.0731 12.4681 749 80.2577 1245.93 493.547
695 0 60.0801 12.5666 755 81.1748 1245.37 491.23
696 0 60.0835 12.5991 757 80.6446 1245.1 491.692
697 0 63.0783 12.2071 770 79.0883 1244.99 490.909
698 0 65.0973 12.5965 820 78.5976 1244.86 491.591
699 0 67.1125 12.3971 832 78.7752 1244.57 490.46
700 0 68.109 12.1129 825 79.6885 1244.34 490.331
701 0 69.0943 11.9836 828 81.686 1244.5 490.343
702 0 71.1277 11.7676 837 82.5615 1244.53 488.73
703 0 72.1657 12.0002 866 82.1686 1244.35 487.716
704 0 76.2184 12.6347 963 80.2087 1243.29 488.474
705 0 75.2844 11.7156 882 83.3537 1243.77 486.529
706 0 76.1865 11.2356 856 86.8762 1242.8 485.006
707 0 80.3156 11.3303 910 85.7044 1242.22 483.09
708 0 83.312 11.715 976 85.0461 1242.27 481.091
709 0 86.2097 11.82 1019 82.6683 1241.91 481.747
710 0 88.2199 11.9588 1055 82.2673 1242.18 481.236
711 0 91.2063 11.8303 1079 82.4662 1242.7 478.699
712 1 52.0462 11.2592 586 81.4556 1243.34 498.947
713 0 51.094 11.9388 610 81.7967 1243.19 497.984
714 0 53.0523 11.1588 592 83.3581 1242.51 497.039
715 0 55.0438 11.9723 659 82.6768 1243.23 495.786
716 0 57.1185 12.1677 695 81.4561 1243.45 494.433
717 0 58.0583 11.609 674 83.503 1243.02 493.948
718 0 59.0216 12.8089 756 81.0463 1243.1 493.667
719 0 61.0213 11.4878 701 84.0143 1243.17 493.742
720 0 62.1226 12.1856 757 83.3778 1244.1 490.691
721 0 66.0954 12.1794 805 83.6584 1243.22 489.898
722 0 66.0605 12.095 799 84.5707 1243.32 489.459
723 0 68.0428 11.8602 807 85.6877 1242.04 490.608
724 0 71.0579 12.8768 915 84.8995 1241.79 488.941
725 0 72.053 12.2965 886 88.3217 1242.03 489.059
726 0 71.0476 11.8512 842 91.7007 1241.46 486.641
727 0 76.0445 12.2165 929 91.7632 1241.63 486.628
728 0 80.0798 12.1129 970 91.1732 1241.68 485.204
729 0 81.1309 12.4613 1011 91.6835 1240.41 484.022
730 0 82.1458 12.49 1026 93.3148 1241.07 481.108
731 0 83.045 11.8008 980 95.5735 1241.85 480.932
732 0 87.0251 12.2723 1068 94.6919 1242.13 480.251
733 0 91.075 12.6709 1154 94.0121 1242.04 478.298
734 0 93.0481 12.9825 1208 95.0464 1242.63 476.381
735 0 95.0178 13.0186 1237 96.4665 1242.33 473.04
736 0 99.0943 13.0885 1297 96.2336 1242.76 472.032
737 0 100.121 12.4549 1247 100.345 1242.31 471.159
738 0 104.179 12.9393 1348 98.9874 1242.13 470.901
739 0 108.091 12.8965 1394 98.929 1242.47 470.791
740 1 56.0927 10.3044 578 96.474 1243.67 496.211
741 0 57.0676 10.8293 618 97.0793 1244.03 495.502
742 0 60.122 11.8592 713 96.5203 1243.05 492.819
743 0 60.0298 12.3772 743 88.8964 1241.4 492.913
744 0 62.0949 12.8191 796 85.5955 1242.92 492.563
745 0 64.3142 12.9831 835 91.6311 1242.78 491.257
746 0 69.4752 12.58 874 93.5732 1243.07 489.447
747 0 69.3622 12.8168 889 94.7818 1243.3 489.016
748 0 69.3376 12.8069 888 97.8502 1243.03 487.998
749 0 73.2819 12.7317 933 96.2819 1242.67 487.552
750 0 73.3329 12.8183 940 98.8989 1243.09 485.741
751 0 77.2753 12.7855 988 96.3603 1243.34 483.642
752 0 80.2399 12.1386 974 96.6725 1242.93 482.222
753 0 81.3832 12.3244 1003 95.3071 1242.68 481.291
754 0 86.2701 12.1595 1049 94.5844 1242.77 480.017
755 0 87.2816 12.2935 1073 93.671 1242.9 477.026
756 0 90.1936 11.5529 1042 93.5403 1243.05 476.861
757 0 90.2664 11.743 1060 93.4613 1242.79 475.121
758 0 93.3148 11.2201 1047 91.4508 1242.69 471.317
759 0 96.0997 11.4673 1102 90.294 1240.64 471.516
760 0 99.0837 11.8385 1173 88.9616 1241.14 469.026
761 0 101.184 11.6916 1183 91.0778 1240.76 466.859
762 0 105.111 11.9682 1258 89.2536 1240.95 467.359
763 0 109.073 12.2212 1333 90.9137 1240.11 464.954
764 0 111.112 11.4839 1276 91.326 1240.52 463.007
765 0 116.249 12.1722 1415 90.8664 1241.15 461.376
766 0 118.266 12.2352 1447 90.2992 1240.15 458.357
767 0 123.317 12.6503 1560 89.6936 1240.56 454.665
768 0 127.302 13.1027 1668 91.479 1240.44 451.532
769 0 129.319 12.6432 1635 93.2471 1240.28 446.234
770 0 135.253 12.9461 1751 92.5283 1240.7 447.166
771 0 138.285 13.8554 1916 91.916 1240.26 444.141
772 0 145.328 14.1129 2051 90.3345 1240.54 441.526
773 0 150.39 13.4915 2029 92.1735 1240.65 440.289
774 0 155.379 13.1356 2041 94.3631 1240.39 437.095
775 0 159.29 13.5664 2161 93.1897 1239.27 433.431
776 0 164.209 13.4097 2202 94.5218 1240.38 431.918
777 0 169.228 13.1361 2223 95.4283 1240.21 429.735
778 0 175.119 13.0826 2291 95.0698 1239.55 428.148
779 0 181.143 13.4093 2429 95.0412 1239.86 425.197
780 0 184.222 13.2286 2437 95.9315 1240.55 420.119
781 0 189.321 13.6171 2578 94.1707 1240.67 422.146
782 0 196.405 13.131 2579 95.1272 1240.12 414.024
783 1 44.1002 9.93194 438 81.4954 1239.97 491.267
784 0 45.0729 9.65104 435 84.4966 1240.46 494.214
785 0 46.0545 9.8796 455 77.7538 1241.98 492.615
786 0 50.029 11.9731 599 85.4608 1244.24 494.815
787 0 51.0501 11.8707 606 86.165 1244.65 494.244
788 0 53.1147 11.9741 636 86.2846 1244.89 493.138
789 0 53.0752 11.512 611 88.5794 1244.54 493.115
790 0 57.0546 11.9184 680 87.8515 1244.46 493.096
791 0 57.0348 11.1686 637 89.9906 1244.63 493.372
792 0 58.0786 11.4844 667 91.3628 1244.47 490.763
793 0 62.1059 10.5787 657 90.5997 1244.15 491.1
794 0 63.1372 11.673 737 88.1669 1244.27 489.41
795 0 66.0333 11.4639 757 87.4914 1244.8 488.51
796 0 68.0503 12.2556 834 86.1463 1244.95 486.234
797 0 68.0714 12.149 827 86.5635 1245.39 487.336
798 0 71.0851 11.9012 846 86.5898 1245.24 486.939
799 0 71.081 11.9441 849 148.92 1245.24 486.895
800 0 73.0976 11.683 854 84.856 1245.22 484.745
801 0 77.0638 11.7305 904 84.875 1245.05 483.289
802 0 80.1199 12.4938 1001 82.7842 1244.6 483.772
803 1 41.016 10.2887 422 86.8981 1244.6 501.211
804 0 44.0303 11.424 503 86.998 1243.08 501.044
805 0 42.0581 10.9135 459 86.1024 1240.55 499.765
806 0 44.2113 11.7843 521 79.3935 1244.3 498.388
807 0 39.2709 10.0329 394 70.934 1242.76 493.812
808 0 43.2975 9.37699 406 71.7118 1243.39 491.761
809 0 44.1092 11.1088 490 69.1143 1242.98 492.622
810 0 49.1169 11.666 573 67.4031 1242.32 495.454
811 0 50.1877 11.4968 577 68.7002 1242.26 493.229
812 0 51.1333 12.0274 615 68.5382 1242.12 493.374
813 0 52.2027 13.2177 690 67.742 1242.29 492.414
814 0 54.0537 12.0436 651 77.321 1240.66 491.868
815 0 56.0639 11.915 668 78.3847 1240.33 491.383
816 0 58.1141 11.2193 652 79.0982 1240.86 491.986
817 0 59.1316 11.7365 694 78.6354 1241.18 491.993
818 0 61.1534 11.6592 713 78.8892 1240.32 491.188
819 0 64.0588 12.8476 823 77.243 1240.46 489.033
820 0 63.0898 11.4757 724 80.9061 1241.08 487.558
821 0 66.0558 12.2018 806 78.9814 1240.32 487.617
822 0 66.1067 11.8294 782 80.3785 1240.08 485.923
823 0 69.0739 11.4515 791 80.8887 1240.33 485.472
824 0 69.0925 10.8984 753 82.842 1239.67 484.198
825 0 72.0712 11.558 833 81.6999 1239.52 483.619
826 0 74.1176 11.5222 854 81.6148 1239.96 484.728
827 0 75.1403 12.5232 941 81.1892 1239.35 481.906
828 0 78.0956 11.3579 887 83.2706 1239.31 482.007
829 0 81.1232 11.0942 900 82.8633 1239.72 479.801
830 0 81.0544 10.9803 890 85.0831 1239.9 477.983
831 0 83.211 11.6691 971 84.9125 1240.15 475.901
832 0 84.1682 12.1186 1020 84.9735 1240.33 475.247
833 0 88.2799 11.3956 1006 86.8191 1239.97 474.082
834 0 88.1346 11.8001 1040 85.9606 1240.53 473.709
835 0 93.1645 12.2257 1139 83.8147 1239.92 472.965
836 0 93.1923 12.2864 1145 84.1188 1239.69 468.976
837 0 99.2272 12.3656 1227 83.1777 1239.63 468.704
838 0 99.1101 12.1178 1201 87.6653 1239.71 464.681
839 0 104.212 12.4458 1297 86.4248 1239.32 464.335
840 0 107.166 12.2614 1314 84.7938 1238.79 461.797
841 0 112.288 12.4235 1395 84.7047 1239.04 462.767
842 0 119.271 13.725 1637 85.6775 1239.32 466.464
843 0 121.207 13.5966 1648 86.2858 1239.7 462.215
844 0 124.242 13.023 1618 85.2695 1239.28 460
845 0 130.297 13.3311 1737 84.1549 1239.92 457.356
846 0 132.283 13.3351 1764 84.8254 1239.4 454.84
847 0 137.212 13.6359 1871 84.628 1238.77 454.54
848 0 140.275 13.5163 1896 85.6598 1238.74 449.896
849 0 147.228 14.1141 2078 83.9687 1238.98 447.676
850 0 152.228 14.3929 2191 82.1976 1238.74 445.475
851 0 157.221 14.9408 2349 79.7846 1239.23 444.343
852 0 160.295 14.6854 2354 80.3492 1239.41 443.441
853 0 164.288 14.785 2429 80.9473 1239.02 439.257
854 0 170.285 14.4405 2459 82.2619 1238.92 437.134
855 0 174.198 14.3744 2504 82.8403 1239.11 432.48
856 0 180.288 14.8208 2672 82.1576 1238.75 429.302
857 0 185.18 14.6398 2711 83.2944 1238.88 426.865
858 0 191.186 14.5931 2790 84.1384 1238.9 423.916
859 0 201.23 17.7011 3562 76.3725 1239.03 411.078
860 0 204.332 14.4226 2947 84.3672 1238.8 414.25
861 0 212.283 15.2956 3247 82.8633 1239 414.469
862 0 214.491 14.5227 3115 84.886 1239.17 410.52
863 1 166.463 11.8645 1975 86.4329 1240.16 437.019
864 0 174.401 13.6753 2385 83.6805 1240.51 434.802
865 0 181.32 13.4238 2434 84.5296 1239.82 429.224
866 0 188.251 13.6042 2561 84.5904 1239.99 426.932
867 0 196.489 14.072 2765 84.5765 1239.44 423.979
868 1 73.2003 12.6502 926 80.608 1240.87 481.216
869 0 78.2069 13.0935 1024 81.5684 1240.96 480.304
870 0 83.0689 13.4106 1114 81.0494 1239.54 481.109
871 0 84.1038 13.1623 1107 82.5818 1239.11 480.112
872 0 89.1875 13.6791 1220 75.6434 1239.35 479.698
873 0 88.2303 13.9635 1232 83.4359 1241.77 477.985
874 0 92.2249 13.6731 1261 83.5218 1241.52 477.749
875 0 95.2308 13.9241 1326 83.7217 1241.57 476.299
876 0 99.297 13.6056 1351 84.3198 1240.9 475.023
877 0 100.288 12.8929 1293 87.7254 1241.3 470.647
878 0 103.372 13.8335 1430 86.1042 1240.97 469.378
879 0 109.297 13.2574 1449 81.4258 1239.18 467.455
880 0 116.315 13.601 1582 83.7054 1239.52 467.137
881 0 119.344 13.6496 1629 78.7299 1239.28 464.278
882 0 121.176 13.27 1608 80.0641 1239.51 464.542
883 0 125.342 13.3395 1672 87.5215 1239.78 462.286
884 0 132.235 14.323 1894 85.9303 1239.98 458.267
885 1 71.0903 12.5615 893 81.9283 1240.92 491.449
886 0 74.1547 13.3774 992 83.2107 1240.41 487.222
887 0 75.3536 13.7485 1036 76.8523 1240.52 486.505
888 0 78.2447 13.5345 1059 88.1407 1240.16 485.319
889 0 80.4101 13.5431 1089 89.7484 1239.92 483.551
890 0 82.2598 13.7005 1127 90.3026 1239.91 483.13
891 0 83.3524 13.6769 1140 91.9535 1239.97 479.039
892 0 85.3159 13.3035 1135 81.6088 1239.9 480.072
893 0 89.1945 13.3753 1193 85.6806 1240.05 478.334
894 0 91.2504 13.6547 1246 86.2608 1240.07 476.486
895 0 94.2277 14.4225 1359 85.7447 1240.47 475.607
896 0 96.1977 14.0648 1353 86.2077 1240.5 473.769
897 0 97.1638 13.8117 1342 87.7593 1239.98 473.024
898 0 101.204 14.367 1454 86.1176 1240.45 471.292
899 0 104.288 14.9586 1560 84.8654 1240.67 470.572
900 0 107.271 14.1417 1517 87.0824 1241.39 468.537
901 0 111.242 15.0302 1672 86.186 1240.91 465.739
902 0 113.256 15.2751 1730 86.3948 1241.08 462.915
903 0 118.331 14.7214 1742 86.8743 1241.24 461.605
904 0 119.293 14.9212 1780 87.1421 1241.56 459.113
905 0 122.524 14.7563 1808 87.4253 1241.35 457.322
906 0 128.483 15.5195 1994 86.0125 1241.98 454.782
907 0 133.335 15.8848 2118 85.1563 1242.28 452.657
908 0 137.333 14.9418 2052 87.2515 1241.41 450.817
909 0 141.376 15.7028 2220 85.4221 1241.19 447.823
910 0 147.376 15.0567 2219 87.1532 1241.41 445.04
911 0 153.362 15.5254 2381 85.4326 1241.5 442.865
912 1 77.2609 12.7231 983 84.3062 1242.11 481.583
913 0 82.111 13.4818 1107 84.3559 1241.15 480.059
914 0 84.1966 14.0386 1182 85.6641 1241.84 474.777
915 0 88.072 14.6698 1292 84.6447 1240.58 477.685
916 0 92.1199 14.9588 1378 84.1183 1240.65 476.102
917 0 92.1657 13.5191 1246 90.2319 1240.62 473.959
918 0 95.1129 13.8782 1320 89.3758 1240.3 472.747
919 0 101.183 14.2021 1437 89.5832 1240.85 469.729
920 0 103.307 14.7038 1519 88.6636 1241.56 465.177
921 0 108.261 14.7976 1602 88.1255 1241.33 463.525
922 0 111.484 14.5402 1621 88.9981 1242.08 464.582
923 0 115.412 14.3573 1657 86.029 1242.09 464.391
924 0 118.294 14.8191 1753 85.4723 1241.38 462.746
925 0 122.29 14.253 1743 87.1738 1241.24 458.413
926 1 64.2589 12.8854 828 84.6739 1241.18 488.091
927 0 64.2601 12.7762 821 142.285 1241.17 488.201
928 0 69.1926 13.2529 917 82.7808 1240.95 487.659
929 0 73.2233 13.9436 1021 81.0137 1240.71 487.746
930 0 73.1107 14.1019 1031 81.8215 1240.81 487.252
931 0 78.1737 14.1608 1107 80.009 1240.87 487.41
932 0 80.1716 14.0449 1126 80.778 1240.75 486.487
933 0 83.2534 14.0775 1172 81.0614 1240.88 485.255
934 0 86.3044 14.9123 1287 78.6589 1239.78 483.346
935 0 86.2515 14.62 1261 80.5274 1240 482.459
936 0 88.4074 14.4219 1275 82.9686 1239.82 480.769
937 0 94.3785 14.5796 1376 84.2747 1239.48 481.917
938 0 95.4818 13.8979 1327 87.1274 1239.38 479.837
939 0 98.4314 14.2841 1406 87.7873 1239.01 478.309
940 0 101.319 14.8935 1509 85.8058 1239.31 477.34
941 0 103.373 14.6072 1510 86.4417 1238.84 476.042
942 0 107.283 14.1775 1521 88.2781 1238.77 474.348
943 0 111.337 14.8468 1653 88.0073 1238.58 472.07
944 0 116.436 15.3132 1783 87.0993 1238.9 470.73
945 0 120.301 15.4362 1857 89.0905 1238.76 468.855
946 0 124.313 14.3992 1790 92.8453 1238.57 465.095
947 0 128.309 14.8158 1901 91.6802 1238.79 463.611
948 1 67.2203 13.1805 886 91.6591 1238.69 493.486
949 0 69.3159 14.5566 1009 90.4876 1239.77 491.492
950 0 70.4111 14.4011 1014 91.0562 1239.79 489.474
951 0 74.3641 14.2811 1062 98.4473 1239.82 488.731
952 0 79.3084 15.156 1202 96.2271 1240.35 489.191
953 0 81.266 14.754 1199 101.123 1241.41 486.225
954 0 83.3248 15.1095 1259 102.137 1239.88 487.22
955 0 84.2033 14.6194 1231 105.629 1239.98 484.538
956 0 89.3019 15.274 1364 94.3688 1239.5 483.415
957 0 91.212 15.6558 1428 94.5504 1239.29 482.295
958 0 93.2875 15.0824 1407 96.8316 1240.07 480.94
959 0 95.2064 14.6209 1392 98.8455 1240.24 479.583
960 0 98.2517 14.3916 1414 98.1499 1240.26 477.502
961 0 103.221 14.8516 1533 94.6575 1240.19 476.958
962 0 106.254 14.7665 1569 96.0325 1239.96 474.989
963 0 109.249 15.3594 1678 95.8689 1239.66 471.612
964 0 113.155 15.4302 1746 96.1334 1239.7 470.687
965 0 118.279 15.903 1881 93.412 1239.98 468.618
966 0 121.339 14.9828 1818 97.5473 1240.6 468.908
967 0 125.245 15.4337 1933 96.6999 1240.54 464.388
968 1 63.1422 13.5567 856 96.0537 1240.75 490.82
969 0 69.2224 14.6773 1016 92.9144 1240.97 493.056
970 0 70.2185 14.6543 1029 94.7726 1240.85 486.914
971 0 73.3503 14.6284 1073 97.1137 1241.22 485.503
972 0 78.2343 15.0573 1178 100.051 1240.81 484.11
973 0 77.2441 14.7584 1140 101.437 1241.31 482.07
974 0 80.2217 14.8588 1192 99.6904 1241.31 479.86
975 0 80.2217 14.8713 1193 178.48 1241.3 479.894
976 0 87.598 15.1944 1331 97.2885 1241.24 477.308
977 0 90.4724 14.6896 1329 98.6223 1241.15 473.81
978 0 92.4847 15.0728 1394 97.8336 1240.63 473.349
979 0 94.415 15.5908 1472 105.789 1241.65 470.847
980 0 98.4409 15.3696 1513 106.839 1241.88 471.254
981 0 102.457 15.4308 1581 105.174 1242.42 469.69
982 0 105.357 15.4997 1633 106.12 1241.8 468.583
983 0 107.526 14.5267 1562 99.5141 1241.83 466.6
984 0 111.503 14.9414 1666 98.3133 1240.99 465.181
985 0 114.449 14.9324 1709 101.199 1241.6 462.672
986 0 118.64 15.4333 1831 100.946 1241.36 460.656
987 0 120.646 14.9528 1804 105.274 1241.45 458.71
988 0 126.269 15.0393 1899 102.358 1242.12 456.865
989 0 129.368 14.6404 1894 104.26 1241.39 454.837
990 0 134.253 15.292 2053 103.375 1241.45 451.94
991 0 139.377 15.4473 2153 102.072 1240.18 450.737
992 0 142.333 15.3864 2190 104.65 1240.82 447.12
993 0 146.231 15.4208 2255 105.591 1240.9 446.455
994 0 151.149 15.2499 2305 107.575 1240.49 443.96
995 0 156.178 15.1366 2364 106.907 1240.28 441.454
996 0 162.176 15.4955 2513 107.278 1240.09 438.368
997 0 167.3 15.0987 2526 109.679 1240.65 436.522
998 0 171.195 15.4269 2641 110.028 1241.31 434.09
999 0 177.21 15.5239 2751 110.615 1240.56 431.399
1000 0 177.21 15.5634 2758 163.898 1239.58 431.371
1001 1 188.375 15.1666 2857 111.493 1240.32 426.564
1002 0 194.327 15.088 2932 112.017 1240.28 423.894
1003 0 199.422 14.8279 2957 113.769 1240.37 421.999
1004 0 206.288 15.2215 3140 112.936 1240.42 419.129
1005 0 214.4 15.5084 3325 116.215 1240.72 415.755
1006 0 224.354 16.3491 3668 110.886 1241.25 408.891
1007 0 230.355 15.7626 3631 113.786 1241.92 406.386
1008 0 239.463 15.9566 3821 113.729 1241.63 404.035
1009 0 247.327 16.3549 4045 112.75 1240.9 401.305
1010 0 245.327 14.3115 3511 119.777 1241.33 403.256
1011 0 243.561 11.7055 2851 124.499 1240.66 413.878
1012 0 245.533 12.1409 2981 122.84 1240.36 412.939
1013 0 305.526 27.1925 8308 81.3282 1239.4 347.673
1014 0 305.475 25.3572 7746 88.6886 1239.98 350.982
1015 0 304.559 21.014 6400 102.828 1240.05 361.218
1016 0 313.591 17.3698 5447 113.589 1240.14 362.373
1017 0 323.822 17.2533 5587 115.123 1240.36 357.822
1018 0 335.809 17.1764 5768 114.126 1240.98 353.906
1019 0 345.793 16.3566 5656 117.857 1241.17 349.234
1020 1 97.2406 11.8983 1157 114.706 1241.17 469.711
1021 0 99.3518 12.2695 1219 114.383 1241.72 468.178
1022 0 104.224 12.3388 1286 114.17 1241.99 466.937
1023 0 107.279 12.3789 1328 113.947 1241.98 465.167
1024 0 111.331 12.9793 1445 112.287 1242.06 462.754
1025 0 116.439 13.5349 1576 107.876 1241.77 460.554
1026 0 124.517 16.4716 2051 95.4715 1241.06 452.089
1027 0 124.567 15.3893 1917 101.737 1241.03 452.248
1028 0 128.47 13.4272 1725 107.325 1240.98 449.702
1029 0 132.558 12.7642 1692 109.502 1240.91 449.53
1030 0 137.542 12.5562 1727 111.013 1240.42 446.836
1031 1 70.3531 9.89295 696 91.625 1240.19 484.809
1032 0 68.2232 8.94124 610 83.359 1243.67 487.839
1033 0 70.2301 8.99899 632 84.4082 1243.82 487.203
1034 0 74.1882 10.1094 750 83.9987 1243.31 484.175
1035 0 77.3174 10.7091 828 83.4034 1243.57 485.081
1036 0 75.2605 9.48705 714 88.3529 1243.04 482.437
1037 0 80.2174 10.0103 803 86.5181 1243.09 484.224
1038 0 82.1224 9.99728 821 87.5688 1243 481.153
1039 0 84.2125 9.61853 810 87.8963 1242.43 479.942
1040 0 86.3351 10.5751 913 87.9288 1242.4 477.365
1041 0 89.3922 10.0009 894 88.5895 1242.98 477.794
1042 0 91.2402 10.6642 973 92.2549 1243.36 474.303
1043 0 94.3106 10.8047 1019 93.6575 1243.68 471.513
1044 0 97.2948 10.5658 1028 94.2121 1243.25 471.139
1045 0 98.249 9.76092 959 96.9708 1243.5 466.865
1046 0 102.153 9.68159 989 98.5996 1243.37 469.226
1047 0 104.243 10.0055 1043 97.9444 1244.23 462.873
1048 0 108.234 9.80281 1061 98.9906 1243.61 465.316
1049 1 64.2546 10.4584 672 95.8304 1239.57 490.522
1050 0 66.2899 10.8161 717 94.7099 1240.5 489.241
1051 0 67.3187 10.8291 729 95.4033 1240.12 486.392
1052 0 70.3029 10.7535 756 95.3254 1240.28 485.176
1053 0 70.2432 10.905 766 96.2115 1240.23 485.004
1054 0 70.2438 10.6059 745 99.5544 1239.96 483.158
1055 0 74.2544 10.895 809 98.398 1240.77 485.141
1056 0 74.2439 11.2871 838 98.6313 1240.92 483.521
1057 0 75.3577 11.5051 867 98.2584 1240.57 481.871
1058 0 80.3321 11.5023 924 97.7846 1240.15 480.433
1059 0 83.2426 12.1332 1010 95.3871 1240.66 479.687
1060 0 83.2532 11.435 952 97.2174 1240.8 480.88
1061 0 85.2392 11.1099 947 97.434 1240.4 475.841
1062 0 90.2637 11.3002 1020 96.6412 1240.54 477.636
1063 0 93.3001 11.6506 1087 99.6467 1240.51 475.333
1064 0 93.2534 11.2167 1046 101.55 1240.72 473.034
1065 0 97.3481 11.7208 1141 98.4917 1240.44 471.198
1066 1 53.2443 9.22165 491 93.4318 1241.29 494.045
1067 0 53.2348 9.78682 521 88.5374 1241.82 494.455
1068 0 56.1812 10.3949 584 83.5771 1241.95 494.587
1069 0 58.175 10.159 591 83.4839 1242.15 494.042
1070 0 59.1534 10.4643 619 84.1486 1241.59 492.115
1071 0 59.1219 10.8082 639 85.3052 1240.81 492.582
1072 0 62.1577 10.9077 678 92.5782 1240.81 490.69
1073 0 64.2475 10.5374 677 96.6514 1240.96 490.225
1074 0 66.2298 10.7203 710 95.2268 1240.86 490.113
1075 0 68.1604 11.2089 764 94.3508 1241.1 489.648
1076 0 70.2366 11.3047 794 90.461 1240.73 487.305
1077 0 75.2419 12.4266 935 84.2888 1241.33 485.819
1078 0 77.2909 12.6406 977 83.3889 1241.37 484.558
1079 0 79.1915 12.4003 982 83.8157 1241.73 484.148
1080 0 81.1691 12.4678 1012 84.5425 1241.1 482.658
1081 0 81.2138 12.7934 1039 84.615 1241.55 482.701
1082 0 86.2585 13.1233 1132 83.5733 1241.62 481.782
1083 0 86.2439 13.0096 1122 129.228 1241.63 481.767
1084 0 87.0721 11.2895 983 81.3143 1240.44 480.941
1085 0 91.0474 11.9388 1087 80.6007 1240.45 480.072
1086 0 93.1217 12.4568 1160 79.6474 1240.69 478.065
1087 0 93.0943 11.2252 1045 83.1234 1240.57 476.453
1088 0 96.0759 11.7303 1127 81.9024 1240.13 474.811
1089 0 98.073 11.6954 1147 93.7018 1239.89 475.724
1090 0 101.075 11.9813 1211 93.9785 1240.53 473.483
1091 0 103.063 11.624 1198 95.4524 1240.11 471.491
1092 0 105.153 12.3725 1301 94.5673 1242.05 473.165
1093 0 109.162 12.4311 1357 94.7148 1242.61 470.962
1094 1 61.028 11.3554 693 94.671 1243.53 495.47
1095 0 62.0848 11.0494 686 92.4592 1243.33 493.655
1096 0 64.0659 11.8003 756 92.9643 1242.59 491.505
1097 0 65.0686 12.4023 807 96.5613 1243.43 490.212
1098 0 67.0412 12.6937 851 94.7662 1244.21 491.544
1099 0 68.0741 12.6921 864 93.0417 1243.31 492.193
1100 0 72.0762 13.8603 999 89.2402 1244.97 489.443
1101 0 74.0739 13.122 972 90.8899 1244.62 487.913
1102 0 76.055 13.1221 998 91.4158 1244.45 485.456
1103 0 78.0958 13.445 1050 92.2229 1244.13 484.641
1104 0 80.0701 13.2259 1059 93.6006 1244.15 484.413
1105 0 82.0825 13.2915 1091 94.2356 1244.24 483
1106 0 85.076 13.3293 1134 95.0917 1243.95 483.279
1107 0 89.0845 13.9643 1244 92.3151 1243.6 480.383
1108 0 94.0897 14.4224 1357 91.0995 1243.36 480.332
1109 0 95.1392 14.463 1376 91.7333 1242.78 479.115
1110 0 98.2532 14.4016 1415 91.3739 1242.41 478.366
1111 0 102.292 13.96 1428 93.1268 1242.21 476.305
1112 0 103.269 14.0313 1449 96.0131 1241.35 474.193
1113 1 52.0478 11.086 577 94.5095 1243.62 500.572
1114 0 56.0809 10.6453 597 90.871 1243.17 500.047
1115 0 55.0185 11.5961 638 91.0094 1242.95 500.154
1116 0 56.2651 12.0501 678 80.8083 1243.51 497.833
1117 0 59.0624 12.1566 718 80.734 1240.69 498.212
1118 0 60.0943 12.1143 728 80.6387 1241.15 498.339
1119 0 63.0608 12.0994 763 81.249 1240.87 496.094
1120 0 64.0638 12.5032 801 80.4257 1240.41 495.283
1121 0 65.0682 12.3563 804 81.2736 1240.23 496.081
1122 0 69.0586 13.1193 906 78.9614 1241.13 495.039
1123 0 71.0471 13.3996 952 79.4706 1240.68 492.799
1124 0 72.0654 12.7107 916 81.4727 1240.69 490.528
1125 0 74.1048 12.7117 942 85.4299 1240.8 491.384
1126 0 75.0996 13.0493 980 85.6622 1241.33 490.076
1127 0 78.1946 14.0547 1099 83.0582 1241.36 489.615
1128 0 79.1594 12.898 1021 85.9736 1240.85 487.904
1129 0 81.1696 13.3055 1080 87.4898 1240.58 487.411
1130 0 82.1514 13.183 1083 87.5965 1240.72 486.158
1131 0 84.12 12.4941 1051 87.9068 1240.92 484.366
1132 0 86.1407 12.0965 1042 95.1008 1240.82 483.858
1133 0 88.1739 13.1105 1156 94.6194 1240.55 482.727
1134 0 93.1327 13.9478 1299 92.9592 1240.83 479.604
1135 0 93.1094 13.5862 1265 95.5945 1240.23 478.06
1136 0 97.1264 13.4155 1303 95.9248 1239.98 477.894
1137 0 99.0651 12.6079 1249 97.3731 1239.82 476.946
1138 0 101.115 12.9457 1309 97.5905 1240.36 474.896
1139 0 104.119 13.5902 1415 97.2678 1240.47 472.534
1140 0 110.137 13.7737 1517 97.5333 1240.63 472.711
1141 1 63.1021 10.8554 685 99.308 1240.43 497.572
1142 0 66.1702 11.6215 769 98.039 1240.71 494.419
1143 0 68.1461 12.4732 850 87.8929 1242.31 493.011
1144 0 70.2354 12.1876 856 91.2231 1241.23 491.678
1145 0 71.0778 12.7325 905 88.3989 1242.27 490.775
1146 0 73.0619 12.9069 943 88.7073 1242.51 490.542
1147 0 76.0776 12.9999 989 90.2963 1241.69 489.826
1148 0 78.0787 13.2174 1032 93.4351 1241.77 488.748
1149 0 79.0871 13.2386 1047 94.8844 1242.33 486.995
1150 0 83.1068 13.4285 1116 83.0582 1242.82 486.496
1151 0 86.1397 13.3388 1149 82.7937 1242.24 485.38
1152 0 87.2911 13.7127 1197 83.8839 1241.63 483.634
1153 0 88.2067 13.5024 1191 85.6104 1240.89 481.244
1154 0 93.1494 13.9668 1301 84.2652 1241.63 481.416
1155 0 94.1964 13.4188 1264 84.2769 1241.18 480.932
1156 0 96.2103 13.4497 1294 84.6113 1240.79 477.929
1157 0 99.1246 14.0127 1389 83.7264 1241.4 476.998
1158 0 103.205 13.759 1420 83.7134 1241.18 475.846
1159 0 102.177 13.0558 1334 86.4475 1241.72 475.907
1160 0 104.183 12.0461 1255 88.9116 1241.39 475.962
1161 0 108.158 12.6482 1368 88.3026 1241.75 474.729
1162 0 109.255 12.5212 1368 90.5731 1241.26 472.846
1163 0 112.197 11.8452 1329 91.4628 1241.36 470.293
1164 0 117.169 12.7935 1499 88.5237 1240.94 467.763
1165 0 120.222 11.7866 1417 90.7826 1240.27 468.02
1166 0 125.216 12.4026 1553 89.6278 1240.35 464.338
1167 1 69.1034 11.6492 805 92.3752 1241.63 491.699
1168 0 72.198 12.3826 894 89.2092 1241.21 490.223
1169 0 76.0819 12.2894 935 94.9102 1242.06 490.209
1170 0 78.1931 12.2006 954 95.5975 1242.19 488.507
1171 0 80.1095 12.6452 1013 94.2823 1242.03 487.636
1172 0 83.125 12.5714 1045 93.6565 1241.53 485.855
1173 0 84.1285 11.8985 1001 94.3996 1241.96 485.216
1174 0 88.2059 12.4141 1095 92.7032 1241.4 482.658
1175 0 90.0948 11.3103 1019 91.8538 1241.07 479.639
1176 0 92.1339 11.5593 1065 91.7887 1240.17 478.096
1177 0 96.2032 12.0578 1160 90.9362 1240.6 478.681
1178 0 98.2161 11.7496 1154 92.9263 1240.14 474.661
1179 1 54.1304 10.3823 562 85.6833 1241.34 499.279
1180 0 52.152 10.0284 523 120.451 1241.33 498.44
1181 0 57.1169 11.4327 653 86.1026 1241.64 499.113
1182 0 60.0883 11.9491 718 87.1741 1242.34 497.865
1183 0 62.1513 12.3248 766 95.6488 1241.88 495.461
1184 0 63.116 12.2948 776 95.5799 1241.99 494.637
1185 0 65.1954 12.0561 786 95.1031 1241.96 493.018
1186 0 68.3851 13.19 902 92.0665 1241.3 492.395
1187 0 69.2918 12.5556 870 93.3977 1241.67 492.744
1188 0 70.3489 12.964 912 92.6831 1241.1 491.827
1189 0 73.3495 12.7336 934 94.2045 1241.23 491.163
1190 0 74.3174 12.8099 952 94.6313 1240.74 491.345
1191 0 77.2835 12.6159 975 96.161 1241.34 488.455
1192 0 77.4363 12.7589 988 96.2277 1241.21 487.187
1193 0 81.2955 12.9527 1053 96.7018 1241.63 486.809
1194 0 86.2975 13.2912 1147 93.8509 1241.26 487.042
1195 0 87.2567 12.8586 1122 95.0107 1240.7 485.682
1196 0 88.2042 12.6185 1113 90.8068 1239.86 483.561
1197 0 91.2256 12.2005 1113 94.5535 1240.8 482.43
1198 0 94.1453 12.4701 1174 95.3876 1240.24 480.503
1199 1 49.0541 10.4782 514 92.2432 1241.12 504.881
1200 0 49.0187 10.6694 523 94.2428 1240.38 503.989
1201 0 52.09 10.2131 532 99.2726 1240.95 501.793
1202 0 54.2361 11.2656 611 95.8887 1240.31 498.047
1203 0 56.1745 11.5355 648 98.9877 1240.81 496.144
1204 0 59.368 12.6499 751 98.5593 1241.04 494.385
1205 0 59.1861 11.9623 708 91.7119 1241.2 500.144
1206 0 61.115 12.861 786 88.6285 1239.15 498.911
1207 0 62.0586 12.8749 799 89.4581 1239.92 497.703
1208 0 66.0843 12.7413 842 88.3397 1239.85 496.66
1209 0 63.0948 11.871 749 92.3284 1239.89 497.304
1210 0 66.1081 12.3888 819 90.6593 1240.04 496.48
1211 0 68.0863 11.882 809 92.1397 1239.51 495.126
1212 0 71.0723 12.5506 892 90.0191 1239.45 493.379
1213 0 72.127 12.2839 886 91.2415 1239.92 492.325
1214 0 76.2282 12.6069 961 91.5713 1240.47 491.149
1215 0 79.2003 12.4494 986 91.6318 1240.19 489.415
1216 0 82.2363 12.5127 1029 88.6531 1239.54 487.059
1217 0 83.229 12.0271 1001 90.3127 1239.42 487.822
1218 0 87.1554 12.5867 1097 91.1404 1239.95 486.147
1219 0 88.1586 12.5456 1106 92.3571 1239.94 484.774
1220 0 92.231 12.9458 1194 92.6809 1240.26 483.309
1221 0 93.1579 12.5057 1165 95.3133 1239.77 481.734
1222 0 97.1383 13.2286 1285 93.7907 1240.29 478.56
1223 0 99.1541 12.8588 1275 96.1129 1240.38 478.297
1224 0 103.284 13.0127 1344 96.1823 1240.05 475.9
1225 0 106.226 12.6052 1339 98.6191 1240.19 473.009
1226 0 108.238 12.0937 1309 100.164 1240.01 471.082
1227 0 111.358 12.15 1353 100.05 1240.28 467.91
1228 0 115.415 12.1388 1401 100.453 1240.78 464.631
1229 0 120.332 13.0722 1573 96.5607 1240.42 461.624
1230 0 123.387 13.4455 1659 97.5304 1240.01 461.197
1231 0 127.358 13.4816 1717 98.8748 1240.6 457.956
1232 0 131.377 12.9856 1706 100.269 1239.84 458.477
1233 0 135.315 13.1619 1781 99.6536 1240.83 456.845
1234 0 140.334 13.418 1883 99.9087 1240.68 453.123
1235 0 145.344 14.0013 2035 98.4801 1241.3 450.09
1236 0 151.421 14.1724 2146 99.6841 1241.09 449.137
1237 0 156.449 14.0429 2197 100.682 1240.11 443.202
1238 0 161.408 14.2124 2294 99.0785 1240.22 440.464
1239 0 165.393 14.5593 2408 99.1811 1239.89 437.8
1240 0 170.463 14.4547 2464 98.2601 1240.33 439.218
1241 0 176.534 14.983 2645 96.4276 1240.84 432.94
1242 0 182.417 14.8341 2706 95.5551 1240.43 429.138
1243 0 183.388 14.1231 2590 97.766 1239.65 425.023
1244 0 189.389 14.5521 2756 96.9579 1240.07 422.775
1245 0 192.423 13.2988 2559 100.256 1240.46 423.83
1246 0 201.572 14.4118 2905 95.9917 1240.43 420.874
1247 0 205.617 13.1945 2713 98.8341 1239.55 418.826
1248 0 212.593 13.42 2853 97.654 1239.62 416.989
1249 0 219.59 13.2793 2916 99.8707 1238.5 407.527
1250 1 173.496 13.1761 2286 100.243 1239.63 430.604
1251 0 179.747 13.4578 2419 99.0298 1239.58 425.203
1252 0 188.574 14.7687 2785 95.3131 1239.66 421.706
1253 0 191.634 12.8891 2470 99.6879 1239.43 423.471
1254 0 199.461 13.4964 2692 98.0984 1240.15 423.578
1255 0 206.815 12.7554 2638 100.196 1240.02 414.492
1256 0 216.905 13.4667 2921 98.6255 1241.02 415.071
1257 0 223.771 12.9686 2902 100.764 1240.34 407.965
1258 1 51.3873 11.1701 574 80.9948 1241.18 493.066
1259 0 51.5214 11.4321 589 81.5874 1240.29 492.277
1260 0 54.8061 11.7505 644 80.955 1241.07 492.18
1261 0 56.7009 12.2749 696 80.4325 1241.25 488.934
1262 0 57.2552 11.6147 665 86.9128 1241.47 492.445
1263 0 61.2168 11.7288 718 86.6462 1241.25 490.403
1264 0 63.0968 11.2209 708 86.3616 1241.97 491.582
1265 0 63.3617 11.2844 715 86.8699 1241.61 490.411
1266 0 65.3538 11.8585 775 85.6916 1241.79 491.964
1267 0 67.4784 11.7964 796 85.5804 1241.37 489.838
1268 0 67.4486 11.5495 779 86.9795 1241.41 487.298
1269 0 72.8109 12.3608 900 84.3589 1241.32 485.24
1270 0 72.6178 11.9805 870 87.1195 1240.85 482.551
1271 0 75.8127 12.3198 934 85.1777 1241.8 483.231
1272 0 76.7521 12.2993 944 84.661 1240.91 480.75
1273 0 78.7802 12.3508 973 84.9168 1241.32 479.561
1274 0 84.0556 12.3371 1037 84.9807 1240.92 477.929
1275 0 85.8766 12.2851 1055 85.5242 1241.85 474.792
1276 0 86.6928 11.9733 1038 86.3179 1242.39 474.597
1277 0 90.5371 12.1939 1104 85.3587 1242.69 473.378
1278 0 92.6762 12.0635 1118 84.9642 1242.06 470.947
1279 0 97.7806 12.5281 1225 82.7233 1241.16 469.863
1280 0 101.556 12.0328 1222 83.5802 1241.71 468.169
1281 0 106.598 11.4543 1221 84.1728 1241.41 467.949
1282 1 57.5558 10.5463 607 77.1598 1241.69 490.75
1283 0 60.7922 11.3666 691 76.877 1241.59 490.41
1284 0 61.5767 10.7671 663 79.7451 1241.87 490.241
1285 0 65.6025 12.7434 836 74.3983 1242.72 488.834
1286 0 66.327 11.3076 750 80.368 1242.76 488.188
1287 0 69.3632 12.4273 862 78.558 1242.77 487.935
1288 0 69.5993 12.4427 866 79.239 1242.58 484.678
1289 0 71.6812 12.3603 886 80.1433 1243.03 483.872
1290 0 74.8605 12.3029 921 80.8512 1242.68 483.735
1291 0 76.8634 12.2425 941 83.695 1242.77 482.745
1292 0 77.7219 11.8499 921 82.7915 1242.3 479.66
1293 0 80.7341 11.7175 946 82.8425 1241.94 477.811
1294 0 81.6411 11.7833 962 83.5291 1242.42 478.441
1295 0 85.5835 12.5491 1074 83.1657 1242.37 477.309
1296 0 85.629 10.674 914 98.3446 1242.01 473.327
1297 0 90.7089 12.0936 1097 85.8323 1241.76 475.494
1298 0 92.7089 11.6817 1083 87.8421 1241.99 472.681
1299 0 96.5667 12.5198 1209 86.2349 1242.09 472.173
1300 0 99.6279 12.2155 1217 88.1405 1242.17 470.296
1301 1 56.4576 10.4326 589 82.8166 1242.47 494.149
1302 0 58.4354 11.4314 668 82.5225 1242.64 494.919
1303 0 58.2524 11.8622 691 85.369 1243.51 493.289
1304 0 61.344 12.1935 748 81.7473 1242.37 493.611
1305 0 61.3141 11.4166 700 83.0086 1242.37 493.47
1306 0 64.226 12.4716 801 80.3533 1242.16 492.21
1307 0 65.2448 12.2155 797 81.3902 1242.59 490.582
1308 0 65.2039 11.9931 782 83.2928 1242.41 489.648
1309 0 67.398 11.6917 788 85.0431 1241.69 488.028
1310 0 72.2386 12.5002 903 82.1274 1241.88 488.195
1311 0 73.274 12.4191 910 80.9659 1242.48 487.748
1312 0 75.3126 12.7469 960 82.25 1242.6 486.379
1313 0 79.214 12.9775 1028 81.1634 1242.15 485.368
1314 0 79.214 12.9775 1028 143.608 1243.16 485.346
1315 0 81.262 13.4503 1093 82.1199 1241.72 484.027
1316 0 84.3225 12.6775 1069 83.7605 1241.68 481.351
1317 0 86.2055 12.7486 1099 83.3276 1241.55 481
1318 0 90.3746 12.9793 1173 82.8943 1241.76 479.234
1319 0 91.2929 13.3745 1221 83.3366 1241.96 477.265
1320 0 94.2658 13.0482 1230 84.0797 1242.15 478.016
1321 0 98.2727 12.7604 1254 84.4067 1242.27 475.461
1322 0 103.305 13.01 1344 82.7277 1241.82 472.557
1323 0 105.371 12.4892 1316 85.0828 1241.66 470.602
1324 0 108.285 12.4578 1349 85.4989 1242.23 468.957
1325 0 111.261 12.4392 1384 86.2876 1242.59 466.606
1326 0 116.283 13.1661 1531 83.9686 1244.12 464.96
1327 0 118.238 13.3121 1574 84.1347 1242.19 462.844
1328 0 121.204 13.3082 1613 85.2232 1243.25 462.123
1329 0 123.228 13.0571 1609 83.8819 1241.33 460.786
1330 0 121.499 12.3129 1496 86.0882 1240.43 451.27
1331 1 63.0811 11.6041 732 85.3156 1239.43 480.313
1332 0 65.0585 11.4359 744 86.2298 1239.34 478.991
1333 0 68.0375 11.5672 787 85.7332 1239.71 479.065
1334 0 77.0909 12.1285 935 82.5701 1240.13 481.04
1335 0 78.0488 12.5819 982 82.3483 1239.85 480.085
1336 0 82.1924 12.6654 1041 81.7262 1239.72 480.265
1337 0 85.0974 13.0439 1110 81.0432 1240 478.856
1338 0 88.2119 12.9121 1139 81.8218 1239.79 478.574
1339 0 91.3117 13.3718 1221 81.3776 1240.28 477.792
1340 0 91.1609 13.5146 1232 83.1023 1239.31 474.297
1341 0 95.1737 13.4491 1280 82.6602 1239.13 474.546
1342 0 98.2053 13.3088 1307 83.4032 1240.03 477.936
1343 0 99.1599 12.4748 1237 86.2231 1239.85 476.558
1344 0 101.271 12.5209 1268 84.9543 1239.05 475.518
1345 0 105.353 12.5199 1319 84.9553 1239.91 472.44
1346 0 106.312 11.9835 1274 85.1837 1239 467.852
1347 0 105.178 11.8846 1250 82.5768 1238.98 463.35
1348 0 110.321 12.1554 1341 81.6898 1239.81 462.893
1349 0 112.277 12.1307 1362 81.9838 1239.8 462.062
1350 0 115.325 12.6426 1458 82.3985 1239.18 458.492
1351 0 115.329 12.9369 1492 82.9839 1239.87 451.061
1352 0 121.337 12.115 1470 85.6558 1239.7 451.02
1353 0 125.322 12.8309 1608 85.1101 1239.22 449.84
1354 0 130.358 12.4503 1623 85.1356 1239.36 447.508
1355 0 130.358 12.4273 1620 143.004 1239.37 447.252
1356 1 141.353 12.3521 1746 85.3723 1239.06 443.08
1357 1 75.2806 10.5206 792 83.2071 1239.17 474.346
1358 0 81.5495 11.5635 943 82.3722 1239.48 472.255
1359 0 88.0987 11.4531 1009 74.8484 1239.53 481.333
1360 0 89.1544 10.6332 948 77.596 1239.59 481.044
1361 0 92.185 11.4335 1054 78.2277 1240.05 478.986
1362 0 94.0699 11.4277 1075 83.9181 1239.34 478.155
1363 0 98.1577 11.7158 1150 83.9174 1240.11 476.149
1364 0 100.357 12.1067 1215 84.3449 1240.36 473.84
1365 0 106.523 12.279 1308 84.0818 1240.13 473.866
1366 0 108.731 12.7286 1384 83.9559 1239.85 468.491
1367 0 110.755 12.1349 1344 86.686 1239.63 465.337
1368 0 113.672 12.5448 1426 85.777 1239.73 467.55
1369 0 115.53 12.0921 1397 88.8869 1239.72 463.859
1370 0 120.598 12.1477 1465 88.3706 1239.54 461.295
1371 0 125.642 12.5197 1573 87.6027 1238.94 460.17
1372 0 128.666 11.7436 1511 90.5837 1239.63 456.649
1373 0 134.649 12.8408 1729 88.4378 1240.04 455.227
1374 1 72.6737 10.8705 790 77.9696 1240.58 490.373
1375 0 75.5721 11.5519 873 76.866 1240.04 486.89
1376 0 76.5404 11.2228 859 76.7392 1240.09 486.967
1377 0 81.482 11.7817 960 74.2677 1240.7 485.148
1378 0 81.5654 11.5367 941 75.8778 1240.64 484.217
1379 0 81.7195 11.3682 929 74.7352 1240.91 484.192
1380 0 83.5643 11.6557 974 79.1715 1241.06 483.843
1381 0 81.7008 11.5421 943 82.3457 1240.79 482.492
1382 0 83.6227 12.1139 1013 81.6811 1240.46 483.693
1383 0 83.5758 11.2592 941 83.3836 1240.46 482.034
1384 0 87.5405 12.1429 1063 79.6792 1240.18 480.913
1385 0 89.6021 11.6738 1046 79.0688 1239.79 481.445
1386 0 93.6623 11.723 1098 76.3561 1240.58 480.009
1387 0 95.8432 11.3727 1090 76.1183 1239.89 478.145
1388 0 99.4729 11.8826 1182 73.0296 1240.51 477.802
1389 0 99.7621 10.7656 1074 73.8547 1239.94 473.992
1390 0 103.621 11.0402 1144 72.8059 1239.04 473.329
1391 0 105.427 11.0503 1165 73.1073 1239.48 472.948
1392 0 108.635 11.1106 1207 73.6769 1239.24 469.582
1393 0 109.508 11.643 1275 73.4408 1239.72 471.36
1394 0 113.568 11.6495 1323 73.9191 1239.5 468.887
1395 0 113.57 11.6756 1326 126.753 1239.5 468.998
1396 0 118.442 10.6888 1266 79.9961 1239.65 464.995
1397 0 121.63 11.1979 1362 80.1924 1239.52 464.689
1398 0 124.615 10.9858 1369 82.5398 1239.67 464.14
1399 0 128.538 11.1096 1428 86.201 1239.22 460.247
1400 0 130.605 11.2707 1472 85.8315 1238.8 457.261
1401 0 134.531 11.5512 1554 86.6184 1239.36 458.838
1402 0 137.6 11.7224 1613 89.4613 1239.16 454.387
1403 0 143.606 12.1443 1744 89.0688 1238.58 453.019
1404 0 147.456 11.5085 1697 90.4791 1238.83 452.732
1405 0 153.473 12.8687 1975 89.2628 1238.55 450.013
1406 1 78.2572 11.3089 885 84.1017 1238.98 488.489
1407 0 80.2505 11.5513 927 84.9515 1239.12 490.124
1408 0 82.3138 11.7356 966 85.4234 1238.99 487.488
1409 0 84.1956 11.9602 1007 89.5055 1239.18 486.015
1410 0 86.2875 11.8441 1022 90.6536 1239.05 486.286
1411 0 89.3984 12.6512 1131 92.1927 1239.51 485.166
1412 0 92.345 12.1393 1121 96.3934 1239.12 481.636
1413 0 94.2875 12.4195 1171 95.8207 1239.79 480.051
1414 0 96.5865 11.9582 1155 99.2199 1239.56 478.365
1415 0 99.6609 12.5526 1251 95.8841 1239.07 476.255
1416 0 102.396 12.8326 1314 96.1781 1239.24 474.381
1417 0 106.548 12.6516 1348 99.1031 1239.73 473.545
1418 0 109.425 12.9312 1415 99.1802 1239.17 471.458
1419 0 111.616 13.4838 1505 99.4027 1238.84 470.772
1420 0 112.564 13.0325 1467 103.205 1239.43 468.371
1421 0 118.463 13.2615 1571 102.973 1238.73 467.007
1422 0 123.598 14.1264 1746 101.696 1239.33 462.833
1423 0 126.696 14.1046 1787 101.76 1239.01 459.492
1424 0 129.555 13.5386 1754 100.103 1239.52 456.245
1425 0 135.573 13.8966 1884 98.4214 1239.29 453.876
1426 1 59.2619 10.6983 634 101.285 1239.74 487.557
1427 0 59.1395 10.7542 636 100.72 1239.99 484.226
1428 0 59.1387 11.3462 671 100.684 1241.03 484.186
1429 0 60.1215 11.3603 683 99.5417 1240.45 483.078
1430 0 65.302 11.9751 782 96.5985 1239.72 486.893
1431 0 68.2543 12.0285 821 95.8002 1239.62 486.985
1432 0 68.0357 12.9785 883 89.9728 1239.49 486.802
1433 0 68.1029 11.7029 797 94.7829 1239.25 485.679
1434 0 70.0674 11.86 831 94.2262 1239.45 487.218
1435 0 70.1097 11.7958 827 96.1475 1239.71 482.635
1436 0 71.1262 11.4304 813 97.1562 1239.63 480.839
1437 0 74.2805 11.8739 882 95.8435 1239.71 479.244
1438 0 75.2293 11.7242 882 96.0204 1240.06 474.779
1439 0 80.1798 12.0978 970 91.901 1240 475.853
1440 0 83.2957 12.6177 1051 91.0894 1240.12 474.615
1441 0 86.4627 12.4678 1078 92.1753 1240 472.176
1442 0 87.2535 12.2058 1065 94.0122 1239.96 470.127
1443 0 89.3589 12.4554 1113 94.0701 1239.96 468.303
1444 0 91.2105 11.9942 1094 95.3163 1240.14 466.375
1445 0 94.3359 12.7523 1203 92.9958 1239.85 466.915
1446 0 96.3271 12.2915 1184 95.4645 1240 462.912
1447 0 100.197 11.9664 1199 96.6931 1239.36 461.817
1448 0 100.1 12.8571 1287 95.1748 1239.68 458.24
1449 0 103.187 12.2593 1265 95.6909 1239.14 457.74
1450 0 108.172 12.3137 1332 96.4707 1240.22 458.287
1451 0 111.152 12.6133 1402 97.0635 1240.05 457.773
1452 1 60.0395 8.4611 508 90.9547 1238.9 479.53
1453 0 61.0837 7.87444 481 91.8004 1239.46 478.48
1454 0 63.0471 8.75536 552 88.8877 1239.66 477.123
1455 0 65.0305 8.87276 577 88.2288 1239.46 477.905
1456 0 66.1225 8.7716 580 91.0052 1238.93 476.847
1457 0 65.1167 8.64601 563 92.6767 1238.93 475.053
1458 0 70.1389 8.75406 614 92.6173 1239.57 477.274
1459 0 74.1148 9.41782 698 89.7779 1238.98 475.186
1460 0 75.1928 9.45569 711 90.1421 1238.96 478.332
1461 0 78.1638 9.99184 781 88.6428 1239.24 477.635
1462 0 79.1833 8.43612 668 91.726 1238.73 473.666
1463 0 81.1197 9.0237 732 90.4221 1238.97 474.276
1464 0 83.201 9.08643 756 92.3056 1238.8 473.519
1465 0 85.1608 9.49967 809 89.8245 1238.97 475.159
1466 0 85.1285 8.86894 755 92.1219 1239.28 472.621
1467 0 89.2194 10.2892 918 88.6961 1239.25 472.681
1468 0 91.2043 9.37456 855 91.8784 1239.18 471.372
1469 0 92.2709 10.3391 954 89.3669 1240.18 473.799
1470 0 94.2444 9.96345 939 90.8477 1239.92 469.81
1471 0 99.284 9.98146 991 89.8295 1239.46 471.272
1472 0 100.216 9.88864 991 90.2906 1239.31 471.695
1473 0 100.216 9.87866 990 148.239 1239.29 471.487
1474 0 107.172 10.9171 1170 88.2068 1239.08 469.388
1475 0 111.379 11.1601 1243 88.1995 1239.45 466.096
1476 0 112.442 10.8411 1219 89.4069 1239.37 461.988
1477 0 116.47 10.5435 1228 88.68 1238.96 459.303
1478 1 49.1702 8.80615 433 72.545 1238.31 496.497
1479 0 48.2753 8.84511 427 73.0187 1238.57 496.752
1480 0 49.2244 8.77614 432 73.9977 1238.06 494.894
1481 0 51.0406 9.99205 510 71.2804 1239.31 495.549
1482 0 51.146 10.4016 532 71.9192 1240.69 494.444
1483 0 54.0592 10.6365 575 73.9565 1241.12 495.24
1484 0 53.0131 10.073 534 76.4326 1241.07 495.425
1485 0 56.0413 10.6885 599 71.182 1240.99 493.932
1486 0 56.0298 10.8692 609 71.3448 1240.65 494.36
1487 0 59.0806 11.1712 660 70.6955 1240.76 492.795
1488 0 62.0516 11.4743 712 70.1222 1241.39 492.069
1489 0 63.0256 11.0114 694 73.621 1241.23 491.448
1490 0 63.0272 10.8842 686 114.659 1241.27 491.49
1491 0 65.1414 11.3446 739 74.2152 1242.25 491.315
1492 0 68.042 11.4488 779 74.0668 1241.89 489.218
1493 0 70.1152 11.367 797 74.4467 1242.47 487.348
1494 0 71.0494 11.1331 791 85.4741 1242.62 484.977
1495 0 74.1573 11.4756 851 84.0129 1242.87 485.315
1496 0 77.2741 11.2457 869 83.6433 1242.62 485.586
1497 0 76.0326 11.4162 868 81.8491 1242.89 483.462
1498 0 76.0416 11.4543 871 126.621 1242.86 483.37
1499 0 81.1564 11.2745 915 84.8951 1242.35 480.805
1500 0 83.0917 11.1924 930 84.571 1242.29 479.869
1501 0 86.0662 11.2355 967 83.7146 1241.83 479.583
1502 0 89.0799 11.3606 1012 81.4457 1242.37 476.251
1503 0 92.0996 10.847 999 80.8599 1241.76 475.696
1504 1 50.0696 9.92618 497 76.3984 1241.08 497.819
1505 0 52.2169 10.15 530 73.3245 1242.47 497.089
1506 0 53.3767 10.1542 542 75.1181 1243.17 494.066
1507 0 55.3581 10.3688 574 75.6394 1242.86 492.512
1508 0 57.1483 11.0414 631 74.561 1241.59 495.886
1509 0 54.1733 10.0234 543 80.639 1242.6 495.661
1510 0 60.5508 11.0321 668 77.747 1242.63 491.879
1511 0 59.2348 10.3824 615 79.5659 1242.15 495.777
1512 0 63.2514 10.6559 674 80.2448 1241.47 493.306
1513 0 64.3869 11.6483 750 79.5453 1241.02 492.156
1514 0 64.2409 10.6319 683 81.959 1240.86 492.086
1515 0 67.251 11.6281 782 80.5563 1241.34 491.008
1516 0 69.2867 11.0555 766 81.5274 1241.66 491.905
1517 0 70.3198 11.9739 842 80.7518 1241.28 488.119
1518 0 72.1861 11.5119 831 81.7798 1240.36 485.324
1519 0 75.211 11.7669 885 81.5503 1240.13 485.14
1520 0 79.2325 11.6745 925 82.2032 1240.35 485.467
1521 0 78.222 12.1194 948 81.7215 1240.95 484.409
1522 0 82.2241 12.5511 1032 81.4273 1241.08 482.132
1523 0 82.2322 12.2215 1005 82.9483 1240.67 480.541
1524 0 87.2778 12.7982 1117 82.1209 1240.12 480.132
1525 0 90.163 13.642 1230 79.539 1242.2 476.157
1526 0 89.1524 11.6991 1043 84.0249 1242.7 476.872
1527 0 94.169 12.5944 1186 82.1644 1242.36 475.119
1528 0 95.2063 12.3521 1176 83.6522 1242.61 474.73
1529 0 98.2018 12.179 1196 84.6346 1241.93 473.823
1530 0 102.225 12.2964 1257 83.5259 1242.78 472.344
1531 0 104.28 12.361 1289 83.8604 1242.94 471.697
1532 1 57.1716 11.3693 650 84 1243.66 493.283
1533 0 58.1373 11.1976 651 84.2934 1244.34 494.435
1534 0 60.2441 12.0842 728 82.5687 1243.63 491.496
1535 0 62.3616 12.3954 773 81.6274 1243.49 490.303
1536 0 62.0891 13.0619 811 81.3033 1242.14 488.882
1537 0 65.1222 12.9602 844 81.7441 1241.95 490.935
1538 0 65.2123 11.7462 766 85.2154 1241.76 490.949
1539 0 68.1496 12.1057 825 85.3733 1242.52 489.013
1540 0 71.1483 12.6777 902 82.5477 1242.17 489.169
1541 0 72.1472 12.6408 912 83.7215 1242.16 487.654
1542 0 75.249 12.3191 927 83.3215 1241.68 486.484
1543 0 77.3326 12.7243 984 83.4919 1241.89 485.505
1544 0 77.2433 12.5189 967 85.2637 1242.18 484.072
1545 0 81.2504 12.7876 1039 86.1039 1242.24 483.729
1546 0 84.2944 12.9546 1092 85.7738 1241.64 481.155
1547 0 85.3907 12.8937 1101 87.5577 1241.59 480.243
1548 0 88.4373 12.8566 1137 87.5919 1241.38 478.683
1549 0 91.3901 13.043 1192 87.6409 1241.15 477.674
1550 0 93.3481 12.9194 1206 88.835 1241.3 474.874
1551 0 98.4295 13.8272 1361 86.8376 1241.32 472.492
1552 0 98.2434 12.8558 1263 91.844 1241.17 472.75
1553 0 101.311 13.1674 1334 90.7804 1241.38 471.823
1554 0 105.349 13.1373 1384 90.4646 1241.29 470.434
1555 0 105.349 13.1943 1390 144.883 1241.29 470.278
1556 0 110.225 13.1186 1446 90.8057 1241.14 466.572
1557 0 112.221 12.7249 1428 90.7598 1240.86 466.251
1558 0 114.214 12.9932 1484 91.1799 1241.06 463.303
1559 0 119.14 13.2785 1582 89.7781 1241.67 460.441
1560 0 121.324 12.2977 1492 89.9745 1241.58 460.205
1561 0 125.26 12.6218 1581 88.8096 1240.91 457.867
1562 0 131.293 12.6891 1666 88.7455 1241.42 457.483
1563 1 76.3116 10.6144 810 88.1914 1242.26 483.228
1564 0 78.2461 11.4255 894 81.7942 1241.96 482.434
1565 0 81.1953 11.9342 969 74.3674 1241.72 480.514
1566 0 82.2937 11.945 983 84.5788 1241.82 475.9
1567 0 84.3306 12.2968 1037 82.6432 1241.7 478.261
1568 0 85.2759 11.926 1017 84.4739 1241.79 477.471
1569 0 90.3925 12.7223 1150 82.5791 1242.07 475.173
1570 0 91.2884 12.7617 1165 84.4446 1241.66 474.711
1571 0 96.3062 12.9171 1244 83.7596 1241.08 471.491
1572 0 98.3165 12.6632 1245 84.5534 1241.09 472.002
1573 0 101.321 13.2746 1345 84.3903 1241.07 470.386
1574 0 102.277 13.1701 1347 85.6741 1240.92 469.576
1575 0 106.394 12.7075 1352 85.6191 1240.37 468.713
1576 0 106.229 12.3883 1316 86.3655 1240.86 466.154
1577 0 108.265 12.4602 1349 83.8614 1240.44 463.638
1578 0 107.156 11.8052 1265 81.1992 1240.92 456.327
1579 0 110.364 12.6672 1398 80.3033 1240.57 455.572
1580 0 115.237 12.1749 1403 82.1974 1240.45 451.322
1581 0 118.263 13.47 1593 83.4733 1240.18 449.861
1582 0 120.253 12.7149 1529 84.6599 1240.42 447.758
1583 0 122.28 13.1174 1604 82.9931 1240.43 445.824
1584 0 126.203 12.892 1627 85.8574 1240.3 442.092
1585 0 131.401 13.1505 1728 86.2911 1240.26 439.031
1586 1 75.3355 11.1634 841 85.2033 1241.47 468.74
1587 0 74.2773 10.8243 804 87.4552 1241.72 468.086
1588 0 82.1596 11.6724 959 84.5537 1241.36 468.014
1589 0 82.1676 12.1824 1001 83.6494 1241.09 465.698
1590 0 86.1528 12.0832 1041 84.2594 1241.27 467.148
1591 0 87.0746 12.7477 1110 84.2523 1241.26 466.545
1592 0 91.2242 12.4419 1135 85.7639 1241.84 466.552
1593 0 90.245 12.8428 1159 153.777 1242.83 467.084
1594 0 96.3285 12.5093 1205 87.605 1241.44 461.766
1595 0 101.259 12.4235 1258 87.9928 1240.66 460.064
1596 0 103.378 12.2753 1269 89.2931 1240.72 456.098
1597 0 106.326 13.0072 1383 88.0882 1240.15 454.531
1598 0 109.295 12.9375 1414 89.0042 1240.16 452.033
1599 0 111.308 12.4699 1388 92.0238 1240.28 451.267
1600 0 117.279 12.773 1498 90.8284 1239.95 449.424
1601 0 117.279 12.7559 1496 162.842 1238.96 449.235
1602 0 123.313 12.6913 1565 91.2102 1240.35 447.163
1603 0 131.238 12.4583 1635 91.1829 1240.56 445.059
1604 0 132.395 12.2059 1616 93.4041 1240.51 443.162
1605 1 74.1769 9.5852 711 86.0155 1240.57 472.855
1606 0 73.1649 10.0321 734 83.7384 1240.4 470.699
1607 0 73.1649 10.1141 740 148.599 1240.42 470.686
1608 0 82.0508 10.5544 866 79.9758 1241.22 469.861
1609 0 83.0477 10.4277 866 81.3048 1240.93 467.7
1610 0 85.0539 11.6514 991 79.7487 1240.43 465.405
1611 0 89.0607 12.3624 1101 76.7766 1239.98 464.254
1612 0 91.1017 11.4268 1041 78.4669 1239.63 462.397
1613 0 94.1359 11.494 1082 82.1238 1239.94 459.898
1614 0 95.1294 12.0783 1149 81.8077 1239.94 459.528
1615 0 95.135 11.51 1095 84.0721 1239.96 456.121
1616 0 103.114 11.1139 1146 84.4616 1239.47 455.541
1617 0 104.2 11.1324 1160 84.3707 1240.14 455.584
1618 0 106.099 11.8003 1252 83.4625 1239.68 453.685
1619 0 110.21 11.8592 1307 83.1836 1239.95 451.258
1620 0 116.234 12.2512 1424 81.9874 1240.34 452.211
1621 0 119.15 12.8745 1534 79.8977 1239.74 450.763
1622 0 123.211 12.3447 1521 82.021 1240.16 448.613
1623 0 134.194 13.6295 1829 86.4019 1239.64 454.944
1624 1 77.2319 11.0188 851 83.9295 1239.48 482.608
1625 0 81.1868 11.2703 915 84.5694 1239.51 481.141
1626 0 82.2635 11.8765 977 85.259 1240.11 477.933
1627 0 86.1576 12.4191 1070 84.4794 1240.01 478.738
1628 0 87.169 12.1947 1063 77.3057 1241.53 478.16
1629 0 89.2774 13.1276 1172 76.6894 1241.16 476.965
1630 0 91.1822 13.1385 1198 77.929 1241.27 476.578
1631 0 95.2436 13.2922 1266 77.124 1241.03 474.462
1632 0 99.2865 12.9826 1289 78.4717 1241.05 474.047
1633 0 100.256 13.1762 1321 79.6124 1240.79 471.45
1634 0 103.229 13.1262 1355 79.2465 1239.69 470.222
1635 0 107.211 13.4314 1440 79.7264 1240.63 467.936
1636 0 108.233 12.6578 1370 83.0657 1239.88 468.058
1637 0 111.212 12.8853 1433 82.6106 1240 466.048
1638 0 115.21 12.8982 1486 82.4859 1240.63 464.766
1639 0 117.162 12.5724 1473 84.0475 1240.24 461.81
1640 0 120.174 12.6151 1516 85.2104 1240.31 459.361
1641 0 124.186 12.5699 1561 83.6586 1240.66 459.059
1642 0 128.183 12.7396 1633 83.3386 1240.46 455.227
1643 1 76.0952 10.8023 822 80.1837 1240.8 483.877
1644 0 77.0617 11.653 898 80.0757 1241.71 482.364
1645 0 78.2329 12.2199 956 77.5335 1241.29 479.461
1646 0 82.1253 11.7503 965 77.5679 1241.62 480.892
1647 0 85.0982 12.4445 1059 75.441 1241.36 478.135
1648 0 87.1062 12.5709 1095 75.8183 1241.56 478.063
1649 0 89.0925 13.3457 1189 73.7183 1241.52 478.787
1650 0 91.0921 12.8661 1172 76.1374 1241.3 476.869
1651 0 91.0845 12.944 1179 77.4478 1241.59 476.282
1652 0 96.125 13.6593 1313 75.917 1241.3 472.359
1653 0 98.1752 13.1907 1295 78.8618 1240.76 472.684
1654 0 101.119 13.6176 1377 78.6754 1240.33 469.395
1655 0 104.15 13.951 1453 79.9312 1240.33 468.847
1656 0 105.248 13.625 1434 81.4895 1239.95 466.488
1657 0 109.217 13.4778 1472 83.0829 1240.03 465.977
1658 0 112.25 13.8085 1550 83.6348 1239.37 467.581
1659 0 112.16 13.7483 1542 85.4326 1240.24 467.09
1660 0 115.16 14.2063 1636 85.0507 1240.39 466.668
1661 0 121.156 14.1718 1717 85.8352 1240.77 463.765
1662 0 124.207 14.2182 1766 86.7497 1240.27 462.755
1663 0 126.126 13.9939 1765 88.7093 1239.82 460.212
1664 0 129.262 14.1108 1824 89.6535 1239.83 458.336
1665 0 134.23 14.0133 1881 89.7943 1239.59 454.742
1666 0 138.283 15.0344 2079 87.1789 1239.12 452.426
1667 0 141.345 13.7819 1948 95.7089 1238.82 449.375
1668 0 145.219 13.5451 1967 92.9761 1238.94 447.652
1669 0 152.3 13.7361 2092 90.2739 1237.76 443.487
1670 0 156.289 13.8334 2162 91.685 1238.73 441.553
1671 0 162.375 13.8815 2254 91.0013 1237.86 440
1672 1 96.1496 10.9309 1051 87.3511 1238.37 472.789
1673 0 98.1665 11.1341 1093 88.1327 1238.31 471.939
1674 0 102.08 11.8241 1207 87.0911 1238.17 470.626
1675 0 104.064 11.5025 1197 89.0376 1237.83 469.393
1676 0 108.106 12.3397 1334 88.2819 1237.74 467.211
1677 0 112.25 12.1247 1361 89.878 1237.99 464.987
1678 0 114.225 12.4578 1423 91.111 1238.35 464.257
1679 0 121.061 13.0761 1583 89.2653 1237.97 462.317
1680 0 123.059 11.7829 1450 92.6255 1237.45 459.028
1681 0 127.142 12.8124 1629 89.8293 1237.95 456.785
1682 0 130.243 12.2848 1600 90.2262 1237.47 451.069
1683 1 77.052 9.82453 757 83.782 1237.71 481.704
1684 0 78.0816 10.1432 792 82.6881 1237.74 482.653
1685 0 80.0638 10.8414 868 82.2569 1238.07 482.188
1686 0 80.1183 10.5344 844 84.0818 1237.34 479.729
1687 0 80.1028 10.4616 838 135.271 1236.33 479.778
1688 0 86.178 12.2769 1058 81.0246 1238.63 478.027
1689 0 88.108 11.4519 1009 81.8999 1238.6 477.779
1690 0 91.2024 11.9185 1087 80.0101 1238.11 476.878
1691 0 92.1484 11.9373 1100 80.0318 1238.01 473.725
1692 0 94.1895 11.7423 1106 80.9864 1238.13 470.41
1693 0 96.0926 11.541 1109 80.2083 1238.59 470.786
1694 0 101.145 11.8345 1197 78.8413 1238.54 468.882
1695 0 103.064 12.0702 1244 78.9863 1238.1 468.235
1696 0 105.207 11.9954 1262 79.084 1238.41 466.987
1697 0 106.083 11.8398 1256 79.9116 1238.23 465.248
1698 0 111.191 12.6539 1407 78.1706 1239.03 463.66
1699 0 114.14 11.9064 1359 79.0751 1238.93 461.158
1700 0 114.183 11.7881 1346 79.9985 1238.69 459.088
1701 0 119.102 12.5019 1489 79.9933 1238.36 457.671
1702 0 121.194 11.395 1381 81.412 1239.41 456.268
1703 0 125.254 11.9038 1491 90.0818 1238.94 455.486
1704 0 128.267 12.1232 1555 80.4103 1239.01 456.102
1705 0 130.141 11.4799 1494 82.9652 1238.82 453.353
1706 0 133.295 11.0432 1472 85.0034 1239.5 451.719
1707 0 138.307 12.118 1676 83.7649 1239.25 450.51
1708 0 142.093 11.8936 1690 87.4994 1238.73 447.139
1709 0 148.307 11.6313 1725 87.527 1238.85 444.886
1710 0 151.487 11.8888 1801 87.4259 1239.33 438.448
1711 0 156.477 12.0018 1878 89.0032 1239.82 437.423
1712 0 161.413 12.087 1951 89.1471 1239.74 434.855
1713 0 165.542 12.5708 2081 87.7165 1239.69 431.844
1714 0 169.408 11.7763 1995 92.3123 1240.25 428.298
1715 0 175.514 12.6314 2217 91.866 1240.08 426.411
1716 0 180.436 12.0652 2177 93.5457 1239.5 425.153
1717 0 184.518 12.6004 2325 94.3665 1239.41 420.394
1718 0 190.445 13.0904 2493 93.7762 1239.1 418.625
1719 0 196.425 13.5217 2656 92.4047 1239.43 416.39
1720 0 201.466 13.0295 2625 94.9341 1238.6 413.701
1721 0 206.437 13.0694 2698 95.8577 1239.18 411.915
1722 0 212.436 13.1145 2786 95.5739 1239.24 409.168
1723 0 218.588 13.0336 2849 97.2169 1239.04 406.254
1724 0 222.479 12.7383 2834 98.2851 1239.7 404.11
1725 1 52.0971 8.6953 453 81.6667 1243.47 493.088
1726 0 53.0434 9.21886 489 82.4397 1243.42 492.029
1727 0 55.0474 8.73792 481 80.5094 1240.4 490.006
1728 0 53.0861 9.41866 500 75.592 1239.76 494.27
1729 0 53.0829 9.09897 483 76.1615 1239.75 493.42
1730 0 56.1193 9.88965 555 74.5946 1239.71 493.076
1731 0 57.1006 10.0174 572 75.9003 1239.59 492.813
1732 0 57.0328 9.92411 566 76.5919 1238.93 491.813
1733 0 60.0737 10.1708 611 76.1669 1238.57 491.286
1734 0 61.0788 10.0526 614 76.7492 1239.58 491.205
1735 0 63.2357 10.3423 654 77.3853 1239.22 491.283
1736 0 66.1879 11.135 737 75.924 1239.51 488.931
1737 0 66.1253 10.1625 672 78.9137 1239.22 488.589
1738 0 69.1561 10.5992 733 78.4038 1239.45 488.109
1739 0 70.0374 10.5515 739 78.8945 1239.42 487.049
1740 0 71.0931 10.9715 780 79.3551 1240.48 485.967
1741 0 74.0745 11.1374 825 78.8061 1240.74 483.013
1742 0 77.0278 11.2427 866 77.1963 1238.95 485.465
1743 0 79.0992 11.2517 890 77.7393 1240.82 483.784
1744 0 79.1096 10.6687 844 80.4905 1240.95 480.591
1745 0 83.1802 12.0101 999 78.8188 1241.75 477.816
1746 0 87.1737 12.7447 1111 74.9082 1240.25 476.576
1747 0 91.2874 12.2032 1114 83.7621 1239.79 475.279
1748 0 93.213 11.9618 1115 82.5399 1239.85 475.317
1749 1 54.0249 9.71773 525 74.0914 1241.49 495.069
1750 0 56.0174 10.4789 587 71.4736 1240.93 493.862
1751 0 55.1174 10.8133 596 72.6812 1238.56 490.572
1752 0 60.147 10.5242 633 72.6761 1238.55 490.088
1753 0 58.0207 10.6686 619 73.3425 1240.05 491.898
1754 0 63.0339 11.01 694 83.67 1241.21 490.602
1755 0 63.0393 12.405 782 81.3286 1241.58 489.058
1756 0 67.0616 11.4671 769 81.446 1240.85 489.469
1757 0 67.1018 11.8179 793 80.7528 1241.47 488.248
1758 0 68.0435 12.1246 825 78.9103 1241.41 489.045
1759 0 69.0377 12.428 858 79.2436 1241.6 488.041
1760 0 72.0426 13.4504 969 76.8411 1241.18 486.818
1761 0 73.0617 12.5784 919 79.7388 1241.6 486.053
1762 0 73.0617 12.6332 923 149.724 1241.62 485.98
1763 0 74.0757 12.8787 954 82.1153 1241.74 484.138
1764 0 76.1184 11.9288 908 85.5352 1240.93 482.519
1765 0 78.1363 12.5422 980 84.2378 1241.13 482.309
1766 0 80.0661 12.3898 992 85.2006 1241.4 480.498
1767 0 82.0801 12.6462 1038 84.0096 1240.81 478.624
1768 0 84.0876 12.7962 1076 83.6338 1240.74 478.315
1769 0 88.1579 13.3057 1173 83.6036 1240.69 477.417
1770 0 91.1003 13.0406 1188 84.9571 1240.83 476.878
1771 0 90.0829 12.7771 1151 86.6655 1240.47 472.443
1772 0 95.1101 13.2268 1258 86.2417 1240.27 473.886
1773 0 97.1259 13.57 1318 85.7989 1240.38 472.642
1774 0 100.157 13.5587 1358 86.5471 1240.46 469.797
1775 0 102.167 13.5563 1385 87.0736 1240.24 468.992
1776 0 104.18 13.9375 1452 87.0496 1240.11 467.103
1777 0 106.196 13.8799 1474 87.2544 1240.35 467.786
1778 0 109.123 13.636 1488 88.8031 1240.53 464.742
1779 0 114.085 13.2445 1511 89.5083 1240.65 462.743
1780 0 117.206 13.2587 1554 89.3314 1240.59 459.03
1781 0 122.24 13.9317 1703 86.347 1240.06 458.158
1782 0 126.183 13.9005 1754 86.4179 1239.88 456.989
1783 0 128.3 13.1333 1685 87.7496 1239.76 455.193
1784 0 128.299 13.1412 1686 152.399 1240.77 455.131
1785 1 55.2042 10.4159 575 65.0313 1240.94 493.466
1786 0 57.4125 11.4783 659 64.22 1242.02 491.326
1787 0 57.0567 11.6726 666 64.5841 1240.65 491.959
1788 0 57.0526 10.9723 626 67.1406 1241.77 493.008
1789 0 61.121 11.6163 710 67.0437 1241.79 492.661
1790 0 62.1227 11.3002 702 67.386 1241.32 493.427
1791 0 65.2369 10.9907 717 67.1116 1241.18 490.37
1792 0 64.1653 11.1275 714 68.1611 1240.68 489.564
1793 0 67.2737 11.8323 796 67.1168 1241.03 488.425
1794 0 69.1688 11.3924 788 67.3185 1240.98 487.418
1795 0 71.1716 11.6198 827 69.347 1240.99 486.82
1796 0 73.2152 12.5247 917 67.9673 1240.44 485.742
1797 0 74.1471 11.0321 818 70.3655 1240.86 485.242
1798 0 77.3293 11.0954 858 69.852 1240.34 482.805
1799 0 79.2291 11.9653 948 68.7532 1240.18 480.795
1800 0 81.3184 10.8094 879 70.1468 1240.09 479.338
1801 0 84.2576 11.3699 958 69.9937 1239.28 479.543
1802 0 85.3811 11.2437 960 70.3469 1239.28 477.078
1803 0 91.0972 9.55024 870 72.0195 1237.96 477.872
1804 0 91.2082 10.7556 981 71.6391 1238 473.495
1805 0 95.0992 11.1673 1062 71.4068 1237.65 471.351
1806 0 97.1686 10.6619 1036 74.7124 1239.52 471.758
1807 0 101.177 10.6645 1079 76.0992 1239.85 470.723
1808 1 61.1731 9.85728 603 69.1476 1239.42 492.826
1809 0 62.2927 10.8199 674 69.0875 1239.9 487.32
1810 0 65.3966 10.4134 681 70.185 1239.43 487.934
1811 0 65.4697 11.0127 721 70.5451 1239.12 486.277
1812 0 68.2645 11.3383 774 69.6899 1239.5 486.696
1813 0 69.2076 10.967 759 70.6087 1238.53 488.208
1814 0 69.1721 10.2932 712 72.8287 1238.42 484.794
1815 0 71.1741 10.1863 725 72.491 1237.7 485.316
1816 0 73.1384 10.7468 786 71.8982 1237.88 483.677
1817 0 78.1399 10.8395 847 79.1736 1237.53 481.554
1818 1 13.0017 5.61465 73 68.589 1239.71 516.137
1819 0 12.0036 6.49804 78 67.6923 1239.76 516.333
1820 0 15.0013 5.73284 86 69.2326 1239.84 515.372
1821 0 15.0022 6.06578 91 69.0879 1239.52 514.846
1822 0 15.018 5.52672 83 69.747 1240.46 514.422
1823 0 14.0004 6.99981 98 68.3571 1239.26 514.622
1824 0 16.0027 6.31143 101 69.2475 1238.29 513.901
1825 1 97.3788 11.5734 1127 80.3691 1238.57 470.044
1826 0 101.479 11.1255 1129 80.5908 1239 465.832
1827 0 106.298 12.2674 1304 80.9486 1238.42 467.411
1828 0 108.424 11.9623 1297 82.9823 1238.14 464.122
1829 0 109.35 12.1171 1325 84.5894 1238.22 461.558
1830 0 110.429 11.0116 1216 87.7755 1238.7 459.848
1831 0 114.513 11.6756 1337 87.347 1238.39 459.856
1832 0 120.452 12.5195 1508 84.6346 1238.15 459.487
1833 0 123.399 12.2286 1509 85.8376 1238.53 459.526
1834 0 125.428 12.0308 1509 87.4645 1238.56 459.359
1835 0 128.541 12.0895 1554 88.4009 1238.33 456.452
1836 0 131.356 12.6298 1659 88.4268 1238.76 453.583
1837 0 133.471 11.9576 1596 95.0883 1238.79 451.85
1838 0 137.428 12.0208 1652 96.1398 1238.44 449.315
1839 0 142.404 11.7693 1676 95.1671 1237.74 449.68
1840 0 146.415 12.7241 1863 93.6704 1238.13 447.06
1841 0 150.338 12.126 1823 95.9578 1238.43 442.317
1842 0 155.339 12.2442 1902 95.5741 1238.21 441.193
1843 0 158.388 12.4251 1968 92.7718 1238.42 439.217
1844 0 164.262 12.6505 2078 91.6068 1238.77 438.514
1845 0 168.292 12.8705 2166 92.9575 1238.39 435.23
1846 0 174.333 13.0096 2268 93.0582 1238.91 433.411
1847 0 178.39 12.5344 2236 96.2683 1238.78 427.678
1848 0 185.417 12.8521 2383 95.8569 1238.7 427.194
1849 0 191.352 12.835 2456 95.9194 1238.07 425.572
1850 1 104.152 10.9551 1141 89.4163 1238.65 469.046
1851 0 105.092 11.6374 1223 88.8389 1238.42 467.59
1852 0 109.109 12.3363 1346 88.6374 1238.92 468.195
1853 0 114.124 11.7854 1345 95.0498 1238.13 464.721
1854 0 116.136 11.7879 1369 95.9028 1239.27 462.841
1855 0 121.072 12.505 1514 92.7992 1239.32 461.62
1856 0 123.098 12.3803 1524 93.8753 1238.88 458.493
1857 0 128.14 12.2366 1568 93.8833 1238.27 454.967
1858 0 130.143 12.2558 1595 94.9423 1238.87 452.574
1859 0 134.287 12.7562 1713 94.704 1239.06 451.988
1860 0 137.198 12.3252 1691 95.9734 1238.58 450.135
1861 0 142.177 12.9908 1847 94.954 1238.86 446.911
1862 0 145.535 13.1652 1916 95.9979 1239.65 443.789
1863 0 151.412 12.6476 1915 98.765 1239.32 442.532
1864 0 153.446 12.9297 1984 98.7732 1239.29 439.61
1865 0 158.446 13.0455 2067 99.4693 1238.89 435.939
1866 0 164.466 13.0422 2145 99.1958 1238.98 435.569
1867 0 169.513 13.4916 2287 99.5719 1239.03 432.403
1868 0 174.48 13.7093 2392 98.7316 1238.81 429.299
1869 0 179.332 13.0707 2344 101.347 1238.5 419.435
1870 0 185.336 13.8721 2571 97.8697 1238.34 422.777
1871 0 193.447 13.8384 2677 93.941 1239.83 423.821
1872 0 198.381 13.6102 2700 94.6337 1239.32 419.113
1873 0 201.436 13.2598 2671 96.0726 1238.92 415.551
1874 0 209.396 13.3384 2793 95.3967 1238.37 413.381
1875 0 215.547 13.5238 2915 95.9736 1238.91 407.152
1876 0 222.636 13.7129 3053 97.962 1239.3 405.317
1877 0 226.51 13.8758 3143 97.8985 1239.01 401.274
1878 0 234.393 14.945 3503 95.5207 1238.81 397.109
1879 0 239.492 13.9754 3347 100.385 1238.62 398.77
1880 0 246.446 16.113 3971 95.0519 1239.07 388.438
1881 0 253.408 14.7864 3747 99.5252 1238.8 380.88
1882 1 61.0365 10.1579 620 83.0919 1239.03 484.577
1883 0 63.0623 10.2597 647 82.6012 1238.01 483.677
1884 0 64.0896 10.5009 673 84.4473 1242.05 483.9
1885 0 63.0654 9.8945 624 75.6106 1241.91 488.431
1886 0 64.0458 9.78988 627 76.697 1241.37 487.316
1887 0 67.1016 10.0296 673 76.6389 1242.13 486.01
1888 0 67.0869 9.95724 668 77.9731 1240.56 486.072
1889 0 68.0475 9.30233 633 80.4708 1241.44 486.534
1890 0 70.0335 10.0809 706 79.6544 1240.77 486.943
1891 0 73.0871 10.8911 796 79.7927 1241.03 483.824
1892 0 74.1227 10.9143 809 82.7367 1240.96 482.776
1893 0 74.0904 10.4332 773 85.2574 1241.35 485.135
1894 0 78.109 11.7272 916 84.2893 1241.78 482.133
1895 0 81.1119 11.5519 937 83.7609 1241.46 478.872
1896 0 81.2063 11.3907 925 85.173 1241.19 480.24
1897 0 84.1272 11.3756 957 83.5967 1241.73 479.754
1898 0 86.164 11.0023 948 84.0886 1241.46 478.595
1899 0 89.1564 11.5415 1029 84.3712 1240.63 475.35
1900 0 90.1243 11.4398 1031 86.1397 1240.27 473.428
1901 0 100.191 14.1529 1418 76.6114 1240.47 467.227
1902 0 98.1297 13.6044 1335 79.9625 1240.32 468.64
1903 0 98.1758 12.9258 1269 82.8952 1240.3 467.837
1904 0 99.264 11.0614 1098 87.2878 1240.3 470.419
1905 0 103.256 11.5732 1195 86.5782 1240.25 469.359
1906 0 103.154 10.5376 1087 88.3551 1240.26 469.558
1907 0 105.169 10.6401 1119 87.9071 1240.06 468.031
1908 0 107.123 10.5299 1128 89.3989 1239.77 464.555
1909 0 114.159 12.903 1473 83.3537 1239.64 466.887
1910 0 119.202 13.7245 1636 82.838 1239.89 463.744
1911 0 118.106 12.7936 1511 85.9424 1239.64 463.778
1912 0 122.112 12.8243 1566 86.5658 1239.45 459.762
1913 0 124.168 13.3287 1655 86.3716 1239.33 458.799
1914 0 128.214 13.3683 1714 85.6284 1238.78 457.627
1915 0 132.208 14.1822 1875 84.5051 1238.64 457.95
1916 0 132.186 13.776 1821 87.4783 1238.6 456.171
1917 0 138.126 14.1465 1954 88.52 1238.19 450.709
1918 0 141.165 13.7711 1944 91.4784 1238.57 448.552
1919 0 146.185 14.297 2090 90.4144 1238.49 449.009
1920 0 150.211 14.0668 2113 94.6687 1238.11 446.089
1921 0 154.197 14.1183 2177 96.6771 1238.69 440.771
1922 0 158.236 14.668 2321 96.4084 1238.44 438.364
1923 0 163.278 14.2824 2332 98.4773 1239.44 436.834
1924 0 167.543 14.1158 2365 98.2355 1239 431.488
1925 0 171.505 14.2794 2449 98.0719 1239.08 428.456
1926 0 176.491 13.9497 2462 99.2315 1238.71 427.249
1927 0 181.481 13.9518 2532 99.8543 1238.44 424.288
1928 0 187.442 14.2338 2668 98.4618 1238.15 423.688
1929 1 113.344 11.2401 1274 89.3359 1238.54 461.744
1930 0 117.397 11.8913 1396 87.7865 1238.22 460.045
1931 0 121.186 11.8165 1432 89.1013 1237.4 460.563
1932 0 124.188 12.1348 1507 87.8016 1237.86 460.637
1933 0 125.188 11.9261 1493 89.5358 1237.67 456.732
1934 0 130.272 12.9421 1686 88.1679 1237.77 454.725
1935 0 134.188 12.8402 1723 88.3784 1237.48 452.653
1936 0 136.338 12.7404 1737 88.4254 1237.88 451.269
1937 0 141.208 12.5701 1775 90.2693 1237.86 448.107
1938 0 146.357 13.6652 2000 86.889 1238.53 445.644
1939 0 148.326 12.1893 1808 89.2384 1237.76 442.637
1940 0 155.235 13.0126 2020 87.5099 1237.61 441.126
1941 0 158.331 12.8402 2033 87.6099 1237.58 440.83
1942 0 164.249 12.4628 2047 89.7084 1237.42 436.482
1943 0 168.216 12.8109 2155 88.4316 1237.51 433.832
1944 0 173.304 12.5848 2181 90.2031 1237.08 431.61
1945 0 178.346 12.8682 2295 90.4427 1237.04 426.049
1946 0 183.314 12.765 2340 93.5714 1236.21 421.474
1947 0 190.238 12.8786 2450 93.5637 1236.78 419.829
1948 0 190.272 8.00435 1523 100.589 1237.41 414.748
1949 0 189.258 9.27307 1755 100.214 1237.42 406.504
1950 0 186.165 11.8067 2198 98.2557 1237.58 396.759
1951 1 200.426 11.6951 2344 98.0887 1237.24 396.113
1952 1 130.206 11.9503 1556 86.126 1238.61 453.856
1953 0 134.165 11.4486 1536 87.1803 1238.46 450.717
1954 0 138.162 11.653 1610 86.2677 1238.18 447.795
1955 0 142.282 11.7724 1675 86.7761 1238.54 442.533
1956 0 149.165 12.6571 1888 83.5715 1238.81 440.882
1957 0 150.155 11.4348 1717 86.9977 1238.78 432.013
1958 1 14.0072 4.06934 57 55.6316 1238.93 499.263
1959 0 12 0.666667 8 59.5 1239.75 497.125
1960 0 10 0.8 8 58.75 1239.12 495.375
1961 0 16.0017 1.24986 20 56.35 1237.45 500.15
1962 0 12.0058 2.49879 30 54.7 1236.93 491.767
1963 0 14.0116 5.28134 74 54.3378 1238.5 494.095
1964 0 12.0184 4.07707 49 56.5306 1238.55 493.959
1965 0 16.0058 4.24845 68 56.6912 1237.5 496.191
1966 0 18.0051 3.33238 60 58.4667 1236.87 498.267
1967 0 20.0222 4.19534 84 56.4881 1237.33 501.262
1968 0 21.0516 4.13271 87 58.5632 1236.16 500.287
1969 0 25.0034 3.75949 94 59.5213 1235.95 497.309
1970 0 25.0056 2.47944 62 58.7581 1236.16 502.484
1971 0 23.0106 4.4762 103 58.1845 1238.18 500.398
1972 0 28.0082 6.21246 174 58.6207 1238.79 504.891
1973 1 231.296 13.6881 3166 90.6639 1237.18 387.791
1974 0 241.287 13.0219 3142 93.3205 1237.95 391.429
1975 0 248.218 13.6453 3387 93.6528 1237.72 385.718
1976 0 254.319 12.0125 3055 95.8733 1237.12 384.994
1977 1 277.495 18.7463 5202 76.6682 1237.1 358.159
1978 1 194.254 11.5673 2247 87.3253 1236.76 416.298
1979 0 200.385 11.5677 2318 88.3632 1237.99 417.229
1980 0 205.293 11.4714 2355 94.0837 1237.28 410.693
1981 0 212.35 11.4151 2424 93.356 1237.41 407.385
1982 0 218.384 11.5897 2531 93.5156 1238.03 402.723
1983 0 225.415 12.0799 2723 92.8751 1237.9 398.194
1984 0 232.509 12.4942 2905 91.1972 1237.81 395.989
1985 0 240.348 12.7607 3067 91.9752 1238.22 392.238
1986 0 244.355 11.4015 2786 96.6357 1237.39 384.31
1987 0 250.417 12.4832 3126 94.207 1236.88 383.391
1988 0 256.427 12.019 3082 96.5152 1237.54 380.068
1989 0 265.348 13.3899 3553 93.5297 1236.58 376.371
1990 0 271.335 12.9877 3524 94.8113 1236.52 371.694
1991 0 269.392 7.65057 2061 103.441 1236.23 381.667
1992 0 270.321 7.4504 2014 103.657 1236.43 387.859
1993 0 272.135 8.48845 2310 101.648 1236.2 394.813
1994 0 297.272 14.8854 4425 93.988 1235.94 348.398
1995 0 305.311 14.7555 4505 95.4053 1236.66 343.725
1996 0 318.41 14.8236 4720 96.6189 1236.31 342.182
1997 0 328.47 15.5296 5101 94.9147 1235.75 341.537
1998 0 336.441 14.802 4980 97.3805 1235.79 335.254
1999 0 344.747 14.573 5024 97.2114 1236.65 330.613
2000 0 353.606 15.0535 5323 97.198 1236.22 327.49
2001 0 364.713 14.7733 5388 98.6444 1236.29 319.711
2002 0 374.54 14.7968 5542 100.269 1236.53 310.053
2003 0 386.513 14.2996 5527 101.487 1235.88 308.003
2004 0 396.566 14.2574 5654 100.577 1236.27 296.531
2005 0 397.514 9.45628 3759 110.731 1235.78 311.326
2006 1 113.293 12.6486 1433 60.217 1237.7 458.203
2007 0 109.307 11.6827 1277 64.4393 1237.55 460.353
2008 1 34.0095 6.85104 233 67.6395 1241.15 503.893
2009 0 37.0698 7.44542 276 67.5072 1241.53 501.533
2010 0 36.0469 7.90638 285 68.7649 1240.32 504.161
2011 0 39.0546 8.24486 322 68.1801 1239.08 504.714
2012 0 37.0926 7.62955 283 70.0459 1240.58 503.724
2013 0 38.07 7.4074 282 69.1525 1236.43 505.089
2014 0 38.0567 7.93553 302 69.3775 1235.86 502.894
2015 0 40.092 8.90453 357 67.1008 1236.26 502.16
2016 0 39.1487 7.94408 311 68.1994 1235.51 498.071
2017 0 40.1258 9.3456 375 65.464 1235.43 501.893
2018 0 41.1058 10.6554 438 64.4977 1235.5 498.945
2019 0 40.1733 8.71225 350 66.2343 1235.93 500.643
2020 0 40.1367 9.69188 389 66.0154 1235.65 499.9
2021 0 40.0477 10.1129 405 64.6173 1235.79 500.148
2022 0 40.1241 9.81953 394 66.8477 1235.54 499.439
2023 0 40.1528 9.28952 373 66.6515 1235.23 500.367
2024 0 39.1166 9.25439 362 66.8812 1235.38 500.898
2025 0 39.1166 9.20326 360 125.806 1235.35 500.969
2026 0 36.1382 9.21464 333 68.3093 1235.97 500.742
2027 0 37.0745 9.03587 335 68.1343 1235.67 501.251
2028 0 36.1938 9.44913 342 68.1608 1235.71 500.754
2029 0 38.0598 9.64273 367 67.4687 1235.89 499.114
2030 0 41.2116 10.07 415 65.7494 1236.58 497.973
2031 0 183.539 14.4438 2651 80.1411 1236.58 421.54
2032 1 116.31 10.9019 1268 75.836 1237.41 457.057
2033 0 119.398 11.2398 1342 74.8145 1237.25 459.289
2034 0 122.5 11.1021 1360 76.3993 1237.71 458.726
2035 0 125.49 13.2202 1659 81.5353 1237.92 456.081
2036 0 125.482 12.7428 1599 85.3602 1238.72 455.301
2037 0 129.513 12.7786 1655 88.7402 1238.11 453.399
2038 0 129.418 12.3553 1599 88.4428 1238.69 451.975
2039 0 130.092 11.8608 1543 90.9183 1238.66 445.411
2040 0 132.338 11.5538 1529 89.9143 1239.33 443.54
2041 0 133.348 11.3463 1513 91.6841 1239.06 439.729
2042 0 133.348 11.3088 1508 159.626 1239.06 439.723
2043 0 145.4 12.1871 1772 90.412 1238.55 437.309
2044 0 146.419 12.5325 1835 91.618 1238.35 430.138
2045 0 150.33 12.406 1865 93.0236 1238.12 428.271
2046 0 153.262 12.1556 1863 94.649 1237.81 424.246
2047 0 157.348 12.8378 2020 93.8832 1237.27 425.329
2048 0 161.365 12.0534 1945 97.1152 1237.97 421.806
2049 0 167.326 12.5563 2101 96.5045 1237.5 421.223
2050 0 172.418 12.9627 2235 96.3056 1238.04 421.382
2051 0 175.254 12.4391 2180 99.1138 1237.41 417.358
2052 0 180.189 12.72 2292 99.7408 1237.84 415.536
2053 0 184.158 12.3481 2274 101.605 1237.56 411.81
2054 0 187.255 12.5123 2343 102.352 1237.64 407.471
2055 0 193.213 12.4629 2408 102.851 1237.64 402.9
2056 0 200.225 13.2551 2654 100.907 1237.33 404.144
2057 1 180.188 14.1464 2549 103.411 1235.82 399.232
2058 1 203.216 11.1851 2273 108.86 1236.71 398.45
2059 1 176.175 11.9199 2100 108.932 1235.95 399.969
