time division length width area intensity CMx CMy
0 0 41.0537 10.8638 446 63.9417 1021.91 490.904
1 0 41.0546 10.7174 440 65.7182 1021.97 491.07
2 0 44.0596 11.893 524 65.7004 1022.9 489.267
3 0 43.0669 10.6811 460 67.3457 1021.88 490.507
4 0 45.0904 12.0425 543 65.3886 1022.5 486.54
5 0 43.0395 11.6172 500 69.752 1022.27 486.55
6 0 46.0208 12.4074 571 68.387 1022.31 489.972
7 0 48.0419 12.156 584 69.5497 1021.85 489.216
8 0 47.0429 11.9465 562 68.4751 1021.13 490.619
9 0 51.053 11.6937 597 69.1307 1021.45 490.095
10 0 52.0557 11.5837 603 69.4312 1021.14 488.952
11 0 51.0464 11.7932 602 69.1794 1020.45 489.287
12 0 55.0896 12.3254 679 68.0766 1021.55 487.888
13 0 56.0674 12.0926 678 67.6681 1020.66 486.686
14 0 59.0682 12.5279 740 66.2027 1020.32 485.869
15 0 61.0739 12.7059 776 65.5503 1020.2 486.688
16 0 63.0783 12.6351 797 64.8356 1020.96 486.054
17 0 65.0476 12.7753 831 65.1396 1020.07 483.951
18 0 67.0766 12.8659 863 64.9015 1020.26 482.897
19 0 70.089 12.7124 891 64.7419 1020.04 482.262
20 0 71.0554 13.5528 963 63.8795 1018.87 479.91
21 0 72.0666 12.5995 908 67.0441 1018.84 479.708
22 0 76.0504 13.1229 998 65.3447 1018.46 477.938
23 0 78.0895 12.9723 1013 65.2221 1019.11 477.57
24 0 80.2176 11.5436 926 66.9762 1018.98 476.215
25 0 84.1383 12.3725 1041 66.5168 1019.26 473.597
26 0 87.0759 11.645 1014 67.3905 1019.5 470.64
27 0 89.1709 12.605 1124 67.508 1019.34 467.465
28 0 93.0941 12.0308 1120 68.2777 1019.65 468.067
29 0 97.0838 12.4017 1204 68.0523 1018.8 466.179
30 0 99.1712 11.6465 1155 69.7524 1018.44 466.592
31 1 51.046 11.1272 568 70.743 1019.64 490.641
32 0 51.1178 11.9919 613 71.8222 1019.67 490.272
33 0 49.0346 11.7672 577 70.331 1018.42 491.783
34 0 52.0317 11.2239 584 70.6301 1018.12 491.281
35 0 56.079 12.0009 673 68.7117 1018.59 491.048
36 0 58.0748 12.7594 741 67.3536 1018.99 490.476
37 0 58.0876 12.2229 710 68.9 1018.34 489.308
38 0 61.077 12.0176 734 69.9755 1018.37 487.83
39 0 62.0844 12.3219 765 69.5477 1017.92 487.303
40 0 65.0657 12.0032 781 70.6261 1017.93 484.955
41 0 67.0527 12.1994 818 71.6247 1017.77 484.687
42 0 70.1836 12.567 882 71.9218 1017.97 483.218
43 0 71.1386 12.4686 887 73.1499 1018.03 482.917
44 0 75.1142 12.8072 962 72.5852 1017.85 482.606
45 0 77.1011 13.3202 1027 72.7215 1017.28 478.883
46 0 79.0549 12.7886 1011 74.2354 1017.64 479.516
47 0 84.1147 13.8977 1169 72.1711 1017.44 475.683
48 0 85.0865 13.1161 1116 74.3754 1017.93 473.991
49 0 89.0957 14.1309 1259 72.1612 1018.06 473.496
50 0 92.1052 13.8972 1280 72.1 1017.36 471.055
51 0 94.1672 13.9645 1315 72.7125 1017.72 469.852
52 0 98.1192 14.0441 1378 71.9245 1018.49 465.98
53 0 99.2885 13.3852 1329 75.3484 1017.66 468.612
54 0 102.29 13.4714 1378 75.3338 1018.36 466.399
55 0 106.344 12.657 1346 75.8945 1017.93 463.821
56 0 110.349 13.0586 1441 76.372 1018.78 462.447
57 0 113.254 12.8296 1453 76.2836 1018.58 459.712
58 0 119.172 13.6358 1625 74.8074 1018.89 457.428
59 0 121.201 12.5659 1523 76.9586 1020.11 457.58
60 0 126.251 13.1326 1658 76.3088 1019.28 453.327
61 1 65.0862 13.6127 886 76.9424 1020.13 485.431
62 0 66.2035 12.6277 836 75.2368 1020.42 484.75
63 0 66.0674 12.2299 808 80.7847 1017.91 484.722
64 0 66.1497 12.2147 808 82.0854 1017.95 485.068
65 0 69.1456 12.4375 860 82.4291 1018.36 484.781
66 0 72.0866 12.8318 925 82.3557 1018.34 481.339
67 0 74.133 12.8418 952 82.9664 1018.7 480.62
68 0 76.162 12.8017 975 83.239 1018.82 480.464
69 0 77.2584 12.84 992 85.37 1018.97 477.476
70 0 79.1673 12.9978 1029 85.6579 1019.14 478.074
71 0 83.342 13.0666 1089 86.1515 1019.14 475.916
72 0 84.3112 12.9164 1089 87.641 1019.33 474.219
73 0 88.4264 13.2426 1171 86.6567 1019.77 473.863
74 0 92.2916 13.7066 1265 85.9684 1019.11 471.549
75 0 93.4742 12.9875 1214 89.3534 1019.16 469.848
76 0 95.2538 12.8919 1228 85.9805 1018.37 466.519
77 0 93.1505 11.7552 1095 83.2329 1018.06 460.84
78 0 92.1039 11.4979 1059 84.695 1018.02 457.751
79 0 98.2203 11.7084 1150 84.0191 1018.32 457.108
80 0 105.193 13.4134 1411 80.7087 1019.19 457.442
81 0 109.254 12.6494 1382 82.8973 1019.27 454.195
82 0 107.249 12.5969 1351 84.3131 1019.11 449.169
83 0 111.313 12.4783 1389 83.1663 1018.84 448.681
84 0 117.269 12.7484 1495 82.1913 1018.98 444.907
85 0 121.267 13.2764 1610 81.4671 1018.73 443.436
86 0 125.308 12.4413 1559 83.2078 1019.26 440.287
87 0 135.242 12.9694 1754 79.87 1019.31 439.775
88 1 71.1683 9.55482 680 71.1897 1020.56 474.363
89 0 73.2602 10.7971 791 69.6839 1019.65 473.216
90 0 78.1068 11.9196 931 75.7916 1020.5 480.461
91 0 80.1505 12.6262 1012 73.9634 1021.11 477.612
92 0 81.1022 12.1328 984 76.4451 1021.2 477.675
93 0 83.0704 12.6158 1048 76.9532 1020.3 476.134
94 0 86.06 12.4099 1068 77.5403 1020.05 476.321
95 0 90.0684 13.1012 1180 77.1703 1020.45 473.232
96 0 92.1012 12.8663 1185 77.7848 1020.45 470.581
97 0 95.1445 13.5373 1288 75.3688 1020.33 468.721
98 0 98.0633 14.2357 1396 77.8016 1017.62 468.156
99 0 101.163 13.8787 1404 79.4786 1018.48 466.729
100 0 103.091 13.3862 1380 81.7159 1018.37 464.63
101 0 106.095 14.0817 1494 80.5187 1018.85 461.653
102 0 111.191 14.0479 1562 79.3521 1018.3 461.517
103 0 114.195 13.9586 1594 76.1255 1018.61 460.389
104 0 116.158 13.938 1619 76.5133 1019.9 458.382
105 0 122.22 13.263 1621 81.5817 1019.09 454.01
106 0 126.218 12.4071 1566 82.8991 1019.22 451.807
107 0 132.121 12.5643 1660 82.1048 1019.24 450.552
108 0 135.231 12.5932 1703 81.0317 1019.6 448.47
109 1 75.1045 10.3589 778 76.5386 1021.23 478.648
110 0 78.0771 11.5527 902 76.9002 1017.99 476.851
111 0 80.0808 12.1253 971 77.2286 1018.13 475.711
112 0 83.048 12.4747 1036 77.5618 1020.99 476.153
113 0 86.1031 12.9148 1112 77.6376 1020.97 473.81
114 0 88.0668 12.8085 1128 77.0514 1020.39 472.417
115 0 91.0826 13.1968 1202 77.7754 1020.29 472.753
116 0 94.0654 12.9165 1215 79.0807 1020.22 468.656
117 0 95.1004 12.8811 1225 79.4269 1020.6 468.456
118 0 96.1033 12.882 1238 80.0267 1019.81 467.73
119 0 96.1033 12.8091 1231 152.458 1019.8 467.708
120 0 102.063 13.0801 1335 80.1536 1019.46 465.712
121 0 107.208 13.6277 1461 80.2943 1018.03 462.224
122 0 110.098 13.5152 1488 81.0544 1019.39 461.101
123 0 114.178 13.9957 1598 79.2522 1018.99 459.335
124 0 116.28 13.2095 1536 81.3796 1019.8 457.101
125 0 121.327 13.41 1627 80.0676 1020.03 455.577
126 1 49.1401 10.4599 514 75.5117 1018.96 491.533
127 0 51.0633 10.7905 551 74.0327 1019 490.991
128 0 54.0635 12.4298 672 61.6771 1018.26 492.479
129 0 53.0334 11.0685 587 65.3373 1018.24 491.608
130 0 53.0557 11.1392 591 65.2521 1017.79 489.995
131 0 58.0481 11.4905 667 63.7016 1017.62 490.634
132 0 57.0433 10.5709 603 65.8425 1016.8 489.461
133 0 56.0609 10.5064 589 67.5976 1017.57 490.781
134 0 59.1208 11.1974 662 66.2221 1017.99 490.84
135 0 59.0366 9.9938 590 68.6763 1017.43 488.414
136 0 61.0814 10.4614 639 67.9922 1017.89 487.333
137 0 64.0819 10.9703 703 67.9886 1017.48 487.482
138 0 65.0811 10.679 695 68.695 1016.87 485.196
139 0 68.0417 10.7287 730 68.4384 1016.63 484.196
140 0 69.0414 10.863 750 67.1733 1017.19 484.188
141 0 73.0631 11.2369 821 66.1827 1016.4 483.305
142 0 75.0743 10.9358 821 67.6431 1016.58 483.747
143 0 76.037 9.85046 749 70.534 1017.21 481.706
144 0 78.0679 10.7214 837 69.0215 1016.95 479.703
145 0 80.2401 10.9297 877 68.4139 1019.62 479.42
146 0 81.2049 9.75311 792 69.8598 1018.79 480.019
147 1 43.0994 10.7426 463 70.743 1020.25 497.834
148 0 45.0355 9.94771 448 62.0491 1018.23 498.092
149 0 45.0566 8.89991 401 58.3142 1017.25 494.269
150 0 46.0296 10.6888 492 61.3516 1017.26 494.236
151 0 49.154 10.9655 539 60.7699 1019.88 494.759
152 0 49.2818 10.2675 506 62.6206 1019.3 492.98
153 0 46.101 9.39242 433 62.0185 1018.42 495.958
154 0 46.1589 8.60073 397 67.1436 1017.9 494
155 0 51.2174 10.3676 531 65.1582 1019.02 493.928
156 0 51.1496 10.9287 559 64.9338 1019.11 493.063
157 0 55.2077 10.7413 593 64.3659 1019.01 492.153
158 0 57.1593 11.7916 674 62.4496 1019.07 492.608
159 0 59.2054 11.9584 708 63.1511 1018.82 490.46
160 0 60.1983 11.4123 687 65.3857 1018.87 489.41
161 0 61.2257 10.1755 623 67.9486 1019.41 488.339
162 0 63.1515 10.9103 689 66.7097 1018.93 487.186
163 0 65.17 10.7872 703 67.4936 1018.92 488.084
164 0 66.1568 11.11 735 68.1918 1018.09 483.789
165 0 69.2605 11.464 794 66.8035 1018.63 483.338
166 0 67.1632 9.21635 619 70.5864 1018.85 482.208
167 0 74.195 10.7015 794 68.9307 1019.44 480.875
168 0 74.1558 10.2352 759 70.4216 1019.7 479.946
169 0 79.207 12.3221 976 67.0984 1019.54 480.07
170 0 82.2065 12.128 997 68.0341 1018.85 477.417
171 0 84.1352 11.8381 996 68.3343 1019.19 476.4
172 0 86.1805 12.2069 1052 68.1179 1019.27 473.626
173 0 91.1832 12.59 1148 67.3188 1018.83 471.721
174 0 93.2151 11.6397 1085 68.1806 1019.04 470.622
175 0 98.1639 12.4486 1222 67.216 1018.46 469.728
176 0 100.17 12.2392 1226 68.425 1017.98 468.526
177 1 51.1099 11.7198 599 66.6093 1017.56 493.187
178 0 52.1346 11.8347 617 70.7893 1017.04 492.969
179 0 53.0952 11.357 603 68.1592 1017.54 490.446
180 0 54.1402 11.3594 615 69.6358 1017.38 490.543
181 0 58.2268 11.9017 693 80.0418 1017.74 488.338
182 0 61.2017 12.3853 758 79.8047 1017.67 488.259
183 0 60.1738 12.2977 740 81.4689 1017.2 487.477
184 0 65.2167 12.6501 825 79.5164 1017.44 486.074
185 0 65.1409 12.5267 816 80.402 1017.89 485.982
186 0 68.1368 12.563 856 80.3762 1017.72 484.557
187 0 69.2749 12.27 850 80.9565 1018.06 484.611
188 0 72.2257 12.2117 882 81.0238 1018.04 483.495
189 0 74.2262 13.5666 1007 79.004 1018.35 482.799
190 0 77.2314 12.4043 958 81.5553 1017.86 478.924
191 0 79.2169 12.4973 990 80.3263 1017.31 478.028
192 0 82.436 12.9191 1065 82.1343 1017.09 478.087
193 0 83.1895 12.5497 1044 78.3094 1016.98 476.598
194 0 88.0845 12.261 1080 77.7741 1018.51 474.488
195 0 89.1153 11.5581 1030 78.0981 1018.64 473.676
196 1 47.1247 9.42181 444 74.8694 1019.14 496.234
197 0 47.0905 10.7665 507 75.6252 1017.64 493.771
198 0 49.2248 10.8076 532 72.4417 1018.07 494.62
199 0 48.279 10.6672 515 72.3786 1018.97 493.27
200 0 50.2501 10.587 532 71.9624 1018.99 491.575
201 0 55.1032 12.4494 686 65.7507 1018.52 491.057
202 0 56.0736 11.1996 628 85.9076 1018.91 489.882
203 0 59.0565 12.5304 740 81.1689 1018.86 489.358
204 0 61.0985 12.1116 740 82.0757 1018.72 488.681
205 0 62.0873 12.4985 776 78.875 1018.93 487.713
206 0 62.0608 11.3598 705 82.4752 1019.03 485.6
207 0 61.1363 11.3026 691 81.8755 1018.84 483.968
208 0 65.0878 11.9531 778 78.3638 1018.35 484.979
209 0 68.0973 12.2766 836 76.6495 1018.45 483.652
210 0 70.0792 12.7713 895 76.238 1017.74 482.347
211 0 71.1267 11.6412 828 76.6691 1018.04 481.825
212 0 75.0804 12.2269 918 76.4368 1018.59 479.809
213 0 76.1523 12.2518 933 76.12 1017.59 479.744
214 0 78.1457 12.0672 943 75.7423 1017.54 477.999
215 0 81.1782 11.3824 924 76.369 1017.43 476.347
216 0 83.2048 11.8262 984 76.8211 1017.47 474.856
217 0 86.1091 11.7758 1014 77.1391 1017.26 473.785
218 0 89.0856 11.618 1035 75.572 1016.85 470.657
219 1 45.0348 9.05965 408 71.1103 1015.98 490.551
220 0 46.0249 9.71214 447 70.4474 1015.47 489.828
221 0 49.0347 10.3192 506 72.8182 1015.49 491.854
222 0 49.1518 10.315 507 72.14 1016.18 489.994
223 0 54.1313 10.6593 577 71.6464 1017.5 490.504
224 0 56.1555 12.2339 687 70.0611 1017.98 489.052
225 0 57.0452 12.3937 707 68.413 1017.91 488.281
226 0 59.0354 11.7048 691 69.5137 1016.72 488.493
227 0 59.0977 11.6587 689 71.3324 1016.3 486.948
228 0 63.0408 12.8171 808 69.271 1016.32 487.579
229 0 64.0651 12.6278 809 69.6564 1016.51 489.066
230 0 65.0589 12.4503 810 71.6074 1016.61 486.689
231 0 68.0707 12.2373 833 70.8848 1016.75 483.934
232 0 70.0493 12.8195 898 70.7127 1016.21 483.062
233 0 71.2285 11.765 838 73.3043 1016.92 480.977
234 0 73.0738 12.4668 911 74.5192 1016.75 479.679
235 0 76.1571 12.6712 965 74.8311 1016.69 479.568
236 0 80.0354 12.5694 1006 74.9423 1016.3 477.66
237 0 81.1405 13.3595 1084 75.0424 1016.05 477.627
238 0 84.1382 11.909 1002 77.8433 1016.91 477.619
239 0 84.1373 12.4915 1051 78.5442 1016.32 473.722
240 0 87.13 12.7051 1107 79.1292 1016.72 472.99
241 0 89.1245 12.7125 1133 80.5393 1016.49 473.688
242 0 94.1497 13.0537 1229 87.3881 1017 472.413
243 0 97.1558 12.5571 1220 83.5328 1017.28 470.975
244 1 50.0703 11.1643 559 78.9213 1018.22 495.551
245 0 52.1105 10.7656 561 78.7469 1016.16 494.257
246 0 54.1341 12.2474 663 76.8386 1016.83 493.247
247 0 54.1648 11.945 647 76.6971 1016.42 490.505
248 0 56.2549 12.4967 703 75.7312 1016.76 489.081
249 0 57.2099 11.8686 679 77.2047 1016.73 487.872
250 0 60.2866 12.2415 738 76.6477 1016.46 487.955
251 0 63.2173 12.196 771 76.5642 1016.72 486.888
252 0 63.1749 12.4417 786 75.8104 1016.86 485.718
253 0 66.1348 12.5652 831 77.1348 1016.55 484.158
254 0 69.2221 12.7416 882 75.5805 1016.25 481.622
255 0 73.1861 13.0763 957 75.3396 1016.36 481.745
256 0 75.1369 12.9364 972 77.0679 1016.54 481.628
257 0 78.2125 13.8213 1081 75.7604 1017.08 480.629
258 0 79.191 13.4738 1067 78.4077 1016.94 478.634
259 0 80.2083 12.8665 1032 81.9496 1017 475.828
260 0 83.2017 13.5454 1127 81.5679 1016.5 474.66
261 0 87.2388 13.0447 1138 82.9789 1016.25 473.67
262 0 90.2769 13.4586 1215 84.6321 1016.5 471.281
263 0 92.2353 13.1945 1217 87.2876 1015.39 470.013
264 0 96.2291 13.1769 1268 88.3675 1015.05 466.767
265 0 97.2559 13.5107 1314 89.1065 1015.88 464.988
266 0 100.251 13.8253 1386 89.1082 1015.6 462.824
267 0 105.345 14.0111 1476 88.628 1015.89 460.352
268 1 54.2527 12.8104 695 84.7655 1015.52 483.022
269 0 56.2574 12.4784 702 85.6866 1016.27 486.811
270 0 57.4276 12.5027 718 83.1003 1017.35 487.414
271 0 59.087 12.287 726 85.0482 1017.37 487.792
272 0 61.189 13.2213 809 82.5748 1015.5 487.204
273 0 62.3138 12.2926 766 85.1123 1014.95 485.275
274 0 64.1 12.3713 793 85.7554 1015.79 485.172
275 0 67.1717 12.9072 867 85.1396 1016.38 484.24
276 0 70.1366 13.2171 927 83.4067 1016.1 483.085
277 0 71.0497 13.2583 942 84.7611 1016.19 482.069
278 0 75.1259 12.5523 943 93.6808 1017.79 479.787
279 0 75.1225 12.2467 920 97.2272 1017.5 479.267
280 0 79.1143 13.3225 1054 94.0569 1017.64 478.398
281 0 80.0897 12.5984 1009 97.2884 1017.63 476.084
282 0 84.1697 12.7956 1077 95.7131 1017.36 476.292
283 0 84.0556 12.0634 1014 100.596 1017.15 474.511
284 0 88.1573 12.7613 1125 98.2818 1016.94 473.455
285 0 88.122 12.6983 1119 99.5889 1016.97 471.89
286 0 91.2194 12.5631 1146 99.9721 1016.84 471.264
287 0 95.2133 12.6138 1201 98.2998 1016.96 470.376
288 0 98.2807 12.7085 1249 101.529 1016.82 467.863
289 0 101.247 12.5732 1273 99.0825 1016.59 467.01
290 0 104.453 12.9915 1357 98.8563 1015.85 460.762
291 1 55.1367 10.8095 596 92.4765 1016.77 489.273
292 0 57.3395 12.2429 702 90.198 1016 485.362
293 0 57.3176 11.9335 684 97.0336 1016.78 482.87
294 0 57.1085 12.0122 686 93.7041 1016.93 480.936
295 0 63.0841 11.8889 750 95.996 1017.61 485.259
296 0 64.044 11.6014 743 96.7106 1017.09 484.416
297 0 65.0457 11.9147 775 132.635 1017.04 483.768
298 0 68.1521 11.8852 810 93.6111 1017.38 482.947
299 0 70.0736 12.2157 856 95.4463 1017.98 481.923
300 0 73.0604 12.168 889 94.6243 1017.42 480.467
301 0 73.0585 12.0041 877 95.9464 1017.4 479.481
302 0 75.056 12.1243 910 94.978 1016.81 479.711
303 0 78.0877 11.9737 935 94.6214 1017.03 478.945
304 0 81.0981 11.9731 971 93.2327 1017.07 477.113
305 0 82.0488 11.6638 957 95.3072 1016.32 474.771
306 0 85.1437 12.0267 1024 95.7422 1015.65 474.363
307 0 89.1245 12.2637 1093 94.1345 1016.33 472.319
308 0 91.0987 11.3942 1038 95.4056 1015.32 472.651
309 0 93.1513 12.2167 1138 92.6819 1015.53 470.814
310 0 97.2266 12.0337 1170 93.0017 1015.7 469.345
311 0 99.4479 11.0912 1103 95.0118 1016.47 467.442
312 0 102.379 11.2718 1154 96.4835 1016.12 466.471
313 1 49.2658 10.4941 517 87.9652 1016.89 493.188
314 0 51.3669 10.1817 523 87.0134 1016.65 493.302
315 0 53.2842 11.0352 588 85.8571 1016.27 492.063
316 0 54.2432 11.6881 634 85.8076 1015.98 492.7
317 0 57.0655 11.1276 635 82.9701 1017.09 490.526
318 0 61.0858 11.5084 703 82.7681 1016.17 490.027
319 0 63.1784 11.1747 706 82.3669 1016.51 489.405
320 0 64.1645 11.8601 761 82.0026 1016.37 489.059
321 0 65.0496 11.3452 738 94.1125 1016.96 485.656
322 0 70.0554 11.9049 834 92.4832 1016.8 485.281
323 0 71.1515 11.4966 818 93.9291 1016.28 483.973
324 0 73.1773 11.602 849 92.6608 1016.33 484.53
325 0 73.1503 11.0047 805 96.1665 1015.73 482.248
326 0 76.1399 11.5445 879 93.8248 1015.78 482.502
327 0 79.1167 11.8433 937 94.1889 1015.8 479.376
328 0 80.0593 11.8287 947 94.7846 1015.64 478.584
329 0 82.1613 11.4044 937 96.2049 1015.93 478.978
330 0 85.178 11.0474 941 96.2317 1014.76 478.661
331 0 85.1797 11.012 938 126.726 1013.78 478.627
332 0 92.1207 11.5501 1064 95.3797 1015.53 472.827
333 1 47.06 9.22227 434 90.3065 1016.38 497.576
334 0 48.0412 9.61675 462 88.9394 1015.85 497.697
335 0 49.0506 11.1925 549 87.98 1015.68 495.097
336 0 52.0533 11.5074 599 89.0735 1015.59 494.506
337 0 53.1195 11.9918 637 82.8195 1014.88 494.096
338 0 53.1412 11.4224 607 83.3904 1014.85 494.371
339 0 54.0729 11.0222 596 86.8792 1014.88 493.54
340 0 57.1387 10.8333 619 86.3861 1014.56 493.803
341 0 57.0742 11.0032 628 88.5064 1013.8 491.242
342 0 59.0703 11.1223 657 88.1674 1014.99 492.801
343 0 61.1255 11.3373 693 89.127 1015.04 490.652
344 0 63.1354 11.8317 747 89.5047 1014.66 490.087
345 0 64.1549 11.971 768 90.2539 1014.34 488.768
346 0 68.1621 12.1035 825 90.4582 1014.31 486.817
347 0 70.1263 12.178 854 90.4028 1014.45 485.539
348 0 71.2158 11.065 788 93.7513 1014.11 485.077
349 0 74.2341 11.1809 830 93.259 1013.56 483.427
350 0 75.1822 11.7182 881 93.1328 1014.25 483.646
351 1 41.0146 10.7279 440 94.6773 1014.84 500.798
352 0 41.0381 11.3553 466 92.3777 1014.79 500.545
353 0 44.0102 11.4746 505 92.9743 1014.83 499.448
354 0 42.0534 10.6531 448 86.7612 1014.97 501.969
355 0 44.0842 11.0924 489 86.2413 1013.23 501.033
356 0 45.0712 11.2489 507 86.0197 1012.94 501.884
357 0 47.1092 11.5052 542 85.572 1013.49 500.784
358 0 47.0863 11.4683 540 86.9907 1012.95 498.957
359 0 48.0733 11.0872 533 89.3715 1013.14 499.263
360 0 50.105 11.436 573 91.0908 1013.05 497.651
361 0 54.1218 11.8252 640 89.9594 1013 495.045
362 0 52.2456 11.3694 594 91.2205 1014.33 493.685
363 0 54.2168 11.4909 623 88.3274 1014.06 494.881
364 0 55.2062 11.5204 636 88.489 1014.46 494.297
365 0 58.2009 11.6321 677 88.8685 1014.75 492.275
366 0 61.2002 11.5686 708 88.2288 1015.3 491.727
367 0 62.1803 11.0324 686 90.0437 1014.67 490.528
368 0 64.1791 11.3277 727 89.8611 1014.46 490.574
369 0 65.1595 10.5741 689 92.2816 1014.59 491.052
370 0 68.1587 11.6933 797 92.074 1014.61 486.911
371 0 71.1748 11.6614 830 91.3892 1014.33 486.367
372 0 74.1505 11.8273 877 90.9875 1014.27 484.632
373 0 76.1405 11.4525 872 90.6273 1015.35 484.828
374 0 79.2426 11.9759 949 91.6238 1014.32 481.329
375 0 81.2204 11.9921 974 92.7413 1015.22 478.707
376 0 85.2639 12.6783 1081 89.0305 1014.55 477.463
377 0 89.2637 12.6815 1132 89.038 1014.8 475.936
378 0 93.1295 12.1444 1131 101.121 1015.86 475.496
379 1 46.0254 10.6246 489 100.182 1015.97 497.791
380 0 49.0383 10.6855 524 101.197 1016.4 496.279
381 0 49.3829 11.7045 578 100.052 1013.82 492.102
382 0 51.2151 12.3206 631 98.9033 1014.1 490.434
383 0 53.231 11.854 631 85.5182 1013.62 489.927
384 0 54.0816 11.6491 630 86.6349 1013.43 493.11
385 0 56.0358 12.6705 710 87.7394 1013.21 491.627
386 0 56.1461 12.2537 688 88.8227 1013.64 491.59
387 0 57.0718 12.2477 699 87.3133 1012.71 490.489
388 0 60.0863 11.8496 712 86.6166 1013.65 488.506
389 0 62.046 11.8622 736 86.5285 1013.2 487.258
390 0 62.0457 12.3457 766 86.0131 1013.07 486.376
391 0 65.129 12.1758 793 87.2346 1012.84 485.156
392 0 66.1523 12.6224 835 86.6132 1013.14 483.91
393 0 68.146 13.295 906 86.3113 1013.28 483.628
394 0 72.108 13.0083 938 85.8838 1013.27 482.706
395 0 75.1026 14.0741 1057 82.4513 1013.9 480.937
396 0 75.1433 13.4277 1009 87.2557 1014.11 479.291
397 0 79.2213 13.3929 1061 87.0594 1013.43 478.7
398 0 81.1319 13.1514 1067 88.5052 1013.7 479.739
399 0 84.2614 13.3276 1123 88.0543 1014.07 477.028
400 0 86.2229 13.7667 1187 87.6681 1014.35 475.374
401 0 89.2162 13.3944 1195 88.8527 1014.1 471.659
402 0 93.1501 13.6769 1274 86.6797 1013.82 469.504
403 0 93.327 12.8044 1195 90.5464 1013.5 470.526
404 1 51.1073 11.5248 589 92.6791 1013.9 493.267
405 0 51.0658 11.8475 605 91.1868 1013.53 493.759
406 0 52.0972 12.1312 632 91.4098 1013.41 492.663
407 0 56.0844 11.5897 650 91.4338 1013.64 491.598
408 0 56.0666 12.4138 696 90.1408 1013.74 492.648
409 0 56.062 11.8619 665 92.7053 1013.73 490.579
410 0 59.0222 12.2666 724 92.1119 1013.78 490.186
411 0 61.0877 12.6048 770 91.4117 1013.72 488.59
412 0 64.1067 12.292 788 91.868 1013.29 488.989
413 0 66.0498 12.2635 810 90.5654 1013.74 487.196
414 0 66.0578 12.262 810 90.7494 1012.88 486.949
415 0 69.0498 12.0782 834 90.7938 1013.25 485.091
416 0 72.0418 12.9786 935 87.6267 1013.57 485.565
417 0 73.0231 12.8042 935 87.3914 1013.34 482.39
418 0 74.0414 12.8577 952 88.2689 1013.1 482.98
419 0 74.0414 12.9117 956 155.044 1012.1 483.026
420 0 82.032 12.7999 1050 85.8562 1012.74 479.783
421 0 84.0625 12.8476 1080 85.9148 1011.91 477.006
422 0 84.084 13.0822 1100 87.2509 1012.47 475.594
423 0 89.0947 13.1321 1170 86.7932 1013.65 474.195
424 0 91.1546 13.5265 1233 87.6318 1013.83 473.507
425 0 93.1702 12.6113 1175 90.3302 1013.03 472.224
426 0 97.1579 12.6495 1229 90.0138 1012.72 471.888
427 1 51.0708 11.2393 574 88.9024 1014.16 491.721
428 0 53.0542 10.5741 561 89.574 1013.57 491.863
429 0 57.095 10.7365 613 88.5824 1014.16 491.721
430 0 56.0283 11.3692 637 88.2967 1011.98 489.824
431 0 59.0403 12.1612 718 87.0613 1012.77 488.329
432 0 63.036 12.7546 804 83.9216 1012.08 488.552
433 0 63.1219 12.5947 795 77.4478 1015.52 487.337
434 0 64.2133 12.1937 783 78.9642 1014.9 486.235
435 0 68.255 12.5412 856 77.8096 1015.79 486.099
436 0 68.2441 12.4992 853 129.487 1016.8 486.149
437 0 71.2335 12.9012 919 77.4897 1015.17 483.791
438 0 74.2026 12.9106 958 77.4854 1014.21 479.465
439 0 77.2763 13.3288 1030 76.9408 1013.77 479.57
440 0 77.2174 12.808 989 78.3569 1014.5 477.975
441 0 79.1678 12.7324 1008 79.8105 1014.56 478.349
442 0 81.2003 13.0541 1060 78.8443 1014.77 476.72
443 0 85.2105 12.252 1044 79.66 1014.61 476.567
444 0 86.1618 12.9059 1112 79.107 1014.56 476.114
445 0 90.207 12.8039 1155 77.5965 1013.87 474.356
446 0 94.1555 13.0104 1225 77.1853 1013.8 473.576
447 0 98.1529 13.1326 1289 77.1676 1013.96 470.337
448 1 50.0395 10.4517 523 82.0344 1015.09 493.973
449 0 53.0407 11.6703 619 80.7948 1014.52 493.326
450 0 55.1446 11.896 656 80.2149 1013.32 491.191
451 0 55.0625 11.9682 659 81.3612 1012.87 490.259
452 0 58.1075 12.0811 702 79.9359 1016.16 491.463
453 0 57.0745 12.4048 708 80.7331 1016.41 490.654
454 0 59.1895 12.0461 713 80.7153 1015.65 489.895
455 0 62.1379 12.1665 756 82.4709 1014.61 487.739
456 0 66.0972 12.3152 814 81.6757 1015.43 489.195
457 0 65.1589 12.0935 788 84.2157 1015.68 485.654
458 0 69.2009 12.6299 874 82.7162 1014.92 484.914
459 0 73.29 13.0031 953 81.7072 1015.03 484.329
460 0 74.1858 12.9809 963 83.5877 1015.06 482.019
461 0 77.1992 13.1867 1018 82.5422 1015.12 480.85
462 0 79.1979 12.7402 1009 84.329 1015.41 478.308
463 0 82.2893 13.4647 1108 83.4765 1015.37 476.673
464 0 84.3437 12.4253 1048 85.8903 1015.45 476.137
465 0 89.3485 13.1284 1173 83.8849 1014.79 475.256
466 0 91.3127 13.2402 1209 84.6749 1015.14 473.247
467 1 49.102 11.3437 557 86.5709 1016.21 494.768
468 0 51.1646 12.1764 623 86.4318 1015.65 492.9
469 0 52.1451 11.679 609 86.4893 1015.31 492.286
470 0 52.0902 11.4225 595 79.7496 1016.2 492.286
471 0 52.1523 11.5815 604 79.1838 1016.16 493.71
472 0 55.0732 11.0762 610 81.2721 1015.81 492.711
473 0 58.2213 11.6109 676 80.0828 1014.93 491.286
474 0 56.1445 10.9717 616 83.4448 1015.04 489.463
475 0 60.1761 11.35 683 81.1435 1014.95 488.025
476 0 59.1979 10.7774 638 82.8103 1014.9 487.873
477 0 63.2418 11.4323 723 80.8589 1014.49 490.174
478 0 65.3017 11.9139 778 80.2519 1014.49 488.166
479 0 68.1869 10.7792 735 81.8857 1014.94 487.264
480 0 71.2898 11.7548 838 79.2566 1013.97 486.841
481 0 72.1593 11.9181 860 77.893 1013.03 484.617
482 0 74.2508 11.5285 856 78.0245 1012.77 481.246
483 1 41.0814 10.1019 415 76.8193 1012.38 497.005
484 0 42.0653 10.3173 434 76.1175 1012.44 499.348
485 0 44.0742 11.2537 496 75.4173 1011.79 498.26
486 0 46.0618 12.2879 566 74.318 1012.11 496.645
487 0 47.1016 11.868 559 86.6011 1012.33 496.445
488 0 48.2131 12.0299 580 85.581 1012.43 495.659
489 0 49.1421 12.067 593 86.2024 1012.64 494.395
490 0 52.1496 12.234 638 84.268 1012.76 493.781
491 0 54.2268 12.0789 655 83.9496 1012.62 492.353
492 0 54.3211 12.242 665 84.5714 1013.3 492.741
493 0 55.1347 12.8231 707 83.2235 1013.27 492.31
494 0 55.1755 12.5781 694 84.0937 1013.36 491.738
495 0 57.2903 12.2883 704 84.7188 1012.53 489.776
496 0 58.2016 12.9378 753 83.4714 1012.2 488.308
497 0 61.2889 12.1556 745 83.7973 1011.86 488.219
498 0 60.1356 12.3222 741 84.5655 1013.04 485.831
499 0 62.2117 12.2003 759 83.0698 1013.67 486.639
500 0 65.278 12.5004 816 81.2304 1013.44 486.015
501 0 65.2476 12.0004 783 81.9553 1012.98 484.052
502 0 68.3137 12.4426 850 81.9529 1013.09 482.858
503 0 70.0849 10.7869 756 78.0106 1012.64 482.845
504 0 72.044 11.493 828 78.1824 1014.47 483.552
505 0 74.2616 11.3652 844 79.141 1013.15 480.87
506 0 77.1994 12.1892 941 78.9511 1013.34 479.738
507 0 79.2262 11.789 934 80.591 1012.14 475.391
508 0 81.32 12.3094 1001 80.1918 1012.45 474.452
509 0 83.3081 11.4755 956 81.5962 1012.44 472.924
510 0 87.3187 12.1394 1060 80.834 1012.63 470.93
511 0 90.3448 11.8657 1072 81.2481 1012.52 469.377
512 0 91.4267 11.4846 1050 84.8095 1012.97 466.156
513 1 48.1753 9.69377 467 82.4497 1012.09 491.37
514 0 49.1412 9.70673 477 82.6562 1011.89 489.805
515 0 51.1657 11.3553 581 80.3683 1013.13 491.726
516 0 53.1595 11.061 588 80.9779 1012.75 490.291
517 0 54.0931 11.6281 629 81.1653 1014.22 492.188
518 0 54.1919 11.6254 630 81.5825 1014.01 492.368
519 0 56.1715 11.9812 673 75.1932 1013.56 493.165
520 0 57.1882 11.6807 668 76.9356 1013.9 491.488
521 0 59.2068 12.0088 711 76.1027 1013.23 491.318
522 0 61.207 11.5019 704 75.4247 1013.72 491.418
523 0 62.2023 11.8324 736 74.8668 1013.02 489.462
524 0 64.1862 12.4326 798 73.6842 1013.14 488.548
525 0 68.2491 12.132 828 73.8961 1013.56 486.091
526 0 70.2724 12.4942 878 82.8918 1013.51 485.805
527 0 73.3953 13.3251 978 81.1503 1013.55 487.057
528 0 79.3294 12.2779 974 82.9713 1013.53 485.742
529 0 79.3244 13.6402 1082 81.6266 1013.85 484.227
530 0 81.3323 13.3035 1082 82.7893 1013.12 482.611
531 0 82.2688 13.0426 1073 84.7558 1013.29 481.793
532 0 85.4236 12.9121 1103 85.2076 1012.56 481.088
533 0 88.4244 13.6048 1203 83.7963 1012.36 479.943
534 0 90.3153 12.9546 1170 89.7735 1012.19 478.179
535 0 93.3289 12.9971 1213 85.7362 1012.18 477.094
536 0 97.3288 13.2643 1291 85.5314 1012.73 476.653
537 1 50.0998 11.517 577 79.7106 1013.69 498.648
538 0 51.1309 11.539 590 80.5966 1013.38 496.415
539 0 52.193 11.9173 622 80.0305 1013.72 497.717
540 0 56.1658 13.0506 733 75.0437 1011.47 497.99
541 0 57.0662 13.0024 742 75.9137 1011.05 496.778
542 0 57.0989 13.1001 748 75.7366 1011.56 495.789
543 0 61.1022 13.6493 834 74.1427 1011.54 494.257
544 0 62.0834 12.7248 790 76.8899 1011.06 494.749
545 0 63.1096 13.1517 830 76.753 1010.64 493.037
546 0 66.102 13.6153 900 74.6133 1011.28 491.67
547 0 67.107 13.5008 906 75.9691 1011.26 490.071
548 0 67.1116 12.9784 871 78.9162 1011.52 489.881
549 0 68.0615 12.5475 854 81.2061 1011.33 488.611
550 0 72.1426 13.2377 955 79.4785 1011.45 485.994
551 0 75.1149 13.1931 991 79.1261 1011.39 487.387
552 0 75.1681 13.4499 1011 80.819 1011.47 486.172
553 0 79.1294 12.6502 1001 82.3427 1010.7 484.894
554 0 81.1005 13.4524 1091 83.0852 1011.09 483.87
555 0 84.106 13.1025 1102 82.225 1010.97 483.065
556 0 83.0632 13.0503 1084 84.6827 1011.82 481.744
557 0 86.1537 12.7214 1096 85.6615 1012.25 481.456
558 0 88.1095 13.2108 1164 83.64 1011.52 480.568
559 0 93.1423 13.5814 1265 80.9415 1011.06 480.33
560 0 96.1418 12.856 1236 83.3155 1011.48 477.731
561 0 99.1377 12.9214 1281 81.2514 1011.26 476.133
562 0 100.173 12.109 1213 81.8912 1011.71 472.836
563 0 103.237 11.8174 1220 77.7475 1011.06 466.604
564 0 105.204 12.7942 1346 76.8314 1010.83 465.971
565 0 106.175 12.47 1324 78.7915 1010.75 461.798
566 0 110.199 12.4049 1367 78.4587 1010.92 459.977
567 0 112.224 12.3592 1387 78.6669 1011.26 456.677
568 1 55.1385 10.2107 563 70.238 1012.31 487.934
569 0 60.1439 10.3751 624 73.3093 1011.62 486.083
570 0 60.0861 10.9343 657 73.6256 1011.72 485.851
571 0 60.0963 10.1171 608 71.5066 1012.17 484.309
572 0 64.0974 11.2641 722 70.162 1011.81 483.446
573 0 66.113 11.2988 747 71.2838 1012.25 484.704
574 0 73.0793 12.3701 904 75.3097 1013.62 489.043
575 0 76.0714 12.1728 926 76.027 1013.54 486.285
576 0 77.2006 12.0206 928 77.0905 1012.57 486.378
577 0 81.1826 12.478 1013 76.1234 1012.86 485.448
578 0 83.1528 12.4109 1032 78.7112 1012.75 483.914
579 0 85.128 12.7573 1086 78.2523 1012.7 482.018
580 0 85.1245 12.6873 1080 128.607 1012.7 481.927
581 0 89.2074 12.3084 1098 81.235 1012.13 480.147
582 0 92.1935 12.8426 1184 79.4611 1012.69 479.636
583 0 95.1233 12.4996 1189 80.1564 1013.03 477.618
584 0 97.2136 11.8811 1155 82.9212 1013.42 475.741
585 0 98.2266 12.1759 1196 83.4992 1013.01 474.238
586 0 103.14 12.6625 1306 81.232 1013.14 475.121
587 0 105.242 12.685 1335 83.4816 1013.17 470.783
588 0 109.257 12.4294 1358 85.4396 1012.05 469.778
589 0 111.26 12.6461 1407 85.6517 1012.42 468.913
590 0 115.233 12.9564 1493 85.2525 1012.49 467.453
591 0 118.196 13.1984 1560 86.8769 1012.23 463.048
592 0 125.305 12.6013 1579 88.518 1012.39 461.055
593 0 129.267 12.509 1617 88.4261 1012.06 461.562
594 0 134.37 12.5847 1691 87.9249 1011.21 458.005
595 0 138.307 12.2481 1694 89.8483 1012.19 455.586
596 0 138.307 12.2698 1697 146.147 1012.19 455.547
597 1 80.1308 12.0303 964 83.2936 1011.45 484.03
598 0 81.0773 12.3586 1002 84.996 1012.42 482.931
599 0 84.0978 11.9623 1006 88.5437 1009.88 481.652
600 0 85.1142 12.5361 1067 89.3093 1010.45 479.742
601 0 88.1585 12.5683 1108 89.9612 1010.68 478.192
602 0 91.143 12.42 1132 92.0009 1011.77 477.363
603 0 91.323 12.6912 1159 93.8965 1011.19 478.966
604 0 96.2907 12.5142 1205 95.2581 1011.27 474.718
605 0 100.217 13.3411 1337 92.288 1010.66 475.336
606 0 103.148 12.7971 1320 92.6121 1010.42 472.662
607 0 107.226 13.4856 1446 88.6957 1010.72 470.32
608 0 108.186 12.8205 1387 90.5429 1010.63 466.916
609 0 111.287 12.5891 1401 90.3883 1010.99 465.597
610 0 115.329 12.6334 1457 89.8133 1010.19 464.679
611 0 117.182 12.9627 1519 88.7538 1010.97 463.957
612 0 120.209 12.7943 1538 90.0306 1010.8 460.283
613 0 123.249 12.9656 1598 84.219 1009.87 460.585
614 0 128.19 13.3864 1716 83.1678 1010.21 458.512
615 0 128.157 12.7188 1630 85.9092 1009.65 455.04
616 0 135.272 13.1069 1773 87.1083 1009.41 452.173
617 0 140.186 13.1611 1845 87.3312 1009.3 447.72
618 0 144.213 13.0917 1888 91.2908 1009.92 445.746
619 0 149.205 12.6135 1882 91.1164 1010.35 443.636
620 0 153.237 12.5753 1927 92.6881 1010.34 440.311
621 0 156.156 13.0191 2033 93.8141 1009.84 436.242
622 0 163.246 12.8089 2091 91.9158 1010.26 437.11
623 0 170.461 12.7771 2178 92.8476 1009.97 434.83
624 0 174.229 12.5984 2195 95.2392 1010.03 429.177
625 0 179.241 12.1011 2169 96.1674 1010.22 425.493
626 1 100.27 11.8779 1191 93.0814 1010.01 464.432
627 0 104.276 12.7738 1332 92.0458 1010.12 462.553
628 0 105.266 12.2547 1290 92.1093 1010.21 461.411
629 0 107.262 13.2572 1422 90.7349 1009.86 460.499
630 0 111.216 12.687 1411 92.6003 1011.03 461.293
631 0 114.322 12.1849 1393 94.8693 1011.4 457.484
632 0 117.208 12.5247 1468 94.2916 1010.96 455.116
633 0 121.261 12.535 1520 93.498 1010.33 453.554
634 0 121.221 12.2091 1480 95.4027 1010.56 450.927
635 0 129.334 12.5025 1617 94.342 1010.31 448.57
636 0 132.268 12.3462 1633 93.602 1010.82 448.636
637 0 138.296 12.278 1698 93.3993 1011.1 443.782
638 0 141.336 12.2403 1730 92.3434 1011.4 442.741
639 0 146.37 12.5504 1837 91.3691 1011.3 439.911
640 0 150.339 12.0794 1816 92.924 1011.07 434.673
641 0 156.269 11.9538 1868 92.6788 1011.39 432.709
642 0 158.346 11.3612 1799 93.7415 1011.24 430.903
643 0 163.285 11.7586 1920 91.6396 1012.05 426.906
644 1 83.2034 10.0957 840 86.825 1011.2 467.593
645 0 86.1218 10.3806 894 87.4754 1011.64 463.635
646 0 90.1699 11.3674 1025 84.8917 1011.01 461.672
647 0 89.2024 10.8966 972 85.9475 1011.31 459.088
648 0 94.1194 10.4336 982 85.9389 1011.45 456.422
649 1 108.207 12.6701 1371 79.2779 1012.4 459.6
650 0 109.123 12.4172 1355 77.9668 1012.26 459.363
651 1 56.188 10.3581 582 69.488 1013.38 489.289
652 0 59.4362 10.9697 652 71.3896 1013.73 488.581
653 0 61.1067 10.9808 671 65.4605 1012.86 488.155
654 0 62.113 12.7349 791 71.2238 1013.02 491.837
655 0 62.1514 12.5983 783 71.9745 1012.99 492.038
656 0 65.0703 12.8784 838 72.1098 1012.65 490.896
657 0 66.0843 12.4538 823 72.4569 1013.95 489.143
658 0 70.1797 13.095 919 70.593 1014.08 486.842
659 0 72.1122 12.4112 895 70.124 1014.37 486.793
660 0 70.1282 11.3506 796 71.5515 1014.67 485.092
661 0 77.2831 12.4089 959 72.2659 1013.96 483.194
662 0 79.2441 12.5435 994 71.3682 1015.08 482.39
663 0 81.2643 12.3055 1000 73.897 1014.76 479.872
664 0 85.1938 11.4562 976 74.3361 1014.26 478.964
665 1 44.0416 11.3075 498 78.2229 1014.94 499.839
666 0 43.0766 10.6322 458 84.5371 1015.02 498.624
667 0 48.031 12.3878 595 80.1412 1015.29 496.343
668 0 44.1249 10.9009 481 78.2266 1013.53 499.412
669 0 46.0273 10.5807 487 80.1314 1015.02 497.517
670 0 48.1049 11.267 542 78.2768 1013.75 497.419
671 0 49.107 11.3629 558 78.5986 1014.37 495.1
672 0 52.0907 9.9826 520 78.7827 1016.05 496.04
673 0 52.0496 11.0856 577 79.6101 1014.55 496.759
674 0 54.0926 11.7391 635 79.1386 1014.61 495.739
675 0 56.1162 11.5118 646 78.7724 1013.68 495.169
676 0 58.0958 12.1523 706 77.4759 1013.4 493.758
677 0 60.1037 11.5966 697 75.6241 1015 492.789
678 0 59.1431 10.9058 645 75.5457 1014.09 490.774
679 0 63.0828 11.8891 750 76.1907 1015.03 487.985
680 0 65.1137 12.0405 784 76.7462 1013.3 489.758
681 0 66.1059 11.6934 773 78.0052 1013.73 488.325
682 0 69.0875 12.1295 838 76.0967 1014.39 487.039
683 0 70.1545 11.6742 819 79.3004 1014.67 488.337
684 0 75.1264 13.0846 983 75.6724 1015.98 488.602
685 0 78.1121 11.9828 936 77.0545 1015.29 487.06
686 0 79.1223 12.5628 994 78.8249 1013.85 485.639
687 0 81.0825 12.3331 1000 80.843 1014.7 484.135
688 1 43.0885 12.0914 521 84.7236 1014.99 502.534
689 0 43.1414 12.007 518 90.4421 1014.78 500.998
690 0 46.1695 12.1509 561 80.8378 1014.57 496.843
691 0 44.0964 11.9511 527 85.1195 1014.04 497.268
692 0 45.146 11.6511 526 77.5171 1014.95 499.973
693 0 46.0365 11.3171 521 79.0979 1014.37 498.841
694 0 49.0259 12.8095 628 84.9682 1014.76 501.306
695 0 50.0312 12.4322 622 87.0434 1014.36 500.045
696 0 53.0479 12.5735 667 85.0945 1014.26 499.333
697 0 55.0586 12.4958 688 86.4026 1014.15 498.254
698 0 57.0396 12.7105 725 85.4841 1015.39 498.437
699 0 59.0639 13.0367 770 84.2494 1015 498.745
700 0 61.0633 13.1339 802 83.7157 1014.72 495.536
701 0 62.099 12.319 765 86.0314 1014.76 495.523
702 0 64.0513 13.3174 853 85.1641 1014.9 495.073
703 0 67.0574 13.2573 889 84.6693 1014.9 492.865
704 0 70.0865 13.1409 921 83.582 1013.88 491.853
705 0 72.0842 13.5397 976 83.168 1014.54 491.088
706 0 73.0693 13.4804 985 85.6173 1013.66 487.994
707 0 76.2261 11.7676 897 81.4838 1012.98 485.202
708 0 79.0915 12.7827 1011 79.7992 1013.14 485.901
709 0 81.1633 13.2819 1078 78.0093 1012.55 484.652
710 0 84.1602 12.8683 1083 79.8209 1012.83 486.082
711 0 87.2251 13.0009 1134 80.1984 1013.46 485.496
712 1 45.0945 12.9284 583 80.5986 1013.05 503.664
713 0 47.0335 13.1183 617 82.4441 1012 502.945
714 0 50.127 13.3461 669 85.0777 1011.5 497.402
715 0 52.0231 13.3018 692 79.211 1011.81 499.857
716 0 52.0646 13.2912 692 80.526 1011.97 499.785
717 0 53.0643 12.8712 683 78.6032 1011.51 497.357
718 0 56.0521 12.5776 705 77.6624 1011.68 496.98
719 0 60.0771 12.5173 752 88.6596 1012.27 497.265
720 0 61.1929 13.4329 822 86.5097 1013.82 495.235
721 0 64.1996 13.6294 875 85.9589 1012.86 493.853
722 0 64.1123 12.3689 793 78.2951 1012.08 492.006
723 0 64.0782 12.157 779 79.6906 1011.84 492.499
724 0 70.1964 13.0064 913 78.8368 1011.92 491.777
725 0 70.0592 12.9747 909 85.363 1011.67 490.682
726 0 74.1063 12.5361 929 82.76 1011.52 490.347
727 0 77.2015 12.979 1002 84.1377 1011.88 489.734
728 0 81.2385 12.9372 1051 83.0495 1011.9 488.339
729 0 82.1428 12.6122 1036 85.5956 1011.8 485.797
730 0 85.1297 13.5323 1152 84.1762 1012.11 484.579
731 0 87.1086 12.605 1098 86.6421 1012.12 483.708
732 1 46.0429 12.0974 557 83.8259 1012.32 505.4
733 0 48.0497 12.1749 585 84.4564 1012.05 504.185
734 0 50.0314 12.3922 620 83.9097 1012.74 502.371
735 0 52.1078 13.5105 704 81.8054 1012.68 500.223
736 0 50.0861 13.3969 671 84.9151 1013.1 500.136
737 0 52.1942 12.6068 658 86.4818 1012.55 497.695
738 0 56.0721 12.7871 717 93.8717 1013.73 498.155
739 0 58.0215 13.426 779 92.1438 1013.48 497.964
740 0 61.0818 13.1627 804 91.8756 1014.36 497.602
741 0 62.2081 13.4709 838 92.71 1014.12 494.058
742 0 63.3078 13.2685 840 95.1179 1013.8 491.014
743 0 67.2548 13.7239 923 93.8397 1013.04 489.353
744 0 68.4192 13.9288 953 94.2151 1013.12 488.704
745 0 69.3384 14.0182 972 95.0761 1013.58 487.527
746 0 72.1522 13.9982 1010 97.5248 1014.02 485.857
747 0 74.3875 13.8867 1033 99.2527 1014.32 486.629
748 0 77.2842 14.3367 1108 100.752 1013.94 485.643
749 0 80.3871 14.0321 1128 101.916 1013.46 484.316
750 0 84.318 14.7893 1247 101.646 1013.94 482.096
751 0 87.4331 14.5826 1275 103.206 1014.15 480.984
752 0 89.4951 14.1907 1270 106.187 1014.06 478.846
753 0 92.368 14.8103 1368 106.39 1013.68 476.816
754 0 96.5967 14.8349 1433 107.662 1013.94 476.326
755 0 99.5398 15.1397 1507 107.232 1014.15 475.127
756 1 48.3503 13.216 639 110.351 1014.75 498.795
757 0 51.4798 13.0148 670 110.473 1014.51 497.939
758 0 50.2655 14.0056 704 111.173 1014.73 497.229
759 0 55.3101 13.5418 749 111.355 1014.63 495.985
760 0 55.2338 13.814 763 111.152 1015.2 495.05
761 0 59.2765 14.1878 841 107.694 1014.81 494.938
762 0 60.3841 14.1593 855 107.788 1014.89 493.192
763 0 60.2975 13.8812 837 110.671 1014.08 492.25
764 0 65.2643 13.7288 896 107.454 1014.32 491.089
765 0 65.4008 13.7766 901 107.891 1014.06 489.716
766 0 68.3002 13.6017 929 105.807 1013.51 488.746
767 0 71.5163 14.0248 1003 104.001 1013.84 486.122
768 0 73.27 13.8256 1013 105.754 1013.73 486.169
769 0 74.2069 13.9879 1038 105.383 1013.47 482.415
770 0 78.2642 14.2466 1115 103.528 1013.83 481.072
771 0 79.3051 13.8957 1102 103.845 1013.43 481.334
772 0 82.2936 14.7764 1216 100.65 1013.59 478.162
773 0 85.3236 14.193 1211 101.482 1013.72 478.877
774 0 87.2624 14.0725 1228 102.059 1013.34 476.533
775 0 90.2053 13.4914 1217 102.981 1012.71 474.088
776 0 94.2571 14.1103 1330 101.806 1013.68 473.385
777 0 96.2858 14.0208 1350 100.75 1013.37 471.964
778 0 99.3092 14.1276 1403 99.9808 1012.98 469.282
779 0 103.176 14.1603 1461 98.601 1013.11 468.996
780 0 106.258 14.5589 1547 96.5055 1013.48 465.866
781 0 108.094 13.9138 1504 98.1257 1013.27 464.055
782 1 56.0939 12.7465 715 94.242 1013.68 490.449
783 0 60.1612 13.6799 823 89.9186 1013.88 487.897
784 0 62.1626 12.6764 788 95.5241 1013.56 486.28
785 0 64.1676 13.0128 835 96.2168 1013.31 484.687
786 0 66.1772 12.935 856 96.4136 1013.44 485.386
787 0 67.1744 13.1151 881 97.5426 1012.31 483.184
788 0 71.2203 13.5635 966 97.4876 1012.68 480.673
789 0 73.1652 13.5994 995 98.0995 1012.28 480.032
790 0 74.1544 13.7416 1019 99.6624 1012.51 478.991
791 0 79.2681 13.0822 1037 100.63 1012.72 478.992
792 0 80.1842 13.7433 1102 100.664 1012.3 477.042
793 0 81.1105 13.6481 1107 102.628 1012.35 475.85
794 0 86.195 14.0611 1212 99.7409 1012.53 475.288
795 0 87.155 13.803 1203 101.2 1012.68 472.584
796 0 91.2097 13.7814 1257 101.22 1012.83 470.78
797 0 96.242 13.9025 1338 100.318 1013.28 470.388
798 0 98.2553 13.7092 1347 101.841 1013.35 468.962
799 0 98.2592 13.7086 1347 166.87 1013.34 468.905
800 0 106.251 14.5316 1544 99.0039 1013.64 464.854
801 0 109.097 14.3542 1566 100.379 1013.25 463.854
802 1 56.0212 11.4956 644 97.0078 1012.97 490.202
803 0 57.0914 12.191 696 94.7974 1014 486.909
804 0 59.1214 11.9246 705 90.0567 1012.69 486.928
805 0 62.1744 11.2747 701 88.7161 1012.43 488.569
806 0 64.1243 11.7584 754 88.4045 1012.99 487.113
807 0 67.1938 11.4892 772 89.0894 1012.92 486.832
808 0 68.1892 11.2921 770 89.8091 1014.08 486.561
809 0 69.172 11.4786 794 85.1083 1014.52 488.908
810 0 73.1228 12.3628 904 88.4945 1014.55 488.485
811 0 74.08 11.987 888 90.9077 1012.37 486.695
812 0 76.0748 12.1328 923 90.0802 1012.54 485.901
813 0 80.1418 12.0661 967 88.938 1012.68 483.945
814 0 81.0995 12.1209 983 88.9644 1012.28 484.057
815 0 84.094 12.3433 1038 89.2389 1011.93 482.397
816 0 86.1233 11.9364 1028 88.1975 1012.37 483.365
817 0 90.2217 12.2698 1107 87.9919 1012.68 481.08
818 0 92.1227 11.7778 1085 88.6664 1011.95 480.498
819 0 95.2082 11.6061 1105 88.5973 1011.91 479.084
820 0 97.176 12.1944 1185 88.8878 1012.35 477.248
821 0 100.156 11.502 1152 88.145 1012.75 474.094
822 0 105.287 11.1504 1174 87.23 1011.92 474.621
823 1 56.1831 11.3557 638 83.3824 1013.17 497.428
824 0 58.1776 12.1009 704 82.267 1012.49 495.224
825 0 61.1071 11.5044 703 78.0484 1012.71 495.34
826 0 63.1053 11.7898 744 76.4382 1012.56 494.37
827 0 64.1209 11.7278 752 77.1662 1012.48 493.239
828 0 67.3154 12.2112 822 75.9221 1012.04 493.116
829 0 67.242 11.6743 785 76.8701 1012.22 490.457
830 0 71.144 11.6946 832 77.5649 1012.31 488.572
831 0 73.2061 11.9662 876 77.8253 1011.77 488.547
832 0 76.0319 11.824 899 77.6585 1011.36 486.364
833 0 78.0632 12.7461 995 77.2925 1012.54 484.43
834 0 81.1365 12.7439 1034 75.5812 1012.6 484.072
835 0 82.1042 11.863 974 77.7464 1011.93 483.472
836 0 85.096 12.7973 1089 76.9605 1011.51 482.956
837 0 88.1899 12.1896 1075 87.2586 1011.15 478.801
838 0 90.1823 12.2086 1101 90.7248 1011.3 475.863
839 0 93.1469 12.1636 1133 91.1721 1010.95 474.581
840 0 95.1595 11.6331 1107 88.4734 1010.21 471.295
841 0 101.198 12.9844 1314 87.4635 1010.74 471.658
842 0 102.123 12.1423 1240 90.6702 1010.98 469.485
843 1 52.1368 10.2615 535 82.7121 1012.02 497.654
844 0 54.1272 10.8264 586 83.7833 1010.58 495.078
845 0 55.1738 11.1285 614 80.0081 1011.5 493.129
846 0 56.1972 11.2639 633 80.7472 1011.24 495.057
847 0 59.214 12.1593 720 80.1139 1010.79 493.224
848 0 61.1191 11.5185 704 81.6747 1010.65 492.808
849 0 65.1769 12.2743 800 81.2025 1011.24 489.945
850 0 67.2274 11.7958 793 81.8121 1011.22 487.58
851 0 70.3198 12.4858 878 79.8736 1011.63 486.957
852 0 71.261 11.8157 842 82.3587 1011.78 487.621
853 0 72.1627 12.2501 884 83.5781 1011.38 486.882
854 0 76.2421 12.7226 970 83.3691 1011.15 485.835
855 0 79.1539 12.3683 979 84.1512 1011.48 484.066
856 0 81.1473 12.9641 1052 83.1882 1010.72 482.129
857 0 85.3283 12.8445 1096 84.1524 1011.08 481.306
858 0 87.3368 12.6865 1108 86.269 1011.17 479.836
859 1 44.0504 10.9647 483 85.94 1011.59 501.961
860 0 46.1303 10.7955 498 86.9598 1011.49 500.528
861 0 46.0776 11.4372 527 85.537 1011.45 499.905
862 0 47.1176 11.8427 558 85.086 1011.39 498.753
863 0 51.1007 11.9568 611 84.4484 1012.14 497.209
864 0 51.0523 12.3011 628 79.457 1012.34 493.051
865 0 55.0111 12.8338 706 80.9773 1010.91 495.188
866 0 55.0504 12.6975 699 82.5207 1011.2 493.976
867 0 58.0388 13.9389 809 80.3276 1010.94 492.561
868 0 61.0892 13.9959 855 78.6503 1010.99 493.396
869 0 60.0543 13.2713 797 82.3275 1011.33 492.005
870 0 64.0866 13.5598 869 80.3694 1011.68 489.389
871 0 66.0897 14.0718 930 79.6366 1011.37 490.306
872 0 68.1243 14.2827 973 79.999 1011.2 489.31
873 0 70.0516 14.1182 989 81.7988 1011.75 487.649
874 0 74.0773 13.9179 1031 81.1261 1011.51 487.039
875 0 76.0826 13.7088 1043 82.1755 1011.77 485.869
876 0 78.0687 13.9621 1090 82.7505 1011.11 484.812
877 0 80.0796 13.549 1085 84.7576 1011.51 480.098
878 0 83.0395 13.4153 1114 84.8133 1011.15 480.251
879 0 87.0572 13.2327 1152 85.9844 1010.28 478.375
880 0 90.0908 13.9859 1260 83.0563 1010.62 478.702
881 1 45.0311 12.0583 543 88.5083 1010.21 499.147
882 0 49.0274 12.4624 611 86.9935 1010.61 498.65
883 0 49.0963 12.5875 618 90.5437 1010.77 497.165
884 0 52.1177 13.6422 711 88.5893 1010.96 492.691
885 0 53.1333 13.8331 735 88.0027 1012.45 498.548
886 0 53.1014 12.8245 681 90.4361 1011.99 495.518
887 0 53.0995 12.7497 677 144.555 1010.97 495.443
888 0 58.1191 13.3691 777 90.529 1012.15 494.166
889 0 61.2199 13.4597 824 90.4684 1011.83 492.862
890 0 63.1859 13.3732 845 91.4793 1011.59 491.279
891 0 65.1453 13.5083 880 91.8875 1011.78 489.308
892 0 68.1123 14.1091 961 89.4277 1011.87 488.07
893 0 68.1284 13.2837 905 93.6144 1012.08 487.257
894 0 75.2297 14.4092 1084 89.1799 1012.06 485.825
895 0 74.2081 14.1224 1048 92.5248 1012.37 483.954
896 0 79.1696 13.6921 1084 91.2343 1012.33 483.533
897 0 81.1912 14.509 1178 89.9117 1011.44 481.694
898 0 84.1289 14.1093 1187 91.0286 1011.86 478.687
899 0 88.1556 13.9413 1229 90.7323 1011.74 477.779
900 0 90.2176 14.1325 1275 89.4361 1012.43 476.94
901 0 92.1799 14.0161 1292 91.5085 1011.92 474.899
902 0 96.1782 13.8493 1332 91.4595 1011.96 472.357
903 1 48.0233 11.8692 570 97.0596 1012.85 495.207
904 0 51.0651 12.768 652 94.2132 1013.24 494.267
905 0 52.0582 13.5041 703 87.7226 1013.21 494.063
906 0 54.0527 13.1353 710 86.7225 1013.84 494.289
907 0 53.0629 13.2296 702 87.8077 1013.1 494.058
908 0 54.0518 13.3946 724 88.4254 1012.38 493.942
909 0 56.0633 12.9497 726 87.9876 1012.29 493.197
910 0 58.0565 13.4696 782 86.8414 1012.53 491.584
911 0 59.1437 13.5095 799 86.7222 1012.72 491.588
912 0 62.093 13.4476 835 88.7449 1012.73 489.493
913 0 64.0838 13.2327 848 90.1887 1013.1 488.768
914 0 66.1782 13.7205 908 90.0639 1013.76 485.119
915 0 69.1889 13.1235 908 88.685 1013.37 485.84
916 0 72.2039 13.0325 941 89.61 1013.3 484.793
917 0 74.098 13.7656 1020 90.1078 1013.43 484.575
918 0 76.1187 13.8993 1058 88.1399 1013.07 483.085
919 0 79.1033 13.337 1055 89.4171 1013.56 481.672
920 0 82.1271 13.6252 1119 88.3637 1013.07 479.085
921 0 85.0863 12.8693 1095 91.3406 1012.65 478.58
922 0 86.1616 12.7783 1101 93.3833 1013.4 478.55
923 1 44.0419 11.5345 508 90.5315 1014.21 502.067
924 0 44.1458 11.8018 521 90.1747 1013.53 500.255
925 0 47.1471 12.2595 578 88.8356 1013.44 498.616
926 0 49.1112 12.1154 595 89.3714 1013.26 497.38
927 0 49.1166 12.0733 593 123.207 1014.25 497.304
928 0 51.1142 12.5992 644 88.0124 1013.1 496.424
929 0 53.2158 12.703 676 87.0444 1012.69 496.575
930 0 52.1363 13.1578 686 87.8192 1012.69 496.88
931 0 55.1338 13.9479 769 84.8283 1012.71 495.823
932 0 56.1589 12.7317 715 87.7902 1012.39 496.955
933 0 59.2946 12.9691 769 94.0013 1012.01 495.629
934 0 60.2195 12.6371 761 94.1708 1011.06 494.175
935 0 62.1452 13.2754 825 87.08 1011.48 495.15
936 0 66.1848 13.9609 924 85.5141 1011.3 493.896
937 0 65.1178 13.345 869 88.4822 1010.8 493.403
938 0 68.1267 13.4015 913 88.9715 1010.83 493.02
939 0 69.1224 12.9914 898 91.9878 1010.42 492.472
940 0 72.1434 13.9306 1005 89.8388 1010.73 491.719
941 0 75.1293 14.2953 1074 89.7076 1010.17 489.963
942 0 76.1345 14.238 1084 92.5498 1010.09 488.886
943 0 79.1699 13.9194 1102 94.8158 1009.9 487.448
944 0 81.1806 13.8949 1128 96.453 1010.09 486.34
945 0 84.2414 14.2567 1201 97.2073 1009.65 483.715
946 0 86.2182 14.3937 1241 98.6044 1009.32 481.081
947 0 87.2109 13.8744 1210 100.509 1009.02 479.168
948 0 91.2095 14.0884 1285 101.064 1008.8 477.421
949 0 93.1867 13.8539 1291 102.509 1009.88 476.372
950 0 96.1765 14.4006 1385 100.99 1009.9 474.259
951 0 102.272 14.7939 1513 107.465 1009.78 471.361
952 0 105.159 14.9679 1574 107.985 1010.24 469.324
953 0 108.163 14.8202 1603 110.601 1011.4 467.522
954 1 55.1914 11.9403 659 110.901 1010.67 495.399
955 0 56.2248 12.2544 689 109.385 1011.19 497.811
956 0 57.1183 12.0102 686 99.0219 1010.85 496.313
957 0 59.1496 12.5445 742 99.7493 1010.5 495.29
958 0 63.0774 12.6353 797 95.4881 1011.04 495.314
959 0 66.125 12.9149 854 94.5492 1011.39 494.897
960 0 67.0684 13.0017 872 95.7466 1011.45 492.651
961 0 68.1367 13.2234 901 95.7636 1011.43 491.407
962 0 72.1881 13.4233 969 95.2683 1011.25 490.373
963 0 73.2737 14.0023 1026 95.9435 1011.07 487.848
964 0 74.3751 13.8622 1031 96.8865 1011.2 488.449
965 0 77.2857 14.0647 1087 95.3367 1011.38 488.054
966 0 80.4606 13.9074 1119 97.597 1012.12 488.243
967 0 83.3673 14.5981 1217 96.2958 1011.92 486.17
968 0 85.4333 14.842 1268 95.8281 1011.89 481.749
969 0 88.5332 14.5482 1288 97.3408 1012.29 484.297
970 0 92.346 14.6731 1355 96.8827 1012.03 477.996
971 0 94.3948 14.6089 1379 97.1095 1012.36 476.319
972 0 94.2954 14.5288 1370 102.702 1011.97 475.333
973 0 100.352 15.067 1512 98.1442 1012.43 473.407
974 0 101.257 14.5373 1472 100.162 1012.45 470.586
975 0 106.296 14.4596 1537 99.8347 1012.74 469.912
976 1 57.2382 11.7928 675 98.4059 1013.15 493.4
977 0 59.2469 12.4057 735 97.5687 1013.14 492.393
978 0 59.28 13.0061 771 98.7121 1012.88 490.827
979 0 62.2563 13.4284 836 106.251 1013.8 489.711
980 0 65.3427 13.8654 906 107.093 1014.03 489.051
981 0 67.3158 13.7561 926 106.672 1014.66 488.147
982 0 68.3272 14.3281 979 108.586 1013.92 487.372
983 0 68.4673 13.6708 936 100.751 1013.97 486.707
984 0 73.2635 14.1271 1035 99.4763 1013.16 485.321
985 0 74.3134 14.2101 1056 101.797 1013.87 485.027
986 0 77.3512 14.4923 1121 101.698 1013.61 482.133
987 0 80.3517 14.6979 1181 101.887 1013.59 481.922
988 0 80.3947 14.1427 1137 104.303 1014.36 480.007
989 0 84.3511 14.9613 1262 102.849 1013.73 478.494
990 0 85.3563 14.3399 1224 105.718 1013.7 477.155
991 0 90.3167 14.9585 1351 102.286 1012.6 476.227
992 0 89.3909 13.9835 1250 109.037 1013.11 473.691
993 0 94.371 14.4854 1367 108.071 1013.35 474.068
994 0 97.4417 14.306 1394 109.065 1012.98 472.474
995 0 100.407 14.5507 1461 106.99 1012.77 469.694
996 0 104.301 14.5829 1521 106.434 1012.59 467.465
997 0 108.307 14.5143 1572 105.968 1013.23 467.512
998 0 110.375 14.9037 1645 105.174 1013.8 465.136
999 0 113.324 14.6042 1655 106.181 1013.18 464.624
1000 0 113.316 14.5964 1654 163.144 1012.18 464.641
1001 0 121.393 14.5807 1770 103.875 1012.82 460.665
1002 0 126.33 14.8421 1875 101.951 1012.84 457.096
1003 0 132.372 15.0107 1987 101.095 1012.94 455.788
1004 0 135.236 14.5598 1969 102.368 1013.02 452.921
1005 0 136.375 13.2649 1809 104.923 1013.18 449.695
1006 0 143.474 13.4658 1932 100.223 1013.73 448.066
1007 0 146.482 13.319 1951 101.549 1014.37 445.723
1008 0 152.401 13.7532 2096 100.064 1014.04 444.465
1009 0 158.499 14.019 2222 99.3366 1013.37 443.622
1010 0 164.359 14.2432 2341 100.874 1013.72 437.806
1011 0 168.43 13.8752 2337 102.394 1012.83 432.852
1012 0 177.519 14.2182 2524 101.137 1012.5 429.992
1013 0 184.55 14.1371 2609 100.849 1011.74 427.238
1014 0 189.352 14.3753 2722 101.678 1012.06 424.807
1015 1 105.247 11.8483 1247 103.368 1012.67 462.919
1016 0 108.337 11.8519 1284 103.374 1012.84 462.333
1017 0 110.205 11.887 1310 105.447 1013.12 460.689
1018 0 114.205 11.3392 1295 105.06 1013.83 460.429
1019 0 117.235 11.3106 1326 107.199 1014.01 456.167
1020 0 121.195 11.9559 1449 106.005 1013.5 454.967
1021 0 125.332 11.7448 1472 106.411 1014.07 454.551
1022 0 130.314 11.3342 1477 107.374 1014.3 452.431
1023 0 134.235 10.4891 1408 107.994 1014.26 453.159
1024 0 138.141 11.1987 1547 107.783 1014.07 448.39
1025 0 145.298 11.3284 1646 104.397 1013.63 445.025
1026 0 149.315 9.57707 1430 106.115 1012.85 441.822
1027 0 156.202 10.6721 1667 104.702 1012.87 439.928
1028 0 159.271 9.58117 1526 108.365 1012.86 435.322
1029 0 166.185 10.6207 1765 106.662 1012.85 432.471
1030 0 171.285 9.76732 1673 110.647 1012.27 426.231
1031 0 177.28 9.3468 1657 108.563 1012.17 429.789
1032 1 106.165 9.69242 1029 89.1749 1013.13 468.794
1033 0 106.182 9.512 1010 90.1723 1013.16 464.15
1034 0 112.298 11.051 1241 88.3674 1012.91 463.045
1035 0 116.278 11.249 1308 89.8157 1013.27 459.385
1036 0 121.361 10.5964 1286 96.147 1012.28 458.225
1037 0 122.387 10.5158 1287 97.5765 1012.16 453.226
1038 0 127.358 11.2439 1432 96.3582 1012.27 452.37
1039 0 132.335 11.5465 1528 94.5805 1011.78 452.649
1040 0 137.5 11.6072 1596 94.2744 1011.87 448.361
1041 0 140.279 11.3702 1595 95.3473 1012.41 445.397
1042 0 143.406 11.5825 1661 95.8591 1013.27 441.629
1043 0 147.43 11.1443 1643 97.28 1013.57 440.444
1044 0 152.378 11.2811 1719 97.1454 1013.39 436.983
1045 0 157.592 11.3077 1782 98.7379 1013.55 437.22
1046 0 161.316 11.0776 1787 99.5506 1013.11 431.166
1047 0 167.515 11.5214 1930 97.8497 1012.99 427.927
1048 0 171.491 11.0909 1902 99.7834 1012.55 427.839
1049 0 178.299 10.4039 1855 101.585 1011.06 424.382
1050 0 184.61 11.1858 2065 98.8872 1012.09 421.645
1051 1 105.292 8.36724 881 89.7684 1011.17 464.84
1052 0 109.272 8.40102 918 89.3214 1012.02 460.969
1053 0 111.273 9.93949 1106 86.9693 1012.06 462.286
1054 1 48.0379 7.01529 337 79.5312 1011.93 495.54
1055 0 50.0699 6.59079 330 80.9848 1011.77 495.07
1056 0 51.0322 7.09356 362 80.989 1012.15 492.334
1057 0 58.4308 9.03634 528 76.8144 1013.2 493.519
1058 0 60.4224 9.97975 603 75.8889 1012.63 487.75
1059 0 61.1504 9.25587 566 75.2314 1012.22 493.078
1060 0 63.1558 9.54782 603 73.592 1012.52 495.99
1061 0 64.0795 9.36337 600 75.1783 1011.76 490.927
1062 0 63.2443 9.17078 580 77.5431 1014.75 493.628
1063 0 65.3129 9.14062 597 82.0553 1015.35 492.526
1064 0 69.3546 9.54516 662 79.9154 1015.44 490.882
1065 0 70.3428 9.32576 656 79.4451 1014.95 489.265
1066 0 73.2893 10.0015 733 78.5689 1014.29 486.229
1067 0 75.4072 9.82665 741 77.9906 1014.49 484.744
1068 0 78.3417 10.0202 785 77.2803 1014.28 484.311
1069 0 82.4166 9.53691 786 78.4097 1014.28 483.613
1070 0 84.336 9.87716 833 77.497 1013.82 482.324
1071 1 42.0892 8.79085 370 77.0108 1014.95 504.611
1072 0 43.1101 8.72186 376 76.7128 1015.25 504.644
1073 0 45.0528 9.63314 434 79.0576 1014.5 504
1074 0 46.0397 10.4692 482 78.7967 1014.25 502.521
1075 0 48.197 10.4778 505 79.305 1015.65 501.77
1076 0 45.132 9.41682 425 83.4235 1012.37 503.755
1077 0 46.2101 9.67322 447 84.2215 1012.34 502.432
1078 0 49.061 10.6194 521 82.833 1011.45 503.457
1079 0 50.1538 10.3482 519 84.8536 1011.82 502.896
1080 0 52.2044 10.6313 555 85.2667 1011.53 501.658
1081 0 54.1118 10.6446 576 85.5503 1011.7 500.229
1082 0 54.2697 10.1899 553 86.8373 1011.85 500.707
1083 0 56.1227 10.1741 571 88.8126 1011.59 498.702
1084 0 57.2221 10.8524 621 86.8663 1011.8 498.351
1085 0 56.1304 10.3865 583 89.7307 1011.95 498.595
1086 0 58.1259 10.2192 594 88.532 1012.33 498.662
1087 0 60.2569 10.7208 646 86.7864 1012.39 496.195
1088 0 62.2565 10.7941 672 85.3571 1012.11 496.695
1089 0 63.3141 10.2821 651 99.4393 1011.87 496.229
1090 0 65.1864 11.9657 780 96.6987 1012.69 493.005
1091 0 66.1187 10.829 716 98.8268 1012.15 494.017
1092 0 68.3827 11.3479 776 97.6353 1012.21 491.307
1093 0 70.2548 11.6149 816 96.4105 1012.53 491.901
1094 0 72.1666 12.3326 890 94.7236 1012.48 489.906
1095 0 74.1735 11.8236 877 94.8609 1012.64 489.005
1096 0 75.1055 12.2095 917 94.8386 1012.63 485.756
1097 0 77.1994 11.5027 888 95.6239 1012.35 485.108
1098 0 79.1493 12.3564 978 92.8691 1013.09 487.785
1099 0 82.168 11.4278 939 92.4941 1012.2 487.395
1100 0 84.1483 12.2522 1031 91.2803 1013.96 482.233
1101 0 88.1362 12.5828 1109 88.6483 1013.66 481.65
1102 0 91.1901 12.0408 1098 91.9836 1013.6 479.811
1103 0 93.1273 12.1661 1133 92.3204 1013.19 478.629
1104 0 97.3419 12.3893 1206 91.4735 1014.56 476.676
1105 1 51.1893 9.92394 508 86.061 1015.42 501.079
1106 0 53.3391 11.1363 594 85.4175 1014.39 498.029
1107 0 56.3263 11.2203 632 84.4873 1013.92 496.085
1108 0 57.3373 11.6329 667 83.1019 1013.75 495.738
1109 0 55.1787 10.4026 574 85.5645 1014.34 499.321
1110 0 56.1916 11.2294 631 83.8637 1014.44 498.819
1111 0 59.2727 10.9156 647 83.4281 1014.13 497.267
1112 0 61.1449 11.3337 693 85.0173 1013.4 496.196
1113 0 63.1446 11.6083 733 83.9181 1014.22 495.666
1114 0 66.1977 11.7527 778 82.2185 1013.87 493.658
1115 0 66.1803 10.97 726 83.1983 1013.65 494.222
1116 0 68.2132 11.4494 781 82.8207 1014.33 492.369
1117 0 72.1942 11.6076 838 82.4212 1014.13 492.421
1118 0 72.1434 11.3663 820 83.0427 1014.14 491.28
1119 0 75.1646 11.548 868 83.0495 1013.53 490.409
1120 0 78.207 11.6742 913 83.9869 1013.47 488.308
1121 0 77.1351 10.8641 838 85.9797 1013.32 489.8
1122 0 83.1989 12.1636 1012 82.8794 1013.9 485.055
1123 0 86.1862 12.1597 1048 83.7748 1013.42 484.417
1124 0 88.1837 12.0657 1064 90.4164 1013.32 482.103
1125 0 91.2147 12.3664 1128 89.1738 1013.4 481.035
1126 0 92.2552 11.5766 1068 90.3736 1013.87 480.874
1127 0 95.2533 11.8316 1127 88.3629 1013.59 478.116
1128 1 47.0439 10.0119 471 83.9873 1014.19 504.355
1129 0 49.1107 9.67202 475 84.2526 1011.87 500.669
1130 0 51.1674 9.85001 504 84.9603 1012.14 497.56
1131 0 51.1897 10.549 540 85.0204 1012.25 495.943
1132 0 54.1002 10.6469 576 84.5035 1013.92 499.557
1133 0 56.2571 11.6252 654 82.6988 1013.9 499.339
1134 0 59.139 12.0563 713 83.6942 1014.28 497.662
1135 0 58.0817 11.6732 678 82.795 1013.98 495.574
1136 0 61.0734 11.4616 700 84.0857 1013.89 496.414
1137 0 63.1401 12.7336 804 81.7699 1013.65 494.318
1138 0 67.0636 12.8684 863 81.1066 1014.24 491.681
1139 0 67.1058 12.6815 851 84.1034 1014.22 492.325
1140 0 71.1211 13.2028 939 83.9542 1014.24 494.895
1141 0 71.119 12.9361 920 86.9772 1013.76 492.283
1142 0 75.08 13.2792 997 86.2317 1013.71 489.636
1143 0 77.1014 13.9038 1072 86.4813 1012.95 487.743
1144 0 79.1124 12.9183 1022 90.271 1012.84 487.33
1145 0 80.0988 12.9215 1035 91.3787 1012.97 486.544
1146 0 83.1804 12.9598 1078 92.2069 1013.15 483.954
1147 0 85.2325 13.2344 1128 93.7376 1012.28 484.497
1148 0 86.1556 13.8354 1192 96.2844 1012.37 484.208
1149 0 90.1794 13.8613 1250 97.1248 1012.93 481.458
1150 0 91.144 13.1331 1197 88.9215 1013.33 481.074
1151 0 95.2256 13.8828 1322 86.0613 1013.03 480.668
1152 0 98.2597 13.3117 1308 88.9434 1012.44 478.177
1153 0 101.255 13.6388 1381 88.4794 1011.48 476.374
1154 0 101.195 13.2319 1339 91.9276 1012.38 475.029
1155 0 103.344 13.1696 1361 91.7759 1011.91 475.769
1156 0 107.231 13.3637 1433 91.7927 1011.6 471.105
1157 0 110.249 13.6056 1500 92.2053 1012.3 469.812
1158 0 112.308 13.4185 1507 93.0358 1012.22 469.977
1159 0 116.274 13.2188 1537 93.3214 1012.84 467.046
1160 0 121.265 13.4829 1635 92.9939 1012.67 466.865
1161 0 126.31 13.4194 1695 93.6619 1012.85 463.985
1162 0 129.267 13.5688 1754 94.935 1012.49 461.044
1163 0 132.351 13.6078 1801 95.4309 1012.63 459.478
1164 0 136.308 13.3155 1815 96.8132 1012.33 456.758
1165 0 140.281 13.088 1836 98.6781 1011.58 455.102
1166 0 145.224 13.6548 1983 97.2607 1011.81 453.277
1167 0 151.351 13.2276 2002 98.7907 1011.72 450.597
1168 0 154.272 13.0808 2018 97.5243 1011.78 445.734
1169 0 162.261 13.0038 2110 98.3009 1011.82 444.159
1170 0 166.343 13.0814 2176 97.9779 1012.04 439.858
1171 0 169.377 12.9711 2197 98.2717 1011.99 438.752
1172 0 175.332 13.272 2327 98.9428 1011.38 436.521
1173 0 180.389 12.7169 2294 100.332 1011.78 433.014
1174 0 186.324 12.9989 2422 99.7746 1011.41 429.107
1175 1 137.263 11.6054 1593 98.9485 1011.77 455.387
1176 0 142.334 12.1474 1729 97.4083 1010.88 452.617
1177 0 146.267 12.6139 1845 97.1577 1011.52 450.893
1178 0 150.2 12.2104 1834 101.399 1011.35 447.481
1179 0 153.225 12.0411 1845 104.258 1010.82 442.094
1180 0 153.233 12.0731 1850 146.091 1009.83 442.091
1181 1 167.32 12.2759 2054 99.8554 1010.89 438.011
1182 0 171.304 11.7102 2006 101.832 1011.43 434.176
1183 0 176.186 11.8625 2090 105.352 1010.06 429.166
1184 0 183.275 11.922 2185 105.369 1010.06 426.908
1185 0 188.225 11.6031 2184 106.036 1010.25 422.958
1186 1 47.0671 7.83988 369 93.0434 1009.57 497.444
1187 0 48.1069 9.33338 449 90.9955 1009.91 497.354
1188 0 47.0431 8.24775 388 91.1675 1009.34 497.768
1189 0 45.0546 8.61177 388 88.0103 1009.67 496.034
1190 0 48.0303 9.5773 460 89.0587 1009.65 496.257
1191 0 49.0448 9.88892 485 90.1959 1009.63 495.049
1192 0 55.1683 10.8939 601 89.5125 1009.78 496.552
1193 0 56.1402 11.2041 629 90.8076 1010.3 497.145
1194 0 59.166 10.4452 618 88.3819 1010.09 497.602
1195 0 57.2023 10.6464 609 91.1379 1009.54 495.135
1196 0 60.1107 10.6969 643 89.0467 1009.09 495.659
1197 0 61.1866 10.8847 666 90.8544 1010.19 494.32
1198 0 64.1772 10.5801 679 90.7423 1009.68 493.113
1199 0 66.1677 11.2139 742 88.6132 1010.02 492.619
1200 0 67.1361 10.9628 736 89.5 1009.63 490.698
1201 0 68.2465 10.2423 699 91.6052 1010.42 490.393
1202 0 71.1429 11.1044 790 89.9038 1009.55 490.292
1203 0 70.236 10.5786 743 94.2799 1010.8 488.911
1204 0 74.2477 11.4347 849 91.384 1010.8 487.961
1205 0 77.2819 9.9247 767 90.9961 1011.14 486.202
1206 0 80.1933 10.8862 873 89.008 1010.83 484.449
1207 1 40.0511 8.51412 341 82.5601 1010.27 505.493
1208 0 40.0455 8.86491 355 82.6901 1010.08 504.299
1209 0 39.0372 8.55594 334 84.1377 1010.25 502.626
1210 0 44.1132 9.02225 398 79.2889 1010.55 503.226
1211 0 45.0662 9.05335 408 72.6422 1010.47 502.252
1212 0 48.0677 9.21618 443 80.377 1013.91 500.625
1213 0 49.068 9.53779 468 68.453 1010.01 498.59
1214 0 49.0604 9.53926 468 70.8184 1010.53 496.662
1215 0 53.0682 10.1002 536 68.944 1010.44 498.991
1216 0 54.0946 10.8329 586 65.6604 1009.66 496.21
1217 0 57.0582 10.3053 588 66.0901 1009.42 496.151
1218 0 58.0928 10.9308 635 66.7323 1010.05 495.595
1219 0 58.0397 10.6134 616 67.3295 1010.17 495.55
1220 0 60.0271 11.5781 695 66.5439 1010.67 496.488
1221 0 61.0364 11.4849 701 67.7019 1010.22 495.561
1222 0 63.082 11.4137 720 67.5556 1010.61 492.803
1223 0 65.077 12.1241 789 76.5437 1010.3 492.608
1224 0 67.1421 12.5257 841 75.5493 1010.11 492.555
1225 0 67.1733 12.2519 823 77.4156 1009.86 491.706
1226 0 69.0981 12.5908 870 76.9184 1009.65 487.394
1227 0 71.1186 12.5565 893 77.3539 1009.88 485.764
1228 0 72.1083 12.4257 896 78.0647 1010.27 487.305
1229 0 74.1879 12.2527 909 78.3872 1009.74 485.727
1230 0 76.0762 12.8424 977 78.6151 1009.21 484.081
1231 0 77.0542 13.3802 1031 78.2367 1010 483.276
1232 0 80.1116 13.0568 1046 78.8317 1009.18 483.411
1233 0 82.0651 13.0628 1072 78.4552 1010.15 481.641
1234 0 84.0432 13.6239 1145 77.9808 1010.14 480.731
1235 0 86.0547 12.7826 1100 79.6209 1010.77 477.972
1236 0 87.0574 12.3712 1077 79.3918 1010.53 477.62
1237 0 91.0768 12.4181 1131 74.8232 1010.01 478.318
1238 0 93.1092 12.3403 1149 74.8094 1010.18 476.189
1239 0 93.1466 11.7771 1097 78.2279 1009.92 475.898
1240 0 99.1534 13.111 1300 73.7562 1010.57 478.516
1241 0 102.131 12.7189 1299 74.505 1011.28 474.845
1242 0 104.185 12.8713 1341 73.4713 1010.94 472.8
1243 0 108.209 13.326 1442 72.9417 1010.46 468.717
1244 0 112.204 14.233 1597 70.1209 1010.99 466.353
1245 1 58.1324 10.9061 634 72.429 1011.46 492.279
1246 0 62.0777 11.8239 734 69.8501 1011.35 491.199
1247 0 62.0677 11.9064 739 71.2422 1010.58 488.938
1248 0 62.0591 11.4568 711 64.647 1010.56 488.042
1249 0 66.0559 11.9444 789 63.9582 1009.6 488.112
1250 0 66.0786 11.6528 770 65.3039 1010.52 485.345
1251 0 69.1422 11.4257 790 65.7405 1010.69 484.128
1252 0 69.0703 11.3218 782 67.3376 1010.96 484.951
1253 0 71.1198 12.6125 897 66.4281 1010.74 484.622
1254 0 72.1037 12.1353 875 67.7177 1011.55 486.337
1255 0 78.1952 12.0084 939 67.4058 1011.21 482.439
1256 0 80.1269 12.3429 989 68.6643 1011.96 479.139
1257 0 80.1489 11.5784 928 71.6649 1011.27 479.769
1258 0 83.0907 12.1073 1006 73.6471 1011.27 477.773
1259 0 85.0768 12.1185 1031 74.0136 1010.36 474.935
1260 0 90.09 11.6883 1053 74.4834 1010.95 473.497
1261 0 90.0631 11.2588 1014 77.7791 1011.02 470.577
1262 0 93.0654 11.5833 1078 77.5074 1011.84 472.226
1263 0 96.1264 11.6201 1117 78.8684 1011.71 471.071
1264 0 98.0998 10.9888 1078 80.3692 1011.5 468.615
1265 0 102.108 10.8415 1107 81.3857 1011.21 467.321
1266 1 55.0313 10.4668 576 79.3438 1011.85 493.321
1267 0 57.0507 10.4819 598 80.2692 1012.81 492.221
1268 0 58.0684 10.3326 600 86.46 1012.34 487.435
1269 0 50.1386 9.49367 476 81.8634 1011.97 480.021
1270 0 61.0469 11.6632 712 84.8989 1013.17 488.834
1271 0 64.1384 11.865 761 84.5926 1014.03 487.752
1272 0 65.1581 11.3109 737 79.5495 1013.24 488.168
1273 0 66.1728 11.1375 737 81.597 1013.67 487.707
1274 0 68.1238 11.2149 764 83.894 1013.17 484.997
1275 0 70.1352 11.2212 787 85.2325 1014.1 486.034
1276 0 71.1098 11.2643 801 86.5281 1014.5 485.668
1277 0 74.2398 11.7322 871 87.0815 1014.6 483.271
1278 0 77.3026 11.4356 884 89.2093 1013.95 482.742
1279 0 79.1435 11.9151 943 89.3499 1013.01 480.554
1280 0 82.1238 12.4446 1022 89.2407 1013.42 480.249
1281 0 84.1365 11.6121 977 92.6858 1012.96 479.638
1282 0 88.3012 12.5366 1107 90.6748 1012.9 477.809
1283 0 88.2159 12.3447 1089 93.5225 1012.78 478.047
1284 0 92.2263 12.3284 1137 93.8074 1012.93 475.843
1285 0 93.345 12.5342 1170 93.6795 1013.44 474.03
1286 0 95.1263 12.2364 1164 94.9235 1013.15 469.789
1287 0 100.295 12.3435 1238 94.3562 1013.04 470.748
1288 0 104.517 12.8209 1340 92.3687 1012.56 464.816
1289 1 56.4274 10.9698 619 80.2391 1013.95 490.895
1290 0 57.2563 10.7936 618 81.7589 1013.96 492.015
1291 0 59.1983 11.3686 673 85.584 1013.64 491.929
1292 0 63.2797 11.5519 731 82.8126 1013.83 489.971
1293 0 64.1802 11.7949 757 82.0211 1013.7 490.962
1294 0 65.1834 11.7821 768 85.2734 1014.11 488.868
1295 0 69.1611 11.4226 790 83.4696 1013.89 487.742
1296 0 70.2311 11.7896 828 92.6425 1013.79 487.118
1297 0 73.2271 12.154 890 82.3551 1013.33 486.045
1298 0 73.1914 11.4768 840 84.5548 1013.65 484.994
1299 0 74.1614 11.1244 825 85.1661 1013.79 485.39
1300 0 77.2298 12.0938 934 82.8919 1013.72 483.308
1301 0 80.2882 12.0317 966 81.8778 1013.26 480.914
1302 0 83.2108 12.0778 1005 80.3383 1013.43 480.857
1303 0 87.3078 11.4308 998 82.007 1013.56 479.826
1304 0 88.3183 11.3114 999 82.7477 1012.92 479.839
1305 0 90.1882 12.108 1092 81.5907 1012.64 476.925
1306 0 92.3176 12.0779 1115 81.0843 1012.47 476.419
1307 0 93.1916 10.9023 1016 83.001 1012.94 475.247
1308 0 97.2492 12.0721 1174 81.8629 1012.55 473.61
1309 0 99.2473 11.9197 1183 82.9822 1011.94 470.603
1310 0 104.357 12.7638 1332 79.9715 1012.07 469.567
1311 0 105.265 11.2858 1188 82.5076 1012.64 469.046
1312 0 107.17 11.2065 1201 83.4013 1012.74 467.293
1313 0 111.248 11.353 1263 86.4418 1012.22 464.47
1314 0 111.243 11.2816 1255 132.163 1011.2 464.218
1315 0 118.313 11.4273 1352 85.8417 1011.7 463.082
1316 0 121.198 12.0299 1458 85.7524 1011.53 459.224
1317 0 124.203 11.8274 1469 87.3159 1011.34 456.98
1318 0 128.199 11.9034 1526 87.2464 1011.37 454.982
1319 0 132.191 11.1883 1479 89.3137 1011.38 450.502
1320 0 136.136 11.8485 1613 90.1662 1012.46 450.844
1321 0 141.23 11.4919 1623 88.8355 1012.14 445.63
1322 0 148.224 11.9279 1768 87.4898 1011.37 444.364
1323 0 151.286 10.5496 1596 91.8083 1011.22 439.468
1324 1 58.0591 8.83583 513 71.4074 1012.52 494.713
1325 0 57.0822 8.98704 513 69.768 1012.97 491.969
1326 0 61.0778 10.7731 658 79.7173 1016.08 491.112
1327 0 62.2033 10.3692 645 82.6992 1013.95 490.231
1328 0 63.2498 11.5732 732 79.8784 1014.41 491.225
1329 0 65.239 10.7144 699 86.1144 1012.29 491.629
1330 0 69.2116 10.5185 728 86.9588 1013.32 490.909
1331 0 71.1305 10.8392 771 88.2179 1013.48 488.76
1332 0 72.3843 10.6515 771 90.3437 1012.84 487.066
1333 0 76.2921 11.5739 883 87.547 1013.13 487.537
1334 0 77.3146 11.8865 919 88.1088 1013.43 487.353
1335 0 79.409 11.2204 891 89.174 1013.23 488.807
1336 0 80.4432 11.6977 941 90.5388 1012.95 484.88
1337 0 83.3313 11.8803 990 89.2687 1013.29 483.584
1338 0 87.3707 12.3039 1075 87.0028 1012.96 483.395
1339 0 88.4245 11.7614 1040 89.5154 1013.47 481.543
1340 0 90.3251 11.37 1027 88.4898 1012.46 481.804
1341 0 95.3971 11.5098 1098 90.1503 1012.06 480.359
1342 0 98.3141 11.1886 1100 87.6555 1012.68 477.241
1343 0 101.406 10.7784 1093 90.1409 1012.42 475.64
1344 0 104.467 11.439 1195 90.7506 1011.49 474.736
1345 1 59.053 9.61848 568 87.1761 1013.65 498.961
1346 0 63.0902 10.3503 653 88.5513 1012.56 496.832
1347 0 64.0565 10.3971 666 86.6697 1012.96 494.332
1348 0 65.0733 11.633 757 82.8336 1013.16 495.034
1349 0 66.0632 11.6555 770 85.5117 1012.3 493.775
1350 0 69.1607 11.0323 763 86.4561 1011.8 492.267
1351 0 72.1233 12.1875 879 88.4664 1012.54 489.889
1352 0 72.126 11.8681 856 90.4942 1012.2 488.561
1353 0 75.1424 11.9506 898 92.8396 1012.66 487.481
1354 0 76.1515 12.1468 925 92.1286 1012.54 486.725
1355 0 80.136 12.2043 978 92.6411 1010.55 485.87
1356 0 82.1623 12.1345 997 92.327 1012.49 483.718
1357 0 84.0865 12.7369 1071 91.747 1011.67 485.49
1358 0 86.1304 13.2009 1137 90.9578 1012.03 482.713
1359 0 86.105 12.5893 1084 95.107 1012.56 480.988
1360 0 90.1761 13.2408 1194 91.9849 1011.92 482.074
1361 0 91.1881 13.1596 1200 90.5925 1011.99 482.113
1362 0 93.1504 13.0756 1218 91.8654 1011.31 481.119
1363 0 94.1702 12.3287 1161 95.3824 1011.83 481.199
1364 0 95.1359 12.4033 1180 96.6839 1011.98 480.295
1365 0 98.2159 11.7293 1152 98.8403 1011.76 479.746
1366 0 101.446 12.3712 1255 98.5052 1011.73 477.032
1367 0 104.21 12.5612 1309 98.7044 1011.19 476.364
1368 0 107.196 12.687 1360 98.2904 1010.09 474.517
1369 0 109.24 12.0468 1316 101.014 1010.24 472.783
1370 0 113.236 12.6992 1438 99.6752 1009.87 471.239
1371 0 115.242 13.0075 1499 100.577 1009.17 469.032
1372 0 118.167 13.7517 1625 101.263 1009.85 467.28
1373 0 120.239 13.2403 1592 104.622 1010.15 466.712
1374 0 122.212 13.0429 1594 105.565 1010.25 466.119
1375 0 123.209 12.9455 1595 169.946 1010.25 465.991
1376 0 128.209 12.0818 1549 99.348 1009.86 456.899
1377 0 134.243 12.969 1741 95.3693 1010.19 449.755
1378 0 135.247 13.0871 1770 96.3831 1010.16 450.979
1379 0 137.237 13.3638 1834 93.0834 1010.45 451.391
1380 0 139.144 13.4034 1865 100.664 1010.63 452.839
1381 0 138.233 13.4628 1861 103.983 1010.44 450.814
1382 0 140.239 13.0278 1827 106.146 1009.97 449.338
1383 0 143.213 13.5184 1936 103.534 1009.96 447.955
1384 0 146.355 13.112 1919 102.31 1009.72 444.763
1385 0 151.255 13.0244 1970 100.748 1009.24 444.761
1386 0 157.322 13.7934 2170 96.1051 1010.14 443.233
1387 0 160.333 13.6154 2183 96.3028 1009.47 440.284
1388 0 162.296 12.1137 1966 99.179 1009.94 437.454
1389 0 169.292 13.0839 2215 94.1652 1009.47 435.304
1390 0 175.175 12.8386 2249 94.486 1008.56 435.262
1391 1 100.134 9.79689 981 82.3344 1009.3 475.124
1392 0 104.133 10.5442 1098 81.3069 1009.51 475.697
1393 0 106.098 11.4234 1212 80.9901 1010.08 475.896
1394 0 110.297 11.9859 1322 81.9652 1010.2 472.972
1395 0 110.297 12.0131 1325 130.383 1010.19 472.997
1396 0 115.2 11.6145 1338 85.6218 1010.88 471.309
1397 0 117.155 12.4536 1459 83.9746 1010.47 469.862
1398 0 123.169 11.7156 1443 98.5405 1011.17 466.844
1399 0 125.259 12.1668 1524 100.932 1010.78 464.073
1400 0 127.222 12.9381 1646 98.0917 1010.38 461.736
1401 0 132.144 12.8874 1703 98.6905 1010.87 462.08
1402 0 135.117 12.0858 1633 102.835 1010.69 457.146
1403 0 136.102 11.5134 1567 104.809 1010.08 455.106
1404 0 140.055 11.6526 1632 104.844 1010.26 451.168
1405 0 146.115 12.3122 1799 104.048 1009.81 450.18
1406 0 150.099 12.0254 1805 106.177 1010.2 447.827
1407 0 153.155 11.3023 1731 108.696 1010.44 447.125
1408 0 157.112 12.2269 1921 107.932 1009.68 445.055
1409 0 160.173 11.806 1891 113.198 1009.35 442.314
1410 0 165.263 11.3093 1869 113.703 1009.05 439.342
1411 0 169.431 11.757 1992 115.242 1009.36 434.633
1412 0 175.457 12.3905 2174 113.752 1008.88 433.516
1413 0 178.32 11.8607 2115 114.379 1009.58 427.213
1414 0 182.414 11.8083 2154 115.324 1009.22 425.439
1415 0 189.501 12.2374 2319 111.713 1008.76 421.115
1416 0 195.702 12.4117 2429 111.811 1008.94 420.22
1417 0 199.473 12.5581 2505 116.316 1009.64 419.878
1418 0 206.637 12.747 2634 116.243 1009.68 416.202
1419 0 210.642 12.8465 2706 116.47 1008.96 411.842
1420 0 217.684 12.1828 2652 118.387 1009.54 410.474
1421 0 222.682 11.7252 2611 120.772 1008.78 403.565
1422 0 229.525 11.3757 2611 123.224 1009.18 398.376
1423 0 234.326 10.7926 2529 123.901 1009.1 395.888
1424 0 240.254 10.9551 2632 119.442 1009.28 392.493
1425 1 54.008 6.70271 362 88.1575 1009.43 497.285
1426 0 55.0271 7.54174 415 87.147 1009.4 495.371
1427 0 58.0812 8.07491 469 85.2921 1009.44 492.507
1428 0 63.0758 9.65504 609 85.6371 1010.21 495.714
1429 0 64.0913 10.0326 643 86.9596 1009.97 493.936
1430 0 66.1376 10.3572 685 90.4204 1011.88 494.364
1431 0 67.0509 10.2609 688 95.1047 1009.09 492.035
1432 0 71.0574 10.006 711 93.8594 1009.62 489.902
1433 0 73.0612 10.0874 737 93.654 1009.15 490.357
1434 0 75.0598 9.76555 733 94.8281 1009.25 489.677
1435 0 77.0429 11.1626 860 91.9791 1009.45 488.581
1436 0 80.0932 10.9248 875 92.576 1009.58 486.217
1437 0 83.1174 11.0326 917 92.8124 1009.48 486.827
1438 0 85.1235 11.6654 993 91.3907 1009.57 484.102
1439 0 84.1389 11.1007 934 92.9197 1009.51 483.399
1440 0 88.2037 11.6208 1025 92.3424 1009.6 481.32
1441 0 90.1118 10.5092 947 94.8722 1009.9 481.247
1442 0 93.0683 11.2068 1043 92.8562 1009.56 477.275
1443 0 95.1643 10.8339 1031 94.9127 1009.84 474.985
1444 0 97.1206 11.1202 1080 94.2509 1009.93 474.227
1445 0 99.1293 10.5721 1048 95.563 1009.67 472.245
1446 0 100.117 11.4166 1143 95.1802 1009.65 471.796
1447 0 104.165 12.5282 1305 92.2192 1009.21 472.327
1448 0 105.217 11.7281 1234 82.6418 1010.57 471.06
1449 0 105.054 9.92818 1043 87.1697 1010.14 472.249
1450 0 107.117 10.4278 1117 87.9427 1010.63 471.491
1451 0 110.239 10.3412 1140 89.6149 1010.45 470.784
1452 0 115.469 10.8947 1258 87.5676 1010.02 467.459
1453 0 117.271 11.0172 1292 88.9729 1010.68 461.905
1454 0 122.218 11.1113 1358 87.9676 1011.05 460.311
1455 0 128.273 12.3954 1590 85.0667 1010.92 462.838
1456 0 131.109 12.2265 1603 85.5203 1010.21 457.627
1457 0 135.147 12.1275 1639 86.1562 1010.13 455.503
1458 0 138.242 12.1019 1673 91.8105 1010.85 454.356
1459 1 77.1816 10.9223 843 83.5635 1010.14 488.267
1460 0 77.3136 12.3523 955 90.9613 1011.37 481.391
1461 0 79.2152 12.0179 952 95.9202 1009.68 482.223
1462 0 78.0884 11.4101 891 94.6599 1009.25 477.226
1463 0 81.31 10.6629 867 93.1326 1009.66 476.588
1464 0 84.274 10.988 926 91.6242 1009.53 476.319
1465 0 85.3617 10.1099 863 95.5226 1009.55 473.17
1466 0 87.3795 10.895 952 92.1481 1009.66 473.311
1467 0 88.208 10.3846 916 93.0633 1009.36 470.873
1468 0 93.102 11.4283 1064 87.6955 1009.86 471.33
1469 0 96.2104 10.924 1051 87.705 1010.1 471.441
1470 0 99.1179 10.7347 1064 87.1598 1010.3 470.747
1471 0 100.115 10.3781 1039 89.2907 1009.33 466.663
1472 0 104.176 10.6358 1108 88.3619 1010.09 467.728
1473 0 101.175 10.21 1033 127.19 1009.94 465.446
1474 0 111.179 11.5759 1287 81.7661 1010.57 467.051
1475 0 114.073 11.5364 1316 87.7234 1010.01 464.624
1476 1 61.0402 9.38726 573 79.6946 1010.72 490.08
1477 0 63.0479 10.5158 663 75.5973 1010.79 490.388
1478 0 66.1113 10.2101 675 75.9422 1010.64 488.973
1479 0 65.2305 10.3786 677 78.0576 1011.01 491.645
1480 0 68.1283 11.5077 784 77.2742 1010.51 489.852
1481 0 70.0879 10.8435 760 76.0934 1011.17 487.724
1482 0 70.144 10.507 737 78.1737 1010.84 486.783
1483 0 72.0815 10.6962 771 79.8949 1010.37 484.955
1484 0 74.0658 11.2063 830 78.6952 1010.54 484.627
1485 0 78.0609 11.8369 924 73.0649 1010.39 483.255
1486 0 81.0816 12.5553 1018 71.8497 1010.23 482.309
1487 0 85.101 12.3735 1053 72.0209 1010.49 480.364
1488 0 86.078 12.6629 1090 72.2486 1010.91 479.811
1489 0 88.1125 11.9733 1055 76.8 1011.12 477.408
1490 0 88.1125 12.0187 1059 124.687 1012.11 477.493
1491 0 92.0668 12.1977 1123 78.8085 1011.88 477.225
1492 0 95.0819 12.2105 1161 79.826 1011.49 474.301
1493 0 98.0947 12.8447 1260 78.2429 1011.89 471.888
1494 0 100.054 12.7931 1280 80.4367 1011.62 471.777
1495 0 103.056 12.9735 1337 80.3815 1012.39 471.521
1496 0 104.167 12.3648 1288 82.0078 1011.84 471.13
1497 0 108.157 13.277 1436 79.1052 1011.94 470.258
1498 0 109.139 13.0934 1429 79.5934 1012.07 467.763
1499 0 113.185 12.9169 1462 81.0705 1011.92 464.466
1500 0 114.152 12.8513 1467 80.5631 1012.28 462.881
1501 0 120.357 13.194 1588 80.2695 1011.84 460.556
1502 0 122.351 12.8728 1575 80.4127 1012.41 457.566
1503 0 126.253 13.0611 1649 80.2226 1012.2 455.665
1504 0 131.27 12.8438 1686 81.242 1012.38 453.601
1505 1 64.0757 11.2523 721 72.6227 1013.89 490.079
1506 0 68.0888 11.6612 794 72.9408 1013.85 488.599
1507 0 69.0629 11.8443 818 71.3912 1013.58 485.601
1508 0 71.1351 12.1881 867 72.8916 1011.94 488.788
1509 0 74.0884 12.728 943 73.4348 1012.03 486.722
1510 0 74.0925 11.6881 866 76.045 1011.54 486.206
1511 0 76.0689 11.8182 899 76.02 1011.82 487.049
1512 0 79.1278 11.7911 933 76.6195 1010.99 483.273
1513 0 82.1054 12.1429 997 75.7172 1010.87 482.791
1514 0 83.0982 11.9256 991 76.2775 1010.66 481.252
1515 0 84.1121 11.3658 956 78.8975 1011.24 481.599
1516 0 88.1678 12.7824 1127 75.9388 1011.84 481.661
1517 0 89.1781 12.0209 1072 78.9394 1011.65 478.266
1518 0 92.0832 11.7828 1085 79.0673 1011.07 474.479
1519 0 96.0804 12.4271 1194 78.5879 1011.45 475.505
1520 0 99.0436 12.7419 1262 79.6466 1011 473.994
1521 0 101.131 12.6569 1280 79.282 1011.77 472.067
1522 0 103.06 12.5947 1298 80.6525 1011.48 468.169
1523 0 108.076 13.0186 1407 79.5615 1010.69 467.42
1524 0 112.099 13.7021 1536 81.0807 1010.96 465.297
1525 0 114.062 13.4752 1537 82.2505 1010.95 463.136
1526 0 116.11 12.9447 1503 84.0279 1011.34 463.233
1527 0 118.143 12.4679 1473 85.795 1011.11 460.462
1528 0 121.152 12.0675 1462 86.5055 1011.34 459.865
1529 0 126.061 12.9779 1636 86.9749 1010.86 456.563
1530 0 131.09 13.1513 1724 85.8057 1011.71 456.792
1531 0 135.155 12.556 1697 88.5816 1011.88 453.912
1532 0 141.155 13.1557 1857 87.2806 1011.65 451.739
1533 0 143.075 12.8114 1833 91.9716 1012.18 447.909
1534 0 146.161 13.4304 1963 89.5267 1012.05 444.954
1535 1 73.1602 10.4702 766 82.2585 1012.9 471.475
1536 0 76.0999 10.749 818 83.7861 1010.7 469.45
1537 0 86.0822 11.5006 990 83.9778 1012.88 472.606
1538 0 85.1669 11.7064 997 81.8556 1011.21 470.628
1539 0 91.189 11.7887 1075 89.7116 1011.57 476.48
1540 0 94.1298 12.0366 1133 88.466 1011.25 473.022
1541 0 99.0853 12.6961 1258 87.2202 1011.31 472.393
1542 0 102.191 12.7017 1298 87.1125 1010.98 472.567
1543 0 103.164 12.7661 1317 87.8793 1011.27 468.364
1544 0 109.127 13.2873 1450 86.8772 1011.42 467.532
1545 0 113.261 13.5263 1532 87.4275 1011.62 465.481
1546 0 114.237 12.9555 1480 89.0236 1011.14 462.064
1547 0 117.229 13.5887 1593 88.3622 1011.17 461.262
1548 0 122.259 13.4877 1649 89.5919 1011.12 459.543
1549 0 128.303 12.9148 1657 91.7037 1011.45 456.259
1550 0 133.295 12.4461 1659 81.2278 1011.97 452.29
1551 0 137.234 13.0798 1795 80.19 1012.04 451.45
1552 0 142.315 12.7183 1810 84.984 1011.87 449.228
1553 0 145.36 12.0597 1753 86.4815 1012.12 446.457
1554 1 81.1938 10.518 854 78.0316 1012.76 483.085
1555 0 83.1644 11.8681 987 81.6059 1012.12 480.889
1556 0 84.1861 11.9735 1008 84.2083 1012.68 478.673
1557 0 87.2213 12.6689 1105 82.8995 1012.29 477.658
1558 0 90.3224 12.865 1162 83.1188 1012.33 474.892
1559 0 90.2515 12.8751 1162 85.4811 1012.63 472.139
1560 0 96.2572 12.6224 1215 85.5885 1012.83 471.179
1561 0 97.2916 13.0535 1270 86.2409 1012.18 470.045
1562 0 99.3203 12.9379 1285 92.5486 1012.6 466.741
1563 0 102.229 13.1273 1342 91.1736 1012.51 464.385
1564 0 104.301 13.2309 1380 90.7638 1012.29 462.946
1565 0 106.348 13.4277 1428 90.5966 1012.39 459.263
1566 0 106.286 12.2217 1299 89.0431 1012.43 459.558
1567 0 109.041 12.931 1410 87.6206 1010.88 457.8
1568 0 111.119 12.7971 1422 88.597 1011.18 455.617
1569 0 112.161 12.8565 1442 89.0645 1011.74 451.953
1570 0 113.083 11.9823 1355 92.7387 1011.29 450.883
1571 0 122.14 13.0751 1597 89.3707 1010.95 446.796
1572 0 124.087 12.999 1613 89.8134 1010.86 445.634
1573 0 127.152 13.4484 1710 89.2023 1010.99 445.074
1574 0 134.188 13.0787 1755 90.2274 1010.95 444.904
1575 0 138.194 13.4448 1858 89.5893 1010.39 440.699
1576 0 142.265 12.547 1785 93.242 1010.77 438.721
1577 0 146.173 12.9093 1887 93.3058 1009.82 433.348
1578 0 155.245 13.1663 2044 90.9447 1010.8 434.638
1579 0 160.162 13.555 2171 90.8595 1010.37 430.631
1580 1 84.0541 11.564 972 91.2469 1010.51 467.158
1581 0 91.2205 12.5191 1142 87.0219 1010.44 466.343
1582 0 96.1219 13.0875 1258 87.9197 1011.2 468.364
1583 0 97.1018 11.9359 1159 90.5858 1010.75 469.235
1584 0 100.171 12.0594 1208 91.8369 1010.59 468.806
1585 0 104.156 12.4812 1300 91.2962 1010.69 465.333
1586 0 108.117 12.9951 1405 90.3993 1011.14 465.164
1587 0 107.165 12.9987 1393 91.939 1011.57 463.804
1588 0 112.204 12.8605 1443 93.1587 1011.48 461.474
1589 0 115.135 13.5667 1562 91.5634 1010.82 458.097
1590 0 114.121 12.7497 1455 95.7904 1011.05 454.889
1591 0 120.176 13.0226 1565 95.2153 1011.02 454.915
1592 0 123.147 13.1226 1616 95.8267 1011.8 453.087
1593 0 123.142 13.0419 1606 160.484 1012.8 453.072
1594 1 136.252 13.886 1892 91.8425 1011.32 444.331
1595 1 73.1406 10.1312 741 85.3927 1010.69 479.157
1596 0 78.0501 10.7367 838 82.031 1011.51 475.933
1597 0 80.161 10.5413 845 85.1728 1012.08 476.031
1598 0 84.0872 11.1313 936 83.344 1011.86 474.308
1599 0 88.2652 11.3635 1003 82.1884 1011.94 473.659
1600 0 88.1457 11.0612 975 83.7056 1011.62 472.578
1601 0 88.1457 11.0612 975 136.327 1011.61 472.534
1602 0 93.1853 10.9352 1019 86.4701 1012.11 467.726
1603 0 94.2468 11.1516 1051 88.1323 1011.89 463.836
1604 0 100.314 11.6035 1164 85.9476 1012.12 464.703
1605 0 103.147 11.0134 1136 87.6408 1011.6 462.03
1606 0 108.345 11.1127 1204 87.0382 1012.12 463.257
1607 0 106.373 11.3563 1208 140.18 1012.11 463.16
1608 0 115.269 11.1912 1290 85.3589 1011.99 456.481
1609 1 63.3131 8.84493 560 75.7875 1012.35 487.08
1610 0 60.2267 9.19858 554 75.5632 1011.61 481.854
1611 0 65.1545 10.5442 687 76.2256 1011.15 478.272
1612 0 72.1013 11.7612 848 86.0814 1012.87 480.535
1613 0 75.3646 11.9817 903 88.485 1011.21 478.381
1614 0 78.3717 12.1728 954 87.6667 1011.23 479.412
1615 0 79.4598 11.5656 919 87.481 1011.32 477.293
1616 0 80.3668 11.4724 922 87.8774 1010.79 476.48
1617 0 84.3036 11.767 992 86.8286 1011.52 475.244
1618 0 88.2561 12.5997 1112 76.9541 1011.55 476.729
1619 0 88.2686 11.7256 1035 80.4783 1011.71 474.069
1620 0 91.2573 11.495 1049 81.2793 1012.12 476.055
1621 0 91.2528 10.7175 978 83.273 1011.38 472.182
1622 0 97.258 11.6597 1134 80.9206 1011.94 471.481
1623 0 100.335 11.93 1197 81.2548 1011.26 468.081
1624 1 52.0945 10.4234 543 80.8895 1012.74 493.002
1625 0 54.0948 10.9807 594 82.4108 1012.88 492.352
1626 0 53.1627 10.797 574 83.8118 1013.56 490.639
1627 0 56.0472 11.7936 661 81.5492 1012.74 490.602
1628 0 58.1664 12.2235 711 80.6962 1011.2 489.215
1629 0 61.2552 11.7051 717 72.2803 1012.12 491.647
1630 0 59.2579 12.2684 727 74.7895 1012.37 489.746
1631 0 63.1943 11.7732 744 74.4691 1012.2 488.879
1632 0 64.2555 12.3102 791 74.4248 1012.07 487.807
1633 0 66.3042 12.0656 800 75.3062 1011.66 485.802
1634 0 68.205 12.3158 840 73.7071 1010.72 486.136
1635 0 70.2567 12.3974 871 75.0276 1011.85 485.131
1636 0 72.2948 12.8502 929 75.4316 1011.04 483.406
1637 0 73.2722 11.9008 872 78.3819 1011.11 482.867
1638 0 76.2234 13.2505 1010 76.4693 1011.63 482.072
1639 0 79.2725 12.6147 1000 78.078 1011.2 480.691
1640 0 81.2663 12.699 1032 79.0203 1011.24 479.203
1641 0 84.243 13.0337 1098 78.3561 1011.73 478.322
1642 0 86.2527 12.9735 1119 79.3414 1011.6 476.806
1643 0 87.2397 12.884 1124 80.6415 1010.85 475.51
1644 0 88.2344 12.8181 1131 81.4094 1011.63 475.666
1645 0 91.1911 13.0605 1191 81.7406 1010.8 473.167
1646 0 93.2489 13.3299 1243 83.6677 1011.42 471.99
1647 0 97.1795 13.5214 1314 82.9817 1011.27 468.924
1648 0 99.2634 13.3886 1329 83.9533 1011.58 468.442
1649 0 98.2866 12.0057 1180 88.0237 1011.74 468.037
1650 1 54.1031 10.0919 546 85.7289 1010.72 493.066
1651 0 58.0172 10.6865 620 84.6161 1011.04 493.418
1652 0 59.0798 10.325 610 85.8377 1010.67 490.616
1653 0 60.1308 11.1424 670 85.1567 1010 487.693
1654 0 63.0946 11.6492 735 84.3034 1009.68 484.026
1655 0 62.0491 11.5715 718 91.1142 1009.33 486.212
1656 0 68.0984 11.6596 794 88.8426 1009.04 487.358
1657 0 67.0227 11.429 766 92.2755 1009.39 485.941
1658 0 71.0315 12.2058 867 90.5121 1008.65 488.007
1659 0 70.0342 11.8513 830 94.2578 1009.44 487.063
1660 0 75.0468 11.806 886 93.728 1009.9 485.314
1661 0 79.0503 12.3466 976 92.0717 1010.37 485.825
1662 0 80.1227 12.8428 1029 91.7386 1010.05 484.963
1663 0 83.0628 12.7494 1059 92.4202 1009.62 481.564
1664 0 83.0945 12.6001 1047 93.7469 1010.1 481.332
1665 0 86.1889 12.9483 1116 91.7446 1010.08 480.022
1666 0 88.156 13.0791 1153 91.4605 1009.78 476.12
1667 0 93.1347 13.153 1225 90.7665 1009.81 473.947
1668 0 94.0731 12.6816 1193 91.7586 1009.55 472.479
1669 0 101.144 13.1793 1333 89.2401 1010 470.852
1670 0 99.192 12.8035 1270 92.1709 1011.09 470.731
1671 0 104.23 13.2304 1379 89.2741 1010.09 470.047
1672 0 107.232 13.0838 1403 89.9622 1010.51 467.684
1673 0 110.158 12.4549 1372 83.3353 1009.39 463.018
1674 0 113.125 12.252 1386 84.0469 1009.6 463.282
1675 1 64.1495 11.5511 741 82.2942 1010 489.447
1676 0 67.0813 11.5382 774 83.677 1009.87 488.966
1677 0 66.1098 11.4506 757 85.9802 1009.51 487.07
1678 0 68.0701 10.974 747 88.1031 1011.38 489.544
1679 0 71.0593 11.7085 832 89.857 1012.09 486.989
1680 0 73.0399 11.9661 874 89.4039 1011.24 486.898
1681 0 75.1255 12.3527 928 93.4591 1012.18 483.719
1682 0 78.055 12.1581 949 94.5047 1011.81 482.349
1683 0 78.1448 12.8735 1006 94.5507 1012.33 481.833
1684 0 81.1075 12.6622 1027 96.5005 1012.24 480.633
1685 0 83.0764 12.8797 1070 97.6477 1012.49 480.833
1686 0 86.094 12.9161 1112 97.4326 1011.66 479.829
1687 0 86.0905 12.905 1111 149.523 1010.67 479.932
1688 0 94.1441 12.7889 1204 97.0648 1011.98 477.228
1689 0 94.142 12.3962 1167 99.4619 1011.84 475.33
1690 0 99.2656 12.522 1243 97.5414 1010.46 472.452
1691 0 102.319 12.1092 1239 98.3761 1010.07 469.523
1692 0 100.096 11.9885 1200 100.143 1011.27 464.189
1693 0 104.112 12.5826 1310 97.4618 1011.6 462.013
1694 0 106.106 12.4121 1317 97.268 1011.46 460.138
1695 0 106.114 12.3358 1309 98.9137 1010.78 455.8
1696 0 109.166 12.3756 1351 98.0385 1010.94 454.556
1697 0 111.174 11.9543 1329 98.9074 1010.91 453.651
1698 0 118.115 12.1577 1436 96.9471 1011.28 450.047
1699 1 67.0452 9.18783 616 93.4935 1011.65 477.175
1700 0 68.1018 11.0423 752 89.0319 1011.86 477.903
1701 0 68.1007 11.1746 761 89.7989 1011.55 475.767
1702 0 71.1535 11.6228 827 88.2527 1011.76 476.186
1703 0 74.2159 11.6282 863 88.4658 1011.92 475.52
1704 0 75.2266 12.1101 911 87.5291 1011.32 474.8
1705 0 76.1989 11.1944 853 90.2462 1011.08 474.647
1706 0 78.1206 12.5959 984 86.9024 1011.9 472.1
1707 0 79.1055 12.2748 971 87.2997 1011.52 472.782
1708 0 81.1339 12.35 1002 87.3772 1011.7 471.232
1709 0 80.0925 12.2109 978 89.0143 1010.77 470.96
1710 0 82.0669 11.381 934 91.2998 1011 467.892
1711 0 83.1413 11.5586 961 92.692 1011.38 466.462
1712 0 89.1857 11.0444 985 92.6832 1011.2 464.696
1713 0 86.1573 11.7576 1013 92.3949 1011.1 461.881
1714 0 95.3175 12.0859 1152 90.9106 1011.76 462.57
1715 0 95.2311 11.7504 1119 93.8329 1011.61 459.147
1716 0 99.2238 12.1543 1206 93.1335 1011.17 458.148
1717 0 101.324 11.8827 1204 93.9635 1011.08 457.398
1718 0 101.246 12.2573 1241 93.913 1010.74 455.378
1719 0 104.112 12.2464 1275 92.9325 1010.96 453.264
1720 0 111.315 11.9211 1327 93.4506 1010.2 449.356
1721 0 115.112 11.8493 1364 94.3416 1010.94 447.252
1722 0 118.267 12.0998 1431 93.8651 1010.95 446.035
1723 0 120.203 12.1378 1459 95.5469 1010.65 442.07
1724 0 126.181 12.2602 1547 95.1622 1011.39 440.856
1725 0 135.211 12.425 1680 94.3649 1011.42 438.316
1726 0 138.293 12.1915 1686 95.3802 1011.02 433.622
1727 1 80.1225 8.53693 684 93.2135 1010.52 468.705
1728 0 80.2553 11.2391 902 89.1984 1010.3 467.486
1729 0 83.1319 11.2953 939 90.0564 1010.62 466.776
1730 0 85.1828 11.3286 965 91.8166 1010.62 464.679
1731 0 87.1889 11.9969 1046 91.2447 1010.71 463.391
1732 0 89.2846 11.7713 1051 92.1751 1010.78 462.737
1733 0 91.1594 11.3537 1035 93.7208 1010.06 459.727
1734 0 96.2473 11.9588 1151 91.3927 1011.01 459.352
1735 0 99.2163 11.7924 1170 92.9889 1010.79 457.962
1736 0 101.246 12.5141 1267 91.105 1010.85 456.039
1737 0 100.122 12.7044 1272 91.7248 1010.63 454.356
1738 0 102.148 12.2861 1255 92.6016 1010.36 453.468
1739 0 105.151 12.5344 1318 90.978 1010.9 451.454
1740 0 109.179 12.1269 1324 90.7304 1011.22 451.914
1741 0 108.171 11.1028 1201 92.4463 1011.27 447.848
1742 0 111.118 10.9253 1214 89.8089 1010.78 446.976
1743 0 115.232 11.2209 1293 87.5197 1010.98 443.648
1744 0 118.191 10.9822 1298 86.7419 1011.1 444.055
1745 0 125.277 11.263 1411 86.567 1010.97 439.399
1746 0 130.249 11.0634 1441 87.8446 1010.38 438.717
1747 0 135.239 10.7661 1456 87.6477 1010.59 440.72
1748 0 139.221 11.4782 1598 86.8855 1010.93 442.396
1749 0 144.247 11.4525 1652 86.5902 1011.44 443.306
1750 0 149.177 11.7779 1757 88.5811 1011.62 440.458
1751 0 151.229 11.4132 1726 90.3076 1010.56 438.261
1752 0 155.208 11.4621 1779 90.1405 1010.7 436.594
1753 0 159.201 11.6142 1849 90.7518 1010.44 431.678
1754 0 164.169 11.275 1851 91.5651 1010.26 432.024
1755 0 166.161 10.7185 1781 93.1084 1010.17 426.076
1756 0 172.235 11.4437 1971 91.6043 1009.64 426.023
1757 0 179.153 12.2521 2195 90.5298 1010.12 422.59
1758 0 185.165 13.0262 2412 87.7724 1009.91 417.609
1759 0 191.203 13.3523 2553 87.6271 1010.15 412.456
1760 0 192.303 12.0331 2314 91.8397 1009.66 412.326
1761 0 197.218 11.9665 2360 92.403 1010.23 411.823
1762 0 203.204 11.8649 2411 93.2945 1010.14 409.627
1763 0 211.228 12.006 2536 93.446 1010.19 406.822
1764 0 217.351 11.7874 2562 95.3595 1009.25 400.914
1765 0 223.348 12.0932 2701 94.8671 1009.63 396.055
1766 0 228.308 11.7604 2685 96.511 1009.55 393.229
1767 0 237.331 12.0465 2859 96.6901 1009.06 385.082
1768 0 243.356 11.8222 2877 97.6006 1009.09 383.589
1769 0 251.416 12.0318 3025 98.3679 1009.04 375.596
1770 0 258.336 11.5625 2987 101.093 1009.19 367.732
1771 0 262.401 11.5281 3025 100.331 1008.76 378.318
1772 0 262.422 10.7346 2817 103.121 1008.84 376.943
1773 1 12.0019 3.99936 48 64.3958 1010.58 512.042
1774 0 14.0139 5.35181 75 62.2667 1010.92 511.28
1775 0 13.0069 4.84358 63 61.8571 1011.03 510.651
1776 0 12.0037 5.41502 65 60.5231 1011.32 510.292
1777 0 12 0.75 9 65.3333 1011.33 511.556
1778 0 16.0173 5.05704 81 61.0864 1012.26 510.506
1779 0 13.0045 2.46068 32 63.0625 1012.69 507.531
1780 0 12.006 2.16559 26 63 1013.19 509.269
1781 0 10.0004 3.59987 36 60.0556 1013.03 508.472
1782 1 64.1141 4.88192 313 64.7188 1011.86 476.936
1783 0 66.1215 4.82445 319 64.9969 1012.85 480.991
1784 0 64.1256 3.97657 255 89.2941 1011.98 483.576
1785 0 67.2049 4.71692 317 67.6215 1013.33 482.29
