time division length width area intensity CMx CMy
0 0 75.0808 13.8118 1037 66.892 1326.41 476.25
1 0 75.1676 13.1706 990 68.4727 1325.76 473.493
2 1 39.0176 11.6101 453 66.298 1326.87 490.093
3 0 41.0872 12.583 517 68.588 1325.92 491.617
4 0 41.0274 12.382 508 71.5984 1326.58 490.618
5 0 44.0532 13.6653 602 73.1512 1326.29 490.958
6 0 44.0358 13.8978 612 74.1225 1326.85 490.879
7 0 47.0264 13.7582 647 72.5317 1326.92 492.141
8 0 47.0488 13.5179 636 74.5267 1326.83 492.19
9 0 49.0231 13.565 665 75.5759 1327.26 491.38
10 0 50.0413 14.4281 722 73.5859 1326.49 491.94
11 0 53.0404 13.8951 737 74.0366 1325.94 489.782
12 0 54.0247 14.5119 784 75.1798 1326.7 488.483
13 0 55.0582 14.0578 774 76.2054 1325.75 486.845
14 0 57.0391 13.8677 791 77.402 1325.55 486.678
15 0 59.0951 14.5528 860 77.5849 1325.6 487.644
16 0 62.0938 15.4766 961 75.8148 1326.26 486.014
17 0 64.0809 15.3088 981 76.7401 1325.41 485
18 0 65.141 15.3974 1003 77.7577 1325.5 485.023
19 0 68.0989 16.0355 1092 77.0943 1325.71 483.069
20 0 69.1634 15.3983 1065 78.723 1324.45 482.363
21 0 71.1064 15.7229 1118 79.1503 1324.64 481.074
22 0 73.2445 16.3016 1194 77.6365 1323.93 480.686
23 0 76.2463 16.1188 1229 77.2661 1324.88 479.111
24 0 77.1093 14.5378 1121 75.4844 1324.13 475.447
25 0 80.0574 14.9643 1198 74.9065 1324.16 475.318
26 0 82.2009 15.6933 1290 79.6357 1324.9 475.445
27 0 86.1201 15.9196 1371 78.6601 1324.76 472.36
28 0 90.1247 15.5451 1401 82.8473 1324.09 472.599
29 0 94.195 15.8395 1492 82.3076 1323.46 472.172
30 0 96.175 15.7005 1510 83.3497 1323.26 470.554
31 0 100.12 15.4714 1549 84.1859 1323.81 469.806
32 0 102.127 15.7059 1604 85.2787 1323.15 467.937
33 0 102.127 15.7059 1604 172.31 1322.14 468.005
34 0 109.111 15.9746 1743 84.4888 1322.98 464.684
35 0 113.204 16.2008 1834 83.7088 1323.64 464.354
36 0 116.169 16.1747 1879 84.4614 1324.1 461.548
37 0 120.189 15.8002 1899 85.4123 1323.37 459.872
38 0 123.172 15.6854 1932 88.1268 1323.44 457.795
39 0 128.172 16.1814 2074 86.704 1323.15 456.222
40 0 131.173 16.2 2125 89.2179 1323.39 453.233
41 0 136.379 16.1755 2206 90.6596 1323.22 451.45
42 0 139.17 16.2464 2261 91.3954 1323.28 449.409
43 0 145.428 16.6818 2426 91.211 1323.61 444.344
44 0 149.437 16.1473 2413 92.9312 1323.44 441.512
45 0 154.404 16.2561 2510 93.0191 1322.89 439.527
46 0 160.259 16.7229 2680 91.4295 1323.13 439.098
47 0 164.322 15.9382 2619 93.1539 1322.85 435.873
48 0 170.547 16.5057 2815 92.595 1323.41 429.882
49 1 88.3622 12.777 1129 93.752 1323.82 472.467
50 0 91.3301 12.4165 1134 93.2205 1323.44 470.275
51 0 95.2357 13.5243 1288 91.3067 1323.48 469.797
52 0 97.2119 13.5786 1320 91.4492 1324.15 467.517
53 0 101.225 14.2357 1441 90.6239 1323.17 466.723
54 0 106.28 14.1043 1499 91.9653 1323.85 464.654
55 0 111.314 15.2362 1696 88.375 1323.71 462.402
56 0 115.253 14.3597 1655 92.2181 1324.22 458.719
57 0 117.253 14.3707 1685 95.5846 1324.01 454.991
58 0 121.251 14.1607 1717 95.5486 1324.03 454.331
59 0 125.211 14.5354 1820 94.3753 1324.97 455.447
60 0 128.191 13.7685 1765 96.0793 1324.13 451.173
61 0 135.414 14.4446 1956 94.7418 1323.94 450.274
62 0 138.303 14.8659 2056 94.2276 1323.93 448.067
63 0 143.366 14.5153 2081 95.2311 1323.75 445.33
64 0 147.3 14.5078 2137 97.0636 1323.57 441.194
65 0 153.284 14.3655 2202 97.4891 1323.82 439.864
66 0 158.262 14.7161 2329 97.4723 1323.72 436.868
67 0 163.297 14.7461 2408 97.3297 1323.96 435.761
68 0 163.291 14.7528 2409 152.395 1323.95 435.658
69 1 174.519 14.4339 2519 96.5514 1324.07 429.351
70 0 180.377 14.0816 2540 97.2866 1324.07 426.719
71 0 184.273 14.2669 2629 96.7029 1324.13 424.653
72 0 190.359 14.8246 2822 95.7038 1324.09 418.997
73 0 195.271 13.7808 2691 98.2003 1324.15 418.625
74 0 200.325 13.6978 2744 98.7817 1323.33 413.004
75 0 208.395 13.6855 2852 98.7994 1323.39 410.984
76 0 215.401 13.8533 2984 97.7617 1323.21 406.89
77 0 223.329 15.3003 3417 94.0325 1323.02 399.807
78 0 230.221 14.1603 3260 96.1129 1322.78 396.565
79 0 235.359 13.6387 3210 97.7748 1323.37 395.189
82 1 197.377 12.58 2483 97.8739 1324.27 411.727
83 0 203.231 13.6101 2766 95.6392 1323.92 408.89
84 0 210.261 13.8257 2907 96.2043 1323.96 402.464
85 0 216.229 13.6892 2960 97.7476 1323.48 398.345
86 0 225.288 14.5503 3278 95.7471 1323.81 397.095
87 0 233.357 14.3943 3359 96.2664 1323.68 392.301
88 0 243.407 15.0078 3653 94.4596 1324.05 391.701
89 0 250.32 14.5853 3651 95.6842 1322.89 384.248
90 0 261.336 15.0534 3934 94.5363 1323.84 383.179
91 1 206.382 13.3538 2756 93.0276 1323.82 411.288
92 0 213.336 14.0998 3008 92.2929 1323.85 406.846
93 0 217.384 14.0305 3050 92.5348 1323.85 404.738
94 0 226.31 13.645 3088 93.4058 1323.63 401.291
95 0 233.406 14.0099 3270 93.6049 1323.89 393.997
96 0 240.274 13.7177 3296 95.5291 1323.52 389.117
97 0 249.364 13.9314 3474 93.0665 1323.14 387.453
98 0 260.335 14.6004 3801 91.1581 1322.2 382.243
99 0 268.402 14.5789 3913 90.5308 1323.04 378.823
100 0 276.377 14.1908 3922 92.1537 1323.1 374.01
101 0 288.338 14.5004 4181 91.2239 1323.61 367.867
102 1 346.33 10.4871 3632 97.9235 1322.96 366.218
103 1 233.355 13.413 3130 93.254 1323.27 390.984
104 0 241.33 13.5996 3282 93.0262 1323.32 382.826
105 0 251.438 14.7552 3710 90.7881 1323.72 378.536
106 0 261.331 14.5333 3798 91.421 1323.67 376.25
107 0 269.352 14.6388 3943 92.3325 1323.48 372.768
108 0 278.436 13.9529 3885 91.47 1322.9 365.333
109 0 287.487 14.5085 4171 90.9149 1323.1 363.564
110 0 295.293 14.4636 4271 90.5036 1322.59 354.435
111 0 394.84 18.3669 7252 82.7115 1323.31 300.074
112 0 322.735 15.0681 4863 88.1462 1323.68 343.52
113 0 330.416 13.8098 4563 88.6702 1322.9 344.954
114 0 343.489 14.6963 5048 88.0842 1323.49 341.968
115 0 354.446 16.9165 5996 84.2844 1323.21 326.881
116 0 365.462 15.6761 5729 87.8902 1323.03 322.076
117 0 377.533 16.335 6167 86.6449 1323.06 313.354
118 1 197.572 7.7086 1523 80.1182 1323.85 439.617
119 0 197.575 7.339 1450 145.076 1322.88 443.053
120 0 196.484 11.3954 2239 80.2876 1323.67 418.513
121 0 202.588 12.0194 2435 80.1491 1323.52 416.223
122 0 210.858 12.525 2641 80.8118 1323.73 403.053
123 0 216.327 12.1436 2627 84.8055 1323.03 404.016
124 1 90.2046 9.92189 895 65.3006 1323.64 470.657
125 0 92.1545 10.9382 1008 64.3591 1324.4 467.359
126 0 97.2441 11.538 1122 63.533 1324.61 468.596
127 0 99.3061 11.8724 1179 63.4385 1324.09 466.599
128 0 102.333 10.5831 1083 64.2752 1323.75 465.371
129 0 107.41 11.7959 1267 62.8232 1324.03 463.555
130 0 109.199 10.9616 1197 68.5121 1323.56 461.312
131 0 113.555 11.0519 1255 66.7124 1323.28 459.362
132 1 62.5514 9.3523 585 61.6821 1323.59 484.405
133 0 65.6586 11.3466 745 59.4389 1324.44 481.2
134 0 67.6231 11.5493 781 59.1447 1324.71 481.131
135 0 69.211 11.6889 809 59.9258 1324.31 484.693
136 0 67.3118 10.3845 699 61.0143 1323.88 484.634
137 0 70.2268 10.0531 706 61.5467 1323.61 485.357
138 0 73.3844 10.4791 769 61.3576 1323.13 481.537
139 0 75.2417 10.5527 794 62.762 1322.54 481.829
140 0 78.2775 11.0888 868 62.674 1323.39 480.112
141 0 79.2887 11.2122 889 64.0686 1322.51 479.835
142 0 85.1463 12.0499 1026 66.5565 1322.42 477.43
143 0 87.2042 12.2471 1068 69.1189 1323.19 476.478
144 0 87.2126 12.2459 1068 71.0403 1322.96 473.219
145 0 90.3978 11.6706 1055 72.7545 1323.36 472.629
146 0 91.3093 11.4337 1044 74.3333 1322.67 471.415
147 0 94.5399 12.1853 1152 74.0703 1323.46 469.376
148 0 100.631 13.3656 1345 71.081 1323.07 467.787
149 0 101.649 12.4842 1269 74.4413 1323.44 462.329
150 0 102.647 12.3335 1266 75.4921 1323.28 461.407
151 0 107.766 12.1931 1314 75.7633 1323.67 458.295
152 0 109.724 12.1669 1335 75.9191 1323.27 457.47
153 0 114.593 13.0985 1501 71.9434 1323.16 457.503
154 1 62.3662 10.5827 660 67.3061 1323.53 486.602
155 0 62.3714 11.0948 692 67.1647 1323.93 485.22
156 0 64.2464 10.522 676 67.8994 1323.7 485.354
157 0 66.2563 11.5461 765 66.6484 1323.71 488.629
158 0 65.3836 11.6543 762 67.2205 1323.76 486.965
159 0 70.3546 11.6979 823 66.9878 1323.66 486.269
160 0 71.3228 12.0158 857 68.9557 1323.45 484.373
161 0 73.2209 10.9805 804 70.6219 1324.08 483.956
162 0 74.2485 11.7982 876 69.5171 1323.28 480.579
163 0 75.2504 11.2292 845 72.4864 1323.17 480.095
164 0 78.227 12.1058 947 71.6346 1322.81 479.573
165 0 81.2916 11.7109 952 72.5567 1323.22 478.349
166 0 85.202 11.6312 991 73.1604 1323.13 476.327
167 0 88.3824 12.0499 1065 73.7089 1323.9 474.638
168 0 91.4894 12.0123 1099 73.9618 1323.9 474.272
169 0 94.6118 12.3663 1170 74.5675 1323.61 470.633
170 0 97.5367 12.3236 1202 74.8428 1322.81 464.862
171 0 101.741 12.6006 1282 74.0725 1323.12 461.296
172 0 103.658 12.1072 1255 75.3084 1323.31 461.527
173 0 104.613 12.0062 1256 76.1696 1323.01 458.811
174 0 111.742 12.9853 1451 72.1241 1323.26 457.675
175 0 113.511 11.1531 1266 76.1272 1322.7 456.657
176 0 116.749 11.8887 1388 75.0252 1322.35 456.875
177 0 119.816 11.2172 1344 75.7708 1322.82 454.364
178 0 121.586 12.5097 1521 75.6535 1322.51 451.071
179 0 125.519 11.6715 1465 76.8027 1322.8 449.025
180 0 129.565 11.9322 1546 77.0259 1322.62 447.142
181 0 133.648 12.2037 1631 76.7051 1322.76 443.63
182 0 138.621 11.3258 1570 79.3516 1322.7 443.944
183 0 142.556 11.7498 1675 79.2484 1322.17 438.831
184 0 145.471 11.5968 1687 79.8263 1322.6 439.099
185 0 151.705 11.8849 1803 79.5496 1323.23 436.841
186 1 79.4572 11.6289 924 75.4102 1324.28 473.293
187 0 81.4482 11.5042 937 71.3138 1324.23 473.453
188 0 82.4736 11.6158 958 77.4071 1324.22 472.877
189 0 87.3596 11.1951 978 75.7965 1324.26 473.735
190 0 87.2447 10.9118 952 69.4013 1323.53 472.411
191 0 89.2212 10.827 966 70.9596 1322.8 470.72
192 0 94.2106 11.6654 1099 70.9172 1322.29 471.365
193 0 95.3067 11.4263 1089 71.9339 1322.32 467.814
194 0 97.253 11.2079 1090 74.6596 1322.24 466.834
195 0 101.32 10.9258 1107 75.7687 1322.37 465.494
196 0 105.278 11.9683 1260 74.9524 1322.85 461.912
197 0 108.223 11.7535 1272 76.5535 1321.96 461.642
198 0 112.325 11.805 1326 77.1938 1322.17 459.512
199 0 114.159 11.7555 1342 77.2161 1322.46 458.738
200 1 62.0831 9.68057 601 69.2945 1322.52 485.815
201 0 64.4282 10.6009 683 67.4846 1322.75 484.772
202 0 64.3884 10.9958 708 85.4251 1323.32 484.332
203 0 67.252 10.7506 723 85.8658 1323.11 483.788
204 0 68.3119 9.8226 671 86.9806 1323.3 484.258
205 0 72.2386 11.0883 801 83.4682 1323.36 481.449
206 0 74.2081 10.3493 768 86.4661 1323.43 479.953
207 0 76.3114 10.2737 784 85.2462 1323.23 479.469
208 0 80.2687 11.0005 883 82.8686 1322.83 479.418
209 0 81.2625 10.6814 868 83.7753 1322.97 477.161
210 0 85.3177 10.8067 922 84.9306 1322.19 473.77
211 1 44.0931 9.70673 428 81.1752 1323.99 496.848
212 0 47.0726 10.8556 511 79.2387 1324.46 495.25
213 0 46.0887 10.3713 478 80.9623 1324.08 496.096
214 0 49.194 10.733 528 78.2689 1321.84 491.981
215 0 49.1052 10.5895 520 79.2212 1322.18 492.683
216 0 46.1397 10.0998 466 85.5322 1323.99 495.17
217 0 49.1646 10.292 506 84.3004 1323.33 494.184
218 0 52.1473 10.5279 549 82.6958 1322.83 493.82
219 0 53.2353 10.0309 534 85.3427 1323.35 493.596
220 0 54.2464 10.397 564 84.7979 1322.87 490.686
221 0 54.3042 10.3307 561 86.0481 1322.67 491.289
222 0 58.3594 11.4292 667 87.6522 1323.14 490.088
223 0 59.3452 10.9192 648 87.3843 1322.92 489.812
224 0 61.3363 11.7549 721 86.7476 1323.43 488.533
225 0 61.4371 11.1984 688 89.1919 1323.75 486.86
226 0 63.311 11.2145 710 88.4 1323.42 485.83
227 0 65.3324 11.1736 730 89.7342 1322.89 487.116
228 0 68.3146 11.5641 790 88.8127 1322.89 486.57
229 0 68.1776 11.3674 775 90.8671 1322.91 485.901
230 0 71.2711 11.9123 849 91.4488 1322.88 484.356
231 0 72.3778 11.4814 831 92.9495 1322.92 481.502
232 0 76.3011 12.1754 929 90.8267 1322.29 481.602
233 0 78.311 12.1439 951 91.0862 1322.82 480.558
234 0 80.2832 11.858 952 93.563 1322.52 477.233
235 0 81.2868 12.0192 977 94.3347 1322.46 475.705
236 0 84.1742 11.2386 946 89.908 1322.18 477.692
237 0 86.2365 11.5032 992 91.0081 1321.89 475.174
238 0 91.1741 11.4616 1045 90.6249 1322.6 474.675
239 0 91.204 11.6991 1067 92.0778 1321.85 472.495
240 1 49.0449 10.5414 517 89.2437 1323.32 495.35
241 0 51.0303 11.1894 571 88.3835 1322.89 496.032
242 0 51.0164 11.5845 591 87.1151 1320.36 494.223
243 0 54.1044 11.9953 649 86.5131 1320.55 494.27
244 0 55.0503 11.4077 628 86.9857 1320.71 493.761
245 0 54.1521 10.9322 592 88.9054 1323.12 493.096
246 0 53.1785 10.775 573 94.5829 1323.71 494.639
247 0 55.1519 11.2961 623 91.8716 1323.18 492.029
248 0 56.1984 11.1035 624 94.3301 1323.03 489.431
249 0 58.1405 11.7474 683 92.6969 1322.89 489.395
250 0 59.1845 12.0809 715 93.5357 1322.49 489.748
251 0 61.2901 11.5679 709 94.5035 1322.88 490.175
252 0 62.2882 12.1692 758 92.4195 1323 488.646
253 0 62.1737 11.87 738 96.71 1322.63 487.255
254 0 66.297 12.2027 809 93.6564 1322.34 486.068
255 0 67.2959 11.7986 794 94.7846 1322.42 485.553
256 0 68.2692 11.4254 780 97.4872 1322.51 484.999
257 0 72.4485 12.5054 906 94.0883 1322.85 482.97
258 0 73.3546 11.8329 868 96.576 1322.72 482.202
259 0 76.3899 12.3184 941 95.8268 1322.75 481.202
260 0 78.4004 12.5254 982 95.4094 1322.22 477.797
261 0 82.3697 13.1723 1085 92.6433 1322 477.662
262 0 82.4091 12.8748 1061 94.2724 1322.17 475.727
263 0 86.4811 11.8986 1029 95.8115 1321.04 475.496
264 1 45.2566 10.7388 486 97.6255 1321.15 493.891
265 0 47.2565 11.2789 533 98.5629 1322.14 492.523
266 0 47.0394 11.7348 552 83.442 1320.56 495.332
267 0 48.2724 11.8494 572 84.8269 1320.7 488.222
268 0 50.1864 12.8322 644 83.3043 1320.1 489.668
269 0 52.0472 12.3926 645 86.2791 1320.92 492.212
270 0 51.0663 12.6894 648 88.0941 1320.19 490.801
271 0 52.0428 13.047 679 85.7658 1320.14 491.161
272 0 53.0352 12.2183 648 87.8148 1319.89 491.704
273 0 53.0352 12.1429 644 139.194 1319.86 491.686
274 0 56.085 12.7485 715 86.158 1320.11 490.799
275 0 58.0406 12.3879 719 86.9764 1320.49 490.448
276 0 58.095 12.4796 725 85.8579 1320.24 489.226
277 0 60.0299 12.2772 737 85.9512 1320.19 489.019
278 0 62.0856 12.064 749 86.0454 1320.43 486.96
279 0 63.0353 12.374 780 87.5718 1320.27 486.181
280 0 67.0867 12.7149 853 85.9566 1320.47 485.587
281 0 67.0997 12.4442 835 87.3401 1320.68 484.128
282 0 69.0841 13.1 905 85.0851 1320.42 483.765
283 0 71.0223 12.137 862 89.5197 1320.24 482.203
284 0 74.0636 13.1374 973 86.5488 1320.25 480.74
285 0 77.0709 12.5858 970 87.0979 1320.38 479.338
286 0 77.213 12.3295 952 88.5609 1321.2 478.912
287 0 80.123 13.2921 1065 85.969 1320.59 476.977
288 0 81.1843 12.5271 1017 89.1239 1321.15 477.7
289 0 84.157 12.3935 1043 89.0757 1321.31 475.3
290 0 88.1559 13.0791 1153 89.1943 1321.58 470.633
291 0 89.2203 12.9455 1155 90.1506 1321.73 471.126
292 0 93.2467 13.5447 1263 90.4038 1321.42 469.509
293 0 96.2731 13.6175 1311 91.4844 1321.45 468.727
294 0 97.3037 12.98 1263 93.3547 1320.42 467.093
295 1 51.0231 11.6222 593 91.3187 1321.93 492.71
296 0 52.214 11.4337 597 95.7219 1320.45 491.154
297 0 52.214 11.4912 600 134.03 1318.46 491.172
298 0 53.1213 12.1797 647 88.0278 1319.87 488.805
299 0 56.2586 11.9448 672 90.7679 1322.56 487.699
300 0 58.0493 12.4894 725 93.6993 1322.76 487.434
301 0 61.0797 12.2136 746 93.559 1322.84 485.664
302 0 62.0872 11.967 743 93.9623 1322.25 486.577
303 0 64.0957 11.592 743 94.1184 1322.56 485.942
304 0 67.0481 12.7073 852 90.3486 1322.54 485.284
305 0 68.1011 12.2024 831 92.136 1321.79 482.673
306 0 70.0429 12.4923 875 91.2629 1322.16 482.672
307 0 71.0912 12.7301 905 91.8608 1321.95 481.783
308 0 74.1444 13.8918 1030 88.5981 1321.73 482.555
309 0 77.1108 13.6557 1053 88.7085 1321.71 481.974
310 0 80.0796 14.4981 1161 87.8045 1321.71 479.895
311 0 81.1811 13.4391 1091 90.7809 1322.35 479.101
312 0 84.0532 13.9198 1170 90.9641 1321.98 478.895
313 0 87.1642 14.1113 1230 91.4959 1321.89 477.505
314 0 86.1134 13.9351 1200 93.2083 1321.67 476.656
315 0 91.186 14.3662 1310 91.229 1321.41 474.336
316 0 93.0814 14.1274 1315 92.7148 1320.62 473.364
317 0 95.126 13.8027 1313 92.0556 1321.33 473.042
318 0 97.0711 14.5254 1410 90.456 1319.97 472.234
319 0 101.127 14.6053 1477 89.4557 1320.21 470.947
320 0 102.069 13.9709 1426 91.2644 1320.38 470.539
321 0 105.065 14.1341 1485 90.4256 1320.5 468.025
322 0 106.085 14.0453 1490 82.2081 1320.05 469.431
323 0 112.137 13.7778 1545 81.732 1319.53 467.789
324 1 60.0275 11.6946 702 82.6296 1319.86 494.094
325 0 62.0893 12.8041 795 81.1723 1319.35 493.24
326 0 63.0875 13.2197 834 79.7242 1319.62 491.338
327 0 61.077 12.4761 762 81.8084 1320.34 492.68
328 0 65.0801 12.1389 790 82.3177 1320.11 492.475
329 0 67.0326 12.7997 858 82.6119 1320.42 491.969
330 0 69.0605 11.9026 822 83.354 1319.96 492.286
331 0 67.0594 11.5569 775 151.73 1319.86 491.454
332 0 74.1179 13.0468 967 82.6163 1320.7 485.455
333 0 76.0904 12.8663 979 85.0838 1320.46 484.634
334 0 77.1646 11.9355 921 87.6102 1319.99 483.257
335 0 80.1409 12.7151 1019 85.6418 1319.87 482.869
336 0 82.0855 12.8768 1057 85.2507 1320.03 481.62
337 0 86.0775 12.9999 1119 85.8052 1319.96 479.819
338 0 85.0559 13.015 1107 86.2836 1319.93 478.526
339 0 89.1362 13.1035 1168 87.3827 1319.79 477.032
340 0 94.1153 13.0691 1230 85.8276 1319.33 475.188
341 0 96.103 13.5584 1303 85.3031 1318.47 472.292
342 0 98.1201 13.2185 1297 96.7833 1318.79 472.634
343 0 102.099 12.6838 1295 96.3552 1318.59 470.483
344 1 53.0589 11.1009 589 88.0934 1317.95 496.793
345 0 56.1856 11.7468 660 83.7182 1317.84 493.898
346 0 57.1686 11.8072 675 84.4163 1318.11 493.08
347 0 56.0467 11.6688 654 84.078 1317.75 492.589
348 0 59.1288 12.3798 732 82.8456 1318.43 491.478
349 0 59.1458 12.055 713 83.8065 1317.91 490.332
350 0 63.1233 11.5964 732 83.2254 1318.42 490.389
351 0 64.1172 12.3992 795 81.8314 1318.42 489.652
352 0 66.2129 11.7047 775 82.4065 1317.74 486.996
353 0 68.3123 12.194 833 81.9376 1318.33 482.72
354 0 70.2499 12.726 894 80.415 1318.31 483.811
355 0 75.2481 12.4256 935 79.5241 1318.24 483.908
356 0 77.1426 12.626 974 81.0503 1317.91 482.93
357 0 78.1932 12.2901 961 82.3684 1318.3 481.605
358 0 81.2076 11.7969 958 83.3006 1317.69 479.593
359 0 83.151 12.1706 1012 84.4516 1317.84 477.532
360 0 86.269 12.5653 1084 86.9815 1317.54 476.182
361 0 90.1039 12.1859 1098 88.8224 1316.9 473.419
362 0 92.3484 12.3012 1136 87.8662 1316.92 468.703
363 0 95.2886 12.4989 1191 85.8421 1316.78 470.181
364 0 99.2781 12.1578 1207 85.6222 1317.27 467.812
365 0 102.226 12.0909 1236 86.3042 1317.66 465.988
366 0 107.282 11.5677 1241 86.054 1318.1 465.743
367 0 110.301 11.7496 1296 85.5895 1317.51 462.39
368 1 57.1633 10.6712 610 79.4656 1317.37 490.984
369 0 58.1204 10.9944 639 78.9484 1317.74 491.973
370 0 59.1245 10.4864 620 81.9758 1317.88 487.898
371 0 60.1077 11.0968 667 79.7931 1317.59 487.333
372 0 64.1287 11.399 731 79.4843 1317.46 485.818
373 0 65.1363 12.0363 784 79.3278 1318.49 487.292
374 0 66.1165 12.0394 796 79.5377 1317.87 483.896
375 0 69.2075 11.834 819 80.6716 1318.7 484.581
376 0 70.2055 12.321 865 80.1052 1317.85 483.065
377 0 72.155 11.9188 860 81.4733 1318.45 483.31
378 0 73.1462 12.1811 891 81.4501 1318.37 484.324
379 0 76.2163 11.5592 881 82.8649 1318.1 482.179
380 0 79.2192 12.5222 992 81.7601 1318.43 482.195
381 0 80.1157 12.6442 1013 83.8203 1317.92 478.845
382 0 83.0737 12.0495 1001 85.3546 1318.14 479.577
383 0 87.1969 12.833 1119 84.336 1318.28 474.976
384 0 89.2335 12.5065 1116 84.6362 1318.52 474.814
385 0 92.2309 12.7181 1173 85.5183 1318.52 473.46
386 0 96.2868 12.4939 1203 86.4805 1319.05 470.42
387 0 97.2582 12.2355 1190 85.6664 1318.05 469.455
388 0 100.29 12.6234 1266 83.2504 1319.02 467.5
389 0 103.384 11.7039 1210 84.0554 1318.72 466.117
390 0 108.322 12.6752 1373 82.6759 1318.48 462.114
391 0 111.323 12.4592 1387 82.987 1318.33 461.071
392 0 114.252 12.4725 1425 82.8786 1318.6 456.585
393 0 117.187 12.2881 1440 87.1438 1318.66 452.171
394 0 123.294 12.531 1545 86.0997 1318.63 452.209
395 0 126.197 12.6706 1599 86.6066 1319.28 451.576
396 0 130.38 13.0771 1705 86.9302 1319.38 446.444
397 0 133.325 13.0208 1736 87.1941 1318.65 445.489
398 0 136.315 13.3441 1819 87.9544 1319 444.28
399 0 141.383 13.6297 1927 87.7436 1319.41 441.552
400 0 146.264 13.4688 1970 87.9132 1319.41 438.529
401 0 150.302 13.107 1970 88.0168 1319.13 434.034
402 0 155.334 13.5643 2107 86.6227 1319 433.194
403 0 159.311 13.8471 2206 88.0023 1318.73 427.63
404 0 166.364 14.1737 2358 87.6238 1319.23 426.776
405 0 170.343 13.2556 2258 89.4265 1319.26 427.748
406 0 177.221 13.9148 2466 88.6849 1318.99 423.961
407 0 181.209 13.0181 2359 91.4896 1319.37 420.964
408 0 187.274 13.7553 2576 90.4208 1319.18 419.166
409 0 195.259 13.8534 2705 90.359 1319.27 416.906
410 0 201.184 13.6989 2756 91.6564 1319.26 407.63
411 0 206.229 13.5335 2791 92.2644 1319.25 405.556
412 0 212.253 13.597 2886 92.7938 1319 405.62
413 0 219.436 14.0679 3087 90.7538 1319.08 397.758
414 0 225.384 13.985 3152 90.9378 1318.67 397.792
415 0 236.25 14.709 3475 88.7911 1318.87 393.032
416 0 242.432 14.4329 3499 88.9697 1319 388.397
417 0 249.359 14.1684 3533 89.028 1318.88 381.827
418 0 253.585 13.179 3342 93.0248 1318.4 375.792
419 0 253.574 13.1914 3345 161.913 1317.4 375.939
420 1 222.336 8.00141 1779 93.7341 1318.61 415.533
421 0 223.28 8.46919 1891 94.964 1317.64 410.574
422 0 223.28 8.41545 1879 165.473 1316.64 411.083
423 0 226.427 13.2095 2991 91.9933 1319.48 397.513
424 0 234.446 13.8881 3256 92.4171 1318.71 395.349
425 0 244.446 13.4631 3291 94.0629 1318.24 394.584
426 0 250.366 13.7039 3431 94.4876 1317.48 384.723
427 0 258.321 13.0613 3374 95.2427 1318.05 379.6
428 1 55.0289 9.17699 505 84.8436 1317.81 483.438
429 0 58.0082 10.2744 596 80.5889 1318.33 483.995
430 0 53.0709 9.42136 500 79.936 1319.92 480.868
431 0 59.0984 10.1695 601 76.2512 1320.18 489.02
432 0 61.0472 9.73017 594 77.4512 1319.26 488.953
433 0 63.1628 10.2275 646 76.1811 1320.43 486.243
434 0 65.1002 11.0599 720 75.7667 1320.09 485.461
435 0 66.1292 10.5702 699 77.5479 1320.83 485.392
436 0 66.1292 10.5853 700 120.069 1321.82 485.45
437 0 69.1942 10.3621 717 78.583 1319.8 484.225
438 0 71.0682 9.9904 710 79.8141 1319.07 481.324
439 0 77.0709 10.8861 839 80.5459 1319.28 478.85
440 0 78.114 10.8815 850 79.4 1319.4 478.341
441 0 81.1359 11.795 957 77.8798 1319.19 477.404
442 0 85.2472 12.3758 1055 75.8171 1320.25 473.84
443 0 86.2047 11.8671 1023 77.4115 1320.18 472.658
444 0 92.1474 11.9699 1103 88.1269 1319.78 470.166
445 0 96.1914 12.1528 1169 84.6373 1319.01 470.536
446 0 99.1002 13.1685 1305 82.9632 1319.84 469.305
447 1 53.0763 10.3436 549 81.031 1318.84 491.741
448 0 54.0239 11.1247 601 79.1997 1318.98 492.574
449 0 56.1665 11.4659 644 79.8711 1321.1 489.679
450 0 58.0841 11.1218 646 74.7957 1317.63 489.372
451 0 59.0326 11.7223 692 70.7283 1317.5 489.247
452 0 60.0763 11.3356 681 73.0675 1321.43 489.515
453 0 62.1093 11.5281 716 72.3142 1321.7 491.704
454 0 62.167 11.823 735 71.7211 1321.02 489.135
455 0 65.0649 11.5731 753 73.085 1320.28 487.219
456 0 68.0705 11.1649 760 83.5763 1321.46 485.58
457 0 69.0483 11.4268 789 83.3612 1321.95 484.682
458 0 73.0971 11.6968 855 81.8222 1321.41 483.081
459 0 74.0824 11.8787 880 81.5864 1321.05 481.619
460 0 78.1011 12.5734 982 78.8951 1321.19 481.335
461 0 77.1036 12.4378 959 79.658 1321.91 479.436
462 0 81.0895 12.1471 985 79.7208 1322.01 478.676
463 0 82.0942 11.9253 979 81.0398 1321.83 476.705
464 0 84.1249 12.636 1063 79.9755 1321.92 476.801
465 0 86.1054 12.8563 1107 80.2177 1321.17 475.219
466 0 89.0803 13.3026 1185 80.7485 1321.65 474.451
467 0 92.1351 13.5887 1252 80.4345 1321.52 471.893
468 0 94.0909 12.7111 1196 82.5686 1321.23 472.104
469 0 96.076 13.2395 1272 81.125 1320.86 470.836
470 0 99.1254 12.6708 1256 83.5454 1321.59 468.843
471 0 101.124 12.7862 1293 82.9157 1321.33 469.614
472 0 104.094 12.3734 1288 84.5644 1320.84 466.368
473 0 108.156 13.2217 1430 81.1385 1320.1 466.65
474 0 111.184 12.5018 1390 83.0482 1320 462.828
475 0 112.187 12.3276 1383 81.7223 1319.94 460.24
476 0 115.207 13.0374 1502 79.0373 1319.88 460.328
477 0 119.208 13.0276 1553 78.7193 1319.59 461.283
478 0 120.22 12.8265 1542 79.4306 1319.39 458.46
479 0 124.266 12.5135 1555 79.2341 1320.01 457.597
480 0 127.285 13.1437 1673 78.0012 1319.07 454.329
481 0 133.286 12.4919 1665 78.1003 1318.68 454.043
482 0 134.416 12.0893 1625 78.6049 1318.69 450.406
483 0 140.214 11.9603 1677 79.3936 1318.99 446.076
484 0 142.299 12.9165 1838 77.4336 1318.75 446.466
485 0 147.29 11.7727 1734 76.1315 1317.9 444.251
486 0 153.297 12.3747 1897 76.2203 1317.79 440.454
487 0 156.395 12.3405 1930 76.8472 1317.5 438.238
488 0 161.378 11.6993 1888 75.8374 1318.34 437.593
489 0 165.363 11.5201 1905 76.6945 1318.46 436.46
490 0 170.351 11.6289 1981 76.4321 1318.55 434.747
491 0 177.525 11.6378 2066 77.2527 1317.85 427.788
492 1 116.323 10.8233 1259 72.5798 1318.73 462.32
493 0 121.288 11.9385 1448 71.7693 1318.67 461.257
494 0 122.357 11.3194 1385 73.5097 1318.84 456.96
495 0 125.265 11.9746 1500 72.2007 1317.82 454.375
496 0 129.355 12.4851 1615 72.4508 1317.37 451.518
497 0 133.445 12.4396 1660 71.5108 1317.13 451.637
498 0 138.37 12.2209 1691 72.6653 1318.09 448.543
499 0 139.328 12.9191 1800 72.7178 1318.45 446.104
500 0 143.401 12.5871 1805 74.1036 1318.18 442.942
501 0 149.476 12.711 1900 78.1253 1317.72 442.276
502 0 153.387 11.8133 1812 80.4614 1317.73 439.575
503 1 75.2915 10.5722 796 73.6457 1318.07 481.842
504 0 75.3609 10.5625 796 73.7337 1318.38 478.27
505 0 79.2935 10.5936 840 70.5083 1317.81 476.47
506 0 82.3989 10.8618 895 70.8659 1317.99 476.087
507 0 84.3156 12.0855 1019 69.4495 1317.47 474.243
508 0 84.2954 11.6851 985 71.9249 1318.1 474.187
509 0 88.2796 11.5655 1021 71.716 1318.09 473.147
510 0 90.351 11.4443 1034 72.087 1318.33 471.562
511 0 90.5429 11.177 1012 72.6789 1318.3 470.967
512 0 95.4977 11.5605 1104 72.9013 1318.48 462.95
513 0 97.4105 11.3027 1101 72.2162 1317.28 462.521
514 0 100.425 11.78 1183 71.1716 1316.83 465.123
515 0 102.541 10.1325 1039 73.2714 1317.87 468.221
516 0 105.404 11.1666 1177 72.2948 1317.6 466.209
517 0 107.628 10.3969 1119 74.109 1317.45 463.349
518 1 58.3173 10.3228 602 69.7824 1318.5 492.347
519 0 60.2326 11.0903 668 67.4955 1318.32 490.004
520 0 61.2499 11.6082 711 66.616 1317.94 487.176
521 0 63.2043 11.5973 733 64.3029 1315.93 488.76
522 0 63.1421 10.801 682 66.8871 1317.08 491.413
523 0 66.1864 11.9813 793 64.1122 1316.9 490.41
524 0 67.1795 11.4321 768 63.7682 1317.04 490.471
525 0 65.1879 9.7871 638 68.3495 1317.78 490.092
526 0 68.2228 9.13185 623 69.1188 1317.98 488.907
527 0 68.2651 10.2834 702 67.8846 1317.89 489.319
528 0 73.3075 10.0808 739 69.433 1318.06 486.885
529 0 75.3392 10.1143 762 70.5066 1318.75 485.175
530 0 77.1729 9.87394 762 71.3018 1318.95 480.415
531 1 44.0713 10.1653 448 68.4732 1318.63 501.96
532 0 44.0301 10.0159 441 70.0771 1318.63 501.649
533 0 46.0615 10.7899 497 69.0382 1318.79 500.161
534 0 50.1412 11.7269 588 79.4371 1319.56 497.912
535 0 49.0726 11.4117 560 68.8786 1319.47 497.802
536 0 52.0856 11.6731 608 77.7253 1320.49 498.357
537 0 54.1363 12.0991 655 76.4412 1320.11 496.556
538 0 54.058 11.8206 639 77.543 1319.97 495.279
539 0 57.0332 12.6067 719 74.1154 1320.06 496.75
540 0 57.0757 13.0178 743 73.5801 1319.81 495.121
541 0 58.0864 11.9994 697 76.6714 1319.54 495.387
542 0 59.0906 12.5739 743 75.3028 1319.9 494.114
543 0 61.1097 13.0421 797 76.4316 1319.75 492.691
544 0 62.1214 12.057 749 79.4446 1319.39 492.81
545 0 63.1032 12.3607 780 77.9282 1319.16 492.967
546 0 66.1067 12.9336 855 76.3661 1319.68 491.773
547 0 67.0877 12.9532 869 77.8493 1319.53 491.035
548 0 68.1239 12.5947 858 79.6084 1319.83 489.394
549 0 71.1017 12.8689 915 78.9224 1319.44 487.992
550 0 72.1114 12.7996 923 79.6609 1319.8 486.307
551 0 75.0697 12.8148 962 79.289 1319.41 486.18
552 0 77.0902 13.1404 1013 79.1451 1319.32 485.372
553 0 79.0825 13.4164 1061 78.8907 1318.45 482.708
554 0 81.0519 12.9917 1053 80.6477 1318.74 482.437
555 0 82.2017 13.4425 1105 79.0362 1318.7 482.78
556 0 86.1114 13.2503 1141 79.4628 1318.78 480.424
557 0 87.2159 12.4404 1085 82.1217 1319.02 478.648
558 0 88.1515 13.0571 1151 82.6325 1318.59 478.939
559 0 93.139 13.249 1234 80.6961 1318.52 478.459
560 0 95.1403 13.3067 1266 82.1493 1318.95 478.133
561 0 97.0696 13.7633 1336 81.8391 1318.56 475.657
562 0 95.103 11.9765 1139 83.9535 1319.05 477.871
563 0 99.1868 12.1286 1203 82.7282 1317.97 476.198
564 0 99.1611 12.1015 1200 83.7892 1317.91 476.778
565 0 102.154 11.7764 1203 85.7224 1317.85 472.95
566 0 106.13 11.3823 1208 85.3228 1317.98 474.55
567 0 107.142 11.8628 1271 87.6397 1318.22 470.463
568 0 112.152 12.0372 1350 87.3141 1318.71 468.39
569 0 113.158 12.2572 1387 88.1081 1318.48 467.735
570 0 119.186 12.6693 1510 87.5728 1318.44 466.369
571 0 121.169 12.4785 1512 87.4345 1318.16 464.129
572 0 127.222 12.7808 1626 86.4772 1317.35 461.775
573 0 131.262 12.7759 1677 88.158 1317.65 458.897
574 0 133.248 13.0133 1734 91.5254 1317.65 459.024
575 0 137.217 13.322 1828 90.7139 1317.65 454.806
576 0 137.303 11.9298 1638 92.348 1316.63 451.054
577 0 141.297 12.2013 1724 91.0452 1317.01 448.375
578 0 146.32 12.3633 1809 94.0884 1316.43 443.237
579 0 150.315 12.3807 1861 93.0064 1316.4 441.999
580 0 150.302 12.3751 1860 154.333 1316.39 442.083
581 0 160.368 11.2803 1809 96.6633 1315.89 432.443
582 1 68.0744 9.78342 666 81.4835 1318.09 480.596
583 0 72.0466 10.7431 774 76.4406 1317.82 478.676
584 0 75.088 11.2535 845 82.2817 1318.55 477.806
585 0 74.1404 10.1024 749 76.5648 1317.31 479.459
586 0 78.1428 10.0457 785 74.8102 1317.26 479.978
587 0 79.1543 10.1195 801 75.8252 1317.23 477.659
588 0 81.1177 10.5279 854 76.7717 1316.44 477.1
589 0 83.0876 10.1339 842 78.399 1316.59 476.35
590 0 88.173 10.9104 962 76.1985 1316.91 474.504
591 0 89.1033 10.4261 929 76.7352 1316.52 469.155
592 0 91.1549 10.3231 941 77.5165 1316.69 469.309
593 0 94.0907 10.9363 1029 77.138 1315.85 468.319
594 0 99.1369 10.6318 1054 77.4858 1315.46 466.796
595 0 103.093 10.3208 1064 78.4483 1315.92 465.515
596 0 103.088 10.3892 1071 111.101 1316.93 465.57
597 1 114.091 11.4996 1312 87.4726 1315 470.626
598 1 48.0547 10.7794 518 89.7317 1315.48 498.284
599 0 50.0508 10.9888 550 87.7345 1314.48 498.107
600 0 53.0239 11.4854 609 88.5435 1317.94 498.368
601 0 55.1094 11.8673 654 88.1391 1316.7 497.651
602 0 57.1502 12.4934 714 87.5602 1316.93 496.276
603 0 60.1167 12.4591 749 88.8278 1317.41 495.989
604 0 60.0306 12.2271 734 89.673 1317.27 494.77
605 0 64.0968 11.9195 764 88.805 1317.53 494.852
606 0 65.0803 11.893 774 88.7571 1317.5 493.503
607 0 68.1369 12.607 859 83.2771 1317.73 491.8
608 0 63.1715 11.2076 708 82.3291 1317.58 493.828
609 0 65.2162 11.7609 767 81.4941 1317.72 491.747
610 0 68.1789 11.7485 801 80.4931 1316.66 490.395
611 0 70.2151 10.7669 756 77.1733 1317.44 491.683
612 0 74.2346 11.2077 832 77.0865 1317.38 489.639
613 0 75.3369 10.3535 780 77.8141 1317.19 490.069
614 0 79.1786 11.6446 922 76.6833 1316.89 485.291
615 0 83.2749 11.5161 959 76.9135 1316.5 485.628
616 1 44.0418 11.421 503 78.8827 1317.26 504.519
617 0 45.0723 11.293 509 83.664 1317.57 503.601
618 0 46.0841 11.5875 534 85.5449 1317.47 501.676
619 0 48.0133 11.7676 565 84.6619 1318.36 501.288
620 0 49.0317 12.2574 601 84.3611 1318.44 499.205
621 0 49.085 12.2848 603 85.597 1317.77 498.153
622 0 50.0198 11.9952 600 85.5233 1318.16 499.327
623 0 52.1018 12.5907 656 84.6692 1317.9 499.12
624 0 52.0952 11.5366 601 88.2396 1317.89 497.834
625 0 55.171 12.3797 683 85.9239 1317.96 497.102
626 0 55.0676 12.748 702 87.0755 1317.78 495.103
627 0 56.0734 12.7155 713 88.0407 1317.74 494.255
628 0 59.0519 13.3273 787 86.5413 1317.6 494.324
629 0 60.0419 13.0409 783 86.4483 1317.17 494.716
630 0 60.1167 12.6254 759 88.5178 1318.36 493.05
631 0 62.0815 12.7574 792 88.9508 1318.68 491.739
632 0 63.1325 12.8143 809 89.5773 1318.29 491.366
633 0 66.0276 12.4493 822 88.6217 1317.59 490.737
634 0 69.0338 12.617 871 89.2113 1317.99 488.271
635 0 69.0853 12.8537 888 90.7432 1317.68 488.809
636 0 72.0569 12.0599 869 92.7273 1318.3 486.437
637 0 75.1151 13.3528 1003 89.65 1318.54 486.616
638 0 78.0347 13.3659 1043 89.069 1318.87 486.882
639 0 80.149 13.7619 1103 88.2339 1318.67 485.63
640 0 82.1107 13.4818 1107 89.4968 1318.65 484.245
641 0 85.041 13.9933 1190 88.8034 1318.88 483.639
642 0 86.0447 13.6092 1171 90.1085 1318.42 482.651
643 0 89.0753 14.0331 1250 87.5808 1319.68 479.326
644 0 91.1061 12.9519 1180 90.9525 1317.39 478.484
645 0 95.1507 13.1371 1250 90.7832 1317.71 475.716
646 0 96.1294 13.3258 1281 90.861 1317 474.763
647 0 100.173 13.5665 1359 90.0066 1317.21 474.19
648 0 103.156 13.3293 1375 91.8102 1317.33 472.005
649 0 105.111 13.6237 1432 90.6285 1317.64 469.244
650 0 108.25 13.5428 1466 93.0246 1317.49 467.482
651 0 113.206 14.3191 1621 90.8951 1317.44 466.986
652 1 61.0328 12.1082 739 87.8336 1316.9 492.403
653 0 64.0553 12.4268 796 89.2412 1317.36 489.994
654 0 65.1482 12.4946 814 90.2924 1317.39 489
655 0 68.1267 13.24 902 86.0421 1317.11 489.319
656 0 71.1148 13.1759 937 84.206 1316.82 487.483
657 0 73.0574 13.7016 1001 82.7213 1317.16 485.858
658 0 74.0851 13.2145 979 83.621 1317.56 483.48
659 0 77.1135 13.318 1027 83.8121 1317.53 483.597
660 0 81.0872 13.3437 1082 82.2126 1317.91 481.64
661 0 83.0678 13.5793 1128 82.9025 1317.11 481.397
662 0 84.2647 13.6 1146 84.0044 1318.47 479.005
663 0 89.0624 13.6983 1220 94.1115 1319.81 478.367
664 0 91.1368 13.178 1201 95.1257 1319.32 477.211
665 0 95.0677 13.8428 1316 92.3412 1318.94 475.951
666 0 96.1433 13.6879 1316 95.9871 1318.55 474.055
667 0 99.2239 13.7366 1363 86.8628 1317.86 472.62
668 0 102.149 13.1866 1347 87.8998 1317.06 470.667
669 0 106.139 13.52 1435 88.7317 1317.89 468.28
670 0 106.281 12.7304 1353 91.4427 1317.39 467.237
671 0 111.185 13.527 1504 92.1011 1317.93 464.081
672 0 116.318 13.2912 1546 91.304 1319.55 464.878
673 0 119.358 12.9192 1542 92.9209 1319.58 462.7
674 1 60.236 12.9657 781 89.5275 1319.9 490.496
675 0 63.1551 13.8073 872 86.3922 1319.01 489.2
676 0 65.241 13.9636 911 84.0307 1318.7 488.675
677 0 67.211 13.8965 934 83.5557 1319.26 486.859
678 0 68.1627 12.9396 882 83.4989 1319.01 485.4
679 0 72.1973 13.8648 1001 83.8442 1319.25 484.97
680 0 73.1712 13.6119 996 85.2922 1318.62 484.692
681 0 77.1533 13.9981 1080 84.9306 1319.01 482.043
682 0 81.2514 14.3505 1166 85.94 1318.11 481.905
683 0 82.168 14.0322 1153 87.7164 1318.98 481.792
684 0 85.1891 13.875 1182 88.3105 1319.27 480.472
685 0 88.2698 13.9459 1231 87.2673 1319.1 480.326
686 0 91.1712 14.3028 1304 89.5107 1318.38 477.298
687 0 93.1903 14.1538 1319 90.9575 1318.67 477.562
688 0 96.1821 14.1918 1365 91.2615 1318.95 474.536
689 0 96.1127 13.7131 1318 94.0493 1319.18 474.37
690 0 102.269 14.3837 1471 91.4738 1318.86 473.143
691 0 105.163 14.6725 1543 91.4251 1318.53 471.5
692 0 108.13 14.0387 1518 92.3577 1319.38 469.527
693 0 113.274 14.5664 1650 99.88 1319.11 468.038
694 0 115.225 13.9466 1607 103.089 1319.43 465.709
695 1 58.1671 11.4841 668 94.0778 1319.2 496.783
696 0 59.2076 11.8059 699 91.1559 1319.25 495.169
697 0 59.2719 12.721 754 90.2042 1319.63 494.168
698 0 61.2209 12.3324 755 90.5735 1319.18 493.803
699 0 64.1368 13.2062 847 90.0543 1319.03 492.607
700 0 65.1285 13.3736 871 90.0884 1317.7 491.382
701 0 68.0588 12.9447 881 91.2577 1317.85 489.69
702 0 70.0928 13.3537 936 89.5897 1318 489.701
703 0 73.1622 13.5999 995 89.202 1318.2 485.569
704 0 76.0957 13.1151 998 90.0291 1317.2 487.04
705 0 79.1069 13.526 1070 88.4449 1317.7 486.385
706 0 82.083 13.462 1105 91.4778 1316.98 483.89
707 0 83.0953 13.1415 1092 93.3636 1316.77 481.453
708 0 86.0922 13.5204 1164 94.1701 1317.96 481.408
709 0 88.0701 13.6823 1205 92.0465 1316.62 481.696
710 0 90.053 13.703 1234 95.4214 1317.85 480.051
711 0 93.0987 14.0174 1305 96.7448 1318.93 479.574
712 0 98.1173 13.9629 1370 96.6051 1318.51 477.015
713 0 101.181 13.6488 1381 98.7415 1318.56 474.87
714 0 104.205 13.982 1457 98.8607 1317.62 473.25
715 0 107.142 13.5708 1454 98.6169 1318.33 471.021
716 0 109.158 13.8332 1510 98.4126 1318.43 470.291
717 1 59.1197 11.3329 670 97.0821 1318.87 494.928
718 0 58.0649 10.5916 615 89.1089 1317.41 491.242
719 0 59.1187 11.3162 669 87.5157 1316.87 490.74
720 0 64.0771 12.1416 778 86.7956 1317.09 492.653
721 0 65.1365 12.2512 798 86.8296 1316.69 492.313
722 0 68.1052 12.7009 865 85.5757 1316.9 490.892
723 0 67.1189 12.1873 818 89.3178 1316.79 492.895
724 0 70.198 12.1513 853 89.8159 1316.75 492.304
725 0 71.1115 11.9953 853 92.7315 1316.75 492.182
726 0 74.2159 12.558 932 92.1942 1316.22 491.347
727 0 76.1645 12.0003 914 95.9114 1316.4 488.484
728 0 77.2602 11.7784 910 95.1648 1316.4 489.481
729 0 80.2826 13.0663 1049 93.8494 1316.33 485.632
730 0 83.3224 12.3976 1033 94.7832 1316.78 485.964
731 0 87.2991 12.188 1064 94.4981 1316.64 484.661
732 0 90.2759 12.7498 1151 94.384 1316.79 482.433
733 0 94.2548 12.9012 1216 92.713 1316.41 481.556
734 0 95.176 12.6502 1204 94.0864 1317.05 479.089
735 0 97.2076 12.7356 1238 95.2714 1316.81 475.514
736 0 102.223 13.0694 1336 94.6916 1317.17 472.659
737 0 105.233 12.8667 1354 94.0532 1316.54 473.098
738 0 109.296 13.5595 1482 92.9555 1316.96 471.231
739 0 109.131 12.5904 1374 95.0058 1317.32 471.39
740 1 60.2095 12.0745 727 91.8226 1317.92 496.646
741 0 63.275 13.4018 848 96.3361 1317.73 493.974
742 0 62.2327 11.8105 735 92.4925 1317.43 494.478
743 0 64.2734 12.8202 824 88.4442 1316.88 494.267
744 0 66.2433 11.9257 790 89.138 1316.84 493.515
745 0 69.2203 12.323 853 88.6788 1317.43 491.342
746 0 71.2992 13.2821 947 87.0327 1318.02 489.612
747 0 73.2506 12.2866 900 89.1367 1318.42 489.874
748 0 74.2202 12.1665 903 92.5858 1317.96 487.328
749 0 79.2363 13.4913 1069 89.3592 1317.56 486.08
750 0 79.2099 12.4353 985 95.4954 1317.95 482.785
751 0 84.2146 12.005 1011 96.5737 1318.09 480.384
752 0 88.2391 12.4435 1098 94.4654 1318.22 480.734
753 0 88.1297 11.8121 1041 95.6878 1317.63 479.421
754 1 47.0656 10.411 490 88.1755 1317.55 500.478
755 0 48.193 11.6199 560 85.3571 1318.58 499.286
756 0 50.4636 12.0087 606 87.3944 1318.95 495.144
757 0 50.4087 12.2598 618 88.2298 1318.85 492.142
758 0 52.3396 11.4445 599 86.5826 1319.61 496.237
759 0 54.2349 11.819 641 86.4431 1319.28 495.036
760 0 57.4094 11.897 683 84.0483 1319.73 494.864
761 0 58.2599 11.9465 696 84.3103 1319.16 493.425
762 0 60.2543 11.3187 682 85.088 1319.28 491.751
763 0 61.2753 11.4239 700 85.7614 1318.47 492.284
764 0 64.3919 11.694 753 83.9216 1318.72 490.22
765 0 65.2731 12.0724 788 84.1599 1318.35 488.834
766 0 68.3227 12.3239 842 81.8135 1317.81 487.698
767 0 68.2951 11.6553 796 83.9083 1317.35 485.768
768 0 70.1253 11.6078 814 85.5749 1317.38 483.974
769 0 72.2265 11.1593 806 85.036 1317.21 481.607
770 0 75.0783 11.8809 892 83.4159 1317.65 479.748
771 0 75.1598 11.562 869 84.229 1317.23 479.931
772 0 77.1379 11.5637 892 84.1435 1317.54 477.878
773 0 81.1397 11.511 934 84.3009 1317.7 476.452
774 0 83.213 11.9212 992 84.0585 1317.45 474.634
775 0 87.1304 11.9476 1041 86.0451 1316.67 469.563
776 0 90.0903 11.4552 1032 89.7568 1317.73 468.805
777 0 92.1124 12.235 1127 86.9894 1317.45 468.339
778 0 94.1663 11.9151 1122 86.7246 1317.34 469.533
779 0 97.1641 11.9797 1164 88.1065 1317.48 467.35
780 0 101.202 12.4405 1259 89.3773 1317.98 464.708
781 0 103.316 12.6989 1312 89.0305 1318.03 464.015
782 0 107.298 12.9173 1386 89.9466 1317.86 460.674
783 0 111.285 12.9128 1437 87.7279 1318.07 459.399
784 0 112.434 12.3628 1390 90.1532 1318.22 456.833
785 0 115.42 12.5542 1449 90.1153 1317.97 453.631
786 0 119.574 12.8958 1542 89.3606 1318.09 453.742
787 0 123.451 12.7824 1578 88.7028 1318.35 451.836
788 0 127.418 12.6513 1612 89.59 1318.56 448.262
789 0 134.592 12.7942 1722 88.3972 1318.22 447.713
790 0 138.423 12.5991 1744 88.7403 1318.5 446.007
791 0 142.568 12.6816 1808 88.6045 1318.68 444.089
792 0 148.443 12.3818 1838 88.2905 1318.3 442.821
793 0 152.459 12.646 1928 88.2329 1318.24 438.142
794 0 159.448 12.9258 2061 85.8321 1318.44 437.865
795 1 85.3881 11.723 1001 76.7812 1319.25 476.711
796 0 86.2837 11.9953 1035 77.0812 1319.27 476.457
797 0 90.2832 12.0177 1085 76.8442 1319.47 475.184
798 0 91.3585 11.9857 1095 77.7507 1319.47 473.86
799 0 91.3585 11.942 1091 128.482 1320.48 473.974
800 0 97.4135 12.6882 1236 77.0623 1319.43 470.282
801 0 99.3767 12.0753 1200 79.2275 1319.27 470.824
802 0 100.174 12.8876 1291 77.3796 1319.33 469.229
803 0 104.324 12.3557 1289 79.6385 1318.93 467.251
804 0 107.243 12.7095 1363 79.8269 1317.89 466.598
805 0 111.376 12.7765 1423 79.6486 1317.87 465.289
806 0 113.409 11.604 1316 86.2477 1318.4 464.184
807 0 118.37 12.0216 1423 85.7421 1318.61 462.963
808 0 122.405 12.6302 1546 85.2904 1319.47 460.501
809 0 127.205 12.4288 1581 86.6597 1318.73 458.424
810 1 71.1886 11.4766 817 82.7797 1319.35 487.272
811 0 73.3612 12.7861 938 86.6183 1319.68 483.545
812 0 77.3375 12.4002 959 79.5579 1317.64 483.189
813 0 80.2794 13.4032 1076 77.2351 1317.38 482.112
814 0 82.1452 12.7701 1049 80.0829 1316.93 482.131
815 0 84.1196 13.1717 1108 80.9486 1316.56 482.027
816 0 87.1807 13.1451 1146 83.7251 1319.07 480.942
817 0 89.147 12.6645 1129 84.6058 1319.17 480.366
818 0 90.1965 12.7278 1148 85.8502 1318.27 478.8
819 0 93.1268 12.9823 1209 85.6741 1318.24 478.398
820 0 97.386 13.2873 1294 84.9544 1317.98 475.979
821 0 98.3011 12.9195 1270 86.4102 1317.71 473.802
822 0 103.445 13.9011 1438 84.4096 1317.89 470.615
823 0 106.544 13.8253 1473 85.4881 1318.03 466.793
824 0 111.509 13.9361 1554 84.5586 1317.35 466.972
825 0 113.454 13.6707 1551 85.7118 1317.1 465.412
826 0 115.571 13.429 1552 86.5902 1317.2 464.716
827 0 118.572 13.7806 1634 87.7069 1317.03 462.882
828 0 121.564 13.3921 1628 89.3753 1317.1 461.757
829 1 68.1063 11.5555 787 83.9288 1318.81 491.761
830 0 70.2188 11.4072 801 85.3258 1319.06 490.15
831 0 72.2253 11.741 848 86.7205 1318.45 488.79
832 0 75.1254 11.8602 891 88.0471 1318.46 485.938
833 0 76.0444 12.2034 928 87.9784 1318.02 486.929
834 0 78.3154 12.3347 966 84.6418 1317.51 479.037
835 0 78.2692 10.7322 840 83.6929 1316.3 479.475
836 0 78.1363 11.7103 915 82.177 1316.45 478.263
837 0 78.0906 12.2934 960 84.7146 1316.36 473.758
838 0 82.1373 12.3817 1017 86.706 1316.41 472.286
839 0 82.0556 11.8091 969 82.5181 1315.43 470.734
840 0 85.0381 12.4532 1059 79.1804 1314.91 469.556
841 0 85.0487 12.5222 1065 78.9239 1315.63 469.032
842 0 96.3202 13.3721 1288 86.0776 1315.65 474.377
843 0 94.1409 13.0868 1232 84.8101 1316.13 470.887
844 0 100.346 13.8122 1386 84.3016 1316.67 465.349
845 0 101.247 13.8474 1402 84.2311 1317.3 464.049
846 0 98.1619 12.1738 1195 82.1774 1315.57 463.532
847 0 105.236 12.9328 1361 86.2814 1315.11 465.901
848 0 107.215 13.2351 1419 85.3164 1315.14 464.086
849 0 109.211 13.0756 1428 84.7101 1315.51 460.679
850 0 111.36 13.3621 1488 81.463 1315.27 458.374
851 0 113.414 13.0143 1476 81.2297 1315.55 450.613
852 0 118.322 12.9055 1527 81.0039 1315.65 449.098
853 0 120.401 12.965 1561 81.5926 1315.34 445.719
854 0 127.639 12.5745 1605 82.233 1315.16 442.822
855 0 138.441 12.6191 1747 80.4293 1315.94 445.238
856 1 78.2115 11.4178 893 72.9877 1316.46 481.926
857 0 79.0911 11.2402 889 75.396 1315.75 479.513
858 0 82.0681 10.7837 885 77.4011 1315.89 480.486
859 0 84.1303 11.2445 946 76.1998 1315.88 479.901
860 0 88.1116 11.2244 989 76.541 1315.82 477.204
861 0 92.1391 11.4718 1057 76.2318 1315.76 475.064
862 0 95.2695 10.9479 1043 77.5465 1315.86 473.007
863 0 98.2054 11.4556 1125 76.7004 1316.61 471.26
864 0 102.066 12.1588 1241 75.22 1316.93 469.501
865 0 106.151 11.4365 1214 77.2315 1315.93 467.791
866 0 108.247 12.065 1306 76.9204 1316.35 463.981
867 0 113.101 12.1042 1369 77.4836 1315.09 462.841
868 0 118.161 12.6268 1492 76.8901 1315.05 461.302
869 0 121.206 11.9218 1445 79.9363 1315.6 457.698
870 0 125.448 11.9571 1500 80.3127 1316.92 453.419
871 1 68.2406 10.5363 719 74.6592 1316.64 486.452
872 0 67.3572 11.0604 745 75.3195 1316.57 483.592
873 0 71.324 10.9921 784 76.7105 1317.15 482.895
874 0 73.2418 11.3323 830 75.7988 1316.85 480.988
875 0 75.2083 11.1823 841 77.0297 1317.01 480.48
876 0 76.2674 11.0139 840 77.9786 1316.34 479.479
877 0 79.3134 11.4483 908 77.685 1317.13 479.46
878 0 81.2255 11.1541 906 79.3333 1316.68 477.666
879 0 83.3483 11.8779 990 81.0141 1315.67 475.732
880 0 85.3 11.2309 958 79.4541 1315.94 476.782
881 0 88.2983 12.0274 1062 77.9944 1316.05 475.611
882 0 90.2848 11.4859 1037 78.3674 1316.4 476.743
883 0 92.2175 12.2103 1126 79.5293 1316.27 474.536
884 0 95.2808 11.8072 1125 82.7173 1316.17 470.301
885 0 96.3804 11.6102 1119 85.1492 1316.04 471.55
886 0 98.2685 11.7026 1150 83.34 1315.94 469.65
887 0 102.335 11.9607 1224 81.6879 1316.09 467.496
888 0 101.223 11.2128 1135 83.3313 1316.04 467.933
889 0 106.319 11.4466 1217 83.3435 1315.74 466.542
890 0 108.326 12.1116 1312 84.9123 1315.62 466.915
891 0 111.259 11.325 1260 86.2587 1315.7 464.025
892 0 113.467 12.2591 1391 84.5607 1315.93 462.7
893 0 115.444 11.8586 1369 84.0789 1316.44 462.598
894 0 120.529 11.9473 1440 83.5257 1316.49 460.299
895 0 123.469 12.2946 1518 83.1225 1316.88 460.057
896 0 125.436 12.4606 1563 84.5477 1316.78 456.813
897 0 128.35 11.2427 1443 86.2211 1315.99 456.245
898 0 132.416 11.8792 1573 85.5747 1316.51 453.266
899 0 136.366 12.2831 1675 85.8155 1316.41 451.819
900 0 140.397 11.3393 1592 88.6979 1317.04 449.804
901 0 142.445 11.9134 1697 90.0289 1316.37 447.744
902 0 147.385 11.8329 1744 92.1944 1316.63 446.589
903 0 151.285 11.3429 1716 94.8059 1316.56 446.226
904 0 154.161 11.6891 1802 94.1865 1316.72 441.627
905 0 159.532 12.1229 1934 93.3211 1316.54 439.77
906 0 164.646 12.1776 2005 92.1047 1317.21 434.505
907 0 171.65 11.7448 2016 93.7297 1317.88 436.875
908 0 175.443 11.5194 2021 96.8659 1317.16 430.703
909 0 388.518 16.0816 6248 97.9403 1315.82 309.011
910 0 397.581 17.0984 6798 95.733 1316.09 305.37
911 0 398.433 18.1561 7234 92.9274 1316.25 305.171
912 0 395.421 17.2727 6830 96.9086 1316.06 302.8
914 0 389.525 16.6074 6469 101.31 1316.33 297.207
915 0 377.941 17.815 6733 97.136 1316.29 290.458
916 0 384.323 16.075 6178 101.665 1315.99 291.416
917 0 394.343 16.2118 6393 102.912 1316.37 296.131
918 0 401.49 17.3604 6970 98.6915 1316.14 298.304
