time division length width area intensity CMx CMy
0 0 51.2788 15.1135 775 94.5935 1185.55 372.91
1 0 52.3269 15.2312 797 92.6913 1185.3 371.276
2 0 53.2771 16.5174 880 87.7386 1184.78 371.777
3 0 52.1657 15.0482 785 83.7274 1185.31 373.717
4 0 53.1479 15.3158 814 82.7113 1185.56 372.264
5 0 55.3143 16.0899 890 85.9494 1185.36 371.41
6 0 54.2857 16.0079 869 86.2348 1185.88 371.651
7 0 56.3168 16.1586 910 84.9396 1185.64 372.282
8 0 57.2157 16.6388 952 82.4244 1185.74 371.825
9 0 57.2125 16.0979 921 82.4962 1185.52 371.775
10 0 58.2191 16.3005 949 82.2919 1185.16 370.732
11 0 59.2963 15.8189 938 83.2239 1184.03 370.383
12 0 59.2414 15.8504 939 83.4739 1184.54 370.174
13 0 61.1865 16.1964 991 80 1184.26 370.62
14 0 61.194 15.4754 947 82.2017 1183.92 369.045
15 0 63.2092 16.0894 1017 80.295 1183.67 369.467
16 0 64.1592 16.4902 1058 78.0284 1183.51 369.031
17 0 65.1931 17.3485 1131 75.7374 1183.4 368.14
18 0 65.1322 16.0903 1048 79.001 1183.45 368.47
19 0 66.252 15.924 1055 79.8076 1183.22 367.476
20 0 68.1689 15.6376 1066 80.3105 1183.02 366.532
21 0 69.1499 16.7173 1156 78.2336 1183.57 365.896
22 0 70.1725 16.3169 1145 78.9677 1182.74 364.125
23 0 73.1927 16.559 1212 77.2822 1182.78 365.21
24 0 74.1894 16.04 1190 78.1966 1182.44 363.446
25 0 75.2096 16.5803 1247 77.008 1182.71 362.077
26 0 77.2508 16.6341 1285 76.1284 1183.36 362.591
27 0 79.237 17.4287 1381 73.9573 1182.61 361.632
28 0 79.1867 17.4398 1381 72.0471 1182.89 363.057
29 0 82.2154 17.8677 1469 71.0715 1182.67 361.724
30 0 83.213 16.0672 1337 74.0658 1182.58 361.877
31 0 84.3377 16.5644 1397 72.9914 1182.46 361.49
32 0 88.1919 17.8474 1574 68.7433 1183.34 363.304
33 0 90.1948 17.2294 1554 69.1184 1182.39 360.591
34 1 47.3567 12.2897 582 79.2285 1182.84 383.787
35 0 48.1958 12.4907 602 78.7807 1182.53 383.733
36 0 50.2156 12.7251 639 75.1377 1183.38 381.822
37 0 50.2567 12.3168 619 76.811 1182.95 380.869
38 0 52.2052 13.2362 691 74.7019 1182.74 380.835
39 0 53.2818 13.926 742 73.4394 1182.85 379.736
40 0 54.3077 14.4363 784 72.7832 1182.67 380.5
41 0 55.3698 13.166 729 74.2346 1183.36 379.033
42 0 56.202 13.3981 753 74.2537 1182.2 379.539
43 0 57.154 13.9273 796 72.2286 1182.67 380.892
44 0 58.1457 13.4834 784 73.8954 1182.14 379.508
45 0 59.2788 13.6305 808 73.922 1182.37 378.373
46 0 63.2478 13.8977 879 74.3345 1182.17 374.619
47 0 65.1805 14.9278 973 74.0596 1182.03 373.137
48 0 65.2305 13.9965 913 72.4545 1181.99 374.909
49 0 66.236 14.2068 941 72.17 1181.71 374.812
50 0 67.1652 14.5164 975 72.8318 1182.42 374.072
51 0 68.1481 14.4685 986 73.5872 1183.34 373.243
52 0 72.2247 14.4272 1042 73.3743 1182.8 371.827
53 0 76.2216 15.796 1204 73.0083 1183.33 369.919
54 0 78.2666 15.0511 1178 73.6384 1182.89 367.945
55 0 79.1862 15.192 1203 75.414 1183 367.576
56 0 82.1978 15.3775 1264 74.7025 1183.42 366.52
57 0 84.1864 14.7055 1238 76.7722 1183.15 363.398
58 0 84.1864 14.7173 1239 178.142 1182.14 363.392
59 0 89.2512 15.1707 1354 74.4934 1183.68 363.708
60 0 89.2139 15.0201 1340 76.6134 1183.33 361.21
61 0 93.2252 15.2105 1418 76.3787 1183.86 362.008
62 0 96.3095 14.3184 1379 78.2386 1183.75 358.986
63 0 99.2422 14.8526 1474 77.1404 1184.05 361.428
64 0 99.2422 14.7518 1464 176.143 1185.04 361.38
65 1 49.0793 13.142 645 78.9442 1184.43 386.735
66 0 51.0544 13.1232 670 77.9075 1183.53 383.603
67 0 50.0381 13.9294 697 78.8049 1183.18 383.661
68 0 52.1144 13.029 679 75.2165 1183.09 382.919
69 0 54.151 14.1641 767 73.9205 1183.39 383.484
70 0 55.1536 13.9973 772 74.8148 1183.27 383.434
71 0 56.1762 13.333 749 76.6676 1183.37 382.475
72 0 56.1944 13.3643 751 76.5313 1183.65 379.77
73 0 58.2319 13.8584 807 76.5403 1183.38 379.353
74 0 62.2067 14.1303 879 77.1889 1183.4 376.762
75 0 63.1934 14.5585 920 75.663 1183.2 378.236
76 0 65.2792 13.6337 890 76.4787 1183.03 379.576
77 0 66.2078 13.9258 922 76.3644 1183.44 378.588
78 0 67.1907 13.6179 915 76.1672 1183.01 378.376
79 0 69.2687 13.3394 924 73.2792 1182.85 378.88
80 0 72.2995 13.8175 999 72.4785 1183.39 376.668
81 0 73.1347 13.6187 996 73.1908 1182.89 376.725
82 0 76.3232 14.7792 1128 70.5975 1183.78 374.964
83 0 78.209 13.8347 1082 72.5148 1183.2 374.647
84 0 80.2045 14.3633 1152 70.895 1183.97 374.859
85 0 81.2855 13.0897 1064 72.766 1183.5 374.443
86 0 80.2821 13.1412 1055 163.647 1183.49 374.443
87 0 89.2447 14.1521 1263 69.8836 1183.15 372.952
88 0 90.2018 13.2259 1193 71.7184 1183.59 371.632
89 0 97.2007 14.897 1448 73.8488 1183.31 359.247
90 1 52.2237 11.2784 589 75.2547 1184.29 382.445
91 0 55.2127 12.3885 684 73.2895 1184.29 383.804
92 0 55.304 12.7477 705 75.973 1183.38 382.4
93 0 59.1811 12.7237 753 74.6228 1183.95 380.822
94 0 59.1811 12.6899 751 149.158 1184.95 380.888
95 0 63.3043 13.522 856 75.7967 1182.74 378.093
96 0 63.285 13.1785 834 77.2338 1183.43 378.257
97 0 66.2916 12.8674 853 78.0059 1183 377.681
98 0 69.2512 13.2128 915 77.7137 1183.25 375.664
99 0 69.2766 13.5255 937 78.0886 1182.74 375.513
100 0 72.2702 13.6156 984 77.5813 1182.47 374.591
101 0 71.2695 13.1894 940 158.461 1182.43 373.813
102 0 77.2257 14.1145 1090 76.7294 1182.55 371.37
103 0 78.1995 13.3121 1041 80.5014 1182.54 372.023
104 0 80.2908 14.1486 1136 79.1364 1183.46 371.858
105 0 83.2057 13.1722 1096 81.5812 1182.98 371.302
106 0 85.297 13.4706 1149 82.0801 1183.56 371.587
107 0 89.2959 14.1328 1262 81.6197 1183.15 368.322
108 0 92.2453 13.2473 1222 84.3363 1183.31 369.054
109 0 94.2002 13.397 1262 84.8859 1183.08 364.422
110 0 98.3494 13.6961 1347 84.8055 1183.67 361.863
111 0 101.256 14.2213 1440 83.3007 1183.06 360.648
112 1 54.0914 11.9612 647 83.8284 1184.6 385.252
113 0 57.1181 12.5354 716 82.6955 1184.63 382.767
114 0 57.1001 12.2942 702 84.349 1183.66 381.679
115 0 60.1242 12.8567 773 83.2639 1184.13 381.043
116 0 63.0647 13.4624 849 82.3274 1183.73 379.724
117 0 65.1427 13.2939 866 81.3614 1183.98 380.068
118 0 65.1945 12.7311 830 83.3024 1183.6 379.659
119 0 68.1806 13.0389 889 82.9021 1183.56 378.971
120 0 71.3497 13.0764 933 83.0397 1183.8 377.004
121 0 73.2521 13.0918 959 84.2659 1183.4 375.417
122 0 75.257 13.6466 1027 83.3505 1183.05 375.607
123 0 77.0933 13.4772 1039 83.9836 1183.96 374.662
124 0 80.2312 13.3739 1073 84.6272 1184.14 374.102
125 0 81.2771 13.6447 1109 87.8386 1183.23 371.134
126 0 82.221 13.3178 1095 90.3854 1184.03 371.133
127 0 85.2818 13.7896 1176 91.5332 1183.46 369.733
128 0 88.1245 13.7646 1213 90.7815 1183.88 370.958
129 0 91.1433 14.4937 1321 89.4262 1183.98 368.98
130 0 93.2664 14.3353 1337 90.5108 1183.57 367.438
131 0 96.2134 14.2496 1371 91.8249 1183.27 369.089
132 0 99.2332 14.612 1450 91.4669 1182.7 363.952
133 0 101.214 13.9803 1415 94.3781 1182.41 364.602
134 0 106.25 14.447 1535 92.1186 1182.5 363.425
135 0 107.257 15.1786 1628 90.5823 1183.07 361.593
136 0 109.162 14.3364 1565 91.745 1182.82 355.609
137 0 112.206 14.6337 1642 91.3313 1183.13 353.569
138 0 115.138 14.2264 1638 93.3706 1183.61 357.839
139 1 65.2346 13.735 896 93.3627 1182.99 386.169
140 0 67.2313 13.9667 939 92.4271 1182.47 385.373
141 0 69.1837 14.2375 985 93.0132 1182.64 381.253
142 0 71.1663 13.5317 963 94.3572 1182.19 380.815
143 0 70.2047 13.6743 960 94.7844 1182.04 379.817
144 0 73.1245 14.0856 1030 92.9369 1182.33 377.207
145 0 74.201 13.8273 1026 93.8548 1182.26 376.344
146 0 77.1722 13.6059 1050 93.2076 1181.81 375.687
147 0 80.1625 13.9716 1120 92.1134 1182.24 375.212
148 0 83.1453 14.0357 1167 91.2896 1181.98 372.835
149 0 86.1958 14.4323 1244 91.3223 1181.89 368.768
150 0 89.2032 14.2932 1275 91.8353 1181.83 367.445
151 0 92.1482 14.3248 1320 91.6955 1181.52 367.181
152 0 92.141 14.022 1292 93.0178 1181.41 364.448
153 0 96.1434 13.9687 1343 92.2003 1181.43 365.506
154 1 48.0876 11.4791 552 90.8442 1182.53 387.683
155 0 51.0463 12.1654 621 88.3124 1183.1 386.527
156 0 51.4021 12.8594 661 92.2179 1182.79 386.139
157 0 53.2626 12.9922 692 90.289 1183.2 383.887
158 0 54.1172 13.674 740 89.5243 1183.47 383.181
159 0 52.122 13.3916 698 161.089 1183.48 384.16
160 0 57.1657 13.3472 763 90.8401 1182.98 382.452
161 0 60.1544 12.9334 778 91.9807 1182.81 381.658
162 0 60.2015 13.6541 822 90.0341 1183.54 382.457
163 0 62.2029 14.1633 881 89.6754 1182.52 383.119
164 0 62.2029 14.099 877 153.253 1181.51 383.156
165 0 63.1883 13.5152 854 92.0843 1183.27 377.87
166 0 66.1974 13.928 922 89.4165 1183.13 375.72
167 0 68.3197 13.9199 951 91.6646 1182.8 375.651
168 0 70.1927 13.9331 978 91.3671 1183.07 373.147
169 0 73.1771 13.6518 999 91.3233 1182.75 370.758
170 0 76.1848 13.6641 1041 90.2622 1182.91 370.96
171 0 80.192 13.8667 1112 89.3121 1182.55 368.674
172 0 81.3008 14.022 1140 89.1202 1183.4 367.451
173 0 85.2438 13.5963 1159 90.4012 1183.3 365.074
174 0 87.1608 13.5267 1179 90.6132 1183.48 364.047
175 0 91.1242 14.1346 1288 88.5955 1183.54 364.057
176 0 93.274 13.0047 1213 91.8821 1182.66 362.633
177 0 97.2415 13.0603 1270 89.7276 1182.09 360.403
178 1 49.1007 11.7514 577 85.4645 1183.97 385.75
179 0 52.1338 12.2377 638 84.6803 1184.43 385.237
180 0 55.1112 13.0645 720 84.8708 1183.51 386.533
181 0 55.097 12.0878 666 90.2402 1184.5 383.707
182 0 57.1212 12.3947 708 88.685 1184 384.482
183 0 59.1165 13.3127 787 88.1436 1184.35 381.656
184 0 60.0838 13.2981 799 87.7972 1183.21 381.697
185 0 62.126 13.038 810 88.3 1183.52 381.253
186 0 63.1239 12.927 816 88.2708 1183.69 379.667
187 0 63.1255 13.4969 852 89.1303 1183.28 382.008
188 0 67.1514 13.5515 910 86.567 1182.78 378.284
189 0 68.1247 14.1652 965 88.1689 1182.65 380.221
190 0 69.1961 13.4401 930 88.5473 1182.57 375.389
191 0 73.2165 13.863 1015 84.9458 1182.9 374.693
192 0 76.1344 14.3825 1095 83.9397 1182.18 375.554
193 0 78.1655 14.2518 1114 84.4425 1181.83 376.679
194 0 78.2358 14.1368 1106 89.1175 1181.78 376.586
195 0 80.1796 14.2555 1143 89.5976 1181.99 376.704
196 0 83.283 14.5288 1210 88.8587 1181.74 377.068
197 0 86.2927 14.3697 1240 89.6258 1181.6 372.226
198 0 88.2663 14.207 1254 91.5 1181.82 372.049
199 0 91.3472 15.2386 1392 89.2292 1182.23 370.28
200 0 94.2139 14.6581 1381 91.155 1182.03 370.892
201 0 96.2663 13.9613 1344 93.5283 1181.7 373.149
202 0 96.2663 13.9717 1345 160.03 1180.71 373.096
203 0 101.172 13.3633 1352 114.63 1181.32 359.833
204 0 104.199 13.647 1422 110.914 1181.57 360.717
205 0 107.171 13.3432 1430 112.098 1181.8 358.02
206 0 110.316 13.2619 1463 110.332 1181.28 360.48
207 0 112.282 12.9317 1452 111.048 1181.28 357.962
208 0 120.286 14.158 1703 103.515 1181.46 357.702
209 1 66.1506 11.8064 781 99.7657 1182.33 383.04
210 0 66.1506 11.7913 780 157.333 1182.36 382.956
211 0 71.2807 12.7384 908 103.928 1181.58 382.893
212 0 73.172 12.6688 927 105.72 1181.29 382.467
213 0 75.2494 13.143 989 104.02 1181.18 380.825
214 0 77.2236 12.5091 966 104.627 1181.09 380.377
215 0 80.1977 12.9555 1039 103.782 1181.39 381.444
216 0 83.1985 13.5219 1125 102.424 1181.32 382.7
217 0 85.2784 13.5673 1157 101.931 1181.22 382.688
218 0 88.2008 13.7187 1210 101.522 1180.79 385.809
219 0 88.2825 13.3662 1180 104.095 1181.26 387.569
220 0 91.3367 13.4557 1229 102.981 1181.1 387.457
221 0 93.2172 12.7552 1189 106.377 1180.57 387.468
222 0 94.2684 12.963 1222 106.592 1181.33 387.901
223 0 98.2876 12.9721 1275 105.1 1181.96 386.258
224 0 101.293 13.071 1324 105.295 1181.45 384.718
225 0 105.425 13.1658 1388 103.24 1181.29 386.979
226 0 108.277 13.0775 1416 99.834 1181.72 389.086
227 0 112.463 13.0265 1465 99.7133 1181.72 386.18
228 1 60.2246 12.2541 738 96.7656 1181.67 411.379
229 0 65.31 11.8052 771 96.0415 1181.74 408.608
230 0 64.1545 11.5346 740 97.3743 1182.2 407.751
231 0 68.1392 12.2396 834 93.4664 1182.54 407.556
232 0 69.3299 12.7362 883 91.9128 1181.42 407.659
233 0 71.1784 12.3914 882 92.6406 1181.6 407.13
234 0 72.2353 12.0301 869 93.2348 1182.28 406.705
235 0 74.2744 12.4538 925 92.5157 1181.93 405.643
236 0 79.1445 13.2416 1048 88.5706 1181.75 407.367
237 0 81.1467 12.9395 1050 88.1905 1181.99 408.086
238 0 83.2625 13.0911 1090 88.2037 1182.14 406.694
239 0 85.2581 13.1718 1123 87.9154 1182.09 407.805
240 0 87.2724 12.7761 1115 88.4978 1181.93 408.143
241 0 89.3008 12.6203 1127 88.4454 1181.73 410.098
242 0 93.4183 12.9311 1208 86.7384 1181.79 410.686
243 0 97.4848 12.8225 1250 86.1256 1181.6 412.056
244 0 99.4108 12.6847 1261 86.4171 1180.84 410.045
245 0 101.315 12.1799 1234 87.5413 1180.79 409.799
246 1 57.1856 11.1217 636 84.4937 1181.2 435.042
247 0 59.2205 11.263 667 84.0465 1180.73 435.538
248 0 60.0867 14.6289 879 73.7031 1181.69 444.959
249 0 64.0089 13.42 859 74.8615 1181.55 443.732
250 0 68.0319 14.0228 954 71.3742 1182.08 447.205
251 0 71.149 12.8603 915 63.012 1180.9 449.238
252 0 72.1248 13.5182 975 61.7703 1181.2 448.255
253 0 72.19 13.1182 947 64.3062 1181.47 445.545
254 0 72.1492 14.6641 1058 61.6975 1180.85 444.912
255 0 72.2721 13.4492 972 65.4239 1180.76 445.214
256 0 74.2007 13.4635 999 65.9369 1181.07 445.543
257 0 76.1136 13.8214 1052 66.1027 1180.79 445.01
258 0 76.0766 13.447 1023 67.781 1180.7 445.747
259 0 76.1041 13.7443 1046 69.543 1180.45 447.227
260 0 83.0904 15.0198 1248 66.5264 1181.01 447.73
261 0 84.1019 14.3279 1205 68.9519 1180.77 449.5
262 0 88.1534 14.2139 1253 69.6201 1181.08 448.744
263 0 88.1294 14.0816 1241 73.0629 1181.47 451.579
264 0 93.2428 13.8456 1291 75.4438 1181.74 452.249
265 0 94.2097 13.5973 1281 82.0515 1183.06 453.733
266 0 95.2094 12.3412 1175 85.3251 1181.6 452.273
267 0 100.348 13.1443 1319 86.348 1180.6 447.923
268 0 105.346 13.0522 1375 86.9484 1180.99 446.9
269 1 61.0801 10.4617 639 78.4945 1180.22 481.186
270 0 61.1387 10.3535 633 80.1501 1181.38 481.874
271 0 62.1304 11.5402 717 79.8522 1180.74 480.421
272 0 65.0805 12.2617 798 79.2331 1181.5 480.238
273 0 66.1397 11.6723 772 80.8174 1181.15 478.797
274 0 68.1015 11.85 807 81.0719 1181.21 478.772
275 0 69.1558 12.1899 843 82.019 1181.46 478.616
276 0 68.2047 11.832 807 84.3296 1182.36 478.77
277 0 72.19 12.0792 872 84.3303 1181.86 477.253
278 0 73.1359 11.3351 829 86.1942 1181.54 476.935
279 0 76.1329 12.9248 984 83.7378 1181.53 474.425
280 0 77.2324 12.1193 936 86.0139 1181.89 474.636
281 0 82.2062 12.4443 1023 85.1877 1181.85 472.701
282 0 82.213 12.4919 1027 140.588 1182.84 472.913
283 0 87.2293 12.6678 1105 84.6923 1181.68 470.127
284 1 102.197 17.4075 1779 69.9151 1181.2 460.438
285 0 103.177 15.8369 1634 74.4749 1181.48 460.433
286 0 104.16 17.5979 1833 72.0098 1181.27 458.063
287 0 104.161 17.4441 1817 116.609 1182.26 458.026
288 0 104.16 15.5915 1624 80.3849 1180.83 459.309
289 0 106.264 14.5675 1548 83.312 1180.71 457.087
290 0 105.24 12.7709 1344 85.2113 1180.31 455.016
291 0 108.171 12.1752 1317 86.6925 1180.63 453.942
292 0 111.118 12.9142 1435 89.2118 1180.54 451.449
293 0 117.129 13.4467 1575 95.7448 1180.74 453.657
294 0 121.134 13.8854 1682 95.0119 1182.43 453.182
295 1 66.1143 11.6011 767 94.133 1181.96 481.256
296 0 69.1126 12.646 874 92.8261 1182.46 479.001
297 0 68.1147 12.4202 846 83.1915 1181.59 480.08
298 0 70.0662 12.5453 879 83.6018 1181.46 478.691
299 0 71.1144 12.6416 899 85.0712 1181.29 478.222
300 0 75.1795 12.3438 928 85.5625 1181.12 476.912
301 0 77.1116 12.0345 928 87.5938 1180.89 475.848
302 0 81.1526 13.1974 1071 85.6564 1180.96 474.838
303 0 84.1331 12.8011 1077 86.0761 1180.92 473.818
304 0 86.1239 13.6199 1173 87.7349 1181.47 469.634
305 0 89.134 13.16 1173 87.503 1181.82 467.223
306 0 90.1482 12.9454 1167 87.8415 1181.78 468.133
307 0 93.1592 13.1388 1224 86.3513 1181.25 468.422
308 1 52.313 11.2592 589 86.0102 1182.66 489.902
309 0 52.1595 11.925 622 85.5289 1182.19 489.265
310 0 52.1545 12.4055 647 84.1577 1181.83 488.376
311 0 51.0956 11.2339 574 83.3328 1181.27 489.289
312 0 55.1245 11.7008 645 82.1147 1181.9 489.377
313 0 55.134 11.5899 639 83.3067 1181.98 487.872
314 0 58.106 11.806 686 80.863 1181.22 488.496
315 0 58.0621 12.056 700 81.3643 1181.07 486.621
316 0 60.1104 12.1443 730 81.5726 1181.38 487.103
317 0 61.0739 12.2638 749 80.9573 1180.79 485.838
318 0 63.0977 12.1716 768 80.013 1181.01 485.878
319 0 65.148 12.6328 823 79.5857 1181.16 485.258
320 0 67.0935 11.8491 795 81.2868 1180.74 484.629
321 0 69.1033 11.9965 829 80.8504 1180.9 481.164
322 0 71.1131 12.1215 862 80.4907 1180.69 481.548
323 0 72.1426 11.0198 795 82.8629 1180.99 482.132
324 0 75.1393 12.3637 929 80.9031 1180.46 480.944
325 0 78.0997 12.0999 945 82.418 1180.54 480.763
326 0 79.1603 11.5336 913 83.6123 1179.56 479.321
327 0 82.1238 12.4081 1019 82.8724 1179.39 477.132
328 0 83.1361 12.4495 1035 84.5266 1179.7 475.014
329 0 91.3221 14.3886 1314 83.7664 1179.28 456.648
330 0 94.35 14.531 1371 84.0708 1179.03 458.982
331 1 49.2561 10.9428 539 81.3377 1179.69 484.876
332 0 51.2453 11.1815 573 79.6056 1180.5 484.848
333 0 52.3102 11.6421 609 80.532 1181 486.98
334 0 54.3182 11.672 634 79.1467 1180.69 487.991
335 0 55.2025 12.2821 678 78.3982 1179.86 488.83
336 0 57.0238 12.6964 724 77.8522 1177.92 489.761
337 0 57.1086 12.8877 736 78.0965 1178.29 488.721
338 0 60.014 11.9639 718 87.7869 1180.05 487.589
339 0 61.0736 12.1657 743 88.576 1179.68 485.514
340 0 64.0605 12.6599 811 85.6054 1179.67 486.158
341 0 65.0796 12.9687 844 85.4005 1178.79 483.88
342 0 66.054 12.732 841 85.9524 1178.93 483.42
343 0 68.154 13.0147 887 84.8658 1178.84 482.401
344 0 70.1301 12.3912 869 84.2486 1178.72 481.902
345 0 71.102 11.9828 852 83.4906 1177.64 479.778
346 0 74.1322 12.2889 911 75.8463 1178.04 479.221
347 0 76.1199 12.5723 957 83.1108 1177.98 477.894
348 0 77.1068 12.1779 939 83.7764 1178.56 476.388
349 0 79.3655 12.6629 1005 82.6706 1178.58 477.424
350 0 81.2581 12.0726 981 84.4047 1178.67 474.777
351 0 84.2764 13.2421 1116 82.3369 1179.27 472.59
352 0 87.4258 12.2161 1068 83.3886 1178.71 470.551
353 1 46.0607 10.3125 475 78.2316 1180.04 492.878
354 0 47.0183 11.1871 526 76.9049 1178.85 494.842
355 0 49.0296 11.2381 551 77.1452 1178.12 492.054
356 0 50.163 12.5591 630 76.4905 1176.93 490.175
357 0 51.0796 11.9813 612 81.549 1177.4 490.173
358 0 53.0807 12.4339 660 129.029 1177.39 489.005
359 0 53.0328 12.0303 638 85.2241 1176.75 487.984
360 0 55.0393 12.3366 679 84.0103 1178.46 486.61
361 0 57.1255 12.7089 726 83.4972 1177.94 485.795
362 0 56.1159 12.2069 685 84.962 1178.12 485.422
363 0 60.2002 11.7442 707 85.2249 1178.22 485.248
364 0 59.0924 12.4043 733 85.4884 1178 485.917
365 0 62.1166 12.0097 746 86.181 1178.28 484.511
366 0 63.1993 12.516 791 86.2807 1179.57 483.272
367 0 66.2806 11.8436 785 87.6624 1179.32 482.916
368 0 66.2064 11.585 767 88.1591 1179.13 480.218
369 0 68.1665 12.1907 831 87.5572 1178.41 480.412
370 0 71.1681 11.9436 850 88.1988 1178.73 477.536
371 0 74.2388 11.8806 882 88.6701 1178.94 477.115
372 0 76.1046 11.6156 884 88.293 1178.69 476.163
373 0 78.1366 11.9278 932 87.8659 1178.71 477.926
374 0 81.1441 12.2498 994 85.5282 1178.44 476.855
375 0 83.1433 12.3161 1024 87.1123 1178.42 473.062
376 0 85.1991 12.641 1077 87.2414 1178.96 472.632
377 0 88.1204 12.8007 1128 86.5851 1178.93 470.082
378 0 98.1525 16.5559 1625 75.0837 1178.6 463.443
379 0 103.2 15.9496 1646 74.5292 1178.89 459.878
380 1 49.0931 10.0421 493 85.1562 1178.69 490.73
381 0 52.0265 10.9367 569 85.2935 1178.67 488.805
382 0 53.0354 12.0108 637 83.8305 1178.11 487.463
383 0 55.0797 12.0008 661 82.584 1178.9 487.328
384 0 57.3442 12.3291 707 85.5177 1179.67 483.655
385 0 59.0587 12.5976 744 85.9489 1178.98 483.651
386 0 59.0769 12.2214 722 83.9612 1179.85 484.626
387 0 61.0744 12.1327 741 84.0634 1180.16 484.215
388 0 62.0294 12.0749 749 85.0868 1179.55 483.505
389 0 64.0645 12.1284 777 85.2896 1180.33 481.39
390 0 68.1465 12.5465 855 84.1509 1179.97 479.494
391 0 69.052 12.3965 856 86.2138 1179.65 479.178
392 0 71.0348 12.5291 890 86.2169 1179.09 477.308
393 0 72.0779 12.7501 919 86.7954 1178.92 476.535
394 0 74.0739 12.582 932 87.7017 1178.92 475.573
395 0 77.0772 12.7015 979 86.7794 1179.9 474.846
396 0 77.0492 12.5374 966 87.8778 1179.52 473.457
397 0 81.0644 13.0267 1056 85.9981 1180.11 472.277
398 0 84.1056 12.6151 1061 86.5881 1179.23 472.399
399 0 87.0926 13.2732 1156 85.6721 1179.8 470.274
400 0 91.1233 13.8933 1266 83.9913 1179.05 465.173
401 0 99.1179 15.5572 1542 78.1083 1179.72 457.072
402 0 100.086 15.3468 1536 80.0033 1179.9 457.673
403 0 99.172 13.1892 1308 86.8387 1179.09 457.025
404 0 102.155 12.7551 1303 91.2939 1179 458.196
405 1 54.2107 10.4961 569 84.7276 1179.72 486.931
406 0 54.0911 9.79828 530 85.1547 1179.66 485.66
407 0 59.0797 10.5451 623 83.2937 1179.97 485.035
408 0 61.1455 10.8594 664 83.7334 1180.59 484.702
409 0 61.3544 10.8061 663 89.9231 1179.42 484.072
410 0 65.2029 11.7479 766 88.5183 1180.4 482.531
411 0 67.1679 11.4638 770 89.1779 1180.17 481.904
412 0 68.2029 11.7737 803 90.1146 1179.49 479.563
413 0 72.1482 11.9338 861 86.849 1178.9 479.883
414 0 73.1057 12.4204 908 86.3965 1179.05 479.22
415 0 73.2456 11.9734 877 79.805 1179.44 479.913
416 0 75.1662 12.3726 930 80.8978 1179.31 477.509
417 0 76.2449 11.6336 887 82.841 1179.94 477.566
418 0 81.2362 12.5929 1023 81.2991 1179.73 474.578
419 0 84.1153 12.3996 1043 82.2052 1179.72 471.653
420 0 95.1076 16.2868 1549 70.8573 1179.37 464.828
421 0 97.1459 15.8833 1543 72.2741 1179.24 463.117
422 0 95.1649 15.7936 1503 75.9614 1178.31 465.253
423 0 99.2435 15.4267 1531 77.4102 1179.26 461.794
424 0 99.2334 14.3399 1423 81.8777 1179.76 463.883
425 0 103.242 12.8629 1328 84.7364 1179.53 462.384
426 0 103.251 13.0362 1346 85.3826 1179.67 461.904
427 0 107.174 12.9509 1388 85.7889 1179.52 461.326
428 0 110.141 13.2648 1461 85.757 1179.28 458.697
429 0 113.477 13.0688 1483 86.0357 1179.77 457.589
430 0 117.306 13.1366 1541 86.6347 1179.21 454.544
431 0 123.217 13.1314 1618 86.1632 1179.16 455.468
432 0 127.454 14.4444 1841 91.9875 1178.84 449.983
433 0 130.503 14.3981 1879 92.553 1178.77 448.654
434 0 136.449 14.0346 1915 92.5812 1178.99 445.843
435 1 78.066 10.4783 818 87.5086 1180.58 477.169
436 0 80.1587 11.5147 923 87.2557 1180.66 476.189
437 0 80.1799 12.5218 1004 89.9054 1177.83 474.636
438 0 83.1687 12.6851 1055 89.1886 1178.02 474.828
439 0 88.1755 13.836 1220 88.5697 1177.31 471.052
440 0 97.3426 16.4984 1606 79.2017 1177.97 464.217
441 0 96.2255 15.6715 1508 84.3853 1177.95 465.442
442 0 98.2191 15.6589 1538 85.3914 1177.91 463.48
443 0 102.29 15.153 1550 87.0432 1177.72 463.059
444 0 101.338 13.2132 1339 91.7341 1177.58 464.724
445 0 105.451 13.3995 1413 92.6447 1178.09 462.393
446 0 111.173 13.1057 1457 91 1179.63 460.671
447 0 114.201 12.7057 1451 89.6857 1179.48 455.442
448 0 117.283 12.6873 1488 88.8145 1178.43 453.447
449 0 117.283 12.6276 1481 154.661 1177.42 453.423
450 1 67.1613 11.7925 792 81.029 1178.34 483.542
451 0 70.349 12.6228 888 80.7782 1178.16 482.958
452 0 71.1504 12.8882 917 80.9248 1179.04 481.025
453 0 72.1313 12.4495 898 81.402 1179.59 481.135
454 0 75.0946 11.5987 871 82.1125 1180 478.994
455 0 76.1283 12.295 936 81.7778 1178.97 477.698
456 0 82.1236 13.1509 1080 79.4741 1179.82 476.539
457 0 82.1646 12.8157 1053 80.9867 1179.54 474.606
458 0 85.1804 12.3855 1055 89.5024 1180 472.786
459 0 88.2127 12.6739 1118 87.7979 1178.9 470.719
460 0 92.1878 12.0081 1107 89.374 1179.57 468.025
461 0 96.3677 12.6495 1219 84.3486 1180.04 464.436
462 0 101.314 14.7857 1498 79.0354 1179.91 459.313
463 0 102.313 14.0451 1437 81.2603 1180.55 459.767
464 0 102.321 14.0636 1439 132.806 1181.54 459.612
465 1 55.1849 11.4887 634 81.3785 1181.5 486.005
466 0 57.3567 11.6115 666 81.4024 1180.37 484.458
467 0 59.5905 12.3677 737 80.0651 1180.67 481.688
468 0 61.2095 12.0896 740 84.0473 1178.87 484.23
469 0 61.055 12.4478 760 84.1197 1179.4 482.134
470 0 62.0858 11.5807 719 85.7399 1179.54 482.58
471 0 64.0502 12.3497 791 84.0493 1180.21 481.686
472 0 64.0502 12.3809 793 125.375 1181.22 481.593
473 0 65.201 12.3158 803 81.9116 1179.34 482.022
474 0 67.0986 11.9377 801 82.0275 1179.74 480.589
475 0 70.0784 11.7868 826 82.1271 1179.62 478.898
476 0 70.1186 12.2507 859 82.5669 1179.62 476.728
477 0 73.1851 12.5162 916 83.3428 1179.01 476.282
478 0 75.1493 12.1891 916 84.7129 1179.08 474.853
479 0 78.2455 13.3043 1041 84.0817 1179.56 475.947
480 0 81.2168 12.5097 1016 85.1604 1179.59 474.165
481 0 81.2271 13.2714 1078 85.2022 1179.24 470.672
482 0 83.1748 12.4557 1036 87.2954 1179.59 469.699
483 0 86.15 13.4533 1159 84.8421 1179.65 466.992
484 0 87.137 12.9337 1127 85.5209 1179.43 466.367
485 0 93.1241 14.4538 1346 80.8663 1179.3 458.906
486 0 93.0827 13.2678 1235 84.5943 1178.87 459.021
487 0 95.2041 12.7305 1212 85.255 1176.55 459.751
488 0 101.46 13.3649 1356 84.6504 1176.87 456.879
489 1 54.1959 10.5912 574 81.6516 1178.01 480.495
490 0 57.1601 11.8614 678 71.767 1179.01 486.559
491 0 59.064 12.9521 765 76.1765 1177.82 485.353
492 0 57.0739 10.9682 626 77.4377 1179.02 487.129
493 0 59.1492 11.4794 679 75.7305 1178.92 486.892
494 0 62.1662 11.3567 706 75.9008 1179.64 485.812
495 0 65.2275 11.8968 776 75.2552 1180.21 483.198
496 0 66.1532 11.5187 762 74.9304 1179.58 481.278
497 0 71.0907 13.1522 935 71.7701 1178.44 477.235
498 0 71.1233 12.9915 924 73.1039 1178.38 478.495
499 0 72.1683 11.5009 830 77.1386 1178.29 478.748
500 0 76.2415 11.9751 913 76.7952 1178.81 478.36
501 0 78.1625 12.602 985 76.7827 1178.87 476.566
502 0 77.0656 12.0157 926 79.8769 1178.66 476.377
503 0 82.2277 12.5748 1034 79.941 1178.86 474.87
504 0 82.148 12.0636 991 80.2775 1178.72 473.939
505 1 96.2272 14.8087 1425 70.407 1178.97 465.915
506 0 97.184 16.4019 1594 68.7045 1178.31 463.905
507 0 98.3605 15.6872 1543 72.6688 1178.08 460.859
508 0 90.1517 13.9321 1256 76.8981 1177.15 457.102
509 0 91.1443 12.2443 1116 80.1084 1177.11 456.538
510 0 96.0773 13.333 1281 80.1351 1177.24 459.408
511 0 103.187 13.0151 1343 87.7856 1177.66 462.836
512 0 110.263 13.9031 1533 91.9393 1178.23 458.611
513 0 111.167 13.2863 1477 89.1814 1178.76 457.951
514 0 116.271 13.2105 1536 89.0221 1177.73 457.276
515 1 61.1001 11.0474 675 83.7289 1177.76 485.69
516 0 64.1401 11.8179 758 82.7744 1177.87 484.603
517 0 65.0807 12.1849 793 81.5599 1178.07 483.439
518 0 67.1358 12.0502 809 81.3115 1177.81 484.283
519 0 70.1081 12.6376 886 80.456 1177.83 484.144
520 0 73.3306 13.2687 973 80.9137 1178.74 483.361
521 0 74.1352 12.9223 958 83.3612 1178.66 481.848
522 0 75.2331 13.1325 988 84.5911 1179.6 481.521
523 0 78.1852 12.8413 1004 85.3536 1179.11 479.745
524 0 80.1278 13.3911 1073 80.0969 1178.11 466.52
525 0 84.1384 15.7954 1329 75.5583 1177.65 466.267
526 0 84.0822 14.8783 1251 78.7186 1177.96 465.852
527 0 89.1695 14.7808 1318 79.2883 1177.48 465.22
528 0 89.1761 12.907 1151 90.6707 1177.45 462.466
529 0 93.1908 13.9499 1300 88.2538 1177.48 464.476
530 0 96.1233 13.7532 1322 89.4539 1177.67 465.366
531 0 99.145 13.7677 1365 88.5143 1177.23 469.611
532 0 103.178 13.404 1383 92.0868 1177.1 469.986
533 0 105.155 14.5975 1535 88.0378 1176.7 466.683
534 0 109.139 14.2937 1560 100.513 1175.82 466.838
535 0 113.14 14.5307 1644 89.6764 1176.12 465.1
536 1 62.0348 12.0578 748 88.893 1176.26 489.893
537 0 64.1407 11.9893 769 90.3498 1178.18 489.16
538 0 66.1515 12.6528 837 88.7909 1177.89 487.504
539 0 68.1349 12.7688 870 88.6195 1177.27 488.143
540 0 70.0755 13.2857 931 91.3308 1178.48 487.099
541 0 72.1224 13.2968 959 94.2148 1177.67 485.452
542 0 72.1992 13.4074 968 90.6415 1178.45 484.13
543 0 75.2192 13.3742 1006 90.4095 1177.69 483.59
544 0 77.1518 13.9465 1076 88.6747 1176.97 482.868
545 0 80.1355 15.1119 1211 87.4426 1177 480.494
546 0 81.1579 13.3074 1080 91.4157 1177.38 480.587
547 0 84.261 13.7786 1161 91.7347 1177.84 479.646
548 0 86.2023 13.6539 1177 92.4817 1177.39 477.766
549 0 89.1722 13.9281 1242 93.3349 1177.18 475.308
550 0 92.1765 13.9732 1288 92.7104 1177.54 475.149
551 0 96.2401 13.9027 1338 93.3274 1177.18 472.031
552 0 99.1363 14.122 1400 93.2414 1177.75 472.205
553 0 103.162 14.9861 1546 90.3118 1178.54 465.555
554 0 105.151 14.5695 1532 92.3779 1177.36 464.736
555 0 106.189 14.0599 1493 97.3409 1177.67 465.92
556 0 110.205 14.8722 1639 100.601 1177.25 464.223
557 0 112.311 14.5667 1636 102.523 1178.2 464.298
558 0 116.123 13.8733 1611 113.349 1177.65 462.622
559 0 119.206 14.3281 1708 103.927 1178.24 460.853
560 0 124.091 14.6827 1822 101.65 1177.5 460.023
561 0 124.091 14.715 1826 165.217 1176.51 459.982
562 0 132.145 14.3101 1891 102.225 1177.82 454.369
563 0 135.187 13.4333 1816 104.92 1178.43 451.3
564 0 141.154 14.4098 2034 100.699 1178.44 448.21
565 0 140.187 13.5676 1902 100.772 1177.75 437.945
566 0 147.441 14.1413 2085 98.7439 1177.33 438.765
567 0 152.421 14.027 2138 100.99 1177.05 439.884
568 1 83.1941 11.5513 961 95.0083 1177.16 476.672
569 0 86.2193 12.851 1108 98.0253 1177.39 476.556
570 0 90.2228 13.0344 1176 97.7313 1177.36 474.438
571 0 93.1627 13.0202 1213 97.8178 1176.76 473.005
572 0 96.2415 12.7492 1227 98.5485 1177.37 470.905
573 0 98.2285 13.5399 1330 97.3263 1177.08 470.553
574 0 102.24 15.3854 1573 91.6783 1177.75 463.627
575 0 104.19 13.984 1457 95.429 1177.82 465.503
576 0 105.222 12.5734 1323 95.9841 1177.44 464.327
577 0 109.259 13.5458 1480 96.1081 1177.35 462.766
578 0 111.225 12.8928 1434 95.4484 1177.69 459.197
579 0 115.125 12.4473 1433 95.9805 1177.88 457.111
580 0 118.221 12.519 1480 98.0743 1178.15 458.232
581 0 126.224 12.7472 1609 95.8931 1178.54 456.259
582 0 128.282 12.5037 1604 95.8423 1177.24 454.372
583 0 132.143 13.0011 1718 93.908 1177.4 450.947
584 0 138.299 13.2177 1828 93.5142 1177.41 450.437
585 1 76.1053 10.5512 803 88.8917 1177.84 480.217
586 0 78.146 11.8752 928 86.1832 1177.91 480.047
587 0 80.1214 11.3702 911 87.3403 1177.6 477.895
588 0 81.3795 10.875 885 84.0746 1177.24 476.392
589 0 84.3685 11.3431 957 84.9049 1176.46 475.897
590 0 86.3135 11.5509 997 87.7071 1176.45 474.115
591 0 90.3231 11.4478 1034 87.6896 1176.74 473.71
592 0 93.3257 11.7974 1101 86.5813 1177.02 472.882
593 0 99.2899 12.8714 1278 89.7214 1177.07 470.493
594 0 103.345 12.8404 1327 88.63 1176.46 467.911
595 0 106.444 13.0115 1385 88.0282 1176.73 467.629
596 0 110.465 12.6193 1394 89.3013 1176.89 464.513
597 0 113.336 12.6615 1435 88.8822 1176.76 463.945
598 0 117.395 12.6751 1488 89.1136 1177.08 461.137
599 0 122.403 12.704 1555 88.0341 1177.14 461.157
600 0 125.485 13.2048 1657 87.2456 1176.64 457.357
601 0 129.484 12.6734 1641 88.1627 1176.5 454.068
602 1 60.1103 10.697 643 73.5692 1176.25 491.944
603 0 62.1948 11.3514 706 73.466 1176.41 489.901
604 0 64.0677 10.7386 688 74.7326 1177.05 485.469
605 0 64.1571 10.069 646 74.6099 1177.46 487.875
606 0 68.1937 11.35 774 71.6525 1177.01 487.823
607 0 69.2737 11.7505 814 69.5405 1176.58 485.654
608 0 71.1164 10.7992 768 70.4622 1176.36 485.654
609 0 75.235 11.4707 863 69.4844 1177.35 482.154
610 0 77.1965 10.9072 842 70.247 1176.64 481.043
611 0 81.2878 11.6992 951 69.1483 1176.12 480.873
612 0 82.2986 10.7171 882 71.0998 1176.53 479.409
613 0 84.2125 10.6279 895 69.9743 1176.13 478.743
614 0 88.2223 11.4937 1014 69.3402 1177 472.683
615 0 91.3479 10.6188 970 70.3093 1176.39 471.475
616 1 49.0905 11.5908 569 65.1687 1177.11 495.859
617 0 51.1037 11.3299 579 65.8325 1176.47 494.573
618 0 52.1918 10.7105 559 66.2522 1176.23 493.392
619 0 53.4099 10.822 578 67.8962 1177.81 493.609
620 0 56.2962 11.4217 643 66.804 1177.84 491.535
621 0 57.3681 11.278 647 67.592 1177.34 491.7
622 0 57.3916 10.6984 614 67.5489 1177.19 490.687
623 0 59.3859 11.0127 654 66.4908 1177.5 491.232
624 0 62.2815 11.3035 704 65.6051 1176.99 489.642
625 0 63.361 11.3477 719 64.6203 1177.14 485.662
626 0 66.3457 11.0934 736 65.769 1177.26 486.082
627 0 72.2202 12.5727 908 63.5738 1177.62 485.002
628 0 71.16 12.4227 884 62.0984 1177.29 482.483
629 0 73.094 11.6973 855 67.1181 1178 478.809
630 0 77.1938 12.514 966 70.6211 1178.71 480.863
631 0 78.2007 12.6853 992 73.5565 1177.23 480.256
632 0 82.2015 13.1628 1082 71.4649 1177.57 479.096
633 0 85.1959 12.8175 1092 71.8059 1177.34 478.4
634 0 86.1774 12.3698 1066 72.2617 1177.33 474.091
635 0 89.2478 12.3476 1102 71.8784 1177.62 473.551
636 0 91.1908 12.5671 1146 71.9188 1177.82 470.826
637 0 94.1896 12.358 1164 66.1134 1177.23 462.376
638 0 97.3044 12.0036 1168 62.5916 1177.18 468.779
639 0 102.301 13.1475 1345 62.0796 1178.8 466.674
640 0 104.309 12.2233 1275 64.4102 1177.35 466.121
641 0 109.537 12.279 1345 66.8959 1178.21 464.735
642 1 58.3209 11.2824 658 63.1125 1177.5 489.688
643 0 58.4491 10.0943 590 64.7186 1177.91 488.11
644 0 60.465 11.4281 691 63.3922 1178.21 487.217
645 0 62.3864 12.4386 776 61.3582 1177.99 486.571
646 0 65.1519 12.632 823 60.8092 1177.62 485.288
647 0 66.0512 11.9453 789 62.853 1178.13 485.004
648 0 67.0404 11.9928 804 67.8122 1178.9 483.389
649 0 69.0904 12.6067 871 66.535 1178.54 479.827
650 0 72.0808 12.042 868 67.4044 1178.46 480.975
651 0 73.0342 12.2271 893 66.8656 1178.49 480.421
652 0 75.1023 12.9424 972 65.6019 1178.14 480.433
653 0 78.1326 12.4788 975 66.2133 1178.35 479.652
654 0 82.1492 12.4651 1024 66.1289 1178.45 477.754
655 0 82.2343 13.0724 1075 65.8456 1178.02 477.095
656 0 85.2238 12.4026 1057 67.5374 1178.51 474.045
657 0 92.6401 15.5116 1437 62.0592 1178.49 464.139
658 0 93.4473 15.5489 1453 62.1466 1178.33 464.017
659 0 94.4896 14.2344 1345 65.513 1178.97 465.878
660 0 96.5408 13.0411 1259 67.7832 1178.89 465.193
661 0 100.566 13.1456 1322 67.4138 1178.3 464.131
662 0 104.534 16.1574 1689 62.2783 1178.31 458.205
663 0 108.552 15.7344 1708 63.2658 1178.6 454.953
664 0 109.64 14.9398 1638 65.1886 1178.39 455.811
665 0 111.774 13.8225 1545 67.4123 1178.62 458.683
666 0 115.604 13.4598 1556 68.3522 1178.77 454.115
667 0 118.517 14.4874 1717 66.5888 1179.47 452.692
668 1 61.4343 11.3617 698 64.1805 1179 481.984
669 0 64.4518 11.7607 758 62.6662 1178.46 481.445
670 0 65.2514 12.199 796 62.8329 1178.32 482.947
671 0 68.1469 12.2529 835 65.5246 1177.29 481.484
672 0 68.0993 11.4539 780 69.3564 1179.31 481.159
673 0 71.1266 12.302 875 66.1143 1178.55 482.161
674 0 74.1299 13.0042 964 66.9284 1179.38 479.199
675 0 76.138 11.9914 913 67.5991 1178.66 478.192
676 0 80.2037 12.7675 1024 66.6953 1179.37 477.138
677 0 83.1848 12.7307 1059 67.1483 1179.11 475.609
678 0 83.4144 12.7916 1067 68.6485 1179.56 472.022
679 0 88.3952 13.4962 1193 68.14 1178.79 470.934
680 0 90.4187 13.3822 1210 69.5496 1178.11 464.417
681 0 98.599 16.4708 1624 63.54 1178.4 460.974
682 0 99.6006 16.777 1671 64.4512 1178.38 461.605
683 0 102.533 16.0632 1647 67.6005 1179.05 461.381
684 0 104.58 15.7104 1643 69.9203 1180.17 461.962
685 0 107.478 15.2962 1644 71.0316 1180.57 460.799
686 0 109.44 13.9437 1526 73.9738 1180.66 461.215
687 0 112.382 14.1303 1588 75.0976 1179.72 460.348
688 0 117.306 14.117 1656 75.3382 1179.73 459.034
689 0 121.25 13.864 1681 75.8328 1179.27 456.833
690 1 63.2057 12.0559 762 69.1168 1180.36 487.224
691 0 66.1088 11.708 774 71.0426 1179.78 485.54
692 0 69.0695 12.0893 835 70.9892 1179.73 485.483
693 0 73.0495 13.5935 993 71.2699 1180.27 483.604
694 0 73.0544 13.0451 953 73.3274 1180.69 481.34
695 0 78.0825 13.3321 1041 72.6042 1180.16 479.924
696 0 78.1006 13.2265 1033 73.7851 1179.67 478.916
697 0 81.1094 12.7236 1032 74.7112 1179.75 478.581
698 0 83.1627 13.179 1096 73.7682 1178.81 477.885
699 0 85.2064 13.1328 1119 74.7936 1179.55 476.525
700 0 87.2352 13.7215 1197 74.5363 1179.5 474.366
701 0 91.4119 13.3571 1221 74.932 1178.76 473.396
702 0 92.3622 13.5986 1256 75.414 1179.05 470.532
703 0 98.3406 15.2124 1496 71.9325 1179.25 463.787
704 0 102.469 16.1707 1657 70.1406 1178.92 461.55
705 0 102.458 13.9667 1431 75.2152 1178.58 463.846
706 0 105.335 13.7846 1452 76.4518 1178.33 462.362
707 0 108.418 14.0014 1518 75.9025 1178.85 462.746
708 0 109.336 14.3685 1571 76.1069 1178.71 461.197
709 0 115.423 14.0786 1625 76.0917 1177.22 459.859
710 0 116.403 13.8484 1612 78.0887 1177.88 458.59
711 0 120.335 13.6868 1647 78.6327 1177.5 457.341
712 0 126.27 13.875 1752 78.3236 1177.72 454.365
713 0 129.147 14.077 1818 79.7129 1177.99 452.925
714 0 129.147 14.0693 1817 162.212 1179 452.822
715 1 67.1328 10.6952 718 71.6114 1178.18 485.961
716 0 69.1899 11.4901 795 70.3761 1178.3 485.478
717 0 73.148 12.5362 917 69.3828 1178.08 484.368
718 0 74.0948 11.7147 868 71.0565 1177.19 481.372
719 0 74.1018 11.6731 865 71.8682 1177.37 482.514
720 0 77.1058 11.7241 904 73.2898 1177.26 479.011
721 0 80.1773 10.9882 881 75.3303 1177.5 478.605
722 0 82.1748 11.2078 921 75.6189 1177.8 478.005
723 0 86.2052 11.1942 965 77.2539 1177.13 475.377
724 0 87.5329 12.6238 1105 76.6271 1177.07 469.287
725 0 92.4729 13.2904 1229 75.2897 1177.59 467.407
726 0 93.3732 11.952 1116 78.5081 1177.6 466.974
727 0 95.2691 11.8402 1128 78.9184 1176.53 467.405
728 0 96.2105 11.4125 1098 80.1257 1176.39 466.212
729 0 100.243 11.4821 1151 80.3501 1176.31 463.445
730 0 102.28 11.6347 1190 79.9059 1176.74 461.752
731 0 107.31 11.9932 1287 79.5051 1176.91 459.87
732 0 111.255 12.1523 1352 78.3284 1176.97 461.823
733 0 113.165 11.7351 1328 79.3072 1177.96 461.401
734 0 117.246 11.9663 1403 78.2416 1177.53 458.979
735 0 122.186 13.0702 1597 77.9806 1177.99 455.572
736 0 124.399 12.7091 1581 81.8988 1177.38 454.462
737 0 128.269 12.388 1589 84.1158 1177.37 449.407
738 0 132.296 12.85 1700 84.1024 1177.32 450.486
739 0 138.301 13.2392 1831 84.9541 1178.08 448.649
740 0 140.25 12.7701 1791 87.2563 1177.82 445.814
741 0 147.267 13.9407 2053 86.1364 1178.43 444.083
742 0 148.362 13.3457 1980 88.9313 1178.48 441.75
743 0 153.362 13.6865 2099 89.0667 1178.64 439.818
744 0 158.425 13.7731 2182 89.1072 1178.29 438.663
745 0 166.345 13.2916 2211 89.9964 1177.68 420.602
746 0 169.302 14.1995 2404 88.3852 1177.34 421.31
747 0 172.391 13.568 2339 90.5434 1177.65 421.787
748 0 180.34 13.9126 2509 90.9211 1177.8 421.591
749 0 187.287 13.5354 2535 90.9471 1177.52 420.794
750 0 190.266 13.7229 2611 91.6201 1177.22 414.117
751 0 194.323 13.9356 2708 92.2574 1177.67 410.308
752 0 194.323 13.9819 2717 158.02 1177.67 410.256
753 0 205.356 13.7371 2821 90.6558 1178.38 403.465
754 0 215.338 14.2149 3061 90.4619 1178.4 404.758
755 0 221.329 14.3813 3183 90.7883 1177.91 404.433
756 1 164.165 12.2194 2006 92.3295 1178.27 435.455
757 0 170.19 12.9855 2210 91.8842 1178.3 431.648
758 0 171.228 12.8834 2206 94.4361 1178.43 427.55
759 0 177.258 13.2632 2351 94.6134 1178.78 424.81
760 0 182.227 13.0441 2377 96.2899 1178.4 421.914
761 0 186.326 13.3852 2494 95.7386 1178.32 419.339
762 0 190.419 13.0186 2479 97.6971 1178.32 415.133
763 0 191.353 13.6136 2605 97.3094 1177.98 404.695
764 1 201.435 13.1556 2650 97.4242 1178.22 403.275
765 0 207.448 12.4899 2591 99.6963 1178.39 398.609
766 0 216.455 12.058 2610 100.596 1177.94 396.851
767 1 59.1038 9.11954 539 66.9907 1177.44 483.026
768 0 63.1069 10.5694 667 68.6672 1177.29 484.913
769 0 63.1377 10.6751 674 75.6098 1176.59 483.233
770 0 66.0829 11.2434 743 74.6568 1176.76 482.008
771 0 69.073 12.1031 836 73.5885 1177.44 479.313
772 0 70.1505 11.0334 774 76.2997 1177.49 476.873
773 0 72.1365 11.2426 811 76.3033 1178.13 478.576
774 0 73.2129 12.1427 889 76.9561 1177.44 476.132
775 0 74.1189 11.1577 827 79.9407 1176.88 477.088
776 0 76.2226 11.2434 857 79.8576 1176.75 473.741
777 0 79.2151 11.1469 883 79.9162 1177.87 471.757
778 0 81.2946 11.5383 938 80.5448 1177.71 471.966
779 0 82.2117 11.5069 946 81.1184 1177.25 470.678
780 0 85.2451 11.2265 957 81.3114 1177.15 469.308
781 1 49.14 11.3757 559 81.1288 1177.86 488.045
782 0 49.0198 10.3836 509 78.0079 1179.85 489.762
783 0 49.0439 10.4804 514 78.2763 1179.25 489.728
784 0 50.0128 10.0574 503 80.1014 1179.45 489.235
785 0 51.0227 9.44678 482 81.5353 1178.61 489.793
786 0 53.0427 10.6707 566 79.5141 1179.3 489.041
787 0 53.0306 9.54165 506 76.7846 1178.2 489.893
788 0 55.0328 10.6845 588 78.8929 1178.36 486.816
789 0 58.045 10.6986 621 74.0064 1177.08 483.987
790 0 60.0521 10.4076 625 74.784 1177.29 482.874
791 0 62.0712 10.939 679 73.919 1178.28 482.118
792 0 62.0675 10.8753 675 74.643 1178.32 484.418
793 0 65.0359 11.3015 735 74.7007 1178.34 483.593
794 0 66.1412 12.186 806 73.8623 1178.37 484.23
795 0 66.1121 12.4032 820 80.3549 1178.41 482.787
796 0 67.1194 12.7087 853 80.4959 1178.45 483.191
797 0 70.0751 12.4581 873 80.7801 1178.93 481.995
798 0 72.0152 13.3861 964 79.1898 1179.03 480.821
799 0 74.0683 13.8521 1026 77.9152 1177.72 479.298
800 0 75.1226 13.0587 981 79.9806 1178.57 478.88
801 0 77.0631 13.5344 1043 79.9377 1179.63 478.152
802 0 81.0949 14.5385 1179 77.1306 1179.35 477.069
803 0 81.1611 13.1713 1069 82.1394 1179.83 476.204
804 0 86.3064 14.2979 1234 79.9919 1180.6 474.746
805 0 87.3145 13.8465 1209 81.0347 1179.85 475.503
806 0 90.3432 14.622 1321 80.2846 1179.57 472.082
807 0 91.3047 13.57 1239 83.1469 1179.55 473.341
808 0 93.4863 13.5635 1268 84.0528 1179.47 471.45
809 0 97.5034 14.1123 1376 83.7507 1179.81 468.318
810 0 98.4432 14.0589 1384 83.7861 1179.38 466.35
811 0 102.406 14.2668 1461 85.0534 1179.51 465.725
812 1 58.2276 11.1974 652 81.9494 1180.47 488.175
813 0 59.193 12.1467 719 79.5146 1180.75 488.586
814 0 61.0484 12.3836 756 79.9272 1180.15 488.589
815 0 62.1477 12.8404 798 77.6817 1178.85 488.222
816 0 62.1477 12.776 794 139.516 1177.87 488.341
817 0 66.0832 12.8777 851 85.3831 1179.71 488.172
818 0 66.0807 13.2262 874 77.7265 1178.77 488.826
819 0 69.0952 12.9242 893 76.3987 1177.97 486.816
820 0 70.0611 11.9467 837 78.9032 1177.64 486.065
821 0 73.0839 12.6293 923 77.5341 1177.59 483.931
822 0 73.033 11.9535 873 78.4639 1177.18 485.068
823 0 77.038 12.6561 975 77.8544 1177.05 482.206
824 0 76.0651 12.2264 930 80.2258 1178.1 480.815
825 0 81.1335 12.7814 1037 78.1379 1178.11 480.671
826 0 83.1757 12.8884 1072 78.4198 1177.53 479.988
827 0 87.1631 14.4557 1260 75.9278 1176.84 475.399
828 0 93.2349 15.595 1454 72.0413 1176.51 470.701
829 0 98.2144 15.3745 1510 73.1762 1176.35 467.87
830 0 98.2734 16.0674 1579 78.285 1176.51 465.605
831 0 101.279 17.3481 1757 74.9744 1176.39 464.238
832 0 101.186 15.5653 1575 80.5956 1176.34 463.538
833 0 100.419 14.0909 1415 86.383 1176.62 466.342
834 0 104.13 12.7725 1330 82.8647 1175.75 468.053
835 0 108.142 12.687 1372 86.2762 1175.95 465.308
836 0 113.506 14.3076 1624 84.7894 1177.57 463.955
837 0 116.335 14.2089 1653 85.8863 1176.7 461.466
838 0 118.22 14.4984 1714 86.4755 1176.89 457.845
839 0 121.352 14.0253 1702 87.3484 1177.33 455.38
840 0 126.457 13.7675 1741 87.6439 1177.35 454.407
841 0 129.3 14.1454 1829 88.0935 1176.4 451.726
842 0 134.231 13.7971 1852 88.7046 1176.87 449.218
843 0 138.27 13.9148 1924 88.1798 1176.18 448.17
844 0 142.208 13.9162 1979 86.1652 1176.62 445.553
845 0 145.152 13.9923 2031 87.1891 1176.65 441.032
846 0 151.196 13.9421 2108 86.6537 1176.88 440.528
847 0 154.192 14.3912 2219 86.0951 1176.54 437.178
848 0 159.214 14.3203 2280 86.5991 1177.13 432.707
849 0 165.226 14.8282 2450 86.1698 1176.9 432.104
850 0 165.226 14.9008 2462 158.031 1175.9 432.116
851 0 175.297 14.2957 2506 87.0375 1176.38 427.392
852 0 182.366 14.767 2693 85.8251 1176.81 425.046
853 0 187.275 14.4974 2715 86.8593 1176.08 420.643
854 0 191.301 14.2603 2728 87.9428 1175.94 418.866
855 0 198.251 14.2295 2821 88.8327 1176.48 414.779
856 0 204.218 14.793 3021 87.4035 1176.38 410.524
857 0 210.269 14.1438 2974 88.2781 1176.8 407.904
858 0 217.328 14.4436 3139 88.0742 1176.64 406.244
859 0 224.391 15.1967 3410 86.7126 1176.48 405.042
860 0 230.495 15.1413 3490 87.0562 1177.04 400.754
861 1 62.0648 10.4568 649 75.4407 1178.92 487.361
862 0 63.0823 11.271 711 75.0211 1178.04 485.688
863 0 64.1063 11.9021 763 77.1861 1177.69 483.588
864 0 66.1351 12.3384 816 78.2218 1177.32 482.528
865 0 69.2361 12.2191 846 80.1028 1177.72 479.087
866 0 68.1238 11.5525 787 79.0216 1178.11 473.639
867 0 69.1116 13.0948 905 77.5735 1178.23 475.255
868 0 71.2286 11.9334 850 72.9871 1178.06 480.348
869 0 74.1412 11.7074 868 72.6832 1177.31 479.038
870 0 78.1343 12.1329 948 71.5032 1176.71 476.362
871 0 79.1425 11.89 941 72.2731 1176.19 475.891
872 0 83.1432 11.4261 950 73.3758 1176.83 473.583
873 0 84.2267 10.4242 878 76.0091 1176.76 473.499
874 0 88.1477 11.3786 1003 74.7757 1177.04 472.721
875 0 92.2757 11.3248 1045 75.6794 1176.91 469.946
876 0 94.1966 11.338 1068 77.1002 1175.71 467.075
877 0 97.1897 11.493 1117 77.5004 1175.44 465.481
878 0 103.167 11.8546 1223 79.3475 1176.11 462.828
879 0 105.298 11.1778 1177 80.8496 1175.6 458.8
880 0 108.191 11.3503 1228 81.7191 1175.61 460.816
881 0 108.202 11.6541 1261 126.417 1175.65 461.19
882 0 116.206 11.841 1376 82.2028 1175.68 456.991
883 0 123.175 12.5513 1546 80.1145 1176.66 454.23
884 0 124.213 11.6574 1448 84.3743 1176.24 448.823
885 0 125.309 11.2442 1409 85.9837 1176.99 449.682
886 1 71.1989 10.1687 724 78.8881 1177.46 480.731
887 0 74.1767 11.1625 828 79.8261 1177.1 477.787
888 0 78.1247 12.1344 948 76.8344 1177.75 478.459
889 0 79.1184 12.1843 964 80.8434 1178.69 477.141
890 0 84.1008 12.4375 1046 82.9512 1178.61 473.366
891 0 85.0895 12.763 1086 82.2541 1178.11 474.535
892 0 86.1958 12.576 1084 72.3404 1177.31 473.258
893 0 89.1915 12.0415 1074 72.852 1176.65 472.882
894 0 97.2335 15.2005 1478 65.818 1177.03 465.363
895 0 96.4381 14.3927 1388 69.2579 1177.26 466.029
896 0 98.3232 13.5166 1329 70.6764 1177.5 465.849
897 0 98.3357 11.5014 1131 74.7339 1177.2 466.313
898 0 101.258 12.1965 1235 74.2113 1177.23 465.253
899 0 104.243 12.0776 1259 80.6998 1177.49 461.739
900 0 110.366 12.9116 1425 83.1768 1177.81 460.263
901 0 112.315 13.3731 1502 82.3529 1178.51 458.628
902 0 114.323 12.5172 1431 84.2034 1177.48 456.856
903 0 117.226 12.8811 1510 83.3556 1178.75 454.571
904 0 120.119 13.2452 1591 82.1823 1177.81 451.896
905 0 123.255 13.33 1643 81.8667 1178.83 450.248
906 0 125.17 12.6388 1582 82.993 1177.49 447.625
907 0 129.192 11.7655 1520 82.6651 1178.55 445.384
908 0 131.601 13.1078 1725 82.0707 1177.54 443.183
909 0 134.648 13.6578 1839 83.9581 1177.2 445.591
910 0 138.508 13.4288 1860 86.5801 1177.1 442.531
911 0 142.546 13.0835 1865 87.3523 1177.12 440.559
912 0 146.688 13.0685 1917 87.1607 1177.34 439.153
913 0 150.472 13.7501 2069 86.7313 1177.88 436.296
914 0 158.695 13.9009 2206 86.4751 1177.82 432.006
915 0 160.59 13.3508 2144 88.6581 1177.68 430.837
916 0 166.697 13.8934 2316 87.6088 1177.87 428.798
917 0 173.701 13.7075 2381 88.1882 1178.3 426.236
918 0 178.558 13.2282 2362 88.9115 1178.06 422.941
919 0 184.436 13.7446 2535 86.8229 1178.88 420.241
920 0 190.344 13.733 2614 86.689 1178.11 415.688
921 0 197.452 13.188 2604 86.611 1178.58 415.137
922 0 205.506 13.6152 2798 85.3842 1178.27 411.749
923 0 210.449 13.78 2900 86.0283 1178.6 402.129
924 1 160.163 12.6184 2021 85.5908 1178.86 434.184
925 0 165.339 12.6528 2092 85.2008 1178.98 434.251
926 0 169.224 13.3787 2264 84.0879 1178.71 430.317
927 0 174.219 13.3051 2318 84.4068 1177.59 427.415
928 0 179.255 13.3497 2393 85.5926 1177.84 423.567
929 0 184.401 13.2537 2444 86.0589 1177.59 423.54
930 0 189.3 13.7929 2611 85.612 1176.87 422.606
931 0 195.275 13.376 2612 87.353 1176.29 417.439
932 0 200.476 13.4879 2704 87.0699 1177.01 415.778
933 0 206.39 13.6828 2824 87.5832 1176.36 414.975
934 0 213.382 14.4858 3091 86.471 1176.01 411.457
935 0 220.638 14.6348 3229 89.4831 1175.83 407.171
936 0 227.659 13.9419 3174 93.2048 1176.24 403.416
937 0 236.541 14.9403 3534 91.603 1176.05 400.126
938 0 243.632 14.801 3606 91.5083 1175.79 395.521
939 1 174.355 12.5147 2182 92.0536 1175.39 429.528
940 0 181.331 13.1748 2389 90.7405 1175.01 428.253
941 0 185.411 13.0899 2427 90.8739 1175.34 424.397
942 0 191.178 12.7839 2444 88.2541 1175.33 420.162
943 0 196.514 13.3426 2622 85.1358 1174.95 417.769
944 0 201.301 13.0352 2624 85.9889 1175.17 414.37
945 0 206.419 12.213 2521 88.543 1174.97 409.073
946 0 211.458 12.7023 2686 88.6091 1175.15 403.249
947 0 216.51 12.6553 2740 89.1062 1174.43 400.524
948 0 223.537 12.839 2870 89.6767 1174.57 395.516
949 0 230.384 13.2344 3049 88.0354 1174.65 397.81
950 0 235.328 12.8629 3027 90.443 1175.12 391.52
951 0 244.431 12.7275 3111 98.4931 1175.01 386.181
952 0 255.44 12.9619 3311 98.5642 1175.64 385.908
953 1 61.0523 8.63194 527 79.888 1176.2 492.558
954 0 61.0682 9.31745 569 79.6046 1176.95 491.594
955 0 61.1839 11.2938 691 81.0391 1177.16 489.158
956 0 60.106 11.2302 675 69.24 1177.75 490.505
957 0 62.2006 12.315 766 66.6305 1176.92 487.991
958 0 62.0888 11.9023 739 68.8309 1176.68 489.467
959 0 64.1309 11.0399 708 70.4548 1176.8 488.75
960 0 65.0807 11.0632 720 69.075 1175.21 488.907
961 0 67.0963 10.9395 734 68.9074 1175.67 486.139
962 0 67.0524 11.3195 759 69.9051 1176.25 485.584
963 0 70.1156 11.9374 837 71.601 1176.57 482.579
964 0 72.137 10.5632 762 70.1549 1176.45 481.978
965 0 73.0475 10.2673 750 70.1027 1176.22 480.512
966 0 78.0803 11.2448 878 67.5387 1175.71 481.86
967 0 81.1965 11.3921 925 67.6519 1175.4 477.055
968 0 81.1956 11.577 940 73.3404 1176.56 475.307
969 0 85.2147 11.6177 990 70.5697 1177.82 476.089
970 1 45.0973 9.46843 427 70.5574 1177.74 493.274
971 0 47.1246 10.6102 500 69.848 1179.85 491.694
972 0 50.0634 11.2458 563 64.2948 1179.77 489.531
973 0 50.2764 11.6556 586 63.8737 1179.35 490.65
974 0 52.2143 12.6402 660 61.7348 1180.08 489.195
975 0 53.2109 12.178 648 62.7485 1180.5 489.784
976 0 55.2139 12.352 682 62.9501 1180.4 488.801
977 0 56.1392 12.3087 691 63.5311 1179.86 487.188
978 0 57.2262 11.9176 682 63.9311 1180.03 487.582
979 0 58.2327 11.8834 692 72.3512 1179.82 487.451
980 0 58.2054 12.748 742 73.3369 1180.76 486.996
981 0 60.2417 11.4539 690 73.3812 1180.16 489.619
982 0 62.1395 11.8121 734 74.2289 1180.26 488.995
983 0 61.0719 11.773 719 63.7928 1179.49 487.797
984 0 61.0839 11.4269 698 64.6175 1179.44 486.08
985 0 65.1049 11.5659 753 63.9363 1178.95 485.745
986 0 64.1005 11.2168 719 64.5828 1178.69 482.59
987 0 65.2181 11.0092 718 64.7256 1178.62 482.795
988 0 70.223 12.5742 883 61.0623 1177.45 482.646
989 0 70.2369 11.7602 826 63.2215 1177.6 481.148
990 0 73.1171 11.2149 820 63.5439 1177.37 478.411
991 0 73.1402 12.1137 886 62.8059 1177.42 475.354
992 0 74.1134 11.2935 837 64.3345 1176.79 475.379
993 0 78.2625 10.8737 851 62.6745 1177.49 473.343
994 0 81.1367 11.4991 933 64.1426 1177.88 473.693
995 0 84.1815 11.1545 939 64.9979 1177.64 470.283
996 0 86.1744 11.3491 978 64.6442 1177.15 469.978
997 0 89.1089 10.4142 928 65.4332 1177.29 469.213
998 0 93.1385 11.5312 1074 63.4804 1177.88 467.553
999 0 97.3062 11.88 1156 64.0026 1178.66 463.78
1000 1 54.2102 9.92432 538 64.6357 1178.61 486.753
1001 0 55.2807 9.4789 524 65.0286 1179.22 485.126
1002 0 59.2629 11.4743 680 62.8324 1178.83 483.809
1003 0 62.0385 11.6379 722 63.6011 1178.02 483.539
1004 0 62.0908 11.9341 741 67.3036 1178.3 483.316
1005 0 64.0351 12.3526 791 64.0013 1178.18 483.07
1006 0 67.0976 12.0123 806 63.9417 1178.55 481.963
1007 0 67.0384 11.3517 761 65.0552 1178.79 479.304
1008 0 69.0662 12.1622 840 64.8286 1179.33 480.781
1009 0 72.132 11.9364 861 66.9593 1178.76 480.166
1010 0 74.0158 12.6054 933 69.9914 1177.63 477.566
1011 0 75.059 12.0838 907 71.6582 1177.97 477.337
1012 0 76.0594 12.2799 934 71.9561 1178.13 475.502
1013 0 81.1649 12.9982 1055 70.9934 1177.91 473.536
1014 0 84.1572 12.5242 1054 72.3216 1177.02 475.427
1015 0 88.1497 14.3052 1261 69.935 1177.85 473.531
1016 0 93.1429 14.8267 1381 69.9529 1177.25 469.057
1017 0 98.1849 15.9495 1566 66.7241 1177.85 463.547
1018 0 98.0896 16.2199 1591 67.6776 1178.05 464.764
1019 0 101.234 15.242 1543 71.1899 1178.72 464.531
1020 0 101.223 13.732 1390 77.6935 1178.3 463.553
1021 0 105.211 14.01 1474 77.4437 1178.36 464.296
1022 0 108.132 12.8731 1392 73.6868 1179.26 461.433
1023 0 111.142 13.1903 1466 75.2142 1179.51 459.728
1024 0 116.224 13.7063 1593 76.5775 1179.9 458.181
1025 0 119.14 13.7654 1640 76.4201 1179.63 456.858
1026 0 123.126 13.3359 1642 77.6382 1179.75 453.365
1027 0 128.183 13.746 1762 76.9109 1179.47 453.175
1028 1 71.1495 11.6515 829 70.62 1179.2 483.323
1029 0 73.1419 11.7443 859 71.8661 1178.25 481.095
1030 0 77.138 12.8341 990 71.6879 1178.21 478.838
1031 0 80.1157 11.6706 935 71.1241 1178.08 479.003
1032 0 82.2125 11.227 923 72.8884 1179.32 478.598
1033 0 85.1686 11.988 1021 72.6474 1178.98 475.021
1034 0 90.231 13.809 1246 69.0048 1178.97 469.658
1035 0 97.2106 14.6178 1421 66.5362 1177.99 466.543
1036 0 93.2563 11.6882 1090 74.2165 1178.7 468.717
1037 0 100.276 14.1609 1420 69.6063 1178.75 466.627
1038 0 100.255 12.568 1260 73.0389 1178.81 467.067
1039 0 103.226 13.1653 1359 72.9117 1178.97 465.225
1040 0 108.299 13.2504 1435 73.9164 1178.71 465.346
1041 0 110.291 12.8296 1415 76.7972 1179.25 463.094
1042 0 115.21 12.9156 1488 74.7446 1178.49 461.224
1043 0 118.252 13.0146 1539 76.0962 1178.47 459.935
1044 0 122.443 13.6145 1667 80.4973 1177.94 457.749
1045 1 60.1791 12.0806 727 76.3439 1178.84 489.607
1046 0 62.1074 11.3513 705 69.1631 1178.23 483.451
1047 0 66.0526 13.4438 888 73.0957 1178.63 484.711
1048 0 64.1914 12.6497 812 72.5764 1179.27 487.079
1049 0 67.2816 12.9456 871 72.1125 1178.84 487.848
1050 0 77.2736 15.6586 1210 63.7116 1177.89 480.346
1051 0 78.2114 16.3531 1279 64.2025 1177.54 479.196
1052 0 78.1831 15.2591 1193 67.0788 1178.46 477.323
1053 0 79.2399 14.7905 1172 69.3285 1177.53 479.242
1054 0 81.2761 13.8171 1123 74.1309 1177.85 477.555
1055 0 81.1914 13.0679 1061 78.5514 1177.88 479.315
1056 0 83.213 12.7624 1062 79.6412 1178.47 478.02
1057 0 87.2997 13.3907 1169 79.2062 1177.84 477.211
1058 0 90.2559 13.4506 1214 80.6178 1177.96 475.167
1059 0 92.1394 12.6547 1166 83.2933 1177.99 474.439
1060 0 95.2468 13.8167 1316 83.8602 1178.5 474.448
1061 0 100.337 16.0758 1613 78.6925 1178.33 468.529
1062 0 104.326 16.0267 1672 79.8307 1177.99 466.268
1063 0 107.193 14.805 1587 83.0176 1176.96 470.072
1064 0 108.278 13.8532 1500 87.2387 1177.67 468.675
1065 0 110.212 14.0456 1548 88.812 1177.58 466.448
1066 1 57.0877 11.7013 668 85.8997 1178.17 490.019
1067 0 61.0746 11.8707 725 87.5531 1178.03 491.343
1068 0 63.1178 12.849 811 90.2639 1178.66 489.293
1069 0 67.1889 14.0351 943 93.4539 1178.49 489.293
1070 0 67.1623 14.4426 970 94.6299 1178.03 487.947
1071 0 69.2423 13.2722 919 92.6714 1177.64 488.005
1072 0 70.2032 13.1476 923 93.9816 1177.79 486.191
1073 0 72.29 13.7778 996 87.747 1177.99 486.593
1074 0 76.2952 13.9327 1063 87.6867 1178.18 484.862
1075 0 79.1543 14.2633 1129 91.992 1177.4 483.817
1076 0 80.15 13.874 1112 93.3768 1177.8 481.923
1077 0 81.1426 13.8768 1126 95.4716 1178.14 481.555
1078 0 83.1456 13.8432 1151 95.152 1176.96 479.659
1079 0 87.1764 14.0061 1221 93.9427 1177.97 479.017
1080 0 88.1559 14.5424 1282 93.1966 1177.93 478.25
1081 0 93.1576 14.8566 1384 92.6712 1177.3 475.262
1082 0 94.2008 14.1931 1337 95.4435 1177.28 474.117
1083 0 101.347 16.7642 1699 86.5668 1178.34 469.979
1084 0 101.245 15.8822 1608 90.0983 1178.75 469.526
1085 0 102.276 14.9986 1534 93.3435 1178.14 469.031
1086 0 103.308 14.6649 1515 94.3116 1178.37 470.786
1087 0 107.334 14.795 1588 93.9855 1177.97 469.006
1088 0 109.374 14.7201 1610 94.4385 1178.36 467.257
1089 0 113.444 14.1215 1602 106.433 1178.71 465.535
1090 0 116.2 14.4407 1678 105.875 1179.07 463.552
1091 0 122.425 14.7845 1810 104.775 1178.87 461.7
1092 0 125.151 14.5025 1815 106.096 1178.52 459.268
1093 0 131.212 15.1053 1982 104.35 1178.31 456.479
1094 0 136.212 15.4025 2098 103.862 1177.81 454.585
1095 1 72.1208 12.4652 899 99.9744 1178.73 485.445
1096 0 74.1247 12.1552 901 103.658 1178.78 484.336
1097 0 75.2952 13.2545 998 103.309 1178.28 482.728
1098 0 79.2397 13.4907 1069 103.106 1177.98 482.321
1099 0 80.1086 13.4817 1080 108.252 1177.81 485.018
1100 0 83.0783 13.9868 1162 106.676 1179.01 483.198
1101 0 86.1132 13.9235 1199 106.133 1179.27 480.509
1102 0 86.129 13.4914 1162 108.441 1178.23 478.096
1103 0 97.1484 16.2947 1583 96.2761 1178.1 471.416
1104 0 97.1749 17.1855 1670 95.3988 1178.32 471.151
1105 0 101.208 16.9651 1717 95.5376 1177.95 470.066
1106 0 100.093 15.3058 1532 102.261 1178.03 469.32
1107 0 103.22 14.4352 1490 104.086 1177.38 466.943
1108 0 106.297 13.801 1467 108.58 1176.8 467.089
1109 0 110.256 14.0853 1553 106.934 1177.22 466.458
1110 0 115.262 14.2805 1646 105.781 1177.42 464.859
1111 0 117.137 14.1032 1652 106.386 1177.55 462.837
1112 0 122.136 14.1891 1733 105.706 1177.68 459.409
1113 0 125.145 13.9119 1741 106.978 1177.76 458.725
1114 0 129.174 13.5322 1748 108.032 1178.04 455.385
1115 0 136.222 14.2635 1943 105.586 1177.84 454.27
1116 1 77.2392 11.6133 897 102.521 1178.01 483.615
1117 0 79.394 12.4946 992 101.703 1178.54 481.048
1118 0 81.2523 12.9842 1055 103.639 1178.23 480.634
1119 0 84.3355 13.5767 1145 105.834 1178.52 477.362
1120 0 86.2118 13.7452 1185 106.548 1177.96 476.352
1121 0 90.2591 13.2175 1193 107.771 1178.56 475.487
1122 0 90.2507 13.0747 1180 109.742 1178.28 474.292
1123 0 94.2925 13.3839 1262 109.33 1178.43 472.692
1124 0 97.1986 13.6627 1328 108.66 1178.14 471.38
1125 0 98.1822 13.8111 1356 111.399 1178.2 468.114
1126 0 102.214 13.3837 1368 112.06 1178.3 466.723
1127 0 106.174 14.0523 1492 110.225 1177.76 465.734
1128 0 108.195 13.6235 1474 112.55 1178.22 465.236
1129 0 111.098 13.9696 1552 111.216 1179.3 462.299
1130 0 112.176 13.3718 1500 113.513 1178.71 460.896
1131 0 119.283 13.8662 1654 111.621 1178.94 458.963
1132 0 123.1 13.5662 1670 111.805 1179.17 458.711
1133 1 68.1018 11.6297 792 110.547 1179.32 486.048
1134 0 69.1442 12.4089 858 108.608 1178.78 484.61
1135 0 73.1179 12.938 946 106.656 1178.6 483.27
1136 0 72.1507 13.1392 948 102.692 1178.23 484.088
1137 0 74.1357 13.1516 975 101.893 1178.55 482.982
1138 0 78.2075 13.4642 1053 102.185 1178.12 481.149
1139 0 79.2197 12.9513 1026 104.314 1178.81 479.674
1140 0 82.1794 13.1785 1083 104.319 1178.39 478.841
1141 0 85.2533 12.8675 1097 103.94 1177.92 479.787
1142 0 91.3598 14.9081 1362 95.7548 1177.62 472.404
1143 0 92.4725 14.9342 1381 101.404 1177.76 469.316
1144 0 93.3415 12.9203 1206 106.873 1178.31 468.591
1145 0 94.3654 13.0344 1230 106.572 1177.53 467.446
1146 0 100.28 15.0279 1507 99.1161 1177.67 465.563
1147 0 100.371 13.9483 1400 105.854 1178.03 465.286
1148 0 103.242 12.9986 1342 106.053 1176.87 465.11
1149 0 109.143 11.8927 1298 99.6317 1177.17 465.069
1150 0 115.196 12.2834 1415 85.9435 1177.7 462.29
1151 1 62.0619 11.4402 710 81.1338 1178.73 490.87
1152 0 63.1165 11.6134 733 83.9618 1178.36 489.333
1153 0 66.2792 12.0098 796 86.0967 1177.8 487.861
1154 0 67.2621 12.0424 810 89.442 1178.28 486.322
1155 0 68.3077 12.3119 841 83.1094 1178.27 486.323
1156 0 70.1988 11.1113 780 80.3013 1178 486.604
1157 0 72.2113 11.4387 826 81.523 1177.24 483.969
1158 0 74.1742 11.7291 870 80.9586 1177.66 484.878
1159 0 75.1737 12.2915 924 81.6407 1176.9 482.297
1160 0 79.1094 12.6154 998 81.9639 1177.69 481.516
1161 0 80.1444 12.5898 1009 84.2012 1177.2 478.577
1162 0 86.2896 12.713 1097 84.1367 1176.05 477.642
1163 0 86.1999 12.8422 1107 86.9413 1176.32 476.569
1164 0 90.2627 12.7627 1152 87.5868 1176.21 474.81
1165 0 93.2741 12.2649 1144 88.9012 1176.26 473.125
1166 0 97.2502 12.7609 1241 87.8284 1176.12 473.06
1167 0 99.2781 13.3262 1323 87.5941 1176.18 470.194
1168 0 104.265 13.1204 1368 88.1542 1175.44 469.522
1169 0 109.22 15.5191 1695 82.9499 1175.52 465.118
1170 0 108.218 13.3989 1450 89.9428 1176.21 464.508
1171 0 111.317 13.6817 1523 89.0256 1176.29 465.292
1172 0 113.178 13.0856 1481 90.7367 1176.74 463.272
1173 0 118.097 13.5312 1598 89.5989 1176.56 461.014
1174 0 119.353 13.3889 1598 90.7854 1176.79 460.674
1175 0 124.362 13.8467 1722 91.8484 1176.65 458.347
1176 0 130.241 13.8513 1804 90.7855 1177.03 455.619
1177 1 70.0542 11.7623 824 81.3823 1177.52 487.42
1178 0 71.0464 11.7388 834 82.9832 1177.48 486.727
1179 0 75.11 12.6348 949 82.0316 1176.62 483.869
1180 0 77.1938 12.1642 939 83.344 1176.58 482.985
1181 0 79.1499 12.4195 983 83.8881 1175.9 482.732
1182 0 80.2528 12.0494 967 86.8294 1176.38 483.101
1183 0 84.1852 12.8407 1081 86.2331 1176.8 482.376
1184 0 92.542 15.7982 1462 77.775 1176.7 467.375
1185 0 91.2431 15.1573 1383 80.5973 1176.8 468.014
1186 0 95.228 14.9011 1419 81.9789 1176.44 467.55
1187 0 96.2127 14.998 1443 84.5627 1177.24 467.762
1188 0 97.3313 13.1304 1278 93.2559 1176.32 468.029
1189 0 98.2 12.9124 1268 95.4274 1175.95 469.435
1190 0 102.264 13.6607 1397 93.3257 1177.26 468.868
1191 0 105.314 14.0722 1482 93.0823 1176.67 466.369
1192 0 108.268 14.0762 1524 93.6745 1177.33 465.64
1193 0 110.316 14.0233 1547 94.2689 1176.58 462.954
1194 0 113.268 14.267 1616 94.591 1176.95 461.81
1195 0 117.361 13.6928 1607 96.0591 1176.59 459.827
1196 0 117.306 13.4435 1577 98.1503 1177.51 458.982
1197 0 124.307 14.1183 1755 95.3442 1177.1 458.41
1198 0 127.276 13.8518 1763 97.3012 1177.63 454.664
1199 0 132.373 14.4894 1918 95.5605 1177.3 454.839
1200 0 136.347 14.1771 1933 95.9152 1176.75 452.711
1201 0 141.254 14.52 2051 95.6972 1176.97 451.349
1202 1 77.2485 12.1167 936 91.2137 1176.45 483.175
1203 0 78.2149 11.8008 923 95.0293 1176.15 481.785
1204 0 82.0954 12.8631 1056 93.7708 1177.19 480.42
1205 0 86.1344 12.7823 1101 93.2035 1177.44 479.859
1206 0 86.1227 12.9815 1118 93.6601 1177.93 479.675
1207 0 89.3866 12.8207 1146 95.2539 1177.83 477.188
1208 0 92.1983 13.8506 1277 93.8958 1178.13 473.532
1209 0 97.1796 14.7356 1432 90.9588 1177.96 470.214
1210 0 98.3495 15.8516 1559 89.3201 1178.36 470.208
1211 0 103.26 15.6499 1616 88.6355 1177.31 467.663
1212 0 104.314 14.8302 1547 91.3452 1177.57 467.393
1213 0 106.223 13.6787 1453 94.4081 1177.21 467.857
1214 0 107.326 13.268 1424 96.2233 1178.22 467.553
1215 0 112.203 13.3508 1498 95.3344 1177.93 464.786
1216 0 116.285 13.5615 1577 95.3297 1177.91 462.964
1217 0 116.264 13.564 1577 150.005 1176.9 462.879
1218 0 124.313 14.0694 1749 95.8268 1178.03 458.476
1219 0 128.314 13.8332 1775 97.5797 1177.59 458.362
1220 0 132.168 14.3227 1893 98.3492 1177.27 457.087
1221 1 71.1932 13.3018 947 92.2144 1176.56 487.429
1222 0 73.2261 13.711 1004 91.2898 1177.12 485.342
1223 0 75.2548 13.049 982 93.3951 1177.7 485.711
1224 0 77.252 13.4365 1038 93.8015 1177.17 481.249
1225 0 79.2901 13.2299 1049 94.9228 1177.22 479.653
1226 0 82.2769 13.1872 1085 94.5945 1177 477.562
1227 0 85.2457 13.4318 1145 94.4297 1177.32 476.11
1228 0 89.272 12.994 1160 94.9181 1177.34 473.792
1229 0 92.4091 13.5484 1252 92.8331 1177.32 473.589
1230 0 92.3332 13.3213 1230 97.8813 1177.4 470.615
1231 0 98.2658 14.0334 1379 93.1109 1177.69 469.322
1232 0 101.267 14.2988 1448 92.3895 1177.18 467.392
1233 0 101.337 13.7759 1396 94.3138 1177.15 465.908
1234 0 106.249 13.5154 1436 94.4582 1177.34 463.594
1235 0 109.352 13.8544 1515 93.7947 1177.62 463.077
1236 1 58.1721 12.0333 700 87.54 1177.54 489.179
1237 0 60.1238 12.3246 741 88.247 1177.7 487.312
1238 0 61.1541 13.2616 811 87.4414 1178.57 489.856
1239 0 64.1348 13.2378 849 88.8033 1177.83 486.584
1240 0 65.222 12.5418 818 91.3936 1177.95 488.292
1241 0 67.1411 13.5684 911 82.7179 1178.39 485.413
1242 0 68.158 12.8672 877 93.3957 1178.11 483.746
1243 0 71.2487 13.3195 949 91.4289 1177.96 481.556
1244 0 72.2521 13.3283 963 92.7965 1177.36 478.814
1245 0 75.1577 13.0126 978 93.0828 1177.95 476.503
1246 0 76.2335 13.1701 1004 94.8436 1178.67 474.548
1247 0 78.2889 13.0414 1021 95.5828 1178.05 472.52
1248 0 81.3007 12.9642 1054 96.4611 1177.69 472.79
1249 0 84.1983 13.5395 1140 95.893 1177.27 470.725
1250 0 85.2754 14.3887 1227 95.2461 1177.03 469.183
1251 0 87.1489 13.6204 1187 98.7169 1177.88 468.614
1252 0 90.2101 13.4242 1211 100.817 1177.36 466.825
1253 0 94.1986 14.3208 1349 98.9792 1178.71 467.205
1254 0 96.2935 13.7185 1321 102.38 1177.3 467.676
1255 0 103.285 17.1661 1773 92.5877 1178.88 460.525
1256 0 104.288 15.1695 1582 98.6037 1178.17 457.204
1257 0 105.324 14.6215 1540 102.462 1179.06 458.443
1258 0 108.357 14.5998 1582 103.678 1178.75 456.197
1259 0 111.408 14.1193 1573 104.638 1177.45 454.978
1260 0 111.408 14.1911 1581 134.581 1176.45 454.894
1261 0 121.434 14.3617 1744 104.275 1177.85 451.532
1262 0 125.373 14.2535 1787 105.407 1177.87 447.651
1263 0 128.246 14.8386 1903 105.079 1177.93 446.446
1264 0 131.355 14.3961 1891 106.381 1177.65 445.129
1265 0 137.263 14.2063 1950 106.711 1177.37 442.906
1266 0 142.262 14.6701 2087 105.782 1177.7 442.601
1267 1 50.2325 10.3519 520 94.6019 1178.12 488.629
1268 0 53.2382 11.5331 614 93.4495 1177.79 486.352
1269 0 56.1841 11.8005 663 93.8371 1177.43 484.979
1270 0 58.1656 11.7939 686 96.4213 1177.23 485.52
1271 0 63.1475 13.2547 837 90.9785 1176.75 485.996
1272 0 64.1143 13.2576 850 91.8353 1177.22 484.195
1273 0 64.252 12.9801 834 93.94 1177.43 483.904
1274 0 66.3964 13.2838 882 93.856 1177.18 482.838
1275 0 68.1737 12.6882 865 95.1861 1177.28 480.673
1276 0 68.296 12.6655 865 95.9561 1177.03 480.539
1277 0 72.269 13.4359 971 93.8867 1176.87 477.421
1278 0 76.258 13.769 1050 92.6914 1177.61 477.349
1279 0 81.3353 16.4381 1337 83.9215 1176.53 471.985
1280 0 85.2248 16.6032 1415 82.5258 1177.33 471.228
1281 0 85.2595 17.4291 1486 125.983 1178.35 469.921
1282 0 88.2513 16.9743 1498 82.227 1176.57 469.947
1283 0 91.2204 17.3097 1579 81.8227 1176.95 468.037
1284 0 93.2095 16.9189 1577 84.1788 1177.12 466.495
1285 0 96.2673 15.9036 1531 86.6146 1177.22 466.236
1286 0 97.2271 16.1889 1574 86.8717 1177.42 465.043
1287 0 99.3911 14.8102 1472 90.9912 1177.63 465.047
1288 0 101.378 13.3263 1351 95.7343 1177.18 465.362
1289 1 57.1444 11.1822 639 90.277 1177.47 489.072
1290 0 58.0753 12.4321 722 89.1233 1177.49 487.738
1291 0 62.2053 11.9604 744 91.2419 1177.72 486.93
1292 0 62.1702 12.707 790 90.5241 1177.89 484.954
1293 0 65.2355 12.5085 816 90.5441 1177.53 484.001
1294 0 66.2129 12.8827 853 90.3001 1176.88 481.994
1295 0 66.2008 12.3715 819 92.5971 1176.44 480.298
1296 0 70.2495 13.1958 927 90.246 1176.67 479.588
1297 0 71.2114 12.7789 910 92.5484 1176.54 477.402
1298 0 74.1378 12.9623 961 91.3944 1176.36 476.809
1299 0 75.0933 12.5444 942 93.6635 1176.6 474.209
1300 0 78.2038 13.1707 1030 91.6524 1176.15 474.279
1301 0 79.1928 12.6779 1004 93.9612 1177.01 471.803
1302 0 82.16 13.1451 1080 93.1241 1176.68 473.09
1303 0 86.1885 13.6561 1177 92.2897 1176.94 472.394
1304 0 87.2275 13.9406 1216 92.9128 1177.12 471.731
1305 1 97.1358 17.1307 1664 82.3636 1176.69 464.05
1306 0 94.2898 16.8735 1591 86.863 1176.96 465.167
1307 0 101.272 17.0925 1731 85.1681 1176.2 463.148
1308 0 100.198 16.6869 1672 89.4013 1176.59 463.309
1309 0 103.194 16.9778 1752 89.4618 1175.83 462.62
1310 0 103.138 16.0852 1659 93.6028 1176.19 460.755
1311 0 109.236 16.4598 1798 91.7214 1175.56 461.009
1312 0 111.103 14.8961 1655 97.0973 1176 460.182
1313 0 113.173 14.226 1610 98.7174 1175.79 459.279
1314 0 115.213 14.3908 1658 98.8679 1176.14 459.79
1315 0 118.156 14.4131 1703 99.3382 1175.57 458.092
1316 0 124.122 15.0175 1864 97.1035 1176.24 456.587
1317 0 126.137 14.2465 1797 99.2437 1176.16 453.634
1318 0 130.104 14.8804 1936 97.4649 1175.62 450.774
1319 0 133.132 15.3081 2038 96.2242 1176.36 450.079
1320 0 136.247 14.4663 1971 98.3795 1176.82 446.685
1321 0 138.363 14.4114 1994 99.0978 1176.89 446.668
1322 0 144.348 14.5066 2094 97.3777 1176.42 442.207
1323 0 148.528 14.0849 2092 98.7075 1176.85 439.616
1324 0 154.606 14.0163 2167 98.461 1176.77 436.515
1325 0 157.426 13.8922 2187 98.5615 1178.39 433.492
1326 1 99.1169 14.5182 1439 65.4024 1179.05 465.229
1327 0 97.0934 14.4088 1399 67.4074 1176.57 461.899
1328 0 97.0934 14.4191 1400 104.993 1174.56 461.886
1329 0 98.1248 13.4115 1316 71.3032 1177.32 462.087
1330 0 102.29 12.9045 1320 71.3561 1177.29 463.652
1331 0 102.251 11.1392 1139 79.8929 1177.02 458.077
1332 0 106.231 10.8443 1152 84.6788 1177.1 461.875
1333 0 109.119 10.5939 1156 83.7171 1176.54 462.141
1334 0 112.185 11.1067 1246 84.3764 1176.36 461.136
1335 0 116.111 11.3254 1315 85.4137 1176.98 456.713
1336 0 118.163 11.0102 1301 86.7656 1176.3 456.184
1337 0 123.111 11.1363 1371 85.8417 1175.95 453.549
1338 0 124.225 11.3342 1408 86.8736 1176.57 450.204
1339 0 131.174 11.5419 1514 87.2583 1176.63 448.429
1340 0 134.131 11.526 1546 87.1552 1177.57 447.583
1341 0 139.223 10.9967 1531 87.8406 1177.25 445.197
1342 0 144.216 11.885 1714 86.4008 1177.18 441.549
1343 0 147.224 10.9697 1615 88.026 1177.3 440.05
1344 0 151.233 10.9764 1660 86.9536 1177.55 438.064
1345 0 155.169 10.6014 1645 87.6407 1177.11 437.533
1346 0 158.574 10.4557 1658 88.085 1177.22 436.214
1347 0 163.464 11.0238 1802 86.7752 1176.86 430.139
1348 0 167.701 10.4114 1746 88.0722 1176.49 431.07
1349 1 91.1691 8.96137 817 74.0698 1176.94 473.081
1350 0 91.1726 9.16942 836 103.697 1176.97 473.476
1351 0 95.198 8.27749 788 75.9746 1176.61 464.407
1352 0 99.1731 9.24646 917 75.0971 1176.32 465.105
1353 0 103.278 9.33402 964 79.5809 1176.45 464.791
1354 0 107.232 9.55869 1025 78.3132 1176.41 462.077
1355 0 110.275 9.38564 1035 78.6676 1176.15 457.552
1356 0 113.154 8.7226 987 80.7771 1174.99 451.617
1357 0 116.119 9.33525 1084 79.7721 1175.51 455.058
1358 0 115.164 9.47343 1091 80.2493 1175.44 449.709
1359 0 125.148 9.20514 1152 81.1415 1175.6 447.419
1360 0 129.245 9.84178 1272 80.9575 1174.81 447.861
1361 0 128.18 7.84833 1006 86.6551 1175.65 438.039
1362 0 128.452 8.18205 1051 87.6889 1176.06 436.163
1363 0 137.4 8.47159 1164 87.634 1174.82 436.735
1364 0 135.389 8.51621 1153 89.1787 1175.48 434.415
1365 0 144.615 8.13884 1177 88.401 1175.07 438.648
1366 1 78.1563 6.15433 481 74.8732 1175.23 474.53
1367 0 75.1507 6.52023 490 76.0143 1174.62 470.418
1368 0 77.1137 7.02859 542 75.5738 1174.78 471.443
1369 0 73.1621 5.52198 404 78.5347 1175.8 463.859
1370 1 98.2582 10.2383 1006 70.334 1176.55 471.992
1371 0 102.21 10.9481 1119 70.0992 1176.74 470.616
1372 0 104.194 10.7875 1124 71.694 1176.28 469.165
1373 0 106.252 10.4093 1106 74.2839 1176.43 465.559
1374 0 108.201 10.9611 1186 75.6804 1176.95 464.578
1375 0 110.176 10.2654 1131 76.8453 1176.25 463.477
1376 0 113.371 9.82617 1114 79.447 1175.96 459.166
1377 0 117.36 11.9888 1407 80.0682 1175.13 460.967
1378 0 117.362 11.9204 1399 136.786 1174.11 460.835
1379 0 122.493 12.6701 1552 77.9085 1175.32 460.904
1380 0 122.305 12.5751 1538 83.0637 1175.02 459.29
1381 0 123.402 12.0987 1493 85.5265 1176.05 459.93
1382 0 125.446 12.0131 1507 85.509 1175.73 455.888
1383 0 128.33 11.5717 1485 85.4081 1175.63 454.089
1384 1 72.1021 9.9581 718 75.5975 1175.7 486.338
1385 0 73.1481 10.1985 746 76.5871 1174.58 484.731
1386 0 76.1633 11.6592 888 77.036 1175.14 484.856
1387 0 77.175 11.6488 899 80.0178 1175.97 484.504
1388 0 79.2032 12.348 978 80.9806 1175.57 483.263
1389 0 81.2029 11.8715 964 78.1805 1175.68 483.211
1390 0 79.2872 11.4268 906 76.1126 1175.17 483.943
1391 0 83.1272 12.2944 1022 75.6164 1175.14 481.412
1392 0 86.0915 12.0686 1039 77.7883 1175.05 479.208
1393 0 87.2328 11.5324 1006 81.0736 1175.07 478.248
1394 0 91.1601 12.2093 1113 80.1114 1175.21 477.444
1395 0 93.2964 12.0476 1124 82.8158 1174.43 475.567
1396 0 94.1717 11.8613 1117 79.5192 1175.78 474.64
1397 0 94.1717 11.8507 1116 126.217 1176.76 474.492
1398 0 100.221 11.5445 1157 83.0916 1174.34 474.258
1399 0 103.223 12.0128 1240 86.0379 1174.54 472.619
1400 0 105.153 11.9064 1252 89.3379 1174.31 469.985
1401 1 55.1305 11.5363 636 84.0723 1175.36 495.791
1402 0 57.0363 11.4664 654 87.8899 1174.83 493.693
1403 0 59.0927 12.0489 712 88.2261 1175.29 492.751
1404 0 61.274 11.9463 732 87.3798 1174.98 493.383
1405 0 63.1308 13.6225 860 89.1209 1175.49 491.802
1406 0 64.3838 13.5749 874 99.9634 1174.06 490.349
1407 0 66.2849 12.8385 851 99.1551 1174.74 491.556
1408 0 68.2437 14.2724 974 101.464 1175.01 489.122
1409 0 69.1325 13.1487 909 102.15 1174.98 488.331
1410 0 72.3568 13.4334 972 104.933 1174.73 487.831
1411 0 73.3678 13.6572 1002 105.398 1174.57 486.509
1412 0 74.3252 14.1137 1049 105.16 1174.17 487.233
1413 0 74.3252 14.0733 1046 171.162 1173.17 487.212
1414 0 76.4139 14.4215 1102 93.7477 1175.81 487.005
1415 0 79.3268 14.144 1122 95.213 1175.3 484.993
1416 0 85.2548 15.9287 1358 89.3925 1175.62 479.381
1417 0 85.4437 15.4605 1321 95.2491 1175.82 481.344
1418 0 87.3887 15.7572 1377 96.0821 1176.03 480.924
1419 0 88.5253 15.1934 1345 97.4706 1175.78 480.452
1420 0 91.3561 14.3614 1312 100.084 1175.64 478.508
1421 0 91.4272 13.4315 1228 102.839 1175.78 478.559
1422 0 95.4561 14.2893 1364 101.41 1175.01 476.562
1423 0 99.3526 15.0877 1499 104.717 1175.69 473.476
1424 0 100.402 14.1233 1418 108.043 1175.23 471.666
1425 0 103.104 13.4137 1383 99.7426 1175.48 470.659
1426 0 105.148 13.9518 1467 98.9509 1175.65 469.284
1427 0 108.121 14.1324 1528 98.8089 1176.16 467.666
1428 0 112.32 14.0759 1581 98.6028 1175.63 467.27
1429 0 116.156 14.4805 1682 96.6326 1176.46 464.276
1430 0 120.229 14.5223 1746 97.3379 1175.84 463.952
1431 0 122.458 14.5192 1778 96.9814 1175.76 460.868
1432 0 125.288 14.0955 1766 96.7112 1175.94 458.945
1433 0 130.309 13.913 1813 97.209 1176.26 457.324
1434 0 136.699 14.8941 2036 101.825 1175.76 456.396
1435 1 75.5297 12.1806 920 100.622 1176.45 488.302
1436 0 78.4927 12.2432 961 100.011 1177.2 484.905
1437 0 81.2583 13.4017 1089 97.3526 1176.96 484.231
1438 0 82.3307 13.0935 1078 97.6911 1176.89 483.081
1439 0 83.4449 13.2183 1103 92.5413 1176.21 483.235
1440 0 85.4099 13.4996 1153 96.2003 1175.87 482.887
1441 0 95.4854 16.4737 1573 84.8862 1177.03 475.038
1442 0 94.376 17.07 1611 85.198 1176.34 475.425
1443 0 98.3926 15.987 1573 87.2378 1176.06 472.777
1444 0 98.4978 15.7161 1548 88.0239 1175.61 472.806
1445 0 98.4179 13.9914 1377 94.0436 1176.6 470.784
1446 0 104.48 14.6248 1528 91.252 1176.84 468.819
1447 0 106.432 14.1217 1503 91.1763 1177 465.935
1448 0 110.419 14.3544 1585 91.2366 1177 466.512
1449 0 114.253 13.829 1580 88.6835 1177.35 465.026
1450 0 118.313 14.2926 1691 88.175 1176.61 463.355
1451 0 122.309 13.6212 1666 90.6255 1177.23 461.793
1452 0 125.263 13.811 1730 90.0324 1176.7 459.382
1453 0 129.337 13.3141 1722 91.8066 1176.8 456.457
1454 0 132.295 13.553 1793 90.981 1176.69 454.523
1455 0 138.322 14.4229 1995 90.1173 1176.85 454.1
1456 0 142.296 14.3433 2041 90.6237 1176.52 449.459
1457 0 146.271 13.8442 2025 90.8519 1176.54 448.444
1458 1 81.1355 13.3727 1085 83.0949 1175.23 481.61
1459 0 82.1467 13.5002 1109 84.8918 1175.63 475.498
1460 0 84.3353 12.723 1073 79.9525 1176.74 477.041
1461 0 89.1944 13.0165 1161 80.3359 1176.6 475.951
1462 0 91.2037 14.2757 1302 78.1022 1176.73 473.048
1463 0 93.2707 14.013 1307 79.6718 1176.39 474.329
1464 0 95.2868 14.1992 1353 88.0998 1175.74 473.574
1465 0 98.3254 14.3198 1408 87.9297 1175.88 472.117
1466 0 100.431 13.6312 1369 91.0058 1175.67 470.167
1467 0 104.488 13.9346 1456 90.6174 1176.71 468.598
1468 0 107.37 13.5885 1459 91.5922 1176.11 464.711
1469 0 111.354 13.4796 1501 90.1579 1176.28 463.328
1470 0 112.269 13.5746 1524 89.9541 1176.85 463.889
1471 0 117.266 13.9427 1635 89.9535 1177.09 462.319
1472 0 120.286 13.842 1665 92.2985 1176.85 459.067
1473 0 125.328 14.6416 1835 92.1924 1176.18 456.815
1474 0 128.285 14.9667 1920 91.8297 1176.18 455.473
1475 0 128.285 14.5536 1867 157.057 1176.16 454.681
1476 0 137.364 14.4652 1987 92.4001 1176.78 450.639
1477 0 143.468 14.268 2047 91.4314 1176.93 446.911
1478 1 79.5307 12.6115 1003 87.8106 1176.93 480.436
1479 0 82.4384 13.6223 1123 85.6785 1176.48 478.052
1480 0 84.4209 13.7644 1162 85.6377 1176.94 476.225
1481 0 94.3695 16.2552 1534 78.5887 1175.98 471.133
1482 0 95.4864 16.7458 1599 77.9619 1176.56 469.293
1483 0 99.6113 17.1667 1710 76.1737 1175.74 467.043
1484 0 99.3246 15.7564 1565 76.4984 1176.09 467.812
1485 0 98.4277 14.945 1471 80.6118 1175.71 465.999
1486 0 102.407 15.0088 1537 80.7872 1176.08 464.785
1487 0 104.617 13.7549 1439 91.0327 1175.47 465.005
1488 0 105.566 13.5271 1428 93.9804 1175.79 464.034
1489 0 109.239 13.5941 1485 91.2882 1176.13 456.916
1490 0 113.23 13.5299 1532 90.5829 1175.39 457.002
1491 0 116.142 14.1896 1648 89.4812 1176.08 455.177
1492 0 122.37 14.35 1756 90.6173 1176.93 454.608
1493 0 125.44 14.182 1779 92.4997 1176.48 452.935
1494 0 129.367 13.597 1759 94.1342 1176.76 453.697
1495 0 135.491 14.1486 1917 92.5044 1176.83 450.506
1496 1 73.2194 12.3191 902 91.9346 1177.13 481.81
1497 0 77.2661 13.3823 1034 90.0077 1177.71 481.006
1498 0 77.2191 13.2869 1026 90.6277 1177.61 476.515
1499 0 79.2202 13.4435 1065 88.138 1177.48 475.232
1500 0 83.2312 14.4057 1199 86.7807 1176.88 474.865
1501 0 84.2376 14.0911 1187 89.1761 1176.82 472.209
1502 0 88.1945 14.3886 1269 88.3097 1176.78 470.174
1503 0 89.1303 14.159 1262 89.3724 1176.66 468.468
1504 0 93.1614 13.5679 1264 90.731 1177.66 468.19
1505 0 95.1384 14.2845 1359 89.6726 1177.37 467.908
1506 0 98.1681 13.7112 1346 91.3574 1177.69 466.541
1507 0 101.204 14.0607 1423 95.1476 1176.7 466.009
1508 0 106.308 14.2887 1519 95.8078 1177.12 463.568
1509 0 110.346 14.4093 1590 96.3805 1176.93 461.587
1510 0 114.21 14.6047 1668 95.3489 1176.74 460.996
1511 0 117.202 14.7694 1731 95.8099 1176.89 459.85
1512 0 120.101 14.4128 1731 97.0283 1177.27 456.124
1513 0 126.212 14.5311 1834 87.4237 1176.84 454.519
1514 1 72.2174 12.6424 913 91.0493 1176.54 485.885
1515 0 72.1535 12.8892 930 93.5011 1175.99 484.406
1516 0 74.3211 12.9842 965 88.0746 1176.41 483.935
1517 0 74.1718 13.1047 972 82.3786 1176.66 484.645
1518 0 77.256 12.8404 992 83.8558 1176.93 481.403
1519 0 79.1628 13.0491 1033 83.8364 1176.44 480.043
1520 0 81.1812 13.3159 1081 84.3774 1177.11 479.583
1521 0 84.0889 13.4976 1135 85.1982 1176.97 478.433
1522 0 86.1749 13.2405 1141 86.7125 1177.87 474.745
1523 0 88.1562 13.1471 1159 86.9198 1177.27 474.074
1524 0 94.1015 14.0805 1325 87.0709 1176.67 467.634
1525 0 96.0728 14.7596 1418 85.5797 1177.2 464.069
1526 0 97.0838 14.1218 1371 88.5638 1176.77 464.856
1527 0 98.0884 14.3748 1410 90.3681 1176.99 465.555
1528 0 101.23 13.9188 1409 91.1554 1177.07 466.781
1529 0 107.211 14.215 1524 91.1214 1176.48 466.077
1530 0 109.151 13.834 1510 92.6503 1176.67 463.609
1531 0 114.096 14.2511 1626 91.6931 1177.28 460.511
1532 0 117.091 13.9293 1631 92.2299 1177.77 459.797
1533 0 121.095 13.5761 1644 92.7232 1177.98 456.577
1534 0 127.122 13.8922 1766 91.4247 1177.96 455.411
1535 1 66.0606 11.5954 766 90.1214 1178.7 481.124
1536 0 69.0879 12.3321 852 90.0153 1178.31 481.414
1537 0 73.0781 12.603 921 90.0206 1177.35 481.308
1538 0 76.0318 13.2313 1006 89.8529 1177.44 479.048
1539 0 77.0456 14.0696 1084 89.2998 1176.86 475.363
1540 0 81.1077 13.2293 1073 91.4809 1177.77 474.209
1541 0 83.0595 13.7973 1146 90.6501 1177.42 473.804
1542 0 85.0757 13.1295 1117 92.3903 1177.49 472.366
1543 0 86.0756 13.3139 1146 93.2435 1176.95 471.627
1544 0 90.1437 13.7891 1243 92.1995 1177.38 469.538
1545 0 94.1421 13.6496 1285 92.4117 1176.84 467.504
1546 0 96.0851 14.4143 1385 91.0094 1177.34 466.038
1547 0 100.069 13.3508 1336 94.604 1177.16 464.575
1548 0 102.148 13.8328 1413 94.3977 1176.71 463.799
1549 0 107.159 13.7179 1470 93.9007 1177.57 463.656
1550 0 110.146 13.818 1522 93.6005 1177.37 459.011
1551 0 113.142 14 1584 93.56 1178.04 457.276
1552 0 116.313 13.6357 1586 94.0858 1177.99 456.667
1553 0 122.215 14.0736 1720 94.6163 1177.17 453.845
1554 1 66.1007 12.9802 858 93.5653 1176.95 480.112
1555 0 65.0525 13.6198 886 93.3623 1178.14 478.354
1556 0 69.1598 13.7074 948 93.057 1178 477.662
1557 0 71.1181 13.569 965 93.599 1178.17 477.402
1558 0 74.101 13.1307 973 93.0946 1177.9 478.703
1559 0 79.0419 13.4359 1062 92.8522 1177.58 476.08
1560 0 80.1757 13.5951 1090 94.0743 1178.09 476.329
1561 0 84.0352 14.2202 1195 92.605 1178.08 475.562
1562 0 85.2516 13.5599 1156 94.6453 1178.75 474.194
1563 0 89.2442 14.1746 1265 93.4601 1178.77 473.858
1564 0 93.338 14.185 1324 93.466 1179.16 471.399
1565 0 100.097 17.1633 1718 84.3545 1178.3 464.861
1566 0 100.071 16.1486 1616 89.0204 1177.96 463.257
1567 0 102.083 14.5568 1486 94.0626 1177.43 464.594
1568 0 103.173 14.5775 1504 94.9987 1177.17 462.17
1569 0 107.071 14.6445 1568 95.5045 1178.02 460.715
1570 0 110.17 14.7317 1623 95.6962 1177.96 460.436
1571 0 114.119 15.0106 1713 96.1349 1177.48 459.691
1572 0 118.07 14.6099 1725 96.7554 1177.17 458.427
1573 0 121.149 14.9155 1807 97.1832 1177.23 457.963
1574 0 124.158 14.409 1789 99.787 1177.95 455.384
1575 0 132.118 15.6148 2063 95.7237 1178.21 451.62
1576 0 132.163 14.4897 1915 99.8642 1177.53 448.97
1577 0 137.174 14.5217 1992 100.108 1176.96 446.152
1578 0 140.286 14.5702 2044 100.99 1176.99 444.259
1579 0 146.082 16.0937 2351 88.5142 1177.54 442.977
1580 0 152.289 15.8843 2419 97.8636 1176.87 441.087
1581 0 155.113 15.7434 2442 99.4083 1177.44 438.364
1582 0 159.158 15.2176 2422 101.487 1177.17 438.738
1583 0 162.26 15.7402 2554 100.379 1176.94 436.764
1584 0 168.142 15.4334 2595 101.767 1177.33 435.296
1585 0 173.349 15.1429 2625 103.67 1176.76 431.603
1586 0 179.489 15.3603 2757 104.473 1176.79 427.365
1587 0 184.332 16.2967 3004 101.335 1176.82 428.39
1588 0 189.347 16.0552 3040 103.146 1176.92 423.308
1589 0 196.312 15.3938 3022 105.595 1176.6 422.247
1590 0 201.285 15.7339 3167 104.873 1176.26 417.645
1591 0 209.271 15.8598 3319 104.704 1176.74 415.201
1592 0 214.319 15.6029 3344 106.039 1176.88 413.036
1593 1 163.171 13.8444 2259 109.979 1177.12 441.346
1594 0 168.353 14.0122 2359 111.028 1177.05 438.367
1595 0 174.256 15.724 2740 107.422 1177.26 432.829
1596 0 182.328 15.7409 2870 109.646 1176.36 427.654
1597 0 188.282 15.5193 2922 107.95 1176.95 424.635
1598 0 193.315 15.3842 2974 108.604 1175.73 419.982
1599 0 201.314 15.7416 3169 108.157 1176.27 416.943
1600 0 209.346 15.9306 3335 107.07 1175.99 414.84
1601 0 214.245 15.3236 3283 109.848 1176.02 409.37
1602 0 221.316 15.5344 3438 109.689 1175.73 407.355
1603 0 230.213 15.8679 3653 108.237 1176.32 403.802
1604 0 230.202 15.9425 3670 170.122 1177.31 403.818
1605 1 74.0912 9.75825 723 97.9779 1178.06 483.423
1606 0 75.0247 9.66348 725 96.9821 1177.55 482.935
1607 0 71.0691 11.2144 797 92.8632 1177.14 476.646
1608 0 74.1186 12.6014 934 96.8576 1176.58 465.859
1609 0 74.183 14.1946 1053 93.5461 1176.51 466.12
1610 0 74.0948 13.2668 983 88.2482 1176.01 466.214
1611 0 76.1293 12.794 974 90.5164 1176.13 468.197
1612 0 82.1243 13.2239 1086 92.7265 1177.21 471.656
1613 0 84.1798 12.901 1086 93.1215 1177.1 469.51
1614 0 87.1667 13.5258 1179 90.7065 1177.34 469.499
1615 0 90.0977 12.8527 1158 91.8299 1176.59 467.487
1616 0 94.0895 13.9442 1312 88.5221 1176.37 465.31
1617 0 95.1676 12.767 1215 91.0626 1175.82 464.816
1618 0 100.105 13.1561 1317 90.243 1176.64 462.272
1619 0 105.267 14.0214 1476 93.0901 1176.57 459.049
1620 0 107.262 13.509 1449 95.3485 1176.33 459.357
1621 0 110.202 13.4753 1485 101.6 1176.87 456.921
1622 1 125.565 17.8872 2246 78.4159 1176.44 447.337
1623 0 127.501 17.2077 2194 82.5533 1176.87 447.661
1624 0 128.416 17.6147 2262 82.7931 1176.4 445.115
1625 0 129.362 15.5147 2007 90.14 1176.04 444.86
1626 1 70.0863 11.7284 822 90.0657 1176.89 478.375
1627 0 71.095 11.0978 789 89.3764 1177.67 477.256
1628 0 73.1179 12.432 909 87.0297 1177.2 476.924
1629 0 73.1433 11.1699 817 86.2154 1175.26 477.078
1630 0 74.1236 11.157 827 88.7304 1175.91 476.302
1631 0 78.1378 11.7613 919 87.1393 1176.35 475.588
1632 0 80.2615 11.612 932 87.044 1176.55 474.152
1633 0 83.2438 11.7246 976 87.1404 1175.77 473.542
1634 0 87.2206 11.6601 1017 88.5988 1175.29 469.53
1635 0 88.1537 12.1492 1071 89.9346 1175.3 468.347
1636 0 93.2133 11.6722 1088 90.1866 1176.34 466.401
1637 0 94.245 11.746 1107 92.3098 1174.77 464.958
1638 0 99.1971 12.581 1248 97.2812 1174.52 462.433
1639 0 102.23 12.8435 1313 98.2376 1175.01 459.607
1640 0 104.239 12.6536 1319 96.1592 1175.29 455.672
1641 0 107.179 11.952 1281 95.5589 1175.92 451.461
1642 0 108.205 12.4116 1343 95.5644 1175.51 450.701
1643 0 116.312 13.2574 1542 99.0843 1175.79 454.938
1644 0 118.309 13.0337 1542 99.7367 1175.91 455.297
1645 0 123.346 12.6068 1555 99.9286 1175.73 450.932
1646 0 129.342 13.8316 1789 96.5271 1175.15 452.504
1647 0 132.454 13.6123 1803 96.2951 1175.83 450.642
1648 0 137.423 13.7532 1890 95.5693 1175.68 449.506
1649 0 140.493 13.7516 1932 96.6284 1175.93 444.498
1650 0 146.34 14.1178 2066 95.1534 1176.2 442.997
1651 0 149.32 13.3137 1988 98.2445 1176.01 442.018
1652 0 149.32 13.3806 1998 159.681 1175.01 441.993
1653 1 85.1774 12.3859 1055 92.0209 1177.35 473.549
1654 0 87.1654 12.5279 1092 91.5632 1176.58 471.746
1655 0 90.1494 13.522 1219 91.397 1176.74 468.449
1656 0 95.1324 15.7675 1500 85.9227 1176.72 466.349
1657 0 97.1086 14.3448 1393 91.4106 1176.19 465.57
1658 0 95.1895 13.636 1298 95.8544 1176.68 468.689
1659 0 99.1255 13.6393 1352 95.9112 1176.68 467.83
1660 0 101.155 14.028 1419 95.6187 1176.62 466.86
1661 0 104.105 13.8418 1441 96.4386 1176.47 464.879
1662 0 107.178 13.6688 1465 97.5843 1177.02 462.556
1663 0 107.068 12.9357 1385 94.8809 1175.4 457.544
1664 0 111.124 13.3725 1486 94.3122 1176 456.426
1665 0 114.121 13.477 1538 94.6691 1176.13 455.449
1666 0 119.114 13.0043 1549 96.754 1176.42 454.584
1667 0 123.165 13.2018 1626 97.6279 1176.04 452.914
1668 0 128.146 13.9841 1792 95.2148 1175.7 450.082
1669 0 131.125 14.6883 1926 94.9476 1176.13 447.172
1670 0 136.167 14.5409 1980 97.7192 1176.22 445.771
1671 0 140.228 14.7117 2063 98.2501 1176.13 443.755
1672 0 143.184 14.2334 2038 100.508 1175.71 442.251
1673 0 148.264 14.5956 2164 98.6275 1175.63 440.711
1674 0 153.159 14.9845 2295 99.2244 1175.15 428.25
1675 0 158.238 14.8763 2354 99.754 1175.15 428.364
1676 0 164.269 15.3468 2521 98.0075 1175.49 428.958
1677 0 168.111 15.0377 2528 99.1982 1175.53 427.828
1678 0 174.163 15.0204 2616 99.5841 1175.75 427.261
1679 0 177.273 15.2307 2700 100.556 1176.12 422.567
1680 0 182.245 15.1774 2766 105.17 1175.52 422.457
1681 0 187.193 14.8029 2771 101.523 1176.06 418.837
1682 0 190.287 15.0878 2871 101.215 1175.6 416.591
1683 0 198.266 15.7667 3126 98.9565 1175.62 413.343
1684 0 200.221 15.4779 3099 100.147 1175.43 411.788
1685 0 208.214 15.705 3270 99.6737 1175.06 407.778
1686 0 213.284 15.6833 3345 99.2712 1175.11 403.619
1687 0 219.343 15.4279 3384 99.6622 1175.15 401.376
1688 0 225.274 14.9063 3358 100.883 1174.29 398.187
1689 0 394.626 17.3962 6865 100.367 1174.17 303.528
1690 0 391.788 16.8994 6621 100.703 1174.23 302.172
1691 0 394.631 16.9576 6692 101.061 1174.73 302.677
1692 0 271.21 20.5487 5573 81.1893 1175.15 360.036
1693 0 265.25 16.3129 4327 93.4065 1174.62 371.04
1694 1 58.0484 10.8186 628 79.4968 1174.64 479.656
1695 0 66.0741 12.3498 816 80.9375 1174.55 482.881
1696 0 62.0249 10.3346 641 73.7629 1174.51 483.339
1697 0 65.0408 10.8701 707 72.6662 1174.51 483.809
1698 0 67.0469 10.9774 736 72.1535 1174.48 482.615
1699 0 67.0183 10.6837 716 72.8603 1174.47 482.134
1700 0 69.0456 10.0079 691 72.903 1174.62 480.954
1701 0 72.0544 11.2137 808 71.5408 1173.95 478.183
1702 0 74.0822 10.2049 756 72.1283 1174.04 477.489
1703 0 77.1353 10.2936 794 71.898 1174.85 475.077
1704 0 78.1512 10.2238 799 72.2703 1174.45 472.443
1705 0 81.215 10.4045 845 71.697 1175.07 470.755
1706 0 85.182 10.6478 907 71.4267 1175.81 471.857
1707 0 86.2588 10.3062 889 71.9258 1175.53 469.691
1708 0 88.1292 9.52011 839 71.9487 1175.79 468.459
1709 0 91.1831 10.5502 962 73.0696 1175.45 465.011
1710 0 92.2072 9.68471 893 73.5196 1174.14 463.344
1711 0 95.1328 10.0912 960 72.8948 1174.94 463.615
1712 0 102.098 11.391 1163 74.7532 1175 462.583
1713 0 95.1295 9.98639 950 78.1358 1175.11 456.167
1714 1 0 0 0 -nan -nan -nan
1715 1 141.376 15.1299 2139 59.8462 1175.17 433.01
1716 0 140.694 13.8528 1949 66.0539 1175.46 440.405
1717 0 140.679 13.9467 1962 101.625 1175.45 440.47
1718 0 138.493 16.9395 2346 61.9936 1175.87 435.626
1719 0 139.53 16.9928 2371 63.9857 1176.72 436.056
1720 0 141.209 16.3942 2315 69.0618 1175.87 432.839
1721 0 137.286 15.1654 2082 75.1129 1175.89 436.483
1722 0 138.088 14.0997 1947 78.6143 1175.52 439.743
1723 0 147.173 17.2314 2536 70.6656 1175.63 436.254
1724 0 143.177 12.942 1853 80.2418 1175.35 442.288
1725 0 147.13 13.2196 1945 80.3784 1176.06 437.29
1726 0 152.181 13.3131 2026 79.2996 1176.19 434.988
1727 0 157.264 13.4996 2123 78.0466 1176.24 432.229
1728 0 162.194 12.6454 2051 79.3428 1175.44 429.328
1729 0 166.146 12.6816 2107 80.1248 1176.04 423.457
1730 0 172.24 13.1038 2257 78.3766 1175.47 420.953
1731 0 177.228 12.9495 2295 79.38 1175.84 415.454
1732 0 184.259 13.0685 2408 79.1968 1175.36 416.61
1733 0 188.189 13.3908 2520 78.8321 1175.35 413.33
1734 0 192.311 12.2822 2362 81.7553 1174.89 408.399
1735 0 200.238 12.6 2523 80.2311 1175.68 408.159
1736 0 206.36 12.2989 2538 80.8144 1175.33 404.945
1737 1 152.221 11.733 1786 78.2912 1175.8 430.59
1738 0 158.172 11.7404 1857 77.7518 1176.34 431.597
1739 0 163.175 13.0167 2124 75.8079 1176.1 426.056
1740 0 168.21 13.0135 2189 76.2019 1176.51 423.785
1741 0 174.149 12.7362 2218 76.6821 1176.62 419.786
1742 0 180.2 12.2197 2202 78.253 1176.03 415.517
1743 0 187.254 12.678 2374 78.0741 1176.09 412.147
1744 0 192.29 12.4604 2396 79.8911 1175.92 404.8
1745 0 199.26 12.4962 2490 78.8096 1175.51 401.839
1746 0 205.317 12.8631 2641 77.8656 1175.14 400.885
1747 0 213.281 11.8201 2521 79.9718 1174.64 393.806
1748 0 220.229 11.8967 2620 79.9462 1174.73 390.007
1749 1 165.137 11.2331 1855 75.1305 1175.46 421.411
1750 0 172.095 12.1735 2095 74.0458 1176.02 421.726
1751 0 178.134 12.5355 2233 74.7129 1175.1 418.326
1752 0 185.169 13.6848 2534 77.6867 1175.31 416.669
1753 0 187.221 12.8137 2399 76.3218 1174.95 413.117
1754 0 195.296 12.7857 2497 76.2014 1175.47 410.373
1755 0 200.319 12.9942 2603 76.3669 1175.51 408.661
1756 0 206.236 12.5439 2587 77.3185 1175.71 405.923
1757 0 213.229 12.4843 2662 77.7006 1175.2 401.577
1758 0 216.344 12.1334 2625 78.2301 1175.7 398.706
1759 0 226.27 13.2408 2996 75.6295 1175.32 397.379
1760 1 50.1787 10.1836 511 61.7886 1176.01 487.436
1761 0 50.1429 10.3105 517 62.706 1176.3 485.205
1762 0 52.0341 11.1273 579 63.9344 1177.42 485.708
1763 0 54.049 10.879 588 64.8708 1177.94 485.498
1764 0 55.0303 10.0308 552 65.3261 1177.05 485.089
1765 0 58.0606 10.9713 637 65.1083 1178.29 482.535
1766 0 58.1141 10.7547 625 66.8752 1177.53 481.038
1767 0 61.1185 11.0605 676 65.7544 1178.18 480.657
1768 0 61.0304 10.4866 640 66.5078 1177.91 479.756
1769 0 65.0472 11.2072 729 65.6763 1177.59 479.829
1770 0 68.024 10.5845 720 66.55 1177.36 479.081
1771 0 71.0398 11.5006 817 64.4933 1176.95 478.991
1772 0 72.0505 10.7008 771 66.0869 1176.78 477.232
1773 0 74.1767 11.6074 861 65.4065 1176.71 476.129
1774 0 75.0318 11.8883 892 65.8464 1176.66 473.722
1775 0 75.1523 10.8313 814 68.3808 1176.68 471.471
1776 0 78.1805 11.2304 878 66.9476 1176.27 471.96
1777 0 82.0988 11.4496 940 65.616 1176.65 470.721
1778 0 84.0865 11.9401 1004 64.0229 1174.25 472.559
1779 0 86.1074 11.9734 1031 65.1271 1174.83 470.445
1780 0 90.1959 12.75 1150 63.68 1174.36 467.897
1781 0 91.2123 11.5226 1051 65.9791 1175.36 465.487
1782 0 94.2245 11.8547 1117 66.6786 1174.64 462.413
1783 0 94.2245 11.9183 1123 138.85 1174.63 462.516
1784 0 100.125 12.9837 1300 65.3585 1174.3 456.835
1785 0 102.111 11.419 1166 68.4786 1174.32 456.454
1786 0 107.281 12.444 1335 67.1401 1174.18 455.563
1787 0 111.238 12.3609 1375 66.9942 1175.05 454.297
1788 0 114.283 11.8478 1354 68.7349 1175.76 451.656
1789 1 67.1115 9.95359 668 62.9371 1176.35 476.81
1790 0 71.1981 10.8008 769 62.0858 1176 479.827
1791 0 73.0858 11.4933 840 62.7524 1176.75 477.169
1792 0 73.1605 11.673 854 69.5785 1175.9 476.587
1793 0 73.1587 11.2222 821 67.3228 1174.66 477.333
1794 0 75.0814 11.1213 835 67.3281 1175.39 476.728
1795 0 77.0674 10.7438 828 68.4589 1174.75 474.999
1796 0 81.1868 11.5782 940 67.3755 1176.52 469.119
1797 0 83.2907 11.2618 938 67.6269 1176.05 471.349
1798 0 85.2294 12.0264 1025 66.9766 1176.25 464.94
1799 0 90.1247 12.0167 1083 66.3269 1175.43 465.982
1800 0 92.1896 11.8126 1089 67.2691 1176.45 463.222
1801 0 93.2741 11.4608 1069 68.3358 1175.39 461.663
1802 0 97.3238 12.3814 1205 66.917 1175.57 461.927
1803 0 100.131 12.1141 1213 67.2102 1175.67 461.444
1804 0 102.2 12.2408 1251 67.2934 1175.06 459.095
1805 0 104.216 11.8025 1230 68.665 1175.21 456.399
1806 0 108.299 11.0435 1196 69.7174 1174.64 453.21
1807 0 111.208 12.2294 1360 73.7698 1174.69 455.966
1808 0 114.193 11.1303 1271 70.9072 1174.81 451.692
1809 0 115.236 12.2444 1411 69.4947 1175.2 452.622
1810 0 122.234 12.3615 1511 69.6327 1175 451.947
1811 0 126.233 12.4056 1566 71.4649 1174.99 449.595
1812 0 129.266 12.6947 1641 76.4193 1175.2 445.41
1813 0 135.554 13.0796 1773 74.3237 1175.48 445.62
1814 1 74.3007 10.6459 791 71.249 1173.96 476.795
1815 0 72.3243 10.1349 733 68.2142 1174.92 471.696
1816 0 75.1325 11.0738 832 66.5889 1175.19 473.095
1817 0 79.2066 11.2996 895 66.0034 1174.76 473.851
1818 0 80.0547 10.2555 821 70.0231 1176.04 471.75
1819 0 83.2764 11.672 972 68.0123 1174.51 466.608
1820 0 83.2764 11.708 975 122.902 1173.5 466.654
1821 0 85.3039 11.3242 966 69.3012 1174.45 466.872
1822 0 92.227 12.0138 1108 67.639 1175.34 468.4
1823 0 94.2259 12.088 1139 68.5628 1175.14 468.992
1824 0 97.3015 13.4839 1312 66.779 1175.7 465.796
1825 0 99.2587 12.4725 1238 68.7528 1175.4 462.733
1826 0 101.343 12.6106 1278 69.1479 1175.85 461.15
1827 0 102.402 12.1189 1241 70.6446 1175.88 459.723
1828 0 107.369 12.3592 1327 69.7144 1174.77 457.053
1829 0 110.272 12.5689 1386 70.1804 1174.27 454.531
1830 0 110.472 11.985 1324 73.0695 1174.84 453.147
1831 0 115.451 12.5161 1445 73.1273 1174.72 453.737
1832 0 120.422 12.8299 1545 73.6913 1174.14 453.252
1833 0 123.237 13.259 1634 74.7717 1174.27 450.597
1834 0 127.429 13.3016 1695 76.4708 1173.79 448.625
1835 0 130.335 12.9743 1691 77.7374 1173.87 446.31
1836 0 133.219 12.6784 1689 74.9888 1175.02 439.825
1837 1 77.2142 10.9565 846 79.2931 1175.43 457.491
1838 0 81.1238 12.4748 1012 77.0089 1174.68 460.193
1839 0 80.1739 12.1112 971 74.9887 1174.04 454.148
1840 0 87.157 12.5291 1092 78.6896 1174.52 455.507
1841 0 89.2007 13.3743 1193 78.3227 1174.11 454.38
1842 0 90.2587 14.5914 1317 75.6052 1174.46 457.289
1843 0 95.2921 14.5133 1383 72.6739 1174.81 460.32
1844 0 96.1821 13.2561 1275 75.7929 1174.92 459.781
1845 0 99.2143 12.9518 1285 77.0257 1175.01 459.559
1846 0 100.227 13.7588 1379 76.3568 1174.79 457.084
1847 0 101.209 13.8723 1404 75.235 1174.94 454.599
1848 0 102.225 12.9812 1327 78.783 1174.74 452.127
1849 0 104.235 13.4504 1402 78.7197 1174.84 452.161
1850 0 109.233 13.9884 1528 77.9706 1174.92 450.651
1851 0 111.24 13.817 1537 79.4496 1174.32 450.005
1852 0 114.214 13.86 1583 79.6184 1174.57 449.692
1853 0 118.246 14.4529 1709 78.6764 1175.25 450.703
1854 0 122.12 15.1245 1847 77.7017 1175.47 449.766
1855 0 127.204 14.5358 1849 79.4932 1175.57 447.019
1856 0 131.231 14.5621 1911 80.0408 1175.03 444.635
1857 0 135.153 14.6056 1974 79.538 1175.67 441.438
1858 0 139.212 14.0793 1960 81.223 1175.77 437.518
1859 0 143.157 14.767 2114 80.5497 1176.36 435.855
1860 0 148.137 14.2841 2116 82.1763 1176.91 432.881
1861 1 78.1714 13.1634 1029 79.1011 1175.71 466.134
1862 0 79.1722 12.4412 985 156.345 1173.7 466.865
1863 0 86.1122 12.9714 1117 75.0707 1175.73 465.817
1864 0 89.1434 13.8765 1237 73.7793 1176.39 467.901
1865 0 93.0987 13.3944 1247 74.5622 1175.23 469.092
1866 0 93.1233 13.3801 1246 76.4534 1175.3 465.251
1867 0 98.173 13.7105 1346 75.6055 1175.81 461.07
1868 0 99.1766 13.5314 1342 77.5589 1175.96 459.268
1869 0 103.131 13.8077 1424 77.1903 1175.42 456.883
1870 0 108.165 13.5072 1461 77.7639 1175.29 454.69
1871 0 110.173 13.2791 1463 79.3978 1175.03 451.915
1872 0 114.126 13.0119 1485 79.6714 1175.77 452.354
1873 0 116.306 13.2066 1536 80.4271 1175.24 450.077
1874 0 120.122 12.9285 1553 80.566 1175.44 449.747
1875 0 124.248 13.3363 1657 79.612 1175.17 447.048
1876 0 126.15 13.1985 1665 86.1045 1175.67 445.191
1877 0 129.271 12.8103 1656 82.3424 1175.02 442.462
1878 1 60.0724 9.57178 575 77.407 1175.35 480.607
1879 0 63.0361 11.4696 723 74.8894 1175.41 478.234
1880 0 65.0943 11.3989 742 74.8639 1175.24 476.27
1881 0 67.1034 12.1454 815 74.0675 1175.56 474.78
1882 0 69.0716 11.365 785 75.5146 1175.96 472.466
1883 0 72.1337 11.9639 863 69.6628 1175.56 474.859
1884 0 75.1251 12.1131 910 69.889 1175.01 473.467
1885 0 77.1068 11.8926 917 69.3566 1175.11 472.899
1886 0 78.0843 11.9999 937 69.8826 1174.98 470.227
1887 0 82.1888 12.9093 1061 68.3289 1175.82 468.935
1888 0 82.1888 12.9093 1061 131.907 1176.82 468.999
1889 1 99.2171 16.2976 1617 59.444 1176.16 460.575
1890 0 94.1888 15.7768 1486 63.3217 1176.2 461.349
1891 0 95.2349 15.278 1455 65.8797 1175.85 458.96
1892 0 102.418 15.7491 1613 64.9306 1175.72 457.246
1893 0 104.157 15.4574 1610 67.5398 1175.54 455.939
1894 0 105.105 15.2324 1601 70.9051 1176.61 457.282
1895 0 106.169 14.9855 1591 75.1634 1175.96 455.686
1896 0 108.145 13.1121 1418 78.1615 1176.92 454.621
1897 0 111.248 13.0519 1452 78.0572 1176.08 454.176
1898 0 117.352 13.5746 1593 76.1839 1176.54 452.331
1899 0 121.355 14.7749 1793 73.4534 1175.92 448.158
1900 0 125.402 13.1497 1649 78.5664 1175.84 448.097
1901 1 70.3547 11.6837 822 76.9951 1175.47 477.253
1902 0 70.2324 11.3053 794 77.4798 1176.86 476.196
1903 0 72.2294 12.9172 933 71.6292 1176.13 475.648
1904 0 75.2425 12.0278 905 74.3204 1175.55 476.062
1905 0 78.1211 12.6726 990 74.5 1175.3 475.579
1906 0 81.4046 12.6651 1031 74.7245 1175.25 475.146
1907 0 83.2536 12.8763 1072 74.7425 1175.49 473.707
1908 0 86.2472 13.4265 1158 73.696 1175.9 472.502
1909 0 89.2518 13.3667 1193 74.5272 1175.97 471.458
1910 1 101.203 15.6813 1587 66.5961 1175.65 462.225
1911 0 101.235 16.0123 1621 68.5028 1174.85 461.46
1912 0 101.235 15.9629 1616 126.147 1173.84 461.413
1913 0 104.301 15.7812 1646 72.7892 1176.06 460.95
1914 0 106.118 14.107 1497 79.1523 1175.3 461.732
1915 0 107.106 13.9954 1499 79.9059 1175.75 460.652
1916 0 112.254 14.1554 1589 81.5765 1176.1 459.01
1917 0 113.376 13.9801 1585 83.576 1176.03 458.253
1918 0 116.344 14.5173 1689 85.4819 1175.44 454.757
1919 0 120.27 15.3572 1847 85.0341 1175.2 453.901
1920 0 122.296 14.743 1803 86.7316 1174.91 451.647
1921 0 127.296 14.4937 1845 86.6125 1174.1 451.016
1922 0 129.27 14.8372 1918 85.5078 1174.55 447.289
1923 0 135.284 14.6211 1978 83.455 1174.5 447.601
1924 0 137.197 14.6359 2008 82.7326 1174.31 443.869
1925 0 140.215 14.6276 2051 82.7455 1173.83 440.573
1926 0 146.16 14.8194 2166 82.1173 1174.29 438.547
1927 0 150.332 14.7607 2219 83.5579 1174.12 437.863
1928 0 156.402 14.7696 2310 83.7866 1173.58 437.323
1929 1 65.0556 12.1127 788 78.5787 1173.7 484.668
1930 0 67.0951 13.3095 893 76.4502 1174.29 484.082
1931 0 67.1309 13.3024 893 77.467 1174.18 483.197
1932 0 69.1392 12.9594 896 79.5893 1174.43 483.108
1933 0 71.2084 13.1866 939 80.3536 1174.49 481.45
1934 0 73.1321 12.9492 947 81 1175.01 478.879
1935 0 71.166 12.1687 866 81.0589 1173.65 474.172
1936 0 76.3114 13.2221 1009 78.7146 1172.87 470.181
1937 0 77.1578 12.4031 957 79.6301 1173.33 472.396
1938 0 79.1208 13.1192 1038 79.0578 1173.31 473.243
1939 0 81.3015 13.5545 1102 79.3503 1174.08 473.719
1940 0 81.1802 12.6509 1027 81.0224 1173.8 471.86
1941 0 85.2866 13.0853 1116 80.7894 1173.66 472.181
1942 0 88.2514 13.6088 1201 81.1241 1174.01 466.51
1943 0 91.2251 13.9106 1269 80.2206 1173.86 463.73
1944 0 93.2507 13.9731 1303 81.0322 1173.79 462.463
1945 0 99.307 15.3061 1520 77.2026 1174.47 457.762
1946 0 101.276 13.5274 1370 82.8876 1173.82 458.312
1947 0 104.236 13.8627 1445 82.3619 1173.44 459.713
1948 0 109.207 14.2939 1561 81.6701 1172.45 455.902
1949 0 112.278 14.0009 1572 83.063 1173.36 453.227
1950 0 119.509 14.4591 1728 82.1244 1173.2 454.513
1951 1 66.1057 13.1456 869 81.1519 1174.19 480.838
1952 0 67.0972 13.2047 886 83.6456 1174.01 480.199
1953 0 67.1062 13.4861 905 84.4099 1174.28 478.548
1954 0 71.1325 13.7771 980 83.5082 1173.99 478.423
1955 0 71.1347 13.4393 956 85.1904 1173.52 478.044
1956 0 73.2504 14.1842 1039 85.2849 1173.85 476.136
1957 0 75.1171 13.7652 1034 86.2292 1174.53 475.344
1958 0 79.1194 13.6629 1081 85.9306 1173.84 472.936
1959 0 83.2776 17.6158 1467 75.8466 1173.75 466.413
1960 0 89.1968 16.9513 1512 75.709 1173.17 464.879
1961 0 86.1751 16.4897 1421 79.7248 1173.48 466.581
1962 0 84.1864 14.1353 1190 87.5765 1173.58 466.006
1963 0 87.2316 14.238 1242 86.6562 1173.69 466.064
1964 0 90.1342 14.6226 1318 86.0546 1173.49 463.597
1965 0 93.2274 14.5773 1359 85.8087 1173.44 464.132
1966 0 95.1844 14.3931 1370 87.3139 1174 461.644
1967 0 95.1868 14.5083 1381 87.9833 1174.48 459.787
1968 0 101.135 14.713 1488 86.2802 1174.83 459.501
1969 0 104.279 14.6434 1527 86.2397 1174.23 459.269
1970 0 107.251 14.9183 1600 84.6894 1174.69 458.858
1971 0 110.247 15.1932 1675 84.6137 1173.95 458.004
1972 0 113.171 14.4913 1640 86.972 1174.27 456.426
1973 0 115.114 14.4726 1666 86.5798 1174.24 455.691
1974 0 120.219 14.8895 1790 85.5235 1174.13 453.546
1975 0 125.227 14.7652 1849 85.5814 1174.9 450.845
1976 0 128.152 15.7001 2012 84.2092 1174 447.263
1977 0 133.201 15.1426 2017 84.8696 1174.27 446.364
1978 0 136.164 15.5107 2112 84.6245 1174.74 444.418
1979 0 141.139 15.389 2172 84.8158 1174.55 444.216
1980 0 145.199 15.9919 2322 85.0474 1173.83 441.423
1981 0 150.201 15.7189 2361 85.4672 1173.63 437.929
1982 0 150.201 15.7455 2365 171.866 1173.64 438.056
1983 0 159.224 15.7703 2511 86.2346 1173.46 434.422
1984 0 162.315 15.014 2437 88.652 1173.12 431.326
1985 0 165.206 15.6411 2584 88.1471 1172.6 429.235
1986 0 170.222 15.8851 2704 87.152 1172.84 427.07
1987 0 175.292 15.5055 2718 88.1347 1172.84 423.649
1988 0 180.27 15.8096 2850 87.3547 1172.8 422.888
1989 0 186.303 15.4909 2886 87.9466 1172.89 420.148
1990 0 193.412 15.8677 3069 87.1463 1172.73 418.216
1991 0 195.28 15.3626 3000 87.9057 1173.52 415.59
1992 0 195.28 15.4343 3014 161.49 1174.53 415.676
1993 0 206.399 15.7268 3246 88.097 1173.23 410.666
1994 0 206.399 15.7317 3247 166.243 1172.23 410.717
1995 0 217.41 16.0894 3498 88.4128 1172.86 407.083
1996 0 223.343 16.0023 3574 89.5769 1172.7 403.426
1997 0 230.414 15.7846 3637 90.8367 1172.33 399.083
1998 0 230.414 15.7933 3639 162.612 1172.34 399.395
1999 0 332.846 22.8514 7606 71.0525 1171.89 316.412
2000 1 57.0882 8.7759 501 75.0399 1174.33 463.471
2001 0 62.0984 11.0953 689 78.9579 1174.7 468.084
2002 0 66.0435 12.3252 814 77.914 1174.44 470.419
2003 0 67.0756 11.9716 803 80.1295 1174.25 471.025
2004 0 69.0914 11.9407 825 79.5842 1175.18 474.644
2005 0 70.279 11.9808 842 78.5867 1174.19 477.198
2006 0 72.2552 12.1375 877 79.3877 1173.44 475.873
2007 0 74.3072 11.7754 875 80.7623 1173.97 473.978
2008 0 77.2797 11.8142 913 81.1566 1173.15 473.57
2009 0 79.3148 11.4733 910 83.3154 1172.84 471.391
2010 0 81.3332 12.1353 987 82.4144 1173.14 469.91
2011 0 83.3319 12.2282 1019 82.1384 1172.52 468.275
2012 0 86.3609 12.2046 1054 82.5171 1173.25 467.42
2013 0 88.2647 11.9074 1051 83.902 1172.81 465.588
2014 0 89.3712 11.648 1041 85.0903 1173.7 463.637
2015 0 94.1787 11.6056 1093 84.2525 1172.77 462.908
2016 0 95.1848 11.4514 1090 85.5954 1172.74 460.866
2017 0 98.2548 11.1547 1096 86.9389 1172.51 458.97
2018 0 101.195 11.1863 1132 86.6122 1172.58 458.046
2019 0 101.184 11.1876 1132 122.565 1172.58 457.948
2020 0 107.151 11.0031 1179 86.3427 1174.12 451.992
2021 0 112.119 10.5602 1184 85.2677 1173.19 451.219
2022 0 115.15 10.6296 1224 89.2353 1173.69 447.42
2023 1 59.0552 8.70372 514 86.8969 1173.78 475.01
2024 0 65.135 9.47263 617 84.1491 1173.55 475.911
2025 0 66.1589 9.59811 635 84.0898 1173.52 475.269
2026 0 67.0424 9.90418 664 85.2997 1174.91 471.98
2027 0 68.1017 10.0438 684 85.2427 1174.51 472.064
2028 0 70.0985 10.1714 713 85.8219 1174.23 470.588
2029 0 73.0609 9.70423 709 86.268 1174.02 469.532
2030 0 72.0912 9.54347 688 86.641 1174.03 467.301
2031 0 76.0845 10.3043 784 83.4324 1174.51 465.214
2032 0 76.0954 9.31726 709 83.9873 1174.3 463.403
2033 0 78.0859 9.89935 773 82.3687 1174.22 459.709
2034 0 80.0977 9.30114 745 81.9275 1175.73 457.271
2035 0 81.0741 9.55915 775 81.8374 1175.17 456.121
2036 0 86.1191 10.5087 905 80.1481 1175.33 455.291
2037 0 92.0753 9.57911 882 80.4229 1175.02 453.254
2038 0 98.1293 11.2097 1100 76.6491 1174.09 455.853
2039 0 100.116 11.3368 1135 78.1013 1172.75 455.58
2040 0 105.131 11.4524 1204 76.4626 1173.36 455.873
2041 0 111.128 11.0593 1229 75.026 1174.81 453.862
2042 0 110.133 10.3239 1137 75.9921 1174.47 450.442
2043 0 115.105 10.46 1204 74.9144 1174.45 450.272
2044 0 116.076 10.338 1200 73.6417 1173.71 447.769
2045 1 66.12 8.60557 569 66.7715 1174.78 476.889
2046 0 69.0376 10.1973 704 70.7216 1174.98 475.768
2047 0 69.1203 10.4456 722 70.6274 1173.99 463.353
2048 0 74.2193 10.5768 785 69.958 1174.57 462.415
2049 0 73.1704 9.99038 731 66.6963 1173.17 470.908
2050 0 76.2593 9.66439 737 67.6961 1172.76 472.417
2051 0 77.1625 10.0049 772 68.3653 1173.13 470.461
2052 0 80.2287 10.682 857 67.4854 1172.89 470.148
2053 0 84.152 10.9207 919 67.2307 1172.86 470.839
2054 0 87.1381 10.4547 911 68.7234 1172.28 467.745
2055 0 87.1253 10.6054 924 69.4578 1172.36 467.632
2056 0 90.1032 10.721 966 69.7888 1172.02 466.148
2057 0 95.1552 11.9069 1133 68.6602 1173.44 467.346
2058 0 96.249 11.4287 1100 70.3545 1173.52 466.729
2059 0 99.1403 11.7813 1168 73.53 1172.6 463.357
2060 0 103.101 12.415 1280 76.7352 1171.75 458.879
2061 0 105.092 12.5604 1320 77.4348 1172.57 456.945
2062 0 108.074 12.4637 1347 78.5063 1172.27 455.163
2063 0 113.124 13.2068 1494 80.4572 1172.99 457.105
2064 0 114.102 13.8034 1575 81.5575 1173.61 455.677
2065 0 117.122 12.995 1522 83.7089 1173.45 455.319
2066 0 120.096 13.1228 1576 82.8731 1172.5 455.318
2067 0 122.141 13.3289 1628 83.4859 1173.34 451.061
2068 0 128.168 13.9271 1785 82.0712 1173.05 450.016
2069 0 129.132 13.2113 1706 83.4924 1173.44 447.221
2071 0 134.08 13.8276 1854 82.1915 1173.8 446.586
2072 0 137.102 13.129 1800 83.575 1173.86 445.991
2073 0 141.142 13.66 1928 81.6048 1174.72 442.429
2074 0 146.087 13.533 1977 82.7562 1174.71 440.598
2075 0 150.318 13.1122 1971 84.5378 1173.97 426.482
2076 0 154.223 13.3962 2066 84.4879 1173.34 424.052
2077 0 164.458 13.2739 2183 85.6628 1173.28 422.932
2078 0 169.349 14.0892 2386 84.4233 1173.45 421.188
2079 0 173.29 13.8323 2397 85.2887 1173.27 418.786
2080 0 178.323 13.7616 2454 85.4397 1172.85 416.508
2081 0 181.187 13.3619 2421 86.0285 1172.82 413.2
2082 0 186.229 13.7949 2569 84.4811 1172.59 410.496
2083 0 191.18 13.8769 2653 84.8575 1173.2 408.534
2084 0 196.225 13.5558 2660 85.3368 1173.42 407.635
2085 0 201.281 13.4985 2717 84.8189 1173.38 410.544
2086 0 209.241 13.5681 2839 84.9007 1173.34 404.846
2087 0 216.271 13.1132 2836 85.3981 1173.94 401.472
2088 0 222.376 13.4232 2985 85.6995 1173.69 398.151
2089 1 50.0478 11.529 577 71.286 1173.5 487.127
2090 0 51.0357 11.972 611 71.7643 1173.21 484.956
2091 0 52.1252 11.8752 619 71.1131 1173.8 484.485
2092 0 52.142 11.7564 613 71.8254 1173.89 484.501
2093 0 55.0553 11.2432 619 71.6042 1173.55 484.016
2094 0 57.0533 11.9537 682 70.8534 1174.07 482.881
2095 0 58.0925 11.5505 671 72.7258 1174.19 483.158
2096 0 61.0596 11.6116 709 72.0099 1173.92 481.004
2097 0 65.2655 11.2923 737 70.8412 1173.89 479.944
2098 0 64.1858 10.937 702 74.5285 1173.12 478.066
2099 0 70.0901 12.6694 888 70.3468 1174 480.464
2100 0 73.0966 13.1196 959 72.3577 1173.57 478.356
2101 0 74.092 12.6464 937 73.794 1173.23 476.695
2102 0 76.1311 12.7806 973 72.7513 1174.63 472.96
2103 0 77.2645 12.6966 981 73.9215 1174.37 472.352
2104 0 79.2175 13.0148 1031 72.4074 1173.06 468.585
2105 0 80.3759 12.1803 979 73.478 1173.12 467.876
2106 0 85.4912 13.323 1139 71.5408 1173.59 466.198
2107 0 85.2421 11.8721 1012 74.8073 1172.96 459.634
2108 0 89.2148 13.4283 1198 70.5476 1173.98 464.977
2109 0 92.2503 13.4525 1241 70.8824 1173.55 464.798
2110 0 95.3191 13.0404 1243 72.7385 1173.99 461.533
2111 0 98.3319 12.9154 1270 74.0976 1173.63 459.219
2112 0 100.421 13.0949 1315 75.6806 1174.15 458.605
2113 0 102.278 13.1113 1341 78.123 1174.17 455.954
2114 0 106.262 12.9868 1380 78.5261 1174.09 454.222
2115 1 35.0427 11.0722 388 63.3918 1175.65 491.332
2116 0 38.1346 11.7216 447 68.5078 1176.32 491.74
2117 0 39.1656 11.4641 449 68.1403 1176.37 492.316
2118 0 39.1065 11.507 450 69.2244 1176.24 491.211
2119 0 40.0645 11.6312 466 69.0687 1176.18 490.989
2120 0 39.0762 11.0809 433 69.2656 1176.4 490.67
2121 0 39.0357 11.0412 431 69.0789 1175.97 488.879
2122 0 40.0447 10.1387 406 70.3695 1175.95 488.85
2123 0 42.053 11.1288 468 66.7863 1176.81 488.694
2124 0 42.0557 10.6288 447 68.3624 1176.26 487.481
2125 0 42.0738 10.2439 431 67.3944 1176.94 487.589
2126 0 42.0264 8.7564 368 67.4158 1176.14 485.302
2127 1 13.0026 7.46002 97 57.7938 1174.91 499.814
2128 0 12.0014 8.24902 99 52.2929 1173.84 493.253
2129 0 9.00279 4.55414 41 51.6341 1174.27 491.707
2130 0 10.0075 6.89483 69 50.8116 1174.58 493.116
2131 0 11.004 7.17922 79 51.4557 1174.43 493.633
2132 0 10.0014 6.4991 65 52.5231 1173.94 496.031
2133 0 9.00156 6.33223 57 51.193 1173.46 497.018
2134 0 14.0509 8.89621 125 52.56 1173.82 500.472
2135 0 14.0267 7.41445 104 55.7019 1173.82 501.827
2136 0 14.0279 6.34451 89 56.5506 1174.03 501.034
2137 0 14.143 6.6464 94 56.0957 1173.34 501.16
2138 0 15.0665 8.96026 135 54.8 1173.25 500.844
2139 0 16.1627 7.61013 123 57.2846 1173.62 499.797
2140 0 16.0728 9.14588 147 56.0612 1174.07 500.612
2141 0 16.0949 7.45576 120 58.2667 1173.51 500.292
2142 0 15.0336 7.11741 107 58.8598 1174.26 501.579
2143 0 16.1388 7.06373 114 58.9123 1173.85 500.07
2144 0 17.0668 7.03119 120 58.0417 1172.79 500.283
2145 0 15.0031 9.26477 139 56.0144 1173.54 498.209
2146 0 16.0202 7.42813 119 58.7143 1173.51 497.605
2147 0 17.0157 8.11014 138 56.8188 1173.57 498.565
2148 0 17.0378 7.16053 122 58.9508 1173.98 495.697
