time division length width area intensity CMx CMy
0 0 75.1556 14.1307 1062 113.903 196.794 475.282
1 1 38.0339 12.2522 466 121.867 197.193 489.47
2 0 40.0541 12.7827 512 114.623 196.496 490.916
3 0 40.0152 12.9451 518 116.488 197.207 490.996
4 0 44.0243 13.2654 584 114.731 197.411 489.479
5 0 44.0322 13.5356 596 115.97 197.584 489.26
6 0 45.0441 13.7643 620 116.685 198.126 488.113
7 0 46.1089 13.4248 619 109.952 196.89 490.774
8 0 46.0348 13.3595 615 111.65 196.911 489.779
9 0 48.0813 13.7267 660 109.7 196.808 488.564
10 0 49.0472 13.3953 657 109.589 196.279 488.518
11 0 52.0595 14.0993 734 107.046 195.151 487.312
12 0 53.102 13.4835 716 108.652 195.823 487.039
13 0 54.1204 13.8395 749 107.409 195.266 485.184
14 0 57.0938 13.8894 793 106.634 194.977 484.037
15 0 57.044 13.7262 783 108.022 194.811 484.416
16 0 60.057 14.3197 860 105.083 194.467 483.302
17 0 61.0997 14.1899 867 107.12 194.393 481.415
18 0 62.1084 14.201 882 106.986 194.424 481.598
19 0 65.061 14.4941 943 107.473 194.222 480.428
20 0 69.0548 14.3364 990 106.46 194.072 479.377
21 0 71.1105 15.3423 1091 105.756 194.559 478.588
22 0 72.1601 15.2716 1102 105.879 193.804 476.049
23 0 75.1497 15.0367 1130 105.184 193.941 474.938
24 0 78.0853 14.958 1168 104.571 193.775 474.893
25 0 81.1442 14.7762 1199 103.633 193.899 472.758
26 0 81.1205 14.8298 1203 104.833 194.551 471.778
27 0 86.1224 15.1064 1301 103.341 193.42 469.927
28 0 87.1559 15.1797 1323 103.753 193.808 469.088
29 0 90.0988 15.3609 1384 102.693 193.503 469.623
30 0 93.1407 15.2135 1417 102.891 193.57 467.733
31 0 96.1154 15.3773 1478 102.84 193.446 465.461
32 1 51.0664 12.5719 642 105.769 194.298 489.285
33 0 51.0172 12.78 652 105.666 193.939 487.825
34 0 54.0728 13.8517 749 103.275 193.861 486.826
35 0 56.0141 14.657 821 99.2424 193.501 486.4
36 0 56.0844 13.872 778 100.861 194.303 485.982
37 0 59.0865 13.4548 795 100.674 194.04 484.431
38 0 61.1062 14.0411 858 99.5559 193.7 484.442
39 0 62.1654 13.7536 855 101.316 193.814 484.495
40 0 62.1654 13.6732 850 174.38 194.826 484.412
41 0 65.0915 14.134 920 102.136 194.113 482.527
42 0 68.1429 14.631 997 100.077 192.866 481.409
43 0 71.1309 14.2132 1011 100.347 193.059 479.39
44 0 75.0979 14.4744 1087 100.06 192.482 476.954
45 0 78.098 13.9952 1093 101.302 192.887 475.749
46 0 78.112 14.236 1112 102.686 192.819 474.41
47 0 81.092 14.0704 1141 103.94 192.713 471.894
48 0 85.1449 14.7631 1257 100.557 192.38 472.208
49 0 87.1817 14.5214 1266 102.178 192.287 470.969
50 0 89.0951 14.2881 1273 104.28 192.934 469.759
51 0 93.1774 14.4778 1349 102.091 193.894 468.543
52 1 52.0252 12.5516 653 102.986 193.911 488.054
53 0 52.0537 13.2171 688 100.105 194.475 487.987
54 0 54.0514 13.7462 743 99.8654 194.087 485.833
55 0 56.0178 13.6742 766 97.5144 194.251 486.941
56 0 57.0427 12.9026 736 99.5584 194.62 485.557
57 0 58.0825 13.3431 775 98.8413 194.223 482.986
58 0 59.038 13.72 810 99.5889 193.759 482.122
59 0 62.0435 13.9418 865 98.0983 194.391 482.027
60 0 64.1068 13.4775 864 97.3056 194.265 481.257
61 0 67.1366 13.7183 921 96.5038 194.863 480.454
62 0 69.238 13.4608 932 96.6384 194.589 479.322
63 0 73.1335 13.8514 1013 94.5854 194.618 477.881
64 0 73.1335 13.8651 1014 157.604 194.611 477.848
65 0 77.2161 13.2356 1022 98.1341 194.334 476.265
66 0 81.228 13.5914 1104 93.8071 193.797 473.318
67 0 83.1923 13.6671 1137 94.0079 193.186 472.639
68 0 84.0976 13.4606 1132 98.856 193.23 470.966
69 0 88.0862 13.8501 1220 97.0066 193.286 468.981
70 0 92.1559 12.8152 1181 97.3319 192.972 467.688
71 0 95.1837 13.6158 1296 92.9884 193.183 465.447
72 1 49.047 10.6632 523 89.0746 193.717 488.734
73 0 51.1933 12.2868 629 85.0922 194.618 487.733
74 0 52.1453 12.3309 643 86.4417 193.904 485.434
75 0 52.0313 11.4547 596 85.9614 194.517 488.334
76 0 54.0347 12.2144 660 84.1379 194.292 486.889
77 0 55.0497 11.426 629 85.5787 194.833 486.296
78 0 56.084 11.3758 638 85.2727 194.301 485.719
79 0 58.0232 11.4437 664 84.0572 194.134 485.31
80 0 61.1055 11.161 682 83.9413 194.784 483.922
81 0 63.0522 12.0059 757 82.9802 194.21 481.539
82 0 64.0886 12.0614 773 82.8228 195.261 481.642
83 0 66.1123 11.6015 767 83.3963 194.618 479.025
84 0 68.1145 10.4677 713 84.7433 195.506 480.126
85 0 71.1762 11.1273 792 83.5606 194.893 478.991
86 0 74.0858 12.1616 901 81.7691 194.819 476.457
87 0 76.1693 11.4351 871 82.0941 194.432 474.58
88 0 79.1732 11.178 885 82.2746 194.707 473.173
89 1 41.0337 10.5279 432 84.4167 195.454 490.852
90 0 44.0611 11.2344 495 83.503 195.869 491.097
91 0 45.0382 12.0786 544 83.8272 194.658 489.154
92 0 47.089 12.2534 577 84.0624 193.432 488.965
93 0 46.014 11.4313 526 78.0228 195.027 491.511
94 0 47.0254 11.3768 535 78.3271 194.443 490.578
95 0 48.0462 11.9052 572 78.9108 194.107 487.918
96 0 49.0559 10.6613 523 80.5717 194.857 488.857
97 0 52.0364 11.8379 616 77.7224 194.502 487.719
98 0 54.0612 11.191 605 78.3488 194.858 486.704
99 0 54.1083 11.8466 641 78.5257 194.704 486.3
100 0 55.0391 12.0642 664 78.6642 194.291 485.614
101 0 57.0309 12.2039 696 78.533 194.042 484.685
102 0 58.0724 11.6234 675 80.0044 194.27 482.77
103 0 60.0762 10.9361 657 82.5571 194.134 483.239
104 0 64.1349 12.0839 775 80.8452 194.655 480.987
105 0 65.086 11.431 744 83.1586 194.483 481.145
106 0 68.1058 12.1576 828 82.5229 195.086 478.039
107 0 70.174 12.1127 850 83.8247 194.571 478.518
108 0 73.1274 12.5534 918 83.0305 194.467 476.82
109 0 75.2527 12.4248 935 83.7433 194.121 477.129
110 0 77.0946 12.4782 962 84.3035 194.635 476.077
111 0 79.0611 12.5726 994 84.495 193.912 475.439
112 1 43.0379 10.6883 460 87.8152 194.843 493.874
113 0 46.0425 12.6188 581 83.6076 194.907 492.117
114 0 46.037 12.1641 560 84.7554 193.923 491.277
115 0 48.0535 12.4028 596 85.5352 194.55 490.503
116 0 47.0215 12.2497 576 88.8351 194.128 490.24
117 0 51.0671 13.1004 669 85.2571 194.716 490.049
118 0 49.0751 12.6541 621 90.9356 194.24 490.126
119 0 52.1042 12.9932 677 88.8331 194.111 489.312
120 0 53.111 12.9352 687 89.3581 194.876 488.803
121 0 54.0676 13.853 749 87.8077 194.622 487.559
122 0 57.1956 14.0395 803 86.5318 194.455 487.722
123 0 59.1879 13.5163 800 87.9738 194.585 486.345
124 0 61.1482 13.8843 849 86.9105 194.583 484.792
125 0 60.1734 13.5608 816 89.7096 194.716 483.328
126 0 66.1961 14.0492 930 85.8452 195.283 482.508
127 0 66.14 13.169 871 89.2434 194.923 482.367
128 0 68.1163 14.0642 958 86.7401 194.233 481.783
129 0 70.1917 13.5913 954 87.9665 194.601 481.481
130 0 71.1608 13.0409 928 89.6185 194.999 480.154
131 0 75.1424 13.1617 989 88.5794 194.236 478.297
132 0 78.1751 13.764 1076 87.6506 193.796 476.388
133 0 80.1523 13.4619 1079 88.7637 193.504 475.542
134 0 82.124 13.5527 1113 88.0431 193.472 475.928
135 0 84.1688 13.6274 1147 87.9861 193.882 473.112
136 0 86.1465 13.7208 1182 88.044 193.611 472.134
137 0 88.1636 13.6337 1202 88.0358 193.743 469.775
138 0 91.1516 13.7024 1249 86.9688 194.047 470.33
139 0 94.2178 13.628 1284 85.1869 192.912 467.886
140 0 98.1748 12.9565 1272 83.5723 192.73 468.517
141 1 49.0271 12.2381 600 82.91 193.565 492.435
142 0 48.0337 11.8459 569 88.2127 191.902 491.241
143 0 52.048 11.9313 621 78.8438 192.527 488.557
144 0 52.0254 12.6477 658 81.0471 192.407 488.933
145 0 53.0636 11.8537 629 82.3959 192.399 489.496
146 0 56.0759 12.1443 681 81.116 192.023 488.9
147 0 59.0437 12.55 741 78.8394 192.717 489.192
148 0 61.0933 12.7182 777 78.9781 192.368 487.826
149 0 61.0267 12.601 769 80.0611 192.456 483.464
150 0 65.0301 13.2246 860 79.7977 192.129 483.083
151 0 66.0516 13.5046 892 80.5919 191.806 482.353
152 0 69.0542 13.1201 906 81.628 191.76 481.478
153 0 71.1082 13.5849 966 82.706 191.679 479.734
154 0 74.072 13.3789 991 83.3411 191.712 478.244
155 0 78.0643 13.8476 1081 82.0648 192.361 476.444
156 0 78.1341 13.2337 1034 84.5348 193.906 476.376
157 0 82.1651 13.266 1090 83.7266 194.272 474.403
158 0 83.1486 12.8084 1065 84.785 194.078 474.256
159 0 86.1839 13.3436 1150 84.6652 193.808 472.425
160 0 87.2314 13.0801 1141 86.2235 193.527 471.372
161 0 92.1893 12.8757 1187 85.9705 193.17 468.643
162 0 94.1851 13.1125 1235 83.7749 194.088 468.524
163 1 49.0378 10.5633 518 85.1718 193.602 490.878
164 0 50.0206 11.0155 551 80.4047 193.904 487.735
165 0 53.0487 12.1398 644 78.8789 194.537 489.321
166 0 54.046 11.8233 639 77.7496 194.49 487.509
167 0 55.1036 12.1226 668 79.988 194.446 486.967
168 0 57.0984 12.5047 714 79.2997 194.567 484.842
169 0 59.1956 12.5854 745 79.0174 194.455 484.711
170 0 60.0936 12.1311 729 80.8395 194.39 483.354
171 0 62.1509 12.5179 778 82.6478 194.243 482.382
172 0 64.2424 12.375 795 82.8113 194.925 481.218
173 0 67.1631 12.9238 868 81.1509 194.606 479.416
174 0 68.0809 13.2343 901 81.7314 194.898 479.19
175 0 72.1306 12.9349 933 81.806 194.726 478.603
176 0 74.1263 13.5714 1006 81.5686 194.005 478.042
177 0 77.1478 12.7029 980 83.352 193.518 477.166
178 0 78.0646 12.8483 1003 84.5803 194.066 475.342
179 0 83.0848 13.1312 1091 83.5655 194.32 473.706
180 0 85.192 13.4872 1149 84.6118 193.621 472.049
181 0 86.101 13.1241 1130 85.8283 194.369 472.312
182 0 90.1309 13.4138 1209 85.1439 193.844 470.831
183 0 93.0993 13.5769 1264 86.2144 194.021 469.615
184 0 96.1649 13.56 1304 87.4992 193.202 467.24
185 0 99.131 13.3762 1326 87.8643 193.675 466.419
186 0 101.175 13.7682 1393 88.3388 193.795 465.658
187 0 104.113 13.4662 1402 89.8795 193.259 464.003
188 1 54.0838 12.2403 662 85.3353 194.095 489.434
189 0 56.1146 12.3319 692 83.7384 193.634 488.033
190 0 58.3395 12.8215 748 92.7112 193.318 485.134
191 0 58.1322 11.7835 685 87.2102 193.839 486.272
192 0 59.2291 11.6159 688 89.25 193.049 487.109
193 0 61.1764 11.0664 677 90.6484 192.625 486.671
194 0 64.2494 11.8912 764 90.3076 192.915 483.898
195 0 67.2755 11.8914 800 89.5325 193.095 483.15
196 0 67.2031 11.4132 767 91.7888 192.817 482.631
197 0 69.2168 11.5868 802 91.7344 192.954 480.847
198 0 71.1623 11.804 840 93.106 193.007 480.112
199 0 75.1692 11.5606 869 90.7089 193.338 479.138
200 0 78.1779 12.8809 1007 89.1619 192.971 475.389
201 0 79.1491 11.9521 946 92.0814 192.66 474.379
202 0 82.2304 12.0515 991 116.647 192.259 475.652
203 0 85.218 12.5912 1073 114.568 192.211 473.626
204 0 85.1648 11.3192 964 117.716 192.485 472.804
205 0 90.1193 12.3614 1114 113.984 192.695 471.637
206 0 93.086 12.1178 1128 111.484 192.091 470.827
207 0 95.1015 12.4814 1187 109.623 191.962 467.789
208 0 97.0971 11.9674 1162 108.612 192.237 468.233
209 1 55.1861 11.0898 612 99.4265 193.549 489.989
210 0 55.1113 11.885 655 97.9237 192.415 487.218
211 0 56.072 11.5922 650 98.6538 191.355 487.76
212 0 59.2703 12.2321 725 102.232 191.299 487.127
213 0 61.32 12.1657 746 102.647 191.295 486.025
214 0 62.195 13.1361 817 99.4051 191.395 484.187
215 0 66.2928 12.8973 855 97.7287 191.637 483.95
216 0 67.2321 12.2709 825 101.371 191.55 482.897
217 0 69.0946 12.6059 871 102.278 192.527 480.906
218 0 71.2775 13.1318 936 112.759 192.421 479.408
219 0 74.181 13.2918 986 110.767 192.813 478.499
220 0 75.1024 13.1687 989 111.866 192.741 476.14
221 0 78.072 13.5388 1057 110.95 192.013 475.764
222 0 79.0902 13.3266 1054 113.823 192.528 476.02
223 0 83.0555 13.2321 1099 113.269 193.227 474.631
224 0 84.101 13.5789 1142 113.656 192.552 473.789
225 0 87.0559 13.9566 1215 112.816 191.947 472.988
226 0 87.0855 13.9518 1215 114.319 191.872 471.156
227 0 88.2983 14.1679 1251 114.835 192.468 471.206
228 0 91.3299 14.1903 1296 113.529 191.895 470.009
229 0 93.2514 14.1124 1316 113.866 191.824 470.672
230 0 94.3684 14.3904 1358 111.627 192.177 468.994
231 0 95.3402 14.2752 1361 111.447 192.399 468.987
232 0 96.3171 14.8156 1427 110.501 191.273 467.613
233 0 98.2657 14.6745 1442 110.212 191.334 469.278
234 0 99.3095 13.8355 1374 112.416 191.961 467.799
235 0 101.317 14.5089 1470 109.699 191.774 465.881
236 0 103.316 14.654 1514 109.079 191.573 465.883
237 0 105.289 14.9208 1571 106.714 191.772 465.151
238 0 106.342 14.6884 1562 107.471 191.977 463.371
239 0 108.273 14.9068 1614 105.415 191.848 462.023
240 0 107.266 15.4102 1653 103.158 191.707 463.035
241 0 109.364 15.4347 1688 104.398 191.469 461.56
242 0 109.375 15.0308 1644 105.58 191.617 461.53
243 0 110.338 14.9359 1648 105.544 191.56 462.066
244 0 108.286 14.591 1580 105.897 190.823 461.949
245 0 111.278 14.7289 1639 104.671 190.709 460.668
246 0 112.341 15.2927 1718 101.474 191.065 460.69
247 0 112.309 15.2526 1713 100.4 190.506 460.194
248 1 149.353 12.1324 1812 98.9139 190.705 453.825
249 0 148.433 11.5743 1718 100.212 190.677 454.093
250 1 163.529 11.2518 1840 97.6071 190.848 449.051
251 0 164.421 11.355 1867 97.6031 190.99 450.33
252 0 163.332 10.8858 1778 96.5281 191.426 454.826
253 0 164.339 11.4093 1875 95.8427 191.683 450.683
254 0 162.306 10.6404 1727 98.1332 191.34 452.653
255 0 164.37 12.119 1992 92.1079 190.798 446.734
256 0 165.469 12.2259 2023 90.4958 191.641 449.825
257 0 161.377 13.831 2232 86.6196 190.987 445.258
258 0 159.297 11.7391 1870 91.0209 190.945 455.029
259 0 159.52 11.9233 1902 89.8559 190.677 453.525
260 0 157.312 12.1224 1907 89.0739 191.069 450.405
261 0 159.435 12.4126 1979 87.0738 190.853 447.487
262 0 159.299 12.781 2036 85.1591 191.128 446.891
263 0 158.336 11.7661 1863 87.1573 191.376 453.131
264 1 171.326 11.481 1967 150.929 191.31 448.759
265 0 173.327 13.1197 2274 79.1715 191.916 441.34
266 0 175.399 10.9522 1921 83.4341 191.77 448.323
267 1 64.1056 9.88992 634 85.2429 192.336 485.084
268 0 63.1046 9.71402 613 85.3426 192.344 484.664
269 0 64.2066 10.3883 667 80.6267 191.954 483.693
270 0 65.0655 11.0811 721 75.4341 192.705 482.671
271 0 65.0808 10.6483 693 75.0736 191.994 482.176
272 0 63.1075 9.65019 609 74.6634 192.765 482.488
273 0 63.1661 10.607 670 69.9149 192.296 481.228
274 0 63.1031 9.87273 623 68.1557 192.371 483.013
275 0 64.1161 11.4792 736 63.6467 192.19 481.082
276 0 62.1099 9.82129 610 65.5803 192.956 481.259
277 0 62.1538 10.5223 654 63.5887 192.439 481.544
278 0 63.1397 10.0729 636 61.1509 192.17 482.388
279 0 62.0861 10.5499 655 61.4153 192.073 480.902
280 0 62.0961 10.3388 642 59.1059 192.438 479.579
281 0 61.0478 8.76362 535 59.172 192.716 481.254
282 0 61.1073 9.65515 590 57.2797 192.553 478.583
283 0 59.1356 8.3875 496 56.8508 192.431 477.611
284 0 60.043 9.39327 564 54.578 192.323 476.791
285 0 58.2014 8.24722 480 54.0938 192.679 479.227
286 0 60.0468 8.39346 504 53.1091 192.895 478.933
287 1 124.396 6.90535 859 51.4657 189.917 384.545
288 1 87.14 13.7595 1199 94.216 189.528 273.613
289 0 89.1215 15.1254 1348 91.9948 189.323 271.374
290 0 92.1455 14.2383 1312 93.1303 189.104 270.64
291 0 96.1644 16.0038 1539 86.0578 189.292 267.619
292 0 98.2067 14.2353 1398 93.4227 189.409 267.253
293 0 115.068 16.9726 1953 78.0379 188.721 260.794
294 0 106.225 17.5853 1868 81.9138 189.433 259.125
295 0 115.186 18.952 2183 76.6427 188.531 255.672
296 0 116.329 17.7427 2064 80.2432 189.207 254.777
297 0 116.192 15.853 1842 84.3111 189.065 256.212
298 0 117.236 13.8353 1622 89.2725 188.758 257.474
299 0 121.234 13.6266 1652 87.27 188.834 255.055
300 0 124.168 13.1998 1639 87.5235 188.537 253.517
301 0 130.11 16.4246 2137 80.1905 188.109 249.221
302 1 74.1044 13.7509 1019 86.05 188.18 277.045
303 0 79.2013 14.2169 1126 84.3162 188.504 276.719
304 0 78.1193 13.9786 1092 86.5375 188.274 274.702
305 0 83.157 14.3223 1191 83.8598 188.936 273.828
306 0 85.0815 13.7985 1174 84.7095 188.831 274.187
307 0 86.083 13.7425 1183 84.7447 188.656 272.192
308 0 89.1066 13.8935 1238 85.1058 188.943 271.262
309 0 93.1526 14.8037 1379 82.2306 188.344 270.282
310 0 94.2135 13.5437 1276 85.1803 188.162 268.085
311 0 98.1775 13.934 1368 84.28 188.716 266.765
312 0 100.157 13.9981 1402 85.6405 189.073 265.968
313 0 102.093 13.5562 1384 86.901 188.637 265.554
314 0 107.133 14.3 1532 84.455 188.565 263.91
315 0 109.121 13.9386 1521 85.5365 188.554 262.941
316 0 113.129 13.7807 1559 87.7999 188.733 261.962
317 0 117.155 14.1266 1655 86.452 188.209 259.352
318 0 121.198 16.4937 1999 80.1716 188.377 257.692
319 0 124.212 16.0613 1995 81.2531 188.495 254.539
320 0 129.186 16.5575 2139 80.5386 188.077 253.476
321 0 132.101 16.0483 2120 81.1476 188.064 251.038
322 0 137.305 16.1247 2214 81.1481 187.969 249.785
323 1 70.0978 11.5695 811 86.7546 188.633 283.549
324 0 72.0849 12.2217 881 83.6935 188.262 284.736
325 0 73.0704 12.2621 896 84.6886 188.454 282.71
326 0 74.0642 12.6512 937 85.1089 187.554 281.988
327 0 77.0604 13.1455 1013 84.7878 187.69 280.497
328 0 80.0901 13.2975 1065 83.1531 187.941 280.766
329 0 84.0581 13.8714 1166 81.916 187.597 279.213
330 0 85.0759 13.9758 1189 82.9041 187.498 277.526
331 0 90.0853 14.6972 1324 81.1798 186.763 275.785
332 0 90.0994 13.6849 1233 84.5702 187.424 272.559
333 0 93.1144 14.0795 1311 85.3288 187.822 271.05
334 0 97.1669 13.5025 1312 87.4276 187.531 270.522
335 0 105.08 16.7207 1757 80.5566 187.099 264.539
336 0 102.198 15.9886 1634 84.2118 186.59 265.816
337 0 107.156 16.5832 1777 88.0428 187.03 264.022
338 0 109.203 16.5289 1805 88.1706 187.449 260.765
339 1 49.138 11.3151 556 84.8633 187.367 294.621
340 0 51.1361 11.929 610 85.4049 187.759 292.987
341 0 52.1283 11.9513 623 86.0658 186.791 292.536
342 0 55.121 12.2095 673 84.2615 187.328 292.502
343 0 55.1241 12.0274 663 86.9065 187.398 291.596
344 0 57.1152 12.396 708 88.7189 187.027 290.414
345 0 59.0961 12.4712 737 87.9172 186.003 290.555
346 0 61.199 13.1538 805 82.2224 186.086 289.55
347 0 62.0753 12.6298 784 91.0804 186.256 287.804
348 0 65.0933 12.9199 841 90.6897 186.46 287.477
349 0 66.0705 13.1829 871 91.2101 186.442 286.137
350 0 68.0855 12.9984 885 91.7853 186.482 286.249
351 0 70.0938 13.325 934 91.8822 186.861 285.104
352 0 73.0749 13.3425 975 92.3251 186.216 283.646
353 0 75.0874 13.2379 994 94.7726 186.251 283.28
354 0 77.1241 13.6144 1050 95.8286 185.288 281.53
355 0 79.0648 13.217 1045 96.8967 185.397 279.856
356 0 81.0752 12.8276 1040 98.4048 185.601 279.721
357 1 41.0696 10.397 427 92.3653 185.754 299.269
358 0 41.0696 10.4457 429 151.89 185.755 299.273
359 0 45.1266 12.0107 542 97.9779 186.694 297.542
360 0 46.1432 11.746 542 99.8838 187.244 295.71
361 0 49.0843 11.8571 582 98.7749 186.431 294.565
362 0 50.1349 12.2669 615 95.9171 186.397 293.093
363 0 51.0551 12.5942 643 96.0918 186.838 292.893
364 0 53.1082 12.6346 671 95.1028 186.03 293.914
365 0 56.0682 12.9307 725 93.0731 186.79 292.04
366 0 56.1249 13.078 734 93.4346 188.117 292.292
367 0 56.2281 12.3604 695 98.3554 187.101 291.567
368 0 59.0975 12.9616 766 95.8368 186.617 288.769
369 0 62.103 12.7852 794 96.5718 186.78 290.713
370 0 62.167 12.7077 790 96.4468 186.182 288.684
371 0 65.2033 12.8214 836 96.8421 186.44 287.108
372 0 64.1123 13.18 845 95.5456 186.44 286.516
373 0 68.1772 13.5529 924 95.9859 186.338 286.712
374 0 68.1433 13.3102 907 96.4498 186.336 284.819
375 0 72.1002 13.4674 971 96.0742 186.449 283.885
376 0 73.0948 13.6809 1000 96.932 187.003 282.365
377 0 76.1498 13.9725 1064 96.9323 187.131 279.96
378 0 79.1513 13.2531 1049 98.1888 187.056 281.516
379 0 82.1277 14.2339 1169 94.8837 187.383 279.086
380 0 84.0688 13.9529 1173 96.3333 188.188 277.205
381 0 89.1391 13.2938 1185 98.0346 188.239 275.31
382 0 89.124 14.1937 1265 96.8055 187.478 274.327
383 0 91.106 13.7752 1255 98.8112 187.887 272.164
384 0 94.2028 14.4476 1361 93.4974 187.574 270.606
385 0 95.1718 14.7313 1402 99.1441 187.746 271.073
386 0 99.1272 14.7992 1467 97.2658 188.018 269.527
387 0 99.1717 16.7286 1659 90.6269 188.136 265.372
388 0 101.088 16.1344 1631 94.2685 187.287 265.188
389 0 104.112 16.8185 1751 93.4712 187.525 262.162
390 0 108.158 17.1231 1852 92.2327 187.407 261.332
391 0 111.183 17.3498 1929 92.2955 187.443 259.034
392 0 115.179 17.1993 1981 91.1747 187.028 257.701
393 0 119.236 17.6373 2103 89.2943 187.294 254.069
394 0 120.119 16.6085 1995 93.202 186.929 253.283
395 0 126.103 17.454 2201 90.2526 188.149 251.967
396 0 129.113 17.2329 2225 91.8584 187.658 250.502
397 0 132.059 17.4089 2299 89.8865 187.872 248.304
398 0 138.173 17.6663 2441 90.3794 187.079 247.524
399 0 141.142 16.7562 2365 93.1277 187.789 244.685
400 0 145.102 16.8846 2450 92.5571 187.495 241.449
401 0 150.104 16.915 2539 92.6231 188.022 237.116
402 0 155.089 16.526 2563 93.7011 188.453 234.137
403 0 160.209 16.2101 2597 93.1887 188.195 231.866
404 0 169.251 17.9083 3031 92.7846 188.289 230.139
405 1 101.276 13.4681 1364 99.0821 188.564 266.106
406 0 104.206 13.7516 1433 100.307 188.893 265.694
407 0 107.198 14.0767 1509 99.2147 188.964 265.072
408 0 112.083 14.8105 1660 97.3187 188.581 264.149
409 0 115.19 15.1228 1742 101.918 189.125 260.875
410 0 117.21 14.8878 1745 102.978 189.819 259.685
411 0 122.21 14.9824 1831 102.829 189.527 258.003
412 0 126.296 14.8698 1878 102.796 188.728 256.211
413 0 128.173 17.1174 2194 95.5424 187.237 250.053
414 0 133.251 17.696 2358 93.3036 187.453 248.619
415 0 136.204 16.6515 2268 95.3607 187.289 245.746
416 0 139.317 17.1911 2395 96.372 187.678 244.945
417 0 145.328 17.3813 2526 94.5717 188.286 244.255
418 0 151.312 17.0839 2585 91.0046 188.048 238.009
419 0 158.361 17.5485 2779 87.8582 187.984 242.136
420 0 164.374 17.9043 2943 87.7091 187.523 238.531
421 1 80.2826 12.6055 1012 96.2273 187.459 281.373
422 0 83.3222 12.9977 1083 93.1016 186.982 281.183
423 0 85.2007 12.3825 1055 91.4 188.238 277.832
424 0 89.326 13.1653 1176 88.756 188.243 277.753
425 0 90.3491 13.0605 1180 89.189 188.149 277.266
426 0 94.1592 13.6896 1289 88.1164 188.808 275.56
427 0 96.2035 13.7521 1323 88.6357 188.397 272.673
428 0 98.2872 12.9111 1269 89.5477 188.016 271.882
429 0 102.224 13.0302 1332 88.1967 188.127 269.948
430 1 59.1787 10.274 608 87.8832 188.646 292.349
431 0 59.1772 10.3249 611 84.4648 188.717 293.7
432 0 59.1909 11.8937 704 82.2827 188.393 290.653
433 0 60.1342 11.5575 695 82.2835 188.052 290.404
434 0 62.2022 11.4305 711 83.0267 188.35 289.985
435 0 63.246 12.1747 770 82.0896 188.278 288.764
436 0 67.0119 12.8186 859 86.8603 188.931 285.657
437 0 67.1954 12.2032 820 81.2012 188.5 288.044
438 0 70.2221 12.8307 901 79.3163 188.42 287.546
439 0 70.2105 12.9468 909 78.7833 188.031 285.358
440 0 73.1969 12.6918 929 79.7826 188.577 285.996
441 0 76.2135 12.9111 984 81.2866 188.513 282.89
442 0 76.1957 12.5204 954 82.1614 187.613 281.205
443 0 79.1154 12.9684 1026 83.5858 187.686 278.827
444 0 84.2679 13.3384 1124 80.9947 187.593 278.308
445 0 86.3688 13.2687 1146 81.9817 188.007 275.668
446 0 87.1606 12.7351 1110 85.2099 187.816 274.748
447 0 93.3176 14.0166 1308 87.2057 188.395 273.099
448 0 95.2894 13.968 1331 86.1743 187.331 271.691
449 1 48.1604 11.2956 544 86.579 188.697 295.23
450 0 50.1216 11.5719 580 88.119 188.433 293.698
451 0 50.099 11.8965 596 87.7148 188.319 294.013
452 0 53.1093 12.0883 642 83.6168 189.051 292.174
453 0 56.2232 13.4998 759 79.2424 188.493 292.497
454 0 53.1429 12.7957 680 81.5632 187.163 293.396
455 0 55.166 12.4714 688 78.6439 185.779 294.86
456 0 57.179 13.449 769 77.0299 187.137 293.624
457 0 58.165 12.5161 728 78.7019 186.591 292.64
458 0 60.2326 12.8502 774 77.1137 186.899 292.293
459 0 61.2906 12.922 792 76.4836 186.095 290.232
460 0 62.2506 13.1244 817 76.7846 186.755 288.907
461 0 63.1352 13.2889 839 75.5268 186.855 288.58
462 0 65.1052 14.0388 914 74.9223 187.112 286.395
463 0 67.2481 13.874 933 75.3194 187.568 287.039
464 0 68.1902 14.0196 956 76.16 187.136 286.359
465 0 71.1976 14.214 1012 76.6285 187.393 284.916
466 0 71.1212 13.3715 951 78.9432 186.691 284.3
467 0 75.2555 14.2448 1072 77.1455 187.182 282.678
468 0 77.1435 13.1832 1017 78.3864 186.462 280.529
469 0 80.2358 14.0586 1128 76.6144 186.05 281.139
470 0 83.2976 13.7699 1147 78.1247 186.457 279.236
471 0 85.1778 13.7947 1175 77.2894 186.995 278.681
472 0 85.1778 13.8769 1182 162.22 187.004 278.503
473 0 92.2548 14.4274 1331 77.4418 186.771 273.947
474 0 90.319 13.5741 1226 79.4086 186.994 274.14
475 1 48.1007 12.162 585 78.1419 186.003 295.321
476 0 50.2908 12.388 623 78.9631 186.313 294.581
477 0 51.1581 13.0576 668 78.3982 185.516 293.141
478 0 54.1324 13.6148 737 75.9294 185.43 292.351
479 0 52.2289 13.1919 689 73.119 186.306 294.206
480 0 54.273 13.5979 738 71.6789 186.152 293.721
481 0 54.2371 13.4779 731 73.3228 185.975 291.762
482 0 55.1694 13.522 746 73.7815 186.308 291.298
483 0 58.3033 13.6527 796 72.6231 186.541 290.974
484 0 60.1993 14.2028 855 72.1719 186.347 290.313
485 0 61.2788 13.4794 826 74.8523 186.155 289.151
486 0 64.2484 14.3661 923 72.8462 185.905 288.878
487 0 65.4058 14.7235 963 73.1277 184.813 288.075
488 0 68.2287 15.2282 1039 71.2936 185.246 287.572
489 0 69.1761 14.3691 994 74.169 185.831 285.73
490 0 71.3323 15.0142 1071 76.3389 186.136 285.105
491 0 75.2794 14.8646 1119 73.5299 185.916 282.152
492 0 78.2062 14.8837 1164 73.7947 185.586 281.848
493 0 79.2355 14.4632 1146 75.3019 185.545 280.937
494 0 81.1762 14.8566 1206 75.7206 186.289 279.382
495 0 85.2511 14.8502 1266 81.7836 186.984 277.105
496 0 87.2648 15.1378 1321 81.3119 186.488 275.037
497 0 88.2458 14.5276 1282 83.0499 185.679 274.265
498 0 91.2453 15.2008 1387 80.7217 185.478 273.396
499 0 93.1781 14.2737 1330 83.4571 185.203 271.77
500 0 98.231 14.9138 1465 81.3836 185.716 271.011
501 0 99.2353 14.7327 1462 82.5397 185.78 268.813
502 0 102.132 14.7064 1502 82.4174 185.612 269.328
503 0 106.217 15.3177 1627 81.7474 185.912 267.756
504 0 110.3 14.8142 1634 81.8384 185.748 264.236
505 0 112.197 15.2767 1714 81.6435 186.328 261.712
506 1 59.1798 12.1325 718 80.6253 185.603 290.255
507 0 59.1071 12.1136 716 79.6089 184.779 289.686
508 0 61.1786 12.439 761 79.0197 184.886 287.728
509 0 64.1934 13.2257 849 79.066 185.093 288.032
510 0 67.2618 13.8563 932 79.2607 185.518 286.344
511 0 67.2565 12.4746 839 82.9368 185.7 285.933
512 0 68.3329 13.083 894 82.2629 186.027 285.55
513 0 71.3035 12.8745 918 83.232 186.43 284.59
514 0 75.2211 13.334 1003 82.1765 185.476 284.152
515 0 76.2714 13.1635 1004 83.5538 185.939 281.863
516 0 78.288 13.1693 1031 83.6702 185.708 281.182
517 0 84.11 14.2314 1197 78.482 185.745 276.141
518 0 84.3047 13.1665 1110 81.673 185.198 278.771
519 0 86.2729 13.2487 1143 83.0525 185.486 277.734
520 0 91.4078 13.8063 1262 83.233 185.519 275.904
521 0 93.4109 13.5851 1269 84.0039 185.536 275.585
522 0 97.3503 13.3436 1299 83.5135 186.333 273.135
523 0 98.2977 13.0624 1284 84.0576 185.917 272.375
524 0 102.368 13.0314 1334 85.2511 186.116 269.755
525 1 57.2585 11.352 650 81.06 184.908 292.398
526 0 59.2072 11.2655 667 81.9175 184.933 292.685
527 0 58.2662 11.4131 665 82.3383 184.821 291.681
528 0 61.2822 12.5159 767 80.3781 184.905 289.085
529 0 61.2494 12.196 747 82.0295 184.983 290.574
530 0 65.2972 13.0634 853 79.1372 185.12 289.693
531 0 69.254 13.2411 917 78.5387 184.894 289.142
532 0 69.3524 13.2223 917 81.2781 184.772 289.288
533 0 72.2655 13.1321 949 81.2929 184.623 286.493
534 1 75.1827 8.29978 624 209.207 183.554 289.929
535 1 76.2202 12.7919 975 83.5631 183.793 285.564
536 0 78.1213 13.1462 1027 83.9805 183.899 284.822
537 0 81.1953 13.5599 1101 83.9546 184.854 283.179
538 0 85.2905 13.7061 1169 83.4388 184.658 280.521
539 0 87.4011 13.3522 1167 83.347 185.023 279.135
540 0 90.2373 13.6529 1232 85.862 185.573 278.277
541 0 91.3776 14.1829 1296 84.9992 185.349 277.241
542 0 95.3422 12.9428 1234 87.3339 185.582 275.648
543 0 99.5142 13.8674 1380 89.6348 184.638 271.188
544 1 56.3525 10.4875 591 88 183.777 294.775
545 0 56.3292 11.4683 646 84 183.906 294.257
546 0 58.1992 12.1136 705 84.573 183.977 292.252
547 0 57.1765 11.3683 650 81.3492 186.083 289.711
548 0 58.036 11.5618 671 81.8048 186.055 287.422
549 0 61.1186 11.9767 732 80.2227 185.393 288.725
550 0 62.1357 12.6819 788 78.7462 185.827 286.86
551 0 63.0589 12.2425 772 78.8536 186.096 285.048
552 0 66.1159 12.463 824 79.1044 186.328 285.671
553 0 68.1022 11.7911 803 81.0996 186.3 282.733
554 0 71.0979 13.179 937 78.1302 185.381 283.606
555 0 70.0837 12.428 871 80.9001 185.866 283.037
556 0 73.0643 12.4137 907 80.4057 185.445 281.573
557 0 76.1398 13.843 1054 78.5778 185.93 280.044
558 0 77.1448 13.0404 1006 85.0626 184.75 280.851
559 0 82.091 13.3876 1099 78.8735 185.672 279.804
560 0 81.0917 13.01 1055 81.5194 185.139 277.306
561 0 87.1156 13.132 1144 79.5376 185.917 275.199
562 0 87.1384 13.3236 1161 79.534 185.24 274.244
563 0 91.125 13.4321 1224 78.8399 185.395 273.884
564 0 94.097 13.1885 1241 78.7518 185.965 271.446
565 0 115.314 20.5959 2375 56.5844 185.358 255.333
566 0 116.224 18.4042 2139 59.7658 185.05 258.786
567 1 55.125 10.2676 566 73.2986 185.136 291.518
568 0 55.2765 11.5058 636 73.7594 185.437 290.354
569 0 57.1937 11.5922 663 72.7376 185.54 289.357
570 0 58.1409 10.7841 627 74.429 185.228 288.211
571 0 59.1137 11.9262 705 72.2383 184.831 287.916
572 0 63.2297 12.0197 760 70.4355 185.542 288.287
573 0 64.1169 12.7267 816 69.424 184.925 287.792
574 0 66.2467 12.4233 823 71.096 185.303 284.74
575 0 70.22 12.7599 896 70.5725 185.127 284.735
576 0 72.228 12.6682 915 71.059 185.074 283.407
577 0 74.1997 12.992 964 71.5571 184.667 282.677
578 0 75.1762 12.8365 965 74.6819 185.311 281.965
579 0 77.1587 13.8675 1070 73.6486 185.463 281.837
580 0 80.0713 13.2382 1060 75.0321 185.437 281.394
581 0 82.1068 13.6164 1118 72.0823 186.06 279.185
582 0 85.2645 13.2763 1132 77.0592 184.863 275.708
583 0 88.1486 12.9554 1142 74.6751 185.295 276.285
584 0 90.0967 13.3412 1202 74.277 185.26 274.161
585 0 90.1089 12.6958 1144 76.8514 185.155 273.624
586 0 94.1388 12.949 1219 76.7998 185.432 273.223
587 0 97.1438 13.0837 1271 78.3871 184.926 270.624
588 0 100.137 15.5986 1562 72.8374 185.217 266.995
589 0 104.155 15.4577 1610 73.2938 184.43 267.234
590 0 108.155 16.4856 1783 71.4352 184.32 266.024
591 0 112.296 16.0024 1797 73.5854 184.719 262.062
592 0 114.245 14.9678 1710 76.7374 184.879 260.659
593 0 119.325 14.7412 1759 77.2973 184.588 258.994
594 1 66.1834 12.42 822 74.7287 183.384 291.727
595 0 66.2454 12.3329 817 75.0404 183.541 289.328
596 0 68.2553 12.4239 848 76.1073 183.968 288.483
597 0 70.2847 13.0612 918 75.646 184.232 289.144
598 0 72.297 13.0434 943 76.4104 184.485 287.416
599 0 74.28 13.6376 1013 76.0928 184.49 287.175
600 0 76.3142 13.261 1012 77.7619 184.15 286.037
601 0 77.2117 12.6924 980 76.751 183.302 284.33
602 0 82.3126 13.1936 1086 75.1713 183.612 283.209
603 0 83.3269 13.381 1115 76.7507 183.884 281.519
604 0 87.2722 13.647 1191 75.2133 183.553 279.998
605 0 88.2233 14.0553 1240 78.7274 184.458 279.638
606 0 91.2629 14.4308 1317 78.1549 184.008 278.57
607 0 92.1388 13.5665 1250 80.2152 183.73 277.55
608 0 96.1543 13.8319 1330 80.0195 183.793 274.292
609 0 97.1945 13.6325 1325 80.5811 184.49 273.23
610 0 104.145 15.8721 1653 74.7405 184.229 270.064
611 0 103.279 14.3883 1486 79.5559 183.537 271.539
612 0 105.21 13.782 1450 81.509 184.27 270.688
613 0 109.272 13.6631 1493 80.9417 183.687 270.091
614 0 113.306 14.2093 1610 80.523 184.347 267.999
615 0 123.203 18.6116 2293 72.7191 183.533 258.556
616 0 127.156 17.6555 2245 77.4183 183.289 256.628
617 0 123.162 16.9696 2090 79.0823 183.639 257.568
618 0 126.18 16.3734 2066 80.4593 182.937 256.189
619 0 129.203 16.6018 2145 81.628 183.997 253.454
620 0 133.265 16.2458 2165 83.1284 184.078 252.058
621 0 137.166 16.6295 2281 82.2582 183.964 249.246
622 0 142.253 16.6534 2369 80.6564 183.837 248.584
623 0 147.177 17.1698 2527 79.0795 184.054 244.503
624 0 153.288 17.4704 2678 75.5385 183.763 242.763
625 1 77.1638 11.9097 919 77.555 183.528 284.668
626 0 78.2633 12.4324 973 78.4327 183.374 282.119
627 0 81.2317 12.3105 1000 78.698 183.995 280.193
628 0 82.1443 12.7824 1050 79.2971 183.24 280.29
629 0 85.2168 12.6853 1081 79.6957 184.574 278.081
630 0 87.1611 12.8039 1116 80.3566 184.547 276.277
631 0 92.2296 13.4664 1242 82.9018 185.187 274.422
632 0 97.2238 14.3792 1398 82.03 185.627 273.292
633 0 99.2306 13.6248 1352 83.8476 185.167 272.331
634 0 102.192 14.9817 1531 80.9869 185.048 269.257
635 0 112.3 17.5602 1972 72.2926 185.601 263.493
636 0 106.354 16.492 1754 76.8341 185.927 264.723
637 0 109.259 16.3557 1787 72.4611 184.643 264.594
638 0 112.144 16.14 1810 77.8873 184.362 262.916
639 0 114.174 15.923 1818 79.5902 185.5 261.03
640 0 117.211 15.3825 1803 80.6689 184.261 259.969
641 0 119.224 15.7603 1879 79.5067 185.547 257.773
642 0 124.479 16.324 2032 79.7854 185.013 257.737
643 0 126.393 16.3459 2066 81.3393 185.097 255.96
644 0 130.465 15.966 2083 81.6164 185.407 252.878
645 0 135.481 16.8953 2289 78.8882 185.423 251.642
646 0 139.336 16.715 2329 77.3405 185.479 247.512
647 0 143.332 16.3118 2338 79.1536 184.681 246.913
648 0 147.264 16.2361 2391 80.1874 184.988 242.589
649 0 150.285 16.0628 2414 81.0713 184.982 239.461
650 1 80.2167 11.8803 953 81.1952 184.89 279.551
651 0 83.2113 12.2099 1016 81.6358 184.984 278.34
652 0 84.2939 12.575 1060 86.4113 185.254 276.473
653 0 86.2919 12.3418 1065 88.0685 185.996 275.775
654 0 89.1898 12.2435 1092 87.543 185.926 275.376
655 0 91.2139 13.2984 1213 87.2185 185.472 273.805
656 0 94.2609 12.3805 1167 88.8963 186.148 273.045
657 0 99.1557 15.2286 1510 82.751 185.432 267.537
658 0 100.215 13.1118 1314 87.312 185.715 268.882
659 0 104.158 17.2526 1797 76.1336 185.981 268.366
660 0 107.205 16.6689 1787 79.2306 186.328 264.44
661 0 111.244 17.0796 1900 78.3853 185.891 261.162
662 0 113.298 17.273 1957 80.7184 185.631 261.893
663 0 117.329 16.5773 1945 81.8869 185.972 257.882
664 0 120.388 16.5631 1994 82.5512 185.668 257.747
665 0 123.262 17.2559 2127 82.221 186.006 257.108
666 0 128.313 16.7403 2148 83.8669 186.188 255.395
667 0 131.364 16.3211 2144 84.9776 186.829 253.063
668 0 136.284 17.126 2334 83.587 186.215 250.233
669 0 139.308 16.9695 2364 85.3845 185.71 246.778
670 0 143.321 16.8015 2408 86.64 185.57 245.054
671 0 147.355 16.6197 2449 86.7644 185.194 242.824
672 0 151.274 16.989 2570 86.8673 186.823 240.842
673 0 156.375 16.9209 2646 87.3587 185.927 239.876
674 0 160.271 16.859 2702 87.8135 186.572 234.928
675 0 164.306 16.6336 2733 88.0633 185.987 234.464
676 0 169.211 17.7766 3008 85.8554 186.678 229.122
677 0 174.374 16.4416 2867 88.6125 186.236 229.001
678 0 180.439 16.3047 2942 88.3134 186.63 225.126
679 0 186.368 16.3869 3054 89.2541 185.746 222.876
680 0 191.317 15.8115 3025 88.6145 185.133 215.933
681 1 103.186 12.5695 1297 87.872 185.194 266.853
682 0 105.216 13.3439 1404 92.1311 185.637 264.516
683 0 112.153 15.6662 1757 82.9562 185.983 258.093
684 0 112.033 13.3622 1497 91.0067 187.283 258.54
685 0 114.127 13.8267 1578 87.6534 188.071 258.091
686 0 118.161 13.4393 1588 90.1543 188.696 256.666
687 0 120.131 12.811 1539 92.0455 188.148 255.081
688 0 124.246 15.2681 1897 84.981 188.241 248.919
689 0 129.174 16.1565 2087 83.1835 187.887 248.484
690 0 133.158 16.0861 2142 84.1905 188.573 244.72
691 0 134.135 15.5068 2080 88.2904 187.961 244.286
692 0 140.221 15.5897 2186 87.6917 188.253 243.786
693 0 145.198 16.4189 2384 85.5403 187.965 242.562
694 0 150.127 16.879 2534 85.2269 188.249 239.996
695 0 155.138 16.9333 2627 85.989 187.758 236.261
696 0 158.227 16.0276 2536 88.7808 187.384 233.268
697 0 161.281 15.6187 2519 90.8229 187.443 228.95
698 0 170.234 16.7534 2852 84.2612 186.644 228.739
699 0 173.405 15.8416 2747 86.9574 187.196 217.3
700 0 180.42 15.9905 2885 86.9449 187.019 216.462
701 0 185.393 16.1656 2997 85.5686 186.318 220.931
702 0 168.497 16.1308 2718 88.6527 187.095 195.823
703 0 103.128 17.0953 1763 68.6648 185.579 267.276
704 0 98.1319 16.3453 1604 74.3036 185.334 269.673
705 0 96.0603 16.1461 1551 76.3185 185.757 270.456
706 0 101.087 16.3622 1654 76.136 185.498 269.158
707 0 100.051 16.3417 1635 77.3682 185.629 268.086
708 0 101.086 16.0061 1618 79.0748 185.506 268.425
709 0 103.132 16.0086 1651 80.0775 185.031 267.521
710 0 104.117 14.647 1525 83.3561 185.28 267.894
711 0 105.17 15.375 1617 80.06 185.215 265.447
712 0 109.195 16.2004 1769 77.4375 185.474 264.067
713 0 113.18 16.1955 1833 72.1413 186.564 260.719
714 0 117.199 17.1247 2007 76.8685 185.451 259.601
715 1 63.0611 10.8308 683 84.6149 185.848 288.129
716 0 65.1203 12.6842 826 81.6126 185.212 289.127
717 0 69.0955 13.4596 930 78.6785 184.623 290.363
718 0 69.0649 13.0023 898 80.9321 183.686 287.205
719 0 70.1588 13.8828 974 80.8778 185.386 287.546
720 0 71.1154 12.2336 870 76.9724 184.43 288.094
721 0 73.1174 13.0749 956 75.9487 184.997 286.779
722 0 75.1187 12.5401 942 77.6826 185.309 287.084
723 0 76.1714 12.6294 962 78.0613 184.74 287.603
724 0 79.1497 12.8617 1018 78.7102 185.12 285.574
725 0 81.1221 13.0051 1055 79.3062 185.493 286.218
726 0 85.1351 13.6606 1163 77.3491 185.506 284.397
727 0 86.1255 13.4223 1156 78.8711 184.632 281.705
728 0 87.1305 12.9231 1126 80.9494 184.765 281.603
729 0 92.1277 14.0132 1291 78.2479 184.49 279.821
730 0 94.1999 13.8535 1305 79.0743 185.054 278.636
731 0 97.1061 13.3771 1299 81.0947 185.239 277.724
732 0 105.212 16.9657 1785 76.3804 185.396 270.341
733 0 105.149 13.7043 1441 83.3491 185.93 272.749
734 0 107.128 14.5714 1561 80.9308 185.346 269.419
735 0 110.323 15.4909 1709 79.4874 185.826 265.535
736 0 113.134 13.842 1566 81.8806 185.268 264.968
737 0 118.209 16.1325 1907 78.1662 185.288 260.074
738 1 58.0906 10.2082 593 78.2142 184.823 294.351
739 0 60.1199 10.9947 661 75.6309 185.48 294.946
740 0 62.1999 13.0386 811 71.7016 185.144 292.856
741 0 63.2285 13.0637 826 73.4177 185.795 290.834
742 0 65.0972 13.6258 887 76.345 184.825 289.644
743 0 62.0477 11.7813 731 76.762 186.888 286.391
744 0 65.0677 12.8174 834 73.5851 187.234 285.826
745 0 68.0857 12.778 870 74.7069 186.805 285.906
746 0 69.1382 12.8004 885 75.1107 186.547 285.427
747 0 71.0922 12.8284 912 75.3004 186.885 284.476
748 0 72.08 12.5277 903 76.897 187.169 283.828
749 0 75.1419 13.0952 984 74.7886 186.81 281.663
750 0 77.0917 13.3996 1033 74.062 186.456 281.397
751 0 77.165 12.9333 998 76.0872 187.159 279.665
752 0 80.0718 13.2006 1057 76.2763 187.686 276.238
753 0 81.1096 13.5989 1103 77.5286 187.295 275.895
754 0 83.1279 13.7619 1144 77.271 187.397 275.997
755 0 86.0529 14.2703 1228 81.2459 186.291 269.714
756 0 89.1034 14.8255 1321 80.5564 186.535 274.244
757 0 91.1647 14.6548 1336 80.2231 186.675 276.085
758 0 94.2458 14.8548 1400 79.7171 186.781 274.344
759 0 99.2747 15.3816 1527 81.2246 187.561 271.559
760 0 101.228 14.8379 1502 83.3742 187.354 271.246
761 0 110.29 17.1095 1887 75.3699 186.909 263.777
762 0 109.2 17.7106 1934 77.0393 187.061 264.389
763 0 112.201 16.8626 1892 80.1929 186.997 262.42
764 1 60.1276 13.2219 795 79.9421 186.4 289.945
765 0 62.1181 13.587 844 78.4787 186.592 290.269
766 0 65.1162 13.1918 859 79.3399 186.219 289.58
767 0 66.111 13.6286 901 79.4273 185.64 287.836
768 0 72.0906 14.1766 1022 81.4276 185.936 286.595
769 0 72.1893 13.9217 1005 86.3294 185.805 282.934
770 0 74.1129 14.3565 1064 87.578 185.841 280.676
771 0 75.0954 13.7159 1030 84.2019 185.983 281.778
772 0 77.0607 13.8203 1065 86.0657 186.331 279.637
773 0 78.0933 13.5351 1057 88.7417 186.634 279.594
774 0 81.115 14.0541 1140 89.3561 185.744 277.665
775 0 81.0874 13.5039 1095 92.3178 186.172 276.596
776 0 84.1243 13.9199 1171 92.7643 185.816 273.453
777 0 86.1547 14.0329 1209 94.0273 186.537 271.791
778 0 88.0869 14.27 1257 94.6571 186.082 270.974
779 0 90.0828 14.6088 1316 96.9962 185.698 269.972
780 0 94.1553 14.4655 1362 97.4868 185.759 268.752
781 0 95.0831 14.9448 1421 98.2548 186.806 268.397
782 0 96.0747 14.1348 1358 102.188 187.144 265.897
783 0 101.119 14.389 1455 100.737 186.702 265.252
784 0 118.229 19.919 2355 80.6093 187.008 253.971
785 0 117.09 20.4799 2398 81.2627 186.188 252.548
786 0 119.187 20.4721 2440 80.8238 187.008 253.007
787 0 122.084 20.9774 2561 80.8134 186.685 251.668
788 0 121.118 19.1383 2318 88.4133 186.739 252.689
789 0 124.175 20.1732 2505 87.0375 186.685 249.423
790 0 116.154 16.1424 1875 100.863 186.887 256.585
791 0 120.092 16.862 2025 99.6237 187.915 255.165
792 0 124.1 16.0194 1988 103.304 187.573 252.635
793 0 128.07 16.7408 2144 102.86 187.431 251.106
794 0 132.174 17.0684 2256 103.31 187.435 250.94
795 0 134.116 17.209 2308 105.447 187.018 245.597
796 0 140.076 16.8123 2355 107.111 186.943 244.335
797 0 146.178 16.8083 2457 107.431 187.596 241.695
798 0 151.136 17.0707 2580 107.385 188.019 241.655
799 0 155.119 17.3028 2684 107.18 187.369 238.686
800 1 82.078 12.3907 1017 112.325 188.406 278.613
801 0 86.2277 13.0585 1126 109.731 188.288 276.116
802 0 86.128 12.7601 1099 111.004 188.146 274.713
803 0 88.1167 12.4835 1100 111.743 188.163 275.175
804 0 91.1937 12.6544 1154 111.55 187.347 272.83
805 0 93.2359 12.3343 1150 110.774 187.127 269.39
806 0 97.1336 12.2409 1189 109.399 186.332 270.943
807 0 99.178 12.9767 1287 109.034 186.957 270.513
808 0 102.159 12.6958 1297 107.062 186.84 271.325
809 0 103.112 13.238 1365 106.902 187.14 265.86
