time division length width area intensity CMx CMy
0 0 57.0786 13.5953 776 88.1662 1263.42 482.604
1 0 59.0557 13.0385 770 87.8442 1263.14 480.526
2 0 59.0871 13.2686 784 87.0255 1262.52 481.324
3 0 60.0505 12.4728 749 89.7931 1262.79 479.965
4 0 63.0388 12.7858 806 87.6253 1263.26 479.809
5 0 64.1476 12.2998 789 88.8226 1263.05 478.025
6 0 68.0627 13.2084 899 86.3204 1263.51 476.438
7 0 67.0582 12.6756 850 87.6494 1263.15 477.682
8 0 70.0682 12.9873 910 86.0901 1263.24 476.412
9 0 74.0642 13.3128 986 85.2434 1262.87 474.475
10 0 75.0982 13.3825 1005 85.4826 1262.79 474.472
11 0 76.0819 12.9991 989 87.5976 1261.72 473.182
12 0 80.0955 14.1331 1132 84.7633 1262.17 472.518
13 0 80.0979 13.5834 1088 86.0956 1261.7 469.588
14 0 84.0696 14.4285 1213 83.9283 1261.43 470.081
15 0 87.1028 14.4312 1257 84.5959 1261.15 469.029
16 0 88.1365 14.6704 1293 84.7378 1261.06 467.826
17 0 91.0969 14.2815 1301 87.2744 1260.96 466.869
18 0 94.1308 14.5967 1374 85.7817 1260.85 466.864
19 0 99.0846 15.3505 1521 84.6989 1260.79 463.989
20 0 99.1543 14.5228 1440 90.0667 1260.33 463.824
21 0 102.113 14.6994 1501 91.3751 1260.91 463.22
22 0 107.084 14.596 1563 91.1126 1260.34 460.033
23 0 109.085 14.6308 1596 91.5019 1260.14 457.848
24 0 114.206 14.8328 1694 89.1251 1260.05 457.16
25 1 63.0524 14.0518 886 92.9605 1260.67 479.55
26 0 67.0362 14.0521 942 94.9395 1261.65 478.611
27 0 70.0215 15.1096 1058 94.1522 1260.48 476.59
28 0 72.0927 14.6339 1055 96.1251 1260.75 475.986
29 0 75.0383 15.3788 1154 94.7002 1260.49 475.968
30 0 76.077 15.2214 1158 96.7314 1260.73 475.139
31 0 77.0873 15.2036 1172 97.0068 1260.37 474.471
32 0 81.1151 15.3362 1244 95.3127 1260.87 475.895
33 0 83.0856 15.466 1285 97.0412 1259.83 472.98
34 0 86.0944 15.9825 1376 95.7347 1259.84 472.145
35 0 85.0513 14.8146 1260 98.1833 1259.59 473.265
36 0 87.0884 14.5944 1271 101.643 1260.2 470.924
37 0 93.0281 15.2427 1418 98.7362 1259.86 469.174
38 0 93.0581 15.4527 1438 99.5097 1259.64 468.91
39 0 97.0374 15.056 1461 100.198 1259.87 468.489
40 0 99.043 14.7714 1463 101.792 1259.52 467.021
41 0 104.075 14.922 1553 101.018 1260.15 464.588
42 0 107.091 15.4729 1657 99.1129 1258.91 463.077
43 0 110.112 15.0937 1662 100.848 1259.1 461.652
44 0 114.091 15.5578 1775 99.0411 1258.7 458.125
45 0 119.064 15.1851 1808 101.58 1258.72 454.716
46 0 124.111 15.3492 1905 96.9454 1259.12 454.681
47 0 127.091 14.95 1900 96.3558 1258.78 451.407
48 0 132.176 15.0103 1984 96.9476 1258.31 448.272
49 0 138.098 15.1197 2088 100.2 1258.49 444.285
50 1 74.0676 14.2032 1052 96.1702 1259.25 477.615
51 0 77.0745 13.7789 1062 97.226 1260.54 475.233
52 0 80.1341 13.8892 1113 99.7035 1259.76 473.227
53 0 83.0667 14.7833 1228 97.0546 1260.39 472.082
54 0 86.1507 14.3702 1238 97.8748 1259.94 470.98
55 0 90.0755 14.5878 1314 96.0715 1259.96 468.566
56 0 93.0672 14.2048 1322 95.6165 1260.3 466.946
57 0 95.1164 14.3193 1362 95.7496 1259.78 464.33
58 0 95.1164 14.3508 1365 170.744 1259.79 464.427
59 0 104.138 15.2874 1592 93.9234 1259.78 460.296
60 0 107.168 15.2005 1629 94.4052 1259.5 458.91
61 0 109.122 14.69 1603 96.1541 1259.96 456.661
62 0 115.076 14.8771 1712 94.4947 1259.93 456.632
63 0 117.2 14.7781 1732 95.8712 1260.32 455.623
64 0 117.2 14.8037 1735 168.515 1261.32 455.603
65 0 126.173 14.8605 1875 95.1563 1260.08 453.935
66 0 131.192 14.7036 1929 95.1591 1259.06 450.831
67 0 136.217 14.888 2028 95.9083 1258.66 446.111
68 0 142.157 15.2437 2167 93.1934 1258.92 445.706
69 1 77.1649 13.5424 1045 91.9828 1259.34 475.147
70 0 80.1443 13.1887 1057 91.6679 1259.41 473.42
71 0 83.1738 14.103 1173 89.9378 1259.97 472.921
72 0 86.1345 14.2684 1229 89.6745 1260.59 472.33
73 0 89.0359 14.5784 1298 88.1718 1261.31 470.554
74 0 92.1106 13.6792 1260 90.7127 1261.22 467.983
75 0 95.073 14.694 1397 88.6099 1260.93 467.926
76 0 98.0933 14.0682 1380 89.4841 1260.52 465.499
77 0 104.208 14.7398 1536 88.1706 1260.96 464.53
78 0 106.109 14.5417 1543 88.1769 1259.74 463.399
79 0 110.236 14.5597 1605 86.2231 1259.5 461.858
80 0 112.24 13.7295 1541 84.9857 1260.16 460.818
81 0 118.303 14.7249 1742 82.756 1259.85 458.527
82 0 122.281 14.7039 1798 86.0957 1260.76 456.455
83 1 62.241 12.2427 762 86.4423 1260.7 484.652
84 0 64.2319 13.2956 854 84.8841 1261.26 483.665
85 0 66.1939 14.1856 939 82.5197 1260.86 483.545
86 0 66.1939 14.2309 942 167.998 1260.84 483.699
87 0 71.277 13.1599 938 84.71 1260.2 478.874
88 0 73.2869 13.7951 1011 82.7458 1260.51 477.002
89 0 76.224 14.0244 1069 81.9991 1260.38 475.112
90 0 78.2485 14.3517 1123 80.5939 1260.38 473.608
91 0 79.2611 13.6006 1078 81.4814 1260.35 472.091
92 0 83.1231 13.9432 1159 80.4953 1259.56 469.862
93 0 86.2486 13.7741 1188 80.7231 1260 469.557
94 0 86.2486 13.7625 1187 156.155 1260.99 469.575
95 0 91.3049 13.789 1259 81.363 1259.1 465.237
96 0 93.2841 14.2361 1328 80.2651 1259.74 465.223
97 0 97.3171 14.5093 1412 78.9207 1259.32 463.69
98 0 100.465 13.7362 1380 80.192 1259.59 461.583
99 0 103.298 14.7148 1520 78.1776 1259.17 460.659
100 0 106.226 14.1303 1501 79.1379 1258.79 457.905
101 0 106.226 14.1208 1500 151.552 1257.78 457.975
102 0 112.294 13.9634 1568 78.9994 1258.93 455.217
103 0 117.477 13.8921 1632 79.1066 1258.79 455.734
104 0 120.287 13.4429 1617 79.8844 1259.55 451.553
105 0 125.36 13.6487 1711 79.4535 1259.1 447.25
106 1 64.289 12.4594 801 73.0811 1260.25 479.345
107 0 66.1719 12.4978 827 74.6844 1259.77 477.247
108 0 67.3176 12.2256 823 76.0608 1259.92 477.311
109 0 72.2499 13.7855 996 74.8082 1259.51 473.598
110 0 75.2807 13.6423 1027 74.7361 1260.35 473.802
111 0 76.2775 12.9527 988 75.8917 1259.56 472.581
112 0 79.4063 13.3491 1060 75.1368 1260.01 472.162
113 0 81.2473 13.5635 1102 75.1361 1260.03 469.431
114 0 83.2282 12.8202 1067 76.463 1259.14 468.484
115 0 87.4768 13.8665 1213 74.2399 1259.61 466.294
116 0 89.4757 12.9197 1156 76.3789 1259.31 465.572
117 0 93.4768 13.8216 1292 73.4675 1259.57 462.63
118 0 96.2921 13.1163 1263 74.4553 1259.45 462.861
119 0 97.2194 12.9192 1256 75.4164 1259.25 460.866
120 0 101.349 13.4684 1365 73.8396 1259.89 460.188
121 0 105.313 13.1227 1382 75.0825 1259.52 457.252
122 0 108.371 12.6787 1374 76.0167 1259.28 456.529
123 0 113.259 13.244 1500 76.0687 1259.39 453.097
124 0 115.219 13.7912 1589 77.3103 1259.49 450.996
125 1 61.245 12.2786 752 75.0399 1259.97 479.461
126 0 63.2253 13.5389 856 74.6145 1260.52 478.218
127 0 65.2333 12.9382 844 77.3033 1259.99 476.563
128 0 68.1887 13.0667 891 76.5241 1259.41 476.649
129 0 69.4318 13.4809 936 76.8707 1259.54 475.536
130 0 72.1893 13.52 976 77.7879 1259.86 473.696
131 0 75.2293 13.5851 1022 78.6429 1258.99 472.533
132 0 79.2833 13.6977 1086 79.0921 1258.63 470.834
133 0 80.2648 14.0784 1130 79.9292 1258.35 469.237
134 0 84.1788 13.697 1153 81.137 1258.34 468.69
135 0 86.2702 13.875 1197 82.2615 1258.95 467.106
136 0 89.293 13.7077 1224 84.2296 1258.82 464.197
137 0 92.2433 13.8872 1281 84.8923 1259.1 462.564
138 0 98.2373 13.6913 1345 85.1145 1259.5 462.219
139 0 100.334 14.4816 1453 84.6538 1258.62 460.092
140 0 103.21 14.1362 1459 85.8753 1258.31 460.215
141 0 107.19 14.9827 1606 85.5716 1258.67 459.691
142 0 109.366 14.1086 1543 88.8121 1258.22 458.072
143 0 113.39 13.9695 1584 89.6231 1257.99 456.04
144 1 56.2808 11.6736 657 87.5906 1258.74 483.233
145 0 59.301 13.3893 794 86.5705 1258.81 481.632
146 0 63.2494 13.7551 870 85.6471 1258.44 480.979
147 0 64.1342 13.8304 887 87.4171 1260.09 486.401
148 0 65.2582 13.1325 857 86.1634 1260.03 484.895
149 0 68.3095 13.8048 943 85.8515 1260.11 481.511
150 0 70.2856 13.5305 951 87.9979 1260.06 480.067
151 0 72.3231 14.5044 1049 87.061 1259.71 479.607
152 0 75.1909 14.2969 1075 88.3405 1259.59 477.882
153 0 78.2496 14.262 1116 88.3808 1259.57 477.41
154 0 82.2917 14.6066 1202 87.9401 1259.55 475.558
155 0 82.2086 13.855 1139 91.993 1260.2 474.339
156 0 86.2405 14.332 1236 93.928 1260.08 470.636
157 0 87.3152 14.3503 1253 94.5339 1260.65 470.729
158 0 92.3357 14.5664 1345 92.2104 1260.32 469.295
159 0 92.3357 14.5664 1345 169.421 1260.32 469.295
160 0 97.325 14.0971 1372 95.7952 1259.75 465.989
161 0 102.415 14.158 1450 96.3324 1259.6 464.394
162 1 53.1109 11.1842 594 95.67 1261.35 488.207
163 0 55.0623 11.8048 650 94.4323 1260.47 487.503
164 0 55.062 11.6777 643 166.322 1259.49 487.566
165 0 60.0711 13.0013 781 90.9117 1261.21 483.793
166 0 61.1218 12.9414 791 89.1429 1260.75 481.63
167 0 64.0136 13.9658 894 88.7617 1260.49 479.907
168 0 65.1657 13.1971 860 88.1058 1261.03 480.384
169 0 64.2061 12.1951 783 91.4266 1260.87 478.299
170 0 69.139 13.104 906 88.1501 1260.96 477.525
171 0 69.2191 13.2767 919 87.5169 1260.65 475.835
172 0 73.3273 13.0783 959 86.7039 1261.32 474.206
173 0 76.3132 13.0908 999 86.6597 1261.22 471.818
174 0 80.1459 12.3026 986 88.3489 1261.45 469.359
175 0 82.2041 12.8826 1059 86.6487 1261.31 468.943
176 0 84.263 13.2086 1113 86.6128 1260.37 467.718
177 0 86.2378 12.5699 1084 87.2149 1260.02 468.34
178 0 91.2826 12.7954 1168 87.0308 1260.74 464.4
179 0 94.2205 12.6724 1194 86.737 1261.01 462.433
180 1 46.0302 10.3628 477 87.0294 1261.35 486.966
181 0 50.1353 10.8108 542 84.893 1262.22 486.511
182 0 50.0624 11.3259 567 83.9471 1261.68 485.45
183 0 52.0407 11.8369 616 84.2078 1262.19 484.994
184 0 50.173 10.9621 550 78.74 1260.89 489.447
185 0 53.1975 11.7487 625 76.8384 1261.1 488.16
186 0 57.2692 11.9087 682 75.827 1261.22 487.481
187 0 57.1619 11.4587 655 77.3282 1260.75 487.261
188 0 60.2384 11.2387 677 77.6898 1260.21 484.938
189 0 63.2058 12.4514 787 75.8361 1260.07 483.21
190 0 62.2054 11.3334 705 78.5589 1260.29 482.231
191 0 65.2103 11.1332 726 78.511 1260.45 481.971
192 0 67.2362 10.9019 733 79.2906 1259.47 481.097
193 0 69.2229 11.4557 793 78.2371 1258.86 480.691
194 0 71.2267 11.5827 825 78.6255 1259.09 477.686
195 0 74.2492 11.3806 845 79.2592 1259.53 477.63
196 0 76.3179 11.308 863 80.3071 1259.33 476.3
197 0 81.1989 12.0322 977 78.6418 1259.27 472.642
198 0 83.1727 11.7346 976 80.3494 1259.46 473.218
199 0 84.1769 11.6422 980 81.4327 1259.77 470.611
200 0 89.153 11.7102 1044 81.5872 1259.45 469.128
201 0 90.1809 11.2219 1012 82.503 1259.03 468.165
202 1 47.0233 10.7394 505 109.303 1260.37 491.463
203 0 47.0582 10.6039 499 105.701 1260.23 491.665
204 0 51.0454 11.4604 585 98.1316 1259.94 490.183
205 0 50.1712 11.8195 593 100.464 1260.49 489.676
206 0 49.1684 11.064 544 104.941 1260.02 491.783
207 0 51.2974 11.3261 581 104.552 1259.85 490.088
208 0 51.259 11.5882 594 103.056 1259.94 490.227
209 0 53.3029 11.0876 591 102.518 1260.15 488.575
210 0 53.3029 11.1814 596 133.819 1260.16 488.441
211 0 57.2788 11.8194 677 100.641 1259.22 487.957
212 0 60.2146 11.2763 679 100.356 1259.23 486.851
213 0 61.2828 11.6346 713 100.792 1259.02 485.682
214 0 63.2396 12.7768 808 97.5953 1258.77 483.567
215 0 64.2582 11.7806 757 100.725 1259.14 484.481
216 0 66.2013 12.2052 808 101.327 1258.96 483.175
217 0 67.1977 11.7712 791 102.587 1258.93 481.027
218 0 71.2091 11.4873 818 103.229 1258.6 479.681
219 0 75.1449 12.0035 902 101.054 1258.84 478.875
220 0 76.1449 11.8984 906 101.211 1258.7 478.203
221 0 79.1582 12.1529 962 101.486 1257.94 476.274
222 0 79.2091 11.8042 935 103.43 1258.35 475.529
223 0 84.2437 12.2264 1030 101.744 1259.02 474.323
224 0 86.2851 12.8064 1105 101.1 1258.63 473.063
225 0 87.1589 12.1617 1060 105.125 1258.7 469.111
226 0 91.2258 13.4282 1225 104.639 1257.92 469.839
227 0 94.2311 13.2759 1251 104.948 1258.2 469.456
228 0 97.2074 13.466 1309 104.731 1257.69 467.869
229 0 101.25 13.195 1336 105.518 1257.87 467.714
230 1 53.1405 11.6484 619 107.625 1258.17 488.229
231 0 56.2386 12.038 677 105.403 1258.52 488.115
232 0 57.1272 12.2709 701 96.5835 1257.08 485.879
233 0 59.2297 13.4223 795 97.0264 1257.66 486.741
234 0 59.1914 12.5018 740 88.5514 1258.19 485.951
235 0 63.0729 12.6837 800 85.2762 1257.73 484.506
236 0 65.0708 12.3558 804 85.7363 1257.5 482.67
237 0 63.0823 12.6184 796 86.5465 1258.35 483.335
238 0 68.0731 12.6041 858 84.5629 1257.87 483.828
239 0 68.1505 12.1936 831 86.065 1257.83 481.587
240 0 69.1732 11.6519 806 87.6104 1257.63 481.438
241 0 72.1142 12.3693 892 84.7433 1257.55 480.037
242 0 76.1959 12.7172 969 83.5511 1257.79 478.916
243 0 78.2218 13.1933 1032 83.1143 1257.74 478.569
244 0 78.2366 12.6284 988 84.7915 1256.93 475.923
245 0 80.1475 12.4271 996 84.6637 1256.81 474.099
246 0 85.2598 12.2684 1046 83.9379 1257.4 473.582
247 0 87.3811 12.497 1092 83.2271 1256.87 472.005
248 0 89.2746 12.2991 1098 83.9936 1257.14 470.849
249 0 93.2428 12.5801 1173 82.3947 1256.99 470.267
250 0 95.2461 12.4205 1183 82.4954 1257.19 467.171
251 0 97.195 12.799 1244 82.8995 1257.35 467.482
252 0 101.185 12.7687 1292 81.4102 1257.7 466.536
253 0 103.189 11.7261 1210 84.1174 1257.9 465
254 0 107.191 12.5104 1341 81.5831 1257.71 461.339
255 0 111.26 13.2302 1472 80.4796 1257.08 460.688
256 0 115.263 12.7014 1464 83.6168 1257.87 458.454
257 1 59.0701 11.444 676 78.4749 1257.36 486.754
258 0 59.04 11.1281 657 77.0183 1256.99 485.743
259 0 61.1029 12.3562 755 76.955 1257.9 483.593
260 0 64.129 13.0362 836 74.8672 1258.28 481.283
261 0 67.261 12.0724 812 76.7956 1258.27 481.85
262 0 68.1873 12.3923 845 77.2994 1258.52 480.827
263 0 69.1936 12.559 869 77.8435 1258.73 481.719
264 0 70.3139 12.2735 863 80.1089 1258.58 479.129
265 0 74.2828 12.4524 925 79.2962 1259.16 476.472
266 0 75.4237 12.3966 935 79.3422 1259.08 476.545
267 0 79.2212 12.4209 984 79.0203 1257.75 474.077
268 0 83.2003 12.7524 1061 78.6786 1258.08 473.06
269 0 84.2072 12.5642 1058 80.4452 1257.37 470.39
270 0 86.2842 12.8065 1105 81.5828 1257.85 469.931
271 0 90.2298 13.1442 1186 81.1948 1257.2 468.811
272 1 45.0859 11.2452 507 79.075 1259.16 492.982
273 0 45.0873 10.6904 482 79.1763 1258.7 491.641
274 0 46.0836 11.7395 541 78.7375 1258.8 490.434
275 0 46.1074 11.1913 516 81.2016 1257.56 488.347
276 0 49.1929 11.9936 590 74.8966 1259.32 491.72
277 0 52.1506 12.7899 667 75.1379 1258.58 488.963
278 0 52.1471 11.8319 617 73.8476 1258.18 488.464
279 0 53.1715 13.0521 694 73.0821 1258.24 486.866
280 0 53.206 12.2918 654 75.4037 1258.65 487.546
281 0 55.2447 12.4356 687 74.6652 1258.7 487.134
282 0 55.2447 12.4356 687 128.261 1258.71 487.13
283 0 57.329 13.1696 755 75.8119 1258.3 484.534
284 0 58.244 12.9627 755 76.9245 1258.12 485.102
285 0 60.1745 12.364 744 78.4892 1258.51 484.929
286 0 63.2571 12.8049 810 77.0617 1258.48 483.388
287 0 65.2443 13.6564 891 76.7508 1258.8 482.631
288 0 66.1468 13.0619 864 77.7176 1258.44 483.215
289 0 68.1531 12.2958 838 79.7291 1258.71 482.761
290 0 70.1725 13.5096 948 76.7173 1258.18 481.516
291 0 72.1204 12.4098 895 80.4503 1258.37 480.02
292 0 74.1239 12.3442 915 80.9694 1258.32 479.517
293 0 77.1223 12.4867 963 81.8536 1257.9 477.069
294 0 80.1866 13.2566 1063 80.9323 1258.1 476.171
295 0 82.1149 12.3364 1013 82.5696 1256.94 476.307
296 0 84.1408 13.1446 1106 82.1148 1257.68 474.298
297 1 44.0738 10.8228 477 82.7358 1257.38 494.79
298 0 45.0783 12.1566 548 82.3157 1257.42 492.872
299 0 46.1098 12.1232 559 83.6565 1256.97 492.177
300 0 48.0632 12.6084 606 84.1007 1257.87 492.399
301 0 50.026 13.0932 655 83.0809 1257.11 491.96
302 0 48.0864 12.9143 621 86.277 1256.16 492.565
303 0 51.0868 12.6647 647 86.9629 1256.33 490.495
304 0 51.1216 12.4605 637 87.595 1256.07 490.571
305 0 54.1179 12.6206 683 86.7218 1256.71 489.1
306 0 55.1796 12.0153 663 88.2474 1256.84 489.463
307 0 56.164 13.0155 731 85.7524 1256.93 489.034
308 0 58.2745 12.647 737 87.2537 1257.21 487.83
309 0 62.1382 13.2125 821 83.4616 1256.71 487.365
310 0 63.1049 12.6773 800 85.3662 1256.38 485.475
311 0 62.1916 12.4293 773 88.3351 1257.05 485.339
312 0 66.1202 13.0066 860 88.1593 1257.71 485.764
313 0 68.1522 13.3671 911 88.7256 1257.18 483.276
314 0 69.1531 12.8266 887 90.5829 1256.95 484.139
315 0 73.1494 13.2195 967 89.9131 1257.22 483.501
316 0 74.157 13.4175 995 92.8352 1257.42 481.568
317 0 76.1472 13.8022 1051 92.8611 1257.71 480.873
318 0 80.1897 13.7549 1103 94.6364 1257.73 478.972
319 0 82.174 13.4957 1109 96.1876 1257.83 478.616
320 0 85.1876 14.0513 1197 95.5606 1257.42 477.663
321 0 87.1661 13.0441 1137 98.1038 1257.46 475.511
322 0 91.1911 13.7842 1257 96.1114 1257.3 475.186
323 0 94.1968 14.0663 1325 98.0687 1257.55 473.232
324 1 50.054 12.7662 639 98.4288 1258.38 495.664
325 0 51.0254 12.7584 651 99.3886 1258.55 494.754
326 0 53.1933 13.4416 715 96.9161 1257.44 494.517
327 0 53.3028 12.8511 685 100.32 1257.42 493.835
328 0 55.2353 13.524 747 91.3266 1257.56 494.146
329 0 57.2159 12.8985 738 92.729 1257.31 492.419
330 0 59.259 13.5844 805 90.6509 1256.67 490.935
331 0 60.2638 13.3413 804 91.7948 1256.38 492.379
332 0 62.1997 13.7621 856 90.153 1257.1 489.819
333 0 63.2053 14.0969 891 92.1156 1257.33 488.522
334 0 68.1664 13.6871 933 91.0322 1257.21 487.951
335 0 68.3442 13.6808 935 92.7048 1256.29 486.289
336 0 69.1666 13.7928 954 92.8878 1255.65 485.016
337 0 72.1777 13.8824 1002 92.2814 1255.76 483.406
338 0 75.0668 14.0275 1053 92.6363 1256.76 482.551
339 0 78.1718 14.3274 1120 91.1768 1256.41 480.554
340 0 79.1586 14.4899 1147 91.769 1256.46 479.723
341 0 82.0995 14.2388 1169 92.6416 1255.73 477.819
342 0 84.1617 14.5078 1221 92.421 1256.12 476.898
343 0 85.0961 13.6786 1164 95.9244 1256.26 478.142
344 0 88.1919 13.4479 1186 96.6037 1255.93 475.158
345 0 90.1455 13.1898 1189 97.1918 1254.14 474.497
346 0 94.2075 14.8184 1396 83.6196 1254.87 471.441
347 1 49.1463 11.598 570 92.2474 1256.17 496.393
348 0 49.1055 11.0782 544 92.7555 1256.51 496.333
349 0 50.177 12.3164 618 90.5906 1256.41 494.453
350 0 51.1241 12.0491 616 90.974 1256.44 494.024
351 0 54.1445 12.4482 674 86.6795 1256.79 494.662
352 0 56.2849 12.9875 731 85.6224 1255.78 491.534
353 0 56.1578 13.6401 766 86.7585 1255.92 490.572
354 0 59.2894 13.1727 781 85.694 1254.89 490.817
355 0 61.294 13.1661 807 84.1512 1254.9 489.861
356 0 62.3833 13.1285 819 83.4933 1254.89 489.651
357 0 63.225 12.9854 821 83.8441 1255.28 488.449
358 0 63.225 13.0012 822 146.725 1256.31 488.527
359 0 69.2505 13.2851 920 82.4185 1255.13 485.145
360 0 71.2138 13.0874 932 83.03 1255.64 483.774
361 0 73.1974 14.1672 1037 82.1977 1255.13 482.227
362 0 75.2126 13.8009 1038 82.2881 1255.2 480.317
363 0 75.1556 13.4521 1011 84.2918 1255.27 481.454
364 0 77.1737 13.515 1043 84.419 1254.93 480.895
365 0 80.2365 13.1112 1052 85.749 1255.09 479.553
366 0 82.2844 13.4047 1103 85.854 1256.3 479.922
367 0 86.244 14.4822 1249 83.8751 1255.94 477.76
368 0 88.2132 14.0002 1235 85.549 1255.44 474.063
369 0 90.1613 13.62 1228 87.2875 1255.8 474.525
370 0 95.2157 14.5144 1382 84.2048 1255.13 472.255
371 0 95.1948 14.1709 1349 84.9103 1255.64 470.952
372 0 100.162 14.856 1488 83.0679 1254.93 469.052
373 0 100.218 14.259 1429 92.6914 1254.13 467.485
374 1 53.1523 11.5329 613 92.7602 1254.42 491.078
375 0 51.1924 11.9158 610 85.1525 1254.84 485.434
376 0 55.2112 12.6061 696 77.4856 1255.61 485.187
377 0 56.078 12.6966 712 80.5365 1256.6 491.044
378 0 59.102 13.3498 789 78.0266 1256.39 490.582
379 0 62.0437 13.1681 817 76.94 1256.66 488.266
380 0 64.1221 13.0844 839 76.379 1256.33 488.012
381 0 64.1397 13.4238 861 89.633 1256.82 485.711
382 0 67.1623 13.1026 880 88.9648 1255.06 482.501
383 0 68.1642 13.042 889 88.8223 1255.71 482.508
384 0 72.2275 13.4436 971 86.8795 1255.33 480.262
385 0 73.2176 12.8248 939 88.3568 1255.84 478.873
386 0 75.2561 12.969 976 90.5779 1255.82 478.325
387 0 76.1856 13.2834 1012 89.6611 1256.11 477.447
388 0 78.1512 12.7189 994 84.4376 1255.69 472.27
389 0 82.0896 12.7178 1044 84.8851 1256.34 472.433
390 0 85.2273 12.1323 1034 85.5841 1256.33 470.762
391 0 87.3586 12.7291 1112 88.7446 1256.26 471.436
392 0 89.1402 12.0821 1077 87.2841 1255.4 469.175
393 0 91.1068 12.2603 1117 87.8406 1255.26 467.731
394 0 94.1756 12.1157 1141 89.2358 1255.44 465.856
395 1 48.1674 10.6296 512 82.084 1256.99 489.346
396 0 49.0499 10.7646 528 83.7841 1257.34 488.932
397 0 51.0325 10.7774 550 83.02 1257.54 486.378
398 0 50.0474 9.65085 483 80.5839 1255.81 484.4
399 0 55.1685 11.8365 653 83.0153 1257.65 488.28
400 0 56.1191 11.1014 623 85.1573 1257.35 485.868
401 0 58.1954 11.9597 696 82.5345 1257.83 482.414
402 0 58.1007 11.2563 654 84.7095 1257.97 481.67
403 0 60.1438 11.6222 699 83.3062 1257.53 481.755
404 0 63.1175 11.3598 717 82.749 1257.35 479.727
405 0 64.1828 11.3426 728 82.9931 1257.38 480.547
406 0 66.2545 12.0143 796 82.5716 1257.73 481.617
407 0 66.0932 11.741 776 83.1482 1257.74 481.249
408 0 68.165 11.1201 758 84.3232 1258.4 480.074
409 0 73.2131 12.2519 897 81.9454 1257.33 478.682
410 0 73.1818 11.7242 858 82.8007 1258.17 476.766
411 0 76.1893 11.537 879 84.6177 1257.84 474.992
412 0 81.1105 11.885 964 82.2199 1257.37 475.366
413 0 82.2443 12.6088 1037 81.4561 1256.39 472.866
414 0 84.2817 12.4108 1046 81.9159 1256.2 470.476
415 0 88.1664 13.2023 1164 80.9296 1256.41 468.6
416 0 89.1074 12.4008 1105 83.0136 1256.26 468.03
417 0 91.1359 12.3991 1130 84.3142 1256.88 467.925
418 0 94.3933 12.2043 1152 84.0035 1257.22 465.376
419 0 98.1143 12.4345 1220 83.1639 1256.05 466.682
420 0 100.101 12.857 1287 82.366 1255.41 464.582
421 0 104.087 12.9218 1345 82.1688 1255.42 461.93
422 0 104.107 11.8724 1236 84.6327 1254.24 460.293
423 0 109.068 12.3959 1352 83.003 1254.84 458.839
424 0 113.071 12.4081 1403 83.7883 1255.32 455.45
425 1 62.0832 10.7114 665 81.4436 1256.99 483.353
426 0 63.2994 11.3113 716 79.3534 1257.06 483.416
427 0 65.2875 11.1507 728 76.2102 1256.58 480.849
428 0 65.2217 10.7633 702 77.1766 1256.44 482.269
429 0 69.189 11.2157 776 76.7822 1256.45 479.758
430 0 70.1482 11.7608 825 76.1527 1256 479.338
431 0 72.3239 11.3655 822 77.1229 1256.09 477.596
432 0 76.1471 11.2283 855 77.7965 1255.85 476.415
433 0 78.1398 12.0809 944 77.2913 1255.7 477.044
434 0 82.2137 12.2851 1010 77.5535 1255.8 472.986
435 0 84.2439 12.4282 1047 78.2416 1255.92 472.07
436 0 86.2896 12.319 1063 79.0405 1256.64 470.241
437 0 90.2171 12.7803 1153 79.1483 1256.09 468.729
438 0 92.141 12.8282 1182 79.5127 1254.99 468.138
439 0 92.1356 12.1017 1115 82.4296 1254.58 466.649
440 0 97.0653 12.6101 1224 82.2859 1255.24 464.882
441 0 100.142 11.5836 1160 85.131 1255.41 462.491
442 0 105.403 14.0413 1480 79.7689 1255.18 461.841
443 1 53.4929 10.4687 560 79.1375 1256.26 486.046
444 0 56.4253 10.1196 571 79.2207 1255.91 485.067
445 0 57.4382 11.0902 637 77.4066 1256.41 484.435
446 0 60.3858 11.8405 715 76.3804 1256.24 482.701
447 0 61.349 12.2251 750 75.2627 1256.48 480.28
448 0 62.3304 11.808 736 75.2704 1255.55 478.825
449 0 62.3304 11.792 735 123.905 1255.54 478.807
450 0 67.115 11.5026 772 75.4067 1256.17 482.377
451 0 69.1824 12.1418 840 74.7071 1255.45 480.026
452 0 71.1277 12.7798 909 74.1848 1256.46 479.981
453 0 75.2167 12.9493 974 73.345 1256.33 479.142
454 0 76.2512 13.0359 994 73.9004 1256.67 475.937
455 0 77.1337 12.9127 996 74.4669 1255.73 476.857
456 0 82.1363 12.8567 1056 74.5369 1256.8 476.044
457 0 83.1435 12.8573 1069 74.8644 1256.12 473.672
458 0 86.1374 12.7239 1096 75.4325 1256.59 472.8
459 0 88.1039 13.2117 1164 74.7955 1255.43 470.441
460 0 91.0888 13.0312 1187 75.2308 1254.88 467.142
461 0 93.1028 12.1801 1134 77.9638 1255.32 465.834
462 0 94.0556 12.2481 1152 80.2092 1255.18 464.267
463 0 99.272 12.5615 1247 79.6175 1255.97 462.186
464 0 99.272 12.5111 1242 126.519 1256.97 462.071
465 1 50.2206 10.3742 521 75.8829 1255.68 487.411
466 0 52.1994 12.0883 631 72.5182 1255.07 486.666
467 0 54.1552 12.0579 653 71.6845 1255.69 486.972
468 0 54.1085 11.9205 645 73.3163 1255.87 487.239
469 0 57.0358 12.4659 711 79.5274 1256.9 484.17
470 0 59.0586 12.8855 761 79.9527 1257.01 484.987
471 0 61.1081 12.9443 791 79.5752 1258.06 484.845
472 0 61.1081 12.9606 792 147.48 1259.07 484.856
473 0 66.1303 13.0651 864 79.3391 1257.33 483.381
474 0 68.1156 13.9616 951 78.0957 1257.39 482.498
475 0 67.1222 13.8553 930 80.171 1257.31 480.59
476 0 70.121 13.548 950 81.7232 1257.21 480.404
477 0 72.1741 14.0494 1014 81.3797 1256.49 479.921
478 0 74.1188 13.9101 1031 84.2211 1256.41 479.452
479 0 73.1545 13.2733 971 87.5129 1256.84 479.327
480 0 76.1566 13.3935 1020 87.6843 1256.65 477.094
481 0 80.1479 13.2256 1060 88.4255 1256.28 475.49
482 0 82.14 13.3187 1094 89.5238 1256.55 474.071
483 0 85.2798 13.356 1139 89.3117 1256.65 472.414
484 0 88.1511 13.942 1229 87.5875 1256.41 472.906
485 0 88.1669 12.8053 1129 91.403 1256.25 471.045
486 0 91.1555 13.3728 1219 90.9336 1255.28 470.449
487 0 95.1141 13.3629 1271 88.0622 1254.28 467.997
488 0 97.1547 13.2263 1285 88.1432 1254.62 464.356
489 1 48.0494 10.177 489 77.0123 1255.87 486.247
490 0 50.0347 10.3128 516 76.3372 1253.53 481.262
491 0 55.0567 12.4417 685 74.654 1253.62 488.615
492 0 52.0873 12.1335 632 83.4146 1253.32 490.087
493 0 54.0758 11.3359 613 81.4861 1254.53 490.546
494 0 57.047 12.6562 722 81.4224 1254.1 490.165
495 0 59.0558 12.2765 725 83.2483 1254.71 488.292
496 0 59.0712 12.1379 717 83.7741 1254.23 487.022
497 0 62.1445 12.8089 796 83.5867 1253.44 486.548
498 0 61.0994 12.0296 735 86.3796 1253.44 485.697
499 0 63.0993 11.9811 756 87.381 1253.25 486.411
500 0 66.1612 12.7265 842 85.8824 1253.7 484.075
501 0 68.1586 13.1605 897 85.835 1253.87 483.089
502 0 69.2114 12.8302 888 87.0315 1253.67 482.727
503 0 72.1913 12.9794 937 86.4931 1254.3 482.837
504 0 76.2365 13.6286 1039 82.9894 1254.07 479.618
505 0 77.2085 13.0167 1005 84.2328 1254.61 479.414
506 0 79.1681 13.4524 1065 83.7202 1253.97 477.731
507 0 80.2179 12.84 1030 84.068 1253.39 477.434
508 0 84.2174 13.0496 1099 83.8025 1253.49 474.657
509 0 85.3282 12.6804 1082 83.183 1253.57 475.336
510 0 88.3167 12.976 1146 82.925 1254.13 472.62
511 0 91.2781 12.807 1169 83.3268 1254.29 471.427
512 0 94.2376 12.6383 1191 83.2838 1254.69 470.767
513 1 51.1342 11.1863 572 84.5385 1254.97 491.74
514 0 51.047 12.1457 620 82.4242 1252.91 492.077
515 0 54.1417 13.0214 705 78.6638 1253.78 490.616
516 0 56.084 12.8379 720 78.8944 1253.69 489.593
517 0 58.0717 13.7933 801 78.4257 1253.57 488.187
518 0 60.1415 12.986 781 80.7157 1253.27 488.889
519 0 61.1034 13.3872 818 80.2971 1253.41 488.106
520 0 63.1281 13.3538 843 80.4686 1253.33 487.129
521 0 66.1461 13.2283 875 80.2571 1253.15 485.783
522 0 65.0807 12.8763 838 82.2399 1254.12 484.693
523 0 69.1158 13.311 920 80.888 1253.69 484.22
524 0 70.1096 13.4646 944 80.9195 1253.68 482.821
525 0 72.1506 13.4164 968 80.907 1253.02 482.381
526 0 74.0533 12.6125 934 84.273 1256.19 481.503
527 0 77.1154 12.6564 976 83.627 1255.71 481.42
528 0 78.0914 12.8055 1000 85.571 1255.79 478.937
529 0 80.0984 12.3973 993 85.7059 1255.65 478.514
530 0 82.0779 12.7684 1048 85.8349 1255.78 476.509
531 1 41.034 11.5514 474 80.9367 1256.04 499.219
532 0 42.0232 10.4942 441 80.8163 1255.73 499.762
533 0 42.0704 12.0275 506 75.832 1255.3 497.662
534 0 45.2601 11.9531 541 80.1645 1254.07 497.39
535 0 44.3266 12.1146 537 69.9534 1254.33 497.399
536 0 46.2813 11.3653 526 70.1996 1254.28 498.093
537 0 47.3716 12.2647 581 68.9707 1255.23 496.995
538 0 45.5084 11.5803 527 71.7951 1254.95 496.224
539 0 46.4009 11.336 526 71.9106 1255.02 496.96
540 0 47.2643 12.2714 580 69.7793 1255.76 498.276
541 0 50.336 11.3636 572 70.1853 1255.23 497.017
542 0 51.1646 11.8246 605 70.5124 1255.13 495.696
543 0 51.1938 12.0718 618 70.7023 1254.45 495.068
544 0 56.1826 12.4772 701 67.6619 1253.55 493.221
545 0 57.2202 12.3208 705 68.4979 1253.97 493.464
546 0 57.2098 12.3231 705 69.7546 1254.03 492.257
547 0 59.2523 11.392 675 72.1778 1254.55 491.268
548 0 61.18 12.3243 754 72.5411 1254.08 488.466
549 0 64.1806 12.2778 788 73.2005 1253.87 487.824
550 0 65.2358 13.1829 860 72.2628 1254.22 488.463
551 0 68.155 12.1048 825 73.3648 1253.81 485.747
552 0 69.1194 12.1384 839 75.1108 1254.33 485.372
553 0 70.3552 12.2521 862 72.7529 1254.53 480.09
554 0 72.345 12.5648 909 74.3751 1253.85 480.523
555 0 76.2602 13.5457 1033 73.5886 1253.86 482.455
556 0 76.5963 12.8205 982 74.9216 1253.91 480.047
557 0 80.3455 12.5832 1011 76.4402 1254.45 479.39
558 0 83.3068 13.2402 1103 83.2112 1253.72 479.468
559 0 86.5865 12.5077 1083 76.4801 1254.69 476.529
560 1 43.325 11.4253 495 77.6667 1254.86 497.806
561 0 43.325 11.4714 497 124.477 1253.86 497.799
562 0 47.3953 12.0265 570 76.3667 1254.94 496.416
563 0 47.2072 13.1124 619 76.3376 1255.42 496.368
564 0 50.0995 13.7526 689 76.4253 1254.04 496.911
565 0 51.0341 13.8143 705 73.8085 1253.52 495.712
566 0 53.1031 12.9183 686 74.6414 1253.25 496.299
567 0 52.1229 11.7223 611 77.455 1253.3 495.773
568 0 53.1277 12.2535 651 76.5115 1253.8 493.613
569 0 56.2258 12.183 685 75.8701 1254.7 492.899
570 0 58.257 12.8225 747 74.585 1254.6 490.124
571 0 58.2128 12.0077 699 75.4492 1254.09 491.056
572 0 61.1836 13.6801 837 72.3787 1254.49 490.054
573 0 63.1586 12.714 803 73.8331 1254.13 490.097
574 0 65.0842 13.0139 847 73.8312 1254.24 486.937
575 0 68.1521 12.1493 828 74.9928 1254.14 486.539
576 0 70.1763 13.3093 934 73.1949 1253.81 485.291
577 0 74.1008 12.6584 938 74.3422 1253.45 484.263
578 0 74.2064 13.3142 988 76.748 1253.9 484.016
579 0 78.1151 12.5712 982 77.445 1254.1 484.493
580 0 80.1527 12.9503 1038 77.2303 1254.11 481.758
581 1 42.0081 12.5214 526 78.443 1254.81 500.004
582 0 42.0609 11.8637 499 79.0902 1252.61 498.319
583 0 41.1036 11.9454 491 79.5336 1252.72 498.348
584 0 45.0789 13.2878 599 78.1135 1252.84 496.94
585 0 46.0614 12.809 590 79.2831 1253.13 496.444
586 0 47.1554 13.3813 631 78.1521 1254.36 497.696
587 0 49.1887 12.6858 624 79.0385 1254.01 495.287
588 0 52.194 13.8713 724 75.7403 1254.08 494.16
589 0 53.1355 13.5126 718 77.1574 1253.42 494.833
590 0 55.106 13.9912 771 76.8898 1253.36 493.276
591 0 57.1353 14.1419 808 76.7413 1253.53 491.818
592 0 58.116 13.7139 797 78.5044 1253.7 491.616
593 0 59.1489 13.9817 827 79.9625 1253.45 492.198
594 0 62.0472 14.6179 907 78.0628 1253.14 491.313
595 0 65.0894 13.8579 902 79.4989 1253.27 488.765
596 0 67.0459 14.8704 997 77.3531 1253.49 488.857
597 0 70.1582 14.8949 1045 77.1407 1253.25 488.495
598 0 72.1087 15.9759 1152 75.9384 1253.53 488.384
599 0 74.1569 15.5212 1151 77.5534 1253.57 487.545
600 0 76.1278 15.1587 1154 79.8821 1252.93 486.082
601 0 80.1563 15.1579 1215 79.7942 1252.73 484.647
602 0 81.1935 14.9766 1216 81.241 1252.97 482.654
603 0 85.1834 15.5547 1325 80.9298 1252.9 480.149
604 1 46.0664 12.8293 591 87.8613 1253.62 499.291
605 0 48.028 13.7628 661 83.6717 1253.65 498.933
606 0 48.0424 14.2374 684 78.7485 1253.14 498.01
607 0 52.0385 14.8736 774 83.5439 1253.37 497.155
608 0 52.0984 14.8565 774 80.2933 1253.49 496.054
609 0 54.1443 13.9258 754 81.1048 1254.26 495.548
610 0 54.2438 14.1952 770 80.6494 1253.88 494.671
611 0 57.1468 14.2615 815 80.4785 1253.28 494.382
612 0 58.0964 14.7169 855 80.8632 1253.84 493.777
613 0 61.1054 14.7123 899 80.3137 1253.29 492.78
614 0 62.2013 14.7103 915 81.9989 1254.04 492.705
615 0 64.1038 14.9913 961 81.8325 1253.07 491.436
616 0 67.1316 15.0004 1007 81.4985 1253.19 489.69
617 0 71.1572 15.3604 1093 81.3074 1253.61 486.764
618 0 73.0854 15.5845 1139 80.8183 1252.31 486.959
619 0 75.1121 15.2439 1145 83.2856 1253.56 485.52
620 0 77.1282 14.9102 1150 85.5113 1253.49 482.339
621 0 80.228 14.8826 1194 86.0913 1253.29 483.093
622 0 82.1544 14.2415 1170 86.0658 1253.4 482.131
623 0 85.1398 15.2338 1297 84.8928 1253.63 480.335
624 0 85.149 14.6801 1250 86.7464 1253.25 479.123
625 0 87.2098 14.746 1286 87.8445 1253.83 477.093
626 0 92.111 15.3836 1417 85.964 1253.57 477.354
627 0 95.1624 15.3842 1464 86.487 1253.97 475.08
628 0 96.1676 14.7243 1416 88.3065 1253.33 474.592
629 0 99.1399 14.2627 1414 88.8274 1253.97 472.172
630 0 104.145 15.2479 1588 87.4099 1253.99 469.933
631 0 107.229 14.8747 1595 88.5116 1254.42 467.936
632 1 55.034 12.7921 704 90.1491 1255.37 494.124
633 0 55.0138 13.8329 761 88.6439 1254.66 492.396
634 0 58.0423 14.2655 828 83.7198 1254.12 492.444
635 0 59.1959 13.7678 815 86.3681 1255.48 490.346
636 0 63.2451 14.594 923 83.9588 1255.49 488.698
637 0 65.2573 14.757 963 84.837 1254.58 488.107
638 0 68.2185 14.3803 981 85.5953 1254.49 487.643
639 0 67.2941 14.979 1008 86.1786 1255.61 485.648
640 0 70.2116 14.5702 1023 86.609 1254.35 484.561
641 0 73.303 14.6379 1073 85.9981 1255.01 483.404
642 0 76.2639 14.8956 1136 85.6461 1254.17 482.293
643 0 76.3876 14.9632 1143 86.8005 1254.56 480.935
644 0 82.2315 14.8118 1218 85.5722 1254.93 479.42
645 0 81.3332 14.914 1213 86.6669 1254.77 476.36
646 0 85.2324 15.1234 1289 85.5485 1254.91 474.166
647 0 87.2579 14.5087 1266 86.8333 1254.02 473.729
648 0 90.2158 14.5429 1312 86.2271 1254.31 471.248
649 0 93.1399 14.7413 1373 92.1916 1254.02 471.35
650 0 94.1511 14.7104 1385 92.6895 1253.77 470.367
651 0 96.1794 14.0155 1348 92.4585 1253.87 470.353
652 0 101.111 14.4891 1465 85.8423 1253.62 468.092
653 0 104.104 15.1003 1572 85.8524 1254.18 466.521
654 0 107.16 14.0444 1505 88.1601 1254.33 465.811
655 0 109.139 14.0372 1532 89.7023 1253.69 463.614
656 0 112.15 14.8016 1660 88.3042 1254.17 463.708
657 0 116.106 14.5902 1694 88.0891 1253.87 460.439
658 0 120.094 14.4053 1730 88.5116 1253.78 459.182
659 0 124.224 14.6429 1819 88.6564 1254.74 456.879
660 0 126.209 14.3572 1812 89.5877 1255.17 452.044
661 0 134.156 14.7068 1973 88.6599 1254.49 448.87
662 0 139.125 15.0081 2088 87.3089 1253.89 451.256
663 0 142.178 14.0809 2002 87.2962 1254.51 445.078
664 1 78.1421 12.9124 1009 84.0436 1255.02 478.585
665 0 78.1016 12.8294 1002 86.6178 1255.13 477.967
666 0 82.0929 14.2521 1170 86.7205 1255.3 477.591
667 0 83.1254 12.7638 1061 84.2658 1255.95 475.58
668 0 88.1093 13.7102 1208 82.0248 1255.05 474.873
669 0 91.1367 13.0354 1188 83 1254.53 472.821
670 0 94.0759 14.0525 1322 81.2171 1254.1 469.483
671 0 97.1264 12.9625 1259 82.305 1253.49 468.315
672 0 99.1154 12.995 1288 83.6646 1255.15 464.374
673 0 105.119 13.8605 1457 82.3946 1254.46 465.441
674 0 107.253 13.622 1461 83.9131 1255.31 462.721
675 1 55.0862 11.6908 644 78.4581 1255.45 491.801
676 0 55.327 12.7966 708 77.7133 1256.66 489.507
677 0 55.1267 12.6073 695 84.9237 1256.46 490.869
678 0 57.1794 12.7494 729 83.6488 1256.84 490.084
679 0 60.2175 13.0029 783 85.5096 1256.03 487.762
680 0 60.1692 13.0798 787 84.7306 1255.4 488.548
681 0 64.173 13.2299 849 80.457 1255.3 486.753
682 0 66.1781 13.6148 901 79.7525 1255.15 485.871
683 0 69.2491 13.4153 929 82.3638 1256.02 486.592
684 0 71.2107 13.3267 949 85.5511 1257.18 485.538
685 0 72.1937 13.6162 983 84.0844 1257.72 485.028
686 0 75.1126 13.5929 1021 82.0392 1257.41 482.818
687 0 79.1384 14.4051 1140 81.8675 1256.74 479.684
688 0 82.1031 12.9106 1060 84.0613 1256.48 479.201
689 0 83.2013 13.4613 1120 84.7304 1256.25 478.474
690 0 86.0925 13.7062 1180 84.1636 1256.88 478.333
691 0 90.1078 13.6503 1230 84.7967 1256.22 476.992
692 0 93.0934 14.0289 1306 85.0023 1256.15 474.272
693 0 97.1586 13.2979 1292 86.9845 1256.09 472.09
694 0 99.1093 13.7929 1367 86.8449 1256.66 469.683
695 0 104.114 13.2163 1376 87.5719 1256.47 468.85
696 0 107.208 13.152 1410 88.0638 1255.78 468.14
697 1 57.2275 11.6552 667 81.5832 1256.54 490.79
698 0 59.2885 12.7006 753 78.2072 1255.73 489.078
699 0 60.2063 12.3409 743 77.9489 1256.6 489.459
700 0 61.1297 12.9561 792 79.6768 1255.02 492.173
701 0 64.2773 12.0105 772 80.8523 1254.25 491.442
702 0 66.207 13.3672 885 78.2983 1254.72 490.101
703 0 67.195 12.5605 844 80.2536 1254.75 488.075
704 0 70.1702 13.0112 913 78.8521 1254.45 487.689
705 0 72.1439 12.5444 905 80.0431 1254.24 487.924
706 0 74.2379 12.7294 945 80.037 1254.04 486.921
707 0 77.1504 13.0524 1007 78.6802 1254.51 485.671
708 0 78.1549 12.7439 996 79.6014 1254.42 484.991
709 0 82.2154 13.4768 1108 78.2527 1252.9 483.99
710 0 84.1869 13.5175 1138 79.1011 1253.64 483.743
711 0 86.1441 12.4559 1073 81.0801 1253.43 480.683
712 0 89.1916 12.4115 1107 82.458 1253.66 479.322
713 0 91.1365 12.4319 1133 83.105 1253.58 478.172
714 0 91.1137 12.4899 1138 137.969 1253.59 478.125
715 0 98.1693 12.397 1217 84.8825 1253.82 473.814
716 1 53.1484 11.0069 585 76.6786 1254.08 499.622
717 0 52.1806 11.3069 590 81.5 1253.68 497.739
718 0 54.2586 11.7216 636 81.1148 1252.9 495.884
719 0 56.3116 11.827 666 76.033 1252.96 496.625
720 0 56.2557 10.8611 611 76.8462 1253.24 493.586
721 0 59.211 11.535 683 75.8053 1254.03 493.389
722 0 60.2596 11.8985 717 76.0558 1254.45 493.227
723 0 62.306 12.2942 766 74.8734 1254.04 492.537
724 0 64.4801 11.7866 760 75.8513 1254.25 490.954
725 0 64.1884 11.6065 745 76.8792 1254.34 490.498
726 0 66.2499 11.1094 736 77.7704 1253.93 489.056
727 0 70.4344 12.3519 870 75.5931 1253.11 488.351
728 0 71.4209 11.6353 831 77.7774 1253.21 486.833
729 0 74.5389 11.8059 880 77.1955 1252.87 486.538
730 0 77.372 11.8518 917 77.639 1253.26 483.892
731 0 80.5062 12.2475 986 77.8753 1253.52 482.854
732 0 83.4955 12.5276 1046 77.7677 1253.77 481.866
733 0 83.4108 11.809 985 82.0721 1255.11 481.735
734 0 87.5113 11.8728 1039 86.8884 1254.61 478.421
735 0 89.4243 12.1667 1088 86.8621 1255.23 474.387
736 0 93.7691 11.8696 1113 86.5759 1254.61 469.456
737 0 94.6988 10.9399 1036 89.1303 1254.56 468.612
738 0 99.6879 12.7598 1272 86.6722 1254.56 467.48
739 1 47.3888 11.0364 523 82.5851 1254.66 495
740 0 49.416 11.3324 560 83.8732 1254.26 493.173
741 0 51.5245 12.6542 652 83.6626 1254.94 494.127
742 0 54.23 12.6314 685 85.3241 1256.03 495.181
743 0 55.2363 12.1478 671 87.3189 1256.24 494.042
744 0 56.272 13.2037 743 85.5734 1255.98 491.666
745 0 59.3149 13.049 774 85.2481 1256.18 490.433
746 0 59.4231 12.8738 765 86.834 1255.68 487.292
747 0 62.5392 12.5841 787 86.9149 1256.08 487.062
748 0 63.5482 13.3285 847 86.7532 1256.32 486.163
749 0 65.4692 12.9068 845 87.5787 1256.07 485.477
750 0 65.3457 12.2273 799 90.184 1255.69 484.762
751 0 69.5002 13.1223 912 88.5548 1256.04 482.615
752 0 69.5116 13.1345 913 137.13 1256.08 482.683
753 0 73.4922 13.117 964 91.0156 1256.62 479.449
754 0 75.5188 12.8842 973 91.7739 1256.43 478.636
755 0 76.502 13.2938 1017 91.5693 1255.95 476.656
756 0 78.5382 13.1146 1030 92.6728 1256.05 477.158
757 0 80.4861 12.35 994 95.4437 1255.97 475.143
758 0 83.5439 12.7717 1067 95.4836 1256.1 472.758
759 0 86.366 13.0144 1124 97.1708 1256.58 473.274
760 1 44.3075 11.9393 529 93.8544 1256.31 494.397
761 0 45.2481 12.7961 579 94.6459 1256.39 492.485
762 0 46.3202 11.917 552 98.3351 1256.65 493.107
763 0 50.2062 13.0064 653 98.4747 1255.51 495.766
764 0 51.1247 13.1248 671 98.4367 1256.04 495.575
765 0 50.1148 13.0101 652 102.248 1256.44 495.112
766 0 51.1884 12.9326 662 102.849 1256.42 494.335
767 0 53.402 13.6699 730 99.7219 1256.07 493.392
768 0 54.221 13.611 738 101.297 1255.79 491.736
769 0 57.3479 13.2524 760 102.251 1255.66 487.692
770 0 58.3135 13.5818 792 102.004 1255.65 484.582
771 0 61.405 13.6797 840 101.16 1256.28 483.544
772 0 62.5024 14.1595 885 100.27 1256.53 483.112
773 0 63.4881 14.3334 910 101.075 1256.98 482.612
774 0 67.4652 13.6218 919 101.696 1256.3 482.002
775 0 68.4419 14.6109 1000 100.845 1255.81 482.027
776 0 71.5056 13.901 994 102.391 1255.57 479.562
777 0 72.5141 14.3007 1037 103.148 1256.31 476.833
778 0 74.5885 14.0638 1049 105.215 1256.04 476.284
779 0 76.4515 14.022 1072 105.577 1255.72 476.362
780 0 76.4476 13.8265 1057 108.915 1255.53 474.784
781 0 79.3341 14.5083 1151 108.043 1256.32 474.71
782 0 82.3906 14.3099 1179 109.024 1256.8 472.904
783 1 42.182 11.2607 475 109.423 1257.23 492.617
784 0 42.2073 10.6143 448 113.779 1257.79 492.6
785 0 42.1724 11.2159 473 111.96 1256.82 493.034
786 0 43.189 11.7854 509 113.251 1257.44 492.185
787 0 45.1615 10.9607 495 113.307 1257.12 494.475
788 0 47.2021 11.7156 553 112.667 1256.9 491.445
789 0 47.1502 11.3679 536 113.785 1256.91 492.451
790 0 49.1547 12.3081 605 112.499 1256.81 491.797
791 0 49.1429 12.1686 598 113.659 1257.67 492.453
792 0 51.1462 12.5132 640 113.228 1257 492.097
793 0 52.1093 12.3011 641 114.908 1256.72 492.02
794 0 53.087 12.2252 649 116.059 1256.51 491.567
795 0 55.221 12.6763 700 114.541 1255.75 489.804
796 0 55.0412 12.7177 700 115.024 1255.61 489.837
797 0 57.0655 13.5458 773 113.576 1256.45 489.313
798 0 58.056 13.2114 767 115.138 1256.49 488.679
799 0 57.0706 12.7737 729 118.37 1255.86 488.355
800 0 62.253 13.7022 853 126.886 1256.89 486.474
801 0 65.1713 13.7637 897 127.516 1257.39 485.721
802 0 64.2148 13.377 859 131.095 1257.17 484.85
803 0 66.3074 13.4977 895 131.985 1257.08 484.544
804 0 66.3371 13.2505 879 134.304 1256.91 484.711
805 0 67.2948 13.4334 904 133.533 1256.41 483.571
806 0 71.759 13.0994 940 131.612 1255.8 482.946
807 0 72.3951 13.7993 999 129.875 1256.26 482.192
808 0 72.3094 13.3731 967 126.257 1256.23 479.59
809 0 74.5307 13.3905 998 126.631 1256.58 477.759
810 0 75.3235 13.5416 1020 124.875 1256.26 478.328
811 0 78.2679 13.9393 1091 118.269 1255.35 481.748
812 0 81.3189 13.7729 1120 119.178 1254.48 479.068
813 0 82.3443 14.3301 1180 119.165 1255.22 478.231
814 0 83.5351 13.6829 1143 123.057 1255.1 477.954
815 0 85.5807 14.3023 1224 120.359 1255.08 478.203
816 0 84.5951 14.268 1207 157.066 1256.08 477.977
817 0 89.5138 13.6962 1226 122.546 1254.58 477.166
818 0 91.7394 13.5929 1247 122.46 1254.52 474.391
819 0 95.764 14.4522 1384 115.625 1254.08 473.179
820 0 95.6774 14.5384 1391 118.571 1254.45 470.254
821 0 98.9776 13.8213 1368 120.251 1254.65 468.564
822 0 102.828 14.5582 1497 116.57 1254.22 466.882
823 0 103.934 13.4316 1396 121.643 1254.09 466.82
824 0 106.974 13.6295 1458 120.792 1255.08 465.374
825 1 54.6878 11.9039 651 116.289 1255.28 491.826
826 0 54.7706 12.0868 662 116.211 1254.87 491.367
827 0 55.5837 12.2518 681 117.793 1254.98 489.686
828 0 58.5796 12.4617 730 115.127 1254.6 488.478
829 0 58.7594 12.5086 735 120.303 1254.58 487.865
830 0 61.5326 12.9037 794 117.806 1254.45 487.573
831 0 62.6445 12.5789 788 119.463 1254.2 485.975
832 0 63.6902 13.2516 844 118.361 1254.46 484.596
833 0 64.6639 13.083 846 119.035 1254.14 483.151
834 0 67.9108 12.8698 874 117.621 1254.39 484.886
835 0 68.6393 13.0392 895 118.257 1254.49 484.579
836 0 70.7208 12.8958 912 118.984 1254.49 482.103
837 0 71.4849 13.4294 960 117.6 1254.09 479.92
838 0 74.4709 13.9249 1037 114.956 1254.33 478.017
839 0 75.5551 13.7516 1039 115.28 1254.49 477.649
840 0 76.5541 13.7289 1051 115.627 1254.4 475.347
841 0 79.7797 14.0512 1121 114.188 1253.41 473.964
842 0 81.652 14.0597 1148 113.084 1253.91 474.443
843 0 82.4874 14.4507 1192 112.356 1253.06 472.918
844 0 86.5957 14.2848 1237 108.276 1253.43 472.291
845 0 87.54 14.2792 1250 108.29 1253.48 470.954
846 0 92.5512 14.6838 1359 105.026 1253.74 470.734
847 0 92.6328 14.7464 1366 105.038 1253.49 469.187
848 0 95.6064 14.612 1397 104.115 1254.04 466.19
849 0 95.5707 13.8536 1324 107.254 1253.85 464.644
850 0 96.5362 14.2434 1375 130.048 1253.78 465.105
851 0 103.768 13.9735 1450 102.428 1253.41 461.006
852 0 108.918 14.3135 1559 99.263 1253.8 460.046
853 0 110.936 14.2604 1582 98.5278 1253.46 459.788
854 0 113.648 14.4657 1644 97.7999 1253.49 457.926
855 0 117.66 13.8704 1632 99.2445 1253.97 454.768
856 1 61.5493 11.6817 719 102.88 1254.3 481.572
857 0 62.6673 12.0637 756 102.951 1254.86 480.884
858 0 64.6169 11.8081 763 104.642 1254.35 479.754
859 0 68.4769 11.7266 803 104.595 1254.32 480.239
860 0 67.4495 12.4686 841 103.881 1254.9 478.485
861 0 73.5779 12.8843 948 100.828 1255.47 477.402
862 0 75.4929 12.7562 963 101.161 1254.3 476.078
863 0 78.5852 13.0941 1029 100.184 1254 475.669
864 0 79.442 13.6452 1084 100.28 1254.08 473.982
865 0 81.4386 13.5071 1100 101.183 1254.86 474.619
866 0 82.5192 13.306 1098 103.325 1254.99 473.19
867 0 85.4439 13.5293 1156 103.555 1255.09 471.746
868 0 87.4056 13.6604 1194 103.132 1255.02 471.17
869 0 89.3913 12.9767 1160 106.076 1254.51 468.729
870 0 92.3144 13.779 1272 104.526 1254.04 466.517
871 0 96.2938 13.0642 1258 106.589 1253.49 465.432
872 1 53.0808 9.19353 488 95.0369 1255.26 488.969
873 0 53.0683 9.3276 495 96.7111 1254.52 489.497
874 0 54.0397 9.64106 521 97.1958 1254.38 487.489
875 0 57.0646 10.7247 612 96.018 1254.36 485.845
876 0 58.0368 11.1998 650 95.3646 1254.01 486.894
877 0 58.05 9.9397 577 91.9081 1252.8 487.192
878 0 60.0605 11.1388 669 90.1898 1253.69 485.954
879 0 62.0856 11.0171 684 89.3173 1253.68 486.443
880 0 62.0439 10.9761 681 90.9266 1253.55 487.313
881 0 62.0393 10.9286 678 137.153 1252.53 487.09
882 0 66.1039 10.7709 712 91.4607 1253.62 484.42
883 0 66.1604 10.4745 693 93.4762 1254.01 484.71
884 0 67.1798 10.4942 705 95.9773 1253.68 480.352
885 0 70.2296 11.0637 777 94.9665 1254.28 482.449
886 0 72.1242 10.9256 788 96.9898 1254.27 479.228
887 0 74.1751 10.8392 804 97.857 1254.35 479.078
888 0 76.1584 11.3054 861 99.029 1254.26 478.326
889 0 78.118 11.137 870 101.705 1254.33 476.917
890 0 81.1264 11.7348 952 101.713 1253.89 473.734
891 0 81.2081 11.0703 899 103.444 1253.56 473.353
892 0 85.1561 11.7197 998 101.753 1253.84 472.773
893 0 85.2549 11.1431 950 103.688 1253.34 470.964
894 0 88.1093 10.8842 959 103.27 1253.67 469.752
895 0 91.0736 10.6837 973 103.926 1253.73 467.109
896 0 94.1097 11.2528 1059 102.975 1254.22 463.213
897 0 95.1528 11.5709 1101 103.149 1253.95 459.134
898 0 100.081 11.7305 1174 100.356 1253.89 460.681
899 0 105.157 11.3639 1195 101.354 1254.17 458.657
900 0 107.164 11.5803 1241 100.788 1254.31 457.386
901 0 112.147 11.7702 1320 100.474 1254.98 453.108
902 0 116.208 11.2901 1312 101.575 1253.97 454.548
903 0 121.118 11.9057 1442 101.056 1254.66 452.266
904 0 123.16 11.4729 1413 102.102 1254.14 448.055
905 0 127.136 11.9242 1516 101.595 1255.3 448.313
906 1 76.0334 9.57474 728 93.7527 1253.98 475.067
907 0 79.0731 9.71253 768 93.8125 1255.83 472.357
908 0 82.1734 9.93021 816 86.0968 1254.79 472.08
909 0 84.1913 10.1554 855 82.1146 1255.36 471.335
910 0 85.1942 9.96547 849 80.8822 1255.36 470.995
911 0 89.1908 10.0571 897 79.2631 1255.17 470.004
912 0 89.086 10.3159 919 79.1382 1255.05 467.508
913 0 91.1931 9.72661 887 83.8331 1255.7 466.589
914 0 93.2394 9.62039 897 83.8272 1255.5 466.433
915 0 98.311 9.87682 971 84.378 1254.87 463.818
916 0 100.254 8.93733 896 83.7801 1255.09 464.217
917 0 105.136 9.87292 1038 81.7206 1255.09 459.425
918 0 106.264 9.20348 978 83.1391 1255.15 461.654
919 0 111.153 10.0312 1115 82.4413 1255.53 458.003
920 0 114.188 9.83462 1123 84.4942 1254.67 455.707
921 0 118.168 10.4597 1236 82.1699 1255.05 454.644
922 0 120.267 10.3353 1243 83.5945 1255.04 455.459
923 1 66.0854 9.50285 628 80.2357 1256.65 483.438
924 0 66.0845 9.2306 610 77.8574 1256.01 483.777
925 0 69.0687 10.3375 714 76.063 1256.22 481.165
926 0 68.0582 9.49188 646 78.4536 1256.21 480.642
927 0 70.1659 8.85045 621 76.6634 1253.38 482.813
928 0 71.1595 9.12036 649 76.6317 1254 481.515
929 0 74.164 9.41157 698 75.4384 1253.65 479.719
930 0 77.1966 9.50819 734 74.4768 1253.27 483.315
931 0 77.2047 9.52015 735 74.3918 1252.91 483.441
932 0 79.1455 9.41304 745 75.1758 1253.63 480.668
933 0 80.1358 9.64612 773 75.6714 1253.55 478.246
934 0 84.1338 10.2218 860 74.3477 1253.32 477.165
935 0 86.1932 10.6041 914 73.744 1253.47 475.794
936 0 89.2032 9.71938 867 75.1834 1254.23 477.608
937 0 91.2993 10.0329 916 75.2194 1253.89 474.442
938 0 95.2978 10.7558 1025 72.9356 1253.63 470.759
939 0 98.1918 10.8054 1061 72.8794 1252.28 470.276
940 0 101.315 9.94914 1008 74.0962 1252.41 468.098
941 1 56.049 9.49169 532 73.0865 1253.46 493.31
942 0 55.0705 9.24269 509 73.8251 1254.45 491.658
943 0 54.1018 8.92761 483 73.8199 1254.35 493.153
944 0 59.097 10.1866 602 71.9136 1254.37 491.176
945 0 59.1264 10.1477 600 71.9367 1254.16 489.883
946 0 60.0908 9.71862 584 73.7517 1254.4 489.786
947 0 63.1914 10.9034 689 71.0537 1252.78 487.21
948 0 65.2077 11.2563 734 71.7684 1251.81 487.624
949 0 66.4495 11.979 796 70.3518 1252.2 484.666
950 0 68.418 11.5028 787 71.1423 1252.49 482.975
951 0 71.2977 12.0761 861 74.4448 1251.25 484.974
952 0 71.2232 11.4569 816 74.7708 1252.22 484.977
953 0 73.0996 11.4638 838 73.5119 1251.68 483.205
954 0 74.0874 11.095 822 74.3966 1251.35 483.277
955 0 75.1442 11.1519 838 74.9952 1251.72 481.625
956 0 78.0607 12.2084 953 62.1983 1251.16 480.988
957 0 80.0728 11.3397 908 64.0881 1251.54 478.945
958 0 81.2125 12.6458 1027 62.7877 1251.23 478.455
959 0 84.1665 12.1664 1024 64.1953 1251.84 477.067
960 0 85.1929 12.7006 1082 63.0591 1251.04 475.526
961 0 89.1638 13.1556 1173 62.8235 1251.68 475.999
962 0 90.1209 12.6053 1136 64.2033 1252.24 473.574
963 0 93.072 12.4098 1155 64.4424 1252.25 470.93
964 0 94.1234 13.1636 1239 64.2437 1252.27 469.71
965 0 96.1373 12.7942 1230 65.4146 1252.2 470.473
966 0 97.169 12.1335 1179 68.011 1252.36 472.21
967 0 100.234 12.0618 1209 68.4764 1251.86 469.707
968 0 104.209 12.878 1342 67.5268 1251.73 465.67
969 0 106.174 13.3743 1420 67.9197 1253.11 468.69
970 0 109.32 13.4376 1469 68.4894 1252.6 464.663
971 0 113.25 12.0971 1370 71.4942 1252.85 460.885
972 0 116.247 12.9379 1504 71.0372 1252.96 458.415
973 0 121.171 13.0641 1583 69.8136 1252.53 457.736
974 0 123.264 12.7125 1567 72.0038 1253.54 455.8
975 0 127.347 13.1452 1674 72.1661 1253.88 455.37
976 1 70.096 11.3559 796 69.6972 1254.23 484.16
977 0 73.1031 11.8189 864 70.3264 1253.72 483.198
978 0 75.167 12.0532 906 70.4283 1253.81 481.238
979 0 79.2156 12.7879 1013 78.4788 1253.63 479.789
980 0 79.1473 11.9019 942 81.2282 1256.4 479.53
981 0 81.1961 12.0449 978 80.8978 1255.81 478.543
982 0 83.1601 11.7965 981 82.63 1255.96 479.082
983 0 85.1142 11.9017 1013 73.151 1255.61 476.996
984 0 89.2008 12.029 1073 74.7726 1255.5 475.237
985 0 91.1387 12.1683 1109 74.7484 1254.9 473.069
986 0 91.1226 11.6327 1060 76.5066 1254.75 471.975
987 0 95.2006 11.8802 1131 76.5243 1254.82 469.989
988 0 97.23 11.9716 1164 74.927 1254.02 464.653
989 0 99.1825 12.5324 1243 77.1191 1254.79 468.217
990 0 102.15 11.9628 1222 77.946 1254.43 466.074
991 0 104.305 11.7828 1229 76.0391 1253.76 459.116
992 0 109.165 12.7147 1388 75.1852 1253.34 460.447
993 0 113.222 12.895 1460 75.9589 1253.46 457.636
994 0 116.212 12.1502 1412 78.7606 1254.26 458.363
995 0 118.17 12.8797 1522 78.6124 1253.68 458.786
996 0 122.272 13.1838 1612 79.3033 1252.7 455.109
997 0 127.086 12.944 1645 80.4389 1253.29 454.389
998 0 130.197 13.7791 1794 80.6427 1254.57 452.851
999 0 137.191 13.3974 1838 81.3651 1255.03 449.357
1000 0 141.238 13.4596 1901 82.5287 1253.13 447.968
1001 0 146.2 13.7278 2007 82.7499 1254.03 445.99
1002 0 151.223 13.8735 2098 83.4676 1253.83 442.465
1003 1 78.1199 11.7512 918 81.598 1254.28 478.597
1004 0 82.3261 12.8027 1054 81.6262 1255.66 476.338
1005 0 85.148 13.0126 1108 80.9287 1254.96 475.974
1006 0 88.3552 12.6308 1116 86.1819 1255.42 473.108
1007 0 90.1354 13.7238 1237 83.9167 1255.83 471.995
1008 0 94.2247 13.9454 1314 84.7861 1256.48 471.782
1009 0 95.2733 13.6345 1299 81.0608 1256.37 472.548
1010 0 99.3149 13.5428 1345 83.1933 1255.15 468.488
1011 0 102.2 14.2172 1453 85.3152 1256.09 466.809
1012 0 102.295 12.4737 1276 90.1607 1255.6 465.674
1013 0 107.28 13.2457 1421 88.2463 1255.52 463.235
1014 0 111.491 13.5257 1508 86.7958 1254.95 461.635
1015 0 114.38 13.7 1567 87.3472 1255.69 458.489
1016 0 115.43 13.1768 1521 89.5148 1254.97 456.583
1017 0 122.355 13.8286 1692 87.2725 1255.48 453.974
1018 0 125.349 13.251 1661 88.4064 1255.63 453.47
1019 0 128.291 13.1108 1682 90.368 1256.35 452.405
1020 1 72.2176 10.8976 787 81.8933 1256.68 483.649
1021 0 74.2526 11.1511 828 81.5954 1256.4 481.316
1022 0 75.1819 12.1306 912 80.7357 1256.69 479.021
1023 0 79.076 12.6334 999 79.5125 1256.44 481.378
1024 0 81.1592 12.112 983 81.0783 1255.79 478.411
1025 0 82.0727 12.3671 1015 82.5182 1255.46 476.722
1026 0 83.0975 11.7934 980 82.7092 1255.21 475.894
1027 0 89.1314 12.3525 1101 80.3769 1255.08 474.429
1028 0 92.0833 11.6959 1077 81.4076 1255.12 471.659
1029 0 94.0935 12.2006 1148 81.1359 1254.3 470.193
1030 0 94.098 12.2107 1149 128.922 1253.29 470.211
1031 0 97.0598 11.6114 1127 83.803 1254.34 468.295
1032 0 101.173 11.4556 1159 83.5358 1255.21 468.072
1033 0 103.247 11.6033 1198 83.2646 1255.29 465.458
1034 0 108.207 12.7441 1379 81.43 1255.1 464.404
1035 0 112.175 12.3022 1380 81.9942 1254.21 460.728
1036 0 114.193 12.4263 1419 82.6561 1254.78 459.925
1037 0 118.371 12.9001 1527 81.7793 1255.52 458.433
1038 0 122.359 12.3244 1508 85.372 1255.36 455.133
1039 0 126.292 12.7799 1614 84.8401 1255.6 454.681
1040 0 132.223 12.8722 1702 84.6028 1255.24 451.496
1041 0 135.374 12.2327 1656 86.494 1255.57 448.086
1042 0 140.236 12.6073 1768 85.0882 1254.47 446.355
1043 0 145.291 13.2218 1921 82.1052 1254.77 443.097
1044 0 150.232 12.4607 1872 84.9701 1254.36 441.136
1045 1 82.2336 10.8228 890 80.2944 1255.13 479.478
1046 0 84.1843 10.964 923 76.5666 1254.56 477.027
1047 0 87.0901 11.425 995 76.5327 1253.84 471.884
1048 0 90.2759 11.8082 1066 77.8893 1255.77 471.815
1049 0 92.253 12.0972 1116 78.0376 1255.28 471.59
1050 0 95.3434 11.8624 1131 78.9452 1254.64 471.176
1051 0 99.2728 13.065 1297 77.2313 1254.41 468.392
1052 0 100.224 11.6938 1172 80.7056 1255.19 465.696
1053 0 105.33 12.8264 1351 79.2117 1254.67 466.429
1054 0 107.207 12.4619 1336 81.9918 1254.59 464.186
1055 0 109.19 11.7593 1284 85.5343 1254.71 462.745
1056 0 112.198 11.6758 1310 84.9763 1255.3 459.818
1057 0 116.204 11.3249 1316 85.4263 1254.88 459.072
1058 0 120.235 11.4359 1375 86.2109 1254.96 455.668
1059 0 126.261 12.4901 1577 85.7096 1255.02 453.717
1060 0 128.35 12.5048 1605 86.3826 1255.23 454.15
1061 0 130.313 11.6795 1522 88.3114 1255.73 452.442
1062 0 134.378 12.2788 1650 87.9976 1255.37 451.922
1063 0 135.303 11.5518 1563 89.8388 1254.15 448.756
1064 0 139.332 11.9642 1667 89.3863 1254.81 446.29
1065 0 144.372 12.0591 1741 89.954 1254.81 444.376
1066 0 150.335 12.838 1930 89.5596 1254.87 441.986
1067 0 155.343 12.6494 1965 90.7415 1254.66 441.339
1068 0 158.355 12.5162 1982 93.0242 1254.83 439.43
1069 0 164.509 12.82 2109 92.8848 1255.11 438.54
1070 0 170.478 14.0722 2399 91.3677 1254.83 436.189
1071 0 173.433 13.9824 2425 93.3101 1254.95 434.929
1072 0 179.348 14.0453 2519 93.4188 1254.96 429.672
1073 0 186.378 14.8408 2766 91.4996 1254.82 427.946
1074 0 191.383 14.6199 2798 92.1916 1254.8 425.183
1075 0 195.407 14.4928 2832 93.2987 1254.34 422.1
1076 0 202.457 14.4228 2920 92.7113 1254.29 418.871
1077 0 208.401 14.8512 3095 92.23 1254.59 417.303
1078 0 215.461 14.9401 3219 91.1286 1253.45 413.61
1079 1 150.346 11.7263 1763 90.5372 1254.74 444.352
1080 0 155.507 12.9512 2014 90.4389 1255 445.683
1081 0 162.234 12.8765 2089 95.7793 1254.35 439.322
1082 1 48.084 10.5649 508 83.3937 1254.66 497.13
1083 0 47.0359 9.71599 457 85.221 1254.9 495.223
1084 0 50.0144 10.8169 541 82.9871 1255.42 493.542
1085 0 52.0524 11.2771 587 81.724 1254.86 493.417
1086 0 54.0607 11.1911 605 81.4182 1255.6 491.853
1087 0 53.0845 11.2274 596 79.0117 1256.16 497.213
1088 0 54.1932 11.0346 598 80.112 1255.71 496.495
1089 0 54.2146 10.3847 563 92.0675 1256.17 496.895
1090 0 55.108 11.3232 624 93.492 1257.31 494.279
1091 0 59.1219 11.7554 695 91.3813 1257.06 494.001
1092 0 60.2172 11.2592 678 93.8097 1256.69 493.736
1093 0 61.1796 11.5725 708 94.0141 1256.38 491.332
1094 0 63.1757 11.381 719 93.6273 1255.84 493.243
1095 0 66.1465 11.7618 778 92.4434 1256.45 489.856
1096 0 67.1446 11.4976 772 94.9443 1256.38 488.723
1097 0 69.2917 12.2381 848 92.0283 1256.55 486.748
1098 0 73.3005 12.4283 911 89.8957 1255.97 484.524
1099 0 75.3684 12.7905 964 89.5934 1256.25 488.424
1100 0 75.2637 12.7286 958 90.3027 1257.31 485.711
1101 0 80.3375 13.0201 1046 87.2572 1257.39 485.071
1102 0 82.3016 13.7057 1128 85.6223 1256.23 481.995
1103 0 83.341 13.3908 1116 86.4624 1256.12 482.285
1104 0 83.2842 12.7995 1066 87.8762 1256.29 480.919
1105 0 82.3446 12.3384 1016 89.6358 1256.1 481.496
1106 0 83.2281 11.859 987 89.8328 1256.27 480.601
1107 0 87.1061 11.4688 999 89.5175 1255.86 477.974
1108 0 87.3089 11.5223 1006 90.8608 1254.91 473.745
1109 0 89.1766 11.1352 993 90.4199 1255.17 474.432
1110 0 96.3007 11.5368 1111 86.9253 1254.64 471.715
1111 1 51.2036 11.6398 596 90.0336 1254.62 489.156
1112 0 56.2235 11.7211 659 88.5508 1256.4 492.788
1113 0 58.0556 11.9368 693 88.3766 1256.78 491.654
1114 0 59.1681 11.9659 708 88.5184 1257.07 490.388
1115 0 61.2076 12.7762 782 85.3133 1256.68 491.042
1116 0 61.0228 12.7821 780 85.109 1256.31 490.449
1117 0 65.0604 11.9274 776 86.4253 1256.42 488.028
1118 0 66.0516 12.8082 846 85.0792 1256.2 488.112
1119 0 67.0878 13.1469 882 84.8662 1256.41 487.232
1120 0 70.0588 13.0034 911 84.5005 1255.88 486.3
1121 0 69.0702 12.3932 856 86.9019 1256.42 486.328
1122 0 71.1784 11.9278 849 87.0601 1255.78 487.797
1123 0 74.1447 12.624 936 87.1699 1256.1 487.418
1124 0 76.2167 13.1467 1002 86.485 1255.54 484.966
1125 0 80.1344 12.7785 1024 87.4609 1255.88 484.189
1126 0 80.235 12.8747 1033 87.4134 1255.8 482.984
1127 0 83.2247 13.037 1085 87.0018 1255.33 481.944
1128 0 85.2295 13.0941 1116 87.0663 1255.49 480.091
1129 0 87.2898 12.5215 1093 88.3724 1255.95 479.127
1130 0 90.2573 12.4311 1122 87.3939 1254.86 477.841
1131 0 92.37 12.7639 1179 86.4249 1255.23 474.351
1132 0 95.3391 12.4188 1184 85.5633 1255.24 467.12
1133 0 94.2938 11.7717 1110 88.1847 1255.36 464.17
1134 0 100.205 12.1251 1215 86.4132 1254.72 465.785
1135 0 102.314 11.9631 1224 86.8284 1254.62 463.533
1136 1 56.072 10.2725 576 87.3281 1254.8 480.49
1137 0 58.0589 10.7305 623 85.6019 1254.89 480.945
1138 0 64.1228 12.0082 770 87.4532 1254.66 487.084
1139 0 65.2414 13.0592 852 81.2629 1255.58 489.59
1140 0 66.1382 13.1845 872 82.172 1255.21 490.847
1141 0 67.1756 13.3977 900 82.8922 1254.7 489.417
1142 0 72.2526 13.8957 1004 81.3914 1254.83 487.416
1143 0 72.1667 13.8152 997 83.3771 1254.74 485.238
1144 0 72.2159 12.615 911 87.7025 1255.39 485.022
1145 0 74.1794 12.1058 898 88.7862 1255.04 483.035
1146 0 77.1775 12.8924 995 86.0784 1255.02 480.784
1147 0 77.1973 12.3839 956 87.5115 1255.22 479.192
1148 0 80.2159 12.4788 1001 87.6643 1253.91 476.207
1149 0 83.226 12.3159 1025 88.0517 1254.44 474.845
1150 0 83.1341 12.0528 1002 79.2455 1254.61 467.879
1151 0 87.1849 12.6857 1106 77.9828 1254.57 466.843
1152 0 91.182 12.9302 1179 78.1399 1253.88 465.673
1153 0 95.2304 13.0001 1238 77.7738 1253.64 464.084
1154 0 98.3132 12.8264 1261 79.0849 1253.89 461.079
1155 0 101.173 13.0667 1322 78.6324 1254.22 463.135
1156 0 106.323 13.2709 1411 78.6123 1254.21 458.996
1157 0 109.255 13.3266 1456 79.5632 1253.45 458.444
1158 0 111.146 13.3698 1486 79.3378 1253.84 458.428
1159 0 117.167 13.3229 1561 78.8104 1252.82 455.959
1160 1 67.1659 12.3128 827 77.1064 1253.92 481.348
1161 0 69.2167 12.5259 867 72.9262 1254.04 486.85
1162 0 69.2092 12.585 871 74.6716 1253.06 485.535
1163 0 72.2158 12.6704 915 74.3082 1253.22 483.879
1164 0 75.3395 12.5167 943 75.7943 1253.2 483.252
1165 0 77.1708 12.427 959 77.0782 1253.25 480.919
1166 0 79.2326 12.3434 978 78.4213 1253.04 479.137
1167 0 83.1839 12.7428 1060 78.0651 1253.16 479.319
1168 0 86.3205 12.4536 1075 79.6726 1252.38 476.97
1169 0 91.2197 13.4072 1223 88.8814 1252.08 479.515
1170 0 94.2366 14.1452 1333 91.0945 1253.48 475.644
1171 0 97.3641 13.9066 1354 92.3545 1253.34 474.624
1172 0 100.452 13.8175 1388 92.9611 1253.19 473.568
1173 0 103.402 13.8392 1431 92.8777 1252.64 472.332
1174 1 47.5231 11.7417 558 88.8441 1254.28 498.493
1175 0 49.3583 11.9332 589 88.9949 1254.16 497.752
1176 0 50.3903 12.7009 640 83.9391 1254.8 497.483
1177 0 52.2974 12.1421 635 85.5827 1254.77 496.524
1178 0 55.1002 12.6134 695 88.2446 1255.57 495.371
1179 0 54.3512 12.6952 690 85.4855 1254.2 494.768
1180 0 55.2379 12.7449 704 86.7102 1254.4 493.886
1181 0 56.2625 12.335 694 87.83 1253.72 494.497
1182 0 59.2221 13.0357 772 86.7487 1254.17 494.768
1183 0 62.3092 13.2886 828 86.1316 1254.35 492.501
1184 0 63.2848 12.8151 811 85.6634 1253.45 492.192
1185 0 67.2452 14.514 976 82.0297 1253.81 489.798
1186 0 67.149 13.0009 873 82.6621 1254.08 490.3
1187 0 70.1533 12.9859 911 83.1987 1254.57 489.166
1188 0 72.2318 12.8891 931 84.0258 1254.22 488.454
1189 0 73.1577 13.5871 994 82.8954 1253.82 488.045
1190 0 76.1496 13.1452 1001 84.2258 1254.48 486.78
1191 0 77.037 12.7601 983 82.5788 1252.15 484.842
1192 0 80.1335 12.9035 1034 83.0619 1252.87 483.33
1193 0 82.1366 12.8201 1053 83.8917 1252 481.741
1194 0 85.1104 13.3944 1140 83.1105 1252.5 479.646
1195 0 88.048 13.4926 1188 84.3695 1252.12 479.682
1196 0 91.0891 13.7887 1256 84.34 1253.02 477.323
1197 0 93.1165 13.9181 1296 86.0309 1252.82 477.731
1198 0 96.1613 14.2573 1371 88.8359 1254.17 477.279
1199 0 100.198 14.4714 1450 88.6117 1253.6 473.874
1200 0 103.182 14.1497 1460 88.8829 1253.14 474.294
1201 0 106.184 14.5314 1543 89.7408 1253.15 472.611
1202 0 107.209 13.5064 1448 93.3474 1252.94 469.983
1203 0 110.311 14.1328 1559 92.381 1252.87 469.534
1204 1 57.1265 12.0259 687 96.1383 1254.34 496.904
1205 0 57.1311 11.2023 640 100.333 1254.38 495.747
1206 0 61.1168 12.8279 784 96.0995 1255.04 495.689
1207 0 61.0817 12.4423 760 99.4184 1254.83 494.053
1208 0 63.1986 12.9117 816 98.2157 1255.23 491.574
1209 0 64.1273 12.9742 832 97.8582 1254.97 491.447
1210 0 67.1611 13.3113 894 96.6544 1255.31 490.454
1211 0 71.1475 13.5634 965 95.6166 1253.9 487.297
1212 0 71.1551 13.4635 958 149.826 1252.91 487.368
1213 0 75.2067 14.6264 1100 93.6909 1253.96 485.829
1214 0 76.1228 13.6359 1038 97.3044 1255.02 486.358
1215 0 80.1784 14.2682 1144 94.417 1254.48 483.304
1216 0 82.1236 14.4904 1190 95.095 1254.41 481.732
1217 0 82.1236 14.5391 1194 156.799 1254.41 481.67
1218 0 86.1157 14.3528 1236 96.4927 1254.72 477.354
1219 0 90.114 14.4595 1303 96.142 1253.92 478.655
1220 0 92.097 14.4521 1331 96.5988 1254.06 474.947
1221 0 95.134 14.8422 1412 96.4618 1252.9 474.899
1222 0 99.1874 14.6793 1456 97.0941 1252.99 472.194
1223 0 100.151 14.3983 1442 98.8225 1253.49 470.003
1224 0 105.214 15.1216 1591 95.9956 1253.03 468.656
1225 0 105.181 14.6319 1539 98.742 1252.94 464.947
1226 0 111.281 14.432 1606 98.9988 1252.78 462.231
1227 1 59.2013 11.5369 683 103.365 1253.6 485.365
1228 0 63.2264 12.4948 790 101.047 1253.5 484.486
1229 0 66.2715 13.0222 863 96.7659 1253.27 483.717
1230 0 68.2716 12.9776 886 101.672 1253.6 481.749
1231 0 71.1738 13.5303 963 97.7352 1254.4 484.182
1232 0 72.2015 14.1548 1022 97.3728 1253.74 483.416
1233 0 75.1435 14.1729 1065 97.1155 1253.65 481.994
1234 0 77.2336 14.6957 1135 96.422 1253.97 480.493
1235 0 74.1837 13.507 1002 100.063 1254.4 476.627
1236 0 79.1786 13.5643 1074 99.0922 1254.09 476.191
1237 0 82.2277 14.6179 1202 96.9775 1254.25 474.329
1238 0 82.2783 13.8797 1142 100.461 1254.9 471.128
1239 0 87.1528 13.8722 1209 100.614 1254.05 466.746
1240 0 89.4325 14.0888 1260 101.999 1253.59 473.61
1241 0 88.4614 13.5652 1200 95.2842 1254.11 465.109
1242 0 93.2617 13.757 1283 103.785 1253.81 462.743
1243 0 97.2858 13.815 1344 102.903 1253.62 459.623
1244 0 99.2368 13.9162 1381 103.82 1253.04 456.136
1245 0 102.227 13.9689 1428 103.267 1253.67 454.275
1246 0 104.299 13.8735 1447 104.695 1254.45 452.515
1247 0 107.289 14.4936 1555 103.114 1253.79 450.795
1248 0 108.205 14.0196 1517 104.815 1253.49 449.117
1249 0 111.25 13.4382 1495 106.847 1253.12 447.52
1250 0 118.226 14.2524 1685 103.659 1252.77 445.551
1251 0 122.301 13.5404 1656 104.705 1253.58 444.06
1252 0 126.289 14.0788 1778 102.89 1253.04 443.576
1253 0 131.167 13.6467 1790 104.185 1254.21 441.983
1254 0 134.255 13.9511 1873 103.695 1252.75 440.765
1255 1 78.0318 11.9182 930 101.104 1254.3 468.952
1256 0 79.0855 11.1651 883 101.454 1254.71 464.469
1257 0 85.2062 13.3676 1139 99.2555 1255.51 470.529
1258 0 89.2182 12.7665 1139 101.034 1255.38 470.329
1259 0 90.2387 12.6553 1142 101.291 1254.27 470.881
1260 0 90.2296 12.7231 1148 164.389 1253.27 470.896
1261 0 96.3337 13.0173 1254 100.284 1254.35 466.752
1262 0 98.3384 12.7112 1250 101.858 1254.26 463.272
1263 0 102.298 13.0794 1338 101.166 1254.31 459.91
1264 0 105.45 12.8022 1350 101.766 1254.02 459.342
1265 0 107.342 13.7225 1473 98.6062 1253.81 456.79
1266 0 110.398 13.3064 1469 101.278 1254.19 456.451
1267 0 112.368 13.2778 1492 101.758 1254.38 452.59
1268 0 118.392 13.4047 1587 99.7335 1254.34 448.941
1269 0 123.321 13.7041 1690 98.6367 1254.02 451.377
1270 0 123.449 13.6817 1689 99.3943 1253.79 445.571
1271 0 128.314 13.4592 1727 98.8633 1253.44 442.095
1272 1 73.3751 11.9387 876 97.4783 1254.58 475.225
1273 0 76.1235 12.2301 931 91.0387 1255.21 476.847
1274 0 77.1946 12.9802 1002 93.6826 1255.18 475.981
1275 0 82.1775 13.5195 1111 94.7381 1255.45 475.04
1276 0 84.2823 13.7039 1155 95.5091 1254.98 474.926
1277 0 85.1133 13.9579 1188 95.1465 1255.68 470.577
1278 0 87.1837 14.1196 1231 93.6507 1255.86 472.279
1279 0 90.1836 13.661 1232 94.47 1254.88 470.61
1280 0 93.1557 14.0088 1305 93.6728 1255.72 470.316
1281 0 93.1557 13.9551 1300 158.758 1256.73 470.273
1282 0 94.1967 13.5143 1273 96.4918 1254.68 465.8
1283 0 100.143 13.8502 1387 95.124 1254.59 466.036
1284 0 101.186 13.9149 1408 96.2528 1254.76 462.607
1285 0 105.202 14.2108 1495 94.8154 1254.81 460.86
1286 0 107.179 13.8926 1489 96.3486 1255.01 459.171
1287 0 107.154 13.3546 1431 98.9748 1255.21 454.468
1288 0 110.104 12.4064 1366 101.46 1254.97 456.539
1289 0 114.216 12.8791 1471 100.064 1254.9 454.477
1290 0 119.398 12.8645 1536 99.5651 1253.85 448.148
1291 0 122.488 13.4788 1651 99.0454 1253.91 448.078
1292 0 126.506 13.5567 1715 98.4262 1254.12 447.437
1293 0 131.386 13.8295 1817 97.8118 1253.92 445.519
1294 0 135.451 14.0346 1901 97.607 1253.23 442.378
1295 0 137.509 13.5118 1858 99.3692 1252.95 437.798
1296 0 142.307 14.2509 2028 97.8412 1253.31 437.732
1297 0 147.374 13.3606 1969 101.016 1253.43 434.721
1298 0 152.401 13.9632 2128 99.7453 1253.35 432.431
1299 0 156.774 14.1286 2215 99.581 1253.73 431.915
1300 0 161.609 13.8297 2235 98.5987 1253.27 431.256
1301 0 168.686 13.6466 2302 100.262 1254.04 426.591
1302 0 173.564 14.3981 2499 100.031 1253.72 426.198
1303 0 177.536 13.7549 2442 104.496 1254.05 425.697
1304 0 184.432 13.6636 2520 98.6611 1254.66 424.037
1305 0 188.469 13.355 2517 99.7616 1254.02 418.785
1306 0 194.442 13.4282 2611 98.2666 1254.29 414.78
1307 0 202.411 14.4212 2919 94.8599 1253.45 413.457
1308 0 208.589 14.0803 2937 96.2898 1253.81 411.079
1309 0 211.547 13.5809 2873 98.3985 1252.9 406.73
1310 0 220.57 14.653 3232 96.2231 1253.27 404.983
1311 0 229.606 14.8167 3402 96.1235 1252.54 399.914
1312 1 176.406 12.2048 2153 97.9382 1253.3 431.634
1313 0 182.444 12.3325 2250 96.2653 1252.7 424.084
1314 0 188.447 13.1549 2479 95.7386 1253.38 422.145
1315 0 194.539 13.2672 2581 94.6718 1252.76 419.424
1316 0 201.538 13.6698 2755 95.1125 1253.15 416.259
1317 0 207.592 14.0323 2913 95.219 1253.29 412.458
1318 0 213.535 13.6418 2913 97.1335 1252.83 409.19
1319 0 221.42 14.2625 3158 96.3724 1253.61 407.241
1320 0 224.536 13.7172 3080 98.2562 1253.37 401.345
1321 0 231.479 14.4203 3338 97.1186 1253.58 401.71
1322 0 240.562 14.6573 3526 94.8128 1253.06 397.757
1323 0 246.539 14.3628 3541 96.7464 1253.54 390.031
1324 0 253.595 13.841 3510 97.9655 1253.5 389.519
1325 0 261.577 14.1908 3712 94.9046 1254.94 385.945
1326 0 267.569 13.533 3621 97.8895 1255.04 380.254
1327 0 276.466 13.687 3784 96.6562 1253.15 380.69
1328 0 276.465 13.6437 3772 160.715 1251.14 380.563
1329 1 211.419 12.8134 2709 94.4145 1254.42 410.471
1330 0 218.533 12.9592 2832 94.3994 1254.07 406.236
1331 0 223.542 13.3532 2985 94.4429 1253.24 402.501
1332 0 229.522 13.5673 3114 93.8863 1253.71 401.362
1333 0 234.491 13.3737 3136 93.9426 1252.95 397.615
1334 0 240.434 13.4715 3239 94.2621 1252.61 394.145
1335 0 246.551 13.2914 3277 93.0619 1253.09 391.458
1336 0 257.599 14.2198 3663 90.1406 1252.38 388.954
1337 0 265.534 14.0095 3720 90.1414 1251.92 385.249
1338 0 272.501 13.6183 3711 90.8831 1252.42 381.839
1339 0 280.699 13.559 3806 90.9811 1252.05 378.586
1340 0 288.843 13.5195 3905 91.3544 1252.55 373.379
1341 0 299.792 13.933 4177 91.0371 1251.88 365.934
1342 0 308.774 13.6572 4217 91.6998 1251.89 362.122
1343 0 319.863 16.4602 5265 84.0653 1252.18 356.101
1344 0 329.127 16.1062 5301 85.7936 1252.43 348.72
1345 0 338.199 15.3105 5178 87.612 1252.07 347.458
1346 0 349.102 16.8804 5893 85.0127 1252.35 338.218
1347 0 357.804 15.5979 5581 87.0007 1252.06 333.534
1348 0 371.757 15.9405 5926 84.9259 1251.83 328.381
1349 0 382.554 15.8304 6056 85.5119 1251.59 318.248
1350 0 382.554 15.7677 6032 151.423 1251.58 318.036
1351 0 402.667 15.4073 6204 87.5891 1251.58 307.316
1352 0 408.065 16.343 6669 85.7072 1251.67 298.052
1353 0 406.202 16.3909 6658 87.5514 1251.82 296.631
1354 0 405.117 16.6915 6762 89.0575 1252.22 296.337
1355 0 399.28 16.7401 6684 89.2253 1252.31 293.122
1356 0 404.631 15.8712 6422 92.0363 1252.31 293.682
1357 0 405.825 16.5145 6702 90.7407 1252.53 293.916
1358 0 150.597 10.1927 1535 89.514 1253 417.707
1359 0 157.353 12.1447 1911 86.8414 1252.32 421.617
1360 0 159.419 12.8027 2041 88.0181 1251.71 424.12
1361 0 167.536 12.8987 2161 90.4271 1252.28 391.968
1362 0 176.401 12.6813 2237 89.4296 1252.23 396.478
1363 0 179.478 12.8428 2305 87.541 1251.94 402.357
1364 0 191.533 15.3603 2942 78.1835 1252.69 403.276
1365 0 193.517 15.921 3081 78.7621 1252.12 401.499
1366 0 201.482 15.5647 3136 80.6668 1251.97 400.143
1367 0 198.476 12.5859 2498 87.8719 1251.47 403.426
1368 0 216.705 15.6203 3385 74.4842 1251.28 403.873
1369 0 222.877 15.1294 3372 75.0795 1252.06 403.164
1370 0 227.712 15.849 3609 74.4564 1251.98 396.765
1371 0 236.683 14.9398 3536 77.0939 1252.08 398.32
1372 0 242.465 14.9712 3630 77.4807 1251.74 392.369
1373 0 250.5 15.501 3883 78.2493 1251.65 392.86
1374 0 257.582 15.036 3873 79.7816 1251.9 388.163
1375 0 265.589 15.4713 4109 78.7802 1251.11 386.254
1376 0 272.414 15.2635 4158 79.8822 1251.04 379.172
1377 0 281.382 16.1311 4539 75.7572 1250.89 375.285
1378 0 280.385 15.6856 4398 155.681 1250.84 373.101
1379 0 288.326 16.301 4700 73.9402 1251.16 377.362
1380 0 291.505 15.7527 4592 81.6568 1250.84 373.845
1381 0 291.505 15.7493 4591 151.789 1247.84 373.863
1382 1 229.337 12.2266 2804 85.6159 1251.59 412.907
1383 0 236.421 12.6131 2982 84.9178 1251.65 404.889
1384 0 242.406 12.347 2993 83.9208 1251.43 401.614
1385 0 250.328 12.4836 3125 81.8237 1250.51 395.972
1386 0 255.533 11.9906 3064 82.2128 1250.59 392.048
1387 0 262.564 12.755 3349 81.2532 1251.9 391.319
1388 0 271.675 13.0487 3545 81.2124 1251.5 387.657
1389 0 277.598 12.8891 3578 81.7037 1251.72 379.688
1390 0 283.84 12.3238 3498 84.1229 1251.67 380.181
1391 0 290.639 12.2661 3565 85.871 1251.63 375.949
1392 0 318.691 21.6573 6902 65.1872 1251.24 343.685
1393 1 35.0499 8.38804 294 72.1633 1249.93 505.724
1394 0 37.0144 10.8066 400 67.065 1250.03 506
1395 0 37.1217 10.048 373 69.2681 1249.78 507.74
1396 0 37.1251 9.99323 371 70.8059 1251.24 506.251
1397 0 37.1251 10.074 374 132.668 1252.28 506.222
1398 0 35.0241 10.764 377 79.0477 1254.35 507.979
1399 0 39.1136 11.4027 446 77.3027 1254.71 507.758
1400 0 38.0826 11.0287 420 79.4714 1254.44 508.176
1401 0 39.0435 10.6804 417 82.5132 1254.99 508.643
1402 0 38.0366 11.4364 435 83.1356 1254.94 508.772
1403 0 38.0911 11.6038 442 83.7353 1254.77 508.086
1404 0 38.1001 11.811 450 83.5267 1254.67 507.622
1405 0 38.0542 10.7216 408 88.1275 1255.2 507.316
1406 0 39.063 11.0846 433 87.9469 1254.18 507.755
1407 0 40.1339 11.5364 463 87.4384 1254.71 508.162
1408 0 40.1202 11.2911 453 89.7395 1254.85 506.547
1409 0 39.0735 11.5168 450 91.2467 1254.84 506.476
1410 0 38.0232 10.967 417 93.8681 1254.69 506.3
1411 0 38.0596 11.009 419 93.8854 1254.38 506.031
1412 0 39.0092 11.4845 448 91.2433 1254.02 507.379
1413 0 39.0092 11.5614 451 137.155 1254 507.381
1414 0 38.0348 12.62 480 84.0292 1255.89 502.721
1415 0 37.0336 11.5301 427 88.274 1255.42 502.646
1416 0 36.0133 14.0504 506 83.1561 1255.6 502.866
1417 0 37.0337 13.9063 515 81.8485 1256.11 503.06
1418 0 39.0082 14.561 568 77.9067 1256.14 503.736
1419 0 40.0144 12.0956 484 82.1715 1255.94 502.293
1420 0 41.0263 12.5285 514 80.0895 1255.71 502.749
1421 0 39.0143 11.4061 445 84.364 1256.09 501.465
1422 0 40.0406 11.8879 476 81.9706 1255.01 502.221
1423 0 43.0513 14.1459 609 74.3284 1255.63 504.34
1424 0 43.0177 14.1105 607 73.8023 1255.25 502.334
1425 0 42.0064 14.3311 602 74.5133 1255.53 504.126
1426 0 42.0097 14.0682 591 74.0812 1255.67 505.184
1427 0 43.0067 14.8814 640 70.5219 1255.3 501.278
1428 0 43.0384 14.3825 619 71.8756 1255.46 501.388
1429 0 42.0251 13.254 557 74.7199 1256.72 503.445
1430 0 41.0526 13.6654 561 75.5152 1254.33 504.465
1431 0 41.0195 13.5789 557 68.4039 1254.7 499.53
1432 0 43.022 13.528 582 71.7474 1255.16 501.909
1433 0 41.0493 13.496 554 69.5722 1255.08 504.892
1434 0 43.0129 13.2983 572 70.4895 1255.53 505.864
1435 0 41.1479 13.8768 571 70.9702 1254.62 504.012
1436 0 43.092 14.3878 620 67.8532 1255.04 502.481
1437 0 41.1009 13.4304 552 71.8478 1255.41 504.373
1438 0 42.0546 13.6965 576 69.4427 1255.39 505.45
1439 0 41.0292 13.5757 557 69.8923 1255.32 504.092
1440 0 42.0089 13.9494 586 68.8003 1255.25 503.862
1441 0 42.0358 13.4885 567 70.1481 1256.25 503.534
1442 0 42.0605 14.2889 601 65.2512 1255.51 502.326
1443 0 43.0361 13.6629 588 61.6497 1255.84 498.415
1444 0 44.2967 15.4187 683 47.8126 1252.76 500.23
1445 0 41.094 13.8463 569 59.9824 1253.93 502.098
1446 0 43.0262 14.712 633 61.8152 1254.98 500.66
1447 0 41.0195 13.5058 554 62.3249 1256.27 496.774
1448 0 41.1137 13.3289 548 62.0347 1255.87 497.544
1449 0 41.2548 14.7134 607 55.5124 1254.16 502.778
1450 0 43.0754 14.2076 612 60.1944 1254.85 498.699
1451 0 42.0508 13.2221 556 59.5719 1254.93 498.827
1452 0 44.0137 14.1547 623 59.7689 1255.56 501.287
1453 0 42.0346 14.2264 598 60.6806 1255.7 498.405
1454 0 44.0415 13.5554 597 58.6985 1256.24 496.069
1455 0 43.0191 13.9705 601 59.1131 1256.37 500.915
1456 0 44.113 14.3042 631 58.6371 1254.78 502.174
1457 0 43.0533 13.6807 589 55.9915 1255.52 497.273
1458 0 41.0109 12.6796 520 57.8058 1254.72 498.86
1459 0 44.0305 14.4218 635 56.8898 1254.55 500.283
1460 0 44.1402 14.386 635 57.8346 1255.06 500.685
1461 0 43.0303 14.4782 623 52.3307 1254.35 498.377
1462 0 43.0548 14.377 619 57.1826 1254.89 500.745
1463 0 43.1495 14.021 605 57.6694 1254.33 501.446
1464 0 44.0946 13.97 616 56.8409 1254.56 501.112
1465 0 43.0719 14.7196 634 50.4054 1254.54 498.334
1466 0 43.2598 15.326 663 49.8371 1253.57 498.452
1467 0 43.0435 14.1717 610 51.7148 1254.22 498.518
1468 0 42.0205 13.6124 572 52.3566 1254.72 499.059
1469 0 42.1698 14.2519 601 49.5241 1253.36 501.621
1470 0 44.0738 14.9295 658 53.6839 1255.31 500.201
1471 0 44.0615 13.3904 590 56.4644 1255.69 501.415
1472 0 45.0402 13.7433 619 54.5073 1254.71 500.725
1473 0 42.0619 14.2647 600 50.4433 1253.78 498.063
1474 0 43.0625 13.5617 584 51.4983 1254.59 497.49
1475 0 43.0625 13.5385 583 163.005 1254.6 497.515
1476 0 44.1062 15.0999 666 51.1997 1254.22 501.111
1477 0 43.0663 13.4212 578 54.3737 1255.02 500.737
1478 0 43.0679 14.6513 631 51.6656 1255.17 499.501
1479 0 43.086 14.4594 623 52.4767 1254.92 498.596
1480 0 43.0444 13.5906 585 49.465 1254.23 496.556
1481 0 45.1736 15.5401 702 41.99 1253.5 500.956
1482 0 42.2309 13.2841 561 49.3262 1254.09 502.287
1483 0 45.0206 14.3934 648 49.2099 1254.66 498.681
1484 0 46.0396 14.8785 685 48.9022 1255.07 497.994
1485 0 45.0591 14.8028 667 49.7481 1254.93 498.198
1486 0 45.0913 14.6148 659 49.258 1255.25 498.866
1487 0 44.0845 14.3815 634 49.9401 1254.86 497.382
1488 0 44.0895 14.0396 619 50.378 1254.52 499.262
1489 0 45.0084 15.2638 687 48.5604 1254.66 499.367
1490 0 44.052 13.8473 610 50.5033 1254.55 499.818
1491 0 43.064 14.2346 613 49.9935 1254.36 501.654
1492 0 45.0317 14.4343 650 47.0585 1255.78 497.002
1493 0 43.0272 13.6425 587 46.7666 1254.45 497.598
1494 0 44.0642 13.8888 612 46.0964 1255.23 497.725
1495 0 44.0187 12.9263 569 47.6081 1256.06 497.814
1496 0 43.1206 14.4942 625 44.224 1254.17 497.64
1497 0 45.064 13.6694 616 44.1737 1254.48 499.344
1498 0 44.0051 14.1347 622 42.2219 1252.14 493.426
1499 0 45.1439 15.063 680 45.1971 1256.26 497.637
1500 0 44.0647 14.0248 618 46.2783 1255.11 498.071
1501 0 45.0611 14.6024 658 45.6748 1255.51 497.854
1502 0 45.0493 15.8271 713 44.2328 1255.81 496.47
1503 0 44.0179 13.9034 612 46.5768 1255.8 498.118
1504 0 44.073 14.4306 636 46.1431 1256.57 498.382
1505 0 46.021 14.7976 681 43.8825 1256.31 498.972
1506 0 45.0391 15.1868 684 43.1287 1256.73 498.31
1507 0 44.0972 14.7175 649 43.4391 1255.27 498.134
1508 0 44.0706 14.8398 654 42.2905 1256.33 498.046
1509 0 46.0304 14.9684 689 42.0015 1256.06 498.311
1510 0 44.083 14.4046 635 43.4787 1255.94 499.688
1511 0 45.0774 13.6876 617 43.8671 1255.72 498.498
1512 0 46.0603 14.329 660 42.4106 1256.22 499.355
1513 0 46.0621 14.9581 689 37.6212 1256.03 498.528
1514 0 46.0318 14.3596 661 38.298 1255.75 497.675
1515 0 47.1014 15.2225 717 36.2971 1255.11 497.778
1516 0 46.0318 14.7072 677 39.034 1255.98 497.613
1517 0 45.1517 14.4402 652 36.9433 1253.44 496.626
1518 0 46.0306 15.3593 707 36.2687 1256.03 497.222
1519 0 45.467 14.1641 644 35.8137 1253.53 497.492
1520 0 45.0723 14.51 654 39.1881 1255.78 497.95
1521 0 46.1299 15.0878 696 37.9655 1255.47 497.727
