time division length width area intensity CMx CMy
0 0 42.1181 13.5334 570 92.3895 425.914 488.379
1 0 43.1266 13.4024 578 91.9723 425.497 486.95
2 0 44.0862 13.4963 595 90.837 424.911 488.109
3 0 45.1148 13.3437 602 90.608 425.279 488.605
4 0 44.0371 13.2161 582 91.5945 425.206 487.136
5 0 48.0883 13.1633 633 89.2812 425.344 487.359
6 0 47.0777 13.5521 638 89.4545 425.926 487.071
7 0 52.0322 14.3373 746 84.252 424.925 486.282
8 0 50.0451 13.7276 687 85.2431 424.913 485.207
9 0 53.038 13.7826 731 79.7387 424.995 483.566
10 0 53.0939 14.3142 760 82.8145 425.067 484.884
11 0 55.1206 14.4955 799 81.2441 424.059 485.528
12 0 56.0638 13.4846 756 77.8664 424.143 483.55
13 0 59.0573 15.4088 910 76.5154 423.57 481.348
14 0 59.1165 14.463 855 79.8129 423.509 482.108
15 0 61.1081 14.4334 882 79.4751 423.63 482.324
16 0 61.1264 14.4128 881 79.7196 423.222 481.824
17 0 63.0548 14.5429 917 78.8877 423 480.576
18 0 63.0759 14.4746 913 79.3001 423.042 480.26
19 0 66.0773 14.8311 980 78.2071 422.969 479.394
20 0 67.0748 14.7895 992 78.877 422.763 478.564
21 0 67.0886 14.2498 956 80.9874 423.383 478.734
22 0 71.0791 14.927 1061 77.9736 422.823 476.651
23 0 72.0916 14.7451 1063 78.4553 422.774 475.221
24 0 73.1046 14.3083 1046 79.9694 422.478 475.252
25 0 76.0984 14.7835 1125 78.8169 422.756 473.949
26 0 78.0705 14.8968 1163 78.4101 423.543 473.272
27 0 80.0918 15.3948 1233 77.2141 422.677 471.854
28 0 81.0855 15.3172 1242 77.4034 422.88 471.857
29 0 83.186 14.726 1225 78.5216 422.449 472.857
30 0 86.1126 15.0501 1296 76.5787 422.559 472.076
31 0 85.1953 14.3083 1219 78.7941 422.436 471.03
32 0 90.0828 15.3081 1379 75.3481 422.956 469.728
33 0 91.1625 15.1927 1385 75.8751 421.875 468.907
34 0 95.1526 15.081 1435 74.7394 421.926 468.203
35 0 96.2681 14.9063 1435 75.2544 421.327 467.629
36 0 98.2051 14.2151 1396 77.4821 422.098 464.397
37 0 101.187 14.498 1467 75.696 421.866 463.348
38 0 104.052 14.608 1520 74.5704 421.725 461.924
39 0 107.09 14.6792 1572 74.187 421.985 461.202
40 0 110.087 14.2888 1573 74.5118 421.784 458.301
41 0 113.157 14.9084 1687 72.5406 422.282 458.554
42 0 117.119 14.7456 1727 73.3208 421.203 456.171
43 0 120.103 14.9538 1796 74.4427 421.395 452.275
44 0 123.082 14.2425 1753 78.348 421.082 450.605
45 0 128.108 14.558 1865 76.7212 421.129 447.464
46 0 132.145 15.0138 1984 75.9708 421.393 446.816
47 0 134.147 14.7972 1985 77.1073 421.257 443.832
48 0 140.125 14.8939 2087 76.724 420.839 441.32
49 0 144.234 14.7469 2127 76.26 420.649 439.487
50 0 145.219 14.3989 2091 77.6442 421.354 437.25
51 0 152.141 15.4988 2358 75.4813 422.284 434.463
52 0 157.222 15.2905 2404 75.4493 421.696 432.488
53 0 160.197 15.0752 2415 76.6783 422.039 432.975
54 0 163.171 14.874 2427 78.8315 421.267 431.309
55 0 169.152 14.3835 2433 78.2881 421.269 426.21
56 1 94.1235 13.1954 1242 79.3277 421.94 463.827
57 0 97.0543 13.137 1275 79.1318 421.65 461.716
58 0 101.11 13.8661 1402 81.4529 420.666 461.088
59 0 105.13 13.6783 1438 80.0466 422.159 460.951
60 0 109.109 14.5909 1592 78.272 421.904 457.734
61 0 113.108 14.3137 1619 81.7492 422.38 456.708
62 0 117.182 14.0295 1644 80.6472 422.063 454.629
63 0 120.145 13.4588 1617 79.8695 422.139 452.079
64 0 120.145 13.5004 1622 144.739 423.163 452.06
65 0 129.171 13.4008 1731 81.7244 421.998 448.33
66 1 67.088 11.7458 788 81.8604 421.758 480.39
67 0 68.0508 13.4018 912 81.5811 421.711 480.243
68 0 70.0825 12.8848 903 81.1894 422.223 476.02
69 0 74.1401 14.0545 1042 79.3234 422.198 476.226
70 0 76.0521 13.7011 1042 81.0384 422.208 473.807
71 0 79.0949 14.7291 1165 78.1159 422.069 471.367
72 0 79.0716 13.5194 1069 79.3555 421.974 472.549
73 0 82.1388 13.8059 1134 81.9409 422.676 471.548
74 0 86.1494 14.1382 1218 82.1946 422.632 470.012
75 0 88.19 13.7884 1216 83.1242 422.516 467.958
76 0 92.2396 13.7251 1266 83.0577 422.264 467.532
77 0 93.2328 13.7291 1280 84.7094 422.734 466.665
78 0 96.1541 14.0712 1353 83.2934 421.73 466.069
79 0 97.1452 14.2364 1383 84.4816 421.479 464.725
80 0 102.139 14.3726 1468 84.6322 422.121 463.365
81 0 105.214 14.5608 1532 85.0483 421.514 460.629
82 0 108.213 14.5823 1578 84.4899 422.572 458.426
83 0 111.19 13.8592 1541 86.2044 421.969 458.539
84 0 114.243 14.2503 1628 86.3133 422.639 455.519
85 0 119.221 14.4354 1721 86.1923 422.24 454.546
86 0 119.221 14.4186 1719 160.424 421.24 454.466
87 0 126.18 14.0672 1775 87.6986 421.892 450.369
88 0 128.111 13.8239 1771 89.1254 422.337 447.942
89 0 134.211 14.0749 1889 88.343 422.259 446.078
90 0 140.161 14.4762 2029 87.5185 422.395 442.638
91 0 143.15 14.3835 2059 92.4196 422.321 440.305
92 0 149.189 14.5654 2173 93.6148 421.607 437.976
93 0 154.23 14.7507 2275 94.2664 422.012 434.921
94 0 158.3 15.1548 2399 94.9892 421.566 432.268
95 0 163.259 14.9394 2439 97.0504 421.157 428.258
96 1 92.1072 12.2683 1130 94.1292 422.172 467.128
97 0 94.1051 12.5392 1180 95.5932 421.806 466.809
98 0 98.1081 13.0468 1280 94.925 422.116 464.876
99 0 101.136 13.1901 1334 96.0045 421.971 462.292
100 0 104.127 12.9937 1353 96.5728 421.691 461.456
101 0 108.24 13.2483 1434 96.3647 421.561 459.801
102 0 111.217 13.2893 1478 97.1793 421.936 456.368
103 0 116.334 13.1432 1529 98.5363 421.842 455.831
104 0 117.171 12.4348 1457 101.517 422.563 452.397
105 0 122.383 12.8939 1578 100.729 422.158 449.223
106 0 125.474 13.0226 1634 102.069 422.912 443.799
107 0 128.503 12.8713 1654 103.184 422.377 440.533
108 0 132.587 12.9349 1715 103.636 422.423 440.459
109 0 136.242 13.021 1774 103.307 422.019 441.829
110 0 140.409 12.9265 1815 104.777 422.756 437.252
111 0 145.41 12.9083 1877 104.535 422.023 433.828
112 0 148.452 12.5765 1867 107.12 422.445 431.017
113 0 152.392 12.645 1927 108.105 422.496 429.12
114 0 160.403 12.8489 2061 107.887 421.453 426.875
115 0 164.373 12.4412 2045 109.622 421.961 422.433
116 0 170.364 12.9898 2213 109.187 421.59 421.392
117 0 175.351 13.071 2292 108.143 421.924 416.008
118 0 180.417 12.7261 2296 110.649 421.619 413.456
119 0 187.433 12.9593 2429 109.825 421.442 411.949
120 0 193.401 12.4767 2413 110.361 422.041 408.151
121 0 198.278 12.2051 2420 112.26 421.39 403.758
122 0 204.424 11.8528 2423 112.487 421.287 403.052
123 0 212.279 12.3328 2618 111.627 421.6 398.806
124 0 219.223 12.7861 2803 110.696 421.521 395.497
125 0 226.322 12.2171 2765 112.937 421.447 389.998
126 0 234.197 13.0147 3048 110.072 421.889 387.552
127 0 177.19 10.1586 1800 122.406 421.142 374.704
128 0 54.0618 9.50764 514 86.5409 422.654 481.94
129 0 58.0815 8.53972 496 95.5706 421.192 479.264
130 0 60.0761 8.75557 526 95.0837 421.456 478.876
131 0 62.0665 9.07091 563 94.8508 420.261 475.964
132 0 64.2356 9.38732 603 93.2968 420.244 474.118
133 0 64.1682 8.69589 558 94.0932 420.283 475.925
134 0 66.1064 9.43932 624 92.3349 420.375 474.926
135 0 69.2281 9.14369 633 91.2291 420.896 473.968
136 0 73.2031 11.352 831 84.8592 421.049 475.077
137 0 76.2015 11.6139 885 84.2893 421.206 473.666
138 0 78.1115 11.2019 875 84.4994 421.431 473.567
139 0 81.1866 11.6275 944 82.0456 420.5 470.858
140 0 85.1371 11.5696 985 80.0386 420.104 471.72
141 0 88.0748 11.6038 1022 80.5274 420.495 469.907
142 1 46.1041 10.1076 466 76.1094 419.569 489.225
143 0 47.0735 10.1119 476 73.4181 421.124 491.214
144 0 50.1013 10.339 518 71.3687 421.793 488.483
145 0 52.0712 10.9466 570 74.5965 423.275 487.254
146 0 53.0808 11.247 597 74.2446 422.64 487.608
147 0 52.2305 10.626 555 76.1784 422.595 488.171
148 0 55.2517 11.33 626 74.3562 422.264 486.369
149 0 56.0949 11.6945 656 75.0823 422.459 484.532
150 0 57.1915 10.9282 625 73.9936 422.485 481.043
151 0 59.1835 11.8952 704 74.4432 422.484 482.643
152 0 62.2658 11.9167 742 74.1941 422.474 481.152
153 0 66.383 12.5484 833 72.9832 422.176 481.492
154 0 66.2256 12.4423 824 73.7961 422.002 480.096
155 0 69.2695 12.2998 852 74.1702 422.673 479.561
156 0 70.2351 13.0846 919 73.9619 422.312 476.86
157 0 72.1402 12.8916 930 74.4946 422.904 477.459
158 0 74.2959 13.1097 974 75.1766 422.562 475.957
159 0 74.2959 13.029 968 136.665 421.517 475.941
160 0 77.3078 12.7283 984 79.5661 421.96 475.135
161 0 81.2433 13.2811 1079 81.392 421.767 473.163
162 0 83.1221 13.0772 1087 82.9016 423.133 471.289
163 0 87.0577 13.4279 1169 82.9829 422.251 469.584
164 0 90.1228 13.4594 1213 81.4699 422.486 467.513
165 0 90.1259 13.0484 1176 86.7959 421.061 465.943
166 1 47.0169 10.5707 497 84.1529 420.296 489.304
167 0 47.0204 11.5056 541 82.9852 420.36 490.039
168 0 48.0181 11.4957 552 79.9692 420.585 486.788
169 0 51.2324 12.0432 617 76.3663 423.708 484.433
170 0 52.0166 11.9577 622 78.3714 421.252 486.767
171 0 54.0574 12.5792 680 76.9294 420.413 485.591
172 0 54.0613 12.7633 690 77.6348 421.181 485.016
173 0 57.0529 12.69 724 78.1326 421.135 484.033
174 0 58.033 13.0098 755 78.4834 421.743 482.956
175 0 60.0567 12.8878 774 79.6202 421.417 481.164
176 0 60.0735 12.518 752 82.7739 421.43 483.689
177 0 60.04 12.5083 751 83.747 420.209 483.007
178 0 62.0418 12.1692 755 85.0821 420.964 481.895
179 0 65.042 11.9 774 85.3966 421.579 480.819
180 0 66.0843 12.5597 830 84.8723 420.414 479.388
181 0 68.0315 12.2737 835 85.7641 421.477 479.758
182 0 70.0442 12.9204 905 83.6497 420.958 479.551
183 0 73.062 13.0027 950 85.6116 421.336 477.62
184 0 75.0563 12.9769 974 85.3039 420.248 476.748
185 0 77.086 12.8687 992 86.3206 420.589 475.398
186 0 80.087 12.9234 1035 85.6879 420.817 475.522
187 0 81.0438 13.104 1062 86.9115 420.266 473.497
188 0 86.0514 13.3641 1150 85.1557 420.075 471.398
189 1 46.0211 11.7989 543 86.8029 419.411 489.506
190 0 45.0753 11.4031 514 87.3385 420.016 488.154
191 0 48.0466 11.7178 563 84.3552 420.396 488.309
192 0 49.1505 12.4109 610 82.841 421.766 487.569
193 0 49.0287 11.993 588 79.0306 419.379 488.833
194 0 50.0823 11.7407 588 79.3333 419.701 488.226
195 0 51.0389 11.8341 604 79.8907 419.922 486.975
196 0 52.0609 11.5826 603 80.476 419.648 486.692
197 0 54.089 11.7399 635 80.3811 419.83 484.502
198 0 57.0617 12.4251 709 79.8886 419.935 483.841
199 0 58.0671 11.8484 688 81.9244 420.342 483.081
200 0 57.0531 11.9362 681 83.3906 420.06 482.465
201 0 63.0635 12.3051 776 82.2603 419.772 481.457
202 0 65.0695 13.2166 860 103.971 419.388 480.093
203 0 67.0814 12.5519 842 106.188 419.325 478.999
204 0 68.1357 12.8127 873 106.953 419.798 478.271
205 0 70.1222 12.6921 890 107.893 419.993 476.653
206 0 73.1061 12.5571 918 108.471 419.437 477.52
207 0 75.195 13.4317 1010 107.158 419.613 475.799
208 0 77.1812 12.6456 976 109.057 419.971 475.78
209 0 80.1804 13.2826 1065 106.154 420.375 473.975
210 0 82.3696 13.0145 1072 107.736 420.552 471.987
211 0 85.2451 13.033 1111 107.196 419.728 472.044
212 0 88.1725 12.5776 1109 99.229 420.83 470.485
213 0 90.1254 12.183 1098 100.651 420.59 468.911
214 1 48.0864 10.8971 524 95.6546 422.053 488.748
215 0 49.115 11.6258 571 93.9037 422.165 487.799
216 0 49.0845 11.0626 543 93.9208 421.313 488.387
217 0 53.2905 11.7094 624 95.1779 421.803 486.276
218 0 53.1049 11.6938 621 94.6554 421.382 486.269
219 0 54.1565 11.6145 629 94.6359 421.925 485.38
220 0 56.1796 11.7836 662 93.5529 421.754 484.665
221 0 57.1807 12.5392 717 92.1757 420.642 483.371
222 0 58.2831 12.1648 709 92.2116 421.238 483.097
223 0 62.2141 11.9426 743 92.1911 421.884 481.544
224 0 63.1258 12.3404 779 92.4056 421.683 481.216
225 0 63.1927 12.0425 761 94.4691 421.49 477.982
226 0 66.0997 12.3299 815 93.6528 421.746 475.934
227 0 69.1521 12.6243 873 92.8225 421.837 476.591
228 0 71.1523 11.8338 842 94.0131 421.176 475.709
229 0 70.2353 11.5184 809 96.4487 421.153 475.355
230 0 74.1756 12.1738 903 94.8605 421.488 473.65
231 0 78.2022 11.79 922 99.1952 421.861 472.549
232 0 79.1431 12.2816 972 105.079 419.883 470.641
233 0 82.2456 12.1587 1000 104.966 420.348 469.386
234 1 44.1121 9.99726 441 101.966 421.569 491.005
235 0 43.1966 10.649 460 103.176 420.55 489.185
236 0 44.3289 11.0763 491 101.118 420.299 487.495
237 0 45.1141 11.482 518 89.5232 421.089 489.954
238 0 45.1455 11.1639 504 91.75 421.413 490.091
239 0 46.2054 10.5832 489 92.5153 421.382 488.73
240 0 47.2612 10.5795 500 92.904 421.212 488.442
241 0 48.162 10.8799 524 91.605 421.116 488.529
242 0 50.1283 10.8521 544 90.9871 421.118 486.632
243 0 52.1469 11.832 617 88.2593 421.263 487.439
244 0 55.2729 11.7779 651 86.6237 420.416 487.27
245 0 56.1082 11.8699 666 86.0571 420.318 485.18
246 0 57.1829 11.9616 684 86.614 420.599 483.788
247 0 58.2141 11.5436 672 87.7753 419.954 482.747
248 0 61.1643 12.1313 742 86.6321 420.326 483.005
249 0 62.1696 11.8064 734 86.7221 420.078 481.527
250 0 64.1896 12.6812 814 85.672 420.392 480.48
251 0 65.153 12.1714 793 87.826 420.435 480.721
252 0 70.2178 12.7318 894 86.0749 420.777 479.624
253 0 70.1675 12.1139 850 89.5976 420.966 477.071
254 0 75.2165 12.7898 962 88.2599 420.564 477.503
255 0 75.2514 13.023 980 90.4673 420.103 475.364
256 0 78.3691 13.4109 1051 92.1037 420.756 475.109
257 0 81.2027 12.8198 1041 92.7445 420.391 473.227
258 0 85.2445 13.7839 1175 89.0783 420.315 471.916
259 0 85.2326 13.4808 1149 91.0766 419.895 470.376
260 0 88.1373 12.889 1136 89.5229 420.434 468.025
261 0 89.1582 12.6741 1130 83.077 419.313 468.806
262 0 91.1642 12.3843 1129 83.8875 419.64 468.678
263 0 92.1873 11.6719 1076 85.539 419.688 467.767
264 0 96.1416 12.0863 1162 86.5404 419.42 464.273
265 0 101.155 12.2287 1237 86.3274 420.195 461.829
266 0 104.18 12.8432 1338 86.0807 419.933 460.389
267 1 54.032 11.086 599 81.5459 418.691 485.275
268 0 55.0395 10.7196 590 82.1983 418.898 483.588
269 0 56.0477 11.6508 653 79.3583 419.089 484.836
270 0 55.2746 11.5243 637 80.9796 420.414 482
271 0 59.1671 11.1379 659 80.302 419.288 482.894
272 0 63.2254 12.748 806 88.7655 418.648 481.878
273 0 65.182 12.5802 820 89.9146 418.288 480.73
274 0 66.1437 12.9415 856 90.0467 418.47 478.519
275 0 67.1241 13.1249 881 91.1669 418.314 477.591
276 0 69.1851 12.4882 864 93.434 419.064 477.465
277 0 72.2292 12.9172 933 92.5863 418.422 476.311
278 0 74.2413 13.281 986 90.8854 418.172 475.244
279 0 76.1867 12.6663 965 93.0176 418.457 473.723
280 0 78.1432 12.6819 991 92.2048 419.027 473.065
281 0 80.2314 12.5263 1005 92.3095 419.054 471.724
282 0 80.2314 12.5637 1008 149.719 419.059 471.689
283 0 84.2313 12.1214 1021 91.7365 419.109 468.404
284 0 89.1908 11.9968 1070 90.8477 419.085 468.464
285 0 89.2125 11.8705 1059 83.3909 419.87 468.587
286 0 91.1737 11.7797 1074 83.8538 419.907 466.385
287 0 93.1672 11.4633 1068 85.2846 420.411 465.787
288 0 99.1604 11.4058 1131 84.8992 420.135 465.698
289 1 50.0376 11.0317 552 80.3333 421.274 488.803
290 0 52.0073 10.6139 552 79.779 420.17 486.904
291 0 54.0952 11.6646 631 79.5325 421.163 488.412
292 0 55.0755 11.5296 635 80.1291 421.427 486.488
293 0 54.2056 11.1981 607 80.8484 420.835 486.044
294 0 57.1498 12.1435 694 78.6081 421.261 484.065
295 0 60.2051 12.4408 749 77.1535 420.328 482.908
296 0 62.1617 12.3066 765 76.9229 420.979 482.932
297 0 64.2819 11.7762 757 77.395 420.816 480.41
298 0 64.1984 11.8072 758 78.0185 420.501 479.507
299 0 67.1513 11.8092 793 78.1286 420.324 480.214
300 0 68.2524 11.8238 807 79.5886 420.03 478.2
301 0 70.1804 11.2709 791 83.6536 419.966 476.885
302 0 72.306 12.1014 875 85.112 420.285 477.534
303 0 75.1725 12.1986 917 85.4046 420.356 476.185
304 0 79.1285 13.0926 1036 83.001 419.946 475.312
305 0 82.1953 12.3851 1018 83.7063 420.386 473.084
306 0 85.1927 11.6677 994 82.5342 420.245 472.305
307 0 87.2185 12.3827 1080 81.5426 420.37 468.77
308 0 88.134 11.1989 987 85.1256 420.272 469.29
309 1 48.0368 10.5336 506 83.5099 421.391 490.69
310 0 48.0181 10.7668 517 83.617 420.778 491.056
311 0 49.0405 11.0521 542 84.3321 421.814 487.786
312 0 51.1967 10.8405 555 82.5838 422.213 487.589
313 0 51.0213 11.8774 606 79.7657 420.284 489.924
314 0 54.0633 11.0426 597 89.8007 420.211 487.595
315 0 56.061 12.0761 677 87.1285 420.44 485.767
316 0 55.049 11.0084 606 90.6518 420.802 486.193
317 0 57.0367 12.2553 699 86.628 420.28 485.063
318 0 58.064 11.5734 672 88.8289 420.28 485.21
319 0 59.0321 11.3159 668 89.5988 420.596 484.862
320 0 63.0397 11.4372 721 87.8641 420.323 484.447
321 0 64.0217 11.2618 721 87.0915 420.687 483.49
322 0 66.0507 11.8545 783 86.7305 420.3 482.69
323 0 67.0426 11.6195 779 87.561 421.325 482.28
324 0 68.0791 11.5601 787 88.028 420.848 481.717
325 0 73.0797 12.0964 884 86.6686 421.08 482.422
326 0 75.0837 12.5327 941 86.9362 420.092 480.527
327 0 76.0594 12.648 962 88.5665 420.087 479.98
328 0 76.0591 12.8716 979 89.0756 420.288 479.341
329 0 80.1082 12.5705 1007 90.0377 420.07 478.502
330 0 83.0627 12.328 1024 90.6846 419.597 476.428
331 0 84.1828 12.0096 1011 92.2957 419.017 476.495
332 0 88.1013 12.5537 1106 91.0606 419.687 473.124
333 0 91.099 12.92 1177 91.2234 420.061 472.15
334 1 48.0218 10.8909 523 91.0057 419.977 494.086
335 0 51.0181 11.2313 573 91.3176 419.258 494.743
336 0 53.0308 10.6542 565 93.4637 418.805 492.568
337 0 53.0359 11.0868 588 92.4745 418.315 493.017
338 0 56.0337 12.0999 678 88.0369 419.323 490.898
339 0 57.0995 12.5395 716 84.9818 418.529 490.595
340 0 60.1152 13.2579 797 82.7716 418.064 489.056
341 0 61.0948 13.3072 813 83.4084 416.956 488.358
342 0 60.0488 11.6072 697 89.4864 416.478 489.034
343 0 62.0462 12.3456 766 87.4308 417.55 488.148
344 0 63.1238 11.6121 733 90.8759 418.454 486.704
345 0 66.0659 12.4118 820 88.7341 416.489 486.3
346 0 69.1517 13.1306 908 78.2302 417.671 484.681
347 0 70.1254 12.663 888 87.5968 417.35 483.064
348 0 70.1266 12.0354 844 90.2903 417.686 481.686
349 0 76.0826 12.3813 942 90.3386 416.973 481.159
350 0 78.0696 12.8987 1007 91.1013 416.235 480.28
351 0 77.0604 12.7952 986 92.8286 416.436 479.357
352 0 80.1108 12.3204 987 93.2006 415.878 477.679
353 0 83.0698 13.2058 1097 92.6062 416.412 478.927
354 0 86.079 13.476 1160 99.1845 416.998 477.041
355 0 87.1009 13.5934 1184 101.515 416.939 475.811
356 0 88.0646 13.9897 1232 103.645 416.735 475.485
357 0 92.1134 13.7548 1267 104.672 416.99 474.459
358 0 92.1267 13.8288 1274 166.794 416.995 474.424
359 0 97.211 13.3627 1299 107.73 417.026 471.119
360 0 99.1633 13.2811 1317 109.391 417.585 470.029
361 0 101.189 13.2228 1338 111.732 416.961 466.825
362 0 105.15 13.8945 1461 107.991 416.871 464.01
363 0 109.178 13.7024 1496 108.778 416.128 461.918
364 0 111.18 13.3388 1483 106.731 415.757 461.523
365 0 112.137 12.3153 1381 103.826 416.681 456.091
366 0 117.187 12.8427 1505 101.181 417.597 453.751
367 0 117.304 12.0115 1409 106.392 417.247 451.402
368 1 63.123 9.83793 621 92.9517 417.013 478.634
369 0 66.0975 11.014 728 91.2212 417.512 479.499
370 0 68.0784 11.4427 779 90.7805 416.365 477.555
371 0 72.2271 12.4607 900 95.6033 418.264 481.118
372 0 73.233 12.7811 936 100.196 418.327 479.94
373 0 75.1948 12.5275 942 101.048 418.159 478.792
374 0 79.1477 12.5967 997 99.8726 418.187 477.582
375 0 81.1411 12.8665 1044 101.045 418.072 475.761
376 0 86.1993 13.6892 1180 97.7831 418.736 473.837
377 0 86.1553 13.8355 1192 98.3809 418.8 472.848
378 0 90.2252 13.7101 1237 99.4002 418.531 471.891
379 0 94.128 13.7154 1291 97.9822 418.611 469.576
380 0 96.2136 13.8858 1336 100.856 418.71 468.823
381 0 98.1266 12.9221 1268 103.428 418.003 466.899
382 0 102.163 13.8797 1418 99.445 416.901 465.345
383 0 102.148 12.6973 1297 101.872 417.665 463.766
384 0 108.191 13.0973 1417 102.905 416.978 462.728
385 0 110.253 13.3239 1469 103.588 417.083 459.609
386 0 113.212 12.9933 1471 104.602 416.92 457.621
387 0 118.22 13.0604 1544 100.157 417.431 456.258
388 0 122.192 13.2497 1619 97.7029 416.906 453.398
389 0 125.208 13.266 1661 99.9862 417.579 449.781
390 0 128.131 12.214 1565 96.331 417.433 446.557
391 1 68.2083 11.2303 766 91.2533 419.602 477.094
392 0 70.2498 11.8861 835 89.7808 418.455 477.029
393 0 74.1027 13.1574 975 87.6113 417.111 475.204
394 0 77.1808 13.2935 1026 93.2115 417.596 475.821
395 0 77.159 13.3879 1033 95.394 419.222 472.985
396 0 81.1223 13.8803 1126 93.6306 418.883 472.486
397 0 82.1716 13.5813 1116 95.8253 419.487 470.631
398 0 85.1625 12.94 1102 97.5653 418.589 471.014
399 0 87.1998 13.1537 1147 97.49 419.254 468.99
400 0 87.1835 12.0321 1049 96.9075 418.85 469.583
401 0 91.167 13.0859 1193 94.6186 419.305 465.894
402 0 92.2145 12.7312 1174 96.9344 419.354 462.825
403 0 95.2243 12.2973 1171 98.7677 418.959 461.232
404 0 98.2305 12.318 1210 98.9207 418.744 460.835
405 0 100.21 12.8131 1284 96.9065 418.842 462.021
406 0 104.281 12.8308 1338 96.6734 419.093 461.304
407 0 108.271 12.9121 1398 94.4578 419.13 459.308
408 0 108.19 12.5889 1362 93.5808 420.032 457.352
409 0 109.178 12.0354 1314 93.9619 418.992 452.253
410 0 114.27 12.0329 1375 93.4145 419.827 449.621
411 0 117.298 12.1826 1429 93.8649 419.521 446.431
412 0 119.282 11.3848 1358 94.7658 418.615 443.299
413 0 123.277 11.7541 1449 92.432 417.5 439.132
414 0 129.314 12.0946 1564 90.6407 417.479 436.987
415 0 134.323 11.919 1601 91.7876 417.686 434.363
416 0 138.239 12.2107 1688 91.3442 417.707 432.509
417 0 144.368 12.108 1748 91.349 418.318 430.904
418 0 148.37 11.8892 1764 91.8968 417.977 427.137
419 0 156.383 12.0537 1885 90.9979 417.886 426.353
420 0 160.293 11.9718 1919 91.9041 417.249 422.603
421 0 167.193 12.3569 2066 90.5378 416.959 420.939
422 1 97.1397 9.07971 882 83.2279 416.256 455.766
423 0 100.094 9.63096 964 81.9627 417.256 453.345
424 0 107.117 12.3509 1323 86.3296 419.284 460.114
425 0 109.137 11.7101 1278 84.4851 418.912 457.748
426 0 114.157 12.4128 1417 86.9301 418.754 457.821
427 0 116.275 11.7652 1368 90.1674 418.698 455.382
428 0 118.321 11.08 1311 92.9596 418.304 452.216
429 0 125.362 12.5637 1575 88.8362 418.392 450.775
430 0 128.186 12.5287 1606 86.7951 417.888 447.517
431 0 130.171 12.5681 1636 87.6858 417.883 445.23
432 1 74.1436 9.65694 716 87.919 419.142 472.987
433 0 78.2325 11.338 887 82.7621 418.808 474.064
434 0 81.2745 11.9103 968 76.6777 418.548 474.786
435 0 82.1701 10.6243 873 80.8442 418.487 473.654
436 0 83.2394 10.668 888 81.1779 419.462 474.037
437 0 87.1798 11.1494 972 80.6409 418.938 472.634
438 0 88.2176 11.823 1043 80.9856 418.8 470.818
439 0 93.177 11.0972 1034 81.9197 418.408 468.598
440 0 98.2833 12.4945 1228 78.4226 418.8 468.954
441 0 101.23 11.9234 1207 80.6446 418.859 465.748
442 0 102.213 11.3684 1162 81.8072 418.219 465.172
443 0 107.258 12.111 1299 79.361 418.353 462.841
444 0 110.233 11.7388 1294 80.6886 418.039 460.916
445 1 61.0218 10.6847 652 76.2899 419.454 485.756
446 0 62.0276 10.5276 653 78.3109 419.314 484.233
447 0 63.0667 11.1945 706 72.1813 418.778 482.204
448 0 65.0906 12.1216 789 81.6553 417.792 481.122
449 0 66.0188 11.7542 776 79.5851 418.965 482.034
450 0 68.0568 11.7843 802 80.3267 419.188 480.382
451 0 72.0779 11.8067 851 79.5006 418.666 479.844
452 0 74.1296 11.6553 864 79.7477 419.698 478.964
453 0 75.1625 12.0672 907 81.7376 419.378 477.574
454 0 76.128 11.5201 877 83.8016 419.824 473.619
455 0 77.1362 12.1992 941 83.6621 418.749 473.949
456 0 82.2074 12.6144 1037 80.3356 417.956 473.162
457 0 84.1832 11.6769 983 82.7243 417.711 472.215
458 0 87.3347 12.6181 1102 83.7886 419.028 471.496
459 0 90.3153 13.4861 1218 81.6847 418.168 470.437
460 0 92.2642 13.3204 1229 83.2327 418.922 469.382
461 0 94.2982 13.4361 1267 84.4688 418.955 466.882
462 0 100.386 14.2051 1426 82.1431 418.858 465.227
463 0 100.351 12.9944 1304 85.9555 419.488 464.468
464 0 100.351 12.9744 1302 165.924 419.48 464.413
465 0 107.247 13.6135 1460 84.5007 419.102 462.621
466 0 112.381 13.1873 1482 85.4096 418.323 459.384
467 0 113.374 12.9042 1463 86.9952 418.64 457.74
468 0 118.087 12.3553 1459 81.8245 418.696 454.989
469 0 122.112 12.5377 1531 81.565 418.103 453.732
470 1 63.0448 9.6598 609 75.1888 416.655 484.841
471 0 63.0182 10.5525 665 72.9203 417.171 485.235
472 0 63.0182 10.6001 668 131.778 417.174 485.214
473 0 68.1348 11.5653 788 75.0787 418.598 481.742
474 0 71.2169 11.9635 852 74.1185 418.676 480.862
475 0 71.2137 12.3853 882 74.5091 418.536 478.07
476 0 74.1979 12.3049 913 74.8565 418.471 476.909
477 0 79.2879 12.8519 1019 72.2296 417.719 475.855
478 0 79.2208 11.247 891 75.1605 417.731 475.067
479 0 84.1738 12.8068 1078 72.1494 417.946 473.982
480 0 86.2285 12.7336 1098 72.4699 417.75 471.238
481 0 89.1933 12.8037 1142 72.0394 417.326 470.234
482 0 92.2184 12.4053 1144 73.5603 417.561 468.465
483 0 94.2449 13.1572 1240 72.879 417.756 466.242
484 0 96.214 12.8256 1234 73.2577 417.406 466.079
485 0 98.2572 12.6912 1247 73.8364 417.25 465.401
486 0 102.236 12.8721 1316 74.1831 416.96 463.147
487 0 104.192 12.8321 1337 73.7337 416.393 464.257
488 0 107.176 13.7157 1470 72.0408 416.871 461.707
489 0 109.204 13.461 1470 71.9088 417.278 458.584
490 0 111.256 12.9252 1438 73.5132 417.37 459.494
491 0 115.336 13.4563 1552 72.328 417.173 458.302
492 0 118.272 13.7565 1627 72.8912 416.884 457.99
493 0 121.227 12.8024 1552 74.3486 416.911 455.438
494 0 126.222 13.096 1653 74.3218 417.67 453.249
495 0 130.19 13.319 1734 75.6228 418.424 450.638
496 0 134.283 13.3971 1799 75.7576 417.691 448.862
497 0 138.446 12.6764 1755 77.3823 416.567 443.856
498 0 143.427 13.268 1903 75.0951 416.603 444.225
499 1 73.1243 10.954 801 72.2834 417.057 479.936
500 0 75.1659 11.4547 861 71.374 417.38 476.331
501 0 80.1373 13.0776 1048 73.1508 417.934 475.059
502 0 80.1154 13.2559 1062 73.2891 417.65 475.048
503 0 85.2587 13.1365 1120 74.4768 417.717 474.891
504 0 85.1925 12.7593 1087 75.3091 417.436 472.731
505 0 91.1552 12.5061 1140 79.3956 417.564 470.034
506 0 93.294 12.4981 1166 79.5609 416.741 468.473
507 0 95.2637 13.2999 1267 76.9929 416.278 468.542
508 0 97.1608 12.1242 1178 80.8506 416.168 465.026
509 0 100.149 12.3716 1239 80.0355 416.143 465.69
510 0 103.234 12.4474 1285 81.1588 416.528 463.222
511 0 104.146 12.7417 1327 76.7995 416.044 459.87
512 0 106.065 12.4735 1323 78.6561 416.406 460.865
513 0 112.174 12.7659 1432 80.4735 416.844 458.552
514 0 114.15 12.9303 1476 79.2039 415.841 457.781
515 0 117.056 12.43 1455 83.5526 417.222 455.548
516 0 121.106 12.6335 1530 85.951 416.971 453.718
517 0 126.19 13.3766 1688 85.4064 416.969 451.228
518 0 126.241 11.7553 1484 83.8558 416.436 453.306
519 0 130.058 12.11 1575 84.6324 415.607 448.418
520 0 134.302 12.5091 1680 84.3827 415.991 445.594
521 1 74.0881 10.1636 753 76.9801 415.586 475.627
522 0 76.0808 11.9872 912 78.5669 416.588 479.481
523 0 79.136 11.9541 946 79.6438 416.35 479.206
524 0 83.1175 12.2237 1016 80.2303 416.436 475.758
525 0 86.1487 11.8864 1024 81.1094 415.726 475.842
526 0 88.1336 12.4016 1093 80.9396 415.903 474.168
527 0 92.1022 12.5187 1153 80.7823 415.506 473.744
528 0 96.134 12.6802 1219 81.1944 415.513 471.926
529 0 98.2494 13.14 1291 79.9202 415.439 469.209
530 0 98.1329 12.6461 1241 82.1233 415.542 467.893
531 0 103.159 12.505 1290 82.5682 415.776 467.468
532 0 107.136 13.4502 1441 85.8966 415.06 466.158
533 0 108.171 12.7484 1379 87.8165 414.88 461.249
534 0 109.126 10.6849 1166 140.825 413.749 459.946
535 0 116.151 12.3632 1436 88.5801 414.5 460.442
536 0 118.378 12.5615 1487 87.9731 414.629 460.186
537 0 123.133 13.0346 1605 85.7028 415.864 457.426
538 0 126.252 12.9027 1629 84.6636 415.665 455.58
539 0 132.291 12.3666 1636 83.5104 416.141 452.285
540 0 134.266 12.8774 1729 83.3418 417.2 450.627
541 0 141.328 12.8566 1817 82.9499 416.862 449.506
542 1 77.1438 11.835 913 78.5717 417.984 481.835
543 0 80.1599 11.9511 958 78.1889 417.33 479.77
544 0 81.1076 11.4169 926 78.4244 416.619 479.246
545 0 84.1419 13.4059 1128 78.7775 414.176 478.984
546 0 85.0485 12.5105 1064 80.922 414.302 477.633
547 0 88.0544 13.0488 1149 81.0505 414.764 475.236
548 0 91.1436 13.7036 1249 79.5556 414.345 474.801
549 0 92.0908 12.1619 1120 84.5571 414.332 474.023
550 0 95.0995 12.6499 1203 83.0748 414.835 473.486
551 0 97.1772 12.5647 1221 82.3137 416.095 471.354
552 0 101.293 12.2319 1239 81.6021 417.194 470.833
553 0 104.159 12.6441 1317 82.5619 417.375 467.725
554 0 109.162 12.5776 1373 83.6344 416.43 467.133
555 0 110.151 12.9458 1426 85.7637 416.885 464.818
556 0 115.279 12.6215 1455 86.4543 416.151 462.254
557 1 63.1166 11.1223 702 90.047 416.734 486.151
558 0 64.0345 11.7905 755 95.7735 416.682 487.807
559 0 67.049 12.6922 851 88.309 417.851 485.066
560 0 70.1342 13.2318 928 80.7985 415.509 487.703
561 0 71.1421 13.1708 937 81.3746 416.427 485.261
562 0 72.1629 12.2778 886 83.1512 417.59 483.637
563 0 77.1709 12.8287 990 82.0152 417.951 482.225
564 0 78.1449 13.1422 1027 81.9844 417.665 481.361
565 0 81.2553 12.1961 991 84.8093 417.532 480.253
566 0 83.1427 12.8454 1068 84.382 416.596 479.507
567 0 88.1295 12.9582 1142 84.5044 416.646 477.68
568 0 88.0826 12.3293 1086 87.5654 414.762 476.59
569 0 92.1382 12.9371 1192 87.2139 415.12 476.346
570 0 95.2158 12.4769 1188 88.6726 415.299 473.948
571 0 98.2828 12.8405 1262 87.8035 414.746 472.356
572 0 101.157 12.9007 1305 87.9057 415.349 472.29
573 0 104.262 12.9673 1352 88.301 415.18 469.084
574 0 107.34 12.4743 1339 90.1322 415.235 465.733
575 0 112.308 13.0534 1466 88.9857 415.387 465.259
576 0 114.314 13.3317 1524 90.1352 414.991 461.154
577 0 118.52 13.2889 1575 90.9575 414.973 456.52
578 1 58.3358 11.3995 665 94.1759 416.737 487.057
579 0 61.2579 11.1169 681 91.9427 416.806 487.84
580 0 63.147 12.4947 789 88.8973 416.617 487.545
581 0 66.0623 13.124 867 91.9262 417.632 488.463
582 0 65.0882 11.9991 781 85.9385 416.255 490.388
583 0 69.1173 12.5005 864 82.5706 416.154 488.484
584 0 69.0802 12.1163 837 84.2425 416.233 486.384
585 0 72.0916 11.7212 845 84.0639 416.434 485.503
586 0 75.261 12.5164 942 85.8015 417.226 484.615
587 0 75.2799 12.3937 933 87.5134 416.905 482.878
588 0 79.181 13.286 1052 84.9838 417.067 483.833
589 0 80.1353 12.716 1019 88.1423 416.215 481.519
590 0 83.2026 12.5357 1043 88.2761 416.295 480.365
591 0 87.2709 12.4898 1090 86.9771 416.417 479.056
592 0 90.1885 13.2279 1193 86.2674 416.599 476.261
593 0 92.1654 12.9767 1196 86.74 416.401 477.371
594 0 94.1331 12.9498 1219 85.7301 415.751 474.724
595 0 98.2374 12.7446 1252 84.1877 415.946 471.51
596 0 100.174 13.4866 1351 82.3753 416.132 471.438
597 0 102.228 12.6971 1298 84.8636 415.458 468.049
598 0 105.161 13.1988 1388 83.7673 415.536 467.687
599 0 106.282 12.4762 1326 85.3431 415.433 464.639
600 0 111.252 12.548 1396 84.8403 414.862 463.159
601 0 113.246 13.4751 1526 82.0151 414.762 453.574
602 0 115.209 12.638 1456 83.8887 414.775 453.128
603 0 119.203 12.8436 1531 84.3488 414.818 449.653
604 0 123.277 12.4678 1537 84.8217 414.754 450.314
605 0 127.236 12.9759 1651 84.2259 415.226 447.83
606 0 131.222 13.1075 1720 83.8785 414.835 446.817
607 0 136.232 13.6972 1866 83.6109 414.681 444.748
608 0 138.284 13.1613 1820 85.8879 414.668 441.823
609 0 143.25 13.089 1875 86.8949 415.411 440.6
610 0 148.375 13.6478 2025 86.3249 414.912 436.872
611 0 153.283 13.6414 2091 87.165 414.433 436.552
612 0 157.197 13.7216 2157 87.9958 414.894 435.533
613 0 164.304 14.2358 2339 87.3476 414.286 432.166
614 0 168.268 14.1441 2380 88.7769 414.984 431.238
615 0 174.237 14.377 2505 88.608 414.171 429.034
616 0 178.232 13.7069 2443 91.5493 414.068 424.764
617 0 185.278 14.9775 2775 88.9031 414.39 422.333
618 0 191.316 14.5832 2790 89.7832 413.227 422.095
619 0 197.308 13.7653 2716 92.419 414.434 421.321
620 0 201.32 14.0771 2834 92.1835 414.667 419.85
621 1 156.311 13.1213 2051 92.0458 414.532 443.445
622 0 160.297 13.1069 2101 90.8367 414.539 441.118
623 0 167.446 14.1897 2376 87.9327 414.879 438.939
624 0 173.321 14.2857 2476 86.914 414.332 434.395
625 0 174.303 12.9946 2265 91.098 414.968 429.668
626 0 182.373 13.6917 2497 89.4702 414.761 427.134
627 0 188.402 13.1899 2485 90.5074 415.142 422.457
628 0 195.294 13.3491 2607 90.2489 414.271 417.488
629 0 203.44 13.6404 2775 89.391 414.955 414.209
630 0 209.382 14.2706 2988 89.0027 414.849 411.49
631 1 48.1578 11.7946 568 74.0299 415.342 489.055
632 0 51.2276 12.7665 654 74.6651 415.709 493.907
633 0 54.3138 12.2253 664 81.9699 416.777 494
634 0 54.3098 12.6865 689 82.5501 416.765 493.772
635 0 57.292 12.9512 742 82.7022 417.168 493.143
636 0 58.2746 12.9387 754 83.5305 417.362 491.324
637 0 60.3871 12.5855 760 84.8592 416.451 491.743
638 0 60.3022 13.1007 790 84.7494 416.471 491.252
639 0 61.2854 12.8742 789 85.5602 417.501 489.887
640 0 64.2729 12.6803 815 86.8049 416.279 487.423
641 0 65.4721 13.3492 874 77.8169 416.868 489.264
642 0 70.3599 12.9904 914 85.2899 416.188 486.844
643 0 71.5156 13.8851 993 83.7049 416.752 485.297
644 0 73.4909 12.4641 916 87.2838 417.027 482.907
645 0 76.4239 13.1373 1004 85.5857 417.15 482.65
646 0 79.6141 12.4099 988 87.751 417.118 477.664
647 0 82.6644 13.0044 1075 88.2307 416.386 477.588
648 0 85.456 13.0126 1112 88.545 416.829 477.019
649 1 44.3402 11.9079 528 83.5265 416.347 494.875
650 0 45.491 12.2442 557 87.5206 416.066 495.171
651 0 46.3754 12.9379 600 86.68 416.077 494.42
652 0 48.3675 12.6531 612 91.5817 416.201 493.275
653 0 52.4841 13.2421 695 89.7597 416.518 492.311
654 0 52.1077 12.6853 661 92.3464 418.11 492.684
655 0 56.1293 13.7005 769 91.1482 417.352 492.42
656 0 56.1014 13.1547 738 94.2575 417.832 490.172
657 0 57.1915 13.2712 759 94.7984 417.594 488.725
658 0 59.2975 13.3732 793 94.9912 417.641 485.777
659 0 61.3086 13.3586 819 95.6471 418.261 486.625
660 0 62.2178 13.3724 832 96.851 418.27 485.987
661 0 66.581 13.983 931 94.9108 417.737 484.306
662 0 66.449 14.3268 952 97.4748 417.613 483.194
663 0 68.6697 13.8926 954 98.805 417.942 482.177
664 0 70.6314 14.4695 1022 97.9247 417.773 481.801
665 0 72.7357 14.5596 1059 98.6544 418.126 481.375
666 0 72.5968 14.7665 1072 101.245 418.253 480.392
667 0 74.6262 14.9947 1119 102.467 418.935 479.086
668 0 78.8197 14.4507 1139 104.758 418.244 478.342
669 0 81.7911 14.7204 1204 105.929 417.715 475.684
670 0 83.7314 15.1437 1268 107.021 417.53 474.171
671 0 86.6068 15.7493 1364 105.878 417.07 472.493
672 0 89.6362 15.139 1357 108.994 418.714 472.842
673 0 91.731 14.8914 1366 111.771 417.835 471.931
674 0 93.6503 15.4831 1450 112.05 418.548 470.936
675 0 96.6716 15.2785 1477 113.201 417.814 467.732
676 0 98.5339 15.5378 1531 115.734 418.428 465.823
677 0 103.525 15.262 1580 116.23 418.184 464.305
678 0 106.481 15.984 1702 113.46 418.574 462.811
679 0 108.539 15.6994 1704 114.956 417.728 460.596
680 0 111.516 15.4597 1724 113.903 417.125 460.166
681 1 60.3652 13.2858 802 116.706 417.82 484.595
682 0 61.3504 13.806 847 116.821 417.72 483.256
683 0 63.3441 14.5396 921 116.729 418.489 484.22
684 0 66.3865 14.6114 970 117.035 419.707 484.276
685 0 69.2871 14.375 996 116.571 420.222 482.105
686 0 71.2065 14.2964 1018 117.709 420.275 480.652
687 0 73.4059 14.2087 1043 118.641 419.507 479.764
688 0 78.27 15.1399 1185 114.513 419.632 477.787
689 0 78.4292 14.5609 1142 117.135 419.219 476.766
690 0 82.3381 14.9991 1235 115.655 420.01 476.551
691 0 84.3416 14.5243 1225 118.486 419.313 474.4
692 0 88.3944 15.0914 1334 115.385 419.49 473.337
693 0 91.3581 15.2039 1389 114.566 419.379 473.114
694 0 93.3736 15.3148 1430 114.876 419.845 470.488
695 0 96.4205 15.2146 1467 115.091 419.823 468.693
696 0 97.4741 15.163 1478 116.36 419.203 468.585
697 0 101.413 15.4714 1569 115.758 419.143 467.412
698 0 104.336 15.5171 1619 115.028 418.227 466.371
699 0 107.277 15.4739 1660 115.531 418.771 465.369
700 0 111.235 15.9662 1776 113.558 418.68 464.716
701 0 111.248 15.2453 1696 116.896 417.897 464.258
702 0 117.249 14.9255 1750 115.95 418.086 463.058
703 0 119.311 14.7932 1765 116.108 418.127 460.091
704 1 65.2899 13.2026 862 115.746 418.7 485.926
705 0 68.2018 13.4601 918 115.203 418.398 485.461
706 0 70.2144 14 983 114.804 418.108 485.106
707 0 74.1962 13.8552 1028 113.893 418.396 483.228
708 0 76.1416 14.1841 1080 113.136 418.259 481.626
709 0 78.1295 13.8104 1079 113.84 416.845 481.03
710 0 80.1547 13.8981 1114 115.199 417.368 479.01
711 0 84.0936 13.7585 1157 114.66 417.197 478.978
712 0 85.1778 13.9825 1191 114.576 417.297 475.592
713 0 87.211 14.0923 1229 114.797 417.501 474.691
714 0 89.1517 14.3127 1276 113.976 417.147 473.114
715 0 91.1443 14.0985 1285 115.732 417.913 470.473
716 0 94.1697 13.635 1284 115.292 417.803 470.993
717 0 96.1358 13.6474 1312 114.754 417.47 469.314
718 0 100.15 13.7993 1382 113.982 416.509 465.923
719 0 104.123 13.4552 1401 115.158 416.605 464.972
720 0 107.237 13.3256 1429 115.808 416.615 461.695
721 0 111.186 13.7068 1524 114.606 417.024 460.122
722 0 114.273 13.8091 1578 114.43 417.276 458.975
723 0 116.268 12.9872 1510 117.639 416.572 455.948
724 0 120.235 13.324 1602 115.92 416.715 455.119
725 0 122.294 13.3367 1631 117.841 417.056 450.261
726 0 127.284 13.5916 1730 116.034 416.957 449.021
727 0 126.265 13.7172 1732 117.937 415.9 444.85
728 1 71.1562 9.16294 652 116.744 416.64 470.345
729 0 80.1347 11.3684 911 108.104 416.619 472.195
730 0 80.1449 11.3669 911 109.715 416.855 469.891
731 0 84.1711 11.643 980 110.584 415.578 470.035
732 0 90.1118 11.2527 1014 101.114 416.036 475.612
733 0 93.1837 11.3003 1053 100.267 416.866 473.463
734 0 97.1905 11.1739 1086 99.4576 416.14 470.864
735 0 100.136 10.9751 1099 100.199 416.688 467.832
736 0 103.183 11.4845 1185 98.3536 415.997 464.754
737 0 106.059 11.0221 1169 99.5124 415.826 464.244
738 0 110.155 11.502 1267 99.5099 415.712 461.842
739 0 112.153 11.0742 1242 102.709 416.271 459.356
740 0 114.211 11.0409 1261 102.916 415.519 458.315
741 0 120.151 11.0527 1328 102.647 415.928 454.514
742 0 123.432 10.443 1289 104.044 415.973 452.539
743 0 128.269 11.0081 1412 103.905 416.244 448.933
744 0 132.392 10.3783 1374 105.012 415.785 446.365
745 0 136.307 10.9899 1498 104.486 415.802 444.816
746 0 141.172 9.81784 1386 107.381 415.404 440.115
747 1 80.1236 9.74745 781 90.4238 416.314 477.218
748 0 83.1477 10.1386 843 89.9644 416.828 474.015
749 0 85.1003 9.99997 851 89.6099 416.462 473.613
750 0 85.0675 9.48658 807 92.3965 416.903 473.752
751 0 89.1349 9.74927 869 95.3901 418.422 472.757
752 0 91.1619 9.94933 907 98.6384 419.153 467.787
753 0 93.1489 9.68342 902 100.364 418.987 466.417
754 0 97.2028 10.226 994 98.3944 418.978 465.823
755 0 101.206 9.98955 1011 97.6083 418.366 463.756
756 0 103.313 9.82451 1015 102.72 418.539 461.093
757 0 107.389 10.7087 1150 103.057 418.544 462.508
758 0 107.352 10.079 1082 106.128 418.747 462.704
759 0 112.3 10.0178 1125 107.894 419.022 459.516
760 0 114.274 10.4836 1198 107.089 418.76 460.801
761 0 117.314 9.98172 1171 108.979 418.623 454.036
762 1 68.1262 9.9668 679 98.1856 419.455 482.788
763 0 68.202 9.032 616 101.836 419.14 479.231
764 0 72.4207 10.1905 738 97.8523 419.111 479.902
765 0 74.324 10.8713 808 89.974 419.097 479.959
766 0 77.2996 11.1902 865 96.9225 418.845 479.136
767 0 77.3078 11.2667 871 97.628 418.234 476.638
768 0 78.3785 11.0745 868 99.538 418.081 476.734
769 0 82.3608 11.2189 924 98.0271 417.701 473.913
770 0 83.3167 10.8382 903 100.901 417.656 471.076
771 0 84.4608 11.2241 948 100.36 417.922 469.961
772 0 86.3923 11.5751 1000 100.638 418.209 470.037
773 0 87.455 11.1715 977 103.443 418.695 469.127
774 0 91.4185 11.6825 1068 102.557 417.81 467.924
775 0 92.3909 11.8193 1092 103.216 417.46 467.669
776 0 94.398 11.8753 1121 104.071 417.006 465.493
777 0 95.3316 11.5911 1105 103.235 417.859 464.891
778 0 97.3225 11.0252 1073 105.856 417.448 462.599
779 0 100.259 11.1112 1114 104.842 415.633 462.871
780 0 101.228 11.3703 1151 105.216 416.189 462.288
781 0 104.205 11.3526 1183 103.981 416.215 460.626
782 0 104.299 10.9972 1147 104.494 416.703 458.675
783 0 109.193 11.3743 1242 105.23 415.94 458.077
784 0 112.133 11.2991 1267 106.122 416.474 456.794
785 0 115.277 11.017 1270 106.524 415.622 453.17
786 0 118.364 11.8532 1403 105.262 416.709 452.11
787 0 122.546 11.8813 1456 105.295 416.186 450.464
788 0 123.312 11.6371 1435 107.73 416.256 446.498
789 0 128.471 11.4812 1475 107.184 416.179 444.846
790 0 131.339 12.0452 1582 105.868 416.301 443.098
791 0 137.424 11.8902 1634 106.425 417.209 436.005
792 0 140.43 12.2125 1715 106.256 416.849 434.883
793 0 145.365 12.7334 1851 104.79 416.567 435.384
794 0 149.377 12.2442 1829 106.23 416.408 434.94
795 0 155.594 12.9825 2020 104.039 416.58 430.848
796 0 161.379 12.9261 2086 103.598 416.328 431.409
797 0 164.254 12.6085 2071 104.957 416.827 431.327
798 1 92.1212 10.4319 961 93.0437 416.784 470.106
799 0 95.1741 11.0324 1050 91.3305 417.709 472.206
800 0 95.1092 11.5236 1096 92.2135 417.787 470.308
801 0 99.2645 11.968 1188 97.7155 419.231 465.92
802 0 101.063 11.8144 1194 99.7923 417.13 467.536
803 0 102.052 12.3075 1256 101.265 417.083 467.923
804 0 105.304 11.9559 1259 101.14 419.638 465.645
805 0 106.309 11.5324 1226 94.7643 418.835 464.909
806 0 110.267 12.3699 1364 94.1048 418.218 462.078
807 0 112.376 11.5505 1298 94.5871 418.041 457.327
808 0 113.265 11.9278 1351 96.1081 418.234 459.648
809 0 116.115 12.7977 1486 93.2618 417.542 462.555
810 0 119.177 12.2423 1459 94.4668 417.232 458.546
811 0 123.166 12.8119 1578 92.3523 417.32 457.807
812 0 125.136 12.0429 1507 95.3908 416.618 452.956
813 0 130.183 12.9741 1689 92.6116 416.907 451.604
814 0 132.167 12.4312 1643 95.594 417.071 450.914
815 0 135.163 12.6736 1713 94.4448 417.083 450.681
816 0 135.163 12.644 1709 156.352 417.07 450.657
817 0 143.248 12.768 1829 94.6566 417.248 443.933
818 0 147.293 12.9198 1903 93.6169 417.104 443.4
819 0 152.338 13.0959 1995 91.2336 416.302 441.37
820 0 156.257 12.7995 2000 93.183 416.46 440.734
821 0 161.184 13.2458 2135 93.1199 416.594 435.321
822 0 165.361 13.147 2174 92.3114 416 433.489
823 0 169.253 13.2405 2241 93.0919 415.893 432.581
824 0 176.237 13.879 2446 91.722 416.729 431.315
825 0 179.273 13.2981 2384 93.419 416.566 426.378
826 0 183.309 13.2617 2431 92.7421 415.981 426.068
827 0 189.21 12.5839 2381 95.0802 416.058 420.42
828 0 196.213 13.1337 2577 92.0485 415.598 420.54
829 0 198.347 13.2445 2627 92.295 415.349 416.67
830 0 202.428 13.2788 2688 92.5298 415.052 412.808
831 0 208.262 14.1168 2940 89.7908 414.813 411.822
832 0 214.334 13.6889 2934 90.1769 415.004 407.235
833 0 220.453 14.1481 3119 90.613 414.729 405.464
834 0 228.39 14.2169 3247 90.2676 415.076 402.734
835 0 234.597 14.0752 3302 91.5921 415.079 397.49
836 0 236.361 13.2636 3135 94.0494 415.214 389.634
837 0 245.426 13.5845 3334 92.9049 414.829 384.483
838 0 253.472 13.3112 3374 93.3133 414.922 378.528
839 1 181.33 12.0939 2193 92.3461 415.504 415.766
840 0 188.488 11.9954 2261 91.6165 415.302 414.837
841 0 192.377 12.5639 2417 91.3099 414.319 406.415
842 0 198.457 12.8693 2554 90.7807 414.745 404.672
843 0 203.502 12.6731 2579 91.5902 413.949 400.413
844 0 204.402 13.2435 2707 90.4577 414.296 394.065
845 0 208.291 12.9674 2701 90.9274 414.206 391.165
846 0 215.269 13.1046 2821 90.7958 414.331 388.238
847 0 224.3 13.4062 3007 89.3415 414.076 387.554
848 0 230.404 13.2593 3055 89.0848 414.707 384.133
849 0 236.328 13.9298 3292 88.387 414.252 381.527
850 0 245.26 14.4214 3537 86.8405 414.012 375.712
851 0 253.398 14.4752 3668 86.5177 413.562 373.541
852 0 259.325 13.7935 3577 87.1775 413.938 374.928
853 0 262.25 13.4337 3523 89.1504 413.366 366.231
854 0 270.669 14.1169 3821 87.8165 413.381 365.533
855 0 280.371 14.1135 3957 88.5593 413.734 362.672
856 0 291.454 14.1532 4125 88.3505 413.586 356.43
857 0 297.505 14.2182 4230 88.7194 414.094 348.099
858 0 306.526 15.1374 4640 87.3056 413.692 345.711
859 0 308.429 15.0602 4645 87.4827 413.487 335.248
860 0 322.485 16.6457 5368 83.7751 414.216 331.823
861 0 330.563 15.3163 5063 87.9684 414.642 326.143
862 0 341.538 16.7653 5726 85.3943 413.522 317.888
863 0 355.691 15.5922 5546 88.167 413.14 311.325
864 0 369.539 16.1986 5986 85.9567 413.384 308.14
865 1 52.1679 5.75066 300 58.1 417.517 492.017
866 0 45.217 5.19716 235 57.0298 416.162 485.017
867 0 52.1475 4.94751 258 59.6279 415.267 492.337
868 0 56.0451 5.83459 327 60.5291 414.294 491.04
