time division length width area intensity CMx CMy
0 0 60.0954 14.2773 858 137.51 21.6515 493.889
1 0 61.0911 14.6011 892 134.052 21.4742 493.072
2 0 63.023 14.5344 916 130.909 21.6015 493.511
3 0 63.1114 13.9436 880 131.474 21.5648 493.165
4 0 64.1291 14.081 903 127.872 21.0975 492.876
5 0 67.0943 14.0548 943 125.224 21.1357 492.063
6 0 66.0943 14.3431 948 124.738 21.0749 491.228
7 0 68.1787 14.726 1004 124.918 21.1125 491.641
8 0 69.1696 14.862 1028 122.875 21.1479 492.048
9 0 71.1075 14.6679 1043 123.102 20.582 490.84
10 0 73.1207 15.3992 1126 118.208 20.6918 490.515
11 0 76.1262 14.9094 1135 119.48 20.393 489.537
12 0 78.201 14.9998 1173 118.513 19.5439 488.216
13 0 79.1431 15.6931 1242 114.849 19.6369 487.714
14 0 83.0869 14.9843 1245 114.957 19.5197 486.18
15 0 83.1776 15.2685 1270 113.506 19.9118 485.959
16 0 85.1901 15.2835 1302 112.345 19.2657 485.57
17 0 85.1295 15.3648 1308 111.004 18.9801 483.076
18 0 90.1837 15.535 1401 107.283 18.6988 483.902
19 0 91.1184 15.3866 1402 107.016 18.3937 481.305
20 0 93.1759 15.5727 1451 104.646 18.4376 478.95
21 0 95.1146 15.9807 1520 103.12 18.8632 479.047
22 0 98.1685 15.6873 1540 102.139 18.5786 477.275
23 0 102.15 16.2605 1661 99.1686 18.5996 475.789
24 0 103.128 15.0978 1557 101.943 18.3333 474.996
25 0 103.211 14.5721 1504 103.77 18.1769 475.882
26 0 109.203 15.0453 1643 101.439 18.8637 471.86
27 1 55.1248 11.6644 643 110.725 18.6781 496.151
28 0 60.1136 12.8091 770 107.79 17.3753 497.273
29 0 61.1479 13.083 800 108.791 17.4025 498.389
30 0 62.0203 13.4633 835 104.816 18.9497 499.188
31 0 66.1236 13.8075 913 104.249 18.3122 499.483
32 0 68.0658 13.9718 951 102.979 17.8444 499.014
33 0 70.1658 13.4681 945 95.363 17.7852 498.011
34 0 70.1166 13.4062 940 95.9191 17.7745 496.979
35 0 73.1094 13.3362 975 95.0369 17.4492 496.174
36 0 76.1321 13.6867 1042 92.7649 17.905 494.052
37 0 77.0962 13.788 1063 93.2117 17.7281 490.955
38 0 81.0763 13.4811 1093 92.4026 17.807 490.737
39 0 82.1529 13.5236 1111 92.712 17.5743 489.598
40 0 85.1847 13.3944 1141 92.8878 17.6503 488.591
41 0 87.2323 13.1717 1149 92.9835 17.3534 487.729
42 0 89.1465 13.6741 1219 91.9508 17.7121 486.534
43 0 91.2158 13.5174 1233 92.6261 17.1119 483.839
44 0 94.1885 13.4942 1271 92.3997 17.5515 482.978
45 0 97.176 13.3263 1295 86.2 17.329 481.964
46 0 98.2123 13.2061 1297 93.9491 17.6276 481.363
47 0 102.145 13.7941 1409 92.4223 17.1079 478.295
48 0 105.247 13.5681 1428 93.9195 17.2444 478.631
49 0 108.216 12.281 1329 95.7208 17.0346 475.176
50 0 112.141 12.832 1439 93.8513 17.2801 473.451
51 0 116.162 13.8944 1614 91.5675 17.5031 473.202
52 0 119.215 13.9077 1658 92.6236 17.0965 470.609
53 0 125.151 13.9271 1743 93.132 16.9702 466.866
54 0 130.177 14.3497 1868 91.9497 17.5203 464.938
55 0 134.271 13.8154 1855 94.352 17.6943 462.309
56 1 77.2345 12.5074 966 96.6781 18.3634 491.237
57 0 79.1043 13.4885 1067 97.7985 18.3786 488.138
58 0 84.2103 13.775 1160 97.1647 17.6259 486.595
59 0 87.038 14.2926 1244 99.0981 17.7395 484.535
60 0 89.0609 14.4171 1284 98.6861 18.8544 483.609
61 0 92.0525 14.5569 1340 99.3545 18.3657 483.193
62 0 96.0563 14.8767 1429 98.7943 18.6522 482.249
63 0 98.1189 14.4926 1422 101.179 17.4437 480.681
64 0 102.193 15.089 1542 99.3638 17.1654 480.868
65 0 102.039 14.8571 1516 101.998 18.5594 480.118
66 0 106.058 14.8409 1574 103.113 17.7751 476.494
67 0 109.179 15.0579 1644 104.97 17.8394 476.114
68 0 112.199 15.1517 1700 104.044 17.2594 474.601
69 0 114.164 14.1551 1616 97.7426 17.7593 474.869
70 0 115.175 14.0916 1623 98.4707 17.634 472.973
71 0 120.196 14.0521 1689 99.2617 17.3801 471.719
72 0 124.234 13.9092 1728 100.002 17.0104 468.994
73 0 130.331 14.9543 1949 101.047 16.6609 465.631
74 0 135.221 14.6723 1984 105.102 16.7611 463.533
75 0 138.423 14.6363 2026 106.624 16.9176 459.667
76 1 68.1218 12.5364 854 103.501 17.8349 495.999
77 0 69.0741 13.0584 902 98.7228 17.3304 494.476
78 0 72.1288 13.4066 967 101.678 18.1975 493.298
79 0 74.146 13.2846 985 96.8071 17.8518 494.046
80 0 74.0963 12.7537 945 98.0529 18.0423 493.135
81 0 77.0991 13.3854 1032 97.1105 18.25 490.297
82 0 81.1848 13.2907 1079 97.329 18.1826 488.8
83 0 83.2557 13.933 1160 95.1578 18.3216 486.934
84 0 87.078 13.6774 1191 97.3652 18.2955 485.837
85 0 90.1711 14.0732 1269 98.1647 18.2285 483.591
86 0 92.0919 13.8557 1276 98.2343 18.1881 482.759
87 0 94.1272 13.3861 1260 101.648 18.1087 480.292
88 0 100.142 13.7305 1375 99.5258 18.0058 479.095
89 0 104.174 13.9286 1451 99.9759 18.5886 476.92
90 0 107.171 13.8284 1482 100.638 17.7031 474.897
91 0 108.137 13.5106 1461 102.932 18.2382 473.465
92 0 113.132 13.5947 1538 100.293 18.2783 470.789
93 1 60.0559 11.8889 714 95.5322 18.3193 497.817
94 0 64.1049 12.2456 785 94.0127 18.4968 498.432
95 0 64.1554 12.7191 816 94.0931 17.6397 496.699
96 0 65.2086 12.253 799 96.5757 17.1652 495.815
97 0 68.0863 12.8367 874 94.4851 17.2265 495.705
98 0 69.1012 12.8941 891 94.1639 17.1134 495.945
99 0 71.0646 13.2133 939 93.606 17.1321 494.723
100 0 73.1178 12.897 943 94.0286 17.0021 494.227
101 0 76.057 13.1612 1001 93.6543 16.7782 492.209
102 0 77.1722 13.0617 1008 94.5744 17.5585 491.689
103 0 81.0902 13.4542 1091 93.1008 17.2319 490.187
104 0 84.1398 13.7272 1155 92.529 17.3368 488.04
105 0 85.1233 13.4981 1149 94.0383 17.7076 487.016
106 0 87.1022 12.9273 1126 97.0675 17.2522 484.407
107 0 92.0652 13.9684 1286 95.3888 16.9479 482.636
108 0 95.1788 13.3538 1271 97.8969 16.6664 480.548
109 0 98.1964 13.6767 1343 96.7692 17.1854 479.998
110 0 100.205 13.1032 1313 99.1371 18.0175 476.664
111 0 105.258 13.4242 1413 97.3149 16.9901 475.987
112 0 108.306 13.6742 1481 95.7535 17.9683 476.492
113 0 112.257 13.6116 1528 97.0759 18.3534 471.944
114 0 115.3 13.1917 1521 97.6811 18.7383 469.28
115 0 118.332 13.3692 1582 97.6523 18.2332 466.975
116 0 122.287 14.1307 1728 95.6447 17.8241 466.414
117 0 127.321 13.4149 1708 97.9145 17.1604 463.073
118 1 84.2416 12.4167 1046 95.9493 18.9111 487.401
119 0 86.1638 12.395 1068 98.1816 18.5019 486.467
120 0 89.0553 13.5309 1205 95.2954 17.2896 485.102
121 0 89.0529 13.2842 1183 97.0769 16.7261 484.785
122 0 95.1522 13.9881 1331 94.0841 16.6131 483.174
123 0 95.0642 13.3278 1267 98.8863 17.0182 482.262
124 0 98.091 13.202 1295 97.1483 17.0927 480.905
125 0 102.142 13.4518 1374 96.3967 16.9447 479.047
126 0 106.132 14.0486 1491 94.387 16.5158 477.333
127 0 109.145 13.4042 1463 95.3876 16.4306 474.286
128 0 113.075 13.7431 1554 94.2548 16.3668 474.633
129 0 117.125 13.5411 1586 95.7957 16.4445 471.335
130 0 121.137 14.1823 1718 96.3102 16.2055 468.669
131 0 125.078 13.9753 1748 97.3301 16.2283 466.166
132 1 69.0801 12.7823 883 100.627 17.2911 494.379
133 0 71.0658 12.0592 857 102.663 15.8028 493.672
134 0 74.2617 12.5367 931 103.183 17.7207 491.767
135 0 73.1059 12.393 906 102.542 15.6589 491.496
136 0 77.0548 13.3282 1027 100.135 17.2502 489.575
137 0 79.1088 12.8557 1017 100.411 16.0206 488.715
138 0 82.0957 12.6438 1038 100.104 16.3285 487.299
139 0 85.1567 12.8234 1092 99.8388 16.065 487.059
140 0 87.1444 12.6801 1105 99.4181 15.9357 485.319
141 0 87.1558 12.6096 1099 101.05 15.4986 485.419
142 0 89.192 13.0505 1164 101.531 17.457 484.235
143 0 93.3393 12.942 1208 101.497 16.1929 483.468
144 0 96.2566 13.1627 1267 98.7822 15.9116 479.083
145 0 98.2435 12.8762 1265 98.4545 15.5447 479.896
146 0 102.126 12.7294 1300 97.2508 15.2631 477.149
147 0 105.191 13.3757 1407 100.249 17.0817 475.381
148 0 109.146 12.9001 1408 97.2124 15.8558 472.413
149 0 112.159 13.5789 1523 95.782 17.5318 467.54
150 0 115.151 12.0885 1392 98.2701 15.9799 467.99
151 1 60.0741 10.2041 613 92.6803 15.4666 494.739
152 0 65.1056 11.5351 751 94.98 15.4687 498.646
153 0 64.0735 11.1122 712 93.7879 15.3666 496.268
154 0 67.057 11.96 802 86.2506 17.0948 496.203
155 0 69.0674 11.9883 828 87.7029 15.3104 494.541
156 0 72.0782 11.876 856 86.8131 14.7769 492.87
157 0 75.1257 13.0581 981 83.9694 16.9592 492.134
158 0 74.1133 11.4554 849 88.3734 16.0883 492.172
159 0 80.0508 11.9299 955 86.067 16.1445 490.568
160 0 81.0893 12.4061 1006 85.493 16.5616 489.807
161 0 83.103 12.9358 1075 85.0921 15.9088 488.319
162 0 87.0916 12.7911 1114 85.3914 15.5027 486.938
163 0 89.1728 13.614 1214 85.2792 16.9044 485.077
164 0 90.0618 12.1139 1091 88.0852 15.4125 483.134
165 0 94.1464 13.1179 1235 88.3328 16.9093 482.172
166 0 95.1106 12.7115 1209 89.3118 15.0372 479.321
167 0 98.0986 13.3947 1314 99.6256 16.5297 478.382
168 0 100.131 13.0129 1303 100.405 15.6838 475.981
169 0 104.165 12.9218 1346 100.611 17.5267 473.617
170 0 107.128 12.8071 1372 99.9169 16.3455 473.744
171 0 110.115 11.9966 1321 99.1272 18.1529 471.751
172 1 59.0355 10.2819 607 91.5519 17.6227 499.914
173 0 57.0786 11.09 633 88.8452 16.2259 499.256
174 0 61.1415 11.7269 717 85.9358 15.6471 498.092
175 0 62.0683 11.8418 735 97.4313 20.8558 496.763
176 0 64.0489 11.6005 743 96.397 19.0888 495.956
177 0 67.0806 11.2849 757 96.6737 19.4029 495.23
178 0 71.0766 12.5076 889 93.8965 19.5984 494.169
179 0 71.0496 12.3013 874 95.1327 19.8558 493.113
180 0 74.0939 12.4302 921 94.7199 19.1325 492.618
181 0 76.0573 12.1487 924 95.0097 19.0671 492.669
182 0 78.0554 13.4135 1047 93.6409 18.5215 489.858
183 0 80.0492 12.2425 980 96.6704 18.9806 489.045
184 0 83.0374 12.7292 1057 94.6083 18.7824 488.877
185 0 86.092 12.6609 1090 96.1835 18.767 486.691
186 0 89.0876 12.7852 1139 95.9368 18.7199 486.825
187 0 92.0803 12.6629 1166 96.916 18.946 484.204
188 0 93.0584 12.4438 1158 99.9499 18.3713 482.744
189 1 48.0494 10.6141 510 96.6098 18.8118 505.476
190 0 50.0566 10.9876 550 93.9436 18.6982 505.498
191 0 50.0379 11.7511 588 95.318 17.7126 503.577
192 0 52.1097 12.301 641 87.4259 16.3526 504.718
193 0 53.0372 13.0663 693 87.6696 18.7576 504.433
194 0 54.1037 12.014 650 87.7908 17.4815 503.103
195 0 55.0481 12.9705 714 90.5238 19.035 502.604
196 0 57.0793 12.5439 716 88.6383 17.9497 501.932
197 0 59.1332 12.92 764 85.8128 18.4031 500.098
198 0 59.2184 11.8206 700 86.2329 17.1429 499.981
199 0 63.2479 13.1388 831 83.414 18.0241 499.729
200 0 65.2457 13.0124 849 82.0236 18.4664 498.643
201 0 63.2462 12.2537 775 84.2981 16.3419 497.335
202 0 66.2073 12.5817 833 108.181 17.8631 496.789
203 0 68.2158 12.651 863 107.782 16.9038 494.988
204 0 70.1551 13.3704 938 103.514 17.4126 495.471
205 0 72.2348 12.7639 922 101.784 16.2148 492.012
206 0 75.2115 13.3357 1003 101.869 17.2253 493.302
207 0 75.2245 13.3334 1003 102.007 16.6171 492.525
208 0 76.1917 12.9279 985 102.09 16.5909 491.975
209 0 80.2052 13.2784 1065 101.076 17.2732 488.706
210 0 83.1275 12.559 1044 117.806 16.3199 487.629
211 0 85.0932 12.739 1084 117.145 16.0452 487.317
212 0 88.1443 12.4001 1093 118.08 15.6789 486.502
213 0 90.1334 13.0584 1177 116.578 15.4121 484.922
214 0 92.2381 13.0315 1202 118.567 16.3977 483.067
215 0 94.1292 12.7484 1200 114.935 15.9333 483.261
216 0 97.1617 13.9664 1357 112.489 15.8873 480.623
217 1 50.0751 10.1847 510 112.247 13.8941 505.873
218 0 53.0715 11.9273 633 109.72 15.7109 502.924
219 0 54.0408 11.3063 611 107.948 14.1293 502.493
220 0 56.0757 12.9825 728 106.955 15.1497 501.709
221 0 57.0527 12.4622 711 95.9747 17.225 500.959
222 0 60.4608 13.6452 825 99.2679 18.0327 499.884
223 0 59.2308 12.4935 740 97.55 16.6041 497.789
224 0 63.2003 12.3892 783 96.2478 17.9029 498.254
225 0 63.2217 12.2901 777 95.8803 15.7297 495.91
226 0 65.2619 13.0091 849 95.1543 17.4817 494.555
227 0 68.2377 12.1194 827 95.2201 15.8767 494.111
228 0 71.3888 14.2459 1017 92.9587 18.3953 492.548
229 0 73.2008 12.6092 923 94.5666 15.5233 493.688
230 0 75.2197 13.321 1002 95.8433 16.9511 492.241
231 0 77.1088 12.6056 972 95.9342 15.7305 489.571
232 0 80.1428 13.8877 1113 100.323 15.5517 488.884
233 0 83.0939 13.1658 1094 101.524 14.5192 488.388
234 0 85.0788 14.0811 1198 103.725 14.1753 486.711
235 0 87.1354 14.2193 1239 101.665 15.2793 485.26
236 0 91.1831 14.1145 1287 99.8974 14.2875 482.729
237 0 94.2713 14.4371 1361 101.286 15.3828 483.553
238 0 99.2155 14.4131 1430 101.057 15.7014 480.692
239 1 53.1432 11.7607 625 103.805 14.6064 504.314
240 0 52.1251 11.0312 575 104.103 15.5687 503.134
241 0 55.1684 11.9452 659 92.8225 16.0046 503.733
242 0 55.1559 12.8545 709 90.488 16.2877 502.581
243 0 53.1851 11.3942 606 95.3218 16.0149 504.2
244 0 55.1234 12.1546 670 93.7642 16.4239 503.143
245 0 56.0979 11.9256 669 92.9507 15.9626 502.135
246 0 59.2914 11.3507 673 94.896 17.1872 501.547
247 0 60.2507 11.3194 682 94.0909 15.0982 499.393
248 0 60.3236 12.3998 748 95.1591 17.8717 499.324
249 0 63.2077 11.3594 718 93.8064 15.0167 497.287
250 0 64.2257 12.4872 802 94.3042 16.8429 496.853
251 0 66.203 11.8273 783 93.0013 17.1162 496.951
252 0 69.1579 12.3196 852 90.4906 16.9566 496.553
253 0 73.2059 12.3487 904 90.4845 16.8352 494.983
254 0 74.197 12.0086 891 91.5152 16.3143 494.581
255 0 75.1306 11.3402 852 96.2923 15.8345 492.041
256 0 79.0789 12.4812 987 93.4286 15.8967 491.696
257 0 81.1193 12.081 980 97.3816 15.4776 490.426
258 0 84.1876 12.9235 1088 94.4623 14.6976 489.738
259 0 86.2224 12.8389 1107 95.9368 14.7118 488.165
260 0 87.1529 12.6215 1100 96.3891 15.6727 486.715
261 0 91.2568 12.0429 1099 98.4158 13.9873 484.805
262 0 94.5306 13.3079 1258 99.1359 15.7822 482.083
263 0 97.2732 12.7168 1237 98.017 13.7551 482.031
264 1 50.4157 10.8895 549 101.16 15.5228 505.362
265 0 48.2747 10.6681 515 98.9495 14.2971 505.264
266 0 51.405 11.5942 596 98.2332 15.844 504.743
267 0 53.5147 11.7725 630 98.7222 14.7365 501.387
268 0 53.6799 13.3011 714 99.9356 15.9902 499.639
269 0 56.5115 13.3601 755 93.6755 15.6119 500.217
270 0 58.2936 12.8145 747 91.6238 13.8246 499.493
271 0 59.3957 13.2165 785 91.4484 16.9248 499.499
272 0 62.2202 12.954 806 89.9553 15.8772 499.232
273 0 63.3459 13.4973 855 91.9719 16.3251 498.316
274 0 63.2934 13.4769 853 92.9132 16.0703 497.431
275 0 64.115 13.0547 837 92.6296 15.4516 496.974
276 0 68.2072 13.6203 929 94.2314 16.253 496.552
277 0 70.156 13.5555 951 83.5647 16.4511 496.403
278 0 72.31 14.3963 1041 92.4169 16.2603 493.928
279 0 73.3513 13.9602 1024 95.6729 17.292 494.399
280 0 75.2987 13.3336 1004 98.258 15.3287 492.392
281 0 77.3586 13.8058 1068 102.321 16.2369 489.942
282 0 79.206 13.5343 1072 101.012 16.0728 490.153
283 0 81.1745 13.8837 1127 101.597 16.0994 488.961
284 0 84.2547 13.7203 1156 102.631 16.5969 487.543
285 0 85.1737 13.7366 1170 103.621 15.7308 486.601
286 0 87.3532 13.7946 1205 106.788 16.6274 486.715
287 0 90.1488 12.6014 1136 107.38 14.7069 485.17
288 1 45.0693 11.7375 529 111.669 18.3743 507.758
289 0 45.0292 11.1483 502 111.516 16.743 506.785
290 0 49.0441 12.5193 614 106.889 17.9756 505.384
291 0 49.1142 12.4404 611 107.403 16.581 505.319
292 0 51.2134 13.0435 668 106.398 17.5808 504.003
293 0 54.2538 13.5659 736 109.048 16.3234 504.478
294 0 52.1474 12.6181 658 109.038 16.0213 503.945
295 0 52.1474 12.5605 655 145.235 16.0168 503.98
296 0 54.1752 12.5519 680 108.971 16.0235 503.3
297 0 56.3407 13.0811 737 110.621 16.9864 502.562
298 0 58.1496 12.5366 729 108.79 14.9081 501.953
299 0 58.3867 13.6332 796 111.3 16.7362 501.891
300 0 61.1813 13.4682 824 109.928 16.693 501.231
301 0 64.2445 12.9972 835 111.588 16.4515 498.829
302 0 66.2264 13.4991 894 111.718 15.5123 498.633
303 0 66.3462 13.731 911 115.459 16.6224 498.374
304 0 66.3462 13.7913 915 151.823 16.6197 498.267
305 0 72.1821 14.505 1047 111.464 15.2512 495.725
306 0 72.2479 13.9658 1009 113.044 16.4876 494.695
307 0 74.2105 12.6532 939 116.902 14.6539 494.243
308 0 75.2808 14.2134 1070 116.703 16.5879 493.89
309 0 78.1298 13.4904 1054 115.553 16.7922 492.994
310 0 80.1571 14.2096 1139 113.569 15.5593 492.378
311 0 84.1314 14.406 1212 112.777 15.6683 490.954
312 0 85.1459 13.9408 1187 115.078 15.658 489.437
313 0 85.0947 13.5731 1155 117.104 15.0961 489.007
314 0 87.1159 13.8322 1205 116.324 14.1037 488.094
315 0 91.185 14.2129 1296 117.497 15.615 485.885
316 0 95.1491 14.0096 1333 113.32 15.9272 483.802
317 0 96.2635 13.6396 1313 115.335 14.9749 484.596
318 0 97.3918 13.4406 1309 111.835 15.2956 479.879
319 0 100.331 13.3657 1341 113.794 15.0872 479.048
320 0 103.309 13.2806 1372 112.612 15.1305 477.227
321 1 54.1365 10.3996 563 104.821 15.1385 499.302
322 0 57.0725 11.2313 641 102.602 14.8861 500.02
323 0 60.1264 12.4072 746 99.7172 14.992 499.948
324 0 60.271 11.7635 709 100.756 15.1241 498.492
325 0 61.0895 12.539 766 102.043 15.0444 498.508
326 0 65.1562 12.1861 794 101.722 14.8249 499.942
327 0 67.0718 13.5974 912 98.6743 15.1743 498.753
328 0 71.0894 12.7023 903 97.2868 14.7929 498.522
329 0 73.0492 13.2924 971 97.139 15.4192 497.499
330 0 75.0617 11.777 884 99.9785 14.7658 496.437
331 0 76.0484 13.899 1057 100.402 15.2441 495.677
332 0 78.1112 13.6856 1069 101.924 14.2067 493.325
333 0 82.1331 14.306 1175 101.134 15.2323 493.129
334 0 84.1684 13.5799 1143 102.648 14.196 490.678
335 0 85.239 13.7965 1176 105.448 14.4762 488.058
336 0 88.3669 12.5613 1110 106.509 12.9243 485.373
337 0 90.2276 13.6987 1236 105.227 13.9862 484.098
338 0 95.394 13.2503 1264 103.087 13.0483 482.954
339 0 97.3976 12.7416 1241 105.479 12.7413 480.624
340 0 101.202 12.9543 1311 103.39 12.4088 481.756
341 1 58.1832 13.3887 779 95.5584 14.0668 505.321
342 0 58.1739 11.775 685 99.4102 12.3912 502.731
343 0 57.0865 11.2286 641 99.6193 12.8315 499.014
344 0 59.1895 12.6205 747 99.1714 13.1339 498.589
345 0 63.2423 12.9344 818 95.9279 14.2861 502.416
346 0 64.3266 12.4365 800 98.1312 13.9625 500.998
347 0 68.3234 13.0117 889 101.987 13.378 499.497
348 0 70.2359 14.2093 998 101.882 13.4289 498.211
349 0 71.3146 13.812 985 104.16 13.334 496.635
350 0 76.2831 13.7383 1048 105.595 13.5029 497.422
351 0 79.197 14.4197 1142 105.386 13.5236 496.846
352 0 79.2775 14.7583 1170 105.793 13.6376 495.85
353 0 83.2406 14.3199 1192 106.47 13.9832 493.391
354 0 86.322 14.666 1266 103.768 13.8555 493.135
355 0 86.2608 14.7808 1275 103.724 13.3137 490.579
356 0 88.3323 13.3926 1183 106.901 12.2232 490.755
357 0 93.2744 14.8165 1382 107.593 13.5789 489.446
358 0 96.2209 14.0614 1353 106.247 12.9453 486.347
359 0 98.5455 13.2426 1305 108.324 12.81 484.377
360 0 99.2774 14.5048 1440 107.324 13.4549 483.484
361 0 102.311 15.0423 1539 106.183 13.6855 482.231
362 0 107.338 15.2975 1642 102.865 14.0037 479.938
363 0 109.45 14.0338 1536 103.104 13.5605 479.113
364 1 61.0832 12.8022 782 95.0499 14.2327 505.033
365 0 61.2872 12.8412 787 95.0076 13.7929 503.377
366 0 64.1817 14.0694 903 94.9513 15.3422 502.032
367 0 64.2103 12.1476 780 94.8513 14.4167 502.365
368 0 67.134 12.8251 861 93.0348 14.1754 500.216
369 0 69.2851 13.5527 939 92.1757 13.656 500.392
370 0 70.097 12.6539 887 94.3472 12.6629 498.744
371 0 73.1423 13.0841 957 93.9195 12.698 497.85
372 0 76.1063 13.3892 1019 96.0707 12.8479 495.946
373 0 77.141 13.0022 1003 96.4437 13.4586 495.784
374 0 78.1939 12.5585 982 97.5071 12.4888 492.666
375 0 83.1754 12.9606 1078 98.6076 12.859 491.933
376 0 85.3203 13.0567 1114 98.5449 12.8654 491.206
377 0 89.1209 13.9025 1239 97.6005 13.6941 490.484
378 0 90.1353 12.6698 1142 100.982 12.8897 490.423
379 0 94.239 13.7841 1299 103.22 14.5651 487.519
380 0 96.1351 12.8777 1238 104.775 14.4879 485.899
381 0 100.188 13.5745 1360 103.311 14.4301 485.162
382 1 52.0638 12.6383 658 98.2903 14.652 507.842
383 0 54.0708 11.5589 625 100.546 14.2368 506.757
384 0 54.1106 13.3615 723 99.8133 14.7206 506.118
385 0 55.137 12.5868 694 100.246 13.683 505.267
386 0 57.1844 12.7657 730 100.934 14.2329 504.241
387 0 57.1698 12.6465 723 101.846 13.5505 503.169
388 0 60.1079 13.5922 817 100.799 14.1432 500.506
389 0 61.085 12.2452 748 103.344 13.3075 500.305
390 0 63.2994 14.5657 922 99.9805 14.7213 498.822
391 0 65.1304 13.2964 866 99.8395 13.53 498.161
392 0 65.2954 14.8709 971 100.904 15.344 495.993
393 0 68.1433 13.1047 893 103.614 14.308 496.53
394 0 70.2818 14.2711 1003 102.41 14.3898 495.041
395 0 72.2204 14.4281 1042 102.968 14.8829 493.89
396 0 76.1458 13.2246 1007 99.5144 15.0109 491.212
397 0 77.0785 13.6614 1053 101.79 15.641 490.291
398 0 81.2706 14.2487 1158 101.001 16.1399 491.972
399 0 82.1867 14.2845 1174 103.5 15.5784 491.792
400 0 85.2131 13.9533 1189 104.471 15.0681 487.512
401 0 87.1771 14.6025 1273 103.498 14.7251 486.314
402 0 90.0636 15.4669 1393 104.957 16.15 485.513
403 0 92.0714 13.3701 1231 109.974 14.3209 483.607
404 0 95.1913 14.6862 1398 113.26 16.5923 483.349
405 0 96.2162 13.9478 1342 110.64 15.6453 484.148
406 0 100.481 13.7836 1385 115.892 15.8462 483.044
407 0 103.477 13.7615 1424 112.067 15.1313 480.524
408 0 104.741 13.7005 1435 117.634 16.0077 477.647
409 0 107.544 14.1338 1520 112.53 14.6342 476.086
410 0 112.788 14.4519 1630 112.194 14.8804 474.98
411 0 113.702 14.4325 1641 112.862 16.0079 473.984
412 0 118.511 14.4628 1714 107.658 14.4341 473.379
413 0 121.653 14.5003 1764 108.257 13.9875 468.412
414 0 126.764 15.517 1967 106.241 15.5486 466.691
415 0 132.729 14.7443 1957 108.127 14.5304 464.645
416 1 70.602 12.2093 862 105.693 15.3341 495.323
417 0 71.596 13.0594 935 104.195 15.3658 493.292
418 0 74.6139 13.4157 1001 104.189 14.8162 491.961
419 0 78.4028 13.1118 1028 103.048 14.2023 491.003
420 0 78.6224 14.5633 1145 104.883 15.8664 489.575
421 0 82.5607 13.1661 1087 102.319 14.8694 488.495
422 0 85.5621 13.3237 1140 102.514 14.4561 486.876
423 0 86.8952 13.2343 1150 104.604 14.8991 486.273
424 0 88.7752 13.7651 1222 106.003 15.2324 483.16
425 0 91.5109 13.6049 1245 106.929 14.5888 482.016
426 0 94.8886 14.3958 1366 105.313 14.5417 481.163
427 0 95.807 14.4457 1384 107.542 13.9473 480.728
428 0 98.751 14.3492 1417 108.79 14.3232 477.941
429 0 101.724 14.5 1475 107.023 13.339 477.818
430 0 104.788 14.849 1556 107.026 14.2108 477.318
431 0 108.726 14.9366 1624 106.347 14.9809 474.784
432 0 110.624 14.9606 1655 105.521 13.2109 473.755
433 0 112.679 15.2113 1714 109.383 14.9632 472.218
434 0 116.869 15.034 1757 107.99 14.1548 470.583
435 0 120.731 15.1659 1831 106.631 13.7739 468.203
436 0 124.706 16.3344 2037 104.378 14.0918 466.27
437 0 129.653 15.7651 2044 104.528 14.7676 464.74
438 0 133.599 15.4717 2067 104.049 13.8045 462.405
439 0 136.63 15.7872 2157 105.946 14.4483 459.888
440 0 141.715 14.4445 2047 106.731 13.8422 459.983
441 0 144.524 15.6929 2268 106.273 14.7257 457.306
442 0 151.514 15.0349 2278 104.024 14.7656 455.813
443 1 81.4807 12.236 997 99.4152 15.2327 489.341
444 0 82.4319 13.2837 1095 99.9963 15.8502 488.489
445 0 86.4085 12.6029 1089 100.538 14.5657 488.118
446 0 89.3341 13.2872 1187 102.259 15.6066 486.658
447 0 92.383 12.9786 1199 103.415 14.6339 484.206
448 0 94.2859 13.5015 1273 104.061 15.6284 482.986
449 0 98.3709 12.8087 1260 103.244 15.2635 483.067
450 0 98.2855 13.6439 1341 104.418 16.0507 481.179
451 1 55.2884 11.6118 642 102.869 16.5218 504.15
452 0 58.1457 12.2795 714 102.336 16.8081 502.319
453 0 57.1804 12.172 696 102.144 16.4224 498.966
454 0 58.3749 11.4775 670 91.403 15.4552 501.006
455 0 61.3168 12.0032 736 92.7527 15.5408 502.702
456 0 60.1953 11.7949 710 96.3465 14.907 501.731
457 0 62.2618 12.3993 772 96.5311 15.7746 500.316
458 0 65.3181 12.2784 802 97.1035 15.384 500.569
459 0 63.2183 12.8602 813 100.001 16.3235 498.792
460 0 67.2535 11.9696 805 98.3242 15.795 497.529
461 0 70.2247 12.1752 855 96.7614 15.4269 495.816
462 0 72.2131 12.9478 935 95.8406 16.4021 494.505
463 0 73.2011 11.3933 834 96.223 14.9856 493.47
464 0 76.2195 12.9757 989 96.7947 16.183 491.425
465 0 79.2453 12.291 974 97.5062 15.1786 492.252
466 0 81.2335 12.9011 1048 98.8588 16.2137 489.346
467 0 83.305 12.5083 1042 98.6564 15.6852 488.455
468 0 86.2517 13.391 1155 97.5784 16.1515 486.281
469 0 89.3551 12.7805 1142 98.6664 15.1305 484.515
470 1 49.0238 11.8106 579 96.9344 16.544 505.582
471 0 51.1715 10.9827 562 95.4893 16.3363 505.084
472 0 50.166 12.4985 627 91.2919 14.9761 504.325
473 0 51.2394 12.7441 653 88.7795 14.2848 504.579
474 0 51.2517 11.3752 583 93.4391 14.5918 505.554
475 0 51.2208 11.9483 612 95.1585 15.4297 503.948
476 0 54.1363 11.822 640 94.1094 15.3656 503.5
477 0 56.2334 12.537 705 92.7333 15.1574 501.577
478 0 57.2002 13.6013 778 91.0784 15.0694 501.365
479 0 58.2623 13.4907 786 91.1272 14.5712 500.922
480 0 60.3279 12.2 736 93.3981 14.8628 500.602
481 0 60.3481 13.1404 793 93.9142 14.6482 497.575
482 0 62.344 12.8481 801 94.9838 14.1311 497.669
483 0 66.2973 13.3037 882 95.2234 14.6372 497.311
484 0 66.4171 13.2647 881 97.8502 14.3939 497.419
485 0 68.2928 13.5446 925 97.9805 14.0314 495.515
486 0 72.3802 14.0232 1015 98.8798 14.5064 494.968
487 0 72.3758 14.0517 1017 99.2448 14.6627 494.49
488 0 75.3781 13.6777 1031 98.969 13.903 494.713
489 0 77.3376 13.8742 1073 101.543 13.9963 491.474
490 0 79.3629 14.2384 1130 101.82 14.569 491.308
491 0 82.3278 14.9403 1230 100.659 15.2146 489.722
492 0 83.3838 14.1874 1183 101.307 14.3221 489.961
493 0 87.3563 15.4768 1352 103.555 13.892 488.269
494 0 90.4379 15.2923 1383 104.022 14.7101 487.952
495 0 93.4011 15.6743 1464 105.709 14.6216 485.402
496 0 95.4617 14.9484 1427 107.755 15.1661 483.032
497 0 95.3309 14.3395 1367 109.195 13.9605 482.232
498 0 100.534 15.2187 1530 108.678 14.9281 480.598
499 0 102.318 14.5819 1492 109.668 14.0643 480.666
500 0 105.469 15.398 1624 108.094 13.936 479.465
501 0 108.448 14.9841 1625 105.809 14.3268 477.619
502 0 109.584 14.7101 1612 107.683 14.1024 476.602
503 0 115.577 15.2279 1760 107.713 14.3102 475.239
504 0 117.48 15.3217 1800 108.261 14.3639 471.463
505 0 123.498 14.1784 1751 109.925 13.4535 470.541
506 0 128.538 15.2095 1955 105.815 13.9934 469.048
507 1 72.3754 13.0293 943 99.2089 14.3807 496.607
508 0 75.4662 14.9338 1127 98.5909 15.2591 495.847
509 0 76.3582 14.0391 1072 100.063 13.8172 494.688
510 0 77.2622 13.9525 1078 95.6948 13.91 493.294
511 0 80.2254 13.6864 1098 96.4372 12.8042 491.726
512 0 81.2356 14.1194 1147 98.3156 14.7446 490.296
513 0 84.1409 13.2991 1119 96.5228 13.1466 489.261
514 0 87.2536 14.9908 1308 96.3891 14.5046 490.164
515 0 90.2944 14.7074 1328 95.5339 14.061 489.382
516 0 92.2471 13.5506 1250 98.1096 13.4664 486.244
517 0 94.2191 14.3601 1353 99.813 13.473 485.483
518 0 96.1885 13.5775 1306 103.176 12.6187 483.924
519 0 100.151 14.2285 1425 102.327 12.7158 483.526
520 0 101.106 14.0941 1425 102.366 13.5839 481.288
521 0 105.14 14.495 1524 100.184 13.6266 479.664
522 0 107.168 14.4633 1550 100.144 13.549 479.143
523 0 111.223 14.7811 1644 99.5377 13.6302 477.36
524 0 114.433 14.4102 1649 99.1595 13.1049 476.12
525 1 63.295 12.892 816 90.3799 13.7598 502.886
526 0 65.4942 12.8561 842 92.7138 12.88 500.002
527 0 67.3931 14.4525 974 88.771 13.7577 500.966
528 0 69.2209 13.2475 917 92.0055 13.639 500.899
529 0 71.1493 13.1273 934 90.9839 11.9679 499.101
530 0 72.3115 14.1471 1023 91.6764 13.5503 497.651
531 0 76.2549 15.2908 1166 94.6046 13.4871 498.521
532 0 77.5577 15.0984 1171 97.7652 14.0632 497.147
533 0 80.7159 15.4864 1250 97.736 13.1544 494.95
534 0 79.3763 15.0423 1194 100.972 13.1516 493.576
535 0 84.6687 15.6965 1329 105.114 13.4221 494.163
536 0 87.7225 16.1988 1421 102.626 14.7628 493.658
537 0 89.7486 14.574 1308 106.407 13.8708 491.814
538 0 92.5233 15.3799 1423 106.643 13.279 489.322
539 0 93.3506 15.5971 1456 95.7452 13.4519 489.51
540 0 93.3506 15.715 1467 154.536 13.4349 489.485
541 0 99.5787 14.4107 1435 105.427 11.5247 486.746
542 0 103.458 15.1462 1567 104.99 13.1551 484.883
543 0 104.33 13.8024 1440 102.802 12.116 481.417
544 0 107.394 13.7717 1479 102.531 11.2867 477.43
545 0 110.373 14.46 1596 102.58 12.0132 476.221
546 0 113.464 15.0973 1713 101.277 12.5954 475.742
547 0 118.421 15.1324 1792 106.389 11.6027 476.248
548 0 121.465 15.6671 1903 105.92 11.97 472.132
549 0 126.371 15.2329 1925 101.42 12.133 468.369
550 0 129.791 15.1321 1964 100.517 12.4333 467.7
551 1 77.424 13.355 1034 97.5164 13.1277 496.996
552 0 79.2283 13.8334 1096 94.8531 13.4608 496.102
553 0 82.3257 13.5438 1115 101.265 13.2655 494.846
554 0 85.1511 12.9182 1100 89.7182 12.0927 492.622
555 0 86.2084 13.8154 1191 90.7229 11.9647 493.075
556 0 90.5042 14.1982 1285 93.6623 12.47 491.094
557 0 93.4294 15.5626 1454 92.4223 12.2448 490.026
558 0 95.4438 14.6998 1403 97.4733 12.077 488.112
559 0 98.6562 14.3123 1412 96.4441 11.8343 487.314
560 0 100.725 14.6637 1477 94.4313 12.262 488.351
561 0 103.816 13.5239 1404 96.5228 11.4551 485.081
562 0 107.572 14.2881 1537 96.2707 11.8562 483.133
563 0 111.645 14.967 1671 97.9431 12.2382 480.688
564 0 113.829 13.6082 1549 99.5442 12.2189 477.363
565 0 117.747 13.529 1593 99.9297 12.0559 476.723
566 0 122.018 14.0143 1710 101.652 13.0971 473.754
567 0 124.822 13.4031 1673 101.357 12.3431 472.861
568 0 128.873 13.8586 1786 101.244 11.7525 469.378
569 0 131.913 14.3049 1887 102.937 12.7727 469.396
570 0 137.035 14.208 1947 101.65 11.7504 468.006
571 0 138.814 15.0633 2091 101.782 13.1526 466.864
572 0 141.789 13.6399 1934 103.302 12.0196 464.937
573 0 146.601 14.9589 2193 103.39 12.4451 461.69
574 0 148.98 13.928 2075 107.305 12.3446 459.645
575 0 153.811 15.246 2345 104.931 13.2367 458.5
576 0 159.734 15.2629 2438 102.749 11.6792 457.287
577 0 162.594 15.4126 2506 105.385 12.2757 454.038
578 0 167.726 15.9129 2669 106.196 11.8981 450.655
579 0 171.622 15.7498 2703 109.907 12.7248 448.607
580 0 176.782 15.6125 2760 109.357 12.0312 446.301
581 0 183.689 15.3357 2817 109.34 11.3635 445.211
582 0 187.854 15.7516 2959 110.227 11.9108 442.474
583 0 192.72 16.6874 3216 108.183 11.4033 437.956
584 0 198.908 16.118 3206 111.077 11.4772 434.233
585 0 204.803 16.0496 3287 110.978 11.098 431.623
586 0 211.011 16.7243 3529 110.18 10.7291 428.218
587 0 217.609 17.2787 3760 108.352 10.3771 423.433
588 0 236.935 22.4872 5328 92.2275 12.2164 411.29
589 0 226.752 18.4695 4188 105.272 11.2997 419.365
590 0 232.395 14.8712 3456 105.348 8.8287 416.148
591 0 239.367 14.835 3551 106.577 9.46663 412.335
592 0 246.256 15.7072 3868 102.091 8.82472 410.385
593 1 54.0455 10.4727 566 101.883 8.71555 509.085
594 0 56.0868 14.6024 819 101.476 11.6325 507.752
595 0 58.1409 13.5877 790 98.8241 10.6241 507.986
596 0 57.0946 13.4864 770 90.6013 12.1455 510.094
597 0 58.1129 13.6975 796 89.9585 12.6269 509.491
598 0 60.0665 12.6193 758 90.5858 11.5356 508.859
599 0 62.0892 14.0765 874 88.1682 12.2517 507.294
600 0 63.1035 12.6934 801 90.7366 12.0849 507.025
601 0 65.2481 13.4717 879 90.2321 12.5392 505.474
602 0 67.1855 13.8869 933 89.5648 12.5252 503.893
603 0 69.1552 13.2311 915 90.2667 13.5005 503.364
604 0 72.2169 13.1271 948 90.9124 12.2806 502.079
605 0 75.1171 15.1896 1141 89.1446 13.4785 500.962
606 0 75.1731 14.2604 1072 90.6203 13.0653 499.284
607 0 77.2983 13.9977 1082 92.2717 13.2163 498.259
608 0 85.1047 16.8968 1438 84.9701 10.8331 490.88
609 0 83.1139 14.8712 1236 92.1392 12.3875 494.963
610 0 86.3043 14.0897 1216 89.7961 12.4474 492.66
611 0 88.1274 15.3641 1354 91.7718 11.5916 492.208
612 0 90.1251 15.6227 1408 91.0874 10.8572 491.681
613 0 93.2032 15.3536 1431 92.58 10.5339 491.173
614 0 94.0889 14.5288 1367 95.9941 10.5567 488.865
615 1 49.0933 11.8346 581 99.9914 10.8141 511.833
616 0 52.0582 13.6194 709 95.2186 10.5642 510.439
617 0 50.1573 13.0988 657 96.6819 10.5129 510.02
618 0 52.4475 14.0903 739 93.2016 11.8809 506.907
619 0 55.4185 13.786 764 93.1204 11.4725 503.27
620 0 57.3125 14.7437 845 86.5361 14.2817 504.903
621 0 60.228 13.947 840 98.2667 14.7524 505.769
622 0 61.1419 14.311 875 97.3337 14.1954 506.147
623 0 60.2057 14.5003 873 99.2944 14.4021 505.567
624 0 63.0864 15.2172 960 97.676 14.125 503.122
625 0 64.0963 14.9151 956 99.0146 13.1255 503.38
626 0 66.1322 14.6071 966 99.8654 14.089 502.205
627 0 68.3379 14.9551 1022 96.6918 13.2231 501.895
628 0 68.1274 15.7939 1076 96.7835 14.5623 502.036
629 0 71.3041 16.2824 1161 95.764 14.4393 498.694
630 0 72.1574 15.3692 1109 96.8674 14.3417 497.569
631 0 75.1587 16.3121 1226 93.3483 13.3344 497.8
632 0 76.1411 16.1411 1229 95.3352 14.5248 496.586
633 0 77.12 15.2101 1173 97.0631 13.9224 496.201
634 0 81.2196 15.9198 1293 96.7425 14.5955 494.234
635 0 82.1034 14.9933 1231 98.0317 14.1422 492.389
636 0 86.0908 15.9599 1374 95.7511 14.6339 491.908
637 0 86.132 16.3238 1406 96.724 14.2155 490.427
638 0 87.0581 16.0812 1400 98.7493 13.5207 489.636
639 0 92.1507 16.8745 1555 96.3929 15.2772 486.982
640 0 93.2338 14.9838 1397 99.1152 13.0537 486.858
641 0 96.117 16.1782 1555 99.1299 13.7569 485.544
642 0 100.328 15.868 1592 98.6231 12.6602 485.121
643 0 99.2306 15.1566 1504 95.9794 12.369 486.028
644 0 100.164 15.265 1529 98.3296 11.5167 481.266
645 0 103.328 15.4073 1592 98.777 12.4221 479.67
646 0 106.255 15.9804 1698 98.3734 12.4658 478.353
647 0 111.366 16.4682 1834 96.7606 12.5147 476.821
648 0 114.219 15.5141 1772 97.4577 12.9887 477.41
649 0 117.27 15.2554 1789 98.5092 12.9234 472.483
650 1 61.0286 13.3872 817 100.947 12.896 501.928
651 0 65.1297 13.6958 892 99.935 11.6928 499.944
652 0 65.2267 14.4419 942 99.3684 12.3291 498.742
653 0 66.1825 13.4326 889 94.5591 12.6479 493.119
654 0 68.2459 14.2866 975 93.6431 13.0728 493.444
655 0 70.1509 14.5543 1021 89.8306 12.8335 494.301
656 0 72.1483 14.2346 1027 93.5959 13.1373 491.666
657 0 74.2061 14.6619 1088 93.5404 12.8281 490.483
658 0 77.1954 14.3791 1110 95.6027 13.509 488.544
659 0 79.1727 15.7883 1250 94.204 13.7608 488.849
660 0 80.2111 14.2374 1142 98.6025 13.5385 488.805
661 0 80.2534 14.0181 1125 100.144 13.3236 486.426
662 0 84.2956 15.4219 1300 98.9631 14.0277 484.794
663 0 86.3002 14.3684 1240 101.299 12.5944 483.02
664 0 87.2336 14.765 1288 103.873 13.2826 483.089
665 0 90.2406 14.5389 1312 104.629 12.7569 481.964
666 0 93.1744 14.2743 1330 105.835 12.8857 480.173
667 0 96.3549 14.5192 1399 110.494 12.8492 480.848
668 0 100.288 14.4484 1449 108.268 13.2243 476.23
669 0 104.382 14.1499 1477 106.036 12.5085 472.979
670 1 58.3271 12.2927 717 96.1939 13.7448 498.346
671 0 59.2364 12.9819 769 94.8166 13.7191 496.325
672 0 62.1203 14.2143 883 90.8199 14.5142 495.873
673 0 61.2139 11.4843 703 96.3841 13.4623 496.464
674 0 66.3872 13.828 918 100.522 14.5174 499.599
675 0 70.2734 13.5186 950 99.9053 14.6432 498.613
676 0 72.2977 14.0807 1018 99.5363 14.444 498.225
677 0 72.3002 13.9695 1010 101.2 14.3436 494.492
678 0 76.4003 13.5602 1036 100.83 13.9237 494.644
679 0 76.3697 14.3774 1098 103.253 14.6193 493.683
680 0 79.4705 13.5522 1077 102.309 13.6602 491.334
681 0 82.4236 13.8674 1143 102.507 14.224 491.339
682 0 84.2603 13.9449 1175 103.588 14.1677 489.677
683 0 87.3409 15.3651 1342 107.829 13.0529 490.404
684 0 89.0715 14.741 1313 110.673 13.358 489.292
685 0 91.259 15.0999 1378 110.178 16 487.638
686 0 94.1436 13.5644 1277 111.712 14.4354 487.024
687 0 98.225 15.7801 1550 109.959 16.0284 485.746
688 0 99.2322 13.7455 1364 112.241 14.1056 482.981
689 1 58.18 13.3551 777 111.422 15.1454 504.45
690 0 60.1314 13.0049 782 110.725 14.1714 504.6
691 0 59.2278 11.1603 661 106.93 14.7595 492.961
692 0 60.1049 11.6962 703 95.1593 15.293 497.404
693 0 64.3395 12.6516 814 101.338 15.0369 504.131
694 0 66.3009 13.8158 916 102.796 15.5076 501.908
695 0 67.2709 12.9328 870 104.632 15.0874 499.041
696 0 69.1497 13.7817 953 101.993 15.1459 499.254
697 0 71.3559 13.0473 931 103.803 14.4876 499.712
698 0 72.406 13.7834 998 104.821 15.1273 498.793
699 0 76.3117 13.5104 1031 106.356 14.0456 497.929
700 0 80.3669 15.5785 1252 106.165 15.5615 495.619
701 0 80.3844 13.7589 1106 110.232 14.3092 496.958
702 0 82.4405 13.9737 1152 111.668 13.8003 494.668
703 0 84.3531 14.8068 1249 112.686 14.775 492.85
704 0 86.5106 14.0676 1217 114.073 13.968 492.152
705 0 90.5581 15.1284 1370 113.995 14.0416 491.484
706 0 95.4009 15.2934 1459 113.422 14.1563 491.72
707 0 94.3544 15.5584 1468 115 14.2262 489.71
708 0 99.3355 15.7648 1566 115.369 14.099 489.215
709 0 101.668 16.1112 1638 114.952 14.2094 487.293
710 0 103.604 15.8874 1646 117.851 13.9623 483.015
711 0 104.572 14.9754 1566 119.304 13.09 482.674
712 0 107.525 15.029 1616 118.118 13.2964 479.204
713 0 110.563 15.0412 1663 120.008 12.8497 478.219
714 0 113.59 14.79 1680 121.674 13.0435 472.917
715 0 116.69 14.6628 1711 122.638 12.5652 473.441
716 0 120.602 16.0777 1939 119.993 14.3332 473.882
717 0 125.61 13.9719 1755 123.027 12.2877 469.307
718 0 125.462 15.3752 1929 120.906 13.2188 459.664
719 0 130.472 15.7045 2049 118.61 13.4309 458.714
720 0 134.488 14.2912 1922 122.188 12.5848 454.263
721 1 54.314 11.949 649 104.376 13.2512 496.55
722 0 57.1242 12.289 702 103.964 13.0413 497.691
723 0 57.3182 13.05 748 100.979 13.0307 505.725
724 0 59.3245 12.2041 724 103.033 12.0608 505.631
725 0 60.388 13.761 831 112.854 14.6101 509.698
726 0 63.2555 14.3229 906 113.061 14.5872 508.444
727 0 66.1103 13.9615 923 115.992 14.6295 506.83
728 0 68.274 13.7534 939 117.948 14.2993 505.275
729 0 70.2551 13.8638 974 117.523 13.4446 505.716
730 0 71.2852 14.5332 1036 120.473 14.0261 503.662
731 0 74.3434 14.2851 1062 122.56 13.2458 503.052
732 0 75.3671 14.0114 1056 123.344 13.625 501.83
733 0 77.2477 13.8774 1072 121.502 13.4618 501.085
734 0 79.2369 14.0086 1110 123.092 13.0315 498.995
735 0 84.0851 14.5567 1224 120.097 12.1389 496.695
736 1 43.0449 13.1026 564 123.353 12.6613 514.73
737 0 46.1123 13.7924 636 121.365 12.5535 514.343
738 0 48.1001 14.4075 693 123.139 12.0418 513.251
739 0 48.1253 13.548 652 125.268 11.8558 513.59
740 0 46.0377 13.9668 643 114.504 13.8274 515.423
741 0 49.0916 13.2405 650 116.875 13.2723 513.745
742 0 49.3197 13.9498 688 114.788 14.548 512.445
743 0 50.102 13.5524 679 116.677 14.5714 512.602
744 0 51.1696 14.1295 723 115.788 14.704 511.978
745 0 54.0998 14.1221 764 114.804 14.1414 511.302
746 0 55.1984 14.5475 803 113.888 14.8717 510.356
747 0 56.15 14.5147 815 115.445 14.3239 510.215
748 0 56.1753 14.7396 828 116.243 15.4505 509.703
749 0 57.1281 13.636 779 116.475 14.4519 509.003
750 0 60.1378 13.6187 819 117.304 14.2283 508.06
751 0 62.1775 14.0726 875 115.359 15.2903 506.52
752 0 62.147 12.9692 806 117.388 13.8313 504.2
753 0 63.174 14.468 914 116.55 15.1969 503.015
754 0 66.2167 13.6219 902 115.879 14.0333 502.055
755 0 71.2307 16.257 1158 109.115 14.8981 499.813
756 0 72.1753 14.8804 1074 110.644 14.2291 498.636
757 0 74.288 15.4399 1147 108.739 14.5972 497.865
758 0 78.2443 15.311 1198 109.194 14.6845 496.684
759 0 79.3817 14.6633 1164 111.418 14.2689 496.68
760 0 82.2377 15.0053 1234 109.564 14.1183 493.229
761 0 83.1538 13.3969 1114 112.066 13.36 493.894
762 1 44.0528 12.1672 536 108.638 16.0858 513.478
763 0 45.0884 11.2889 509 111.697 14.8035 511.452
764 0 47.1828 13.2464 625 114.563 15.9408 510.002
765 0 49.1536 12.7966 629 101.079 14.5517 508.103
766 0 51.0754 13.1374 671 96.5604 13.1639 508.344
767 0 52.0232 13.4748 701 97.3638 13.6676 508.167
768 0 53.1331 13.5509 720 97.5708 14.3583 507.706
769 0 53.2453 12.8274 683 100.009 13.7994 504.474
770 0 54.0832 13.1649 712 102.663 14.1348 504.216
771 0 55.1832 14.2616 787 109.118 15.6912 507.496
772 0 58.1144 13.0949 761 109.457 14.1945 504.941
773 0 59.3447 14.1546 840 110.33 15.294 504.298
774 0 60.2427 13.4788 812 112.708 14.5567 503.571
775 0 62.1753 15.1668 943 109.949 14.7423 505.679
776 0 62.2084 13.6798 851 114.249 14.7004 503.459
777 0 66.2061 13.9866 926 113.405 13.7711 501.921
778 0 67.2247 15.8275 1064 112.057 14.9164 501.427
779 0 70.2882 14.1845 997 114.396 14.1224 501.155
780 0 71.1723 14.8513 1057 116.681 14.0927 499.011
781 0 74.1278 14.529 1077 118.76 14.0214 498.552
782 0 77.2212 14.8793 1149 117.555 14.0627 497.44
783 0 78.1911 14.5413 1137 117.325 14.0405 495.179
784 0 79.2904 14.2514 1130 119.05 13.3885 494.952
785 0 84.1897 14.0754 1185 117.378 13.1806 493.24
786 0 87.2258 16.3942 1430 113.906 14.493 493.476
787 0 87.1036 14.9133 1299 118.488 14.408 493.653
788 0 89.0265 14.5125 1292 118.649 13.7307 492.103
789 0 92.1565 14.0739 1297 119.346 13.8805 490.264
790 0 96.1433 13.9583 1342 117.784 13.4188 489.91
791 0 99.0645 14.7581 1462 116.729 13.8386 488.449
792 1 54.0275 13.5672 733 119.939 14.2633 508.323
793 0 54.0339 13.8062 746 118.93 14.2426 507.523
794 0 58.0287 15.544 902 116.559 15.7195 507.067
795 0 59.115 13.7528 813 121.034 15.1009 504.267
796 0 57.0348 13.2375 755 114.715 14.5351 507.632
797 0 58.0382 13.1121 761 115.047 14.2129 505.796
798 0 61.044 13.777 841 114.175 15.1712 505.329
799 0 63.0472 12.5937 794 115.504 14.272 503.161
800 0 64.1355 13.5962 872 114.396 14.992 503.725
801 0 66.0868 13.452 889 113.252 14.5647 502.836
802 0 69.1508 12.9427 895 113.946 14.5352 502.599
803 0 73.1579 14.3388 1049 112.167 14.551 501.59
804 0 74.0557 14.3271 1061 114.184 15.1291 500.435
805 0 77.116 14.2902 1102 113.315 14.3521 498.136
806 0 81.253 15.8025 1284 111.839 14.6955 497.85
807 0 82.2525 15.2214 1252 117.743 14.7244 496.733
808 0 83.3967 15.1925 1267 117.032 13.6748 494.426
809 0 86.347 16.2136 1400 120.216 15.105 493.176
810 0 88.3315 15.0116 1326 121.231 14.5279 491.42
811 0 91.2129 14.0002 1277 115.85 13.4683 492.524
812 0 95.1113 14.8037 1408 114.533 12.3217 490.154
813 0 96.0762 14.655 1408 115.486 12.4389 488.135
814 0 99.0844 14.4523 1432 117.119 12.4078 487.717
815 0 102.211 13.9712 1428 115.753 12.5329 486.128
816 0 104.177 14.2354 1483 114.865 11.0971 484.063
817 1 56.1372 13.8411 777 112.187 12.8687 508.936
818 0 57.0439 12.8673 734 115.219 12.4155 508.305
819 0 57.0285 12.8532 733 106.731 12.3915 504.664
820 0 63.1123 13.7374 867 103.083 12.9988 506.173
821 0 64.1893 15.4231 990 110.587 14.6758 505.702
822 0 64.1214 14.8468 952 112.941 13.5032 505.773
823 0 67.2116 15.3098 1029 113.431 13.8746 502.858
824 0 70.2682 14.8716 1045 114.19 14.0144 502.971
825 0 73.1396 14.3288 1048 115.238 13.5248 502.659
826 0 73.2511 14.4981 1062 116.828 13.6497 500.897
827 0 77.2997 14.2562 1102 117.061 13.3439 500.166
828 0 81.3634 15.4492 1257 115.437 13.7852 498.142
829 0 82.1502 15.3378 1260 116.122 13.2294 496.322
830 0 87.215 16.5109 1440 113.313 13.2951 496.849
831 0 87.2877 13.9882 1221 115.278 13.0966 494.786
832 1 44.0183 13.9715 615 119.161 14.4049 516.403
833 0 47.131 14.0884 664 115.61 14.2214 516.806
834 0 47.0574 14.7904 696 106.644 13.1667 517.566
835 0 49.128 15.2866 751 107.513 13.9095 516.756
836 0 50.1669 14.9302 749 106.283 12.8304 514.724
837 0 52.0535 15.2343 793 107.296 11.918 511.585
838 0 53.0623 15.8681 842 105.816 10.734 511.425
839 0 55.0393 16.0431 883 106.98 11.692 510.869
840 0 57.1734 15.2518 872 106.713 12.0252 509.234
841 0 57.0431 15.8652 905 106.991 10.7348 508.365
842 0 60.0331 16.1744 971 104.754 10.3512 507.002
843 0 60.0713 15.9643 959 107.092 9.91658 505.801
844 0 62.0181 16.0598 996 105.863 10.6867 505.092
845 0 65.0501 16.91 1100 102.8 11.4227 504.598
846 0 65.0245 15.9171 1035 106.026 10.4995 502.73
847 0 65.2043 16.0112 1044 108.636 11.4531 501.612
848 0 70.1311 15.4568 1084 105.681 9.99631 500.836
849 0 71.094 16.3164 1160 105.166 10.1483 499.589
850 0 72.0889 17.0761 1231 106.713 11.3412 498.317
851 0 75.1141 16.6946 1254 105.795 10.874 497.319
852 0 76.1294 15.9597 1215 108.225 11.7844 496.458
853 0 79.1206 15.7355 1245 106.144 10.808 497.047
854 0 81.0955 16.5607 1343 106.579 11.6262 495.4
855 0 82.0998 15.1401 1243 113.377 10.7273 493.879
856 0 84.1605 15.9814 1345 113.528 11.9442 489.607
857 0 85.1483 15.0796 1284 114.136 11.2033 490.291
858 0 89.2254 16.307 1455 114.482 14.5828 489.485
859 1 48.0983 12.1418 584 114.897 12.9966 510.514
860 0 50.1132 13.8686 695 111.682 15.1813 508.325
861 0 51.1401 13.6879 700 109.743 13.6429 509.42
862 0 53.0591 14.3425 761 109.075 14.9369 508.162
863 0 55.0629 14.547 801 109.883 13.8477 506.151
864 0 58.3265 15.2418 889 107.299 14.1294 504.31
865 0 58.1799 15.5036 902 103.726 13.2295 505.921
866 0 60.1497 15.9768 961 104.853 13.5442 505.262
867 0 62.1632 14.8963 926 105.349 12.7603 503.11
868 0 63.2532 15.6672 991 103.462 12.7356 502.842
869 0 65.2171 16.5294 1078 94.2737 13.5863 501.891
870 0 66.361 14.6924 975 108.031 12.4779 500.388
871 0 68.1692 15.2855 1042 107.441 12.8129 500.957
872 0 70.2072 14.8988 1046 107.15 12.8719 500.977
873 0 71.1986 16.2222 1155 107.384 13.2407 498.342
874 0 74.2408 15.0322 1116 107.38 12.5878 497.509
875 0 76.294 15.5976 1190 108.173 13.8723 497.866
876 0 76.3119 14.1393 1079 111.032 12.5394 495.285
877 0 80.3133 15.0286 1207 109.502 11.633 493.788
878 0 83.288 15.1162 1259 110.09 12.8705 493.129
879 0 84.2274 15.2207 1282 109.967 12.6334 493.002
880 0 87.3642 14.4682 1264 111.126 12.1693 492.748
881 0 91.2242 15.292 1395 109.781 12.676 491.405
882 0 92.1816 14.9162 1375 110.631 11.7098 490.591
883 0 95.2009 15.6196 1487 109.091 12.2555 488.288
884 0 98.2919 14.8435 1459 109.98 11.9411 485.491
885 0 100.216 14.1694 1420 112.218 11.8514 487.593
886 0 103.16 14.1528 1460 111.705 12.3137 484.138
887 0 108.139 16.2014 1752 109.803 12.5936 482.425
888 0 111.272 15.7542 1753 109.081 11.0827 480.503
889 0 116.342 16.8898 1965 107.782 12.6036 476.342
890 0 118.396 15.3299 1815 111.843 12.481 474.247
891 0 122.362 16.1815 1980 109.63 12.3702 474.103
892 1 63.314 14.0727 891 109.177 12.9888 503.579
893 0 65.1941 14.2958 932 111.123 12.6931 502.124
894 0 68.2628 14.9276 1019 107.184 12.5594 499.919
895 0 69.4298 16.3331 1134 107.335 12.239 497.402
896 0 71.2443 17.1944 1225 109.182 13.4204 498.106
897 0 74.2743 16.5199 1227 110.091 13.291 497.084
898 0 76.2906 16.2143 1237 113.559 13.443 495.361
899 0 80.3014 16.6 1333 111.885 13.3428 495.026
900 0 82.3085 16.8755 1389 110.848 13.6443 495.333
901 0 84.3767 16.9359 1429 112.864 13.9846 491.921
902 0 86.2502 17.2753 1490 112.307 14.8034 490.545
903 0 89.2259 16.1612 1442 113.781 13.5874 489.945
904 0 92.3131 17.3431 1601 112.316 14.3404 488.233
905 0 94.1517 16.7177 1574 113.272 13.791 486.726
906 0 97.2419 17.5336 1705 113.426 14.1314 484.558
907 0 99.2291 16.6987 1657 113.347 13.7912 482.01
908 0 102.177 16.2659 1662 113.125 13.846 481.875
909 0 105.164 16.1843 1702 115.644 13.5541 479.354
910 0 108.341 17.0758 1850 111.674 13.1735 477.778
911 0 113.378 16.52 1873 113.01 14.4074 475.884
912 1 62.1227 13.3929 832 115.916 12.3101 502.043
913 0 64.1074 16.2072 1039 110.209 15.4706 499.433
914 0 65.1302 14.5247 946 114.28 14.7706 498.28
915 0 69.2736 15.3883 1066 106.238 14.2814 498.262
916 0 69.3079 14.8179 1027 108.223 13.8822 497.838
917 0 71.1322 14.5785 1037 108.692 12.1543 497.415
918 0 74.2366 16.0029 1188 108.577 13.1473 496.917
919 0 76.2498 15.8295 1207 109.437 13.1052 495.334
920 0 77.0446 15.6273 1204 118.615 14.3779 492.871
921 0 81.0576 16.0627 1302 117.104 14.5069 491.714
922 0 82.0757 15.5466 1276 120.013 13.8605 490.489
923 0 86.0292 15.5645 1339 117.596 14.3727 490.507
924 0 90.1819 15.3468 1384 117.405 14.3418 489.574
925 0 92.1342 16.693 1538 116.02 14.4863 488.724
926 0 94.1287 15.5425 1463 118.339 13.6692 488.251
927 0 95.1243 15.8004 1503 120.483 13.6281 485.278
928 0 98.1966 15.7847 1550 119.859 13.3903 485.871
929 0 101.161 15.9152 1610 119.358 13.7621 484.781
930 0 105.208 15.9968 1683 120.108 13.4064 481.993
931 0 105.162 15.9754 1680 120.96 12.3202 481.095
932 0 109.252 16.7594 1831 119.291 12.4265 481.149
933 0 113.358 16.4699 1867 116.199 12.1237 479.988
934 0 117.159 17.1989 2015 115.68 12.7489 478.541
935 0 121.147 16.6658 2019 118.648 11.8073 476.829
936 1 63.0609 14.4781 913 116.553 12.9518 506.37
937 0 65.1135 14.9892 976 116.987 12.8105 505.996
938 0 66.0557 15.2447 1007 117.975 13.6783 504.6
939 0 68.1141 15.3419 1045 117.158 12.6976 504.542
940 0 69.1681 15.5274 1074 119.253 13.0307 502.067
941 0 72.1743 14.9638 1080 118.699 11.9407 502.444
942 0 73.2434 16.4793 1207 119.043 13.0895 501.071
943 0 76.2002 15.4593 1178 119.214 12.1537 500.12
944 0 77.1292 15.3249 1182 118.418 11.8012 498.382
945 0 78.191 13.9402 1090 118.755 11.1477 497.562
946 0 82.2091 14.2563 1172 117.625 10.7415 497.868
947 0 85.1708 17.4708 1488 116.361 12.5538 494.935
948 0 88.3038 15.7751 1393 117.083 10.178 494.907
949 0 89.3712 15.9 1421 118.799 11.3096 493.7
950 0 90.4597 15.0454 1361 114.39 11.7979 493.438
951 0 93.3447 14.7089 1373 123.173 11.6235 493.611
952 0 95.4317 14.4711 1381 124.61 11.8067 493.001
953 0 99.4957 14.5936 1452 125.275 11.8402 489.347
954 0 102.513 15.6078 1600 124.118 10.5819 488.149
955 0 102.519 14.5729 1494 127.591 11.421 487.493
956 0 106.459 14.2871 1521 116.327 11.783 486.112
957 0 110.456 14.7842 1633 114.366 11.5542 484.595
958 0 114.686 15.2329 1747 114.242 12.2187 480.876
959 1 62.3382 13.0097 811 114.952 12.6584 505.164
960 0 64.615 13.9287 900 114.11 13.1056 505.134
961 0 67.458 13.6529 921 113.987 11.8078 503.393
962 0 68.3918 14.8702 1017 113.329 13.061 502.36
963 0 70.3771 14.6496 1031 112.436 12.3754 500.5
964 0 72.0696 15.485 1116 108.013 14.0511 500.924
965 0 73.0724 16.0799 1175 106.743 14.1855 498.627
966 0 75.0729 14.7723 1109 109.493 14.3246 500.079
967 0 77.0737 14.0904 1086 110.307 13.4503 499.215
968 0 80.0615 14.6263 1171 109.059 13.8728 497.043
969 0 83.0391 14.5594 1209 105.453 14.4285 494.412
970 0 85.0471 14.2509 1212 107.338 12.8853 492.266
971 0 86.1099 15.0622 1297 106.788 14.2251 491.082
972 0 89.1821 13.949 1244 106.538 13.3489 489.052
973 0 92.0785 14.8895 1371 105.068 14.9409 487.21
974 0 93.0265 12.8995 1200 106.869 13.1775 485.743
975 0 96.0856 14.664 1409 103.938 13.4996 483.807
976 0 99.1039 12.8855 1277 107.397 13.5208 482.085
977 1 50.2421 10.7679 541 101.804 13.4085 507.865
978 0 51.2704 11.2931 579 100.537 13.4715 507.052
979 0 52.4253 13.1616 690 106.416 13.9449 505.555
980 0 52.1968 10.4221 544 108.908 14.2665 504.325
981 0 55.0324 11.0299 607 118.13 15.1005 506.947
982 0 55.0517 12.4792 687 116.705 15.4221 506.683
983 0 57.0328 12.3438 704 105.665 15.1236 505.082
984 0 60.0873 12.4153 746 104.937 14.5147 503.791
985 0 61.0883 12.8994 788 103.753 14.8464 504.273
986 0 64.055 13.3635 856 104.32 14.7138 501.956
987 0 65.0659 12.5565 817 106.591 15.6487 500.968
988 0 66.0377 12.7049 839 105.393 14.1132 499.616
989 0 70.0619 13.6879 959 103.901 14.4223 498.634
990 0 72.0935 13.7044 988 104.429 13.9089 496.685
991 0 75.3422 14.7991 1115 102.068 14.3139 497.361
992 0 77.4424 13.7263 1063 104.653 13.7959 494.434
993 1 40.2099 11.2659 453 104.413 13.7285 513.872
994 0 43.1662 11.7221 506 103.937 15.2332 512.832
995 0 43.2224 12.1465 525 103.71 14.5752 510.952
996 0 45.2815 13.0296 590 102.31 14.7458 509.676
997 0 46.1663 13.0182 601 103.201 15.4559 509.745
998 0 49.0818 13.0802 642 102.17 14.19 510.195
999 0 49.0888 13.1191 644 126.405 14.2127 510.189
1000 0 53.0263 14.1628 751 101.415 14.1784 507.547
1001 0 53.1374 15.3376 815 108.156 14.8025 505.655
1002 0 54.1146 14.6171 791 109.417 14.2402 505.155
1003 0 54.1135 14.3957 779 110.449 14.5456 504.843
1004 0 57.0871 13.5582 774 108.483 13.7636 504.503
1005 0 59.1411 14.9135 882 106.596 15.119 504.074
1006 0 61.1384 14.7043 899 104.822 15.2692 502.217
1007 0 61.3495 14.344 880 106.744 14.2568 499.911
1008 0 64.2425 15.2236 978 104.381 15.3057 499.31
1009 0 66.1778 13.494 893 104.018 14.7895 501.952
1010 0 66.0925 13.935 921 106.489 14.4376 499.398
1011 0 72.0744 14.2769 1029 103.076 13.654 497.335
1012 0 73.076 15.2581 1115 103.107 15.1327 496.648
1013 0 78.1633 14.9047 1165 99.83 13.3399 492.461
1014 0 78.1289 14.6169 1142 102.983 13.3608 492.31
1015 0 83.1736 15.666 1303 101.365 13.2771 489.285
1016 0 84.0922 14.9836 1260 101.707 13.0325 488.971
1017 0 86.0919 15.1815 1307 102.862 13.9962 485.907
1018 1 46.0345 12.4255 572 101.801 12.8951 506.885
1019 0 46.0339 12.708 585 101.988 13.547 506.217
1020 0 47.0302 12.5664 591 99.7073 13.5347 507.12
1021 0 49.0531 13.3529 655 99.1573 12.626 507.565
1022 0 51.139 14.3139 732 99.7664 13.2842 507.624
1023 0 50.0281 14.3919 720 101.672 16.8653 510.39
1024 0 53.028 14.5772 773 99.5278 16.1979 509.128
1025 0 53.0364 14.3675 762 100.862 15.7756 508.278
1026 0 56.0435 14.3103 802 99.5798 15.3005 506.202
1027 0 55.0204 14.6673 807 101.751 16.0149 506.502
1028 0 57.0555 13.9688 797 102.156 14.8971 505.644
1029 0 61.0327 14.5987 891 101.205 15.3591 504.146
1030 0 61.0357 14.4833 884 101.438 14.8428 502.979
1031 0 62.0784 15.2871 949 101.418 15.4752 504.475
1032 0 66.0929 15.3118 1012 101.584 15.6186 502.108
1033 0 67.1025 15.1857 1019 103.05 15.5182 500.71
1034 0 70.0233 14.1096 988 103.915 14.9919 500.043
1035 0 71.0612 15.0574 1070 103.079 14.9421 499.104
1036 0 74.198 15.0947 1120 103.174 15.0786 498.366
1037 0 75.1329 15.2929 1149 104.582 14.9051 496.427
1038 0 78.0339 15.442 1205 105.154 14.5112 495.224
1039 0 80.1721 16.1652 1296 103.707 14.4475 494.558
1040 0 84.1066 16.7288 1407 101.424 14.2687 495.746
1041 0 85.1709 15.9209 1356 103.209 13.8267 493.427
1042 0 89.2011 16.7375 1493 101.916 14.8178 492.021
1043 0 93.1892 15.2915 1425 101.817 13.4225 491.229
1044 0 94.4985 16.6987 1578 101.887 13.8866 490.735
1045 0 96.5085 16.7861 1620 101.73 13.4531 489.644
1046 0 100.272 15.7371 1578 100.807 12.5995 487.516
1047 0 101.436 16.8973 1714 97.717 13.4026 483.386
1048 0 105.34 15.151 1596 99.0677 12.656 484.082
1049 1 54.1867 14.7084 797 97.9699 14.4931 510.393
1050 0 55.2205 14.3968 795 100.421 13.6818 509.576
1051 0 56.2135 15.2455 857 101.768 13.8005 505.393
1052 0 58.1037 15.4379 897 104.501 14.8874 505.606
1053 0 60.2512 15.1698 914 104.447 13.2407 506.467
1054 0 64.2596 15.5308 998 106.836 13.7244 504.155
1055 0 63.0291 15.2152 959 111.209 14.488 503.132
1056 0 67.0837 16.5763 1112 109.112 14.8031 501.99
1057 0 70.1592 14.966 1050 111.627 13.3924 502.432
1058 0 71.1219 15.4945 1102 114.49 12.9982 500.752
1059 0 74.0808 15.3076 1134 115.583 12.6684 500.589
1060 0 76.1781 15.9363 1214 114.285 13.2339 499.206
1061 0 76.0538 14.2005 1080 108.486 12.1093 499.517
1062 0 79.0317 15.1585 1198 108.283 12.8982 500.003
1063 0 81.1048 15.1656 1230 108.237 13.178 500.267
1064 0 82.216 13.6591 1123 112.269 12.3847 497.134
1065 0 86.1287 14.966 1289 110.23 12.8557 495.488
1066 0 90.1539 14.087 1270 111.842 12.815 494.012
1067 0 91.121 14.8484 1353 111.873 12.3289 491.695
1068 0 94.2696 14.2464 1343 114.632 12.7729 490.197
1069 0 98.3177 14.3209 1408 113.233 12.8509 488.829
1070 0 101.098 14.3721 1453 113.102 12.9883 486.685
1071 1 57.1237 13.5495 774 107.194 13.2158 511.054
1072 0 57.0927 13.5744 775 108.948 12.6942 509.783
1073 0 59.2303 13.4053 794 108.567 13.2456 507.636
1074 0 59.0688 13.9668 825 110.112 12.5152 508.081
1075 0 61.2603 14.5118 889 111.238 13.1699 507.479
1076 0 63.0667 13.6205 859 113.092 12.6752 506.545
1077 0 67.1971 15.5513 1045 109.061 13.5952 506.146
1078 0 69.1893 14.1496 979 112.489 11.8366 504.113
1079 0 70.1296 15.0864 1058 116.369 12.587 503.111
1080 0 72.1133 15.3231 1105 115.106 13.6317 502.502
1081 0 74.2502 14.1548 1051 115.674 12.667 499.415
1082 0 76.3459 14.1068 1077 116.992 13.5432 499.593
1083 0 79.4967 13.7742 1095 117.224 13.3991 495.403
1084 1 40.4747 11.5134 466 111.912 14.2768 514.479
1085 0 41.3029 11.8636 490 109.016 13.1061 512.39
1086 0 42.2289 11.935 504 111.464 13.4048 514.423
1087 0 41.203 12.1593 501 112.677 13.0579 513.19
1088 0 45.2979 13.2457 600 108.47 13.985 513.722
1089 0 46.0647 12.96 597 122.568 12.1189 515.61
1090 0 47.0831 13.7841 649 119.971 12.433 514.082
1091 0 50.0704 12.782 640 120.575 11.8812 513.827
1092 0 50.2718 14.1829 713 123.303 13.453 514.278
1093 0 52.1019 12.3988 646 123.872 12.8142 512.432
1094 0 52.1232 12.7582 665 124.005 12.3955 511.663
1095 0 55.0892 13.2149 728 122.854 12.4093 510.799
1096 0 55.1028 13.0483 719 124.894 12.6481 509.406
1097 0 58.0551 14.0901 818 119.688 12.2262 508.237
1098 0 60.1929 14.4203 868 119.707 12.6187 506.72
1099 0 59.1353 13.6974 810 121.484 13.8889 510.82
1100 0 62.1734 13.7036 852 119.738 13.7606 508.492
1101 0 64.1839 12.9004 828 120.963 13.1594 506.163
1102 0 64.1108 13.773 883 121.683 13.0815 504.307
1103 0 68.1631 13.7464 937 118.885 12.7727 504.237
1104 0 68.1176 14.1226 962 123.362 12.7401 501.932
1105 0 72.1126 14.0336 1012 120.711 13.1196 501.323
1106 0 75.0821 13.1989 991 120.711 12.1958 499.456
1107 0 76.0932 14.0617 1070 123.169 12.3804 499.751
1108 0 80.1513 14.2231 1140 117.439 11.064 496.882
1109 0 82.3029 14.8719 1224 119.544 11.9714 495.78
1110 0 84.211 13.4781 1135 120.654 11.6159 497.079
1111 0 87.3226 14.2117 1241 120.255 12.3417 493.22
1112 0 89.2025 14.54 1297 119.228 11.9067 493.109
1113 0 93.1197 14.433 1344 119.957 11.8981 492.734
1114 0 96.2644 14.616 1407 119.276 12.5764 491.719
1115 0 98.263 15.2448 1498 118.469 12.781 491.105
1116 0 100.199 14.052 1408 122.462 11.6669 488.17
1117 1 54.0288 11.3828 615 117.753 12.1756 511.709
1118 0 58.0084 12.2913 713 110.7 12.5835 510.815
1119 0 57.1874 12.1006 692 112.185 12.9725 508.068
1120 0 60.1848 14.4887 872 112.823 13.5608 507.016
1121 0 61.1834 13.4187 821 109.945 13.0792 508.929
1122 0 64.2884 14.7616 949 109.587 13.7503 508.778
1123 0 66.169 14.8257 981 109.931 13.9388 508.697
1124 0 67.1386 14.5222 975 112.863 13.6944 505.99
1125 0 69.1857 14.8875 1030 113.521 14.135 504.899
1126 0 71.2601 14.0892 1004 114.567 12.9831 504.931
1127 0 73.2983 15.28 1120 116.196 13.1616 502.515
1128 0 76.2529 14.6093 1114 119.43 13.281 502.373
1129 0 76.2406 14.31 1091 123.995 13.4656 501.55
1130 0 80.3087 13.9711 1122 124.785 13.6791 500.43
1131 0 82.2176 14.2792 1174 123.042 12.9165 500.222
1132 0 85.0973 14.6303 1245 122.358 12.853 498.776
1133 0 87.099 14.0185 1221 126.351 12.4545 496.202
1134 0 89.0807 14.3129 1275 127.319 12.4188 495.423
1135 0 94.2314 14.8252 1397 125.81 13.2176 493.714
1136 0 94.0985 15.6113 1469 110.894 12.9047 490.987
1137 1 52.2318 14.1293 738 117.179 12.6274 515.165
1138 0 51.3985 13.6774 703 122.095 13.0583 510.259
1139 0 53.4012 13.4641 719 120.214 11.5229 508.453
1140 0 54.2725 14.7589 801 113.247 14.3096 511.844
1141 0 55.2485 13.6293 753 114.886 13.336 513.588
1142 0 58.2049 14.3631 836 113.166 13.6758 512.681
1143 0 60.3374 13.6565 824 112.68 12.2464 509.87
1144 0 63.3198 15.0664 954 112.193 13.8155 509.67
1145 0 63.2286 14.3764 909 115.684 12.5457 507.545
1146 0 66.304 15.3233 1016 112.601 13.9094 507.257
1147 0 67.2369 14.1738 953 116.69 13.0651 506.208
1148 0 71.2309 14.3898 1025 115.799 13.521 505.18
1149 0 72.2145 14.5677 1052 116.912 12.8346 503.296
1150 0 74.1652 15.3037 1135 104.952 13.4784 502.62
1151 0 76.2541 14.2943 1090 107.239 12.255 501.739
1152 0 77.2367 14.8893 1150 108.171 13.2809 500.704
1153 0 79.1464 14.3279 1134 109.798 12.6182 499.369
1154 0 81.1057 13.9571 1132 112.553 12.3154 498.028
1155 0 86.2214 15.5414 1340 110.97 13.0597 496.95
1156 0 86.1583 14.4501 1245 113.865 11.9221 496.17
1157 0 89.223 15.5677 1389 113.359 12.2729 496.367
1158 0 91.2324 14.6001 1332 115.463 11.8514 494.502
1159 0 92.2344 14.7993 1365 116.824 12.6842 493.505
1160 0 96.2563 14.5237 1398 117.703 11.769 492.391
1161 0 97.2534 15.2283 1481 118.415 12.5354 491.109
1162 0 102.223 15.0064 1534 119.827 11.6949 487.562
1163 0 105.229 15.7371 1656 121.6 11.9607 487.295
1164 0 109.272 15.0267 1642 122.152 10.9915 485.808
1165 0 110.237 15.5302 1712 125.574 12.1857 480.748
1166 0 113.31 14.4294 1635 125.28 11.737 478.991
1167 0 119.233 15.4655 1844 123.576 12.1518 479.674
1168 0 123.424 16.1719 1996 122.831 11.3267 476.227
1169 1 62.3248 13.0446 813 117.583 12.5006 508.544
1170 0 66.2772 13.7151 909 114.094 12.44 508.068
1171 0 68.2986 14.0706 961 114.343 13.103 506.236
1172 0 70.3248 13.7931 970 114.223 11.3784 506.333
1173 0 72.2948 16.0869 1163 113.788 12.3302 505.169
1174 0 74.2912 14.7797 1098 116.77 12.0556 502.45
1175 0 76.2481 14.6758 1119 117.78 12.4334 502.232
1176 0 78.2317 14.0097 1096 118.732 11.8221 501.096
1177 0 81.441 15.7046 1279 116.511 12.2557 500.636
1178 0 82.2486 14.8574 1222 119.134 11.4599 497.459
1179 0 86.1468 15.6013 1344 117.266 12.7076 496.442
1180 0 89.1924 15.0686 1344 120.42 12.654 493.068
1181 0 92.2049 15.4005 1420 120.281 12.9268 494.006
1182 0 93.4968 15.177 1419 121.598 12.9429 491.994
1183 0 97.4528 14.3146 1395 121.093 11.2 491.963
1184 0 97.5667 15.8968 1551 120.543 12.3436 488.494
1185 0 102.456 15.1968 1557 118.729 10.9724 486.41
1186 0 106.498 16.3946 1746 117.652 11.9788 482.981
1187 0 108.401 14.7969 1604 119.794 11.8242 483.597
1188 0 111.355 14.7546 1643 119.289 11.955 482.497
1189 0 115.443 14.4314 1666 119.133 11.8097 481.478
1190 1 63.1213 12.4997 789 109.388 12.5602 508.887
1191 0 65.2069 13.5722 885 108.307 12.7537 506.733
1192 0 67.142 14.4321 969 104.909 12.193 505.812
1193 0 67.1503 13.6708 918 107.422 11.6242 505.698
1194 0 71.1585 14.292 1017 105.717 11.7729 504.652
1195 0 70.1902 13.0503 916 109.798 11.5939 503.794
1196 0 73.0803 14.8877 1088 107.762 12.1415 502.494
1197 0 75.2135 14.0267 1055 109.304 11.6986 500.004
1198 0 79.1884 14.6865 1163 109.234 11.9923 498.192
1199 0 82.4389 14.4956 1195 109.147 12.128 496.315
1200 0 85.2672 14.695 1253 108.994 12.0654 496.002
1201 0 87.247 15.6796 1368 110.109 13.4152 494.661
1202 0 89.3108 14.6007 1304 112.22 12.26 494.11
1203 0 90.3082 14.218 1284 115.003 12.1729 490.88
1204 0 94.3928 14.6092 1379 113.728 11.8637 489.613
1205 0 98.4671 14.7664 1454 115.173 12.5688 488.036
1206 0 100.319 14.2047 1425 114.469 12.0491 486.627
1207 0 103.38 13.7357 1420 115.948 12.8366 482.875
1208 0 106.429 13.7556 1464 115.444 11.39 480.826
1209 0 111.576 14.4117 1608 113.089 12.393 479.221
1210 1 59.5598 11.5682 689 107.472 11.6372 506.06
1211 0 62.5549 12.9966 813 105.451 12.9016 505.351
1212 0 64.5097 13.0523 842 105.963 13.1057 504.278
1213 0 67.5093 14.5165 980 103.691 13.0969 501.738
1214 0 68.5299 14.2128 974 105.033 12.23 500.816
1215 0 70.7253 14.1534 1001 109.959 12.3367 500.46
1216 0 72.2059 14.3756 1038 110.869 13.2775 497.987
1217 0 76.3211 14.4783 1105 104.68 13.5864 497.101
1218 0 78.5056 14.0499 1103 109.199 13.9383 497.811
1219 0 80.3739 13.9971 1125 110.577 12.6907 494.51
1220 0 83.4928 15.175 1267 102.669 13.614 495.59
1221 0 86.5376 14.5255 1257 100.534 11.7375 493.689
1222 0 88.4874 14.228 1259 103.531 11.942 491.572
1223 0 90.4438 14.8822 1346 102.669 12.0877 491.412
1224 0 92.6326 15.5669 1442 103.219 12.9632 490.657
1225 0 96.5374 14.0464 1356 104.374 11.1586 488.072
1226 0 98.5377 15.4357 1521 105.782 12.0644 485.466
1227 0 99.3066 14.2891 1419 109.002 11.5814 483.727
1228 0 103.617 14.7853 1532 108.301 11.8466 481.797
1229 1 57.6013 13.7844 794 107.71 12.9446 506.077
1230 0 58.5689 13.403 785 109.715 12.7822 503.464
1231 0 61.5359 13.6343 839 113.306 13.3075 502.827
1232 0 62.6581 15.0818 945 109.559 12.1058 501.346
1233 0 65.6076 16.3853 1075 107.097 12.8167 499.809
1234 0 66.698 15.7126 1048 105.79 11.3111 499.138
1235 0 68.6034 15.2033 1043 108.622 11.8686 497.87
1236 0 70.6999 15.1203 1069 108.121 12.5332 496.752
1237 0 72.5193 14.7961 1073 108.141 11.7204 494.182
1238 0 74.6292 14.8199 1106 110.561 13.3743 496.659
1239 0 75.6802 14.2045 1075 110.148 11.7498 494.493
1240 0 78.5723 14.9417 1174 110.565 13.6269 494.761
1241 0 80.6019 14.6398 1180 109.403 12.8949 494.121
1242 0 81.3715 13.5551 1103 114.598 12.3128 495.675
1243 0 84.4446 14.4118 1217 112.736 13.4035 493.255
1244 0 89.568 15.117 1354 107.173 11.8323 491.475
1245 0 92.3499 16.4483 1519 108.999 12.476 489.676
1246 0 93.708 14.94 1400 112.284 12.4236 487.917
1247 0 96.4473 15.397 1485 112.046 12.9791 486.142
1248 0 97.4396 13.7829 1343 105.181 12.7081 483.545
1249 0 101.375 13.7016 1389 106.341 12.6875 481.133
1250 0 104.282 14.1635 1477 104.62 13.348 481.385
1251 1 55.1474 13.0559 720 102.001 14.3625 508.576
1252 0 56.3031 12.8234 722 103.19 15.3989 509.058
1253 0 57.294 12.6366 724 104.575 15.0414 508.807
1254 0 61.2549 12.799 784 106.56 14.4298 507.497
1255 0 64.3243 13.9139 895 97.9408 14.7743 506.086
1256 0 66.2954 13.7717 913 97.7043 14.5126 504.399
1257 0 68.2761 14.5292 992 97.745 15.4103 503.482
1258 0 68.284 14.0443 959 100.38 14.8238 501.52
1259 0 73.2495 14.2117 1041 98.6244 13.6897 501.344
1260 0 74.3726 14.8576 1105 100.4 14.2833 499.944
1261 0 74.2526 14.4911 1076 102.161 13.9954 498.267
1262 0 76.1784 15.2274 1160 103.166 14.2362 497.803
1263 0 81.2186 15.8584 1288 101.871 14.1126 495.587
1264 0 81.2004 15.9851 1298 103.853 14.688 496.006
1265 0 84.1916 16.2368 1367 104.457 14.038 492.018
1266 0 88.2256 16.0044 1412 106.962 13.9065 493.385
1267 0 90.1707 16.1361 1455 107.645 13.9182 492.141
1268 0 94.1922 16.4026 1545 107.109 13.2738 491.191
1269 0 96.1549 16.5046 1587 107.193 13.8916 487.684
1270 0 97.1693 15.1797 1475 111.856 13.2658 486.88
1271 0 102.184 16.8324 1720 108.537 13.818 484.538
1272 0 104.217 15.295 1594 111.005 12.6713 482.279
1273 1 57.0714 13.4393 767 111.243 14.2256 510.07
1274 0 58.0765 13.7749 800 110.525 14.2475 506.871
1275 0 60.0916 15.1103 908 110.155 14.2148 507.714
1276 0 58.216 13.5186 787 113.736 13.4231 507.798
1277 0 61.2942 14.5528 892 109.741 12.2141 507.306
1278 0 65.2035 15.5053 1011 109.537 13.8635 506.585
1279 0 66.2754 14.2134 942 110.764 12.2739 505.559
1280 0 69.2231 15.3128 1060 109.714 13.5028 505.785
1281 0 70.2245 15.308 1075 110.082 12.9963 504.942
1282 0 73.2017 15.027 1100 109.914 13.1364 502.97
1283 0 76.1817 14.8461 1131 108.145 12.7975 501.409
1284 0 77.1785 15.5613 1201 109.173 13.388 499.424
1285 0 80.1559 14.6465 1174 106.896 13.132 498.078
1286 0 83.182 14.7869 1230 105.52 13.4919 498.441
1287 0 85.2041 14.5885 1243 105.669 13.6058 496.885
1288 0 87.2112 14.8949 1299 107.474 13.1032 494.41
1289 0 92.3268 15.8567 1464 109.4 13.0963 492.081
1290 0 95.3265 14.7913 1410 110.952 12.5645 491.096
1291 0 98.3255 14.8486 1460 109.605 12.8123 490.904
1292 0 99.2635 15.1415 1503 109.605 13.2222 486.76
1293 0 104.437 15.6745 1637 108.125 13.5168 484.71
1294 0 106.337 15.4039 1638 109.556 13.5269 480.649
1295 0 110.222 15.0514 1659 108.746 12.2761 477.335
1296 0 113.462 15.8907 1803 108.278 12.9451 478.391
1297 1 59.2132 13.9665 827 107.613 13.0992 504.403
1298 0 62.1673 14.7827 919 105.427 13.6398 502.802
1299 0 65.1185 15.4641 1007 104.547 12.8788 500.812
1300 0 67.0964 15.3809 1032 107.646 13.97 499.222
1301 0 67.0964 15.4107 1034 160.495 13.9662 499.197
1302 0 72.2922 14.718 1064 107.659 13.0254 498.614
1303 0 72.1961 16.4136 1185 112.177 13.2481 494.608
1304 0 77.2725 16.7977 1298 107.025 12.4854 494.827
1305 0 78.3402 16.6581 1305 109.972 13.5349 494.405
1306 0 80.3638 15.2556 1226 112.974 12.8923 493.949
1307 0 82.2222 16.9419 1393 111.986 13.6698 493.756
1308 0 86.3746 17.8409 1541 109.425 13.0006 491.556
1309 0 88.3645 16.6017 1467 114.594 13.621 490.284
1310 0 91.2402 16.8347 1536 114.221 12.8411 489.906
1311 0 94.2887 18.0403 1701 113.917 13.0206 487.99
1312 0 97.2198 17.6919 1720 114.574 12.507 486.937
1313 0 101.266 18.2292 1846 113.592 12.9447 485.031
1314 0 103.173 16.9909 1753 117.938 13.1244 485.046
1315 0 106.266 17.5597 1866 118.334 13.2642 484.407
1316 0 111.183 18.2852 2033 117.196 13.968 482.772
1317 1 58.1522 15.8205 920 121.832 14.8152 507.953
1318 0 61.0987 15.6959 959 120.026 14.1825 506.356
1319 0 62.1132 16.1962 1006 119.519 13.6004 506.996
1320 0 65.1328 17.5488 1143 120.545 15.1059 503.941
1321 0 66.2127 16.7491 1109 119.042 14.45 504.463
1322 0 69.2451 16.7088 1157 120.69 15.6119 503.054
1323 0 72.3097 15.89 1149 120.287 14.0174 502.103
1324 0 75.3225 17.9097 1349 117.892 15.1594 500.672
1325 0 78.4571 16.8882 1325 117.333 14.2189 499.867
1326 0 78.311 17.8136 1395 118.896 16.7369 497.776
1327 0 81.2857 15.8207 1286 117.702 13.7551 498.36
1328 0 84.3718 17.4703 1474 118.396 14.4729 496.282
1329 0 86.4549 17.8243 1541 117.068 13.6171 496.035
1330 0 89.6961 18.5961 1668 117.236 13.5995 495.921
1331 0 91.4694 17.5578 1606 121.853 13.9851 493.936
1332 0 92.5329 16.9886 1572 122.242 12.8995 491.2
1333 0 96.7535 18.8727 1826 119.583 14.086 491.413
1334 0 98.5791 17.8435 1759 122.143 13.5566 489.404
1335 0 100.678 17.5013 1762 123.27 13.9733 489.929
1336 0 102.644 18.608 1910 122.428 14.123 488.369
1337 0 106.467 17.705 1885 121.375 12.3167 487.807
1338 0 109.518 18.9557 2076 120.387 13.5231 486.32
1339 0 112.544 17.1844 1934 122.349 12.0403 483.651
1340 0 117.618 18.0584 2124 120.462 12.8446 481.821
1341 1 57.5124 15.9966 920 126.926 14.163 511.318
1342 0 57.5263 16.1665 930 127.004 13.714 510.683
1343 0 61.2254 17.4437 1068 123.857 14.3474 509.527
1344 0 62.513 16.9085 1057 125.372 13.3264 508.7
1345 0 63.3552 18.42 1167 124.155 14.7695 507.754
1346 0 65.4784 17.3034 1133 125.629 14.2674 506.613
1347 0 68.3175 18.6336 1273 123.35 14.663 504.912
1348 0 68.272 17.65 1205 128.055 13.8639 503.323
1349 0 70.2772 17.1179 1203 129.532 13.7648 503.703
1350 0 72.6553 17.5899 1278 128.594 12.7778 503.72
1351 0 76.3689 18.4499 1409 128.326 12.3769 502.046
1352 0 76.4035 18.1798 1389 131.239 14.2937 500.391
1353 0 79.3474 17.3163 1374 133.027 12.9425 500.228
1354 0 81.2596 18.5332 1506 132.124 13.2756 498.333
1355 0 82.4438 18.5338 1528 132.984 13.2709 498.57
1356 0 85.5019 17.637 1508 134.873 12.4768 497.473
1357 0 88.563 18.7211 1658 132.47 12.6683 497.007
1358 0 90.8881 17.8131 1619 133.236 13.0408 494.717
1359 0 93.8032 18.6987 1754 128.353 13.1334 494.653
1360 0 95.4601 17.6933 1689 131.642 11.167 492.567
1361 0 99.6861 19.2103 1915 128.594 13.6005 493.19
1362 1 48.6127 15.0167 730 142.771 13.6603 515.034
1363 0 51.3819 17.3797 893 134.513 14.1635 513.688
1364 0 54.5105 17.593 959 134.269 13.6475 512.165
1365 0 57.3721 18.0576 1036 132.174 13.8822 512.56
1366 0 57.6018 18.0029 1037 136.704 13.6895 512.088
1367 0 59.3253 18.289 1085 135.698 13.2387 510.886
1368 0 59.4816 17.5685 1045 140.302 13.2928 509.648
1369 0 64.3615 18.2252 1173 134.76 12.9267 509.825
1370 0 64.5835 18.2709 1180 138.838 13.2331 509.164
1371 0 66.474 18.9698 1261 137.561 13.1816 507.787
1372 0 68.5012 19.1821 1314 139.238 13.3493 506.55
1373 0 70.4051 18.8197 1325 140.439 13.4611 506.798
1374 0 72.4797 18.5017 1341 140.47 13.3654 506.411
1375 0 75.809 19.6151 1487 139.475 13.1231 505.114
1376 0 75.3638 19.4656 1467 141.785 13.3415 503.54
1377 0 78.3864 19.9142 1561 134.139 12.3857 501.453
1378 0 79.3801 19.3625 1537 137.396 13.4834 503.39
1379 0 79.5228 20.1829 1605 131.624 13.304 502.903
1380 0 80.4028 19.7008 1584 142.987 13.6345 502.755
1381 0 82.4694 18.6615 1539 148.136 12.5562 502.96
1382 0 81.5466 18.701 1525 153.228 13.2774 502.344
1383 0 82.4326 19.1308 1577 152.368 11.9531 501.521
1384 0 84.463 19.6654 1661 151.001 13.2517 501.85
1385 0 85.5004 18.9239 1618 148.122 12.3461 501.563
1386 0 85.5853 18.7999 1609 149.386 12.7961 500.961
1387 0 88.5598 19.4445 1722 144.484 13.2073 500.498
1388 0 89.5143 19.5388 1749 142.828 11.3019 497.743
1389 0 91.6823 19.4149 1780 142.203 11.6146 498.056
1390 0 94.5226 19.8365 1875 139.255 11.8421 497.519
1391 0 95.6087 19.7995 1893 140.078 11.5388 496.053
1392 0 97.5208 19.5548 1907 142.878 11.517 495.86
1393 0 99.387 19.6807 1956 142.261 11.5966 494.375
1394 0 102.552 19.6974 2020 142.892 11.4574 493.281
1395 0 104.493 19.1305 1999 146.466 11.3207 493.775
1396 0 106.498 19.5496 2082 148.143 11.2315 491.039
1397 0 109.523 19.9046 2180 147.582 11.417 490.608
1398 0 112.653 19.8041 2231 150.258 11.0914 489.292
1399 0 114.656 19.3275 2216 154.196 10.4377 487.896
1400 0 117.523 19.9025 2339 156.73 10.9059 485.019
1401 0 121.526 19.5184 2372 157.364 10.8858 484.099
1402 1 48.3246 17.5273 847 166.541 12.7143 516.281
1403 0 48.3373 17.833 862 167.435 12.5719 516.048
1404 0 50.3763 18.6993 942 165.933 12.0722 515.172
1405 0 52.2699 18.9784 992 166.605 12.751 514.359
1406 0 52.3792 19.6643 1030 167.72 12.7155 513.477
1407 0 54.2067 18.4848 1002 175.075 11.9222 514.095
1408 0 54.2771 19.6031 1064 177.562 12.7519 512.909
1409 0 57.2461 19.4249 1112 177.637 13.6106 511.147
1410 0 57.386 18.7502 1076 178.036 11.8448 510.723
1411 0 61.323 19.1609 1175 176.642 12.5379 509.764
1412 0 61.3448 19.0562 1169 182.044 11.9487 508.663
1413 0 64.2371 19.5993 1259 180.275 12.34 508.652
1414 0 64.4269 18.5482 1195 188.865 11.8996 508.368
1415 0 64.2832 19.7097 1267 187.729 12.8453 507.927
1416 0 67.4046 20.0877 1354 185.867 12.5761 507.396
1417 0 73.6454 18.141 1336 190.683 12.2186 506.919
1418 0 72.7507 19.7111 1434 190.116 12.6841 505.66
1419 0 75.877 20.2169 1534 188.177 12.588 504.078
1420 0 77.0313 20.7318 1597 187.729 13.4051 503.147
1421 0 78.9952 18.7733 1483 191.343 11.9359 502.098
1422 0 82.084 20.2232 1660 190.407 12.7873 501.133
1423 0 82.2459 19.6241 1614 193.129 11.7701 500.261
1424 0 86.2504 20.4289 1762 191.52 12.6163 498.323
1425 0 87.4343 20.3353 1778 194.867 12.5433 497.71
1426 0 89.1006 18.9224 1686 196.231 11.5955 494.74
1427 0 92.4653 19.9318 1843 197.294 12.4493 494.764
1428 0 95.5756 19.7226 1885 195.7 12.1851 492.585
1429 0 95.5701 19.1692 1832 200.227 12.345 492.519
1430 0 100.429 19.2475 1933 195.873 12.2318 491.859
1431 0 102.724 19.9467 2049 198.856 13.0259 490.514
1432 0 105.321 20.0435 2111 194.887 13.2189 488.57
1433 0 108.485 19.4681 2112 197.941 12.2424 487.605
1434 0 110.12 19.0338 2096 199.417 12.4394 484.686
1435 0 114.045 18.5892 2120 197.214 11.3321 483.896
1436 0 118.121 18.5403 2190 195.708 12.6064 482.001
1437 0 118.979 17.8183 2120 196.459 10.9047 479.933
1438 0 125.305 20.6935 2593 192.747 14.4007 479.717
1439 0 126.929 17.8918 2271 193.541 12.0643 475.721
1440 0 132.949 18.9771 2523 192.686 13.0864 474.837
1441 1 64.34 13.8328 890 178.173 14.5315 509.407
1442 0 63.2711 14.7777 935 176.489 15.2877 506.381
1443 0 65.3624 14.8862 973 174.293 14.6917 505.409
1444 0 66.3112 14.9899 994 173.773 14.3571 504.993
1445 0 68.4037 15.35 1050 171.678 14.5371 504.293
1446 0 70.365 14.979 1054 172.564 13.8406 502.453
1447 0 71.3784 14.8224 1058 174.401 14.7382 501.232
1448 0 72.2765 14.8043 1070 170.954 13.8486 500.333
1449 0 75.4494 14.9372 1127 170.763 14.6717 498.897
1450 0 77.2942 15.0982 1167 166.872 14.144 498.693
1451 0 78.3669 15.4912 1214 166.863 13.5758 497.108
1452 0 79.4092 15.0864 1198 168.24 15.0242 495.673
1453 0 81.4702 14.0419 1144 169.01 14.042 493.878
1454 0 83.5007 15.0178 1254 166.667 13.5407 494.285
1455 0 83.3768 14.6564 1222 166.91 14.0835 493.564
1456 0 86.533 14.6996 1272 163.813 13.4379 492.7
1457 0 89.4991 15.9331 1426 160.888 14.5568 490.546
1458 0 90.3198 14.2272 1285 161.992 12.7292 492.1
1459 0 92.3334 14.0469 1297 161.717 14.148 488.885
1460 0 93.3069 13.7718 1285 158.603 13.1572 489.323
1461 0 98.3408 14.7141 1447 155.503 13.7982 486.558
1462 1 59.2356 11.6822 692 132.227 15.672 510.234
1463 0 60.1333 12.0898 727 130.38 14.4113 508.437
1464 0 59.2239 12.7989 758 130.145 15.0607 508.31
1465 0 61.2206 12.9205 791 128.075 14.6789 507.746
1466 0 63.5482 12.7462 810 123.638 13.0173 507.228
1467 0 64.5638 12.1121 782 125.152 13.9872 505.73
1468 0 66.5912 12.2689 817 124.923 13.2632 505.486
1469 0 68.6043 12.7543 875 123.358 13.7817 504.608
1470 0 70.5218 13.315 939 122.099 13.7242 504.004
1471 0 73.5725 13.6464 1004 120.976 13.1125 501.975
1472 0 75.4987 13.4439 1015 120.995 13.8562 499.185
1473 0 77.4884 13.886 1076 120.028 13.8522 498.149
1474 0 79.4736 12.5954 1001 122.799 13.5824 496.025
1475 0 82.575 13.7087 1132 119.186 13.818 495.62
1476 0 85.5892 13.4947 1155 121.084 12.832 495.245
1477 0 87.6372 11.3993 999 134.141 13.7828 495.504
1478 0 89.6424 11.2558 1009 134.256 12.5927 492.24
1479 0 93.5626 11.1904 1047 134.052 13.2951 490.721
1480 0 94.6991 9.65163 914 134.851 12.837 491.354
1481 1 51.0549 11.4779 586 125.974 15.413 511.527
1482 0 54.1662 11.9447 647 123.839 14.7032 509.938
1483 0 56.1033 13.1365 737 120.308 15.5237 510.277
1484 0 56.1756 13.3332 749 117.318 15.1415 509.36
1485 0 58.234 13.2912 774 118.978 15.1098 507.848
1486 1 173.416 13.136 2278 151.025 11.7546 445.435
1487 0 177.799 13.3241 2369 146.89 11.6556 446.051
1488 0 179.413 14.2019 2548 146.591 11.5008 441.591
1489 0 184.5 14.3578 2649 144.018 12.598 442.455
1490 0 189.275 13.8053 2613 144.093 12.0608 439.539
1491 0 193.206 15.1393 2925 139.562 13.1634 433.71
1492 0 199.489 13.685 2730 142.071 11.7777 433.673
1493 0 207.669 14.8409 3082 140.505 12.7528 428.457
1494 0 210.225 14.2942 3005 140.571 12.0855 426.322
1495 0 212.658 14.2435 3029 142.739 12.2341 429.275
1496 0 216.378 14.2066 3074 143.281 12.933 425.26
1497 0 220.787 14.9828 3308 141.391 12.5036 422.628
1498 0 228.834 15.6139 3573 139.367 12.5043 416.756
1499 0 233.994 14.9063 3488 142.178 12.6482 416.341
1500 0 246.287 13.1351 3235 138.501 10.9648 407.657
1501 0 255.476 14.4476 3691 130.888 10.7453 395.475
1502 0 258.191 16.5885 4283 138.193 13.1704 396.57
1503 0 263.999 14.9092 3936 138.322 12.578 395.143
1504 0 179.404 8.56725 1537 130.17 13.3643 466.843
1505 0 178.452 8.45604 1509 131.567 13.617 463.078
1506 0 178.218 9.72968 1734 126.777 12.9994 456.642
1507 1 51.1725 11.9205 610 124.598 14.7541 510.308
1508 0 49.1191 11.9505 587 125.773 13.8961 510.346
1509 0 52.3406 12.1512 636 124.425 14.0865 509.805
1510 0 54.6988 12.7425 697 121.758 13.1836 510.288
1511 0 55.8542 12.4073 693 126.227 13.5325 510.489
1512 0 58.7284 12.8558 755 124.604 13.1987 509.397
1513 0 58.7985 12.9085 759 123.443 12.9499 508.088
1514 1 284.5 12.1793 3465 136.254 11.8401 399.379
1515 0 286.993 11.7773 3380 138.367 11.0287 396.467
1516 0 290.415 12.7266 3696 137.493 11.9486 397.182
1517 0 293.471 12.2976 3609 139.092 10.9468 396.867
1518 1 69.8963 11.2452 786 127.053 13.5725 504.473
1519 0 69.7837 12.0945 844 123.928 13.8282 503.132
1520 0 71.6785 14.2721 1023 112.978 13.0254 503.382
1521 0 72.6827 15.4094 1120 112.123 13.4545 503.881
1522 0 75.699 15.7334 1191 110.421 14.0697 501.23
1523 0 76.7143 15.851 1216 108.529 13.5798 501.536
1524 0 77.624 15.7812 1225 109.949 13.2286 498.284
1525 0 79.7241 15.6164 1245 108.308 13.4739 497.127
1526 0 80.5941 14.8894 1200 111.057 13.6417 496.398
1527 0 85.6521 16.2168 1389 105.629 14.0043 496.628
1528 0 87.6536 15.3901 1349 106.019 13.6894 495.543
1529 0 89.6731 16.1921 1452 105.699 14.1756 495.62
1530 0 90.505 15.0931 1366 109.492 14.0534 496.215
1531 0 92.5344 15.1944 1406 110.343 14.0896 495.467
1532 0 94.501 15.3861 1454 108.655 14.3927 494.036
1533 0 97.4785 14.5365 1417 111.34 13.9485 492.466
1534 0 100.402 14.2627 1432 112.781 13.5063 490.074
1535 0 104.373 15.6841 1637 109.521 14.1106 488.382
1536 0 105.402 15.5311 1637 111.572 14.8491 487.424
1537 0 105.396 15.6172 1646 151.014 14.842 487.33
1538 0 112.357 14.3115 1608 112.731 12.7164 484.513
1539 0 116.403 16.3483 1903 111.847 15.0951 483.734
1540 0 119.356 13.5309 1615 114.308 13.4848 483.163
1541 1 65.2662 14.663 957 109.898 16.3574 507.11
1542 0 65.334 14.1733 926 112.077 14.4968 505.422
1543 0 67.4511 14.7811 997 111.016 14.985 503.997
1544 0 68.3902 14.622 1000 112.283 14.367 506.007
1545 0 67.5956 13.7287 928 115.683 13.5194 504.004
1546 0 69.5704 14.1583 985 114.647 14.3096 504.515
1547 0 70.6897 14.4293 1020 115.15 14.8735 503.198
1548 0 71.5939 13.5067 967 117.629 14.0393 502.687
1549 0 74.5724 14.2144 1060 115.324 14.3113 503.168
1550 0 77.4593 14.5108 1124 114.49 13.8532 499.784
1551 0 80.5996 13.8834 1119 116.018 13.9142 499.024
1552 0 82.5514 15.0088 1239 114.697 14.8588 497.759
1553 0 83.619 13.4539 1125 116.868 13.1787 497.09
1554 0 84.5641 14.0485 1188 119.118 14.8544 494.705
1555 0 90.6204 14.7428 1336 112.751 12.5719 491.597
1556 1 48.2166 14.7252 710 116.961 16.7085 512.455
1557 0 49.3209 14.0306 692 119.043 15.9754 512.493
1558 0 51.3873 14.8675 764 117.39 16.1597 512.461
1559 0 51.3326 14.9807 769 120.22 15.368 510.819
1560 0 53.4642 16.0668 859 118.746 15.8114 511.369
1561 0 54.4963 15.2855 833 121.381 15.8151 510.957
1562 0 55.5108 15.1142 839 120.89 14.9309 509.805
1563 0 56.3274 12.2853 692 110.517 13.9436 492.085
1564 0 58.5168 12.4921 731 110.12 14.249 491.993
1565 0 60.4964 13.4223 812 107.661 14.1305 490.232
1566 0 60.49 12.5971 762 111.814 13.4081 489.378
1567 0 60.4427 13.0206 787 111.518 13.6709 488.165
1568 0 62.4237 12.6074 787 114.771 14.1703 488.597
1569 0 63.3452 12.7397 807 111.74 13.7831 487.919
1570 0 63.3888 12.8887 817 113.125 13.0563 486.815
1571 0 68.3142 13.6282 931 110.663 13.7669 486.198
1572 0 66.4709 13.5247 899 110.396 13.7241 485.16
1573 0 70.3502 13.248 932 111.062 12.7253 483.869
1574 0 74.4088 13.8424 1030 109.692 13.4136 483.735
1575 0 74.4027 13.3732 995 111.002 13.3618 483.371
1576 0 76.4183 12.8111 979 111.09 13.2564 481.224
1577 0 78.3343 13.136 1029 110.724 13.1798 479.114
1578 0 80.2873 12.5798 1010 112.099 12.8287 477.879
1579 1 46.1071 12.883 594 111.796 14.5286 493.323
1580 0 47.1154 13.0318 614 109.35 14.2231 493.168
1581 0 49.1258 13.5977 668 108.638 14.1826 491.569
1582 0 52.1514 13.4225 700 106.831 12.75 490.316
1583 0 51.2637 13.9475 715 107.926 13.1343 491.007
1584 0 53.1646 15.4238 820 109.991 13.1988 490.726
1585 0 56.0293 15.1706 850 118.626 14.3106 490.882
1586 0 56.131 15.1431 850 120.139 13.9635 490.2
1587 0 59.0884 15.2145 899 119.412 14.2692 489.912
1588 0 60.0771 15.2471 916 117.676 14.0688 489.603
1589 0 61.0887 14.8309 906 121.05 14.1358 487.979
1590 0 61.0594 15.5259 948 120.299 14.6255 486.946
1591 0 63.0495 15.4006 971 118.928 13.8517 486.985
1592 0 65.1155 15.5416 1012 116.933 14.0731 486.747
1593 0 67.2039 15.7431 1058 115.405 14.0038 486.031
1594 0 66.2037 15.694 1039 118.749 14.0087 484.06
1595 0 69.1485 15.5029 1072 118.13 13.3134 483.624
1596 0 67.4418 14.7979 998 112.039 11.3427 484.77
1597 0 69.4866 15.0676 1047 113.291 11.0392 483.232
1598 0 70.4081 14.8563 1046 112.797 11.8881 481.04
1599 0 72.4816 14.8727 1078 112.479 11.2625 478.961
1600 0 74.4944 14.8468 1106 112.048 11.5099 477.583
1601 0 78.2708 14.9226 1168 111.041 11.1276 477.414
1602 0 78.5012 14.7896 1161 112.575 11.242 476.237
1603 0 84.4724 14.4663 1222 111.388 11.1825 474.345
1604 0 86.3424 14.512 1253 111.914 11.3073 475.405
1605 0 89.4623 15.3472 1373 109.318 11.4975 472.361
1606 0 90.413 14.7213 1331 110.071 11.7498 473.094
1607 1 48.2925 14.1637 684 113.844 12.7018 490.98
1608 0 48.3431 14.0454 679 113.348 12.3682 489.445
1609 0 52.3783 14.3953 754 111.698 13.0517 488.365
1610 0 53.2954 14.8418 791 112.115 12.9292 486.655
1611 0 53.0773 14.4318 766 109.926 14.141 485.842
1612 0 56.4183 14.8711 839 107.66 12.1621 488.12
1613 0 57.4643 14.7048 845 107.851 12.7314 486.591
1614 0 57.4987 14.6786 844 109.252 11.3472 483.507
1615 0 61.2164 15.9271 975 102.303 13.0051 484.368
1616 0 60.3493 15.2446 920 103.709 12.962 484.186
1617 0 62.3117 14.6682 914 103.711 11.4103 481.771
1618 0 64.3181 15.2523 981 104.442 13.0683 479.818
1619 0 66.1817 15.2459 1009 102.903 11.9802 478.199
1620 0 68.2417 14.2728 974 104.974 12.1427 478.884
1621 0 70.2705 15.1984 1068 103.689 11.2856 479.607
1622 0 72.2377 15.7397 1137 103.697 11.796 479.233
1623 0 74.377 16.2819 1211 102.007 11.9926 477.103
1624 0 77.3845 15.7137 1216 104.48 12.4276 476.16
1625 0 78.3946 15.6516 1227 105.917 12.8623 474.757
1626 0 80.4531 15.3754 1237 106.987 12.2142 474.091
1627 0 83.3755 16.2878 1358 105.071 11.9823 474.284
1628 0 86.2568 16.4741 1421 105.293 12.651 473.548
1629 0 86.3477 15.9008 1373 106.977 12.3212 471.773
1630 0 89.4679 15.9163 1424 108.298 11.7486 470.423
1631 0 93.3886 16.6401 1554 108.582 12.805 469.028
1632 0 97.4614 15.5446 1515 110.079 12.4389 469.502
1633 0 99.3308 15.4836 1538 111.361 12.2861 466.867
1634 1 53.2998 14.1839 756 108.038 11.9299 488.98
1635 0 53.2629 14.8321 790 109.77 12.3177 487.639
1636 0 56.2311 15.7208 884 107.158 12.1652 485.748
1637 0 57.3624 15.7072 901 106.562 12.465 485.455
1638 0 59.4702 15.4363 918 108.044 11.0871 485.785
1639 0 61.283 15.7956 968 109.752 12.9277 483.832
1640 0 63.2938 15.3412 971 109.4 12.4645 482.689
1641 0 65.1731 15.5893 1016 109.211 11.7126 481.047
1642 0 67.346 15.8435 1067 109.638 12.224 481.151
1643 0 69.3005 15.3101 1061 110.55 11.491 479.583
1644 0 72.1734 15.4212 1113 113.187 12.9102 479.779
1645 0 74.1706 15.6126 1158 115.318 12.177 477.077
1646 0 77.2693 15.0254 1161 118.018 12.2877 477.231
1647 0 78.3851 16.1765 1268 116.528 12.3778 476.125
1648 0 80.323 15.0766 1211 118.932 11.7267 474.761
1649 1 44.1015 12.6073 556 114.507 11.9874 494.399
1650 0 46.1642 13.6903 632 112.574 12.8006 493.511
1651 0 46.1769 13.8164 638 114.089 12.7335 492.578
1652 0 50.3626 13.8198 696 112.608 12.5833 491.193
1653 0 50.1247 14.424 723 114.74 12.3375 490.552
1654 0 51.1018 14.9897 766 118.175 12.8825 489.452
1655 0 52.202 14.2332 743 114.58 12.1386 489.326
1656 0 53.3083 14.7257 785 113.999 11.5924 489.171
1657 0 54.3703 14.6404 796 115.302 11.6621 487.602
1658 0 55.2945 15.4807 856 115.671 11.9124 489.16
1659 0 59.4402 15.1244 899 114.412 11.4928 488.473
1660 0 60.429 15.3569 928 113.883 11.4213 487.884
1661 0 63.361 15.7826 1000 112.507 11.599 485.488
1662 0 64.446 14.71 948 115.614 10.8418 486.064
1663 0 66.2921 15.13 1003 115.719 10.5354 481.226
1664 0 69.2473 15.9429 1104 116.029 11.7781 480.807
1665 0 71.2976 14.9093 1063 116.739 11.0865 479.787
1666 0 74.1616 15.4258 1144 116.395 12.25 479.249
1667 0 78.2078 16.226 1269 112.704 11.2317 478.938
1668 0 78.1943 16.0498 1255 116.493 12.2669 477.042
1669 0 80.2479 15.2154 1221 117.342 12.4496 476.342
1670 0 83.1948 15.9265 1325 116.737 12.0189 474.731
1671 0 87.2191 16.7394 1460 117.577 12.7082 472.975
1672 0 91.4995 16.7323 1531 117.483 12.3488 472.251
1673 0 93.2076 17.1016 1594 118.24 11.1531 470.464
1674 0 96.3088 18.6068 1792 117.48 12.0949 468.617
1675 0 100.36 17.9753 1804 116.052 12.3514 466.741
1676 1 49.2882 15.034 741 116.808 12.5317 490.997
1677 0 52.1318 16.0555 837 115.265 11.0812 490.553
1678 0 53.1939 17.2952 920 112.522 11.5609 489.188
1679 0 54.2581 15.1314 821 116.034 10.743 487.896
1680 0 56.289 16.7351 942 115.075 11.9873 488.549
1681 0 58.268 16.2525 947 113.259 11.4984 487.601
1682 0 59.1702 16.4779 975 111.578 11.8441 486.002
1683 0 61.1181 17.3762 1062 108.884 12.4906 484.572
1684 0 61.2136 16.0912 985 112.593 12.5604 485.106
1685 0 62.2908 15.7808 983 112.608 12.3296 483.389
1686 0 65.1523 16.4998 1075 109.995 12.0223 481.756
1687 0 67.2597 16.4437 1106 109.956 12.8716 481.171
1688 0 68.1478 16.1267 1099 108.937 10.9991 481.258
1689 0 71.0989 17.4686 1242 108.553 12.6312 479.729
1690 0 72.3123 16.567 1198 108.522 11.4725 478.437
1691 0 75.2334 16.07 1209 108.988 12.0008 476.017
1692 0 79.259 15.4052 1221 107.66 11.742 473.658
1693 0 80.4531 16.3449 1315 107.934 11.7817 473.012
1694 0 82.3779 15.1497 1248 109.634 11.6058 470.999
1695 0 85.5186 15.9264 1362 107.211 11.152 470.119
1696 0 88.4999 14.9153 1320 110.54 11.4326 469.53
1697 1 46.2928 14.3651 665 105.608 12.1053 491.039
1698 0 48.2855 15.5326 750 103.037 12.456 490.335
1699 0 49.2485 14.3761 708 104.65 12.0692 489.869
1700 0 51.3771 15.3181 787 105.595 12.6747 490.351
1701 0 53.2527 15.3607 818 103.057 11.6846 487.719
1702 0 55.3909 15.5621 862 103.568 12.2378 487.619
1703 0 56.3485 15.5461 876 108.432 10.9053 485.662
1704 0 60.391 16.3435 987 107.048 11.7264 485.424
1705 0 61.2927 15.6789 961 107.89 12.0073 485.468
1706 0 60.1931 15.9653 961 110.544 11.4027 484.263
1707 0 64.2778 15.1841 976 111.658 11.1117 483.974
1708 0 67.298 16.256 1094 110.271 12.4269 482.443
1709 0 68.2062 15.4385 1053 110.867 11.471 481.758
1710 0 72.2003 16.0387 1158 111.351 12.4905 480.297
1711 0 72.4205 16.0866 1165 111.073 12.5253 478.736
1712 0 76.4021 16.3608 1250 109.698 12.5272 477.099
1713 0 77.5011 16.6191 1288 110.203 12.1863 476.12
1714 0 79.3771 17.0578 1354 111.905 13.164 475.141
1715 0 84.4914 16.9366 1431 109.662 12.3291 472.802
1716 0 87.4658 17.2067 1505 108.922 12.4598 472.663
1717 0 89.4096 17.2241 1540 110.561 12.4753 470.183
1718 0 91.45 16.8289 1539 111.186 11.6452 469.285
1719 0 92.5591 17.0918 1582 113.11 12.8129 468.669
1720 0 96.472 16.0668 1550 112.45 11.7813 468.019
1721 0 98.7495 17.5393 1732 112.822 13.3233 465.596
1722 0 101.463 16.548 1679 111.827 11.6724 463.6
1723 0 104.542 16.7684 1753 114.872 13.0964 462.768
1724 0 108.563 15.9906 1736 113.001 10.8439 462.404
1725 0 112.52 16.8059 1891 113.729 12.2163 459.891
1726 0 114.466 16.3717 1874 114.855 11.9749 457.572
1727 0 119.507 16.6434 1989 113.27 11.4429 455.513
1728 0 124.356 16.5814 2062 113.155 11.7565 453.791
1729 0 125.518 16.5633 2079 114.1 11.7951 451.697
1730 0 131.479 16.5654 2178 114.144 11.6662 448.645
1731 0 134.524 16.6811 2244 114.199 11.5695 447.881
1732 0 139.568 16.2072 2262 114.741 12.5469 445.128
1733 0 143.424 15.2973 2194 115.995 11.6841 442.272
1734 0 147.44 16.6644 2457 115.201 11.9552 442.325
1735 0 153.471 16.6221 2551 114.131 12.0706 439.148
1736 0 157.766 16.4484 2595 113.444 11.4258 436.667
1737 0 161.527 18.5232 2992 104.68 11.3793 439.096
1738 0 167.55 16.9143 2834 113.99 12.4086 434.654
1739 0 175.581 16.7159 2935 112.455 11.4797 433.567
1740 0 179.554 15.945 2863 114.349 11.7782 430.263
1741 0 186.48 16.9992 3170 110.895 11.4562 427.266
1742 0 191.65 16.3371 3131 111.568 11.0029 426.44
1743 0 197.696 16.5709 3276 112.041 11.5192 422.333
1744 0 204.509 17.4222 3563 110.069 10.8987 419.637
1745 0 211.569 17.7011 3745 113.24 10.9992 414.317
1746 0 217.596 18.038 3925 114.161 10.9567 411.064
1747 0 224.615 17.9863 4040 114.96 10.8384 406.484
1748 0 234.68 18.2547 4284 112.777 10.2409 404.941
1749 1 181.72 17.2133 3128 115.293 9.78357 430.316
1750 0 186.725 16.7091 3120 116.145 10.0567 424.379
1751 1 62.3996 15.9136 993 113.329 12.0655 486.96
1752 0 66.6816 17.1262 1142 109.156 11.6103 487.997
1753 0 68.3772 18.6466 1275 109.113 12.0259 487.293
1754 0 70.3966 20.1856 1421 104.704 12.1802 490.712
1755 0 74.5121 17.9434 1337 106.622 12.0082 491.07
1756 0 75.4261 17.5006 1320 107.514 11.5189 490.348
1757 0 78.5988 17.9774 1413 106.5 10.7863 488.682
1758 0 80.3991 18.1221 1457 108.513 11.186 487.199
1759 0 84.4721 18.3374 1549 106.529 12.1653 486.631
1760 0 88.3717 18.2072 1609 106.576 12.2275 484.165
1761 1 46.2114 16.3596 756 115.489 12.0595 502.134
1762 0 50.4181 16.5218 833 115.211 12.4598 499.797
1763 0 49.3859 17.8998 884 113.744 11.2998 500.327
1764 0 52.1414 17.3375 904 115.065 11.4635 498.876
1765 0 53.2041 17.6866 941 114.327 11.644 498.429
1766 0 56.316 17.6504 994 116.037 12.6137 497.043
1767 0 58.1394 17.6129 1024 115.705 11.2109 496.425
1768 0 60.334 18.5136 1117 114.963 11.7099 495.1
1769 0 62.383 18.8994 1179 114.187 11.6989 494.225
1770 0 63.2114 17.9715 1136 115.61 10.7201 494.29
1771 0 65.1762 18.5344 1208 115.456 10.7608 494.039
1772 0 67.3071 18.2299 1227 116.568 10.8704 492.455
1773 0 69.1589 18.1177 1253 117.374 11.4669 491.725
1774 0 72.2885 17.776 1285 115.967 10.1626 489.118
1775 0 72.292 18.7434 1355 119.691 11.6162 487.559
1776 0 74.2638 17.7341 1317 119.453 10.2331 487.641
1777 0 77.2199 19.2696 1488 118.174 10.6425 485.499
1778 0 78.267 18.8457 1475 119.93 10.9037 485.122
1779 0 81.3762 18.7524 1526 119.751 12.2366 483.927
1780 0 83.3745 18.5189 1544 118.696 11.0538 482.567
1781 0 85.3004 17.4091 1485 123.455 11.2606 479.558
1782 1 46.1025 13.5351 624 121.593 11.1218 499.46
1783 0 48.1753 14.9247 719 116.769 11.3046 500.42
1784 0 50.205 15.5961 783 115.255 11.318 497.953
1785 0 51.1239 16.1177 824 113.411 11.9187 497.118
1786 0 53.2177 15.7842 840 112.074 11.8488 497.193
1787 0 52.0463 15.6207 813 114.729 11.6667 498.582
1788 0 53.1487 15.5413 826 115.994 12.1998 497.271
1789 0 56.1351 15.5518 873 114.581 11.3826 497.016
1790 0 55.1516 15.7566 869 116.356 11.4246 496.411
1791 0 59.2417 16.1542 957 113.643 12.0763 495.76
1792 0 61.1976 15.5562 952 113.738 11.0966 495.014
1793 0 62.1402 16.334 1015 115.172 11.5153 494.19
1794 0 64.4762 17.014 1097 112.289 11.3783 493.421
1795 0 67.1498 16.5302 1110 113.133 11.1991 492.928
1796 0 67.1878 16.3125 1096 114.228 10.8376 491.931
1797 0 69.2582 16.7056 1157 114.798 11.1167 489.568
1798 0 72.3072 15.8076 1143 116.165 10.9563 488.272
1799 0 75.3096 15.9873 1204 112.724 10.936 488.13
1800 0 76.2868 15.6646 1195 113.541 10.5774 487.285
1801 0 80.2571 17.8177 1430 109.617 11.6392 484.873
1802 0 83.1201 15.8927 1321 109.949 10.1166 483.548
1803 0 86.5112 16.0904 1392 109.614 10.0682 482.932
1804 0 86.3771 15.8375 1368 111.413 10.6879 481.477
1805 0 90.3762 16.0883 1454 108.541 10.7627 479.378
1806 0 90.5021 16.4195 1486 108.892 11.3102 479.063
1807 0 95.5302 15.5448 1485 107.314 10.7704 478.349
1808 0 98.5877 14.9816 1477 106.699 10.2261 475.662
1809 0 104.466 16.4647 1720 103.398 11.2895 473.274
1810 1 56.0705 14.0537 788 102.718 9.60787 495.582
1811 0 59.0906 15.9585 943 98.9396 10.0498 492.243
1812 0 60.3426 14.8983 899 101.452 11.9878 492.042
1813 0 62.2373 14.9107 928 101.552 12.4062 489.822
1814 0 64.2975 15.5527 1000 100.568 12.243 488.072
1815 0 66.2741 15.5717 1032 100.096 12.4302 487.031
1816 0 67.2539 14.6609 986 101.07 12.4158 487.347
1817 0 71.4842 15.2062 1087 98.8234 12.3533 485.328
1818 0 74.3841 14.2369 1059 99.0935 12.1369 484.495
1819 0 75.3747 15.1642 1143 96.1654 12.1557 483.059
1820 0 78.6351 15.1332 1190 94.205 11.784 481.742
1821 0 78.2855 14.2683 1117 96.4933 12.5944 483.331
1822 0 79.3791 13.2907 1055 97.4597 11.6512 481.152
1823 0 82.4138 15.0824 1243 94.8882 12.4722 479.512
1824 0 86.3141 14.6094 1261 94.2728 12.927 479.104
1825 0 86.2564 12.9382 1116 96.5018 12.4104 477.856
1826 0 91.4499 14.3467 1312 94.0595 12.4162 473.663
1827 0 93.2644 12.8881 1202 95.5133 12.4077 472.804
1828 0 97.2498 13.9949 1361 94.1381 12.4166 471.113
1829 0 100.449 12.7726 1283 95.908 12.0421 468.968
1830 0 101.434 11.8303 1200 96.5408 12.7392 468.58
1831 1 50.3237 12.6779 638 94.9169 12.6034 491.768
1832 0 51.4097 13.441 691 95.4631 12.3748 491.292
1833 0 54.5093 14.2544 777 95.175 12.2214 492.088
1834 0 55.451 12.9484 718 99.3691 12.7758 490.248
1835 0 57.6733 13.4378 775 97.7174 12.6452 490.511
1836 0 59.4288 12.1995 725 95.0262 12.2138 489.986
1837 0 63.3142 14.199 899 96.9566 12.4505 486.369
1838 0 65.2966 13.1707 860 99.9233 12.45 484.506
1839 0 68.3662 14.32 979 98.0695 12.1307 485.446
1840 0 73.5151 14.9085 1096 96.9033 12.6861 485.735
1841 0 76.5287 14.3084 1095 99.5927 12.5342 484.133
1842 0 77.5829 14.2557 1106 100.151 12.5271 484.031
1843 0 80.6374 14.4846 1168 97.9007 12.2697 482.199
1844 0 82.7112 14.0851 1165 99.2103 12.5957 479.638
1845 0 87.6687 14.3267 1256 100.061 12.2253 477.884
1846 0 89.4815 14.9752 1340 99.8201 13.1731 475.772
1847 0 92.6772 13.7358 1273 100.668 11.8523 474.248
1848 0 97.6055 16.0647 1568 99.757 12.7366 473.381
1849 0 99.4437 13.6057 1353 101.811 11.8596 472.475
1850 1 51.1495 12.4732 638 97.0047 12.8041 495.179
1851 0 52.1616 12.1545 634 98.4779 11.9558 492.674
1852 0 54.0423 12.8603 695 95.2547 10.8374 491.009
1853 0 55.1381 12.7498 703 95.5747 11.0882 491.582
1854 0 57.0418 12.6749 723 95.8506 10.278 489.454
1855 0 59.0611 12.8003 756 95.7579 10.9418 489.279
1856 0 60.0987 12.363 743 97.5666 10.459 488.794
1857 0 61.0683 11.4626 700 90.3414 11.1529 487.333
1858 0 62.0495 11.652 723 91.5159 10.6611 484.999
1859 0 63.0478 11.6737 736 91.7921 10.2283 484.071
1860 0 66.1484 12.865 851 91.1692 11.2409 482.201
1861 0 69.039 11.5732 799 92.3354 10.7509 482.345
1862 0 69.1373 12.0919 836 94.0323 11.0861 481.628
1863 0 74.0981 12.7129 942 91.2495 11.0403 482.671
1864 0 78.2389 13.4332 1051 91.2245 11.3796 480.304
1865 0 77.0677 12.8069 987 92.8551 11.4225 478.996
1866 0 81.1022 13.0453 1058 94.0586 10.8025 478.177
1867 0 83.0687 13.2059 1097 94.5779 11.2197 476.568
1868 0 87.0858 12.9527 1128 96.5222 11.4371 475.539
1869 0 91.0785 13.5378 1233 94.1452 11.2652 474.87
1870 0 94.0855 13.8172 1300 94.8638 10.6469 474.516
1871 0 97.1795 14.962 1454 96.784 11.3762 470.98
1872 0 100.136 14.1907 1421 96.1534 10.0035 470.018
1873 1 54.0964 11.9971 649 90.4961 10.8105 494.792
1874 0 54.1324 11.6566 631 91.7084 11.309 494.876
1875 0 54.1647 13.422 727 92.011 11.7387 492.67
1876 0 56.2144 12.9504 728 94.9107 13.7569 492.985
1877 0 57.3064 13.2272 758 94.9446 12.5567 491.012
1878 0 59.3089 14.3655 852 93.3779 13.8838 491.448
1879 0 59.3481 12.9574 769 95.857 12.9727 490.173
1880 0 62.2884 13.6623 851 94.3055 13.2609 489.231
1881 0 62.2308 13.7231 854 94.7916 12.4578 487.944
1882 0 64.2594 14.7838 950 93.5663 13.5642 486.101
1883 0 67.2127 14.3872 967 93.1241 13.4219 485.555
1884 0 69.2469 13.979 968 93.2624 12.0548 484.92
1885 0 69.3471 14.5356 1008 93.3442 10.2738 484.884
1886 0 72.3248 14.7667 1068 94.6039 11.0693 484.39
1887 0 76.3295 15.0532 1149 91.4848 11.2263 483.977
1888 0 77.3029 14.7601 1141 95.2813 11.7353 483.118
1889 0 79.289 15.0714 1195 94.8962 11.7707 481.299
1890 0 81.4229 14.3203 1166 96.4099 10.6835 481.04
1891 0 81.305 14.833 1206 98.3665 11.0721 478.862
1892 0 85.2597 15.6228 1332 99.2583 12.0143 479.598
1893 0 88.3824 16.1797 1430 100.05 11.2 477.738
1894 0 91.3603 16.123 1473 100.776 11.0862 476.886
1895 0 94.2134 16.8554 1588 100.193 10.8029 476.528
1896 0 96.2292 17.105 1646 101.628 10.5936 474.834
1897 0 98.234 16.8984 1660 104.087 10.9102 473.992
1898 0 101.227 17.8214 1804 101.227 11.0127 471.585
1899 0 102.273 16.9546 1734 101.958 12.3887 471.146
1900 0 108.286 16.5487 1792 102.179 12.1295 469.54
1901 0 109.448 18.2918 2002 102.838 13.3666 467.746
1902 1 56.1753 12.4432 699 102.423 13.0272 496.15
1903 0 57.1922 13.0088 744 101.878 13.5914 492.841
1904 0 59.2321 13.7932 817 99.6487 13.7772 494.213
1905 0 59.1259 13.5305 800 103.285 12.7738 492.495
1906 0 62.1007 13.5103 839 103.232 14.6138 491.757
1907 0 66.2111 13.0492 864 101.198 12.4491 491.77
1908 0 66.179 14.8839 985 101.91 13.7452 489.089
1909 0 67.1606 13.5943 913 104.146 12.2333 489.314
1910 0 70.1216 15.1451 1062 102.621 13.4991 488.345
1911 0 71.1405 13.8599 986 105.649 12.0659 486.86
1912 0 73.2434 15.5509 1139 104.413 13 484.731
1913 0 74.2074 15.0389 1116 106.18 12.5609 483.251
1914 0 76.2364 15.4519 1178 105.885 13.3905 485.042
1915 0 79.2667 15.2649 1210 106.946 12.476 482.498
1916 0 81.3787 15.434 1256 107.944 10.5175 482.967
1917 0 82.2536 16.0601 1321 109.37 11.4141 480.84
1918 0 85.3232 15.0018 1280 103.066 11.0969 480.086
1919 0 88.3664 14.7228 1301 104.042 11.2068 480.37
1920 0 91.3407 15.2396 1392 103.536 11.3125 478.458
1921 0 93.2699 14.3133 1335 106.828 10.633 477.13
1922 0 97.4335 14.6664 1429 106.816 11.2477 475.796
1923 0 99.3001 15.1863 1508 106.92 10.7513 472.759
1924 0 101.332 15.0003 1520 109.976 10.5822 474.66
1925 0 106.276 15.5445 1652 107.492 10.6786 470.131
1926 1 53.2096 11.746 625 106.251 10.8096 494.907
1927 0 55.1754 13.8467 764 101.616 11.8312 494.008
1928 0 57.1602 14.1007 806 107.258 11.4256 494.854
1929 0 60.1877 15.0529 906 105.129 11.7329 493.083
1930 0 61.1661 15.0083 918 103.472 11.0087 493.162
1931 0 65.2076 15.0749 983 103.203 10.3306 492.159
1932 0 65.2489 15.4485 1008 105.391 11.8512 490.004
1933 0 68.1707 14.7717 1007 103.643 10.7607 489.298
1934 0 70.1486 16.0659 1127 103.879 11.244 486.738
1935 0 72.3493 15.2593 1104 103.477 11.5743 486.758
1936 0 71.1926 15.437 1099 105.155 11.01 484.372
1937 0 77.2289 15.5641 1202 101.493 11.0857 484.409
1938 0 78.2195 15.0857 1180 95.4381 10.2847 483.838
1939 0 78.1433 14.8829 1163 96.4746 10.0387 481.413
1940 0 82.0942 14.0205 1151 97.6212 9.73241 481.845
1941 0 85.1294 14.9655 1274 96.6334 9.22135 480.44
1942 0 85.1027 15.3462 1306 99.33 8.87902 476.313
1943 0 89.1151 14.24 1269 100.171 8.83846 476.696
1944 0 94.1614 15.9513 1502 98.8549 9.46272 472.991
1945 0 96.1776 16.012 1540 102.183 10.5091 472.728
1946 0 102.161 14.6729 1499 103.171 10.0674 471.631
1947 0 102.171 15.3077 1564 103.054 10.9783 469.374
1948 0 109.112 15.3145 1671 101.773 10.1544 466.898
1949 1 54.0327 11.7706 636 98.6022 9.60535 494.327
1950 0 57.0314 13.5364 772 96.1399 8.59715 492.162
1951 0 60.0798 14.7304 885 99.7288 10.278 490.366
1952 0 59.0778 12.9321 764 93.9948 9.48691 490.944
1953 0 61.1135 13.434 821 93.1194 9.52619 489.044
1954 0 64.066 14.0012 897 91.7726 9.67224 489.315
1955 0 67.0825 14.1318 948 90.9778 8.44093 488.025
1956 0 69.1023 14.0516 971 92.2739 8.65499 486.795
1957 0 72.1143 15.1981 1096 90.7117 9.81204 484.209
1958 0 73.081 13.4919 986 92.9381 9.94929 484.208
1959 0 78.0687 14.167 1106 91.1682 9.53978 483.555
1960 0 81.3008 14.7108 1196 91.5 9.99331 483.242
1961 0 83.1945 14.388 1197 91.5823 10.7226 483.76
1962 0 86.2535 14.5617 1256 91.0446 9.73408 480.93
1963 0 89.2604 15.1803 1355 91.9609 10.1306 479.562
1964 0 91.1897 14.3328 1307 93.2647 10.557 478.375
1965 0 94.3837 13.1061 1237 94.772 10.4446 476.211
1966 1 50.3102 12.5621 632 92.3212 10.0902 501.408
1967 0 51.3211 14.5554 747 98.0402 11.6345 501.091
1968 0 52.3929 13.7423 720 97.3528 11.7611 499.935
1969 0 53.2969 13.922 742 98.1779 11.9016 500.709
1970 0 55.3485 14.3816 796 96.6043 11.6332 498.695
1971 0 56.3487 14.57 821 95.8575 11.4714 498.227
1972 0 57.2305 14.0135 802 98.8691 12.0349 496.83
1973 0 59.3013 14.772 876 97.0411 11.5925 495.99
1974 0 59.3191 14.0427 833 99.8727 11.8872 494.848
1975 0 63.3683 14.4552 916 98.6266 11.2609 492.424
1976 0 65.2999 15.1914 992 97.5585 11.9153 491.716
1977 0 67.2727 15.1176 1017 96.2724 11.1111 489.45
1978 0 69.229 15.5426 1076 97.9851 11.8336 489.205
1979 0 73.3134 15.6452 1147 95.9451 11.0881 489.61
1980 0 74.2183 15.9664 1185 99.3629 11.4 487.684
1981 0 76.2901 15.5984 1190 100.013 10.3076 486.979
1982 0 79.1848 16.1268 1277 101.236 10.8919 485.61
1983 0 81.2458 14.9792 1217 102.753 11.1413 483.086
1984 1 45.2158 13.5793 614 97.1189 10.5619 504.891
1985 0 44.2113 13.7974 610 99.341 9.12131 503.187
1986 0 46.1902 14.5486 672 91.6815 9.375 501.317
1987 0 47.3416 14.5538 689 103.601 10.3585 502.717
1988 0 47.2495 13.6086 643 107.919 11.0964 500.392
1989 0 50.2596 14.4649 727 107.354 11.1761 500.618
1990 0 52.2209 14.2663 745 106.384 10.1154 500.044
1991 0 52.2569 14.3139 748 109.913 10.1885 500.273
1992 0 54.1481 13.7955 747 109.909 10.6171 498.395
1993 0 55.2322 14.955 826 109.361 9.96247 499.439
1994 0 56.2721 14.0212 789 110.304 10.4233 497.061
1995 0 59.192 13.8363 819 110.004 10.8266 496.115
1996 0 59.1987 15.4058 912 109.451 10.193 494.53
1997 0 62.2612 14.4392 899 110.516 10.7864 494.228
1998 0 62.1296 15.3872 956 110.491 11.5858 493.275
1999 0 64.1422 14.92 957 109.582 11.2163 491.29
2000 0 65.247 15.3417 1001 108.556 9.78921 491.752
2001 0 67.1467 15.2204 1022 109.968 10.8924 490.052
2002 0 69.1532 15.4729 1070 108.354 9.63645 489.067
2003 0 73.2057 15.395 1127 108.41 9.43833 488.098
2004 0 74.1686 16.4895 1223 108.277 9.60016 486.76
2005 0 76.1711 16.6992 1272 107.504 9.67374 485.602
2006 0 79.1802 16.2541 1287 106.65 9.26962 483.303
2007 0 80.233 14.757 1184 107.887 8.90034 481.174
2008 0 84.1504 14.8543 1250 109.012 9.6016 479.163
