time division length width area intensity CMx CMy
0 0 38.1836 12.8327 490 117.986 1018.61 503.265
1 0 38.1253 12.5376 478 118.464 1018.29 502.056
2 0 40.0737 13.001 521 113.94 1018.62 503.852
3 0 41.1924 12.7936 527 113.994 1018.7 503.315
4 0 42.1337 12.4129 523 113.868 1018.06 502.989
5 0 42.1337 12.4841 526 131.77 1018.07 502.838
6 0 43.1159 12.362 533 112.94 1018.33 502.426
7 0 44.1143 13.0343 575 110.252 1018.07 501.767
8 0 45.0927 12.7515 575 109.623 1018.12 501.586
9 0 46.0786 13.1731 607 109.315 1017.57 499.43
10 0 48.1173 12.4695 600 108.692 1017.58 500.532
11 0 49.0821 12.9986 638 108.257 1017.22 499.171
12 0 51.1233 13.1838 674 106.328 1016.51 498.481
13 0 53.1239 13.3273 708 103.764 1016.61 497.864
14 0 54.1323 12.5618 680 105.206 1016.55 495.388
15 0 55.1834 13.4642 743 103.015 1017.35 495.515
16 0 58.0921 13.2032 767 101.92 1016.66 496.696
17 0 61.2093 13.6254 834 100.013 1016.41 492.866
18 0 61.1496 13.1481 804 101.082 1016.29 495.223
19 0 63.1554 13.4272 848 99.7972 1015.72 492.324
20 0 66.1622 13.1797 872 99.3073 1015.85 491.489
21 0 67.181 13.1287 882 99.4048 1016.41 489.819
22 0 68.1992 13.4459 917 98.8222 1015.88 486.39
23 0 69.3015 13.3619 926 98.378 1015.91 485.932
24 0 70.1433 12.9164 906 98.713 1015.42 485.347
25 0 73.3199 12.6159 925 98.6432 1015.36 485.441
26 0 77.2191 12.9243 998 94.49 1015.63 480.671
27 0 81.1605 13.1221 1065 94.4535 1015.55 479.486
28 0 83.1371 13.2793 1104 93.5163 1014.87 480.277
29 0 84.2191 12.9306 1089 93.8678 1015.02 480.949
30 0 89.2611 12.6819 1132 94.0972 1015.36 479.307
31 0 90.3242 13.1415 1187 92.4052 1015.69 479.639
32 0 93.3987 12.2272 1142 93.2522 1015.2 478.107
33 0 97.3996 12.8851 1255 89.6064 1014.93 475.047
34 1 53.2186 11.0863 590 83.2932 1015.12 498.068
35 0 56.0921 13.05 732 85.1434 1015.06 500.195
36 0 58.2362 13.3422 777 83.9035 1015.51 498.176
37 0 61.1303 13.4794 824 84.233 1015.26 496.393
38 0 63.1848 12.9936 821 85.877 1015.38 494.348
39 0 65.1919 12.793 834 86.9556 1015.29 493.255
40 0 68.178 13.5087 921 86.1813 1015.35 491.574
41 0 69.1961 13.6279 943 86.8929 1014.98 490.979
42 0 71.1468 13.2965 946 88.4218 1015.29 489.887
43 0 75.158 13.2521 996 89.1938 1014.69 486.734
44 0 77.1293 13.3672 1031 89.0873 1014.91 484.958
45 0 81.1451 13.137 1066 87.0947 1014.59 483.38
46 0 82.2038 13.3692 1099 94.2093 1014.89 482.352
47 0 86.2151 13.1531 1134 94.9921 1014.19 478.615
48 0 88.1698 12.7141 1121 95.3488 1014 478.996
49 0 91.1288 13.3437 1216 91.5033 1013.71 478.665
50 0 96.211 13.169 1267 89.4538 1013.98 476.286
51 0 97.1245 12.4788 1212 91.6601 1014.16 474.614
52 0 101.114 12.6392 1278 90.0063 1013.77 473.696
53 1 51.06 10.7325 548 88.0547 1013.87 499.308
54 0 53.1471 10.9319 581 87.6162 1014.23 496.256
55 0 54.1087 11.366 615 84.6179 1014.69 497.125
56 0 57.1016 12.1713 695 78.7468 1015.31 495.164
57 0 56.0757 11.3775 638 80.4592 1015.6 494.359
58 0 57.0624 11.5312 658 80.5669 1014.93 493.249
59 0 59.0237 11.4361 675 82.2089 1015.32 490.467
60 0 63.0489 10.8646 685 81.5022 1016.11 488.991
61 0 66.098 11.7704 778 77.4846 1015.08 487.508
62 0 68.0974 11.836 806 76.9901 1015.17 487.703
63 0 71.1252 11.8805 845 77.5314 1014.91 486.876
64 0 73.1872 11.8327 866 78.4492 1014.58 487.271
65 0 75.1048 11.3841 855 79.5193 1015.25 485.11
66 0 81.1791 12.3677 1004 77.2849 1015.58 484.16
67 0 83.1321 12.438 1034 79.0338 1015.53 483.336
68 0 85.1575 12.4945 1064 78.8318 1015.35 481.715
69 0 90.2992 13.2338 1195 77.0636 1015.97 479.581
70 0 92.1149 12.517 1153 78.5143 1015.3 477.479
71 0 95.1318 12.4564 1185 77.6203 1015.35 478.713
72 1 49.0796 11.3693 558 78.2903 1016.03 501.297
73 0 51.146 11.8093 604 74.0149 1014.66 500.531
74 0 52.1753 11.4422 597 73.6884 1014.87 499.462
75 0 54.1701 11.9808 649 72.3205 1014.85 498.661
76 0 56.1966 11.7623 661 72.4539 1014.28 497.676
77 0 55.1097 10.9237 602 74.5498 1014.31 497.296
78 0 58.1602 11.5027 669 72.3453 1014.93 497.32
79 0 63.1027 12.4083 783 70.4994 1015.09 495
80 0 64.1537 12.6259 810 70.7333 1015.39 495.201
81 0 66.058 12.5798 831 71.0277 1015.43 493.596
82 0 67.1373 11.5584 776 73.5116 1015.27 492.101
83 0 69.1953 11.7204 811 72.7053 1015.23 491.333
84 0 73.194 12.3371 903 73.2879 1015.6 489.288
85 0 76.1238 12.0593 918 74.1656 1015.38 489.472
86 0 77.2206 13.1571 1016 72.501 1015.7 487.251
87 0 78.1714 11.5899 906 77.7715 1015.65 486.81
88 0 84.1412 12.3839 1042 77.0547 1015.67 485.828
89 0 85.1374 12.6619 1078 79.0167 1016.43 483.411
90 0 88.1533 11.9451 1053 81.3419 1015.65 482.367
91 0 91.0957 12.5143 1140 80.343 1015.78 480.539
92 0 95.1399 12.4343 1183 79.8715 1015.82 478.347
93 1 51.0582 10.9679 560 78.0375 1016.64 501.766
94 0 52.0631 11.4477 596 78.3322 1016.34 501.215
95 0 55.1165 11.8113 651 77.1843 1015.68 498.811
96 0 54.223 11.9875 650 76.6262 1015.65 501.074
97 0 56.1913 11.7812 662 76.6239 1015.7 500.468
98 0 57.1413 11.3578 649 75.7735 1015.4 500.351
99 0 59.1989 11.1995 663 76.8793 1015.24 498.267
100 0 59.1989 11.1657 661 127.785 1014.24 498.331
101 0 65.2171 12.3281 804 76.2973 1015.61 496.299
102 0 69.3142 12.566 871 75.0896 1015.85 494.869
103 0 70.292 12.3912 871 75.9598 1015.57 493.753
104 0 72.241 12.0984 874 78.6224 1015.57 490.468
105 0 74.2709 12.1313 901 78.131 1015.99 489.676
106 0 79.246 11.988 950 81.0389 1015.77 487.922
107 0 80.2784 11.8089 948 83.4778 1015.77 485.145
108 0 83.3021 12.0525 1004 81.746 1015.24 484.875
109 0 85.2158 11.8053 1006 82.6571 1015.25 483.654
110 1 46.0385 10.7084 493 78.3732 1017.57 504.176
111 0 47.0514 10.5417 496 78.3306 1016.52 503.819
112 0 50.0633 10.9262 547 76.841 1017.15 504.271
113 0 49.1123 10.9748 539 77.0482 1017.37 502.516
114 0 51.3285 11.2024 575 76.8574 1016.85 498.99
115 0 49.1304 10.5434 518 71.9788 1015.38 501.525
116 0 51.1413 10.8914 557 71.9569 1015.3 501.408
117 0 52.1214 9.80404 511 73.6067 1014.84 500.746
118 0 53.1695 10.7204 570 72.8632 1015.7 500.6
119 0 56.158 10.4883 589 74.5467 1015.56 498.538
120 0 56.1408 10.5093 590 74.5847 1015.16 498.093
121 0 57.2625 10.1986 584 76.6747 1015.81 495.152
122 0 61.2368 10.0103 613 76.8679 1016.43 496.628
123 0 61.152 11.1198 680 77.3941 1016.89 494.571
124 0 62.2506 10.7951 672 75.1399 1016.75 494.452
125 0 66.2046 10.4827 694 75.9957 1016.59 492.258
126 0 69.2382 10.24 709 74.3597 1015.9 492.52
127 0 69.2081 9.91213 686 76.9227 1015.78 490.605
128 0 72.2593 11.0159 796 77.1583 1015.52 489.072
129 0 75.1786 11.6921 879 75.6826 1015.62 488.531
130 0 76.2537 10.6618 813 78.0615 1015.61 486.579
131 0 82.1874 11.4738 943 76.4433 1015.54 484.439
132 0 84.2479 10.9795 925 77.4022 1015.19 483.456
133 1 45.0189 9.68483 436 76.6995 1015.49 502.81
134 0 47.0708 10.601 499 73.8958 1015.25 502.633
135 0 47.1237 10.674 503 73.3698 1013.98 501.406
136 0 47.2572 10.5804 500 72.254 1014.98 501.876
137 0 47.1724 10.133 478 73.0418 1014.71 502.207
138 0 49.1053 10.0397 493 73.5051 1014.98 501.815
139 0 49.1824 9.90191 487 74.6674 1014.95 501.359
140 0 52.2377 10.2033 533 73.8968 1014.84 501.105
141 0 53.1992 10.5641 562 74.4644 1014.57 499.786
142 0 56.2743 10.9642 617 73.919 1015.34 500.238
143 0 57.2494 11.1442 638 75.5987 1015.27 499.204
144 0 58.2657 11.2073 653 75.3675 1015.15 497.548
145 0 60.3061 11.5411 696 78.3649 1015.08 495.961
146 0 61.254 10.987 673 76.6003 1014.9 497.19
147 0 64.3262 11.3484 730 80.2685 1014.81 495.275
148 0 66.2198 11.5524 765 77.7072 1014.71 494.503
149 0 69.2204 12.0485 834 78.8789 1015.15 492.839
150 0 71.2776 11.5885 826 81.3087 1014.98 492.431
151 0 73.1783 11.9434 874 79.3158 1014.6 491.114
152 0 75.2451 12.0672 908 81.3756 1014.64 489.838
153 0 79.1523 12.5833 996 82.0793 1014.41 487.877
154 0 79.3152 11.4354 907 84.6604 1014.12 487.407
155 0 83.2485 12.5888 1048 82.8931 1014.33 486.512
156 0 88.1685 12.2152 1077 83.1653 1014.04 484.085
157 1 47.0244 10.9092 513 81.7719 1015.93 504.419
158 0 49.032 11.5435 566 83.1625 1016.16 503.371
159 0 51.0231 11.681 596 83.0671 1016.18 502.961
160 0 48.1497 11.4435 551 82.9873 1014.5 504.693
161 0 51.088 11.353 580 83.3793 1013.81 503.371
162 0 52.1942 11.3614 593 83.0911 1013.5 502.027
163 0 54.09 11.6103 628 84.0685 1013.27 501.572
164 0 55.1103 11.5586 637 84.2433 1013.24 499.644
165 0 57.1517 12.2306 699 83.3548 1013.73 500.825
166 0 59.0443 12.4483 735 83.215 1012.46 498.305
167 0 60.1394 12.0054 722 84.7645 1013.29 498.108
168 0 60.1198 11.7931 709 86.6361 1013.69 496.365
169 0 63.0879 12.5222 790 84.6506 1014.29 494.616
170 0 65.1324 12.0831 787 85.3571 1014.33 494.197
171 0 68.0924 12.4243 846 83.234 1014.72 493.284
172 0 70.1099 12.7799 896 81.8326 1013.86 492.106
173 0 70.1663 12.2281 858 83.1352 1014.29 490.6
174 0 75.2793 12.6728 954 79.5608 1014.85 488.797
175 0 77.2096 12.8222 990 79.8131 1015.25 487.291
176 0 77.1256 12.0842 932 81.3573 1014.61 487.395
177 0 80.2174 12.9648 1040 79.5038 1015.27 486.562
178 0 84.182 12.5086 1053 80.943 1015.45 484.686
179 0 87.2211 12.0957 1055 80.6133 1015.58 483.761
180 0 89.2289 12.3839 1105 79.5457 1014.76 481.509
181 0 94.2339 13.3498 1258 77.0906 1014.91 480.398
182 0 97.178 12.3999 1205 77.6199 1014.04 479.354
183 0 100.16 12.3702 1239 82.268 1014.43 476.282
184 1 54.0336 10.8451 586 77.2986 1015.94 500.539
185 0 55.1075 12.1218 668 78.7096 1014.19 499.999
186 0 56.2395 12.4112 698 76.2135 1015.13 496
187 0 57.1428 12.915 738 76.8401 1014.49 496.724
188 0 60.2493 12.4483 750 78.872 1014.23 497.185
189 0 61.1735 12.4073 759 79.2767 1013.82 496.145
190 0 61.3298 12.1148 743 81.035 1013.77 493.969
191 0 63.1743 11.682 738 75.8062 1013.67 494.285
192 0 65.2312 11.3596 741 75.6667 1013.4 493.468
193 0 67.2015 11.9343 802 74.5324 1013.7 494.206
194 0 69.2566 11.6523 807 76.2342 1013.83 491.585
195 0 71.3358 11.3127 807 77.9876 1013.62 489.606
196 0 73.2315 11.7846 863 78.2966 1014.1 488.441
197 0 76.2466 12.276 936 78.0577 1013.35 486.064
198 0 79.22 12.1055 959 79.3858 1013.6 485.705
199 0 81.226 12.0528 979 80.0439 1013.21 484.078
200 0 84.3154 12.3584 1042 80.9155 1013.65 482.922
201 0 88.285 12.8108 1131 81.473 1012.95 482.257
202 0 91.2156 12.4321 1134 106.534 1013.11 480.325
203 1 48.0459 10.4691 503 103.014 1014.11 502.851
204 0 50.0207 11.0954 555 102.503 1013.43 499.915
205 0 51.0128 10.4288 532 103.169 1013.25 500.12
206 0 51.0135 10.4482 533 122.068 1013.23 500.026
207 0 56.1126 12.1007 679 100.513 1012.78 497.672
208 0 55.0486 12.1529 669 99.7444 1011.83 499.111
209 0 57.0493 12.0072 685 101.349 1012.59 498.069
210 0 59.132 11.7534 695 101.335 1012.48 497.774
211 0 60.0994 12.3629 743 100.118 1012.56 496.61
212 0 62.1114 11.898 739 100.755 1012.48 496.442
213 0 65.067 12.3257 802 100.191 1012.4 495.312
214 0 67.186 11.8924 799 99.9312 1013.01 493.572
215 0 70.1092 12.7373 893 97.6719 1013.13 493.001
216 0 72.2336 12.5842 909 100.816 1014.11 489.642
217 0 74.3009 12.7051 944 101.512 1013.35 489.101
218 0 76.2268 12.3447 941 102.592 1013.4 488.617
219 0 78.2202 13.5131 1057 100.115 1012.5 486.993
220 0 80.1667 12.9605 1039 101.814 1012.91 485.911
221 0 81.1722 12.8 1039 103.193 1012.72 484.887
222 0 87.199 13.429 1171 101.473 1013.35 484.305
223 0 87.1374 13.4271 1170 104.291 1012.06 480.102
224 0 89.1845 13.4552 1200 105.755 1011.94 478.082
225 0 93.102 13.9847 1302 103.654 1011.76 477.128
226 0 98.0964 13.9964 1373 102.149 1012.41 476.605
227 0 101.195 13.4591 1362 104.214 1011.64 472.254
228 0 101.116 12.5796 1272 103.749 1012.91 468.447
229 1 54.0439 9.97338 539 91.7347 1012.34 495.499
230 0 57.0633 11.4785 655 97.4015 1013.98 498.214
231 0 60.2021 12.076 727 91.0358 1012.92 498.158
232 0 61.1693 12.0812 739 91.9134 1013.2 498.303
233 0 63.1637 12.2855 776 92.0322 1013.16 497.893
234 0 64.1659 12.0001 770 99.8312 1012.32 495.294
235 0 67.1758 11.9537 803 92.6413 1012.58 493.991
236 0 71.2178 12.6935 904 91.4845 1012.47 492.158
237 0 73.3217 11.77 863 101.424 1012.76 491.891
238 0 75.3245 11.9616 901 100.61 1013.13 490.469
239 0 75.2246 11.3128 851 102.288 1012.28 488.246
240 0 77.2216 11.59 895 145.611 1011.25 487.314
241 0 82.2626 10.9041 897 99.4404 1012.66 485.62
242 0 86.1237 11.7854 1015 95.2158 1012.85 486.005
243 0 88.3205 12.2055 1078 97.4907 1011.66 483.641
244 1 44.103 10.5435 465 86.5226 1012.7 508.378
245 0 46.0923 11.0865 511 85.5969 1012.53 505.458
246 0 46.0649 11.0062 507 86.7653 1012.77 505.219
247 0 46.1359 11.7262 541 84.0185 1011.01 504.784
248 0 48.0943 11.2903 543 84.14 1011.57 504.698
249 0 47.1687 11.0243 520 86.0462 1011.12 505.417
250 0 48.2603 10.9407 528 84.8712 1011.67 505.331
251 0 50.1926 10.8781 546 85.3114 1011.96 503.734
252 0 51.2876 10.9968 564 84.6259 1011.99 503.741
253 0 51.2285 11.4194 585 85.559 1011.84 503.297
254 0 53.2248 11.179 595 85.9966 1011.74 502.017
255 0 56.2221 11.1522 627 87.1882 1011.64 500.517
256 0 55.2825 10.7448 594 88.0606 1011.76 500.734
257 0 59.2022 12.1448 719 86.5981 1012.04 498.565
258 0 59.1489 10.4651 619 88.1729 1012.39 499.247
259 0 61.1859 11.13 681 87.6329 1011.55 497.338
260 0 62.1596 11.3418 705 87.4539 1012.4 496.285
261 0 63.2207 11.2463 711 89.3586 1012.22 495.509
262 0 66.1852 11.211 742 90.7008 1012.39 493.438
263 0 68.1724 10.7668 734 91.5272 1011.77 495.635
264 0 73.2182 11.9779 877 89.7719 1012.21 492.445
265 0 75.2969 12.391 933 89.5831 1012.33 489.852
266 0 76.2109 12.098 922 92.1985 1012.25 489.454
267 0 78.1385 11.6716 912 93.9068 1011.62 488.075
268 0 80.1968 11.9955 962 93.7744 1011.65 487.871
269 0 80.1701 11.8623 951 95.756 1011.88 485.866
270 0 85.1705 12.1756 1037 93.8824 1011.23 486.077
271 0 87.1501 11.3941 993 93.7503 1011.5 484.699
272 0 90.1483 12.1023 1091 93 1010.59 482.515
273 0 92.1161 11.7243 1080 93.2694 1011.14 481.241
274 0 96.1587 12.0322 1157 93.3051 1010.87 477.382
275 0 99.1578 11.9607 1186 94.1484 1010.9 476.987
276 0 101.144 11.795 1193 96.1635 1011.19 474.905
277 0 101.142 11.7855 1192 136.74 1011.19 474.869
278 0 108.51 13.2062 1433 92.0112 1012.08 471.371
279 0 110.536 12.6204 1395 95.891 1012.82 469.467
280 0 113.683 13.3969 1523 94.9862 1012.35 467.149
281 0 117.637 13.3122 1566 95.629 1011.78 464.938
282 0 119.603 12.4997 1495 96.7532 1012.13 463.242
283 0 125.816 12.9236 1626 94.9287 1012.34 461.499
284 0 128.7 13.2479 1705 94.6282 1012.56 460.488
285 0 131.586 13.1245 1727 95.0585 1011.72 458.957
286 0 133.59 12.5982 1683 96.0434 1011.96 457.203
287 0 139.605 13.5597 1893 93.7063 1011.72 454.94
288 1 78.4547 9.58515 752 88.6064 1013.47 492.809
289 0 80.4322 10.2571 825 87.9067 1013.35 489.725
290 0 82.4399 10.2256 843 88.2859 1013.27 486.743
291 0 85.3582 11.727 1001 86.0579 1012.79 484.767
292 0 88.3762 11.0663 978 87.4335 1012.31 484.623
293 0 89.1821 11.583 1033 86.8625 1011.51 484.241
294 0 93.1973 11.9746 1116 86.3746 1011 484.082
295 0 95.1705 11.9365 1136 87.3829 1010.81 481.123
296 0 100.345 11.8691 1191 87.3216 1010.96 478.563
297 0 103.37 12.7793 1321 86.221 1012.18 474.86
298 0 106.432 12.1956 1298 87.7319 1011.76 474.31
299 0 109.499 12.475 1366 87.3682 1012.1 474.309
300 0 111.391 12.6222 1406 87.4267 1012.24 472.664
301 1 56.0525 10.9897 616 89.539 1012.56 500.015
302 0 57.0511 11.8666 677 88.9409 1011.75 498.765
303 0 58.1057 11.1177 646 92.7121 1012.73 498.697
304 0 59.3725 12.5816 747 87.5167 1012.33 498.517
305 0 61.3595 11.3104 694 85.5677 1012.57 497.47
306 0 61.1683 11.7871 721 81.9196 1012.43 498.639
307 0 62.2127 11.1392 693 89.2511 1012.72 498.094
308 0 62.3491 11.4356 713 91.0393 1013.28 496.665
309 0 66.3105 11.8533 786 89.0763 1013.46 496.628
310 0 68.2897 11.7734 804 89.9913 1012.98 494.852
311 0 70.2926 12.2915 864 91.0301 1012.89 492.212
312 0 71.2434 12.0853 861 92.4448 1013.09 492.531
313 0 74.2409 11.5435 857 92.4761 1013 491.438
314 0 77.4035 11.8341 916 91.9978 1012.54 491.307
315 0 77.2405 11.8073 912 93.9035 1013.05 488.066
316 0 81.2674 12.748 1036 92.0367 1013.3 488.027
317 0 81.265 12.7238 1034 137.92 1014.32 488.158
318 0 82.2776 12.5672 1034 94.7969 1012.67 486.038
319 0 87.2383 12.2653 1070 94.9364 1012.43 485.789
320 0 89.3342 12.0447 1076 95.4052 1012.32 482.139
321 0 90.2805 12.3282 1113 94.5184 1011.67 480.067
322 0 93.3041 11.8644 1107 96.4047 1011.47 477.682
323 1 43.1436 9.0164 389 85.6761 1011.95 506.704
324 0 44.056 9.41983 415 87.5133 1013.5 508.161
325 0 45.1837 9.89295 447 87.5369 1011.2 509.879
326 0 47.2118 10.1881 481 87.2121 1011.07 507.266
327 0 45.1346 9.1061 411 82.7567 1011.72 509.856
328 0 46.173 9.68098 447 82.0962 1011.57 509.423
329 0 49.1575 10.6189 522 80.8544 1011.5 508.084
330 0 50.1853 10.7203 538 81.71 1011.91 507.587
331 0 51.2636 11.041 566 82.0618 1011.12 506.919
332 0 54.3528 10.9838 597 81.5963 1010.29 505.491
333 0 56.2894 11.1744 629 82.0715 1011.08 504.604
334 0 57.2576 11.457 656 83.0137 1010.89 503.561
335 0 60.2768 11.9117 718 81.9262 1011.17 503.357
336 0 59.3187 11.9692 710 83.6169 1010.69 501.813
337 0 63.2899 12.5771 796 79.8555 1010.84 500.926
338 0 67.3926 12.1378 818 90.6724 1010.98 498.628
339 0 68.0509 11.4914 782 91.3376 1010.31 496.637
340 0 69.098 11.5343 797 89.8093 1010.03 497.083
341 0 73.044 11.6916 854 89.007 1010.93 495.367
342 0 73.0673 11.7152 856 88.8435 1010.45 495.995
343 0 77.0488 12.0054 925 87.4346 1010.57 494.945
344 0 76.0321 11.9818 911 88.4094 1009.89 493.209
345 0 79.0195 12.0603 953 86.7859 1010.01 493.195
346 0 80.045 12.0932 968 88.7541 1010.13 490.652
347 0 82.1126 12.1784 1000 90.181 1009.34 488.776
348 0 85.0468 12.2521 1042 89.8426 1008.82 489.188
349 0 87.0597 12.3019 1071 90.8431 1009.04 487.037
350 0 92.1399 12.1446 1119 90.5639 1009.28 485.24
351 0 92.0603 11.1992 1031 93.8332 1009.34 484.912
352 0 97.1071 11.8941 1155 91.3126 1009.21 483.511
353 0 99.1486 12.335 1223 89.7825 1009.69 481.236
354 0 103.168 12.6493 1305 89.7149 1009.62 478.229
355 0 107.108 12.044 1290 90.3713 1009.37 479.147
356 0 109.142 12.3967 1353 90.8758 1008.76 474.333
357 0 111.232 11.8851 1322 92.3298 1008.71 474.03
358 1 61.0248 10.1434 619 85.4943 1010.23 501.656
359 0 62.0589 10.1839 632 88.2199 1009.45 499.786
360 0 65.0821 10.9247 711 91.4487 1009.36 497.166
361 0 66.1392 11.884 786 89.2735 1009.36 497.162
362 0 67.1148 11.8752 797 78.5458 1009.85 495.772
363 0 67.1672 11.0024 739 79.3194 1009.02 498.771
364 0 69.0822 10.5816 731 79.9945 1008.99 498.156
365 0 71.1391 11.4986 818 77.6455 1008.71 496.984
366 0 73.1133 11.2292 821 78.9635 1009.35 495.034
367 0 75.1043 11.1711 839 79.6043 1009.68 493.926
368 0 76.1191 10.9959 837 80.3501 1009.1 491.173
369 0 82.0997 10.9501 899 80.8654 1009.01 491.028
370 0 84.246 11.8819 1001 86.9031 1010.3 488.488
371 0 86.293 11.7043 1010 87.9911 1010.35 486.686
372 0 88.2756 11.5434 1019 88.9764 1010.2 486.786
373 0 91.3238 11.9794 1094 88.9049 1010.63 484.741
374 0 93.3475 12.3517 1153 88.1518 1010.14 483.098
375 0 96.309 11.9615 1152 88.9288 1010 480.848
376 0 97.1882 11.8121 1148 91.8467 1010.45 477.066
377 0 101.193 11.9969 1214 90.3493 1011.01 477.39
378 0 105.15 12.3823 1302 90.4124 1010.68 474.209
379 1 57.0507 10.9727 626 85.6981 1011.3 496.957
380 0 56.0305 10.0302 562 85.5 1011.4 494.486
381 0 61.0906 11.5402 705 80.3078 1011.16 498.916
382 0 61.3283 11.4303 701 79.5278 1011.3 499.111
383 0 62.2822 11.48 715 79.8699 1011.49 497.968
384 0 63.363 11.5051 729 81.5103 1011.77 496.398
385 0 65.3164 10.6099 693 82.8398 1011.4 495.388
386 0 68.3009 11.6836 798 81.8897 1011.78 494.371
387 0 71.2635 12.1942 869 81.1381 1011.43 491.994
388 0 73.2896 11.475 841 83.8419 1011.63 491.911
389 0 75.3947 11.5791 873 84.9507 1011.1 489.974
390 0 77.4044 11.8727 919 84.7312 1011.25 487.421
391 0 80.311 11.4804 922 85.5401 1010.91 485.086
392 0 82.3255 11.6246 957 85.977 1011.41 483.391
393 0 85.3385 11.8704 1013 86.5962 1011.35 482.577
394 0 85.2788 11.609 990 87.4404 1010.88 480.689
395 0 89.2886 11.2444 1004 87.5767 1011.29 480.575
396 0 93.2634 12.009 1120 86.0723 1011.86 479.253
397 0 94.2907 11.9206 1124 87.032 1011.92 478.395
398 0 97.2605 11.6491 1133 89.1297 1012.42 478.391
399 0 99.2476 11.6879 1160 90.0759 1011.68 476.575
400 0 105.195 12.0348 1266 88.6682 1011.54 473.762
401 0 106.219 12.2577 1302 89.182 1011.17 469.687
402 0 110.179 12.5795 1386 88.8225 1012.01 468.853
403 0 112.191 12.3183 1382 89.8155 1011.57 466.87
404 0 116.306 12.0888 1406 92.7831 1012.25 465.648
405 0 121.284 12.277 1489 92.4365 1012.13 465.457
406 1 63.0685 10.4648 660 86.9576 1012.65 490.5
407 0 61.1245 9.47246 579 85.3575 1011.94 485.152
408 0 70.0812 11.7435 823 91.5687 1013.08 492.262
409 0 72.3621 11.9814 867 90.9054 1012.23 493.058
410 0 76.1009 11.8264 900 92.4133 1011.97 491.667
411 0 78.1615 11.7065 915 93.3956 1012.98 491.644
412 0 82.3377 12.0358 991 92.1201 1011.91 489.581
413 0 85.2385 12.6234 1076 90.2602 1010.85 487.671
414 0 86.3938 11.9453 1032 92.6647 1011.77 486.653
415 0 89.1685 12.325 1099 92.7971 1011.59 485.475
416 0 94.2805 12.1128 1142 93.324 1011.23 482.471
417 0 96.3261 12.0528 1161 94.3893 1011.33 481.264
418 0 98.2865 12.2804 1207 95.9718 1010.65 479.249
419 0 101.33 11.7734 1193 99.3168 1010.67 478.892
420 1 52.106 10.517 548 96.0219 1011.54 502.015
421 0 55.0295 11.5029 633 79.5972 1010.26 501.291
422 0 57.2236 12.2677 702 76.7764 1010.22 501.311
423 0 56.0603 11.5233 646 84.1594 1010.9 500.478
424 0 57.1153 11.2579 643 85.1042 1010.38 501.807
425 0 59.0793 11.2222 663 87.0573 1010.8 501.142
426 0 61.0926 11.6381 711 84.4023 1010.21 500.454
427 0 64.1741 11.4065 732 85.4221 1009.63 499.295
428 0 64.1378 11.4441 734 85.4142 1009.66 496.489
429 0 66.1227 11.4938 760 85.3013 1009.49 496.699
430 0 68.1274 12.0656 822 83.1241 1009.3 494.421
431 0 70.2083 10.9531 769 84.593 1009.85 494.822
432 0 72.0901 11.2775 813 84.0431 1008.29 491.98
433 0 76.0422 12.1248 922 84.5748 1008.8 491.47
434 0 77.046 11.4218 880 87.4807 1008.57 489.914
435 0 80.1016 11.5104 922 86.7961 1008.35 487.862
436 0 81.1015 11.4055 925 87.5859 1008.2 487.341
437 0 82.1076 11.351 932 89.0011 1008.84 486.886
438 0 86.0818 11.6285 1001 89.2767 1008.45 485.154
439 0 90.152 11.9798 1080 90.3435 1008.36 483.428
440 0 93.1438 12.2714 1143 88.4208 1008.5 482.507
441 0 96.2069 11.8391 1139 88.849 1008.67 480.054
442 1 57.1312 10.9397 625 86.0512 1009.36 500.488
443 0 57.083 11.0015 628 83.4443 1009.48 498.979
444 0 60.0834 11.5007 691 83.508 1009.94 499.291
445 0 57.3095 10.1728 583 82.1492 1010.64 500.911
446 0 60.1669 11.4515 689 80.9129 1009.46 500.531
447 0 62.0721 11.0033 683 82.9693 1009.11 499.138
448 0 64.052 11.5219 738 82.794 1008.89 498.11
449 0 66.157 11.0646 732 84.7227 1009.7 497.216
450 0 66.1075 11.2695 745 85.2255 1010.07 497.055
451 0 71.1024 11.2654 801 88.4419 1008.78 494.478
452 0 72.0637 12.1698 877 88.2657 1008.55 492.635
453 0 75.0678 12.4155 932 86.4227 1008.61 491.517
454 0 77.0403 12.0067 925 89.1211 1008.66 488.775
455 0 80.0339 12.4447 996 88.2831 1008.81 489.498
456 0 84.076 12.679 1066 88.0235 1008.95 489.484
457 0 86.0193 12.5786 1082 89.4815 1009.23 486.75
458 0 88.0993 12.5767 1108 91.2292 1009.47 485.802
459 0 90.0906 12.3764 1115 93.3937 1009.62 483.918
460 0 93.1381 12.2614 1142 93.9623 1010.16 481.492
461 0 97.1281 12.4784 1212 93.0223 1009.79 480.88
462 0 100.062 12.1724 1218 93.3415 1009.74 478.492
463 1 56.1012 10.9445 614 91.7443 1010.54 497.329
464 0 56.1012 10.9445 614 156.419 1011.55 497.414
465 0 61.0269 12.896 787 90.5578 1011.82 499.182
466 0 62.0834 12.4671 774 94.4612 1012.46 496.149
467 0 64.038 12.352 791 93.0177 1012.25 495.75
468 0 66.047 12.5062 826 91.5 1012.93 494.145
469 0 69.1251 12.4412 860 90.8302 1012.41 493.288
470 0 69.0922 12.8379 887 92.124 1012.06 493.728
471 0 70.0746 12.4724 874 93.6442 1012.23 492.085
472 0 74.0671 12.8397 951 91.5447 1011.8 492.552
473 0 74.0562 12.6391 936 93.094 1012.01 490.082
474 0 77.0968 13.2042 1018 91.4833 1011.69 488.643
475 0 80.0802 12.5499 1005 91.7164 1011.54 487.143
476 0 83.1469 12.9409 1076 90.6608 1011.86 486.575
477 0 85.1125 12.9711 1104 90.3071 1011.47 486.245
478 0 86.1246 13.4224 1156 89.3858 1011.55 484.92
479 0 87.1171 13.3613 1164 88.6177 1011.09 484.818
480 0 89.0951 13.0422 1162 88.4449 1010.78 481.965
481 0 92.2108 13.3173 1228 85.5733 1010.39 480.855
482 0 97.1179 13.2004 1282 89.259 1009.75 481.276
483 0 101.322 13.6496 1383 88.1294 1009.92 478.2
484 0 102.306 13.5084 1382 90.5007 1009.86 478.292
485 0 107.312 13.9499 1497 89.0534 1009.31 475.454
486 0 107.108 12.8189 1373 89.7691 1008.7 473.104
487 1 59.1767 11.1699 661 83.8729 1008.5 500.619
488 0 59.0871 10.8992 644 85.5419 1007.7 499.612
489 0 63.1661 12.0318 760 82.6697 1007.42 497.8
490 0 64.1002 12.6209 809 79.8183 1008 497.119
491 0 65.0362 12.5776 818 81.934 1008.36 496.405
492 0 67.0382 12.56 842 82.3064 1008.05 494.664
493 0 69.0663 12.64 873 82.693 1007.38 495.081
494 0 69.0923 11.8103 816 85.2414 1007.97 493.847
495 0 74.117 11.6438 863 79.8749 1008.55 494.382
496 0 77.2497 11.2881 872 79.6239 1009.81 492.755
497 0 79.0941 11.48 908 79.7236 1008.54 492.064
498 0 81.1701 12.6648 1028 78.8911 1008.89 489.302
499 0 84.2174 11.5297 971 81.3007 1008.53 490.902
500 0 87.1546 11.6001 1011 81.9664 1008.45 489.321
501 0 90.1653 11.9004 1073 82.2246 1008.72 484.739
502 0 94.187 12.1673 1146 81.2557 1008.48 485.406
503 0 96.0653 12.2521 1177 82.3237 1007.67 482.31
504 0 97.137 11.7051 1137 82.934 1008.34 482.225
505 0 102.124 12.3771 1264 80.7168 1007.55 480.93
506 0 103.142 11.7314 1210 82.5248 1008.02 478.361
507 0 105.212 12.0233 1265 81.2767 1007.88 477.59
508 0 108.152 12.0663 1305 81.9801 1008.15 473.516
509 1 58.0678 10.9699 637 75.5793 1008.47 502.231
510 0 61.3488 11.0516 678 76.1711 1009.46 499.114
511 0 61.3432 10.9222 670 78.3507 1009.01 497.36
512 0 62.1727 12.1758 757 76.1149 1009.34 499.145
513 0 65.0538 11.9747 779 75.8126 1007.9 497.469
514 0 66.0776 12.1221 801 76.0025 1008.73 499.633
515 0 69.1284 13.2796 918 72.5763 1008.25 495.157
516 0 73.1783 12.9137 945 72.346 1008.25 494.281
517 0 74.1596 12.2708 910 74.0242 1007.9 493.087
518 0 76.1759 12.6943 967 75.8449 1007.9 494.001
519 0 80.2047 13.0666 1048 76.4647 1007.78 491.82
520 0 82.2209 13.0745 1075 75.9879 1007.57 490.268
521 0 85.2145 13.3897 1141 74.0675 1007.98 488.712
522 1 44.102 10.453 461 79.5336 1007.74 508.868
523 0 44.0622 10.1221 446 79.7825 1008 509.581
524 0 47.2118 11.7132 553 75.9277 1009.01 507.034
525 0 49.1003 11.3848 559 79.3327 1007.97 507.612
526 0 50.3118 11.0908 558 83.9964 1007.91 507.364
527 0 52.2515 12.4973 653 81.0689 1008.08 506.711
528 0 53.1827 11.5263 613 83.6688 1008.31 504.979
529 0 55.2382 12.3284 681 81.6549 1007.38 504.364
530 0 55.3375 11.8184 654 82.6957 1007.9 503.454
531 0 58.1652 11.3814 662 82.9698 1007.54 503.988
532 0 59.0828 11.4585 677 83.7179 1009.64 502.993
533 0 62.0988 12.8344 797 79.2095 1009 502.087
534 0 62.0539 12.473 774 79.2687 1009.29 501.209
535 0 64.1298 12.194 782 79.5038 1009.01 500.914
536 0 66.0889 12.12 801 79.0412 1009.59 500.402
537 0 67.0775 12.7763 857 77.3711 1009.94 500.034
538 0 67.0862 12.2529 822 78.0061 1009.2 498.484
539 0 69.0443 11.4564 791 77.0303 1009.4 497.738
540 0 72.0596 12.0456 868 76.4101 1009.4 498.341
541 0 74.1178 11.3603 842 77.4299 1009.53 495.648
542 0 77.114 11.697 902 77.2483 1009.23 494.441
543 0 80.152 11.4907 921 79.0434 1009.46 492.441
544 0 83.0619 12.1596 1010 77.0743 1008.7 490.835
545 0 87.085 11.7127 1020 76.9196 1008.89 490.139
546 1 47.218 10.1444 479 73.0271 1009.56 509.727
547 0 47.1108 10.4435 492 70.5732 1009.27 511.055
548 0 47.0939 10.4047 490 69.9551 1009.2 509.469
549 0 48.3201 11.1134 537 67.6443 1009.24 507.996
550 0 52.3516 11.4801 601 65.579 1009.03 506.424
551 0 53.0915 11.6591 619 69.4378 1006.31 504.635
552 0 56.0968 12.0684 677 69.4106 1006.39 504.857
553 0 57.1403 11.6205 664 75.5392 1006.82 503.631
554 0 58.1281 11.5263 670 71.1761 1007.32 502.897
555 0 57.1088 11.5919 662 72.2538 1007.37 503.033
556 0 62.0852 12.4345 772 69.3718 1007.25 500.062
557 0 63.0865 12.1738 768 69.0586 1007.18 499.352
558 0 63.0978 12.5678 793 69.1021 1007.2 499.618
559 0 67.184 12.1011 813 68.7823 1007.42 497.952
560 0 65.1244 11.67 760 70.2632 1007.29 495.908
561 0 71.1771 11.5908 825 69.1467 1007.13 491.709
562 0 73.1761 11.6568 853 68.7644 1007.36 491.817
563 0 73.2967 11.3238 830 70.0819 1007.15 490.073
564 0 79.1485 11.6111 919 68.6921 1007.65 489.027
565 0 82.1674 11.8417 973 67.5755 1006.98 486.495
566 1 41.0219 9.16584 376 70.2101 1008.04 509.481
567 0 40.0396 9.59051 384 68.0182 1007.47 503.943
568 0 43.0176 9.94941 428 67.0584 1007.21 504.421
569 0 45.0708 10.0952 455 68.6484 1007.78 503.688
570 0 46.0189 9.12668 420 63.75 1006.56 504.398
571 0 48.0557 11.4034 548 68.427 1007.47 509.175
572 0 51.292 9.96258 511 70.4442 1008.82 509.444
573 0 52.1999 10.1724 531 72.2486 1008.59 508.36
574 0 53.1278 10.9359 581 72.3511 1007.53 508.962
575 0 54.2106 10.7544 583 73.2007 1009.24 506.463
576 0 55.2298 11.1534 616 73.125 1008.47 505.94
577 0 59.1684 12.2025 722 72.072 1008.48 505.416
578 0 59.2166 11.3482 672 76.8914 1008.6 504.323
579 0 62.1514 10.9249 679 77.9632 1008.43 504.739
580 0 62.1777 10.5665 657 79.5921 1008.24 502.884
581 0 65.2706 11.5519 754 80.3276 1008.12 502.009
582 0 67.2469 11.0042 740 82.0338 1008.07 501.084
583 0 70.1916 10.6993 751 83.0746 1007.84 500.577
584 0 72.1485 11.1298 803 82.7908 1007.71 498.578
585 0 74.0921 11.4722 850 81.4718 1006.56 496.294
586 0 77.1101 11.2696 869 83.7158 1006.34 496.205
587 0 81.1203 11.7726 955 83.8649 1006.22 494.331
588 0 83.2105 11.501 957 87.5674 1007.02 495.007
589 0 86.1236 12.0757 1040 87.6808 1007.84 492.675
590 0 87.1084 12.1917 1062 87.0612 1007.13 492.879
591 1 48.0328 11.3256 544 87.5496 1008.66 513.478
592 0 50.0878 12.1586 609 85.7307 1008 512.389
593 0 50.1059 12.733 638 85.9953 1008.27 512.632
594 0 53.0171 13.2599 703 93.532 1009.47 511.108
595 0 53.1459 12.1364 645 88.2186 1007.11 511.132
596 0 55.1109 11.2138 618 90.966 1006.95 510.309
597 0 57.1093 11.9945 685 89.8832 1007.59 508.556
598 0 57.0919 11.9982 685 122.226 1007.59 508.556
599 0 62.0601 12.6007 782 88.1675 1007.28 507.058
600 0 63.1962 13.3711 845 87.9432 1007.66 507.13
601 0 66.1287 13.504 893 88.1478 1007.29 505.974
602 0 67.1189 13.2302 888 90.1926 1007.31 503.931
603 0 70.2112 13.1318 922 90.0174 1007.8 501.614
604 0 71.2218 14.1108 1005 90.409 1007.1 500.854
605 0 74.2038 13.6785 1015 91.8522 1007.44 499.591
606 0 76.3077 13.5111 1031 92.6062 1007.52 497.063
607 0 77.4182 13.2527 1026 93.7329 1007.7 496.645
608 0 77.4076 13.1899 1021 129.071 1008.69 496.632
609 0 84.3858 13.4975 1139 93.8244 1007.98 489.904
610 1 41.2018 11.8199 487 91.1725 1007.85 513.908
611 0 43.1656 11.398 492 91.2724 1007.63 513.841
612 0 44.1637 11.5932 512 90.9258 1007.18 512.947
613 0 45.1708 12.176 550 91.5527 1007.12 510.678
614 0 47.0859 12.2117 575 90.6296 1006.7 509.72
615 0 50.1819 12.3351 619 89.4911 1007.37 509.166
616 0 51.1128 12.9909 664 86.6431 1007.15 510.282
617 0 53.1408 12.5892 669 87.5964 1007.28 509.378
618 0 54.3047 11.7485 638 89.2524 1006.81 507.618
619 0 58.129 12.5411 729 87.3374 1006.47 506.534
620 0 58.2472 12.0693 703 88.6472 1007.23 506.299
621 0 63.2 12.8323 811 87.4205 1007.9 505.287
622 0 63.1768 12.1247 766 88.0653 1007.56 504.527
623 0 64.1665 12.1559 780 88.4808 1007.42 502.642
624 0 68.204 12.6385 862 87.2726 1007.21 501.903
625 0 70.1683 12.3988 870 88.2621 1006.7 498.66
626 1 33.1015 12.084 400 86.44 1007.54 517.227
627 0 33.1015 12.0538 399 116.957 1008.54 517.346
628 0 35.2471 11.4336 403 89.536 1008.18 513.752
629 0 39.2138 12.8526 504 85.1052 1008.01 512.476
630 0 40.2812 13.1823 531 84.2448 1008.74 512.879
631 0 42.2357 13.543 572 84.2657 1007.67 510.955
632 0 44.1646 13.4723 595 82.4555 1008.16 513.091
633 0 46.162 14.4708 668 80.9162 1007.81 514.449
634 0 47.1234 14.3241 675 82.3067 1008.01 512.839
635 0 46.2253 13.4775 623 86.1316 1007.96 512.335
636 0 50.1302 13.2056 662 83.7568 1007.84 512.051
637 0 51.1697 13.7972 706 91.3456 1008.26 510.337
638 0 53.2373 14.163 754 89.2215 1007.66 510.895
639 0 56.1403 14.0897 791 88.9254 1008.6 508.923
640 0 57.3105 14.3953 825 89.9709 1007.42 508.055
641 0 59.179 14.3463 849 91.3899 1007.71 507.213
642 0 60.2436 13.9268 839 93.9154 1007.78 506.627
643 0 63.2278 14.6929 929 92.0151 1007.53 505.042
644 0 66.2501 14.3547 951 93.367 1007.31 503.178
645 0 69.4604 14.4255 1002 93.9561 1007.83 502.889
646 0 70.2244 14.4109 1012 96.0711 1007.7 500.032
647 1 36.1566 13.082 473 98.4123 1007.45 516.243
648 0 35.0344 12.502 438 101.329 1008.17 516.897
649 0 37.0828 13.9148 516 99.7287 1008.31 515.132
650 0 40.0519 14.2815 572 101.785 1007.65 514.717
651 0 42.0538 14.529 611 103.282 1008.06 513.301
652 0 43.1021 14.9877 646 103.098 1008 512.262
653 0 43.0747 14.7418 635 107.817 1007.58 512.909
654 0 46.0811 14.5396 670 107.118 1007.97 512.315
655 0 47.2389 14.7548 697 104.968 1008.43 512.043
656 0 46.2178 14.9726 692 107.204 1008.51 510.897
657 0 47.1782 15.2613 720 106.476 1008.29 509.853
658 0 50.2298 15.3295 770 105.742 1008.85 509.773
659 0 53.2562 15.6414 833 103.786 1008.82 509.415
660 0 55.2254 14.9569 826 105.121 1009 508.725
661 0 56.3699 15.4515 871 104.536 1009.09 506.98
662 0 56.3223 15.358 865 106.209 1009.42 506.434
663 0 59.2952 15.3975 913 105.627 1008.65 504.519
664 0 60.2724 15.9775 963 105.812 1008.92 504.856
665 0 62.3681 15.3925 960 108.628 1008.7 503.945
666 0 65.3076 16.0012 1045 107.217 1008.88 503.818
667 0 66.2839 15.9466 1057 108.246 1008.97 502.342
668 0 69.2869 15.674 1086 109.755 1009.38 501.983
669 0 70.2883 16.0482 1128 110.468 1008.95 500.056
670 0 71.3541 15.9626 1139 111.862 1009.04 498.487
671 0 75.2132 16.3934 1233 110.175 1009.1 497.483
672 0 78.2474 16.1028 1260 111.29 1009.17 497.364
673 0 81.2662 16.3414 1328 112.229 1009.25 494.537
674 0 83.1658 16.0402 1334 113.358 1008.6 493.493
675 0 85.2173 15.8536 1351 114.383 1008.91 493.08
676 0 90.2771 16.0838 1452 113.046 1008.84 492.014
677 0 92.21 15.9744 1473 113.976 1008.89 489.836
678 0 96.2825 16.0985 1550 113.266 1008.72 489.049
679 0 99.2057 15.4023 1528 116.707 1008.98 486.597
680 0 104.191 15.2509 1589 115.218 1008.63 485.716
681 1 48.1995 14.6682 707 119.808 1009.99 509.554
682 0 48.1088 14.6543 705 120.784 1010 508.624
683 0 50.1271 15.2612 765 120.327 1009.52 508.518
684 0 52.0881 16.1457 841 118.83 1009.91 507.986
685 0 55.2233 16.1888 894 116.866 1010.74 506.708
686 0 55.2058 16.049 886 120.356 1010.41 505.593
687 0 57.1637 15.7268 899 122.091 1011.19 504.02
688 0 61.1652 15.7606 964 120.076 1010.24 502.383
689 0 64.1621 15.8349 1016 118.838 1010.74 502.164
690 0 66.25 15.8038 1047 119.77 1010.69 501.468
691 0 67.3461 15.6802 1056 120.741 1011.07 500.794
692 0 68.2683 16.025 1094 120.247 1010.96 499.715
693 0 71.2381 15.7921 1125 121.15 1010.09 498.941
694 0 73.166 15.8407 1159 119.895 1010.06 497.594
695 0 76.2659 15.3935 1174 121.239 1010.27 495.467
696 0 77.3087 16.0784 1243 119.623 1010 494.868
697 0 80.47 15.1982 1223 121.175 1009.24 495.022
698 0 81.4406 16.4292 1338 117.685 1009.31 493.707
699 0 84.3785 16.023 1352 119.784 1008.88 493.186
700 0 86.5989 15.7623 1365 122.667 1009.16 490.91
701 0 88.4728 15.7562 1394 122.019 1008.97 490.248
702 0 92.4085 16.2972 1506 120.655 1008.55 488.624
703 0 96.3236 16.0916 1550 121.195 1009.06 487.643
704 0 99.4929 15.9408 1586 122.119 1008.81 486.054
705 0 102.303 15.7474 1611 123.386 1008.31 484.053
706 0 106.297 16.0212 1703 123.402 1008.5 483.135
707 0 108.466 15.5994 1692 125.301 1008.59 481.713
708 1 61.2345 12.8849 789 127.597 1009.44 504.389
709 0 62.3908 13.1269 819 128.089 1009.27 503.2
710 0 64.2889 13.7193 882 128.023 1009.32 501.773
711 0 65.323 13.6705 893 130.385 1008.95 501.103
712 0 67.414 13.5728 915 133.056 1008.83 498.659
713 0 70.2838 13.6589 960 133.717 1008.58 499.251
714 0 72.3292 13.5215 978 136.699 1008.87 496.861
715 0 74.3952 13.5761 1010 138.387 1008.44 496.145
716 0 77.3688 14.0625 1088 137.353 1009.1 495.123
717 0 79.2272 13.3288 1056 140.869 1008.55 494.771
718 0 80.3568 13.9129 1118 140.229 1008.65 492.089
719 0 83.3657 13.5787 1132 141.398 1009.21 492.209
720 0 86.2527 14.1445 1220 140.907 1008.69 488.369
721 0 90.2869 14.2435 1286 139.693 1008.64 488.191
722 0 91.3084 13.7227 1253 142.52 1009.14 488.362
723 0 96.3126 14.4114 1388 139.447 1008.52 487.169
724 0 98.2034 14.2052 1395 141.129 1008.14 485.632
725 0 101.275 13.5177 1369 144.292 1008.48 483.237
726 0 102.274 14.2461 1457 143.339 1008.56 481.892
727 0 108.283 14.1296 1530 143.623 1008.46 479.044
728 0 110.369 13.9804 1543 145.04 1008.44 477.627
729 0 114.274 13.9314 1592 147.413 1008.06 474.926
730 0 117.291 13.684 1605 149.649 1008.49 473.417
731 0 122.185 13.4059 1638 151.941 1007.93 470.926
732 0 126.302 13.7052 1731 150.401 1008.2 468.792
733 0 129.265 13.1203 1696 151.512 1008.05 466.3
734 0 133.337 13.4997 1800 149.607 1007.73 462.992
735 0 137.228 13.8164 1896 149.364 1007.4 459.595
736 0 140.309 13.1852 1850 152.289 1007.88 456.107
737 0 147.262 13.6152 2005 149.886 1007.65 454.489
738 0 149.404 13.2058 1973 152.184 1008.25 452.252
739 0 154.315 12.6884 1958 154.013 1008.15 448.274
740 0 160.349 13.5517 2173 151.05 1007.42 445.487
741 0 162.373 12.81 2080 156.043 1006.82 441.741
742 0 168.333 12.7248 2142 155 1007.43 440.116
743 0 173.498 12.9857 2253 155.083 1007.72 436.158
744 0 179.392 12.5814 2257 155.687 1007.84 433.839
745 0 181.384 12.5259 2272 156.834 1007.29 430.781
746 0 189.452 12.9848 2460 154.211 1007.8 426.986
747 0 192.477 12.2664 2361 158.385 1007.34 423.148
748 0 199.501 12.6415 2522 155.338 1008.37 423.357
749 0 204.507 12.7575 2609 154.225 1007.84 418.818
750 0 211.575 12.5535 2656 152.404 1007.3 414.683
751 0 215.752 12.0323 2596 152.797 1008.17 413.435
752 0 224.62 12.8573 2888 150.731 1007.34 407.665
753 0 230.617 11.8898 2742 155.781 1007.45 399.519
754 1 167.793 10.4117 1747 152.744 1008.23 431.27
755 0 174.965 9.40762 1646 158.593 1008.23 423.087
756 0 179.906 9.78287 1760 157.011 1008.36 415.725
757 1 42.1057 7.76617 327 99.2691 1011.8 508.465
758 0 44.0756 8.30392 366 98.4672 1011.8 508.385
759 0 45.1304 7.48941 338 108.639 1012.4 506.654
760 0 47.3196 8.09391 383 110.948 1012.2 505.013
761 1 204.182 11.8718 2424 153.849 1008.51 417.369
762 0 206.997 11.8359 2450 156.167 1008.83 414.576
763 1 85.8043 7.8784 676 116.096 1010.18 493.621
764 0 78.7127 9.12178 718 116.769 1010.43 492.787
765 0 78.7453 10.553 831 115.779 1010.06 489.539
766 0 81.6233 10.7567 878 113.99 1010.89 489.837
767 0 81.5896 10.7734 879 115.916 1010.79 488.852
768 0 85.4958 11.4158 976 115.208 1010.73 488.193
769 0 87.6107 11.0146 965 117.791 1010.22 484.647
770 0 87.562 11.6489 1020 118.814 1009.82 483.956
771 0 87.5839 11.509 1008 121.04 1010.75 483.182
772 0 91.504 12.1634 1113 119.459 1010.83 482.555
773 0 91.4654 12.5731 1150 120.665 1010.37 480.719
774 0 93.4824 12.4194 1161 121.904 1010.42 479.918
775 0 97.4178 13.0674 1273 118.877 1010.33 481.734
776 0 96.4962 12.1041 1168 124.427 1010.77 477.306
777 0 98.5406 12.7866 1260 122.534 1009.71 476.729
778 0 100.724 12.6384 1273 123.475 1010.32 476.316
779 0 99.5854 13.5863 1353 123.018 1009.92 477.557
780 0 102.852 13.3785 1376 124.027 1009.55 474.619
781 0 102.87 13.4345 1382 118.536 1009.54 474.603
782 0 99.6486 12.4738 1243 131.704 1009.87 475.13
783 0 99.4957 12.302 1224 133.128 1010.35 474.317
784 0 99.4455 11.725 1166 135.614 1009.98 474.796
785 0 105.409 12.6175 1330 132.664 1010.19 473.679
786 0 106.624 12.0611 1286 134.089 1010.6 472.283
787 0 110.449 12.1142 1338 131.691 1010.91 472.069
788 1 130.632 9.69901 1267 133.846 1010.65 473.174
789 0 128.942 10.5939 1366 126.909 1010.99 467.306
790 0 128.793 11.1575 1437 126.756 1010.9 466.216
791 0 130.725 10.5565 1380 128.41 1011.1 466.757
792 0 138.702 11.6941 1622 124.374 1011.12 463.54
793 0 141.573 10.5882 1499 127.744 1011.11 464.373
794 0 140.829 11.6737 1644 127.122 1011.31 460.915
795 0 148.893 10.9676 1633 125.843 1011.49 464.53
796 0 153.833 11.6295 1789 125.54 1011.32 459.217
797 1 212.893 7.75507 1651 135.438 1010.95 446.025
798 0 212.298 7.40941 1573 133.499 1011.52 449.773
799 0 213.178 7.62742 1626 132.914 1011.37 455.507
800 0 214.874 9.23333 1984 129.292 1011 444.57
801 1 84.1194 11.5193 969 99.3736 1012.71 492.17
802 0 85.1096 11.2091 954 100.496 1012.67 491.799
803 0 88.1915 11.6791 1030 99.1796 1011.92 490.425
804 0 91.1099 11.8867 1083 99.6694 1012.47 489.671
805 0 93.109 12.2115 1137 98.4952 1012.21 489.044
806 0 94.0965 11.7751 1108 101.451 1012.19 487.409
807 0 96.0653 11.9502 1148 101.446 1012.21 487.379
808 0 99.0978 12.0184 1191 101.513 1011.13 485.188
809 1 46.0274 9.55951 440 97.8841 1012.05 513.459
810 0 48.0141 10.3095 495 96.1859 1011.62 512.733
811 0 49.0343 11.0943 544 91.1526 1009.79 513.858
812 0 50.02 11.4554 573 90.2373 1010.25 511.925
813 0 53.0281 11.6353 617 95.9206 1011.46 511.295
814 0 52.0542 11.1422 580 98.8155 1011.43 512.486
815 0 54.0411 11.1212 601 99.1697 1011.63 510.537
816 0 57.0632 11.864 677 96.2792 1010.8 510.835
817 0 56.0524 11.0432 619 97.6123 1010.9 509.984
818 0 56.0524 11.0432 619 159.8 1010.89 509.914
819 0 59.0194 10.8947 643 92.493 1010.3 509.717
820 0 60.0134 11.0642 664 91.6446 1009.82 510.509
821 0 61.0445 11.1886 683 91.47 1009.67 508.744
822 0 62.0333 11.2359 697 90.5151 1009 508.389
823 0 63.0382 11.1044 700 90.8014 1009.14 508.82
824 0 63.0208 11.6469 734 88.8747 1009.14 507.546
825 0 66.0378 10.5546 697 90.1722 1009.11 507.463
826 0 67.0206 11.116 745 89.1396 1009.19 505.831
827 0 70.0443 11.8782 832 85.8065 1008.91 506.506
828 0 71.0449 11.8657 843 85.4448 1008.97 504.579
829 0 71.0202 10.673 758 87.7718 1008.59 502.788
830 0 72.0272 10.9403 788 84.7297 1008.39 503.131
831 0 74.0786 10.4214 772 84.3692 1008.06 501.575
832 0 77.053 11.9009 917 81.5965 1007.82 501.561
833 0 79.1057 11.2381 889 84.396 1006.67 499.794
834 0 79.0853 9.98921 790 85.7785 1006.66 500.525
835 0 84.098 11.439 962 83.2443 1007.01 498.149
836 0 86.1458 11.4457 986 81.9564 1007.38 496.833
837 1 45.0142 9.77469 440 81.4932 1008.21 515.37
838 0 46.0499 10.4235 480 79.5812 1007.13 513.292
839 0 48.0236 10.9113 524 78.855 1007.7 510.887
840 0 50.1101 11.0557 554 78.065 1007.08 510.825
841 0 53.0387 11.4256 606 77.1997 1007.44 508.132
842 0 53.024 11.806 626 77.2955 1007.24 508.158
843 0 55.022 12.3587 680 76.2515 1006.75 507.806
844 0 57.0436 11.7103 668 75.0524 1007.12 506.693
845 0 56.0571 11.7916 661 76.7806 1007.29 506.15
846 0 59.1042 11.742 694 75.0807 1005.98 505.976
847 0 60.1315 11.425 687 75.6623 1006.03 505.341
848 0 63.0627 12.2576 773 73.1035 1005.63 503.29
849 0 64.1116 12.0883 775 73.9252 1005.61 501.907
850 0 65.0832 11.8464 771 74.2853 1005.76 500.339
851 0 67.1582 11.8973 799 74.2666 1006.02 499.408
852 0 66.0964 11.7102 774 75.1654 1006.63 499.315
853 0 70.0907 11.1142 779 74.7843 1006.14 497.976
854 0 73.1461 11.3745 832 73.2812 1006.28 496.268
855 0 77.0732 11.5345 889 72.811 1005.35 494.781
856 0 77.0732 11.5734 892 103.335 1004.37 494.706
857 0 81.1956 11.7494 954 73.9486 1005.98 491.712
858 0 81.1956 11.6016 942 101.484 1007.95 491.801
859 0 85.1985 11.3617 968 80.8409 1006.53 489.956
860 1 43.0506 9.94179 428 75.6822 1006.45 511.353
861 0 46.0421 10.9248 503 74.0457 1006.13 509.62
862 0 48.0455 10.8439 521 71.5432 1007.58 509.309
863 0 50.1221 10.8734 545 74.1835 1007.77 507.98
864 0 50.0514 12.5471 628 72.164 1007.82 508.161
865 0 52.0366 12.4336 647 72.9428 1007.36 507.147
866 0 54.0715 12.317 666 73.7793 1007.07 506.928
867 0 54.1381 11.6 628 76.0462 1006.69 506.428
868 0 56.2027 11.7076 658 76.0289 1006.42 505.318
869 0 58.1149 12.0967 703 68.1252 1007.17 504.542
870 0 59.1221 12.5334 741 76.664 1006.89 503.472
871 0 59.0867 12.524 740 78.2932 1006.77 503.086
872 0 64.136 13.5337 868 75.97 1007.09 501.813
873 0 64.1323 13.2383 849 78.6042 1007.08 501.784
874 0 66.1745 12.5426 830 84.1361 1007.33 501.199
875 0 68.2014 12.4631 850 88.3835 1007.36 499.335
876 0 72.2239 12.9874 938 87.4531 1007.07 499.822
877 0 72.2467 13.011 940 88.7809 1006.11 498.131
878 0 76.2091 13.791 1051 87.6185 1006.75 495.939
879 0 79.2556 13.2861 1053 89.3666 1006.63 496.589
880 0 80.2373 12.7621 1024 92.3135 1006.63 495.96
881 0 85.1835 13.9933 1192 89.5814 1006.69 494.213
882 0 85.1088 13.9234 1185 91.8945 1006.59 492.563
883 0 89.1682 14.097 1257 91.8154 1006.9 491.838
884 1 46.0699 12.1337 559 92.381 1006.57 511.882
885 0 46.0369 12.1641 560 93.0482 1006.5 513.155
886 0 50.0705 12.4025 621 93.7778 1007.15 511.808
887 0 50.0561 13.2851 665 90.9338 1006.68 509.427
888 0 50.0704 12.3426 618 92.9612 1006.59 510.317
889 0 52.0861 12.9593 675 91.1956 1007 509.433
890 0 54.1767 13.5667 735 90.5769 1007.35 508.094
891 0 57.0826 13.752 785 89.7465 1007.31 507.246
892 0 56.093 13.1032 735 94.2231 1007.03 505.282
893 0 57.1146 13.2365 756 94.5172 1007.22 505.013
894 0 60.0811 13.2155 794 92.9043 1007.23 504.977
895 0 63.0996 13.4232 847 91.5325 1006.67 503.379
896 0 63.1269 13.8451 874 91.7048 1007.31 501.881
897 0 66.0993 13.7066 906 92.7009 1007.78 501.041
898 0 67.1069 14.082 945 91.8984 1007.45 499.735
899 0 70.1271 14.1172 990 91.6242 1007.39 499.055
900 0 72.1197 13.8381 998 92.8517 1007.62 496.971
901 0 75.175 13.289 999 94.8438 1007.83 496.43
902 0 76.1678 13.4965 1028 95.4864 1008.68 495.87
903 0 79.2241 14.2381 1128 94.6339 1008.29 494.907
904 0 82.1565 13.9733 1148 95.8624 1008.53 493.413
905 0 86.2175 14.3706 1239 93.4568 1008.22 492.101
906 0 89.1985 14.4061 1285 92.8965 1007.92 490.254
907 0 91.0784 14.5479 1325 92.3585 1007.9 487.945
908 0 93.1629 14.2653 1329 93.681 1008.57 487.167
909 0 98.1466 14.6414 1437 92.698 1008.23 485.602
910 0 101.108 14.796 1496 94.8683 1008.54 484.032
911 1 54.0115 12.4418 672 101.89 1009.3 505.579
912 0 57.0803 13.0167 743 103.172 1008.15 504.105
913 0 60.1443 13.2348 796 99.8706 1007.88 502.96
914 0 58.1071 13.1825 766 97.7624 1008.82 503.127
915 0 60.0715 13.717 824 96.5133 1008.22 502.771
916 0 63.0968 13.5823 857 97.1085 1008.51 501.753
917 0 67.0663 13.673 917 96.9237 1008.05 500.926
918 0 68.1551 14.1589 965 99.5399 1008.25 499.469
919 0 72.0891 14.3295 1033 101.168 1008.26 497.45
920 0 73.081 14.1076 1031 101.8 1008.2 496.398
921 0 76.132 14.2253 1083 101.085 1008.24 494.808
922 0 78.1112 13.8521 1082 102.026 1007.55 493.552
923 0 82.06 13.6485 1120 100.43 1007.6 492.764
924 0 84.0482 13.8492 1164 100.666 1007.32 493.599
925 0 88.0494 13.7082 1207 100.842 1006.99 491.991
926 0 90.0696 13.8004 1243 102.01 1006.61 489.956
927 0 94.0881 14.4014 1355 100.365 1006.44 489.154
928 0 96.1966 14.0649 1353 102.025 1006.31 487.696
929 0 98.1935 13.6363 1339 103.455 1006.7 486.176
930 1 53.1356 11.6494 619 97.9047 1006.89 510.36
931 0 56.1269 12.1154 680 97.1809 1006 508.028
932 0 55.1292 11.9356 658 98.4119 1005.72 507.375
933 0 58.0371 13.0262 756 95.2632 1005.94 505.693
934 0 60.062 12.4205 746 95.9021 1005.66 504.866
935 0 63.0392 13.0554 823 98.2916 1005.63 503.632
936 0 64.0865 12.3739 793 99.3001 1005.55 501.57
937 0 66.0932 12.4975 826 99.0666 1006.09 501.489
938 0 69.0522 12.7295 879 97.6246 1006.41 501.267
939 0 71.0841 12.2109 868 97.8894 1005.63 499.372
940 0 73.0634 12.1128 885 97.6644 1005.05 498.951
941 0 76.0529 12.8858 980 94.6939 1004.56 497.128
942 0 78.064 12.8612 1004 93.0169 1004.83 496.048
943 0 80.1245 11.9439 957 94.6061 1004.26 495.285
944 0 81.0425 12.7217 1031 93.7294 1004.47 493.604
945 0 86.0761 12.7097 1094 94.0484 1005.19 492.565
946 0 88.067 11.9795 1055 93.3109 1004.48 489.747
947 0 92.1354 12.2103 1125 91.3902 1004.46 490.628
948 1 51.1051 11.8383 605 83.795 1005.2 512.187
949 0 51.0447 12.636 645 81.8 1005.78 511.848
950 0 53.0457 12.2536 650 82.2385 1005.72 507.674
951 0 54.0316 12.6593 684 94.6871 1006.46 508.716
952 0 56.0773 12.6433 709 97.3427 1006.76 508.302
953 0 58.0207 13.1677 764 97.6597 1006.99 505.491
954 0 60.1058 12.5612 755 98.2556 1006.22 505.054
955 0 63.0753 13.1906 832 96.351 1006.72 504.032
956 0 63.0621 13.0031 820 86.0927 1006.75 502.849
957 0 67.1268 13.184 885 84.4226 1006.46 500.864
958 0 69.0603 13.3507 922 83.4631 1006.9 499.073
959 0 71.1181 12.8237 912 85.9792 1006.84 497.542
960 0 73.1696 12.6282 924 85.0898 1007.03 496.192
961 0 73.1629 12.643 925 85.8584 1006.64 494.324
962 0 76.1942 12.5863 959 85.0834 1007.2 493.946
963 0 78.1495 12.2842 960 85.0625 1007.26 492.536
964 0 81.1489 12.6927 1030 84.6282 1007.36 489.913
965 0 83.3102 12.1594 1013 86.2073 1007.4 489.214
966 0 87.103 11.848 1032 84.3236 1007.68 490.452
967 0 90.1802 12.2865 1108 82.7004 1007.27 489.368
968 0 92.1168 12.2345 1127 82.362 1007.44 487.001
969 0 94.0716 12.0865 1137 82.2181 1008.18 485.65
970 0 98.1967 11.9454 1173 82.1765 1006.8 482.138
971 0 100.101 12.1577 1217 82.3541 1007.92 480.435
972 0 104.173 12.076 1258 82.225 1007.74 478.254
973 0 104.343 12.0564 1258 82.4388 1008.76 473.94
974 0 110.283 12.2412 1350 81.2141 1008.28 471.147
975 0 111.396 11.8227 1317 82.5528 1008.37 470.847
976 0 117.448 13.2569 1557 79.7579 1008.75 469.439
977 0 118.35 11.8969 1408 83.5305 1009.42 469.612
978 0 123.384 12.2706 1514 82.9082 1009.53 465.927
979 0 126.412 12.4988 1580 90.9443 1009.38 466.346
980 0 131.447 12.4689 1639 92.9475 1010.22 464.996
981 0 136.329 12.5285 1708 93.7166 1009.51 461.06
982 0 142.472 12.3392 1758 95.0444 1009.35 458.067
983 1 74.3585 11.3235 842 79.0903 1009.98 494.409
984 0 78.3071 11.3272 887 80.3191 1009.75 493.856
985 0 80.3276 11.4033 916 81.5633 1009.5 491.421
986 0 83.1864 11.8289 984 79.3191 1008.95 490.6
987 0 85.2062 12.4287 1059 79.0066 1009.41 487.409
988 0 89.2484 11.4288 1020 81.3765 1009.07 485.809
989 0 90.2419 11.5689 1044 82.5699 1008.52 483.841
990 0 94.3406 11.7871 1112 88.0612 1008.8 483.709
991 0 97.3145 11.4371 1113 85.6352 1008.62 478.589
992 0 99.3245 11.8299 1175 86.6826 1008.87 479.516
993 0 103.283 12.3253 1273 87.2435 1008.16 477.192
994 0 107.255 12.3818 1328 89.6785 1008.67 475.317
995 0 111.327 12.3061 1370 89.6628 1008.64 473.624
996 0 113.276 11.9001 1348 86.4562 1008.66 472.568
997 0 119.285 11.9378 1424 87.5878 1009.1 469.574
998 0 122.231 12.3537 1510 87.7748 1008.79 468.706
999 1 67.1394 9.86008 662 89.5514 1009.58 493.769
1000 0 62.0398 9.913 615 85.3805 1007.72 486.094
1001 0 71.3399 10.9196 779 88.1964 1009.15 490.816
1002 0 71.3399 10.9055 778 122.647 1010.13 490.914
1003 0 76.3375 10.8204 826 83.0484 1009.28 493.156
1004 0 82.236 11.6008 954 81.6195 1009.37 491.971
1005 0 83.3319 11.4002 950 84.5758 1009.88 491.26
1006 0 85.2585 11.3185 965 86.1803 1010.75 488.981
1007 0 90.3085 11.7265 1059 86.5864 1010.03 487.235
1008 0 90.2669 11.7873 1064 88.9915 1010.65 487.093
1009 0 90.2434 11.7571 1061 143.346 1011.65 486.992
1010 0 94.2207 10.9955 1036 91.2761 1009.81 483.752
1011 0 99.1502 11.3565 1126 88.6554 1009.36 482.229
1012 0 100.168 11.1912 1121 91.0571 1009.68 480.566
1013 0 103.188 11.2028 1156 91.7941 1009.53 475.99
1014 0 107.115 11.2122 1201 91.7835 1009.27 475.995
1015 0 108.193 11.1744 1209 91.8511 1008.96 474.85
1016 0 113.134 12.2775 1389 90.7768 1009.14 473.063
1017 0 116.196 12.324 1432 92.6627 1009.67 470.858
1018 0 118.165 10.9847 1298 96.6194 1009.83 469.434
1019 0 121.186 12.2456 1484 94.2446 1010.34 469.59
1020 0 125.294 12.1395 1521 93.8389 1010.41 466.899
1021 0 129.19 12.1294 1567 93.7945 1009.69 463.551
1022 0 131.336 11.68 1534 93.7027 1008.96 457.892
1023 0 135.187 11.8577 1603 92.6357 1008.86 451.617
1024 0 139.187 11.0427 1537 94.3455 1009.02 446.418
1025 0 145.233 11.4574 1664 92.9784 1008.56 447.1
1026 0 151.203 11.4614 1733 92.7686 1008.19 443.353
1027 0 158.34 12.0374 1906 90.4706 1008.35 445.333
1028 0 164.23 11.7701 1933 90.6756 1007.64 440.671
1029 0 169.219 12.3804 2095 90.5432 1007.44 438.149
1030 0 173.187 12.2296 2118 91.4608 1007.5 436.203
1031 0 178.192 11.785 2100 92.5586 1007.62 433.434
1032 0 183.29 12.172 2231 92.8494 1008.07 430.326
1033 0 190.297 12.2125 2324 92.9458 1008.13 426.481
1034 0 196.364 12.594 2473 92.0768 1008.03 424.239
1035 0 201.217 12.4493 2505 93.6279 1007.6 418.702
1036 0 205.45 12.6697 2603 93.6362 1007.73 415.471
1037 0 214.36 12.8615 2757 92.848 1007.56 413.941
1038 0 220.34 13.157 2899 93.3001 1007.39 412.062
1039 0 226.309 12.7083 2876 93.6791 1006.78 406.458
1040 0 234.487 12.5124 2934 94.832 1006.84 403.964
1041 1 185.21 9.94548 1842 94.0217 1007.19 432.194
1042 0 191.185 11.0469 2112 94.4304 1007.9 426.709
1043 0 196.299 11.4315 2244 93.0446 1007.19 419.594
1044 0 207.393 12.2473 2540 97.0709 1007.89 426.074
1045 0 214.406 11.9213 2556 96.6886 1007.46 420.369
1046 0 221.49 12.3347 2732 97.3034 1006.89 416.828
1047 0 228.434 12.6645 2893 96.8877 1006.73 411.108
1048 0 231.313 12.1524 2811 98.5688 1005.96 402.699
1049 0 237.273 12.1506 2883 99.3406 1006.4 402.014
1050 0 244.339 12.9165 3156 96.5504 1006.2 398.865
1051 0 250.444 12.3541 3094 96.7883 1005.83 387.126
1052 1 261.403 12.5859 3290 100.582 1006.47 390.977
1053 1 193.467 10.4618 2024 93.2999 1006.33 432.585
1054 0 200.599 11.5803 2323 95.17 1006.53 426.523
1055 0 205.606 11.7652 2419 97.8975 1006.68 424.969
1056 0 206.272 11.9696 2469 98.8558 1006.4 417.801
1057 0 208.377 11.9447 2489 100.331 1006.92 412.018
1058 0 213.202 12.0215 2563 99.6762 1006.63 406.753
1059 0 221.21 12.0926 2675 99.9032 1006.45 408.07
1060 0 229.419 12.584 2887 99.4396 1006.89 402.449
1061 0 238.46 12.392 2955 102.831 1006.62 402.572
1062 1 181.402 11.3229 2054 107.513 1007.76 425.666
1063 0 188.587 12.1801 2297 103.885 1007.75 421.993
1064 0 194.456 12.049 2343 104.166 1007.08 420.583
1065 0 201.545 12.682 2556 104.576 1007.18 413.932
1066 0 206.576 12.5523 2593 106.242 1006.94 411.431
1067 0 210.504 12.1186 2551 108.761 1006.57 406
1068 0 214.481 10.1081 2168 111.43 1006.46 412.049
1069 0 213.481 9.80417 2093 175.266 1007.46 414.262
1070 1 237.344 12.505 2968 104.515 1006.61 397.638
1071 0 244.409 12.7778 3123 105.328 1006.52 393.745
1072 0 255.289 12.8051 3269 104.273 1006.19 387.572
1073 0 263.461 12.6281 3327 105.329 1006.27 382.854
1074 0 267.509 12.0968 3236 108.059 1006.23 377.811
1075 0 280.47 12.8534 3605 107.292 1006.59 373.817
1076 0 288.416 13.3037 3837 106.645 1006.46 369.476
1077 0 295.421 13.188 3896 108.83 1007.02 364.361
1078 0 306.434 14.3848 4408 104.671 1005.88 358.771
1079 0 315.61 14.1536 4467 105.537 1005.73 352.745
1080 0 325.608 15.0211 4891 102.987 1006.51 351.655
1081 0 334.741 14.683 4915 104.284 1006.14 342.328
1082 0 344.708 14.0554 4845 106.361 1006.67 342.468
1083 0 356.587 14.8772 5305 104.53 1006.48 333.993
1084 1 283.651 8.20375 2327 105.239 1007.61 403.859
1085 0 287.747 11.5588 3326 105.389 1006.69 383.911
1086 0 294.76 11.1854 3297 106.16 1006.6 376.124
1087 0 303.737 13.6104 4134 101.474 1006.47 366.022
1088 0 313.611 13.166 4129 103.671 1007.21 365.031
1089 0 322.66 11.4362 3690 123.15 1006.68 362.353
1090 1 55.1001 9.34663 515 85.701 1010.68 509.542
1091 0 59.1422 9.80686 580 96.8379 1010.92 506.581
1092 0 56.3637 8.10805 457 86.6499 1010.63 508.821
1093 0 56.3693 8.85234 499 88.8056 1008.63 509.838
1094 0 56.3098 9.21687 519 88.9152 1008.24 507.988
1095 0 58.3388 8.29636 484 90.7541 1007.88 507.99
1096 0 60.3232 9.05124 546 90.1447 1008.12 506.394
1097 0 64.2951 9.42528 606 88.2838 1007.48 503.611
1098 0 66.4675 9.32786 620 88.6919 1007.61 504.206
1099 0 66.4244 9.39414 624 89.1042 1009.11 507.697
1100 0 69.3316 9.86563 684 88.0058 1009.27 505.582
1101 0 72.3979 9.91741 718 88.1685 1008.73 504.302
1102 0 74.2507 9.83156 730 87.1356 1008.63 500.811
1103 0 77.1893 10.0921 779 86.1617 1008.41 498.852
1104 0 74.316 8.55805 636 93.6116 1007.83 499.044
1105 0 81.1372 9.5394 774 89.4625 1009.23 496.775
1106 1 44.0278 9.40316 414 90.6232 1010.15 514.937
1107 0 45.0066 9.02089 406 96.9286 1010.45 514.175
1108 0 49.0355 9.40136 461 96.6052 1009.69 513.239
1109 0 49.02 10.2203 501 97.1856 1010.22 512.84
1110 0 53.0373 12.1235 643 83.9705 1010.63 514.213
1111 0 54.2435 12.2411 664 79.6566 1010.58 510.057
1112 0 59.2105 15.5547 921 71.8632 1010.34 508.751
1113 0 61.1852 15.0036 918 73.1547 1010.21 507.346
1114 0 59.248 13.0806 775 81.3458 1010.85 510.738
1115 0 57.1577 11.6345 665 88.0692 1011.14 510.937
1116 0 60.0818 12.6328 759 96.1476 1010.94 508.775
1117 0 61.0357 12.9105 788 96.3731 1011.05 507.971
1118 0 64.0725 13.1414 842 95.1627 1011.27 507.069
1119 0 64.0519 12.7553 817 98.2301 1010.85 505.935
1120 0 64.041 12.3827 793 101.003 1010.89 506.23
1121 0 68.344 13.1541 899 98.1246 1008.96 504.27
1122 0 67.326 12.8628 866 100.889 1009.08 503.963
1123 0 72.0883 13.1922 951 97.9548 1011.37 503.106
1124 0 72.0904 13.6634 985 98.2711 1010.98 501.255
1125 0 75.1283 13.0044 977 100.403 1011.34 500.753
1126 0 77.1171 13.7324 1059 98.3126 1010.56 499.612
1127 0 78.1468 13.3211 1041 100.345 1010.15 500.17
1128 0 78.1271 13.3756 1045 102.214 1010.39 499.319
1129 0 79.1527 12.7854 1012 99.7579 1009.69 499.95
1130 0 83.2794 12.7763 1064 98.4455 1009.44 498.992
1131 0 85.329 13.4538 1148 99.7169 1008.88 496.308
1132 0 86.1623 13.463 1160 97.6793 1009.64 497.574
1133 0 88.2044 13.7862 1216 101.03 1009.16 494.261
1134 0 91.2794 13.3108 1215 100.907 1009.01 494.207
1135 0 92.2 12.7766 1178 101.299 1009.64 494.191
1136 0 97.171 14.2018 1380 90.5601 1009.43 491.485
1137 0 101.207 13.1512 1331 101.255 1008.95 488.099
1138 0 99.197 12.833 1273 102.739 1009.47 489.498
1139 0 104.244 12.8353 1338 103.399 1008.96 486.191
1140 0 104.253 12.3833 1291 103.278 1009.37 485.372
1141 0 105.252 12.0947 1273 103.424 1009.14 483.327
1142 0 111.401 13.043 1453 103.981 1008.7 476.557
1143 0 112.268 12.8799 1446 103.181 1008.26 476.362
1144 0 112.27 12.0959 1358 104.579 1008.66 474.773
1145 0 115.257 11.7477 1354 104.323 1007.92 473.479
1146 0 118.295 12.0462 1425 102.959 1008.69 471.301
1147 0 119.295 11.2411 1341 105.845 1008.06 467.647
1148 0 124.316 11.6719 1451 104.019 1008.22 465.58
1149 0 127.257 11.8186 1504 103.121 1007.33 464.091
1150 0 132.28 11.5437 1527 92.1919 1007.4 458.816
1151 1 66.0901 9.24495 611 90.5957 1006.85 489.206
1152 0 71.0391 9.69889 689 88.4659 1007.36 488.521
1153 0 71.0755 10.8617 772 86.9054 1006.8 489.293
1154 0 79.1702 11.0395 874 87.6865 1007.69 491.038
1155 0 85.0801 12.0945 1029 87.9825 1009.57 491.572
1156 0 84.2577 11.4648 966 85.9648 1007.78 493.768
1157 0 88.3042 11.6642 1030 85.7524 1007.56 492.395
1158 0 90.2391 11.5139 1039 87.0741 1007.72 492.039
1159 0 93.193 12.1898 1136 85.6092 1008.24 490.953
1160 0 96.2588 11.7807 1134 88.1746 1007.79 490.321
1161 0 97.3175 11.9403 1162 88.3795 1008.34 488.048
1162 0 101.272 11.4938 1164 90.1804 1007.99 485.29
1163 0 104.304 12.1089 1263 89.1425 1007.99 483.663
1164 0 104.204 11.7654 1226 91.4103 1007.81 483.297
1165 0 106.274 12.1855 1295 91.634 1007.95 480.8
1166 0 111.203 12.5446 1395 90.0832 1008.25 481.138
1167 0 112.321 11.9034 1337 93.0546 1007.84 477.711
1168 0 117.406 11.8989 1397 91.9578 1007.2 476.321
1169 0 118.336 12.1518 1438 91.7691 1007.33 473.622
1170 0 125.263 12.3979 1553 91.0882 1007.17 469.886
1171 0 125.281 11.9092 1492 91.8767 1007.84 465.599
1172 0 129.361 11.6341 1505 93.6645 1006.72 461.099
1173 1 71.1282 9.11032 648 88.5602 1007.31 489.105
1174 0 72.114 10.5389 760 87.0921 1007.57 487.382
1175 0 79.1231 11.3115 895 89.5654 1008.67 497.254
1176 0 82.1419 12.0158 987 90.0963 1008.91 495.635
1177 0 85.1207 12.5116 1065 89.4939 1008.26 494.732
1178 0 86.1432 12.398 1068 91.8127 1008.1 493.368
1179 0 88.2152 12.2541 1081 92.7197 1008.56 492.42
1180 0 92.2349 12.414 1145 93.0803 1008.36 490.204
1181 0 93.1562 12.2375 1140 94.3316 1008.53 490.972
1182 0 96.2549 12.3942 1193 93.8927 1008.75 489.347
1183 0 100.278 12.3657 1240 94.5613 1008.12 488.755
1184 0 101.213 12.2712 1242 95.5982 1007.68 487.006
1185 0 104.166 11.9424 1244 96.6383 1007.16 485.141
1186 0 105.408 12.7599 1345 94.0141 1006.73 483.913
1187 0 108.286 12.5778 1362 96.0749 1006 482.948
1188 0 112.285 13.0828 1469 94.1307 1006.62 483.029
1189 0 114.261 12.9353 1478 96.0954 1006.57 481.451
1190 0 118.32 12.9395 1531 95.7322 1006.76 479.533
1191 0 121.327 12.5776 1526 96.9456 1006.57 476.471
1192 0 125.35 12.4133 1556 97.4499 1007.83 476.562
1193 0 129.237 12.628 1632 97.0147 1007.24 473.609
1194 0 131.301 12.8788 1691 98.3495 1007.06 471.62
1195 0 136.356 12.9147 1761 97.9171 1006.87 471.186
1196 0 138.379 13.7087 1897 96.6062 1006.18 468.103
1197 0 143.324 13.5148 1937 97.1378 1005.83 467.041
1198 0 146.447 13.3837 1960 98.4577 1005.93 464.608
1199 0 148.41 12.1892 1809 95.4682 1006.87 463.87
1200 0 154.418 13.036 2013 94.5231 1006.68 461.725
1201 0 158.519 13.2098 2094 100.116 1007.3 457.953
1202 0 161.523 12.6979 2051 97.1492 1006.94 456.883
1203 0 168.52 13.4524 2267 100.314 1006.84 451.138
1204 0 172.474 13.3353 2300 99.8357 1006.49 449.208
1205 0 180.48 12.7604 2303 102.789 1006.37 443.459
1206 0 184.387 12.8263 2365 102.074 1006.26 438.953
1207 0 192.425 12.6491 2434 103.194 1007.08 438.615
1208 0 197.479 12.5532 2479 103.833 1006.09 433.106
1209 0 204.608 12.4189 2541 103.48 1006.72 432.828
1210 0 209.499 12.6635 2653 104.319 1006.5 426.532
1211 1 157.264 11.2486 1769 104.629 1007.66 451.857
1212 0 163.669 12.2259 2001 103.654 1007.85 451.487
1213 0 169.719 12.2968 2087 95.8994 1007.06 452.111
1214 0 173.781 11.7102 2035 102.723 1007.01 448.353
1215 0 180.659 11.8179 2135 100.307 1006.85 444.758
1216 0 185.828 11.8658 2205 98.4893 1006.21 439.771
1217 0 189.628 11.2483 2133 98.9597 1007.05 436.591
1218 0 189.668 11.2196 2128 144.827 1008.05 436.346
1219 1 203.849 11.6557 2376 98.4213 1006.26 430.798
1220 0 212.805 12.8521 2735 94.6633 1007.14 432.21
1221 0 217.748 13.2079 2876 94.7583 1006.89 428.039
1222 0 224.77 12.6663 2847 96.7984 1006.61 424.162
1223 0 230.694 12.9436 2986 98.1001 1007.04 419.659
1224 0 239.629 13.8672 3323 96.9952 1007.46 416.974
1225 0 246.078 12.7764 3144 101.4 1006.99 411.001
1226 0 251.856 12.9637 3265 103.13 1006.71 406.712
1227 0 262.03 12.9909 3404 104.221 1006.34 401.301
1228 0 266.957 13.4778 3598 103.155 1006.44 393.658
1229 0 278.847 14.2121 3963 99.9324 1006.79 388.163
1230 0 285.123 15.5828 4443 96.8695 1006.88 379.956
1231 0 293.133 15.5697 4564 100.092 1007.3 369.161
1232 1 225.819 12.1779 2750 105.005 1006.91 410.517
1233 0 232.948 12.9772 3023 102.784 1007.33 410.109
1234 0 240.835 13.3535 3216 102.553 1006.4 406.08
1235 0 248.943 13.4167 3340 103.606 1006.24 400.301
1236 0 255.09 12.968 3308 105.108 1006.53 398.031
1237 0 259.956 12.6021 3276 106.495 1006.45 395.022
1238 0 268.847 13.2789 3570 104.72 1006.9 391.468
1239 0 268.842 13.3164 3580 159.929 1006.91 391.489
1240 1 359.923 9.93823 3577 115.112 1007.02 367.2
1241 1 298.902 15.7744 4715 99.0322 1007.03 370.479
1242 1 226.612 11.6984 2651 106.855 1006.06 415.431
1243 0 234.582 12.6225 2961 105.211 1006.67 411.352
1244 0 240.632 12.9742 3122 105.814 1005.75 404.127
1245 0 246.456 13.1504 3241 106.89 1005.76 398.456
1246 0 258.684 14.0674 3639 104.62 1005.98 395.434
1247 0 260.52 12.9817 3382 110.149 1006.43 389.371
1248 0 271.638 13.3928 3638 110.33 1006.57 386.347
1249 0 278.767 14.7291 4106 107.884 1006.65 378.77
1250 0 286.877 15.0099 4306 109.198 1007.1 373.821
1251 0 294.678 14.7517 4347 111.121 1006.82 369
1252 0 303.53 15.1023 4584 110.356 1007.51 362.164
1253 0 311.63 15.2135 4741 111.255 1007.71 361.191
1254 0 320.686 15.1082 4845 112.299 1007.61 355.366
1255 0 325.633 14.5686 4744 116.81 1007.42 347.917
1256 0 336.634 16.0441 5401 112.298 1007.24 342.063
1257 0 346.646 15.2374 5282 115.681 1007.64 338.119
1258 0 355.706 15.0799 5364 116.026 1007.5 333.536
1259 0 369.669 15.4544 5713 112.855 1006.37 330.492
1260 0 377.492 15.5844 5883 113.604 1006.56 324.007
1261 0 393.542 15.4164 6067 112.594 1006.9 322.045
1262 0 407.631 15.9875 6517 111.062 1006.6 318.49
1263 0 413.939 15.6569 6481 110.618 1006.33 308.681
1264 0 413.878 15.6036 6458 110.334 1007.18 308.904
1265 0 413.718 16.0593 6644 109.162 1006.75 308.21
1266 0 412.944 14.5831 6022 115.604 1006.66 305.163
1268 1 57.2196 10.7655 616 70.2646 1006.97 489.042
1269 0 56.3145 10.7965 608 71.6826 1007.65 488.791
1270 0 57.1449 11.6546 666 69.7808 1007.65 490.147
1271 0 71.3863 10.7724 769 66.1014 1007.99 487.026
1272 0 80.3556 8.83572 710 68.2479 1007.69 489.949
1273 0 80.7724 12.2319 988 63.8209 1008.43 495.425
1274 0 75.6721 12.4881 945 64.4561 1008.87 491.738
1275 0 81.1809 10.6059 861 67.698 1008.08 497.84
1276 0 71.3194 10.6703 761 71.0618 1008.36 489.314
1277 0 62.3595 14.1759 884 65.9186 1007.59 496.871
