time division length width area intensity CMx CMy
0 0 73.0932 14.2421 1041 115.577 1095.75 488.301
1 0 74.0557 15.1913 1125 111.776 1095.65 487.036
2 0 76.0672 14.6975 1118 111.275 1095.75 486.48
3 1 37.0515 11.5515 428 113.32 1096.63 506.199
4 0 39.0329 12.2205 477 110.226 1095.94 506.394
5 0 39.036 12.117 473 150.091 1094.95 506.461
6 0 39.0496 12.9579 506 109.769 1096.21 505.004
7 0 42.0058 13.3791 562 108.406 1096.39 504.023
8 0 42.0233 13.2308 556 103.621 1095.68 505.917
9 0 44.0606 13.6176 600 101.59 1095.13 503.672
10 0 46.187 13.0989 605 99.5223 1095.06 503.471
11 0 46.0805 13.5198 623 99.8202 1094.9 503.689
12 0 46.1119 13.6624 630 99.6619 1094.12 503.256
13 0 50.0545 13.785 690 96.9362 1094.19 501.886
14 0 49.0384 13.3773 656 98.439 1093.92 500.858
15 0 51.1014 13.8157 706 96.0552 1094.58 501.041
16 0 54.1002 13.7892 746 95.0724 1093.84 500.477
17 0 55.0819 14.1607 780 94.1577 1093.61 498.26
18 0 55.12 13.4253 740 95.4541 1093.37 500.188
19 0 58.09 14.2021 825 93.5345 1092.74 496.968
20 0 60.0906 13.9955 841 93.3864 1093.05 495.623
21 0 61.0535 13.4964 824 94.5595 1093.46 495.161
22 0 62.1585 14.093 876 92.7546 1092.96 493.906
23 0 65.1412 14.5223 946 91.574 1093.02 492.291
24 0 67.1251 13.9888 939 92.5911 1092.69 492.349
25 0 69.1486 13.6951 947 94.0444 1092.31 490.145
26 0 70.1467 14.3841 1009 93.4143 1093.12 491.122
27 0 72.0505 14.0873 1015 95.5911 1093 488.973
28 0 75.1395 13.6014 1022 95.4618 1092.22 491.052
29 0 78.0645 14.3471 1120 93.5902 1092.23 489.108
30 0 81.1876 14.3002 1161 92.7976 1092.32 489.273
31 0 84.2517 14.3855 1212 91.9653 1092.48 485.818
32 0 87.2404 14.3282 1250 92.9112 1092.09 484.967
33 0 91.1321 14.8905 1357 88.4407 1091.79 482.415
34 0 94.0728 13.4258 1263 89.1853 1091.57 481.876
35 0 98.1009 14.2099 1394 87.5086 1091.6 481.232
36 1 53.1035 12.3721 657 88.312 1092.55 501.903
37 0 56.1247 13.5769 762 89.3412 1092.43 500.154
38 0 57.061 13.7222 783 87.8059 1092.53 499.579
39 0 58.1309 13.1771 766 89.5809 1092.41 499.597
40 0 59.0506 13.3614 789 89.8897 1092.38 498.324
41 0 61.0852 13.3748 817 89.7956 1092.06 497.687
42 0 65.0886 13.4432 875 90.3109 1092.51 495.83
43 0 67.1286 13.1985 886 91.0824 1091.66 493.334
44 0 69.1033 13.6462 943 89.175 1091.97 492.109
45 0 72.0573 14.3636 1035 81.0048 1091.83 490.98
46 0 72.0718 13.7086 988 90.581 1092.48 490.11
47 0 75.1185 14.0178 1053 89.5147 1091.86 488.757
48 0 79.1754 14.3353 1135 89.8837 1092.39 486.331
49 0 82.1691 13.2897 1092 90.5137 1091.87 485.514
50 0 84.0764 13.7137 1153 89.4744 1091.99 484.853
51 0 86.1463 14.0343 1209 89.7585 1092.11 483.797
52 0 90.1358 13.5573 1222 90.2709 1091.76 481.639
53 0 92.1131 13.7657 1268 89.3202 1091.43 481.614
54 0 96.1328 13.4189 1290 90.3566 1091.96 477.559
55 1 51.0223 11.0344 563 87.373 1092.67 501.835
56 0 52.0459 11.6051 604 87.3791 1093.01 501.523
57 0 53.0611 12.5139 664 87.1611 1093.17 499.565
58 0 54.1729 11.9063 645 84.2791 1092.73 500.667
59 0 56.1443 12.6638 711 84.8762 1092.63 498.032
60 0 57.1141 12.1686 695 83.8863 1093.33 498.685
61 0 59.1236 13.0743 773 82.1332 1092.9 496.986
62 0 63.1663 12.3483 780 81.4372 1093.2 497.192
63 0 65.1706 13.1501 857 80.9125 1092.88 495.665
64 0 69.1453 13.0305 901 80.5161 1092.49 495.18
65 0 68.0861 12.5282 853 82.415 1093.15 494.78
66 0 70.1008 12.6247 885 82.8497 1092.49 492.638
67 0 74.1379 12.733 944 84.1218 1092.57 492.119
68 0 78.0797 13.1917 1030 82.5068 1092.24 490.077
69 0 78.2054 12.6078 986 83.6866 1093.28 489.423
70 0 84.1657 12.9744 1092 81.3214 1093.01 487.842
71 0 85.1047 12.7843 1088 82.2638 1092.59 486.106
72 0 89.1385 12.6432 1127 81.6016 1092.2 484.587
73 0 91.0981 13.491 1229 80.3417 1091.53 483.256
74 1 46.0343 11.6652 537 76.7076 1091.56 505.345
75 0 48.0393 11.7196 563 80.0213 1092.18 504.563
76 0 50.0169 11.796 590 86.361 1092.4 503.373
77 0 47.0967 10.574 498 80.5783 1091.3 504.695
78 0 50.1104 11.4148 572 77.5717 1091.98 504.318
79 0 50.101 11.1774 560 78.6696 1092.43 504.446
80 0 52.0995 11.4588 597 77.9564 1092.75 504.059
81 0 55.1176 11.9925 661 76.5477 1093.01 501.967
82 0 56.0805 11.9471 670 77.6642 1092.94 500.699
83 0 58.0957 11.8253 687 77.7118 1093.07 499.645
84 0 59.1073 12.1474 718 80.4164 1093.65 499.474
85 0 61.1294 12.0891 739 82.3559 1093.48 498.51
86 0 64.2149 12.7385 818 80.5391 1093.65 497.292
87 0 65.1884 12.6249 823 82.3682 1093.42 497.32
88 0 69.2176 13.3492 924 82.9729 1093.18 494.393
89 0 70.2661 13.5485 952 85.8267 1094.24 492.611
90 0 72.2623 13.1881 953 88.4187 1093.57 491.386
91 0 75.299 12.9749 977 90.1853 1093.96 489.183
92 0 77.2419 13.7878 1065 87.6272 1094 489.017
93 0 80.2018 13.6281 1093 88.6011 1093.69 488.137
94 0 83.1847 12.7547 1061 91.6418 1093.51 487.152
95 0 87.1738 14.0639 1226 88.5073 1092.81 483.376
96 1 43.0829 12.534 540 89.2 1093.69 506.452
97 0 42.1967 12.3469 521 81.9232 1092.99 509.929
98 0 44.237 11.8453 524 81.8092 1092.78 509.239
99 0 44.1935 11.3139 500 83.616 1092.76 508.572
100 0 44.1935 11.3818 503 139.306 1092.78 508.469
101 0 46.2532 12.4964 578 81.0744 1092.6 506.583
102 0 48.2431 11.8774 573 82.103 1093.1 506.543
103 0 48.3264 12.0017 580 83.0103 1092.86 505.49
104 0 49.2468 12.0008 591 83.5567 1093.07 504.572
105 0 52.2713 12.416 649 82.4176 1093.33 502.473
106 0 53.2164 12.0264 640 83.625 1092.96 501.903
107 0 56.2855 12.4011 698 83.1089 1093.01 500.527
108 0 58.1642 12.3616 719 83.2517 1092.61 500.508
109 0 59.1602 11.9337 706 84.3017 1092.48 500.017
110 0 62.2113 12.6826 789 81.9645 1093.1 498.431
111 0 63.1081 12.4548 786 81.4198 1091.74 497.943
112 0 67.0644 12.5551 842 80.2411 1092.34 497.021
113 0 67.0369 12.1277 813 81.3419 1091.85 494.764
114 0 69.026 12.8792 889 79.1991 1092.17 493.496
115 0 72.1067 12.8421 926 78.3585 1092.12 492.697
116 0 73.0514 12.854 939 78.1193 1091.33 492.772
117 0 79.077 13.4805 1066 76.7176 1091.02 490.568
118 0 80.0794 13.2618 1062 77.274 1091.6 489.362
119 0 81.1321 13.0281 1057 78.7654 1091.42 489.02
120 0 85.1506 13.2823 1131 78.5305 1091.5 487.864
121 0 85.1523 12.5657 1070 81.743 1091.78 485.371
122 0 88.1954 13.0052 1147 80.7306 1091.48 484.836
123 0 90.1275 12.7375 1148 82.1472 1091.95 482.225
124 0 94.1738 13.2627 1249 78.257 1092.08 482.444
125 0 96.2306 13.5404 1303 77.7759 1091.76 478.5
126 0 99.1715 13.643 1353 76.663 1091.38 479.758
127 0 102.18 13.7796 1408 76.6044 1091.19 476.793
128 0 104.203 13.8767 1446 77.9108 1090.96 475.268
129 0 109.161 13.7595 1502 81.4041 1091.11 473.73
130 0 109.338 13.8195 1511 82.3984 1091.45 471.219
131 0 115.485 13.768 1590 82.7893 1091.73 469.662
132 0 116.685 13.7208 1601 84.4553 1091.51 466.685
133 0 121.582 13.7602 1673 85.0861 1091.28 464.883
134 0 124.562 13.8726 1728 86.2512 1091.34 462.674
135 0 129.568 14.5329 1883 85.2098 1091.25 461.254
136 0 133.585 14.066 1879 86.7802 1091.41 459.234
137 0 135.513 14.1683 1920 87.7609 1091.39 455.689
138 0 140.729 14.1548 1992 87.7374 1091.64 455.213
139 0 145.655 13.9576 2033 89.0236 1091.47 452.573
140 0 149.656 14.1525 2118 88.5222 1090.98 448.14
141 0 156.556 14.3974 2254 87.5217 1090.71 450.482
142 0 162.575 14.6024 2374 87.4722 1091.08 448.454
143 0 166.552 14.3859 2396 88.8727 1090.92 446.402
144 0 169.335 14.8168 2509 87.7577 1090.88 443.432
145 1 92.2279 11.9053 1098 79.6002 1091.02 486.346
146 0 92.3393 11.696 1080 80.1648 1091 483.125
147 0 97.4067 12.7917 1246 79.7913 1090.93 480.877
148 0 99.1894 12.0577 1196 79.5477 1090.75 479.191
149 0 103.431 12.2884 1271 78.7844 1091.42 477.913
150 0 106.254 12.3102 1308 81.9671 1091.29 475.23
151 0 110.242 13.1892 1454 78.707 1091.02 473.692
152 0 115.472 12.4013 1432 80.3485 1091.27 473.5
153 0 118.412 12.1187 1435 81.9052 1091.07 469.392
154 0 121.541 11.9548 1453 82.3682 1090.81 466.204
155 1 70.3386 11.3735 800 75.0562 1091.86 495.316
156 0 72.3242 10.9092 789 76.3561 1091.51 492.767
157 0 75.2966 12.2051 919 74.8466 1091.91 491.295
158 0 78.2646 12.1639 952 73.6166 1091.75 491.873
159 0 79.2312 12.2427 970 74.4825 1091.92 489.921
160 0 79.2255 10.8677 861 77.2451 1092.31 490.275
161 0 84.2243 11.6475 981 75.367 1091.88 488.03
162 0 87.2772 11.9275 1041 75.0317 1091.31 484.532
163 0 90.3156 11.4709 1036 77.1129 1091.49 483.279
164 0 94.3003 12.5132 1180 74.8551 1091.21 481.35
165 0 97.301 11.6854 1137 78.2542 1091.67 481.123
166 0 101.324 12.011 1217 82.6122 1091.05 476.937
167 1 56.1678 10.2906 578 78.4031 1092.46 499.728
168 0 55.1476 10.9343 603 80.471 1092.9 498.645
169 0 58.0805 11.3463 659 77.173 1093.37 497.475
170 0 61.1343 11.8919 727 70.9271 1091.95 498.999
171 0 61.1653 11.4281 699 74.0229 1092.6 496.534
172 0 64.2188 11.6944 751 72.1065 1091.92 495.465
173 0 64.2715 11.9493 768 72.401 1092.02 492.954
174 0 64.1796 11.499 738 74.0935 1091.38 495.142
175 0 66.1911 11.8596 785 73.1439 1092.24 494.627
176 0 69.1423 11.5993 802 73.8067 1092.06 494.502
177 0 70.1662 11.5298 809 74.6799 1092.17 493.428
178 0 72.216 11.6733 843 76.6762 1092.41 491.6
179 0 76.1555 12.0149 915 75.7311 1092.69 490.249
180 0 77.266 11.5316 891 77.0808 1092.1 490.652
181 0 80.2012 12.2941 986 75.7769 1092.09 490.952
182 0 83.2048 13.0762 1088 74.9136 1091.74 487.78
183 0 85.2144 13.202 1125 76.1316 1092.31 485.971
184 0 87.2369 12.1508 1060 78.0925 1092.17 485.482
185 0 92.193 12.9511 1194 76.4623 1092.18 483.317
186 0 95.1942 12.8789 1226 76.7349 1092.32 482.458
187 0 97.1538 12.7633 1240 77.8935 1092.52 480.551
188 1 57.0858 12.0871 690 75.9841 1093.27 500.593
189 0 58.1563 12.3289 717 74.3431 1091.52 499.573
190 0 59.0221 12.1649 718 83.2604 1093.46 496.205
191 0 59.0401 11.687 690 86.0145 1092.6 495.748
192 0 58.1581 11.2624 655 79.6107 1090.33 498.438
193 0 62.1753 11.741 730 77.8863 1090.19 498.741
194 0 64.1159 11.6976 750 78.9747 1090.46 497.327
195 0 66.1175 12.4778 825 76.6339 1090.35 497.176
196 0 69.1765 11.4634 793 78.9067 1090.82 494.662
197 0 73.1784 12.3397 903 76.5039 1089.96 492.527
198 0 75.2131 12.1787 916 75.6921 1089.91 492
199 0 77.2924 12.3945 958 75.4562 1089.19 490.21
200 0 83.0874 12.9743 1078 72.2486 1089.12 488.096
201 0 85.0659 12.4962 1063 73.3039 1088.52 487.04
202 0 87.2067 12.499 1090 93.7239 1088.64 485.096
203 1 47.037 10.8 508 94.372 1089.4 504.98
204 0 48.1429 11.6113 559 94.458 1090.82 505.113
205 0 51.0741 11.5323 589 95.365 1090.82 504.338
206 0 51.0645 11.554 590 149.158 1090.82 504.378
207 0 52.1938 12.8176 669 89.7922 1089.45 503.87
208 0 53.1573 12.5477 667 90.9505 1089.36 503.936
209 0 55.2106 12.8599 710 91.9197 1089.86 502.145
210 0 56.1261 12.5076 702 93.0328 1089.72 501.657
211 0 58.1755 12.5482 730 93.1493 1090.08 501.693
212 0 61.096 12.4885 763 96.4089 1091.57 500.139
213 0 62.0822 12.7734 793 97.2232 1091.4 498.73
214 0 63.0896 12.7438 804 97.097 1091.85 497.591
215 0 66.0727 12.6981 839 99.8987 1091.47 497.242
216 0 68.0915 13.3203 907 98.4542 1091.45 495.498
217 0 67.0623 12.7046 852 100.901 1090.85 494.642
218 0 70.1142 13.2498 929 93.9795 1091.14 492.774
219 0 74.1863 13.9918 1038 91.2042 1090.42 492.691
220 0 76.1526 13.0133 991 93.3108 1090.64 491.345
221 0 78.2406 12.6533 990 94.0071 1090.4 490.186
222 0 80.2569 13.22 1061 92.7238 1090.76 489.292
223 0 83.3394 13.175 1098 92.2486 1090.57 486.984
224 0 81.2429 11.7672 956 98.5837 1090.53 487.345
225 0 86.3275 11.9197 1029 95.8212 1089.53 485.691
226 1 44.2885 9.84455 436 92.5046 1089.92 501.936
227 0 41.2158 9.43813 389 86.1105 1090.25 496.676
228 0 42.1694 10.363 437 84.4165 1091.14 496.101
229 0 48.337 11.3164 547 84.5174 1090.8 504.015
230 0 49.1323 11.2553 553 83.358 1090.26 504.434
231 0 50.1665 11.0432 554 83.9368 1090.64 503.756
232 0 51.1588 11.0831 567 84.619 1090.68 504.102
233 0 52.1726 11.2895 589 84.5484 1090.52 504.251
234 0 53.2846 11.448 610 91.4508 1090.55 500.774
235 0 55.1651 10.9489 604 85.5083 1090.04 499.702
236 0 58.3232 11.2477 656 85.3537 1090.4 499.98
237 0 60.4387 11.5654 699 84.5522 1090.38 498.718
238 0 60.1972 11.7613 708 86.0042 1090.32 498.706
239 0 62.3089 11.78 734 86.4441 1089.75 496.281
240 0 62.3043 11.6525 726 127.302 1088.73 496.244
241 0 65.4106 11.9858 784 87.1888 1090.52 495.005
242 0 68.3396 12.4525 851 86.1492 1090.1 494.096
243 0 71.2523 12.2943 876 86.4578 1089.88 493.031
244 0 71.354 12.3329 880 87.2773 1090.05 491.133
245 0 75.2888 12.7509 960 85.4052 1089.72 490.186
246 0 79.2983 12.9006 1023 86.3226 1090 488.104
247 0 82.2847 12.5783 1035 86.4531 1089.16 486.432
248 0 83.3147 12.5188 1043 88.4439 1089.55 485.147
249 1 44.1355 10.785 476 89.7164 1090.6 506.309
250 0 44.0287 10.6294 468 90.8697 1091.28 505.438
251 0 47.0252 10.6964 503 90.8907 1091.01 504.801
252 0 44.015 10.7463 473 90.2854 1089.76 503.087
253 0 45.1254 10.7035 483 84.9296 1089.3 507.656
254 0 46.1013 10.8023 498 85.4819 1088.79 505.598
255 0 46.203 10.8002 499 89.6373 1090.47 505.024
256 0 48.0427 11.3857 547 85.6929 1089.19 505.861
257 0 48.0894 10.938 526 89.6293 1089.44 505.049
258 0 50.3187 11.0496 556 88.1025 1090.97 503.772
259 0 51.27 11.0786 568 89.9225 1090.06 502.43
260 0 52.2491 11.2155 586 89.6894 1090.53 501.184
261 0 55.295 11.8275 654 89.7355 1090.14 500.387
262 0 57.2442 11.6868 669 91.1674 1090.31 499.913
263 0 57.172 11.4392 654 93.1988 1089.29 500.76
264 0 60.2388 11.8528 714 93.1709 1089.93 498.62
265 0 62.1334 12.441 773 92.6378 1089.26 497.889
266 0 65.1599 12.0473 785 95.2369 1089.28 497.591
267 0 67.1685 12.5654 844 95.7085 1089.1 496.688
268 0 68.1286 12.359 842 97.639 1088.83 495.5
269 0 69.1455 12.64 874 98.7105 1089 494.374
270 0 72.2287 12.405 896 100.126 1088.75 493.883
271 0 73.163 13.1214 960 100.18 1089.41 491.478
272 0 78.1534 13.0385 1019 100.159 1088.78 490.119
273 0 77.1328 12.1349 936 104.483 1088.84 489.91
274 0 81.2302 13.2709 1078 101.358 1089.61 486.737
275 0 82.2354 13.0479 1073 102.659 1088.83 486.515
276 0 86.1704 12.5217 1079 103.119 1088.92 486.298
277 0 86.1805 12.6247 1088 142.016 1089.9 486.156
278 1 50.0905 11.3195 567 104.099 1089.07 504.868
279 0 48.0447 12.4051 596 104.092 1090.68 504.47
280 0 49.1606 11.8184 581 96.0155 1089.19 506.246
281 0 48.0959 11.2276 540 100.069 1088.97 504.907
282 0 51.1957 12.6573 648 96.2886 1090.19 503.975
283 0 54.1033 12.1434 657 96.9848 1089.83 503.842
284 0 56.2174 12.5762 707 96.3296 1090.67 502.888
285 0 56.1942 12.0831 679 99.7069 1089.71 502.128
286 0 58.1281 12.7133 739 98.6752 1090.09 500.932
287 0 61.1572 12.5087 765 98.3843 1089.81 500.507
288 0 63.1865 12.6768 801 100.794 1090.77 498.735
289 0 65.0944 12.9658 844 99.109 1089.75 498.603
290 0 67.1991 12.8424 863 100.335 1090.92 496.154
291 0 70.1649 12.3851 869 100.891 1090.05 496.041
292 0 72.207 12.6719 915 100.067 1090.09 493.757
293 0 74.1647 12.7554 946 100.653 1090.21 493.863
294 0 75.2026 12.6724 953 101.307 1089.73 491.692
295 0 77.1311 12.7964 987 101.202 1088.53 492.086
296 0 79.1192 12.9931 1028 100.641 1088.41 490.53
297 0 83.1107 13.1632 1094 98.9388 1088.99 488.953
298 0 84.1257 12.8379 1080 97.8593 1088.77 487.746
299 0 87.1473 13.001 1133 96.857 1088.78 485.706
300 0 89.1181 12.3095 1097 97.9881 1088.95 485.808
301 0 92.1143 12.6256 1163 96.466 1088.77 483.97
302 0 94.0833 12.0957 1138 98.5255 1087.86 482.946
303 0 99.0725 12.7987 1268 97.2737 1088.44 481.222
304 1 49.0146 10.6907 524 99.6279 1087.43 505
305 0 53.0699 11.2305 596 97.3456 1088.04 503.257
306 0 54.0759 11.7243 634 94.0568 1088.7 502.948
307 0 57.0505 12.9885 741 92.3509 1088.48 502.204
308 0 58.2143 12.3853 721 93.7642 1089.9 501.795
309 0 60.0884 12.7812 768 91.5143 1088.51 501.717
310 0 60.117 12.0266 723 94.2407 1088.3 503.13
311 0 60.0637 11.4212 686 97.723 1088.55 501.458
312 0 63.0789 12.0167 758 96.314 1088.73 500.883
313 0 65.1348 12.2055 795 96.5333 1088.21 498.708
314 0 67.0774 11.852 795 97.3987 1087.71 498.102
315 0 69.0541 11.9037 822 96.9611 1088.2 497.245
316 0 71.1563 11.8331 842 95.323 1088.92 496.132
317 0 71.1537 11.7492 836 133.975 1089.91 496.165
318 0 75.1443 11.1785 840 99.5179 1089.38 494.629
319 0 77.1619 11.91 919 99.0566 1089.12 494.272
320 0 80.2259 12.4025 995 102.318 1089.62 493.742
321 0 81.2156 12.2021 991 103.605 1089.24 492.848
322 0 82.2431 12.0618 992 104.611 1089.04 491.722
323 0 87.3523 11.7799 1029 105.058 1088.71 491.093
324 0 89.1728 12.2459 1092 100.588 1089.04 491.387
325 0 91.2566 11.6485 1063 102.408 1088.14 489.915
326 0 95.3414 11.7473 1120 100.804 1087.91 487.744
327 0 97.5205 11.2694 1099 102.82 1088.12 486.676
328 1 53.3956 10.675 570 99.5474 1089.27 508.244
329 0 56.3617 10.8939 614 97.443 1089.25 507.244
330 0 55.5015 10.6844 593 99.7639 1088.85 506.931
331 0 57.3883 11.3089 649 100.504 1088.61 504.98
332 0 57.3554 10.9493 628 103.054 1087.75 503.403
333 0 61.2531 12.179 746 99.8164 1088.62 502.657
334 0 62.1291 11.2669 700 104.907 1088.26 499.966
335 0 64.154 11.3477 728 106.055 1088.5 499.016
336 0 67.0323 11.5318 773 105.379 1087.98 497.891
337 0 67.0336 11.6956 784 103.955 1088.2 497.125
338 0 68.0408 12.3014 837 102.751 1087.94 495.625
339 0 72.0776 12.0703 870 103.159 1087.71 494.997
340 0 73.1503 12.2351 895 102.828 1087.62 492.716
341 0 74.099 12.3214 913 102.978 1088.28 491.849
342 0 76.0855 12.3808 942 102.553 1087.27 492.399
343 0 81.1244 12.8321 1041 100.356 1087.64 491.937
344 0 83.188 12.7062 1057 101.288 1085.4 490.938
345 0 83.1914 12.6215 1050 100.568 1085.7 489.43
346 0 85.1282 12.8747 1096 101.283 1085.91 488.141
347 0 88.1419 12.6501 1115 101.859 1085.03 488.262
348 0 91.1326 12.9262 1178 102.112 1085 486.03
349 0 91.3127 11.8384 1081 105.193 1084.59 485.743
350 0 94.3506 12.39 1169 103.908 1084.75 484.837
351 0 96.3885 11.63 1121 109.536 1085.25 483.467
352 0 98.413 11.5737 1139 108.191 1085.31 482.592
353 0 102.359 12.2803 1257 106.222 1085.69 480.375
354 0 101.441 11.5043 1167 108.087 1085.55 477.949
355 0 104.334 11.4728 1197 104.88 1085.37 478.214
356 0 109.361 11.1648 1221 105.338 1084.88 475.091
357 0 111.186 10.7028 1190 103.939 1084.69 473.987
358 0 114.19 10.9992 1256 104.588 1084.68 469.143
359 0 118.183 10.6022 1253 106.192 1084.36 467.727
360 0 122.269 10.1743 1244 107.727 1084.45 466.29
361 0 127.176 10.5759 1345 107.018 1084.53 462.517
362 1 51.2087 9.13907 468 90.1816 1085.21 503.233
363 0 51.2743 8.83484 453 93.3951 1087.46 502.344
364 0 52.2102 9.71074 507 90.8876 1088.18 500.231
365 0 53.2556 9.89567 527 89.8197 1088.02 500.941
366 0 55.0873 10.2383 564 90.2695 1089.54 500.888
367 0 56.055 9.86532 553 91.2369 1089.75 501.031
368 0 58.1197 9.63529 560 91.5643 1089.19 497.534
369 0 62.046 10.2021 633 90.188 1089.05 499.701
370 0 62.0371 10.6066 658 90.804 1088.74 497.921
371 0 66.0619 10.9291 722 88.7091 1088.67 497.176
372 0 61.4468 9.68317 595 81.8471 1087.26 497.531
373 0 64.3506 10.3029 663 81.0483 1087.76 499.051
374 0 66.3908 9.44408 627 81.2663 1087.65 497.791
375 0 69.3783 10.45 725 80.5476 1087.44 495.352
376 0 70.3247 9.66943 680 81.4382 1087.51 496.432
377 0 73.46 9.84209 723 81.1632 1087.91 495.012
378 0 74.218 9.71463 721 82.7795 1087.69 493.716
379 1 40.1265 9.2956 373 81.6059 1089.01 510.11
380 0 43.1595 9.10576 393 82.2774 1089.23 509.053
381 0 43.0914 9.53786 411 81.2214 1088.74 508.022
382 0 46.1704 10.1797 470 80.3489 1089.27 507.9
383 0 48.0955 10.1673 489 79.5501 1088.65 505.824
384 0 50.5543 10.4442 528 78.2273 1088.55 506.1
385 0 50.0167 10.0167 501 79.0858 1089.29 504.238
386 0 53.0389 10.9165 579 75.6701 1089.41 502.941
387 0 52.0244 10.3413 538 76.7751 1089.16 502.208
388 0 51.3673 10.1232 520 75.9212 1088.83 502.621
389 0 51.2102 9.74416 499 77.0281 1087.72 502.543
390 0 50.231 8.64009 434 77.4171 1088.14 502.175
391 0 52.2636 9.14594 478 76.6172 1088.04 501.81
392 0 54.2302 10.2526 556 76.9155 1088.54 498.656
393 0 53.2774 9.64762 514 80.0019 1088.49 497.099
394 0 56.3284 9.55112 538 78.7695 1088.15 497.268
395 0 62.3812 10.7725 672 75.8348 1088.61 497.603
396 0 62.3713 10.0206 625 77.76 1089.12 496.469
397 0 65.2269 11.0844 723 76.2503 1089.23 495.461
398 0 66.1834 10.9091 722 78.3643 1089.5 494.097
399 0 68.2899 11.1437 761 78.1577 1088.81 493.275
400 0 71.381 11.3476 810 77.6617 1088.73 492.235
401 0 75.4115 11.855 894 76.0291 1088.1 486.843
402 0 76.3747 11.1424 851 78.0388 1088.95 486.625
403 0 80.3759 11.384 915 76.7847 1088.46 485.039
404 0 84.4163 11.9882 1012 77.0168 1088.84 480.322
405 0 80.2677 11.5738 929 77.6523 1089.23 481.517
406 0 85.1874 11.4688 977 78.4084 1088.93 481.324
407 0 89.2034 12.096 1079 77.3781 1088.54 477.16
408 0 89.2085 12.1513 1084 106.576 1088.53 477.064
409 1 49.0999 11.1609 548 80.6624 1089.62 498.998
410 0 52.0436 11.6825 608 78.3997 1089.14 498.929
411 0 55.1755 11.1463 615 83.1398 1089.46 497.094
412 0 55.2047 11.4121 630 78.0778 1089.13 501.079
413 0 57.2038 10.8035 618 79.5518 1088.23 499.129
414 0 59.2007 12.2465 725 75.709 1088.99 500.73
415 0 62.373 11.4152 712 78.0815 1088.76 498.961
416 0 64.3311 12.016 773 77.1138 1088.97 499.73
417 0 66.2356 12.2593 812 77.9249 1088.87 497.165
418 0 67.2588 12.1174 815 79.908 1088.24 496.238
419 0 70.2718 12.2809 863 81.3546 1088.29 495.168
420 0 72.3217 11.8222 855 83.8912 1088.57 493.651
421 0 75.3795 12.5764 948 82.8639 1088.76 491.59
422 0 77.4333 12.2428 948 83.6245 1088.48 491.892
423 0 79.3497 12.4764 990 84.7202 1088.09 487.454
424 0 82.2863 12.2378 1007 86.5869 1088.6 486.932
425 0 84.206 11.745 989 90.1972 1088.57 483.721
426 0 86.3649 12.2619 1059 87.5637 1087.95 482.976
427 0 88.208 12.3005 1085 88.6866 1087.25 479.256
428 0 93.2361 12.5702 1172 87.6741 1087.67 477.533
429 0 92.3281 12.0115 1109 90.8287 1087.43 476.059
430 0 95.2103 11.5849 1103 91.796 1087.42 473.222
431 0 101.195 12.1547 1230 91.0431 1088.22 471.784
432 0 106.3 12.2954 1307 90.1331 1087.2 470.431
433 1 51.016 9.3304 476 91.5777 1088.86 495.193
434 0 57.0688 10.3559 591 91.0728 1088.75 494.115
435 0 58.1024 10.8601 631 82.271 1087.46 501.708
436 0 60.1216 9.89661 595 84.3664 1087.01 500.59
437 0 61.1485 10.0411 614 84.2378 1087.72 499.971
438 0 64.1869 11.0459 709 84.7066 1088.25 496.927
439 0 68.2294 11.9157 813 83.2362 1088.43 498.207
440 0 70.1439 11.733 823 82.3536 1088.19 497.199
441 0 73.2343 12.3439 904 81.2002 1088.45 496.197
442 0 74.1234 12.1959 904 81.2876 1088.86 494.564
443 0 76.1423 11.9776 912 81.5888 1088.21 491.2
444 0 79.1519 11.7875 933 81.4995 1088.22 491.51
445 0 82.1553 11.9651 983 81.529 1087.27 489.089
446 0 84.1483 11.86 998 82.487 1087.81 489.323
447 0 87.1611 12.1384 1058 83.7146 1087.48 486.335
448 0 92.2317 11.9373 1101 83.8892 1088.05 484.766
449 0 94.1008 11.9978 1129 83.7538 1087.78 484.169
450 0 95.3381 11.7162 1117 83.7377 1088.18 483.235
451 0 99.2309 11.307 1122 87.0045 1087.32 481.098
452 0 102.339 11.3251 1159 86.843 1086.77 478.06
453 0 106.52 10.9369 1165 85.2112 1086.59 474.003
454 0 108.372 11.1007 1203 85.7589 1086.9 471.304
455 1 62.0414 10.5575 655 75.2931 1087.07 500.798
456 0 63.3948 12.1777 772 72.7915 1088.18 498.378
457 0 65.6025 11.1429 731 74.4815 1089.11 496.041
458 0 66.1287 11.4927 760 75.5553 1088.55 496.247
459 0 69.109 12.0534 833 79.9316 1090.27 492.826
460 0 71.0709 11.7348 834 82.0659 1089.63 491.444
461 0 74.0578 11.8826 880 81.3182 1089.1 490.894
462 0 76.0748 11.9882 912 81.8081 1089.4 489.565
463 0 78.0981 11.6776 912 81.9046 1089.85 487.56
464 0 78.0981 11.6904 913 140.276 1089.89 487.551
465 0 83.0641 12.075 1003 83.2841 1089.19 486.92
466 0 87.1365 12.2796 1070 83.5299 1089.7 484.839
467 0 89.0809 11.6411 1037 86.2633 1089.17 482.914
468 0 92.1403 12.3724 1140 84.5421 1089.28 481.376
469 0 94.1426 12.1624 1145 85.3799 1088.8 478.885
470 0 97.1214 12.3042 1195 86.2753 1088.35 477.927
471 0 102.096 12.5862 1285 84.8693 1088.54 478.851
472 0 106.088 12.5085 1327 86.4883 1087.96 475.892
473 0 108.118 12.7453 1378 87.127 1088.1 473.697
474 1 57.0517 9.76308 557 82.6607 1088.29 501.944
475 0 59.0527 10.1435 599 80.4808 1088.11 500.896
476 0 59.0561 11.0404 652 75.6672 1087.8 499.934
477 0 61.0448 10.9592 669 75.7862 1087.29 499.547
478 0 56.0626 9.70343 544 71.6746 1086.08 490.706
479 0 57.149 11.0763 633 68.6288 1085.98 491.54
480 0 61.1919 10.9818 672 67.9807 1086.07 489.565
481 0 68.1785 12.6726 864 74.7755 1087.34 495.285
482 0 69.3636 12.6868 880 77.4966 1087.75 494.865
483 0 73.2003 12.6502 926 77.0972 1087.6 494.66
484 0 72.3056 12.5993 911 79.7508 1087.45 493.439
485 0 75.2526 12.6241 950 80.0337 1086.99 492.322
486 0 74.1491 11.7466 871 84.3571 1087.23 492.093
487 0 77.1708 11.9734 924 82.2965 1087.35 491.472
488 0 78.192 11.7275 917 81.7612 1086.33 490.938
489 0 80.1838 12.4713 1000 80.879 1085.85 487.706
490 0 82.1756 11.8648 975 82.5774 1086.45 488.031
491 0 86.1824 12.3111 1061 80.9463 1086.72 486.257
492 0 84.1815 11.3564 956 82.2877 1086.63 484.05
493 0 90.23 12.3795 1117 81.9176 1085.12 482.146
494 0 92.3055 12.1445 1121 83.0589 1085.65 480.639
495 0 93.2285 12.6893 1183 84.0203 1085.59 478.556
496 0 96.2238 11.837 1139 85.8867 1086.12 476.172
497 0 98.2608 12.2633 1205 85.6166 1085.59 475.25
498 0 100.281 11.9764 1201 86.856 1086.08 474.162
499 0 103.197 12.3356 1273 87.3354 1085.84 472.628
500 0 108.234 12.1219 1312 87.2957 1085.33 472.363
501 0 110.176 11.9989 1322 87.4168 1085.41 469.461
502 0 113.232 12.2581 1388 86.9056 1085.34 465.882
503 0 114.243 11.2304 1283 90.1489 1085.42 463.659
504 0 114.155 11.2478 1284 87.5678 1085.53 457.164
505 1 59.0836 8.56414 506 78.6858 1084.47 488.538
506 0 61.0708 9.46442 578 77.154 1084.85 487.957
507 0 62.0506 9.79846 608 77.5312 1084.82 485.102
508 0 70.3447 10.9461 770 76.526 1087.78 493.564
509 0 73.2901 11.0929 813 77.23 1087.02 493.309
510 0 76.3427 11.5794 884 76.802 1086.77 494.173
511 0 79.2755 11.8574 940 81.0606 1086.4 491.878
512 0 80.2717 11.5732 929 84.2336 1087.78 491.141
513 0 83.3514 12.2733 1023 83.1603 1087.66 490.271
514 0 84.3081 12.3476 1041 85.1623 1088.06 490.754
515 0 88.3243 12.3182 1088 86.1029 1087.99 488.14
516 0 91.3149 12.8237 1171 85.2707 1087.31 485.537
517 0 93.4382 12.5538 1173 86.2199 1086.75 483.295
518 0 96.2841 12.2762 1182 88.9408 1086.7 484.432
519 1 51.0454 9.44258 482 83.4938 1087.99 504.488
520 0 51.044 9.40365 480 82.0479 1087.77 503.192
521 0 54.0276 10.1059 546 79.2766 1087.91 503.179
522 0 55.0537 10.0992 556 78.7626 1087.54 500.002
523 0 50.0739 8.68716 435 78.2322 1086.85 497.078
524 0 51.1209 8.56792 438 77.1461 1085.88 494.235
525 0 51.1354 8.95661 458 77.1965 1085.79 492.467
526 0 56.15 9.59929 539 76.8738 1084.86 491.536
527 0 58.0376 8.90802 517 79.4294 1085.74 492.925
528 0 63.2871 11.5505 731 78.8057 1086.77 500.067
529 0 64.0741 11.1277 713 82.7882 1083.94 500.254
530 0 66.0365 10.6456 703 84.1792 1083.4 499.71
531 0 67.1037 11.1469 748 84.2299 1084.39 500.758
532 0 72.1745 11.4306 825 83.4848 1085.06 498.699
533 0 75.1017 11.6642 876 82.4041 1083.67 495.822
534 0 77.1344 12.3032 949 82.7503 1084.69 495.347
535 0 78.1529 11.9637 935 85.3925 1084.2 495.88
536 0 80.0684 11.4902 920 86.1348 1084.2 494.071
537 0 82.1167 11.0818 910 87.411 1085.39 493.48
538 0 86.3526 11.6383 1005 85.5234 1085.67 490.922
539 0 89.2378 11.6543 1040 85.3885 1086.05 490.285
540 0 90.2904 11.6181 1049 87.1811 1085.79 489.1
541 1 51.0569 10.9486 559 86.8086 1084.45 508.524
542 0 53.0631 10.9492 581 86.7659 1086.23 508.241
543 0 55.0467 11.5902 638 87.6975 1085.87 506.091
544 0 57.0224 11.7673 671 91.0849 1085.82 504.273
545 0 54.1649 10.5788 573 85.8429 1085.13 508.831
546 0 54.1496 10.7295 581 85.7057 1085.49 506.871
547 0 58.2748 11.0854 646 84.6625 1086.16 505.672
548 0 60.1115 11.2624 677 84.4018 1085.45 504.292
549 0 60.1661 11.2522 677 84.5702 1085.36 505.046
550 0 63.1271 11.6273 734 82.9768 1085.34 503.004
551 0 64.1947 11.5274 740 83.8162 1084.82 502.184
552 0 66.1087 11.8744 785 83.9643 1084.84 500.85
553 0 67.1258 11.2028 752 92.0957 1085.15 500.688
554 0 69.1383 11.1371 770 85.3208 1085.59 501.066
555 0 71.1179 10.8552 772 87.0324 1085.54 500.202
556 0 75.2045 11.6349 875 86.1349 1085.61 497.409
557 0 77.1437 12.6128 973 85.9239 1085.45 496.652
558 0 81.2601 11.6662 948 86.6835 1086.05 494.071
559 0 81.1989 11.7612 955 87.0702 1086.11 492.796
560 0 85.1664 11.9766 1020 86.0431 1085.29 490.984
561 0 89.2458 11.9669 1068 85.3511 1085.77 487.861
562 0 93.2706 12.7157 1186 84.0809 1086.02 489.363
563 1 50.0316 11.093 555 88.5694 1087.41 509.337
564 0 53.0791 10.9271 580 87.4845 1086.93 510.3
565 0 49.11 10.0183 492 84.1545 1085.8 502.902
566 0 51.0825 10.8256 553 84.1429 1085.37 500.924
567 0 52.0183 10.5732 550 87.4764 1083.72 500.433
568 0 54.016 10.8857 588 87.5459 1083.32 500.015
569 0 55.0479 11.6444 641 87.6162 1083.75 500.886
570 0 58.022 11.6335 675 87.6696 1083.54 500.172
571 0 58.0265 11.9256 692 87.422 1084.32 499.186
572 0 61.0125 11.6534 711 89.5724 1084.21 505.903
573 0 63.2847 12.1198 767 87.6258 1085.41 504.747
574 0 65.303 12.6487 826 86.6864 1085.46 503.177
575 0 65.2575 12.3204 804 87.76 1086.2 503.996
576 0 68.1986 12.7275 868 86.1659 1085.37 501.838
577 0 70.2427 12.5565 882 86.3741 1085.17 500.866
578 0 72.2925 12.3111 890 89.3775 1085.56 500.956
579 0 73.3001 12.3329 904 90.9613 1085.69 499.14
580 0 77.2616 12.1794 941 90.458 1085.59 498.223
581 0 78.2151 12.3378 965 94.9119 1085.52 497.146
582 0 80.2047 12.1813 977 94.8434 1085.99 494.419
583 0 82.1795 12.6065 1036 93.612 1085.86 493.48
584 0 87.1663 12.9293 1127 92.9858 1086.11 492.542
585 0 91.1674 12.8006 1167 92.9537 1085.51 492.125
586 0 93.3421 13.8308 1291 93.0759 1084.48 489.73
587 1 54.2224 11.25 610 94.3803 1084.23 509.464
588 0 52.223 10.7041 559 88.8283 1084.63 504.445
589 0 55.1327 11.4633 632 86.7263 1085.09 504.459
590 0 59.0321 11.2989 667 79.3898 1083.08 506.385
591 0 59.1186 11.4177 675 89.6593 1084.2 509.357
592 0 62.1811 12.4314 773 86.0931 1084.16 509.202
593 0 62.1746 12.4649 775 87.92 1084.39 508.39
594 0 63.1343 11.7052 739 90.3464 1084.58 507.551
595 0 67.1697 12.1186 814 88.0725 1084.12 505.294
596 0 67.0802 12.4925 838 87.8007 1083.9 504.982
597 0 69.0884 12.2597 847 86.7875 1084.33 504.126
598 0 69.0879 12.1584 840 147.823 1084.32 504.242
599 0 75.1674 12.2127 918 85.3725 1083.89 501.479
600 0 77.1312 12.5112 965 84.4238 1084.05 500.841
601 0 80.071 12.2391 980 85.3143 1083.68 498.464
602 0 82.0601 12.0887 992 86.0857 1083.57 496.071
603 0 84.1993 11.6509 981 85.6728 1084.08 494.842
604 0 89.1802 12.2673 1094 84.6389 1083.39 493.729
605 0 92.3184 12.7819 1180 84.9025 1083.78 491.559
606 0 95.2604 11.8832 1132 86.9735 1083.81 489.915
607 0 98.2183 12.8998 1267 85.0789 1084.05 489.661
608 0 101.278 12.7076 1287 86.3124 1083.87 487.287
609 0 104.256 12.6132 1315 88.0449 1084.28 485.888
610 0 106.334 12.4796 1327 88.7573 1084.09 482.993
611 0 112.205 12.3524 1386 93.2597 1084.34 480.804
612 0 118.189 12.2177 1444 92.2853 1084 479.958
613 1 73.1728 12.2313 895 87.3899 1083.76 500.523
614 0 74.1358 11.4924 852 90.1033 1083.5 499.744
615 0 77.2631 12.4121 959 88.6747 1084.2 497.996
616 0 79.1631 12.1521 962 90.4563 1083.83 496.335
617 0 84.1412 13.1327 1105 88.5176 1084.02 493.321
618 0 85.129 12.4752 1062 91.3211 1083.51 493.546
619 0 88.0897 12.6916 1118 93.0537 1083.21 491.588
620 0 92.1749 13.2249 1219 91.3593 1084.13 489.586
621 0 94.132 12.6737 1193 92.8265 1084.6 489.937
622 0 97.183 12.7183 1236 91.8074 1084.19 488.252
623 0 99.2154 12.74 1264 91.4098 1084.11 487.588
624 0 101.119 11.9364 1207 92.9685 1083.91 485.53
625 0 106.223 12.9445 1375 90.7695 1083.49 483.015
626 0 108.079 12.6482 1367 91.504 1084.01 479.733
627 0 108.079 12.6482 1367 142.635 1084.02 479.617
628 0 116.148 12.4066 1441 90.7516 1084.57 476.789
629 0 120.178 12.7228 1529 89.2701 1084.68 476.391
630 0 125.234 12.8879 1614 89.3482 1085.37 473.369
631 1 66.2665 11.0614 733 85.3711 1085.04 503.04
632 0 69.2788 12.2693 850 84.7565 1085.45 500.62
633 0 69.1503 12.1908 843 86.2017 1084.86 500.712
634 0 71.0716 12.4663 886 87.974 1084.83 498.641
635 0 75.111 12.7678 959 86.2878 1084.92 498.219
636 0 76.0776 12.0929 920 87.2598 1084.41 495.621
637 0 79.1119 12.1473 961 88.9781 1084.25 493.587
638 0 81.1091 12.6003 1022 89.0558 1084.25 493.939
639 0 86.1178 13.1332 1131 87.5924 1085.41 492.975
640 0 87.252 12.2748 1071 90.6779 1084.16 490.407
641 0 90.2161 13.3679 1206 89.2222 1084.75 489.457
642 0 94.232 12.9468 1220 90.4934 1084.62 487.92
643 0 97.2703 13.4574 1309 89.2108 1084.79 487.114
644 0 99.2013 13.4575 1335 91.7723 1085.6 483.753
645 0 101.204 12.9442 1310 92.6137 1084.67 482.319
646 0 104.24 12.5001 1303 93.495 1085.31 479.346
647 0 109.39 13.7307 1502 91.3975 1085.1 475.163
648 0 112.479 13.0247 1465 92.9031 1085.68 473.694
649 1 61.1974 11.3077 692 85.8627 1087.08 502.964
650 0 62.2742 11.626 724 86.1975 1086.4 503.128
651 0 63.1974 12.2315 773 85.9082 1086.81 501.96
652 0 62.2294 11.8593 738 89.8916 1086.67 501.117
653 0 64.3017 11.9126 766 90.3916 1086.33 500.141
654 0 66.3046 11.5829 768 91.0221 1087.06 500.553
655 0 69.3059 11.4276 792 91.8939 1086.75 498.885
656 0 70.2447 11.5596 812 93.7648 1086.85 497.722
657 0 74.1965 12.2243 907 91.5832 1086.57 496.428
658 0 75.3869 12.0047 905 93.853 1086.89 494.589
659 0 80.2514 12.3612 992 91.4254 1086.87 494.618
660 0 80.2901 11.6328 934 94.121 1086.87 492.071
661 0 83.2589 12.0468 1003 93.9063 1086.75 489.201
662 0 86.2088 12.1681 1049 94.3556 1086.91 489.863
663 0 90.2728 12.6173 1139 92.9227 1086.46 488.338
664 0 92.2071 12.5045 1153 93.5117 1086.72 488.157
665 0 96.2194 13.0847 1259 93.7053 1086.43 485.948
666 0 98.32 12.5 1229 95.4304 1086.6 485.479
667 0 103.289 13.3025 1374 92.8843 1086.75 483.412
668 0 106.23 13.4237 1426 93.5231 1086.93 481.438
669 0 110.184 12.5427 1382 96.0232 1086.56 478.757
670 1 59.1096 11.7071 692 97.6734 1087.82 503.308
671 0 64.133 12.3493 792 95.6237 1087.45 500.558
672 0 63.1139 12.7389 804 96.4677 1087.83 501.797
673 0 65.3536 12.4553 814 90.4656 1087.78 501.314
674 0 64.2905 11.4325 735 93.6639 1087.22 501.539
675 0 68.3001 12.2108 834 93.1511 1087.62 500.782
676 0 68.38 12.4305 850 93.9788 1087.55 500.202
677 0 72.3885 12.2948 890 92.9 1087.48 498.412
678 0 73.3316 12.3685 907 94.5667 1087.26 495.644
679 0 76.2771 12.2842 937 94.7161 1087.61 497.137
680 0 77.3655 12.6801 981 94.4648 1086.93 494.955
681 0 80.2767 12.8431 1031 95.1756 1087.3 491.091
682 0 82.2671 12.2771 1010 96 1087.47 489.674
683 0 85.2706 12.9353 1103 95.1514 1087.11 489.102
684 0 88.2764 12.846 1134 95.5679 1087.27 488.744
685 0 90.251 11.7561 1061 96.754 1088.12 485.762
686 0 92.1965 12.3866 1142 96.9308 1087.4 482.737
687 0 95.2465 12.2944 1171 98.31 1088.08 480.513
688 0 96.2425 11.949 1150 98.9322 1087.16 480.492
689 0 102.197 12.5053 1278 94.8787 1087.79 478.665
690 1 51.074 10.5925 541 95.6118 1088.43 502.353
691 0 54.0513 10.8786 588 96.898 1086.72 502.878
692 0 56.0501 11.8822 666 93.4775 1086.77 500.476
693 0 55.0559 11.9515 658 92.5881 1085.96 498.126
694 0 57.0827 11.895 679 89.8321 1085.85 505.745
695 0 61.1169 12.9915 794 87.17 1086.15 502.777
696 0 61.066 11.8888 726 89.2851 1085.72 504.073
697 0 65.1172 11.9477 778 87.0283 1084.97 503.762
698 0 67.0649 12.0182 806 86.9665 1085.12 501.447
699 0 69.0757 11.9145 823 88.1203 1084.43 500.747
700 0 72.0814 12.8466 926 87.2581 1085.03 499.489
701 0 74.076 12.7572 945 87.0159 1084.72 499.145
702 0 75.0867 12.3191 925 88.6562 1084.38 498.017
703 0 79.132 12.7129 1006 88.2455 1084.76 496.313
704 0 81.2412 12.7768 1038 88.343 1084.66 496.334
705 0 84.137 12.9788 1092 88.4203 1084.28 494.486
706 0 86.1829 13.1 1129 88.6856 1084.38 494.804
707 0 87.137 12.4287 1083 91.1921 1084.46 492.519
708 0 92.1766 12.7798 1178 91.4941 1084.44 491.296
709 0 95.1061 13.1853 1254 91.0885 1084.38 488.101
710 0 98.2212 13.5307 1329 91.9895 1084.5 488.243
711 0 101.19 13.2919 1345 92.8022 1084.16 485.875
712 0 104.128 13.4258 1398 101.496 1084.73 481.844
713 0 107.204 12.8074 1373 104.6 1084.59 482.334
714 1 56.0819 11.2692 632 101.907 1084.22 507.649
715 0 57.0737 12.1948 696 99.5532 1084.13 507.718
716 0 59.2498 12.2195 724 100.126 1085.35 507.501
717 0 58.1839 11.9105 693 90.2641 1085.34 507.726
718 0 61.05 11.8428 723 89.6916 1083.96 506.004
719 0 64.1047 12.4328 797 87.6851 1084.61 505.248
720 0 67.0673 12.987 871 86.1699 1084.22 503.628
721 0 69.1152 13.2388 915 85.6546 1084.19 502.666
722 0 69.0366 12.7614 881 88.0091 1084.69 504.877
723 0 70.0344 12.4225 870 90.5333 1083.87 502.864
724 0 74.1157 12.7503 945 89.8296 1083.68 501.234
725 0 74.0253 11.8608 878 93.6298 1084.13 499.344
726 0 77.1179 13.5766 1047 89.9637 1084.28 500.129
727 0 80.1393 13.5015 1082 91.6978 1084.14 497.766
728 0 81.0959 13.3052 1079 94.1001 1084.2 497.327
729 0 84.1357 13.7635 1158 106.044 1084.34 495.896
730 0 86.1076 13.1463 1132 108.736 1084.69 494.145
731 0 89.1397 12.9348 1153 110.387 1084.07 493.147
732 0 91.1304 13.2228 1205 108.923 1084.74 492.195
733 0 96.1306 13.18 1267 108.354 1084.36 490.826
734 0 98.1845 13.9024 1365 105.662 1084.17 488.359
735 0 100.18 14.1145 1414 104.52 1083.9 486.226
736 0 104.219 13.9226 1451 104.66 1084.49 484.704
737 0 107.202 14.1509 1517 104.199 1084.34 483.298
738 0 109.211 13.8723 1515 104.451 1085.02 480.752
739 0 112.24 12.8564 1443 105.927 1085.11 480.904
740 0 116.144 13.621 1582 104.44 1084.4 477.733
741 0 120.182 13.4546 1617 104.74 1084.03 474.497
742 0 122.207 13.1252 1604 104.577 1084.77 472.807
743 0 127.347 13.4515 1713 102.8 1084.88 471.706
744 1 67.201 11.5772 778 93.7044 1085.47 502.281
745 0 71.2782 12.2057 870 91.1839 1085.72 499.709
746 0 72.2977 12.822 927 96.3948 1085.5 498.77
747 0 75.2173 13.2948 1000 95.8 1084.61 497.463
748 0 75.0764 12.0944 908 96.6322 1085.04 498.464
749 0 77.0554 12.4326 958 95.3299 1084.64 497.717
750 0 78.1071 11.8555 926 98.1998 1084.06 496.09
751 0 82.1261 12.2616 1007 96.0199 1084.9 494.15
752 0 84.1348 12.3611 1040 96.5288 1084.16 493.176
753 0 87.1828 12.2845 1071 95.5005 1084.39 491.297
754 0 90.1973 12.1511 1096 95.7564 1084.38 489.738
755 0 94.1952 11.8796 1119 96.3584 1084.3 486.77
756 0 97.2502 12.1851 1185 95.8489 1084.68 486.4
757 0 101.385 12.3884 1256 94.0955 1085.06 486.255
758 0 102.373 12.2982 1259 95.1438 1085.01 484.522
759 0 103.352 11.6302 1202 97.876 1084.76 481.136
760 0 109.502 12.3194 1349 96.3358 1085.51 481.153
761 1 56.363 10.9114 615 93.252 1085.27 507.706
762 0 58.1353 11.6453 677 86.1241 1085.37 506.405
763 0 59.1671 11.8309 700 91.0371 1085.35 502.639
764 0 62.1962 12.7821 795 85.5723 1085.04 503.391
765 0 61.1533 11.6265 711 90.4684 1085.11 503.098
766 0 65.015 11.6896 760 89.0474 1088.68 502.258
767 0 67.0728 11.2713 756 89.8929 1088.45 500.978
768 0 67.0133 11.2963 757 91.7807 1088.4 499.05
769 0 72.0376 11.6883 842 90.5523 1087.72 497.235
770 0 72.0778 11.3488 818 92.5428 1087.4 494.126
771 0 75.0345 11.3281 850 91.5529 1088.03 493.802
772 0 79.0916 12.5298 991 88.2301 1088.46 492.968
773 0 82.1488 12.1487 998 89.3066 1087.9 491.576
774 0 84.0595 12.4436 1046 88.5927 1087.89 490.641
775 0 87.0743 11.2548 980 90.2929 1087.68 491.405
776 0 87.2421 11.1987 977 87.7922 1086.64 487.656
777 0 90.1432 11.4485 1032 87.9002 1085.57 484.473
778 0 94.2674 11.6902 1102 86.6597 1086.33 485.612
779 0 95.1799 10.8531 1033 87.7338 1085.94 483.566
780 1 52.0756 10.6384 554 84.2004 1084.98 509.081
781 0 54.2748 11.0549 600 81.55 1085.36 506.593
782 0 55.1351 11.5172 635 81.9465 1085.27 506.146
783 0 57.1382 11.936 682 80.0381 1085.69 504.537
784 0 59.1903 12.1135 717 93.0544 1085.53 503.455
785 0 59.1658 12.4565 737 90.8901 1086.46 503.113
786 0 62.2754 12.9425 806 90.8846 1086.37 504.371
787 0 64.3037 12.1299 780 90.0038 1086.57 503.149
788 0 65.2121 12.0683 787 91.4091 1086.09 500.623
789 0 66.254 12.3464 818 91.0905 1086.59 501.682
790 0 68.3076 11.9899 819 93.4066 1086.55 499.306
791 0 71.2719 12.9644 924 91.8723 1086.67 499.864
792 0 70.3626 12.8762 906 92.9879 1086.91 497.791
793 0 74.2647 12.7248 945 92.327 1086.73 496.835
794 0 76.4209 12.6536 967 93.8759 1087.24 495.927
795 0 76.3773 12.0978 924 85.6861 1087.17 494.001
796 0 80.3755 12.5536 1009 85.6918 1087.44 492.552
797 0 83.3103 12.8796 1073 86.3495 1088.32 493.347
798 0 82.2769 12.0933 995 89.3729 1087.98 493.631
799 0 85.4555 12.1467 1038 89.6137 1087.64 492.043
800 0 88.5039 11.3893 1008 90.9345 1087.76 488.586
801 0 91.5297 11.7994 1080 89.7019 1087.8 489.796
802 1 51.3069 11.324 581 85.4716 1088.3 509.176
803 0 53.4032 11.1791 597 85.1541 1087.83 510.166
804 0 55.334 11.7288 649 86.1818 1088.2 508.279
805 0 54.1952 11.5508 626 87.1006 1087.86 509.113
806 0 58.1685 12.4466 724 84.8564 1087.45 509.244
807 0 58.1379 12.7628 742 85.1685 1087.37 508.667
808 0 61.1575 13.1464 804 84.9303 1086.39 507.388
809 0 62.1056 12.5271 778 85.856 1087.16 505.902
810 0 65.1041 13.8855 904 82.7246 1086.81 504.254
811 0 66.0857 12.8318 848 85.8632 1085.98 503.83
812 0 69.0598 13.6548 943 83.7784 1085.76 501.611
813 0 72.0966 14.0922 1016 82.5581 1085.79 502.086
814 0 71.1782 12.2228 870 93.3644 1086.07 498.52
815 0 74.1724 12.7676 947 91.982 1086.29 496.03
816 0 79.1536 13.5307 1071 92.8739 1086.55 499.248
817 0 80.2295 13.0376 1046 91.4417 1085.64 495.635
818 0 80.2295 13.0127 1044 144.877 1085.63 495.525
819 0 86.2993 12.8622 1110 94.245 1085.68 495.046
820 0 87.2552 12.8245 1119 95.37 1085.43 494.565
821 0 91.3779 13.4387 1228 93.2728 1085.63 493.846
822 0 93.3317 13.0824 1221 95.0197 1085.03 489.554
823 0 96.3517 13.5026 1301 95.2575 1085.25 487.817
824 0 101.427 13.5664 1376 94.3067 1085.43 487.026
825 0 102.444 12.9925 1331 97.0458 1085.19 483.93
826 0 107.501 13.3394 1434 95.9156 1085.41 484.005
827 0 108.407 13.8737 1504 95.1017 1085.21 483.066
828 0 113.467 13.6691 1551 94.6854 1085.25 479.892
829 0 116.424 13.5453 1577 94.8415 1085.04 477.167
830 0 123.313 14.3213 1766 92.3001 1085.23 476.464
831 0 126.373 13.9112 1758 92.7298 1085.31 473.086
832 1 63.2926 12.1499 769 87.459 1085.51 504.986
833 0 66.3956 12.049 800 88.065 1085.27 503.716
834 0 68.3416 12.1156 828 87.8478 1085.14 503.606
835 0 71.3472 12.0117 857 88.7631 1085.32 502.754
836 0 72.252 11.9997 867 91.0819 1085.43 500.987
837 0 74.2792 12.0761 897 90.767 1085.37 498.36
838 0 79.2179 12.9642 1027 88.3875 1084.55 496.463
839 0 81.3441 12.4287 1011 91.4085 1084.42 494.925
840 0 83.3473 12.5259 1044 91.2366 1084.29 491.839
841 0 86.4203 12.6475 1093 92.172 1084.65 491.754
842 0 89.42 13.4534 1203 91.271 1084.67 490.992
843 0 93.3242 13.1691 1229 92.4711 1084.24 488.313
844 0 95.3829 13.168 1256 90.582 1084.5 488.947
845 0 98.4526 13.2551 1305 91.3471 1084.89 487.428
846 0 100.35 13.2038 1325 92.5917 1084.71 485.061
847 0 103.536 13.01 1347 93.248 1084.74 484.781
848 0 106.417 13.588 1446 92.5429 1084.3 482.453
849 0 111.406 13.2219 1473 93.1901 1084.35 480.956
850 0 114.463 12.6678 1450 94.8538 1084.48 479.266
851 0 118.466 12.7547 1511 94.5381 1084.7 476.213
852 0 121.583 12.9213 1571 94.8071 1085.26 474.332
853 0 125.517 12.8349 1611 94.9938 1084.83 472.75
854 0 130.423 13.4179 1750 94.5914 1084.91 470.513
855 0 134.288 12.7785 1716 96.5006 1083.6 468.667
856 0 134.288 12.8008 1719 158.743 1081.61 468.768
857 1 82.1824 12.6548 1040 95.0712 1084.73 495.174
858 0 82.1824 12.6304 1038 149.909 1087.72 495.169
859 0 87.2657 13.2927 1160 93.0595 1084.79 491.778
860 0 89.1902 13.5665 1210 93.4405 1085.42 489.228
861 0 90.2392 12.5998 1137 97.2014 1085.17 487.856
862 0 93.2089 13.3249 1242 95.7923 1085.75 488.247
863 0 97.2283 13.6997 1332 95.7177 1085.12 485.312
864 0 101.213 13.6939 1386 94.9668 1085.12 484.509
865 0 102.206 13.4238 1372 97.5918 1084.75 483.569
866 0 107.236 13.5215 1450 98.1821 1084.59 482.039
867 0 110.298 13.6358 1504 96.8311 1084.43 478.992
868 0 111.228 12.7037 1413 100.534 1084.32 476.856
869 0 113.331 13.3414 1512 90.043 1084.67 475.12
870 0 118.315 13.1767 1559 103.151 1084.31 472.391
871 0 123.481 13.6215 1682 102.18 1084.09 469.843
872 0 126.38 12.9372 1635 105.168 1084.47 469.791
873 0 130.353 13.3868 1745 106.741 1084.45 467.022
874 0 133.445 13.736 1833 107.175 1084.48 466.404
875 0 138.33 13.663 1890 107.956 1084.71 463.475
876 1 73.112 11.5303 843 106.54 1085.46 496.298
877 0 76.0639 11.7007 890 100.935 1084.25 494.146
878 0 78.0505 11.5694 903 101.6 1084.53 490.065
879 0 78.137 12.5549 981 100.799 1084.48 488.649
880 0 81.0902 12.258 994 101.341 1084.51 489.314
881 0 84.1138 12.8279 1079 100.495 1084.66 493.234
882 0 88.3106 12.9316 1142 103.096 1084.32 491.226
883 0 91.171 12.9427 1180 103.766 1084.65 489.227
884 0 94.1954 12.9943 1224 104.359 1084.66 485.49
885 0 96.1108 12.8706 1237 105.344 1084.39 487.181
886 0 99.1499 12.9097 1280 105.159 1085.42 484.57
887 0 100.19 12.8556 1288 105.833 1085.13 483.373
888 0 102.157 12.6178 1289 107.387 1084.35 481.318
889 0 106.249 12.9695 1378 106.693 1084.76 478.859
890 0 108.22 12.336 1335 107.527 1085.11 478.165
891 0 110.174 12.7889 1409 106.795 1084.85 477.088
892 0 114.2 12.8897 1472 106.003 1084.39 473.047
893 0 118.303 12.6708 1499 106.568 1084.16 471.724
894 0 121.295 12.8447 1558 104.862 1084.23 470.044
895 0 126.335 12.5381 1584 104.479 1083.62 466.472
896 0 130.229 12.4703 1624 104.449 1084.2 464.095
897 1 70.1323 10.6228 745 101.874 1084.96 494.062
898 0 68.1331 10.2006 695 103.555 1084.92 488.576
899 0 76.059 12.556 955 97.6848 1083.43 491.493
900 0 77.2091 11.3976 880 100.703 1083.15 491.211
901 0 81.0519 11.6839 947 100.117 1083.46 489.982
902 0 86.097 12.2885 1058 96.8667 1084.42 490.863
903 0 87.1805 13.2254 1153 95.6912 1083.94 489.186
904 0 88.09 12.6348 1113 98.0539 1084.31 488.467
905 0 91.1565 13.0325 1188 96.7348 1084.1 486.203
906 0 94.2212 13.5851 1280 97.218 1083.88 483.563
907 0 95.338 12.9434 1234 99.111 1084.82 481.25
908 0 100.259 13.5449 1358 96.3785 1085.45 480.49
909 0 101.274 13.1327 1330 97.5797 1085.12 478.65
910 0 105.239 13.6927 1441 95.6343 1085.46 477.831
911 0 107.326 13.0164 1397 97.1453 1085.45 477.065
912 0 109.295 13.2486 1448 97.8895 1085.5 474.506
913 0 114.315 13.8652 1585 95.2139 1085.38 473.769
914 0 116.439 13.8184 1609 96.1361 1085.66 471.224
915 0 121.435 13.851 1682 95.5428 1085.26 469.781
916 0 124.136 12.0915 1501 90.2565 1085.07 470.157
917 0 130.389 12.5241 1633 88.8353 1084.98 465.87
918 1 71.321 10.614 757 83.037 1085.65 495.272
919 0 72.3557 10.7248 776 83.0722 1085.57 492.258
920 0 75.2658 12.024 905 81.0409 1085.02 494.617
921 0 79.0912 11.9482 945 81.963 1084.97 493.389
922 0 80.0924 11.4867 920 83.6435 1084.09 492.186
923 0 81.1287 11.3153 918 84.4227 1084.43 490.554
924 0 85.2299 12.4839 1064 82.0536 1084.44 492.88
925 0 89.1821 12.5586 1120 82.2473 1084.32 490.841
926 0 91.1795 12.3493 1126 83.8108 1083.68 488.215
927 0 94.0918 12.6578 1191 83.5735 1083.68 488.254
928 0 99.1222 11.9751 1187 83.658 1083.67 485.771
929 0 100.14 11.6037 1162 85.5301 1084.06 484.028
930 0 104.148 12.0501 1255 85.8837 1083.78 483.432
931 0 107.231 11.9648 1283 86.1294 1082.72 482.042
932 0 111.196 12.1587 1352 87.4919 1082.86 481.428
933 0 115.119 11.423 1315 85.8228 1082.7 480.238
934 0 116.1 11.559 1342 90.4508 1082.87 480.08
935 1 63.1029 11.3465 716 77.5419 1081.95 504.292
936 0 65.0563 11.9281 776 77.5515 1082.59 505.152
937 0 67.0569 11.8109 792 77.0543 1083.09 504.755
938 0 68.0383 12.2725 835 77.3102 1082.41 503.097
939 0 71.1732 12.1815 867 77.0265 1082.18 502.452
940 0 72.0315 12.2308 881 77.4586 1081.77 501.636
941 0 75.0853 12.6523 950 75.98 1081.42 500.696
942 0 76.0917 11.6833 889 78.6389 1081.51 499.295
943 0 81.0697 11.9157 966 78.0673 1080.97 498.066
944 0 82.0721 11.9163 978 79.2863 1081.23 496.94
945 0 85.0499 12.8278 1091 78.3071 1081.87 496.838
946 0 86.1424 13.1062 1129 79.0992 1081.45 495.164
947 0 90.1018 12.6968 1144 81.3295 1081.49 492.385
948 0 93.1009 13.48 1255 80.345 1081.85 491.079
949 0 96.12 13.1294 1262 81.8281 1082.14 490.536
950 0 98.1169 12.4749 1224 84.3881 1082.06 487.335
951 0 100.164 13.3281 1335 91.5798 1081.74 486.918
952 0 105.195 13.0425 1372 92.9169 1082.09 485.557
953 0 107.236 12.3652 1326 96.4321 1082.4 484.683
954 1 57.0976 10.0179 572 100.477 1081.62 508.21
955 0 61.182 11.2778 690 97.6406 1083.26 507.054
956 0 64.3083 12.6267 812 85.1145 1084.21 502.77
957 0 65.0277 12.8714 837 89.7622 1082.19 505.46
958 0 65.06 12.4808 812 91.431 1082.61 503.649
959 0 70.05 12.4054 869 91.336 1082.84 501.806
960 0 71.0947 12.9827 923 89.5016 1082.9 501.027
961 0 72.0456 12.1867 878 90.1082 1085.62 499.805
962 0 74.0576 12.4768 924 89.0801 1086.23 497.668
963 0 79.0498 13.2195 1045 86.9311 1086.24 496.538
964 0 79.0952 12.9717 1026 89.0312 1086.38 496.13
965 0 83.0708 12.6639 1052 90.3527 1086.45 493.937
966 0 85.0918 12.7979 1089 90.5914 1086.67 495.043
967 0 89.0726 13.1241 1169 89.2352 1085.94 492.256
968 0 90.1293 12.8593 1159 88.6368 1086.1 490.711
969 0 93.1459 12.3248 1148 89.8284 1086.84 488.781
970 0 95.0676 12.2755 1167 91.2442 1085.37 484.988
971 0 99.0984 12.4018 1229 90.5509 1086.4 483.006
972 0 99.3102 11.5698 1149 86.416 1084.79 481.621
973 1 53.2082 10.9382 582 80.3694 1086.84 507.146
974 0 52.1644 9.94931 519 82.4027 1085.84 506.946
975 0 56.2264 10.2977 579 80.9948 1086.49 506.796
976 0 55.1979 9.98227 551 81.9147 1086.76 506.962
977 0 58.2753 10.6048 618 80.945 1087.58 506.049
978 0 58.2804 10.7927 629 81.8251 1087.74 504.61
979 0 64.3523 12.0275 774 87.8566 1087.76 505.463
980 0 63.4208 11.7154 743 92.4926 1088.58 503.993
981 0 63.3602 12.3895 785 93.8701 1087.91 502.521
982 0 68.3079 12.7804 873 97.819 1087.31 501.658
983 0 68.2332 11.9736 817 89.5594 1086.81 500.387
984 0 72.2354 12.8469 928 86.7683 1086.58 500.679
985 0 72.272 12.3838 895 87.5587 1086.86 499.213
986 0 74.2721 12.2522 910 88.6758 1086.21 496.531
987 0 77.2542 12.5689 971 87.9454 1086.78 496.114
988 0 79.2439 12.5436 994 88.1771 1086.27 493.889
989 0 80.2599 12.1979 979 90.6895 1085.95 493.483
990 0 84.2776 12.5656 1059 89.9008 1085.91 491.707
991 0 84.2462 12.4041 1045 90.9713 1086.05 490.03
992 0 86.2875 12.4004 1070 92.0495 1086.04 489.668
993 0 90.1942 13.2492 1195 90.5707 1085.38 488.505
994 0 90.295 12.4038 1120 94.1777 1086.03 486.675
995 0 93.1762 12.0095 1119 91.2386 1085.45 484.851
996 0 93.1873 11.2462 1048 86.7672 1084.13 480.171
997 0 98.255 13.0273 1280 94.7312 1085.38 483.581
998 0 104.338 13.6958 1429 91.45 1085.24 481.667
999 0 104.235 12.9707 1352 91.7027 1085.16 480.369
1000 0 107.284 13.152 1411 95.4557 1084.98 477.58
1001 0 112.267 13.2363 1486 94.9448 1085.2 475.554
1002 0 112.276 13.164 1478 144.923 1085.2 475.479
1003 0 117.316 12.3087 1444 90.9245 1085.09 472.464
1004 1 66.3102 10.3755 688 83.7645 1085.68 499.047
1005 0 68.3054 11.024 753 82.8101 1086.83 498.444
1006 0 72.3148 11.2978 817 82.6304 1087.8 497.563
1007 0 74.3338 12.2421 910 82.6736 1087.09 494.68
1008 0 72.1658 10.6283 767 81.4146 1086.61 494.073
1009 0 72.1821 10.5982 765 124.325 1086.61 494.154
1010 0 79.2499 11.6341 922 84.4599 1086.9 495.815
1011 0 81.2433 12.3703 1005 83.2925 1086.52 495.032
1012 0 85.3273 12.3524 1054 83.9288 1086.4 491.829
1013 0 88.2739 13.2315 1168 82.8485 1086.46 491.368
1014 0 88.1347 12.1292 1069 87.0458 1085.64 491.042
1015 0 91.0347 12.9621 1180 92.6932 1084.56 491.632
1016 0 93.0412 12.9083 1201 93.2856 1084.67 490.361
1017 0 95.1156 12.8791 1225 92.7747 1085.38 489.514
1018 0 98.15 12.2975 1207 93.5385 1086.43 487.468
1019 0 102.176 12.8602 1314 93.1735 1087.89 485.554
1020 0 104.293 12.0813 1260 93.7278 1088.02 482.248
1021 0 110.279 12.4503 1373 91.3503 1087.01 481.036
1022 0 111.216 11.9137 1325 90.9026 1084.59 482.113
1023 0 116.147 12.2086 1418 88.9408 1085.68 480.91
1024 1 67.1874 11.7879 792 90.3649 1086.61 502.968
1025 0 67.2183 11.7081 787 89.7357 1085.93 502.076
1026 0 70.142 12.104 849 88.4806 1085.65 499.524
1027 0 74.228 11.6668 866 80.7321 1086.07 499.338
1028 0 75.1898 11.0653 832 82.4808 1086.24 497.139
1029 0 75.1649 10.8428 815 83.8773 1086.57 499.804
1030 0 78.1995 10.8185 846 83.1608 1086.32 497.447
1031 0 80.267 10.5523 847 83.7509 1086.49 495.517
1032 0 84.2227 11.4221 962 82.2287 1086.55 496.253
1033 0 87.2354 11.532 1006 82.6173 1086.29 492.794
1034 0 89.1952 11.6038 1035 84.2667 1086.33 490.846
1035 0 92.2534 11.9128 1099 82.4104 1085.14 488.836
1036 0 94.2109 11.7715 1109 83.7331 1085.28 487.921
1037 0 99.1469 11.3065 1121 84.3408 1085.26 488.087
1038 0 101.309 11.3712 1152 85.8316 1085.14 484.497
1039 1 55.2669 9.78886 541 84.4529 1085.24 509.37
1040 0 56.2113 10.1759 572 85.4021 1085.7 509.538
1041 0 58.1949 10.8429 631 84.9667 1085.23 505.902
1042 0 60.3674 11.1318 672 85.122 1086.48 503.393
1043 0 63.2399 12.413 785 82.4127 1085.74 502.706
1044 0 63.201 11.7087 740 84.4041 1085.48 503.191
1045 0 67.1203 11.9636 803 91.6164 1087.32 501.361
1046 0 69.0968 12.2148 844 92.5664 1086.79 499.655
1047 0 71.1164 12.0507 857 93.2882 1086.83 497.487
1048 0 74.172 12.6193 936 91.5737 1086.83 498.329
1049 0 78.0961 12.4718 974 90.6407 1086.86 497.748
1050 0 81.1411 11.671 947 90.9873 1086.54 497.28
1051 0 80.1202 10.8088 866 93.3868 1086.12 493.971
1052 0 87.1728 11.8615 1034 91.44 1086.83 491.701
1053 1 45.1705 9.56377 432 92.5069 1087.31 513.046
1054 0 47.0747 11.4286 538 90.4535 1087.69 512.974
1055 0 49.0654 11.8413 581 91.9329 1087.77 512.635
1056 0 51.0734 11.9632 611 92.0393 1087.47 512.322
1057 0 52.1176 12.6829 661 82.1135 1087.14 511.994
1058 0 53.2295 12.3428 657 83.0426 1086.35 510.679
1059 0 55.3272 11.6579 645 84.7147 1085.96 511.098
1060 0 56.2783 12.0295 677 83.9468 1086.44 510.889
1061 0 57.3519 11.8566 680 85.2618 1085.85 509.556
1062 0 56.1972 11.2639 633 88.436 1086.53 510.749
1063 0 57.2667 12.014 688 86.5959 1086.51 509.953
1064 0 62.2102 12.6507 787 85.0076 1086 508.554
1065 0 64.1968 11.8542 761 86.6413 1085.77 506.464
1066 0 64.1338 11.6943 750 87.9853 1085.69 506.608
1067 0 65.0663 11.5728 753 99.004 1086.8 505.34
1068 0 68.062 12.1948 830 98.212 1086.77 503.177
1069 0 68.0687 12.1348 826 123.235 1086.79 503.275
1070 0 72.06 12.0455 868 97.773 1087.28 503.733
1071 0 75.1327 12.458 936 98.0203 1087.12 501.816
1072 0 77.122 12.2274 943 98.1029 1086.97 499.7
1073 0 79.0835 12.7587 1009 97.1625 1086.88 499.011
1074 0 80.0979 12.4972 1001 98.957 1086.81 498.416
1075 0 81.139 12.5094 1015 100.249 1086.87 498.043
1076 0 85.1049 12.1967 1038 98.9268 1086.52 498.333
1077 0 89.1681 12.4596 1111 98.775 1086.78 496.476
1078 1 44.0399 10.5132 463 98.5486 1085.66 518.691
1079 0 46.1609 11.1133 513 98.1735 1085.56 517.838
1080 0 48.0779 12.3549 594 96.1212 1086.27 517.172
1081 0 47.0282 12.0141 565 101.857 1086.26 515.674
1082 0 50.0708 12.9417 648 96.784 1086.4 515.051
1083 0 51.1658 12.3325 631 98.9842 1086.27 513.873
1084 0 55.0781 13.5444 746 94.5563 1086.8 512.798
1085 0 56.1094 12.9568 727 95.0619 1085.91 511.543
1086 0 54.2246 12.2822 666 101.138 1085.86 507.923
1087 0 57.0531 12.9704 740 97.4986 1085.99 512.168
1088 0 58.0975 12.4274 722 97.5208 1086.45 511.762
1089 0 61.0421 12.9091 788 107.665 1086.02 511.372
1090 0 64.058 12.6916 813 107.395 1085.99 509.145
1091 0 66.0402 13.0375 861 107.422 1085.89 508.314
1092 0 68.0815 12.6172 859 107.743 1086.55 507.115
1093 0 70.0734 12.2728 860 108.456 1086.6 505.162
1094 0 72.1007 12.9957 937 106.649 1086.3 504.748
1095 0 75.0676 12.9483 972 107.193 1085.97 502.538
1096 0 75.0742 13.4267 1008 107.737 1086.17 501.529
1097 0 77.2381 13.1153 1013 106.268 1085.48 498.837
1098 0 81.2661 13.5973 1105 103.528 1085.51 498.355
1099 0 82.1096 13.5916 1116 104.019 1086.93 500.511
1100 0 84.0947 12.6048 1060 107.137 1087.16 498.363
1101 0 89.369 13.8415 1237 102.59 1086.63 496.352
1102 0 93.2055 13.6795 1275 102.557 1086.33 494.142
1103 0 94.2987 13.5739 1280 102.82 1086.18 493.466
1104 0 95.3389 13.237 1262 106.15 1085.64 491.452
1105 1 51.0519 12.4775 637 106.868 1086.35 513.851
1106 0 53.1674 12.2255 650 107.665 1086.14 512.726
1107 0 55.1015 12.722 701 104.837 1085.48 510.87
1108 0 57.2197 13.1773 754 102.7 1084.99 505.731
1109 0 60.0397 12.9747 779 102.376 1084.42 509.316
1110 0 62.0508 13.5373 840 100.57 1084.78 508.957
1111 0 63.2999 14.5182 919 98.4287 1086.03 505.643
1112 0 65.2569 13.5771 886 101.765 1085.54 505.666
1113 0 67.2277 14.1906 954 101.773 1085.56 505.279
1114 0 68.1898 14.005 955 105.074 1086.17 505.436
1115 0 71.4559 14.4005 1029 105.71 1086.38 503.769
1116 0 74.3807 14.1569 1053 108.51 1085.79 501.426
1117 0 75.4921 14.3061 1080 110.4 1086.11 499.727
1118 0 78.5033 14.5217 1140 111.622 1086.38 498.162
1119 0 79.6139 14.5703 1160 113.4 1085.83 498.153
1120 0 83.6927 15.4016 1289 111.87 1086.11 497.029
1121 0 84.6265 14.3808 1217 116.885 1085.97 494.593
1122 0 88.5707 15.2421 1350 115.367 1086.04 494.584
1123 0 90.6725 14.8336 1345 117.512 1086.39 493.549
1124 0 92.5614 15.0603 1394 118.054 1086.05 492.329
1125 0 93.4677 15.0105 1403 120.133 1086.53 491.137
1126 0 97.6328 14.7594 1441 120.396 1085.87 490.354
1127 0 99.5903 15.0215 1496 120.934 1085.53 489.089
1128 0 102.647 15.1295 1553 121.249 1085.73 487.333
1129 0 107.63 14.6521 1577 121.647 1085.91 486.996
1130 0 112.67 15.5942 1757 118.387 1086.1 483.88
1131 0 115.66 15.0441 1740 122.245 1085.71 480.834
1132 0 120.667 14.5773 1759 123.992 1085.8 479.298
1133 0 125.43 15.2675 1915 121.225 1085.96 477.295
1134 1 67.5463 12.9541 875 117.405 1086.84 507.472
1135 0 68.3647 12.8575 879 120.601 1086.47 504.981
1136 0 70.247 14.7764 1038 114.329 1086.42 503.187
1137 0 75.5256 13.8496 1046 121.218 1086.07 501.747
1138 0 76.5234 14.2571 1091 121.817 1086.52 500.07
1139 0 79.3749 13.9843 1110 122.877 1085.97 499.491
1140 0 82.469 14.3933 1187 122.427 1086.45 497.676
1141 0 86.3163 13.7286 1185 124.835 1086.34 497.59
1142 0 88.5013 14.1806 1255 124.568 1086.14 495.206
1143 0 89.4592 13.9505 1248 126.925 1085.61 493.565
1144 0 94.4077 14.3632 1356 124.946 1085.97 493.541
1145 0 97.3867 14.273 1390 126.091 1085.58 492.263
1146 0 99.4465 14.3293 1425 126.973 1086.1 490.406
1147 0 100.336 14.0528 1410 129.989 1085.91 488.165
1148 0 104.404 14.1661 1479 128.838 1086.18 487.771
1149 0 106.332 14.0316 1492 130.031 1085.28 485.239
1150 0 111.305 13.9976 1558 113.811 1085.58 483.936
1151 0 114.373 14.0505 1607 113.681 1085.04 482.805
1152 0 119.237 13.6451 1627 115.171 1085.69 480.68
1153 1 66.2621 12.692 841 111.985 1086.06 506.92
1154 0 68.1746 12.8787 878 113.99 1085.89 504.171
1155 0 72.225 13.0841 945 116.374 1086.13 502.798
1156 0 73.2471 13.6115 997 116.322 1085.85 500.342
1157 0 77.2999 13.5964 1051 115.159 1085.61 500.118
1158 0 80.3399 13.9532 1121 113.774 1085.67 499.284
1159 0 82.3662 13.9135 1146 114.586 1086 497.651
1160 0 84.2695 14.0027 1180 115.634 1085.53 497.682
1161 0 86.2075 14.3607 1238 115.725 1085.79 496.253
1162 0 88.1673 13.9054 1226 118.672 1085.39 494.45
1163 0 90.2649 13.4272 1212 120.121 1085 493.167
1164 0 93.2002 13.8626 1292 119.407 1084.64 492.238
1165 0 95.4149 13.9182 1328 120.049 1084.76 489.932
1166 0 99.1532 14.17 1405 120.094 1085.25 488.717
1167 0 101.336 13.8351 1402 122.653 1084.84 486.471
1168 0 106.21 14.1983 1508 119.256 1084.23 486.557
1169 0 108.305 14.3391 1553 118.619 1084.35 484.017
1170 0 110.296 14.6334 1614 115.555 1084.23 483.146
1171 0 115.394 14.5935 1684 115.891 1084.89 481.268
1172 0 120.408 14.5589 1753 114.944 1084.1 479.267
1173 1 62.2804 11.1753 696 113.095 1084.69 508.818
1174 0 66.3724 11.8423 786 110.134 1084.85 505.487
1175 0 68.319 12.8222 876 109.598 1085.01 503.474
1176 0 70.1694 12.1991 856 111.099 1084.8 503.466
1177 0 72.1658 13.0117 939 109.387 1084.34 502.291
1178 0 72.1563 12.0294 868 112.571 1084.37 500.452
1179 0 77.1819 12.788 987 109.691 1084.83 498.961
1180 0 79.1753 12.5544 994 110.108 1084.89 497.341
1181 0 81.2103 11.9812 973 111.961 1085.07 497.425
1182 0 83.164 12.0846 1005 111.714 1085.4 495.887
1183 0 86.1482 12.8383 1106 111.337 1084.33 494.596
1184 0 89.2585 12.5926 1124 111.448 1084.41 491.916
1185 0 92.1787 12.5192 1154 114.195 1084.1 490.633
1186 0 94.1386 12.7365 1199 112.318 1084.01 488.493
1187 0 96.178 12.5081 1203 112.327 1084.27 487.962
1188 0 97.1611 12.2168 1187 114.066 1084.47 485.989
1189 0 101.218 12.7646 1292 115.361 1084.49 484.484
1190 0 106.158 13.0654 1387 116.342 1084.67 484.093
1191 0 107.101 13.2679 1421 119.49 1084.77 480.92
1192 0 112.209 13.2787 1490 118.428 1084.92 479.473
1193 1 57.0544 10.341 590 108.614 1085.3 507.431
1194 0 58.2168 10.564 615 109.252 1085.21 506.665
1195 0 60.1556 11.5866 697 109.656 1084.95 505.759
1196 0 63.2122 11.5959 733 108.94 1084.89 503.505
1197 0 62.1921 11.0625 688 101.551 1083.91 505.549
1198 0 64.1139 10.5749 678 102.885 1083.85 504.423
1199 0 68.161 10.9593 747 101.981 1084.39 503.474
1200 0 69.2246 11.0076 762 101.357 1084.18 502.749
1201 0 72.1194 10.7183 773 102.781 1084.93 500.864
1202 0 74.1382 11.6809 866 101.127 1084.27 499.411
1203 0 76.1529 10.6628 812 103.789 1084.25 497.905
1204 0 81.1448 11.6089 942 100.287 1083.97 499.421
1205 0 80.2847 11.9699 961 101.898 1084.43 498.131
1206 0 82.2369 11.9411 982 101.725 1084.25 497.657
1207 0 85.2266 12.2497 1044 101.876 1084.83 496.336
1208 0 89.216 12.8564 1147 101.74 1084.05 494.238
1209 0 92.2163 12.4707 1150 106.137 1084.76 492.697
1210 0 95.2977 12.9174 1231 108.053 1084.8 491.279
1211 0 95.358 12.3954 1182 109.296 1085.06 489.272
1212 0 101.407 12.9478 1313 105.87 1085.25 486.573
1213 0 101.405 12.1789 1235 108.611 1085.17 484.172
1214 0 107.481 11.9836 1288 109.191 1084.97 483.977
1215 0 108.419 11.843 1284 110.983 1084.79 481.614
1216 1 58.2211 10.3914 605 100.54 1084.83 507.565
1217 0 62.2202 10.1575 632 95.7104 1084.49 509.032
1218 0 60.2077 10.4804 631 120.964 1085.5 509.155
1219 0 64.1432 10.8819 698 95.6375 1083.4 505.755
1220 0 66.0605 10.9294 722 109.32 1085.93 503.256
1221 0 69.0923 10.7248 741 109.618 1085.64 501.884
1222 0 71.108 11.0817 788 108.184 1085.31 501.294
1223 0 74.0542 11.1675 827 106.387 1085.42 501.597
1224 0 75.0775 10.9487 822 105.5 1085.68 501.642
1225 0 78.0611 11.3373 885 105.072 1085.19 498.984
1226 0 79.2037 10.9717 869 105.898 1084.4 496.119
1227 0 80.2392 11.0918 890 106.209 1083.98 496.392
1228 0 83.2016 11.8868 989 104.778 1084.49 493.692
1229 0 85.3075 11.3941 972 106.46 1084.97 492.734
1230 0 87.3137 11.934 1042 106.234 1085.33 490.218
1231 0 91.2455 11.7814 1075 107.218 1085.78 487.049
1232 0 92.4174 12.1838 1126 107.178 1084.98 485.981
1233 0 95.4246 12.2715 1171 107.965 1085.29 482.92
1234 0 97.606 12.2226 1193 108.89 1084.44 481.395
1235 0 99.54 12.5477 1249 109.123 1084.68 480.2
1236 0 105.528 12.4137 1310 108.66 1085.14 477.514
1237 0 109.634 13.4721 1477 104.789 1085 475.36
1238 0 112.584 13.5187 1522 105.553 1085.72 475.311
1239 0 111.57 13.6685 1525 136.984 1085.71 475.092
1240 0 117.668 13.1642 1549 106.331 1085.95 473.32
1241 0 121.733 12.5767 1531 108.685 1085.89 470.311
1242 1 67.5255 10.5738 714 100.091 1085.21 500.071
1243 0 70.4267 10.7772 759 101.138 1085.46 498.821
1244 0 71.5357 11.351 812 102.542 1084.92 495.4
1245 0 75.4036 11.8031 890 101.38 1085.09 496.03
1246 0 77.3695 11.3611 879 102.693 1085.15 495.367
1247 0 79.4751 11.7647 935 103.244 1085.67 488.754
1248 0 82.4392 11.3781 938 103.876 1085.57 488.568
1249 0 83.5729 11.7263 980 103.308 1085.66 487.113
1250 0 87.5186 11.5975 1015 103.347 1086.17 487.364
1251 0 88.5423 12.2314 1083 102.24 1086 486.851
1252 0 93.6884 11.6557 1092 102.971 1086.72 485.241
1253 0 96.5503 12.377 1195 100.496 1087.09 486.506
1254 0 98.6697 11.878 1172 101.323 1086.96 484.817
1255 0 100.512 12.0284 1209 101.445 1086.86 481.62
1256 0 104.486 12.2696 1282 99.266 1086.67 478.126
1257 0 106.6 12.2983 1311 99.0389 1087.1 477.195
1258 0 109.503 11.8079 1293 100.376 1086.97 472.943
1259 1 59.4483 9.50405 565 95.2991 1086.75 500.409
1260 0 61.4586 9.50233 584 95.5051 1086.85 498.656
1261 0 64.2719 11.3269 728 92.0522 1086.31 499.003
1262 0 68.045 11.1985 762 92.1798 1084.43 497.862
1263 0 67.1296 11.2767 757 92.6658 1085.98 498.423
1264 0 71.0699 10.8485 771 93.1219 1085.91 498.715
1265 0 72.0607 11.4209 823 92.8323 1084.49 495.009
1266 0 74.1317 11.5065 853 95.075 1084.44 495.292
1267 0 76.0638 11.4641 872 94.9255 1084.42 493.221
1268 0 77.0627 11.2116 864 97.0926 1083.82 491.025
1269 0 81.0474 11.8326 959 96.4108 1084.44 490.605
1270 0 84.0622 12.1458 1021 97.7992 1084.62 490.975
1271 0 86.1097 12.0195 1035 98.5923 1084.64 490.112
1272 0 88.1807 12.429 1096 99.51 1084.91 487.841
1273 0 92.1185 12.2342 1127 99.5226 1084.33 487.193
1274 0 94.0699 12.5013 1176 99.2738 1084.39 483.144
1275 0 95.0746 12.548 1193 100.55 1084.3 483.137
1276 0 98.067 13.0625 1281 100.35 1084.31 482.066
1277 0 100.195 13.0944 1312 101.165 1083.99 483.107
1278 0 104.215 12.6374 1317 103.412 1084.71 481.321
1279 0 106.205 12.6925 1348 105.95 1084.23 479.078
1280 0 107.235 12.5798 1349 106.128 1084.55 477.12
1281 0 113.461 12.8326 1456 105.048 1084.93 472.701
1282 0 116.452 12.898 1502 103.193 1085.03 472.71
1283 1 51.4002 9.22175 474 88.8734 1086.87 507.551
1284 0 50.0787 9.76463 489 89.6789 1085.04 507.863
1285 0 53.0849 9.8333 522 91.1686 1083.98 504.611
1286 0 55.1009 10.4535 576 93.9792 1084.92 505.307
1287 0 54.167 10.1722 551 100.76 1085.32 504.054
1288 0 59.1809 11.186 662 97.3459 1085.14 504.828
1289 0 60.1271 11.2927 679 98.2533 1085.2 503.664
1290 0 61.1799 11.0494 676 99.858 1084.99 504.928
1291 0 66.2068 12.2646 812 96.2635 1085.63 504.387
1292 0 66.1579 12.0016 794 97.9987 1085.11 503.776
1293 0 69.1714 12.057 834 97.8669 1085.61 503.188
1294 0 71.1326 13.0601 929 96.5867 1085.83 500.164
1295 0 72.1923 12.6329 912 97.6985 1085.64 497.904
1296 0 71.2497 11.6913 833 92.8163 1086.01 500.515
1297 0 72.1725 11.3894 822 94.163 1085.85 498.86
1298 0 73.3352 10.7179 786 96.1272 1086.07 497.739
1299 0 77.2769 11.7629 909 93.6546 1085.37 495.548
1300 0 79.3098 11.6505 924 94.987 1086.35 493.845
1301 0 81.2095 11.9321 969 94.5284 1085.66 493.954
1302 0 83.2177 11.0193 917 96.5442 1085.63 494.564
1303 0 86.1052 11.6485 1003 96.4766 1085.13 491.554
1304 0 89.1338 11.0059 981 97.1743 1084.87 490.849
1305 0 91.1449 11.9041 1085 94.1972 1085.17 488.869
1306 0 96.1533 11.7833 1133 94.6584 1085.08 488.6
1307 0 100.132 12.104 1212 94.2739 1084.28 486.665
1308 1 57.2711 10.8082 619 94.063 1084.25 507.685
1309 0 58.2819 10.4321 608 94.5658 1084.59 506.061
1310 0 60.2444 11.4035 687 93.179 1084.14 505.662
1311 0 59.1298 10.5531 624 94.1571 1083.9 504.12
1312 0 60.3206 9.66502 583 84.4666 1085.99 506.202
1313 0 62.3338 9.94645 620 85.2194 1086.19 505.481
1314 0 64.3998 10.1864 656 84.7896 1086.34 505.489
1315 0 65.2978 10.1535 663 86.3258 1086.11 503.908
1316 0 65.2423 10.2694 670 87.597 1086.27 503.587
1317 0 67.3099 10.6225 715 87.6895 1086.32 501.983
1318 0 70.3445 11.5432 812 90.6145 1086.59 501.427
1319 0 71.4177 11.9438 853 91.7515 1085.84 501.155
1320 0 74.2776 11.8071 877 92.1813 1086.46 499.664
1321 0 76.4004 11.335 866 93.612 1086.79 500.084
1322 0 77.347 10.8343 838 94.7399 1087.26 497.962
1323 0 79.3814 11.8794 943 93.9968 1086.33 496.981
1324 0 82.3743 11.9091 981 94.2793 1086.42 494.366
1325 0 85.492 11.814 1010 95.895 1086.33 493.595
1326 0 85.3991 11.8854 1015 97.1044 1088.46 490.838
1327 0 86.4027 12.2103 1055 98.418 1087.2 489.902
1328 0 91.3997 12.0132 1098 98.4872 1086.87 487.984
1329 0 92.2949 11.6908 1079 99.8526 1086.48 487.892
1330 0 94.3812 11.8668 1120 99.425 1085.82 486.893
1331 0 95.2637 11.5049 1096 101.029 1085.94 482.423
1332 0 93.3246 11.7654 1098 98.8188 1085.52 477.07
1333 0 99.3427 11.4452 1137 98.8909 1085.58 479.314
1334 0 98.2985 12.0958 1189 100.424 1085.5 475.356
1335 0 102.304 11.7884 1206 101.014 1085.72 473.532
1336 0 106.323 12.3586 1314 99.7504 1085.49 473.311
1337 0 109.292 12.1143 1324 100.496 1084.84 468.721
1338 0 111.231 12.5505 1396 99.8603 1085.08 467.756
1339 0 115.349 12.4405 1435 99.5979 1084.41 460.693
1340 0 119.267 12.4678 1487 101.613 1084.67 460.126
1341 1 132.364 14.0068 1854 95.7923 1084.61 461.334
1342 0 136.322 13.6515 1861 97.0725 1084.06 460.68
1343 0 139.359 13.8276 1927 98.3581 1084.32 457.705
1344 0 144.342 13.9668 2016 98.2272 1083.81 455.35
1345 0 144.354 13.9864 2019 161.898 1083.8 455.462
1346 0 151.379 13.7667 2084 101.411 1084.11 450.4
1347 0 156.387 13.9973 2189 101.139 1084.03 448.654
1348 0 157.338 14.1606 2228 102.9 1083.84 443.851
1349 0 164.452 13.8216 2273 103.679 1083.67 444.423
1350 0 169.376 13.9689 2366 104.177 1082.85 441.303
1351 0 173.388 14.009 2429 104.793 1082.49 439.147
1352 0 177.329 13.8049 2448 106.509 1083.88 434.783
1353 0 184.356 13.9946 2580 105.915 1083.15 435.412
1354 0 190.286 14.042 2672 104.478 1083.1 429.153
1355 0 192.448 13.5465 2607 106.585 1082.94 428.901
1356 0 200.362 13.9497 2795 105.83 1082.85 427.063
1357 0 203.314 13.6439 2774 107.836 1082.73 424.005
1358 0 212.442 13.3542 2837 108.231 1083.17 420.498
1359 0 216.411 13.8949 3007 108.148 1083.16 415.767
1360 1 39.1046 8.49005 332 79.1958 1082.14 506.343
1361 0 49.1476 9.42059 463 76.5335 1084.3 512.397
1362 0 51.1201 10.4264 533 90.197 1087.08 513.82
1363 0 53.0987 11.2432 597 88.4305 1086.93 513.221
1364 0 54.1022 11.1825 605 89.5736 1086.9 512.357
1365 0 55.0444 10.4825 577 92.0659 1087.03 511.932
1366 0 58.0748 10.7275 623 92.9326 1086.77 511.109
1367 0 59.0671 10.8521 641 92.1232 1086.79 511.939
1368 0 60.0953 11.748 706 92.2365 1086.49 509.45
1369 0 63.1527 11.8918 751 91.8109 1086.33 508.583
1370 0 65.1502 11.9416 778 92.5874 1086.22 508.986
1371 0 65.0527 11.8366 770 93.2922 1086.29 507.979
1372 0 67.0586 11.6465 781 95.9449 1086.15 505.907
1373 0 67.0612 11.7057 785 133.569 1085.15 505.871
1374 0 69.0193 11.9966 828 98.3877 1086.61 505.85
1375 0 71.0495 12.0761 858 99.3601 1086.16 504.872
1376 0 73.0851 12.2597 896 100.867 1085.79 503.125
1377 0 75.0986 11.9709 899 98.8109 1084.92 501.359
1378 0 77.085 12.1814 939 99.476 1085.76 502.055
1379 0 77.0884 12.2976 948 96.1951 1085.75 502.154
1380 0 76.0823 11.9344 908 105.014 1085.89 502.18
1381 0 79.0791 11.8615 938 107.385 1085.44 501.389
1382 0 78.0862 12.2685 958 107.461 1085.52 501.482
1383 0 81.1992 12.1676 988 105.548 1084.43 500.238
1384 0 82.0903 11.865 974 103.506 1084.89 500.549
1385 0 86.1889 11.2427 969 100.794 1084.3 497.185
1386 0 88.1305 11.0745 976 96.7469 1084.23 497.014
1387 0 92.2013 11.3122 1043 94.5925 1084.47 494.753
1388 1 50.0805 8.3266 417 92.7842 1082.65 515.731
1389 0 52.0161 9.34327 486 89.0123 1082.37 516
1390 0 55.0651 10.2606 565 87.3735 1082.73 514.529
1391 0 54.0927 10.5005 568 89.9718 1081.88 511.935
1392 0 55.0946 11.0356 608 86.352 1082.48 513.058
1393 0 58.1792 11.0864 645 84.8589 1082.65 512.512
1394 0 58.0307 10.8736 631 95.336 1084.75 511.149
1395 0 61.2554 11.6071 711 95.6639 1085.02 508.295
1396 0 61.3275 10.8108 663 100.572 1084.83 506.035
1397 0 64.3987 11.9412 769 96.1782 1084.66 508.029
1398 0 65.4339 11.737 768 98.6159 1084.61 507.383
1399 0 68.471 12.2388 838 97.4463 1084 506.962
1400 0 67.4559 12.3192 831 99.7124 1084.07 504.657
1401 0 68.4135 12.3952 848 100.871 1084.59 506.18
1402 0 68.3436 12.6274 863 102.272 1084.38 505.192
1403 0 72.3718 12.6983 919 101.626 1084.27 505.177
1404 0 74.3923 13.1196 976 101.283 1084.01 503.574
1405 0 75.4185 12.9676 978 103.405 1084.47 502.935
1406 0 75.4288 12.8068 966 105.727 1084.25 501.667
1407 0 77.4752 12.3136 954 108.175 1083.85 501.978
1408 0 80.3117 13.1239 1054 106.635 1084.03 499.546
1409 0 80.3275 13.1213 1054 107.01 1084.52 499.422
1410 0 82.3461 13.3218 1097 107.387 1084.14 498.219
1411 0 84.3877 13.6039 1148 107.47 1084.02 496.274
1412 0 84.1288 13.1703 1108 109.727 1084.49 495.149
1413 0 87.132 13.3017 1159 110.267 1084.71 494.966
1414 0 89.1048 13.2428 1180 111.073 1084.5 495.115
1415 0 90.058 13.3469 1202 112.11 1084.8 492.923
1416 0 92.1589 13.2163 1218 111.937 1084.62 490.864
1417 0 95.2261 13.4312 1279 110.172 1083.97 491.661
1418 0 97.1504 13.7416 1335 108.64 1084.64 490.406
1419 0 99.0956 14.0168 1389 107.266 1084.6 489.281
1420 0 101.163 13.7007 1386 107.325 1085.03 487.745
1421 0 104.136 13.5687 1413 107.613 1084.24 485.62
1422 0 105.051 13.2317 1390 109.579 1084.18 485.43
1423 0 108.205 13.4745 1458 107.503 1084.06 481.512
1424 0 111.128 14.0469 1561 105.256 1084.37 479.785
1425 0 115.1 14.0835 1621 105.069 1084.2 479.445
1426 0 120.169 14.5462 1748 99.3799 1084.23 478.499
1427 0 122.231 14.3253 1751 99.502 1084.01 477.32
1428 0 122.226 14.2768 1745 161.789 1084.02 477.281
1429 0 129.182 14.0732 1818 101.9 1084.52 472.101
1430 0 133.155 13.8786 1848 102.323 1084.6 469.722
1431 0 136.217 14.844 2022 99.9941 1084.54 469.577
1432 0 141.163 14.6639 2070 99.5256 1085.22 467.363
1433 0 144.155 14.0959 2032 101.526 1084.18 462.671
1434 0 148.201 13.954 2068 101.538 1084.43 459.672
1435 0 155.198 14.2721 2215 100.895 1083.69 457.57
1436 0 159.196 14.8621 2366 99.4379 1084.74 455.448
1437 0 164.192 15.5366 2551 97.6848 1083.64 454.229
1438 0 168.207 14.4821 2436 101.28 1084.88 450.787
1439 0 174.286 15.2738 2662 98.5383 1084.6 449.834
1440 0 177.24 15.2336 2700 99.863 1084.85 447.572
1441 0 181.341 14.7347 2672 101.966 1084.69 444.933
1442 0 186.266 15.4457 2877 100.131 1085.04 441.746
1443 0 192.416 16.1109 3100 97.9158 1084.84 438.084
1444 0 196.328 15.4639 3036 100.023 1084.53 433.277
1445 0 202.46 15.0153 3040 101.066 1084.06 430.161
1446 0 208.418 15.1522 3158 101.081 1083.98 426.192
1447 0 213.466 15.3045 3267 100.287 1084.28 421.193
1448 0 217.555 15.38 3346 99.5415 1083.83 411.028
1449 0 225.571 14.9221 3366 100.62 1083.99 408.914
1450 0 232.535 15.1074 3513 100.714 1083.83 403.155
1451 0 239.337 15.5638 3725 100.358 1083.03 399.376
1452 0 246.254 15.2403 3753 100.683 1083.94 393.511
1453 0 256.314 15.8633 4066 98.076 1084.16 388.752
1454 1 49.0889 8.75962 430 79.5093 1084.74 498.833
1455 0 52.1043 9.57695 499 76.9118 1085.13 500.946
1456 0 58.2647 10.7097 624 85.9071 1085.26 506.117
1457 0 62.2451 10.4587 651 86.7819 1084.93 505.309
1458 0 65.2897 10.8746 710 85.8 1084.19 505.597
1459 0 65.291 10.2158 667 86.6687 1085.12 505.19
1460 0 67.2596 10.4966 706 86.4363 1084.72 503.729
1461 0 69.4126 11.1075 771 84.9222 1084.86 501.883
1462 0 71.3076 11.191 798 85.3371 1084.84 501.806
1463 0 72.2929 10.333 747 87.0174 1084.45 500.324
1464 0 75.223 10.7813 811 86.1023 1085.25 500.476
1465 0 75.2498 11.0964 835 85.8491 1084.85 497.703
1466 0 77.3982 10.7755 834 86.2686 1084.04 497.549
1467 0 78.4819 9.81118 770 87.5039 1084.58 495.125
1468 0 83.3981 10.9835 916 83.8177 1084.23 492.688
1469 0 83.2644 10.5687 880 84.4239 1084.29 492.497
1470 0 84.3747 10.2756 867 84.5755 1084.07 490.939
1471 0 89.1651 10.3291 921 83.5668 1083.19 489.683
1472 0 87.162 9.85521 859 118.669 1084.12 490.502
1473 0 95.272 10.0134 954 83.6918 1083.64 487.695
1474 0 95.2187 9.86151 939 84.3589 1083.68 484.937
1475 0 99.2314 10.6116 1053 81.8575 1084.4 484.09
1476 0 102.313 10.2138 1045 83.7206 1084.2 482.435
1477 0 104.197 9.75079 1016 84.4085 1084.59 480.014
1478 0 107.182 9.71241 1041 84.0346 1083.89 475.223
1479 0 114.276 12.3211 1408 77.1371 1083.8 478.567
1480 0 118.317 12.213 1445 77.0104 1083.71 479.642
1481 0 120.418 12.1078 1458 78.594 1083.87 476.557
1482 0 122.206 12.9699 1585 77.4353 1083.86 474.685
1483 0 125.307 12.4016 1554 79.2124 1083.89 473.846
1484 0 127.244 12.2599 1560 79.9981 1083.29 472.526
1485 0 130.265 12.8891 1679 79.2144 1083.13 471.764
1486 0 132.197 12.9504 1712 79.3289 1082.71 471.197
1487 0 137.423 13.3311 1832 79.768 1083.83 464.266
1488 0 139.6 12.9871 1813 81.5742 1083.57 465.055
1489 0 144.731 12.9965 1881 82.7927 1085 461.551
1490 0 147.456 13.3056 1962 82.9251 1085.09 460.092
1491 0 151.502 12.8117 1941 83.7568 1085.04 459.066
1492 1 76.2396 9.86365 752 82.387 1084.69 497.386
1493 0 79.3777 11.0862 880 80.8898 1084.26 497.599
1494 0 83.3337 12.1079 1009 80.6323 1084.43 494.794
1495 0 83.3337 12.1199 1010 141.624 1084.42 494.522
1496 0 88.2589 12.52 1105 81.9321 1083.86 492.353
1497 0 93.1411 12.9051 1202 87.1181 1083.57 490.522
1498 0 94.2733 12.6123 1189 88.7771 1083.7 487.682
1499 0 97.2071 12.818 1246 88.5313 1083.78 486.178
1500 0 100.274 13.0343 1307 87.8822 1084.51 484.563
1501 0 101.27 12.7086 1287 89.3279 1084.16 482.051
1502 0 103.299 12.459 1287 90.6185 1083.53 479.223
1503 0 108.427 12.4693 1352 89.4763 1084.41 477.347
1504 0 111.419 13.1486 1465 86.529 1083.72 475.166
1505 0 113.167 12.0883 1368 80.4627 1084.1 473.344
1506 0 113.19 11.5911 1312 81.6761 1083.82 470.191
1507 0 118.204 11.5563 1366 82.6391 1083.43 467.8
1508 0 123.229 12.0508 1485 81.7556 1082.96 470.31
1509 0 127.223 11.586 1474 84.3297 1083.93 469.574
1510 0 133.162 11.9929 1597 82.6888 1083.57 469.135
1511 0 139.184 12.4081 1727 80.8628 1083.43 464.475
1512 0 142.353 12.5252 1783 83.9405 1084.45 460.182
1513 1 76.3444 10.5836 808 76.646 1085.76 494.757
1514 0 80.2201 11.4685 920 76.1207 1086.11 493.765
1515 0 82.309 11.9185 981 85.1631 1085.57 493.508
1516 0 82.4042 11.9169 982 81.9796 1085.77 494.556
1517 0 86.4649 12.0974 1046 81.631 1085.36 494.439
1518 0 86.3622 12.2044 1054 84.0958 1085.69 491.55
1519 0 89.4778 12.4388 1113 83.2929 1085.83 490.576
1520 0 92.4797 11.7972 1091 84.3052 1085.54 489.261
1521 0 93.5432 11.6203 1087 85.6753 1085.12 487.561
1522 0 97.5881 11.6715 1139 85.6936 1085.5 483.586
1523 0 98.6376 11.6284 1147 86.9529 1085.45 482.991
1524 0 101.439 11.8002 1197 87.9482 1084.88 480.693
1525 0 105.491 12.437 1312 86.8849 1085.06 479.032
1526 0 104.274 12.7453 1329 89.6938 1085.38 474.799
1527 0 107.169 11.8318 1268 92.8596 1085.81 472.069
1528 0 108.187 12.0439 1303 93.5902 1086.03 470.276
1529 0 110.332 11.6104 1281 94.612 1086.01 471.393
1530 0 114.261 12.1651 1390 93.1633 1086.09 468.731
1531 0 118.367 12.2162 1446 93.2704 1085.57 466.373
1532 0 115.18 11.8337 1363 95.9178 1086.02 459.049
1533 0 124.43 12.4809 1553 92.982 1085.18 456.547
1534 0 125.292 12.3072 1542 95.3969 1084.88 455.001
1535 0 132.449 12.4953 1655 93.4816 1085.02 457.479
1536 0 136.268 12.1599 1657 96.2637 1085.48 452.326
1537 0 139.24 11.8357 1648 98.8665 1084.78 451.039
1538 0 144.31 12.4524 1797 98.645 1084.17 447.528
1539 0 153.359 12.6305 1937 97.5989 1084.54 448.573
1540 0 154.29 12.9302 1995 99.1694 1084.46 444.723
1541 0 159.362 13.1336 2093 99.861 1084.58 443.263
1542 0 164.328 14.2216 2337 98.7082 1084.49 441.34
1543 0 169.4 13.353 2262 101.486 1084.83 441.116
1544 0 175.502 13.3617 2345 103.281 1084.31 438.077
1545 0 180.564 13.9009 2510 102.94 1083.69 435.018
1546 0 186.55 13.1654 2456 104.895 1083.82 431.381
1547 0 191.487 13.5936 2603 104.287 1084.36 428.005
1548 0 198.629 13.0696 2596 106.275 1084.05 425.781
1549 0 204.65 14.4637 2960 102.576 1084.36 420.518
1550 1 153.623 12.0229 1847 108.508 1084.48 451.272
1551 0 158.614 12.729 2019 110.065 1084.54 449.742
1552 0 161.53 13.335 2154 108.988 1084.93 447.91
1553 0 166.562 13.0762 2178 110.791 1084.32 445.567
1554 0 169.448 13.603 2305 109.695 1084.98 440.182
1555 0 171.334 13.3132 2281 109.391 1083.88 436.181
1556 0 177.304 12.989 2303 110.783 1084.19 431.227
1557 0 180.261 12.4209 2239 112.832 1084.16 430.967
1558 0 189.285 13.0596 2472 110.206 1084.61 429.509
1559 0 194.298 13.2117 2567 111.619 1084.54 422.712
1560 0 199.293 13.277 2646 112.288 1084.67 421.282
1561 0 205.294 13.0496 2679 113.184 1084.7 419.389
1562 1 146.178 11.1713 1633 114.255 1085.44 447.558
1563 0 150.133 10.8771 1633 115.339 1085.37 445.029
1564 0 154.113 11.1607 1720 114.147 1085.12 441.244
1565 0 158.144 11.0532 1748 114.569 1085.24 437.541
1566 0 164.297 11.4488 1881 112.549 1084.69 437.192
1567 0 169.224 11.7714 1992 112.709 1084.87 434.846
1568 0 172.106 11.5742 1992 117.659 1085.02 432.555
1569 0 175.2 11.9692 2097 113.052 1084.76 431.064
1570 0 180.193 11.9094 2146 114.602 1084.22 428.306
1571 0 182.162 11.1494 2031 117.575 1084.27 425.35
1572 0 190.45 11.8876 2264 113.705 1083.93 425.773
1573 0 194.198 11.6788 2268 114.699 1083.12 422.696
1574 0 200.24 11.3714 2277 116.687 1083.36 421.137
1575 0 208.357 12.2146 2545 115.054 1083.98 419.235
1576 0 211.254 11.6826 2468 117.252 1084.07 417.015
1577 0 215.254 11.2565 2423 117.213 1083.53 412.316
1578 0 222.298 11.5341 2564 117.905 1083.63 407.144
1579 0 225.265 11.3599 2559 120.573 1082.86 400.159
1580 0 235.288 11.641 2739 119.141 1083.47 404.922
1581 0 241.343 11.4526 2764 120.522 1083.51 400.559
1582 0 249.437 11.1371 2778 122.218 1082.54 395.393
1583 0 256.342 11.9918 3074 119.317 1082.93 392.371
1584 0 263.42 11.5177 3034 120.788 1083.02 393.596
1585 0 272.493 12.1912 3322 120.51 1083.31 383.353
1586 0 281.531 12.6274 3555 123.907 1082.63 350.995
1587 1 293.626 13.6228 4000 121.238 1083.16 358.414
1588 0 300.703 13.6879 4116 122.071 1082.93 358.619
1589 0 307.635 13.516 4158 123.151 1083.13 359.171
1590 0 318.754 13.6061 4337 122.884 1083.61 356.323
1591 0 324.853 14.3973 4677 118.872 1083.25 352.595
1592 1 21.2945 5.63525 120 78.8667 1087.8 520.108
1593 0 20.1905 3.8632 78 78.0256 1087.65 521.846
1594 0 23.2421 5.9375 138 74.1522 1087.39 520.493
1595 0 18.0246 4.60481 83 74.1325 1087.47 521.795
1596 0 376.652 15.2316 5737 114.777 1082.72 322.604
1597 0 390.727 14.9388 5837 117.289 1082.29 317.009
1598 0 402.87 14.6052 5884 118.827 1083 307.653
1599 0 410.606 14.3714 5901 122.209 1082.65 292.53
1600 0 410.976 15.7065 6455 116.807 1083.07 295.052
1601 0 412.244 14.882 6135 119.397 1083.1 292.304
1602 0 412.584 15.4029 6355 117.658 1083.33 295.023
1604 0 158.666 9.36561 1486 94.9973 1084.66 448.459
1605 0 161.524 10.599 1712 95.7891 1083.71 439.579
1606 0 161.524 10.63 1717 123.096 1083.7 439.535
1607 0 171.263 13.9201 2384 85.0319 1084.33 418.999
1608 0 178.394 14.6081 2606 85.0526 1084.04 420.076
1609 0 175.3 11.6772 2047 94.6331 1083.95 418.738
1610 0 180.327 10.675 1925 99.0504 1083.98 421.201
1611 0 184.375 10.7444 1981 99.417 1084.1 416.233
1612 0 400.098 14.6114 5846 113.022 1083.87 290.795
1613 0 214.608 16.6396 3571 78.0843 1084.1 393.576
1614 0 215.596 14.9864 3231 84.753 1083.44 395.362
1615 0 219.562 14.916 3275 86.1505 1083.98 393.295
1616 0 228.23 14.5598 3323 86.3948 1084.39 405.838
1617 0 232.066 13.9185 3230 88.9895 1083.58 403.114
1618 0 239.203 14.1135 3376 88.4082 1084.04 398.32
1619 0 246.024 13.7751 3389 90.5745 1083.71 389.239
1620 0 249.688 14.1537 3534 90.6381 1083.49 383.834
1621 0 255.553 13.3436 3410 92.8616 1082.72 383.201
1622 0 255.547 13.3752 3418 155.74 1081.72 383.218
1623 1 205.473 11.0769 2276 93.7359 1082.34 410.69
1624 0 212.567 11.3564 2414 93.3455 1082.76 409.815
1625 0 217.48 11.5551 2513 92.4003 1083.01 407.274
1626 0 223.546 11.3176 2530 93.8569 1082.51 402.014
1627 1 155.592 10.5918 1648 87.6013 1082.56 443.796
1628 0 158.507 11.1415 1766 89.3556 1082.96 439.305
1629 0 163.523 11.6742 1909 87.4306 1083.18 436.922
1630 0 164.549 11.3036 1860 90.9629 1082.63 436.483
1631 0 166.507 11.3449 1889 92.334 1083.11 435.368
1632 0 171.493 10.776 1848 93.7592 1083.21 435.65
1633 0 175.477 11.6311 2041 92.7046 1083.12 431.579
1634 0 180.581 11.4076 2060 94.8481 1082.52 427.481
1635 0 186.562 12.1193 2261 94.7758 1082.61 423.115
1636 0 192.515 12.0977 2329 95.0769 1082.76 420.833
1637 0 193.518 12.3968 2399 96.4552 1082.93 416.897
1638 0 201.45 12.8071 2580 95.7442 1082.07 416.013
1639 0 207.693 12.7833 2655 96.9883 1082.99 412.613
1640 0 212.57 13.6285 2897 96.2202 1083.04 410.216
1641 0 217.574 12.883 2803 99.2554 1082.29 404.088
1642 0 224.425 14.0002 3142 96.5032 1082.62 402.597
1643 0 226.47 13.7943 3124 97.2791 1082.29 399.42
1644 0 235.38 14.5509 3425 94.8169 1082.79 398.098
1645 0 238.479 13.5567 3233 98.2546 1082.33 390.989
1646 0 246.646 15.0215 3705 93.7274 1082.21 384.353
1647 1 183.505 10.4575 1919 101.355 1082.62 417.474
1648 0 192.389 11.3884 2191 99.33 1082.42 412.768
1649 0 204.552 12.7156 2601 94.4175 1082.05 410.865
1650 0 209.61 12.0033 2516 96.0493 1082.56 408.306
1651 0 213.565 12.1087 2586 97.2904 1082.95 403.397
1652 0 220.656 11.9915 2646 97.9826 1082.87 397.469
1653 0 226.583 12.6047 2856 96.0147 1082.67 398.242
1654 0 235.565 12.1962 2873 96.0042 1082.73 397.122
1655 0 239.676 13.0468 3127 94.5686 1082.87 394.04
1656 0 247.65 12.5459 3107 95.2842 1082.47 388.808
1657 0 253.59 12.7686 3238 94.9058 1082.44 383.79
1658 0 260.712 12.5464 3271 94.6524 1082.32 384.201
1659 0 269.703 13.0329 3515 93.4 1082.71 381.022
1660 0 274.533 12.687 3483 94.0827 1082.72 376.05
1661 0 281.676 12.4611 3510 95.3165 1082.72 371.997
1662 1 293.58 16.4623 4833 83.4488 1082.28 363.886
1663 0 303.734 16.4387 4993 82.9862 1082.07 356.527
1664 0 309.609 15.4679 4789 86.5982 1082.22 352.736
1665 0 320.803 16.6582 5344 82.4957 1081.99 342.652
1666 0 322.689 13.9236 4493 91.0848 1082.62 345.272
1667 1 239.511 9.17704 2198 90.823 1082.38 391.972
1668 0 243.557 9.90731 2413 90.7924 1082.78 385.294
1669 1 47.1152 5.28492 249 62.3976 1085.57 506.771
1670 0 53.2781 6.66316 355 60.831 1085.13 505.079
1671 0 52.2043 6.01483 314 62.4204 1085.25 504.787
1672 0 54.1847 5.2967 287 62.9199 1085.59 504.829
1673 0 53.3012 6.13494 327 62.7676 1084.94 503.382
1674 0 57.1457 2.41488 138 67.3768 1085.47 505.949
1675 0 88.2125 2.87941 254 67.622 1085.69 497.461
1676 0 89.3387 4.8803 436 67.4014 1085.22 483.817
1677 0 89.1841 4.40661 393 71.2774 1084.96 487.458
1678 0 89.1612 4.41896 394 104.259 1084.88 486.388
1679 0 91.1832 5.308 484 70.1302 1086.36 490.928
1680 1 103.152 5.1962 536 71.3153 1086.16 485.328
1681 0 100.544 6.44492 648 70.2855 1085.3 472.267
1682 0 106.67 5.62482 600 70.58 1085.14 480.925
1683 0 106.775 6.63078 708 68.8333 1084.97 484.97
1684 0 106.521 7.2568 773 69.9198 1085.11 480.323
1685 0 111.353 6.12468 682 71.2082 1085.02 481.809
1686 0 117.75 5.55414 654 70.0199 1084.8 483.369
1687 0 122.582 5.79202 710 71.6972 1085.39 473.514
1688 0 125.899 4.19384 528 71.8163 1084.79 474.877
1689 0 124.541 3.66143 456 69.375 1084.99 460.95
1690 0 61.3186 12.8509 788 45.717 1084.12 506.31
1691 0 62.0367 12.8956 800 45.85 1082.01 502.521
1692 0 62.0367 12.8956 800 153.44 1082.01 502.521
1693 0 66.0272 14.4335 953 45.1647 1082.65 499.198
1694 0 67.0393 13.9172 933 48.2819 1082.58 500.69
1695 0 66.1223 12.3559 817 51.8886 1083.31 495.088
1696 0 66.1223 12.3559 817 155.507 1083.31 495.088
1697 0 68.1061 12.4658 849 55.8174 1082.77 495.64
1698 0 71.2451 12.9412 922 54.4772 1083.97 494.496
1699 0 72.134 13.1699 950 53.2853 1083.13 491.289
1700 0 74.1014 13.3061 986 59.4848 1083.42 492.844
1701 0 74.1602 13.1337 974 61.8717 1083.98 489.012
1702 0 75.1353 12.1913 916 64.4454 1083.79 490.132
1703 0 76.075 12.1591 925 64.7838 1082.56 489.156
1704 0 79.0488 12.954 1024 63.0088 1082.34 487.299
1705 0 80.0669 12.8393 1028 65.7928 1083.86 486.601
1706 0 84.0438 13.4335 1129 61.0957 1082.91 487.124
1707 0 85.0374 12.5592 1068 63.28 1082.26 487.601
1708 0 86.0653 13.3271 1147 69.5527 1083.01 480.363
1709 0 87.125 12.8436 1119 69.9178 1084.44 479.764
1710 0 90.0967 13.1858 1188 68.3266 1083.14 481.889
1711 0 92.0323 12.7673 1175 68.234 1083.11 482.094
1712 0 96.0288 13.3189 1279 65.0149 1083.06 480.504
1713 0 97.0912 13.2659 1288 66.6786 1084.21 478.258
1714 0 103.19 13.5479 1398 66.9521 1083.94 477.312
1715 0 104.255 12.8915 1344 70.1243 1084.01 475.955
1716 0 108.342 13.6974 1484 70.8551 1084.77 474.164
1717 1 62.1045 9.11367 566 69.6148 1085.12 498.59
1718 0 65.039 10.8858 708 69.8234 1084.59 498.058
1719 0 66.126 11.1454 737 67.9362 1085.4 496.199
1720 0 64.0716 10.5819 678 69.6976 1084.98 495.855
1721 0 68.0586 10.2999 701 71.378 1084.55 494.835
1722 0 68.0478 9.72846 662 72.7976 1083.19 493.569
1723 0 71.07 10.9892 781 68.5442 1083.11 493.337
1724 0 71.0869 11.1976 796 70.5842 1082.46 491.711
1725 0 73.0188 11.4902 839 69.621 1082.47 490.259
1726 0 75.0481 11.7791 884 69.4898 1083.31 490.005
1727 0 75.1533 11.3368 852 70.9519 1084.5 486.948
1728 0 80.0802 11.451 917 67.7841 1084.4 487.684
1729 0 82.1797 11.0003 904 62.042 1083.7 490.627
1730 0 85.2338 11.838 1009 64.6432 1084.92 491.703
1731 0 84.1976 10.606 893 64.1097 1083.59 486.675
1732 0 88.1539 11.0829 977 64.6663 1085.1 490.728
1733 0 92.2872 12.201 1126 67.4991 1084.16 488.593
1734 0 94.2418 12.1178 1142 65.6033 1084.22 488.796
1735 0 97.2286 12.1981 1186 65.3381 1084.58 487.031
1736 0 99.3241 11.4675 1139 67.7542 1084.35 486.281
1737 0 105.335 13.3479 1406 64.7383 1084 483.875
1738 0 105.318 11.4795 1209 68.6725 1084.71 482.096
1739 0 108.276 11.5815 1254 69.6635 1084.24 480.834
1740 0 112.277 12.0327 1351 67.9023 1084.86 481.2
1741 1 60.2812 10.5671 637 65.5275 1085.55 506.289
1742 0 60.2501 10.4232 628 65.5525 1085.11 506.131
1743 0 62.2826 11.1428 694 64.2622 1085.25 504.04
1744 0 63.3503 11.3022 716 63.6215 1084.63 502.883
1745 0 65.2595 10.9563 715 64.3455 1084.8 503.594
1746 0 67.1874 11.0437 742 64.3706 1084.82 503.063
1747 0 68.3057 10.7897 737 65.0163 1084.65 501.107
1748 0 71.201 11.7555 837 63.8973 1084.26 500.908
1749 0 71.1391 11.0769 788 65.316 1084.35 498.593
1750 0 74.2366 11.1401 827 64.7037 1084.25 498.33
1751 0 78.2325 11.7726 921 63.7188 1084.39 497.845
1752 0 79.1446 12.016 951 65.0883 1084.13 495.878
1753 0 81.1857 12.3544 1003 64.668 1084.14 495.683
1754 0 83.2369 12.0499 1003 65.4267 1084.22 495.204
1755 0 85.2116 11.1722 952 67.3824 1084.39 493.691
1756 0 87.1764 12.1593 1060 66.9877 1084.61 491.518
1757 0 92.2183 12.3945 1143 67.4322 1084.09 489.652
1758 0 92.186 11.607 1070 70.4075 1083.98 487.852
1759 0 97.2399 11.775 1145 70.2603 1084.59 486.358
1760 0 99.235 11.6793 1159 70.9517 1084.65 482.463
1761 0 101.314 11.4298 1158 71.5518 1084.58 483.288
1762 0 102.292 11.9951 1227 71.2649 1084.46 480.694
1763 0 107.329 11.2458 1207 71.2593 1083.98 478.908
1764 0 109.338 11.6245 1271 72.4076 1084.04 476.299
1765 0 113.106 11.8649 1342 76.9769 1082.81 477.173
1766 0 114.16 12.3949 1415 78.0438 1083.16 474.854
1767 0 118.124 12.9525 1530 77.0824 1082.56 473.236
1768 0 122.081 13.147 1605 77.2093 1082.64 472.579
1769 0 125.073 12.9764 1623 78.1633 1082.6 470.961
1770 0 130.135 13.2093 1719 78.6387 1082.63 470.178
1771 0 135.31 12.778 1729 80.0017 1082.54 467.897
1772 0 139.289 13.4899 1879 80.5428 1082.89 464.47
1773 0 143.264 13.3041 1906 80.7461 1083.25 461.239
1774 0 148.412 13.348 1981 81.2453 1082.88 459.591
1775 0 154.333 12.6998 1960 81.2143 1083.29 458.573
1776 0 160.115 12.8407 2056 79.2515 1082.74 454.263
1777 0 163.112 12.8991 2104 79.4625 1082.48 453.559
1778 0 170.149 12.9416 2202 83.7716 1083.14 446.535
1779 0 175.127 12.8935 2258 85.4225 1084 444.276
1780 0 180.281 13.0518 2353 86.9286 1083.56 441.3
1781 0 184.295 12.2195 2252 89.2473 1083.64 436.25
1782 1 146.215 11.1343 1628 88.3176 1083.7 455.372
1783 0 150.235 12.2209 1836 88.2413 1083.85 450.887
1784 0 154.259 12.4985 1928 88.9741 1083.68 448.858
1785 0 158.348 12.0809 1913 91.9613 1084.19 447.565
1786 0 161.294 12.1951 1967 92.5536 1084.11 447.444
1787 0 161.302 12.1821 1965 147.99 1085.12 447.305
1788 1 174.219 13.1329 2288 91.174 1084.13 439.631
1789 0 179.214 13.1742 2361 92.0267 1083.85 435.411
1790 0 184.229 12.2402 2255 93.4541 1083.33 432.972
1791 0 193.222 13.5751 2623 89.8441 1083.98 430.101
1792 0 200.212 13.246 2652 91.0992 1083.46 429.39
1793 1 52.3731 10.998 576 77.0017 1084.68 510.054
1794 0 52.4308 10.6998 561 76.3619 1084.29 511.096
1795 0 54.1545 11.3749 616 76.8344 1083.58 510.489
1796 0 56.0767 12.1441 681 80.5404 1083.04 509.175
1797 0 58.2193 12.2811 715 80.1273 1082.9 507.592
1798 0 59.1468 12.4436 736 80.2799 1082.78 506.579
1799 0 59.1768 12.0317 712 85.3469 1083.12 505.614
1800 0 61.2593 12.5369 768 83.7148 1082.59 506.706
1801 0 64.2717 12.8984 829 82.3534 1083.08 505.536
1802 0 66.229 12.2303 810 84.7901 1082.7 504.957
1803 0 66.3202 12.3643 820 85.822 1082.29 504.176
1804 0 71.313 12.6765 904 84.2942 1082.37 502.538
1805 0 70.3413 11.5721 814 88.0651 1082.68 500.754
1806 0 73.3208 11.9339 875 87.5109 1082.9 500.504
1807 0 75.2192 12.2841 924 87.2229 1082.63 500.75
1808 0 78.4354 12.6729 994 85.5241 1082.41 498.222
1809 0 80.322 12.9728 1042 85.2274 1083.23 496.376
1810 0 82.3402 12.2055 1005 87.1871 1083 494.293
1811 0 83.1927 12.1165 1008 87.9286 1083.06 493.004
1812 0 86.331 12.0698 1042 89.2111 1082.85 491.465
1813 0 88.2418 11.5591 1020 89.8275 1083.1 491.385
1814 0 93.3116 12.2921 1147 88.0881 1083.49 487.34
1815 1 51.1376 9.50376 486 85.0103 1083.9 508.848
1816 0 51.1414 9.56173 489 85.0798 1085.8 507.458
1817 0 53.1983 10.5266 560 85.3768 1084.11 507.523
1818 0 54.3349 10.9506 595 81.0504 1084.79 507.704
1819 0 57.1823 11.5071 658 74.5805 1085.37 507.699
1820 0 58.1466 11.041 642 76.6573 1085.16 506.889
1821 0 59.1832 11.287 668 76.2769 1085.1 506.352
1822 0 62.1318 12.2643 762 74.2257 1084.64 505.366
1823 0 63.1178 11.8509 748 75.1364 1084.45 504.445
1824 0 66.1433 11.5204 762 76.6549 1082.98 505.311
1825 0 65.0328 11.3481 738 78.1084 1082.95 503.412
1826 0 67.0776 11.7923 791 77.4033 1082.84 502.999
1827 0 67.1038 11.8622 796 77.1307 1083.25 500.717
1828 0 70.1051 11.4828 805 76.5242 1083.26 499.164
1829 0 71.1167 11.1085 790 78.3734 1083.09 498.381
1830 0 72.126 11.064 798 78.2519 1083.85 496.482
1831 0 74.1636 9.99143 741 79.9487 1083.34 497.224
1832 0 78.1583 11.0033 860 77.6837 1083.48 497.155
1833 0 80.1169 11.5831 928 76.569 1083.31 493.822
1834 0 82.1588 10.7475 883 78.6874 1083.76 493.453
1835 0 84.1186 11.1509 938 78.4829 1084.19 492.683
1836 0 87.2091 11.1915 976 78.2213 1083.92 491.277
1837 0 88.1643 11.3992 1005 82.4448 1083.83 487.6
1838 0 93.2085 10.9969 1025 82.6059 1084.2 487.214
1839 0 94.1433 10.8983 1026 84.7904 1084.02 483.889
1840 0 97.1497 10.7978 1049 85.7302 1084.52 483.207
1841 1 54.0936 9.11383 493 81.7972 1084.45 507.497
1842 0 54.1637 9.43436 511 83.5734 1085.6 505.967
1843 0 57.0575 11.0415 630 78.8159 1084.82 504.575
1844 0 59.0798 11.1882 661 79.1301 1083.69 502.837
1845 0 60.1014 12.0463 724 79.4751 1083.6 502.627
1846 0 62.2731 12.5255 780 77.9821 1085.35 503.391
1847 0 64.2289 12.0662 775 78.9239 1084.96 502.672
1848 0 64.1874 12.4947 802 79.409 1084.76 501.904
1849 0 65.2811 12.316 804 78.3582 1084.79 500.924
1850 0 69.1703 12.0283 832 78.1803 1085.38 499.843
1851 0 70.287 11.638 818 79.0208 1084.85 498.752
1852 0 72.0713 12.5709 906 75.8819 1084.37 498.15
1853 0 72.079 12.5141 902 76.7317 1084.59 498.384
1854 0 75.0692 12.4685 936 77.5459 1083.98 496.418
1855 0 77.1138 12.6696 977 77.9836 1084.48 495.192
1856 0 78.1431 11.978 936 80.0598 1084.26 495.255
1857 0 79.0681 12.3691 978 79.9928 1084.42 493.339
1858 0 83.113 12.862 1069 79.5136 1084.18 491.025
1859 0 84.0579 12.646 1063 81.0941 1083.73 490.965
1860 0 85.2258 12.109 1032 83.3023 1084.5 488.662
1861 0 89.1249 13.2062 1177 84.2056 1084.36 487.84
1862 0 91.2766 12.8291 1171 84.6746 1084.07 487.064
1863 0 94.2153 13.2356 1247 83.7594 1084.36 485.812
1864 0 95.2823 12.888 1228 85.1254 1084.04 484.441
1865 0 98.3769 12.5843 1238 86.1066 1084.64 480.239
1866 0 100.501 12.3879 1245 86.7181 1084.07 478.231
1867 0 104.535 12.8761 1346 85.214 1084.61 474.669
1868 0 108.437 12.505 1356 85.5914 1084.82 472.531
1869 0 110.521 12.2692 1356 85.1261 1084.99 471.24
1870 0 114.504 12.183 1395 84.9986 1084.47 470.147
1871 1 59.2944 10.0853 598 80.6605 1085.01 497.455
1872 0 61.2918 10.7192 657 79.4033 1084.79 497.065
1873 0 63.2095 11.2325 710 80.0803 1085.29 496.138
1874 0 62.1639 11.1962 696 80.8721 1084.95 496.658
1875 0 65.0781 11.6014 755 77.2874 1083.51 495.928
1876 0 68.0951 11.2196 764 90.3024 1083.96 425.941
1877 0 71.1126 10.7295 763 79.0708 1083.35 490.202
1878 0 71.1076 11.1662 794 80.8426 1084.08 490.088
1879 0 73.0898 11.3696 831 81.6414 1084.09 490.455
1880 0 77.0537 11.6023 894 87.9362 1084.29 487.636
1881 0 80.1359 11.9797 960 86.1906 1084.12 486.476
1882 0 80.0766 11.0769 887 84.451 1083.94 485.178
1883 0 84.1089 12.0558 1014 80.9359 1084.45 485.007
1884 0 85.1697 11.6121 989 85.4772 1084.08 483.071
1885 0 88.1962 11.7805 1039 88.3609 1083.65 481.869
1886 0 91.0758 11.9571 1089 88.2461 1083.92 479.772
1887 0 93.1138 11.6094 1081 88.1018 1084.47 481.339
1888 0 96.1444 11.3683 1093 85.9048 1083.67 477.5
1889 0 98.1635 11.5114 1130 87.2504 1084.18 476.358
1890 0 100.081 10.9911 1100 89.8091 1083.4 474.978
1891 0 104.197 11.2959 1177 89.514 1083.7 471.161
1892 0 107.232 11.0694 1187 92.797 1085.07 469.936
1893 0 112.349 11.3219 1272 93.1832 1084.42 468.788
1894 1 60.3486 9.51141 574 89.2718 1084.68 496.955
1895 0 64.3118 10.4335 671 87.4292 1084.63 496.057
1896 0 65.2429 10.8671 709 87.1425 1084.16 493.708
1897 0 66.2021 11.344 751 86.6232 1084.46 494.373
1898 0 69.2243 11.051 765 86.0275 1084.11 495.349
1899 0 71.0999 11.8706 844 94.2512 1085.27 494.3
1900 0 73.0429 11.5685 845 94.4485 1085.21 492.811
1901 0 76.0868 11.5 875 95.544 1085.25 491.838
1902 0 80.0734 11.427 915 96.3454 1085.29 490.333
1903 0 86.1068 12.8329 1105 92.1882 1085.73 491.086
1904 0 86.0814 12.1861 1049 96.2698 1085.66 490.612
1905 0 89.0684 13.2146 1177 94.7179 1085.26 489.518
1906 0 89.0768 13.2133 1177 157.027 1084.26 489.493
1907 0 93.0984 12.5781 1171 99.0213 1084.98 487.702
1908 0 96.1687 12.998 1250 99.8096 1085.23 485.934
1909 0 99.0688 13.2837 1316 100.532 1084.83 484.984
1910 0 103.09 13.3087 1372 100.254 1084.98 483.477
1911 0 105.069 13.039 1370 102.812 1084.18 482.131
1912 0 109.092 13.2091 1441 102.349 1084.29 480.175
1913 0 112.108 13.7456 1541 102.066 1084.38 477.042
1914 0 117.118 14.0371 1644 99.4793 1084.62 477.501
1915 0 120.157 13.9817 1680 98.3119 1084.25 475.143
1916 0 123.156 13.893 1711 99.0818 1083.69 474.109
1917 0 129.076 14.4333 1863 94.7842 1083.53 470.982
1918 0 132.15 14.4608 1911 96.7295 1083.15 468.442
1919 0 136.246 14.4225 1965 96.2601 1082.76 468.161
1920 0 138.208 13.9861 1933 97.9943 1082.89 465.831
1921 0 143.266 14.337 2054 97.7201 1082.51 460.173
1922 0 147.385 14.3298 2112 98.2524 1082.65 459.092
1923 0 151.242 13.7395 2078 99.9379 1082.47 456.524
1924 0 156.246 13.9908 2186 98.688 1081.83 455.602
1925 0 162.263 14.76 2395 96.8551 1081.88 453.058
1926 0 165.308 13.6896 2263 99.92 1081.64 451.039
1927 0 168.204 13.543 2278 101.387 1082.46 448.809
1928 0 175.23 14.6607 2569 98.183 1082.12 446.589
1929 0 180.274 14.6 2632 98.6288 1082.29 445.335
1930 0 187.174 14.3663 2689 98.7731 1082.11 442.916
1931 0 192.312 14.2893 2748 99.0666 1081.13 440.074
1932 0 192.327 14.3037 2751 164.79 1080.13 439.991
1933 1 205.276 14.8922 3057 97.5528 1081.74 433.146
1934 0 210.391 14.1546 2978 99.7411 1081.94 428.112
1935 1 154.274 12.8408 1981 101.854 1082.5 454.97
1936 0 159.188 13.2046 2102 102.678 1082.03 451.081
1937 0 165.28 13.5709 2243 100.172 1081.56 449.311
1938 0 169.306 13.7857 2334 100.214 1081.83 445.277
1939 0 178.398 14.137 2522 97.5313 1081.71 443.722
1940 0 181.331 13.6325 2472 98.5918 1081.43 441.846
1941 0 188.332 13.8585 2610 97.6506 1081.49 439.085
1942 0 196.394 13.9057 2731 96.1736 1081.25 436.901
1943 0 201.292 13.5127 2720 97.3129 1081.26 432.534
1944 0 207.227 13.2801 2752 98.4408 1080.93 429.794
1945 0 215.353 13.7124 2953 96.5669 1081.57 427.312
1946 0 219.36 13.6214 2988 97.2028 1081.77 423.573
1947 0 229.385 13.6234 3125 97.1091 1081.96 420.323
1948 0 238.506 14.138 3372 95.2648 1081.57 412.351
1949 0 243.628 13.1594 3206 97.4208 1081.64 409.331
1950 0 250.602 12.9209 3238 99.0602 1081.16 403.981
1951 0 258.586 13.1755 3407 98.9075 1081.13 402.524
1952 0 265.617 12.8192 3405 101.334 1081.33 396.189
1953 0 275.685 13.432 3703 100.796 1081.35 389.56
1954 0 283.73 13.6432 3871 101.106 1081.35 385.04
1955 0 292.834 15.3602 4498 94.8028 1080.63 379.451
1956 0 302.606 16.0935 4870 92.2955 1080.45 373
1957 0 311.762 16.0892 5016 92.5341 1081.15 367.924
1958 1 232.477 11.67 2713 98.2687 1081.53 416.13
1959 0 239.441 12.6252 3023 95.1141 1081.26 415.029
1960 0 249.484 12.9066 3220 95.7714 1081.36 408.081
1961 0 255.477 13.4494 3436 94.929 1082.04 405.065
1962 0 265.434 13.1897 3501 95.8006 1081.95 396.761
1963 0 275.533 13.7624 3792 95.721 1081.86 393.516
1964 1 54.0355 10.16 549 82.8834 1084.94 508.852
1965 0 58.0721 11.899 691 76.5412 1085.86 506.627
1966 0 55.2541 9.41107 520 73.5192 1083.71 509.51
1967 0 57.1939 10.5955 606 75.5462 1084.38 509.574
1968 0 59.2813 10.3574 614 75.8779 1084.32 509.503
1969 0 60.253 10.2734 619 77.3748 1084.56 508.491
1970 0 62.2818 10.035 625 79.112 1084.03 505.891
1971 0 65.3601 10.664 697 77.4849 1083.98 505.501
1972 0 68.3563 10.5623 722 78.0665 1084.56 505.036
1973 0 68.3659 10.2536 701 79.3367 1084.19 504.629
1974 0 71.3673 12.1204 865 76.0486 1084.03 501.546
1975 0 74.3676 11.0801 824 78.3107 1083.51 499.797
1976 0 75.3171 11.4184 860 77.8477 1083.58 498.514
1977 0 76.358 11.8783 907 78.2315 1083.23 497.818
1978 0 81.3184 12.3342 1003 77.4716 1083.39 496.587
1979 0 84.2947 11.009 928 88.8847 1083.03 495.309
1980 0 87.1258 11.8105 1029 86.5841 1084.1 492.278
1981 0 90.1998 12.2838 1108 86.0424 1083.76 491.641
1982 0 93.1529 12.0662 1124 87.5036 1083.78 491.595
1983 0 96.0982 12.6225 1213 85.9505 1084.3 487.858
1984 0 95.1198 12.2582 1166 88.5909 1084.07 486.359
1985 0 100.153 12.1614 1218 87.2381 1083.04 486.008
1986 1 54.1218 10.2177 553 82.9295 1083.98 509.541
1987 0 54.0821 10.8908 589 83.511 1083.25 508.037
1988 0 56.1856 11.284 634 75.8707 1081.23 508.341
1989 0 58.2555 11.0719 645 76.6403 1082.6 507.619
1990 0 60.3852 10.7973 652 78.6549 1082.52 506.851
1991 0 60.2514 11.535 695 77.7568 1082.11 507.403
1992 0 63.2823 11.188 708 89.524 1082.92 504.823
1993 0 67.3561 12.8719 867 84.1834 1082.79 505.083
1994 0 71.3345 12.9811 926 81.879 1083.02 504.987
1995 0 73.2288 12.6316 925 82.7849 1083.1 503.192
1996 0 72.1968 12.2028 881 84.3893 1082.23 501.111
1997 0 75.4154 12.2787 926 84.0032 1083.41 501.34
1998 0 78.2609 11.8322 926 83.7927 1083.55 501.356
1999 0 79.3213 12.2161 969 84.6213 1083.64 497.932
2000 0 81.3493 12.4033 1009 83.2735 1082.56 495.851
2001 0 83.3367 12.4315 1036 83.1786 1083 495.008
2002 0 87.3551 12.4778 1090 80.378 1082.18 493.493
2003 0 89.2965 12.6321 1128 79.1862 1082.27 492.916
2004 0 93.1847 12.6094 1175 78.9311 1082.16 491.837
2005 1 46.0575 9.85725 454 78.9141 1083.07 513.949
2006 0 48.0412 10.4702 503 77.6421 1080.82 513.761
2007 0 50.038 10.492 525 78.4781 1080.5 511.964
2008 0 50.4154 11.4449 577 80.1248 1082.7 506.603
2009 0 52.537 12.1248 637 80.3893 1082.02 506.757
2010 0 55.4958 12.4334 690 80.1145 1082.08 505.641
2011 0 58.0315 12.6311 733 75.8008 1080.89 508.535
2012 0 60.1316 12.323 741 78.1363 1080.83 507.306
2013 0 60.1425 12.7697 768 77.7708 1082.7 506.366
2014 0 63.2782 12.5004 791 77.8862 1082.23 505.087
2015 0 64.0477 12.9903 832 84.4868 1084.01 503.559
2016 0 66.057 12.247 809 86.9172 1083.53 501.816
2017 0 68.0362 12.1847 829 86.2159 1084.29 502.671
2018 0 71.1156 12.2477 871 86.3961 1083.51 501.281
2019 0 73.0843 12.7114 929 84.9612 1083.66 500.3
2020 0 74.0512 12.3833 917 86.952 1083.42 497.932
2021 0 77.0797 12.1692 938 86.9019 1083.05 498.326
2022 0 83.1408 13.6395 1134 82.3025 1083.49 497.856
2023 0 84.0825 13.13 1104 84.5598 1083.38 495.274
2024 0 87.1615 13.5151 1178 84.0246 1083.96 494.665
2025 1 47.023 11.1222 523 83.6138 1083.81 515.065
2026 0 49.0965 11.8542 582 82.6701 1083.95 513.962
2027 0 50.0985 11.9764 600 82.7283 1083.55 514.437
2028 0 52.1345 12.4486 649 81.4222 1083.17 511.458
2029 0 52.1148 13.0865 682 82.4897 1083.24 510.812
2030 0 56.0914 12.5331 703 87.6814 1082.19 510.422
2031 0 57.0969 13.2231 755 88.1656 1083.49 508.992
2032 0 57.0304 13.2035 753 87.9695 1083.93 508.882
2033 0 60.0492 13.8553 832 85.2644 1083.81 508.264
2034 0 61.0959 13.1105 801 88.392 1083.82 508.074
2035 0 62.0658 14.0979 875 87.8194 1083.74 506.039
2036 0 64.0388 13.3513 855 90.0398 1083.43 504.95
2037 0 64.0503 12.6932 813 92.3985 1083.96 504.215
2038 0 65.0348 13.2083 859 91.2631 1083.93 504.407
2039 0 66.039 13.386 884 92.7771 1083.44 501.973
2040 0 68.0751 13.8964 946 91.6173 1083.39 501.459
2041 0 70.0455 13.891 973 91.1727 1083.3 500.288
2042 0 74.0594 14.2453 1055 88.2806 1083.5 499.687
2043 0 76.1588 13.1567 1002 91.8403 1083.08 498.455
2044 0 78.0404 14.1465 1104 89.9429 1082.81 496.632
2045 0 78.1083 13.6605 1067 91.956 1083.16 496.613
2046 0 78.0987 13.6878 1069 93.0833 1083.24 495.833
2047 0 82.0393 13.4204 1101 93.4441 1083.2 493.348
2048 0 85.108 13.5122 1150 92.8983 1083.63 492.21
2049 0 87.0592 13.6918 1192 93 1083.54 491.265
2050 0 89.0965 13.4012 1194 93.7982 1083.64 490.459
2051 0 91.0482 14.0585 1280 91.9789 1083.03 488.294
2052 0 94.0794 12.989 1222 90.6588 1082.78 485.303
2053 0 98.1133 14.0756 1381 90.9385 1082.85 486.789
2054 0 100.08 14.0088 1402 91.6091 1083.1 485.193
2055 0 102.088 13.9487 1424 91.6699 1082.74 483.797
2056 0 104.116 13.4466 1400 89.465 1082.4 478.574
2057 0 109.131 13.2227 1443 90.1913 1082.48 476.405
2058 0 114.107 13.3209 1520 90.2921 1082.91 477.462
2059 1 58.0944 10.7239 623 91.1862 1083.17 506.318
2060 0 61.1132 12.0759 738 88.2331 1083.19 504.619
2061 0 63.0693 12.8747 812 87.7611 1083.36 505.339
2062 0 64.185 12.7444 818 84.5391 1082.5 502.797
2063 0 67.1654 12.834 862 84.4768 1082.75 502.653
2064 0 67.1662 12.3127 827 87.7291 1082.98 501.729
2065 0 71.1429 13.6767 973 84.4697 1083.13 502.059
2066 0 73.1943 13.2934 973 86.5704 1082.76 499.672
2067 0 77.1411 13.5466 1045 86.7799 1083.01 497.502
2068 0 80.1545 13.8857 1113 86.4654 1082.88 497.499
2069 0 82.1962 13.7719 1132 86.9823 1082.54 496.672
2070 0 84.173 14.0663 1184 87.6436 1082.78 495.432
2071 0 88.1641 13.7811 1215 89.1053 1082.92 493.507
2072 0 90.1385 13.6679 1232 90.8336 1083.17 493.433
2073 0 92.154 13.6076 1254 92.9498 1083.24 489.837
2074 0 94.1256 13.2482 1247 94.0914 1082.47 487.357
2075 0 98.1205 13.3917 1314 94.1088 1082.3 484.747
2076 0 101.168 13.4627 1362 93.989 1082.42 485.287
2077 0 104.124 12.6388 1316 95.8784 1082.35 482.645
2078 0 110.15 13.7177 1511 91.9186 1082.37 482.514
2079 1 62.1355 12.1348 754 94.561 1083.65 504.599
2080 0 63.0181 12.0918 762 88.6483 1081.81 500.642
2081 0 64.0844 11.5005 737 93.7653 1082.21 498.217
2082 0 68.2433 12.7632 871 88.7497 1081.07 499.003
2083 0 69.0895 12.1292 838 93.2876 1082.27 496.561
2084 0 71.0966 12.687 902 92.3215 1082.79 496.928
2085 0 73.0896 12.7241 930 93.7215 1082.77 497.245
2086 0 77.0991 13.3465 1029 97.6686 1082.35 496.404
2087 0 78.209 12.799 1001 94.4975 1082.35 492.746
2088 0 80.1424 13.189 1057 93.8202 1082.97 492.61
2089 0 84.1413 13.0257 1096 94.7445 1082.97 491.896
2090 0 85.1879 12.9478 1103 95.738 1082.5 491.492
2091 0 87.2079 12.4071 1082 98.3087 1082.53 488.391
2092 0 91.3361 13.5434 1237 95.3791 1083.05 488.196
2093 0 92.1919 13.0814 1206 97.1708 1082.53 487.161
2094 0 97.118 12.84 1247 97.907 1082 485.734
2095 0 100.212 12.9425 1297 100.066 1082.52 486.764
2096 0 103.219 12.7593 1317 100.348 1082.01 483.772
2097 1 52.1913 11.2662 588 96.3197 1082.42 509.738
2098 0 53.1011 12.0713 641 95.4306 1082.51 508.669
2099 0 56.1752 12.7458 716 93.5517 1082.27 507.226
2100 0 58.1103 11.6158 675 96.5867 1082.29 507.084
2101 0 58.1264 12.4728 725 96.2897 1082.22 506.034
2102 0 60.1187 12.8912 775 95.0606 1082.09 506.914
2103 0 61.0792 12.5902 769 96.2406 1082.8 504.573
2104 0 64.17 12.5448 805 96.4795 1082.19 503.52
2105 0 66.0821 12.8477 849 96.6926 1082.45 502.261
2106 0 69.1103 12.386 856 98.3037 1082.49 500.334
2107 0 72.1087 12.7585 920 98.0391 1082.91 499.255
2108 0 76.1333 13.0298 992 97.6058 1082.84 498.459
2109 0 78.1981 13.0694 1022 98.5303 1082.79 497.828
2110 0 79.1426 13.6968 1084 99.6624 1082.94 495.751
2111 0 82.0928 13.7527 1129 104.315 1083.08 492.174
2112 0 86.1671 13.8452 1193 103.967 1082.82 493.186
2113 0 87.1893 14.1187 1231 105.825 1083.06 491.517
2114 0 91.2779 14.1107 1288 106.827 1083.25 489.825
2115 0 93.2875 14.3642 1340 106.81 1083.23 488.384
2116 0 95.4424 13.9875 1335 107.934 1083.1 487.712
2117 0 97.2486 14.1699 1378 109.965 1082.96 485.138
2118 0 100.386 13.996 1405 110.477 1083.22 484.348
2119 0 104.365 14.6217 1526 109.17 1083.49 483.807
2120 0 105.407 13.2154 1393 114.349 1083.53 482.035
2121 0 109.333 13.8568 1515 111.863 1083.17 480.792
2122 1 59.2341 12.6279 748 109.87 1083.39 504.66
2123 0 61.2666 13.5473 830 112.614 1083.81 504.142
2124 0 64.2273 13.7169 881 112.107 1083.05 502.54
2125 0 65.0715 13.6926 891 112.347 1083.91 503.196
2126 0 69.1608 13.6927 947 112.658 1084.1 501.395
2127 0 70.1228 13.2625 930 114.632 1083.6 500.452
2128 0 72.3355 13.5065 977 114.053 1083.74 498.52
2129 0 73.3543 13.4689 988 114.728 1083.43 496.8
2130 0 77.3946 14.032 1086 113.116 1083.5 495.413
2131 0 79.4753 13.501 1073 115.221 1084.1 494.46
2132 0 82.4384 13.501 1113 115.735 1083.59 493.225
2133 0 84.4483 14.2572 1204 114.571 1083.6 491.692
2134 0 86.5277 13.4408 1163 117.107 1083.85 492.192
2135 0 87.4776 13.9007 1216 118.276 1084.12 489.301
2136 0 91.4488 13.9094 1272 116.903 1083.88 488.396
2137 0 95.4885 14.1169 1348 116.155 1083.73 487.838
2138 0 96.5447 13.9728 1349 116.981 1083.76 486.062
2139 0 100.441 14.0879 1415 116.374 1083.85 484.545
2140 0 102.484 14.1584 1451 115.909 1083.28 483.203
2141 0 104.495 14.0581 1469 116.883 1083.19 481.401
2142 0 109.484 14.2578 1561 114.96 1082.94 479.498
2143 0 112.432 15.3426 1725 110.402 1083.26 477.346
2144 0 117.453 14.6867 1725 111.325 1082.96 475.517
2145 1 59.2631 12.1323 719 116.808 1084.41 501.021
2146 0 64.1864 12.9934 834 113.743 1084.47 499.517
2147 0 65.1897 13.8826 905 113.912 1084.25 498.988
2148 0 69.1714 13.9075 962 113.763 1084.05 498.04
2149 0 70.2168 13.8286 971 115.821 1084.67 496.837
2150 0 74.2782 14.136 1050 115.25 1084.65 495.036
2151 0 74.3785 13.7809 1025 117.405 1084.45 493.247
2152 0 79.3756 14.1983 1127 115.024 1084.14 492.386
2153 0 80.3897 14.268 1147 116.232 1084.37 491.306
2154 0 84.44 14.3179 1209 114.944 1084.8 490.251
2155 0 86.3259 15.0129 1296 114.438 1084.36 489.289
2156 0 89.3938 14.4977 1296 115.276 1084.27 487.832
2157 0 94.6083 14.6182 1383 116.108 1084.31 484.281
2158 0 96.4825 14.9043 1438 117.159 1084.49 481.856
2159 0 97.4453 15.2188 1483 117.17 1084.7 481.391
2160 0 101.546 15.2935 1553 105.983 1084.88 480.137
2161 1 55.2796 12.9523 716 114.756 1084.42 502.109
2162 0 57.3308 12.8378 736 115.857 1084.24 502.033
2163 0 57.2914 13.5797 778 114.312 1084.56 501.623
2164 0 61.1922 13.6782 837 110.83 1084.7 501.93
2165 0 61.1702 13.7812 843 112.433 1085.42 500.469
2166 0 64.1306 13.1139 841 112.209 1084.36 499.836
2167 0 67.0748 14.0291 941 108.838 1084.46 498.644
2168 0 69.2185 13.6813 947 110.153 1084.77 496.383
2169 0 72.2517 13.8267 999 108.601 1085.2 495.119
2170 0 74.4201 13.9882 1041 108.268 1085.08 491.458
2171 0 77.345 14.3901 1113 107.73 1084.92 490.19
2172 0 81.5276 14.6944 1198 105.159 1085.52 488.886
2173 0 82.5655 13.5287 1117 109.39 1085.59 487.271
2174 0 86.3747 14.5529 1257 106.347 1085.07 486.484
2175 0 88.5573 13.8103 1223 108.141 1085.16 485.463
2176 0 91.6313 13.7944 1264 108.502 1085.2 481.653
2177 0 95.4316 14.01 1337 106.661 1084.55 480.882
2178 0 98.4717 14.3493 1413 105.809 1084.64 478.277
2179 0 100.373 14.5457 1460 105.177 1084.87 477.636
2180 0 102.529 13.7424 1409 107.913 1084.76 474.142
2181 0 106.359 14.2631 1517 105.744 1084.38 472.929
2182 1 59.3438 11.8462 703 101.135 1085.22 498.347
2183 0 60.3275 11.7525 709 100.931 1084.94 500.406
2184 0 61.0838 11.8362 723 102.563 1084.46 500.425
2185 0 65.1434 12.9714 845 99.8994 1083.76 499.328
2186 0 67.089 12.8486 862 100.886 1083.92 498.93
2187 0 72.065 13.0299 939 103.872 1084.67 497.154
2188 0 73.1335 13.5642 992 103.426 1084.82 496.578
2189 0 74.1417 13.2044 979 105.37 1084.68 495.506
2190 0 79.095 12.8327 1015 104.692 1084.75 494.443
2191 0 80.1694 13.1222 1052 105.959 1084.4 491.796
2192 0 83.0941 13.5629 1127 104.457 1084.2 491.324
2193 0 84.1924 13.3979 1128 105.32 1083.66 490.011
2194 0 87.1899 13.7631 1200 104.636 1084.09 488.921
2195 0 89.2345 12.8201 1144 105.654 1083.68 487.155
2196 0 91.2337 13.2955 1213 107.063 1083.73 486.796
2197 0 93.3003 13.0439 1217 107.613 1083.65 485.457
2198 0 97.3511 13.2407 1289 106.521 1084.58 484.434
2199 0 100.463 12.9899 1305 107.198 1084.66 480.39
2200 0 103.488 13.1223 1358 106.215 1085.22 478.734
2201 0 106.586 13.1444 1401 106.281 1085.37 476.163
2202 0 107.385 12.4226 1334 108.655 1084.62 473.947
2203 1 63.5031 11.1648 709 100.934 1085.53 500.433
2204 0 63.4804 10.9483 695 99.2921 1085.62 500.954
2205 0 64.4247 11.3311 730 99.1726 1085.27 499.693
2206 0 67.2381 12.1062 814 98.4263 1084.75 498.951
2207 0 68.2633 11.5435 788 100.753 1085.6 494.273
2208 0 69.0936 12.2877 849 99.4075 1084.99 494.356
2209 0 72.215 12.8644 929 97.6017 1085.14 493.72
2210 0 74.2138 13.0299 967 97.4685 1085.02 493.471
2211 0 76.1737 12.7209 969 98.6006 1084.86 491.794
2212 0 78.2162 12.2737 960 100.823 1084.58 490.651
2213 0 82.2093 12.9182 1062 99.0734 1085.13 489.777
2214 0 83.2236 12.7368 1060 102.728 1084.97 488.597
2215 0 84.2252 13.0958 1103 102.174 1084.79 486.611
2216 0 88.4195 13.3681 1182 99.8274 1084.54 486.074
2217 0 91.2833 13.1349 1199 100.716 1084.3 484.855
2218 0 92.3042 13.1088 1210 101.105 1084.01 483.555
2219 0 96.3016 13.0943 1261 100.502 1083.93 481.32
2220 0 97.2246 13.1963 1283 100.528 1083.68 478.943
2221 0 99.2126 13.2745 1317 103.546 1083.83 474.896
2222 0 99.133 13.1742 1306 105.246 1083.57 472.44
2223 0 103.202 12.4319 1283 106.634 1082.92 471.082
2224 1 59.1734 8.78773 520 100.481 1083.34 496.129
2225 0 66.3481 10.8217 718 90.0056 1084.64 502.095
2226 0 67.317 11.2007 754 87.557 1084.36 499.602
2227 0 70.3259 11.5036 809 85.0779 1084.29 499.781
2228 0 69.1925 10.6514 737 86.8711 1084.22 499.218
2229 0 70.235 9.96654 700 89.5371 1084.17 498.173
2230 0 75.2124 10.9556 824 87.267 1083.82 496.839
2231 0 77.2604 10.8723 840 87.5655 1083.73 494.562
2232 0 80.2892 10.9106 876 87.1187 1084.01 494.998
2233 0 80.2488 11.4643 920 87.1054 1083 492.893
2234 0 84.2015 11.0331 929 87.8288 1083.5 493.27
2235 0 85.1464 11.0398 940 89.0096 1083.96 491.534
2236 0 88.1869 11.1014 979 89.9193 1082.95 489.002
2237 0 93.1592 11.797 1099 86.9636 1083.46 488.451
2238 0 93.2054 11.48 1070 89.4701 1083.25 488.936
2239 0 95.2036 11.6277 1107 90.6224 1083.28 486.263
2240 0 99.1883 11.6748 1158 91.8377 1083.36 485.429
2241 0 101.111 12.0758 1221 92.3538 1083.64 483.18
2242 0 103.149 11.7403 1211 92.6152 1084.25 482.78
2243 0 106.17 11.4722 1218 92.8103 1083.83 483.485
2244 0 109.138 11.8199 1290 92.662 1082.66 478.753
2245 0 114.297 11.855 1355 94.0435 1083.56 476.253
2246 0 118.334 12.2281 1447 94.7947 1083.55 474.249
2247 0 121.277 12.0468 1461 93.7084 1083.76 474.107
2248 0 126.155 11.9536 1508 96.6306 1083.42 470.824
2249 1 69.2412 10.0374 695 87.5165 1082.91 498.151
2250 0 73.2138 11.5962 849 87.0283 1083.8 498.696
2251 0 73.1957 11.0116 806 87.1129 1083.64 500.479
2252 0 75.2385 11.2044 843 88.777 1083.56 497.594
2253 0 77.1846 11.6992 903 88.68 1082.73 496.859
2254 0 81.213 11.6361 945 89.9735 1083.47 496.73
2255 0 82.176 10.9278 898 93.3385 1083.06 495.743
2256 0 85.2626 12.1155 1033 92.424 1083.26 494.727
2257 0 88.2842 12.1653 1074 92.1639 1083.94 493.4
2258 0 88.2519 11.8524 1046 93.6673 1084.06 491.963
2259 0 93.2595 12.4277 1159 91.8335 1083.64 490.84
2260 0 95.3597 12.0177 1146 94.0113 1083.72 488.817
2261 0 96.2635 12.4138 1195 93.1004 1083.69 487.209
2262 0 101.231 12.1109 1226 97.1403 1084.18 484.111
2263 0 104.364 12.0348 1256 94.8957 1083.58 482.943
2264 0 106.246 12.057 1281 98.3521 1084.55 482.772
2265 0 109.217 12.1959 1332 95.1742 1084.25 481.357
2266 0 112.18 11.9273 1338 98.8438 1084.26 478.243
2267 0 115.165 11.922 1373 98.8645 1084.43 476.296
2268 0 118.492 11.2159 1329 93.2709 1083.91 473.809
2269 1 66.2834 10.0025 663 86.8824 1084.33 502.913
2270 0 68.2697 10.5025 717 86.3389 1083.94 501.98
2271 0 68.3104 10.5694 722 88.2078 1084.06 500.194
2272 0 72.2969 11.024 797 86.3877 1084.11 501.25
2273 0 74.2303 10.885 808 88.3639 1084.08 498.179
2274 0 77.2662 11.0656 855 92.4129 1083.55 496.726
2275 0 77.2156 12.0054 927 90.4067 1083.47 495.93
2276 0 81.192 11.0725 899 92.7964 1083.19 493.888
2277 0 84.1237 12.1963 1026 91.0926 1083.11 491.566
2278 0 86.1928 12.3328 1063 91.0913 1083.53 492.97
2279 0 88.2257 11.6859 1031 93.2541 1083.22 489.447
2280 0 89.3948 11.3765 1017 89.4907 1083.09 488.794
2281 0 93.2143 12.1333 1131 88.9151 1083.33 489.707
2282 0 95.326 12.0744 1151 90.3354 1083.5 487.904
2283 0 98.2683 12.1199 1191 90.1268 1083.57 487.978
2284 0 100.283 12.2055 1224 94.1593 1084 485.047
2285 0 103.288 12.0246 1242 94.7424 1083.43 484.22
2286 0 106.549 12.4262 1324 95.5906 1083.93 481.745
2287 0 109.616 12.3066 1349 94.6353 1083.64 479.666
2288 0 112.528 12.468 1403 95.2951 1083.79 477.732
2289 0 115.628 12.3153 1424 95.5274 1083.76 475.968
2290 1 64.2719 10.0977 649 90.2558 1084.22 504.932
2291 0 64.304 10.5748 680 89.3721 1084.03 504.587
2292 0 66.4247 10.9598 728 87.9615 1084.43 501.997
2293 0 67.2218 11.3207 761 93.0788 1083.35 502.314
2294 0 69.4246 10.9615 761 88.7201 1083.98 501.445
2295 0 73.4268 11.5081 845 87.355 1084.68 500.489
2296 0 75.347 11.52 868 87.1647 1084.49 500.878
2297 0 77.3069 11.9394 923 85.9242 1083.87 496.143
2298 0 81.2714 12.2306 994 86.83 1083.57 496.42
2299 0 83.2575 12.1671 1013 85.4689 1083.72 494.866
2300 0 83.2871 11.5624 963 87.8702 1083.51 493.009
2301 0 90.3053 12.2695 1108 86.5903 1084.03 493.668
2302 0 92.2012 12.3534 1139 90.0465 1085.21 490.611
2303 0 95.2458 12.599 1200 88.9292 1084.28 489.652
2304 0 97.3183 12.752 1241 88.838 1084.23 487.911
2305 0 99.3458 12.0186 1194 90.9615 1084.14 487.415
2306 1 56.3273 9.85312 555 84.845 1084.9 510.589
2307 0 58.3128 9.67197 564 85.2855 1084.86 507.807
2308 0 60.2751 9.93777 599 85.192 1084.81 507.487
2309 0 62.3664 10.4383 651 84.404 1084.52 506.504
2310 0 64.3314 11.4097 734 84.1362 1084.72 505.481
2311 0 67.2091 12.2602 824 83.3908 1084.67 504.801
2312 0 69.0946 12.9388 894 86.6007 1085.06 503.884
2313 0 71.0912 12.3925 881 87.7355 1084.7 502.771
2314 0 73.1846 13.0902 958 85.0658 1084.97 501.998
2315 0 74.1059 13.0894 970 83.2113 1083.98 499.039
2316 0 77.3352 13.0471 1009 80.7017 1083.77 498.167
2317 0 78.3095 12.4123 972 83.3663 1083.72 496.351
2318 0 81.2279 12.7419 1035 83.1643 1084.13 496.8
2319 0 85.2775 12.8756 1098 82.9818 1083.61 493.765
2320 0 86.2303 13.0697 1127 83.6433 1083.97 492.377
2321 0 89.2748 13.3296 1190 83.7445 1083.42 490.802
2322 0 93.2183 13.2914 1239 83.7603 1082.66 487.798
2323 0 96.2526 13.0178 1253 85.3847 1082.71 486.722
2324 0 99.2813 13.4265 1333 86.2416 1083.24 485.337
2325 0 100.301 12.6718 1271 88.7372 1083.05 483.179
2326 0 102.347 13.425 1374 88.5306 1083.75 481.624
2327 0 107.252 13.2398 1420 88.3458 1083.92 479.298
2328 0 109.247 12.3024 1344 92.5975 1083.46 475.952
2329 1 58.1033 10.2232 594 95.4057 1085.3 502.904
2330 0 60.1286 10.8767 654 91.0673 1086.53 502.298
2331 0 61.1279 11.7786 720 87.6333 1086.63 503.588
2332 0 63.3276 11.6853 740 87.5041 1085.91 499.731
2333 0 64.3219 12.7795 822 86.0681 1085.43 499.932
2334 0 65.3551 11.8124 772 89.8588 1084.91 498.207
2335 0 68.2939 12.3583 844 88.7358 1084.73 497.111
2336 0 68.2829 11.7453 802 92.5299 1085.04 496.207
2337 0 72.2381 12.6111 911 90.6861 1085.27 496.019
2338 0 77.3337 13.0215 1007 89.0576 1084.47 496.037
2339 0 77.2025 13.0436 1007 90.9643 1084.89 494.337
2340 0 79.2229 12.9256 1024 92.5205 1085.16 492.59
2341 0 79.2893 11.7923 935 97.2481 1085.09 493.545
2342 0 82.2841 12.0315 990 95.5949 1084.69 493.92
2343 0 83.2491 12.0001 999 96.994 1085.24 492.261
2344 0 91.2296 12.9563 1182 96.0254 1085.16 491.217
2345 0 92.2812 12.4402 1148 96.4983 1085.2 490.936
2346 0 95.2869 12.8349 1223 95.4047 1085.25 490.406
2347 0 97.1992 12.7264 1237 95.2466 1084.92 489.757
2348 0 99.2456 12.3834 1229 97.2205 1085.03 486.096
2349 0 102.252 11.99 1226 97.9943 1084.47 486.02
2350 0 106.19 12.3929 1316 95.997 1084.54 483.93
2351 1 61.1639 10.9869 672 89.6488 1085.41 508.085
2352 0 62.0774 10.9218 678 90.7242 1084.98 506.832
2353 0 59.0664 10.7506 635 81.5339 1082.55 502.263
2354 0 59.1366 10.518 622 86.4309 1082.81 499.402
2355 0 68.0896 12.1017 824 88.8325 1084.18 504.477
2356 0 68.0571 12.034 819 89.2418 1083.32 504.469
2357 0 72.101 11.8306 853 88.0059 1083.59 503.103
2358 0 73.0536 11.8543 866 88.5693 1083.65 502.588
2359 0 77.084 12.0648 930 87.5355 1083.47 500.149
2360 0 78.0842 11.6669 911 89.3085 1083.03 501.771
2361 0 78.0588 11.4529 894 92.2785 1082.88 500.847
2362 0 81.0729 12.5073 1014 89.8185 1082.19 500.225
2363 0 84.0549 11.5639 972 92.6605 1082.17 497.729
2364 0 87.0377 12.4084 1080 89.675 1082.85 498.201
2365 0 87.0602 12.2674 1068 93.0974 1081.79 496.521
2366 0 92.0681 12.6211 1162 92.1773 1080.66 494.132
2367 0 93.1106 13.1242 1222 91.9043 1081.49 492.986
2368 0 95.0862 12.5991 1198 94.3088 1081.31 490.982
2369 0 99.1001 12.4823 1237 93.7227 1081.88 492.308
2370 0 99.1367 12.2356 1213 96.4213 1081.07 490.389
2371 0 104.174 13.055 1360 93.6794 1080.84 487.392
2372 0 106.17 12.998 1380 93.8072 1080.43 484.816
2373 0 109.214 12.2237 1335 96.0397 1080.7 483.166
2374 0 112.32 12.0638 1355 96.0266 1080.78 480.741
2375 0 116.539 12.6739 1477 95.8186 1081.1 474.892
2376 1 65.4469 9.45805 619 91.9855 1081.02 501.614
2377 0 66.4874 10.5133 699 90.6567 1081.48 500.146
2378 0 69.3469 10.5845 734 88.8665 1082.19 499.411
2379 0 70.2681 10.9296 768 88.4453 1081.69 500.061
2380 0 74.3349 11.7038 870 87.477 1082.3 499.649
2381 0 76.2873 11.2338 857 88.7923 1082.14 498.237
2382 0 79.2777 11.7057 928 88.0216 1081.97 496.621
2383 0 84.2829 12.1614 1025 86.1824 1080.82 494.408
2384 0 85.3196 12.2715 1047 86.2684 1081.47 492.505
2385 0 88.3028 12.1514 1073 87.1426 1081.71 492.028
2386 0 90.3442 11.6886 1056 89.9441 1081.97 491.038
2387 0 93.3491 11.9873 1119 93.2458 1082 489.223
2388 0 97.2942 11.6965 1138 91.8093 1082.05 488.458
2389 0 99.2308 11.8512 1176 91.6641 1081.39 486.692
2390 0 105.219 11.88 1250 90.584 1081.97 484.537
2391 1 58.1513 10.6618 620 85.3581 1082.48 505.637
2392 0 57.1841 10.4575 598 89.5234 1082.74 501.946
2393 0 59.2525 11.6957 693 88.2208 1083.41 500.108
2394 0 61.3394 11.7054 718 89.5543 1083.63 499.806
2395 0 60.1037 11.6965 703 90.6245 1083.95 496.169
2396 0 66.1694 13.3294 882 87.3231 1084.23 501.478
2397 0 67.2086 12.3645 831 87.8002 1084.42 500.613
2398 0 67.3712 12.1268 817 86.3745 1083.63 500.319
2399 0 67.3225 11.7643 792 88.6048 1084.08 500.716
2400 0 69.3156 12.2628 850 88.1871 1083.45 499.142
2401 0 72.3958 12.0035 869 88.4005 1083.21 498.27
2402 0 72.3663 12.3538 894 88.5884 1083.08 494.456
2403 0 76.4309 11.8277 904 89.4945 1083.94 494.603
2404 0 79.4289 12.3129 978 88.1135 1084.12 494.355
2405 0 78.4721 11.8641 931 90.5789 1084.03 494.215
2406 0 81.3643 11.6759 950 91.0474 1084.27 490.051
2407 0 82.219 12.0289 989 90.6855 1084.07 487.299
2408 0 80.1736 11.5 922 92.6356 1084.28 485.934
2409 0 82.2566 11.841 974 92.9692 1084.95 484.159
2410 0 86.2226 12.0734 1041 91.3516 1084.85 484.177
2411 0 88.3314 11.8191 1044 92.9741 1084.73 480.511
2412 0 89.316 11.756 1050 94.2914 1084.56 478.73
2413 0 93.3384 12.385 1156 93.1358 1084.39 477.176
2414 0 96.4043 12.3542 1191 94.4391 1084.34 475.942
2415 0 97.3888 11.8289 1152 97.0998 1084.17 475.262
2416 0 102.355 12.4762 1277 94.1441 1085.09 474.999
2417 0 102.416 12.1075 1240 97.1629 1084.47 472.386
2418 0 107.396 12.6354 1357 95.2417 1084.52 469.744
2419 0 110.367 12.3407 1362 96.2019 1083.99 468.848
2420 1 59.1581 10.1761 602 96.0482 1085.39 493.761
2421 0 61.1418 10.9091 667 94.4258 1085.44 492.942
2422 0 66.1568 11.5332 763 90.8336 1085.09 490.779
2423 0 65.1121 11.4418 745 91.9544 1085.21 489.887
2424 0 71.3001 11.6409 830 89.3627 1085.39 495.412
2425 0 71.2703 12.0246 857 89.8856 1084.55 492.208
2426 0 73.1905 10.985 804 91.2525 1084.15 492.002
2427 0 74.2201 11.1291 826 90.8656 1084.1 489.576
2428 0 76.1938 11.602 884 90.6459 1084.17 486.712
2429 0 79.2277 11.6247 921 91.2638 1083.93 483.823
2430 0 84.3197 11.5869 977 91.7697 1084.28 484.777
2431 0 87.396 12.4376 1087 90.942 1084.34 482.799
2432 0 90.3279 12.5875 1137 90.4969 1084.29 481.222
2433 0 91.3782 12.1473 1110 92.7441 1083.88 480.557
2434 0 95.4671 12.4127 1185 92.7882 1084.35 479.103
2435 0 96.3898 12.3353 1189 93.6484 1084.35 478.408
2436 0 98.3354 12.4879 1228 93.8119 1084.26 476.629
2437 0 99.2639 12.23 1214 95.2488 1083.5 475.212
2438 0 105.375 12.4318 1310 93.8053 1083.37 473.989
2439 0 107.371 12.2286 1313 94.9048 1083.13 473.563
2440 0 110.335 12.3533 1363 94.6618 1083.7 472.053
2441 0 113.298 12.6745 1436 94.4011 1083.7 471.571
2442 0 116.331 12.0089 1397 96.1596 1084.02 469.429
2443 0 122.306 12.6486 1547 94.7912 1083.9 466.799
2444 0 126.245 12.8084 1617 94.0179 1083.79 464.457
2445 0 133.366 12.7543 1701 94.6455 1082.7 464.041
2446 0 136.303 12.9271 1762 95.4784 1083.55 461.707
2447 0 143.32 13.4803 1932 94.1315 1083.42 458.778
2448 1 78.1318 11.8262 924 97.7825 1084.15 490.351
2449 0 82.0777 12.3542 1014 97.3511 1083.35 489.558
2450 0 83.1497 13.1089 1090 96.7284 1083.28 484.794
2451 0 89.0452 13.4651 1199 93.2394 1082.53 486.994
2452 0 92.4579 13.7792 1274 91.9192 1084.4 485.553
2453 0 91.3663 13.1668 1203 96.3666 1084.21 482.764
2454 0 97.3703 13.3306 1298 95.5254 1083.96 480.173
2455 0 99.4704 13.8433 1377 95.1612 1083.64 479.328
2456 0 101.494 13.6067 1381 96.4946 1084.44 479.497
2457 0 105.443 13.8464 1460 96.4158 1084.29 477.775
2458 0 105.493 13.3279 1406 99.8144 1084.22 474.706
2459 0 109.39 13.5936 1487 99.5091 1084.36 473.968
2460 0 113.436 13.9462 1582 98.2604 1083.92 472.563
2461 0 117.435 13.5223 1588 99.2128 1083.68 471.365
2462 0 122.54 13.5875 1665 98.3399 1084.29 471.246
2463 0 125.459 14.1162 1771 98.4901 1084.15 466.739
2464 0 127.479 13.2414 1688 101.172 1082.66 465.063
2465 0 133.412 13.9643 1863 98.7595 1083.13 462.181
2466 0 137.558 13.5361 1862 100.209 1083.47 462.393
2467 0 141.499 13.4701 1906 101.143 1083.25 459.573
2468 1 79.3744 11.83 939 102.144 1083.93 490.635
2469 0 80.3308 12.3365 991 101.396 1083.69 489.142
2470 0 85.5056 13.122 1122 96.4474 1083.05 488.168
2471 0 86.5283 13.3136 1152 94.25 1083.34 486.808
2472 0 90.5178 13.4117 1214 93.7372 1083.51 485.524
2473 0 90.5945 13.2458 1200 96.1508 1083.7 485.682
2474 0 93.5215 13.5049 1263 95.6896 1083.42 484.731
2475 0 96.3257 13.4647 1297 95.4302 1083.99 483.557
2476 0 99.411 13.58 1350 94.1844 1083.4 481.899
2477 0 101.378 13.0797 1326 96.7338 1082.74 478.863
2478 0 103.427 13.5748 1404 94.5698 1082.91 475.833
2479 0 109.437 13.8436 1515 92.4924 1083.44 475.209
2480 0 109.363 13.2677 1451 93.8932 1083.07 473.162
2481 0 113.479 13.7206 1557 92.2241 1082.99 472.62
2482 0 117.343 13.7034 1608 90.931 1083.11 470.739
2483 0 122.516 13.3615 1637 90.2737 1083.25 469.957
2484 1 63.3553 11.4592 726 90.4187 1084.22 496.565
2485 0 65.3906 12.0507 788 90.9911 1083.11 495.92
2486 0 69.4851 11.8731 825 90.0921 1082.89 493.575
2487 0 71.3723 12.9462 924 88.3582 1083.3 491.752
2488 0 73.551 12.6851 933 87.2647 1082.91 490.35
2489 0 71.426 12.8945 921 89.1336 1082.71 488.796
2490 0 75.4172 13.2331 998 87.6874 1083.22 486.859
2491 0 76.5248 12.754 976 89.5881 1083.09 486.393
2492 0 78.494 12.88 1011 90.0593 1083 484.35
2493 0 78.4911 12.8677 1010 91.2931 1082.87 483.701
2494 0 83.5164 13.2429 1106 89.7468 1082.84 482.528
2495 0 86.485 13.193 1141 90.6004 1083.16 481.096
2496 0 89.6182 13.2786 1190 89.6218 1083.38 480.583
2497 0 90.478 13.1745 1192 91.4992 1083.21 478.524
2498 0 93.6133 13.1392 1230 90.9846 1083.28 477.054
2499 0 97.5477 12.804 1249 90.8223 1082.86 475.102
2500 0 99.3774 13.4035 1332 89.4414 1083.45 472.108
2501 0 102.42 13.4543 1378 88.7075 1082.94 470.786
2502 0 104.266 13.0339 1359 90.2575 1083.12 470.026
2503 0 112.437 13.323 1498 87.5587 1082.63 469.818
2504 0 116.352 13.2529 1542 87.6971 1082.56 469.272
2505 0 119.336 12.7623 1523 88.5673 1082.55 467.192
2506 0 125.326 13.038 1634 86.9198 1082.94 464.373
2507 1 69.3096 11.3548 787 89.8564 1083.55 493.014
2508 0 70.1598 11.8444 831 89.645 1083.82 491.135
2509 0 74.3311 12.5789 935 86.7604 1082.8 490.932
2510 0 74.2844 13.2195 982 87.9878 1082.42 487.93
2511 0 81.2662 12.8098 1041 86.3996 1082.5 487.623
2512 0 78.2715 13.351 1045 87.8679 1083.76 485.966
2513 0 82.3388 13.4566 1108 87.1968 1082.26 484.038
2514 0 84.2425 13.7342 1157 88.5411 1082.3 484.656
2515 0 89.4953 13.9672 1250 86.792 1082.29 483.383
2516 0 90.3973 13.6398 1233 88.1062 1081.6 481.845
2517 0 93.3304 13.7147 1280 88.2406 1081.89 479.85
2518 0 94.266 12.7405 1201 92.4255 1081.73 477.415
2519 0 98.3416 12.6803 1247 92.5934 1081.33 474.852
2520 0 104.193 12.976 1352 90.3609 1081.35 475.194
2521 0 106.324 12.4243 1321 92.757 1081.99 473.125
2522 0 108.298 13.1212 1421 91.6277 1082.26 471.226
2523 0 114.356 12.8109 1465 91.3154 1081.3 469.762
2524 0 119.238 12.0516 1437 92.5296 1080.49 465.58
2525 0 121.522 12.9359 1572 90.5172 1081.37 465.611
2526 1 73.355 9.03824 663 86.3876 1081.58 489.481
2527 0 75.3615 9.03645 681 84.8972 1081.58 489.507
2528 0 77.306 9.85693 762 84.0328 1081.35 487.731
2529 0 83.3019 11.3203 943 78.895 1081.51 489.72
2530 0 84.4794 11.0915 937 79.4205 1082.66 489.501
2531 0 87.3724 11.5139 1006 79.1889 1082.51 486.757
2532 0 90.3049 11.6494 1052 79.4344 1082.66 486.389
2533 0 94.3696 12.3133 1162 80.3322 1082.19 486.522
2534 0 95.4373 11.1173 1061 83.1254 1082.44 485.232
2535 0 96.3726 11.5074 1109 83.8386 1082.04 480.28
2536 0 100.385 11.7946 1184 83.5938 1082.35 481.413
2537 0 104.35 11.701 1221 84.1515 1082.22 479.91
2538 0 107.338 11.7666 1263 84.2621 1081.91 478.922
2539 0 110.167 12.0544 1328 85.1792 1081.91 477.026
2540 0 113.213 11.8007 1336 86.1976 1081.87 476.692
2541 0 116.268 12.0068 1396 86.4319 1081.87 472.428
2542 0 119.184 11.7801 1404 87.9288 1081.73 471.025
2543 0 121.226 11.8622 1438 88.6321 1081.95 468.909
2544 0 125.184 11.8386 1482 89.8016 1081.77 468.872
2545 0 129.193 12.0053 1551 88.4339 1081.92 466.77
2546 0 134.154 11.8222 1586 88.715 1081.51 465.259
2547 0 138.186 11.5352 1594 89.4831 1080.94 464.71
2548 1 80.0968 9.501 761 85.1971 1081.6 494.486
2549 0 84.1936 11.0697 932 83.6878 1082.35 490.952
2550 0 85.1548 11.1561 950 85.0684 1081.94 488.512
2551 0 89.1228 12.3089 1097 84.3108 1082.86 489.334
2552 0 90.0825 11.7892 1062 87.8041 1083.93 484.858
2553 0 93.0682 12.1631 1132 87.0724 1084.46 486.253
2554 0 98.3017 12.5023 1229 91.0122 1084.77 483.844
2555 0 101.162 11.8918 1203 92.1164 1084.44 483.456
2556 0 103.238 11.8561 1224 93.094 1085.02 479.953
2557 0 104.206 11.9954 1250 93.7656 1085.12 478.421
2558 0 109.305 12.2318 1337 94.1496 1083.28 477.013
2559 0 109.283 11.365 1242 96.8205 1082.37 473.061
2560 0 115.289 11.6663 1345 91.5636 1081.8 472.613
2561 0 117.243 11.779 1381 90.5858 1082.06 468.723
2562 0 118.286 11.2693 1333 93.5664 1082.53 466.176
2563 0 124.283 11.691 1453 90.7584 1082.37 466.553
2564 0 128.32 11.2999 1450 91.6076 1082.02 465.006
2565 0 131.258 10.506 1379 91.3698 1081.52 460.397
2566 0 136.24 10.5255 1434 90.9561 1081.38 457.628
2567 0 139.172 10.4187 1450 92.3241 1081.39 455.741
2568 1 75.1573 9.64644 725 86.8386 1081.81 489.339
2569 0 76.1066 10.0648 766 86.6736 1081.67 489.346
2570 0 78.372 11.1137 871 88.6751 1083.29 487.412
2571 0 83.3035 11.284 940 90.133 1083.82 485.916
2572 0 84.25 12.095 1019 84.6163 1084.57 485.854
2573 0 88.2854 12.335 1089 86.2507 1084.22 484.457
2574 0 88.2962 12.3901 1094 118.076 1083.21 484.393
2575 0 95.342 12.0409 1148 84.2134 1082.35 484.456
2576 0 96.3484 11.7283 1130 86.7726 1082.19 484.073
2577 0 98.347 12.6084 1240 88.0274 1082.16 482.323
2578 0 101.375 11.8472 1201 93.6586 1082.24 481.317
2579 0 103.385 11.9746 1238 97.7302 1082.64 478.421
2580 0 105.367 12.1765 1283 97.4677 1082.7 477.267
2581 0 109.429 11.8799 1300 99.5708 1082.56 475.776
2582 0 111.395 12.4064 1382 100.535 1083.09 473.219
2583 0 115.41 12.0007 1385 101.568 1082.8 473.947
2584 0 118.405 11.7393 1390 101.622 1083.08 470.818
2585 0 122.345 11.6147 1421 100.652 1082.88 470.389
2586 0 123.302 11.4353 1410 102.488 1083 466.893
2587 0 130.524 13.2619 1731 103.537 1083.76 466.108
2588 0 129.556 12.3576 1601 103.22 1083.79 461.739
2589 0 132.536 12.0722 1600 103.823 1083.68 459.892
2590 0 137.437 12.8059 1760 102.082 1083.88 458.702
2591 0 142.356 12.8621 1831 103.4 1083.35 454.026
2592 0 147.402 12.7746 1883 104.173 1083.41 454.733
2593 0 151.525 12.6645 1919 105.613 1083.5 452.485
2594 0 155.343 13.3447 2073 106.104 1083 449.339
2595 0 161.397 13.0052 2099 108.474 1083.88 447.747
2596 0 166.472 12.9091 2149 109 1083.98 444.275
2597 0 172.342 12.8582 2216 109.343 1083.08 443.793
2598 0 177.359 13.1766 2337 109.008 1082.68 443.408
2599 0 181.379 13.469 2443 106.716 1083.36 439.578
2600 0 188.303 13.8288 2604 106.084 1082.93 438.677
2601 0 192.314 13.4884 2594 107.761 1083.45 433.384
2602 0 195.356 12.3518 2413 112.993 1083.55 431.198
2603 0 202.378 12.8917 2609 110.981 1082.88 430.194
2604 0 207.435 12.8474 2665 110.917 1083 427.029
2605 0 212.351 12.696 2696 111.772 1082.99 423.349
2606 0 218.371 13.271 2898 109.207 1082.91 423.814
2607 0 222.289 13.4509 2990 109.772 1082.74 418.207
2608 0 227.377 13.5018 3070 109.684 1082.68 416.13
2609 0 232.458 13.2411 3078 110.668 1083.43 414.017
2610 0 241.433 13.6974 3307 108.232 1083.57 410.108
2611 0 245.524 12.8134 3146 111.671 1082.91 405.009
2612 0 251.448 13.1598 3309 110.583 1082.76 401.572
2613 0 258.484 13.2619 3428 110.391 1082.37 399.36
2614 0 264.516 14.1806 3751 108.884 1082.68 395.011
2615 0 271.567 14.1181 3834 108.682 1082.37 386.597
2616 0 280.546 14.5074 4070 107.804 1082.62 386.386
2617 0 282.661 13.9637 3947 110.372 1082.4 380.137
2618 0 292.758 14.3361 4197 109.984 1082.01 376.976
2619 0 299.528 14.7432 4416 109.076 1082.33 374.164
2620 0 304.657 15.785 4809 105.339 1082.43 368.471
2621 0 310.56 15.1951 4719 108.714 1082.02 362.833
2622 0 319.907 16.1141 5155 105.46 1082.44 359.496
2623 0 327.708 15.645 5127 107.319 1082.37 355.565
2624 0 334.864 15.0867 5052 109.514 1082.45 350.189
2625 0 343.867 16.0411 5516 106.424 1082.3 346.413
2626 0 351.888 16.329 5746 110.688 1083.04 339.844
2627 0 358.748 15.7464 5649 107.333 1082.5 340.152
2628 0 367.833 16.135 5935 106.471 1082.96 335.864
2629 0 374.712 15.7641 5907 105.493 1082.32 330.062
2630 0 383.709 15.3606 5894 106.603 1082.63 324.927
2631 0 389.559 15.4508 6019 104.824 1082.01 314.476
2632 0 396.751 14.838 5887 107.362 1082.59 308.525
2633 0 408.823 16.7799 6860 100.839 1082.58 307.195
2634 0 404.726 15.4351 6247 106.92 1082.33 302.161
2635 0 404.664 15.7415 6370 105.927 1082.34 300.73
2636 0 402.631 15.6297 6293 106.274 1082.19 298.293
2637 0 407.575 16.2768 6634 104.066 1082.59 299.928
2638 0 407.647 15.5502 6339 105.816 1082.52 298.732
2639 0 408.794 15.6534 6399 105.56 1082.78 300.391
