time division length width area intensity CMx CMy
0 0 44.0461 12.8502 566 137.459 1173.27 500.617
1 0 46.0146 12.9524 596 134.176 1173.12 499.171
2 0 46.1712 13.9697 645 124.333 1173.21 502.324
3 0 46.1816 13.1871 609 125.284 1173.29 503.227
4 0 48.1832 13.0544 629 124.35 1172.69 501.927
5 0 48.1832 12.9506 624 143.463 1171.68 502.021
6 0 51.163 14.0922 721 116.788 1172.81 501.424
7 0 52.0957 13.552 706 117.829 1172.67 500.385
8 0 55.0891 14.7579 813 111.761 1172.67 500.547
9 0 57.0811 13.402 765 114.331 1172.21 499.563
10 0 56.17 14.0466 789 112.352 1172.24 498.312
11 0 60.1111 13.9908 841 112.034 1171.71 496.862
12 0 62.1389 13.6468 848 111.18 1171.2 498.154
13 0 64.1199 14.5977 936 107.068 1171.06 496.396
14 0 65.0933 14.2411 927 107.326 1170.75 494.228
15 0 68.1484 14.0722 959 105.325 1171.56 495.258
16 0 70.0948 14.6231 1025 105.614 1170.65 494.02
17 0 74.1175 15.0842 1118 103.488 1170.26 490.165
18 0 76.115 14.8985 1134 104.316 1169.98 491.089
19 0 78.0854 14.8939 1163 105.544 1169.42 487.605
20 0 82.096 15.1165 1241 103.084 1169.51 486.445
21 0 82.1335 14.3182 1176 105.94 1169.98 485.315
22 0 84.1069 15.0047 1262 102.913 1169.54 483.777
23 0 86.0666 14.5004 1248 102.113 1169.6 482.764
24 1 45.0699 12.9133 582 99.0567 1169.69 502.979
25 0 47.0448 12.7963 602 98.108 1169.31 500.997
26 0 48.0356 13.5108 649 97.5193 1169.88 500.644
27 0 51.0337 14.2259 726 97.2961 1170.01 498.972
28 0 50.0617 13.5233 677 98.7459 1169.47 504.464
29 0 54.0698 13.4086 725 97.4124 1169.49 503.262
30 0 55.0997 14.2469 785 96.0369 1169.91 503.107
31 0 57.1156 13.6565 780 96.4372 1170.18 503.046
32 0 58.0783 14.4288 838 95.7768 1169.71 502.1
33 0 59.0724 14.423 852 93.8474 1169.4 500.041
34 0 61.1073 13.8609 847 94.6494 1169.33 499.57
35 0 64.0731 14.2025 910 94.3066 1169.27 497.881
36 0 67.1796 13.7244 922 94.3416 1169.75 496.721
37 0 69.0673 14.2325 983 94.2146 1169.35 494.607
38 0 71.1332 14.4096 1025 95.1571 1169.62 492.7
39 0 72.2644 14.5438 1051 96.039 1169.29 491.45
40 0 77.1565 14.814 1143 94.5311 1169.44 490.738
41 0 78.0955 14.5463 1136 96.0053 1169.02 488.632
42 0 81.0616 14.5322 1178 94.4244 1169.3 488.663
43 0 83.1583 14.9714 1245 94.2297 1168.79 486.631
44 0 85.0771 14.7278 1253 95.0543 1169.15 484.275
45 0 89.0527 15.5863 1388 85.6945 1168.84 483.201
46 0 91.0874 14.1732 1291 96.6925 1169.24 482.514
47 0 94.0716 14.7653 1389 95.1814 1168.58 480.157
48 0 95.0594 14.128 1343 98.4386 1168.83 480.355
49 0 98.0924 14.2111 1394 96.6356 1168.62 478.099
50 0 103.091 14.2108 1465 95.0478 1168.85 476.312
51 0 108.142 14.9341 1615 93.1808 1169.15 475.259
52 0 112.173 14.5935 1637 93.0874 1168.73 473.417
53 0 116.157 14.8678 1727 92.3532 1168.48 470.94
54 0 119.161 14.4342 1720 93.0808 1169 469.47
55 0 125.131 14.7686 1848 91.4518 1169.22 468.577
56 1 63.0589 12.528 790 88.3544 1169.99 497.491
57 0 66.2533 13.2069 875 88.2091 1170.21 494.856
58 0 68.1303 13.1659 897 90.2386 1169.39 493.303
59 0 72.1129 14.0613 1014 89.216 1169.37 492.697
60 0 74.1244 14.4082 1068 87.8474 1169.93 490.188
61 0 76.0976 13.4301 1022 90.4589 1169.38 489.882
62 0 79.1074 14.1453 1119 88.6175 1169.54 488.789
63 0 82.0986 14.3242 1176 87.6913 1169.33 488.115
64 0 84.1196 14.4437 1215 86.9704 1169 487.164
65 0 87.1116 14.4068 1255 87.1466 1169.62 485.661
66 0 89.0954 14.1758 1263 87.4964 1168.81 486.604
67 0 93.1181 14.444 1345 89.1799 1168.81 484.654
68 0 93.1499 13.5695 1264 91.0024 1168.55 483.628
69 0 97.1747 13.5015 1312 91.5945 1169.48 481.45
70 0 101.156 14.2947 1446 89.0111 1169.39 480.348
71 0 104.204 13.5312 1410 91.056 1169.01 478.221
72 0 108.2 14.122 1528 89.6014 1168.69 475.804
73 0 113.139 14.2126 1608 90.1922 1168.35 473.853
74 0 118.184 14.2236 1681 89.4729 1168.29 470.53
75 0 122.149 13.7373 1678 90.1973 1168.46 469.959
76 1 59.0642 11.5975 685 89.6803 1168.96 499.701
77 0 62.079 12.4519 773 85.8422 1169.08 498.005
78 0 64.05 12.2873 787 86.1499 1170.49 497.307
79 0 68.0222 13.1722 896 83.9152 1170.4 496.594
80 0 68.0857 12.7046 865 85.941 1170.57 496.02
81 0 71.0692 13.2125 939 84.4835 1170.6 494.166
82 0 74.0314 13.3322 987 84.1429 1170.23 492.896
83 0 77.0936 13.3085 1026 82.1296 1170.18 491.2
84 0 80.1197 12.7684 1023 84.4203 1170.28 490.156
85 0 82.055 12.7719 1048 85.0916 1170.04 488.286
86 0 84.2029 13.0874 1102 83.6416 1170.31 487.18
87 0 87.0721 13.3108 1159 83.9206 1170.06 485.979
88 0 88.0868 13.3732 1178 85.0484 1170.05 485.279
89 0 91.0731 13.6045 1239 85.1283 1170.56 483.641
90 0 91.1555 12.4513 1135 88.6767 1169.69 481.048
91 0 97.2372 13.4414 1307 86.4024 1170.13 479.529
92 0 99.2659 13.4084 1331 85.3997 1170.11 478.844
93 0 103.265 13.1603 1359 86.9367 1169.68 477.063
94 0 108.295 12.9645 1404 84.7835 1169.51 475.89
95 0 111.375 12.3457 1375 85.3164 1168.75 470.904
96 1 54.2664 11.0381 599 76.6027 1168.91 502.71
97 0 55.2139 11.7724 650 72.5923 1169.26 503.478
98 0 57.1635 12.0007 686 71.7595 1168.99 501.297
99 0 55.1766 10.3123 569 76.3515 1169.01 503.93
100 0 55.1766 10.2761 567 119.663 1169.01 503.965
101 0 59.1494 11.192 662 75.8353 1168.9 500.417
102 0 62.1717 10.8731 676 75.8003 1169.09 499.479
103 0 65.1045 11.8579 772 74.7837 1168.54 498.03
104 0 69.1188 12.0517 833 76.0984 1168.69 496.355
105 0 69.098 11.6356 804 79.6306 1168.86 494.611
106 0 71.1401 11.639 828 80.4517 1168.38 492.475
107 0 74.1002 12.0647 894 81.0134 1168.34 491.285
108 0 77.1864 11.4657 885 81.7785 1168.05 492.508
109 0 78.1111 12.5846 983 81.8779 1168.02 491.584
110 0 81.0871 11.9501 969 83.6347 1168.61 489.244
111 0 82.1185 11.6661 958 84.7213 1167.86 488.338
112 0 86.1661 11.8028 1017 85.1642 1168.6 487.074
113 0 89.1244 12.6452 1127 85.3966 1168.57 484.769
114 0 92.0952 12.7803 1177 84.5489 1169.14 484.551
115 0 93.1344 11.8538 1104 86.5643 1168.05 480.11
116 0 97.0683 12.2491 1189 84.4399 1167.69 478.602
117 0 99.1409 13.2034 1309 82.3484 1167.27 477.325
118 1 51.1116 10.1151 517 78.0677 1168.33 502.588
119 0 55.04 12.5545 691 82.8408 1168.93 503.149
120 0 54.1789 11.9419 647 76.0742 1168.77 504.714
121 0 56.2333 12.6438 711 75.5148 1168.94 503.722
122 0 56.2971 12.3452 695 77.305 1168.67 502.881
123 0 59.1935 12.2818 727 77.4209 1169.28 502.777
124 0 59.1945 12.0788 715 76.7538 1169.27 502.92
125 0 61.2612 11.7203 718 77.2298 1168.98 501.492
126 0 63.2933 12.134 768 76.832 1168.46 500.948
127 0 64.2443 11.2384 722 78.7964 1168.35 499.724
128 0 66.2018 11.8426 784 77.8329 1168.29 500.849
129 0 70.1277 12.8195 899 77.7898 1168.36 497.899
130 0 71.1467 11.5395 821 81.7479 1168.27 495.845
131 0 72.1466 12.2251 882 81.9456 1168.29 494.621
132 0 75.2129 12.4713 938 82.032 1168.13 493.711
133 0 78.2262 13.0135 1018 81.2868 1167.78 494.126
134 0 80.1134 12.7944 1025 83.0741 1167.94 493.157
135 0 81.103 12.7739 1036 84.0444 1167.82 491.256
136 0 84.1707 12.3677 1041 83.8972 1167.95 490.74
137 0 87.1271 12.9466 1128 83.4255 1167.63 486.29
138 0 89.1992 13.027 1162 83.1687 1167.87 488.34
139 0 91.1957 12.2594 1118 84.2281 1167.79 488.374
140 0 94.1913 14.0034 1319 81.0637 1167.59 485.356
141 0 97.1147 13.5304 1314 81.8075 1167.1 485.746
142 0 98.0804 12.1533 1192 84.3079 1167.53 485.145
143 0 103.171 12.9784 1339 83.5108 1167.59 484.555
144 0 105.148 13.3526 1404 83.3419 1167.53 479.623
145 0 109.229 13.7326 1500 82.4513 1167.22 479.482
146 0 111.264 13.778 1533 83.2753 1167.22 478.074
147 0 116.184 13.6852 1590 85.7918 1167.07 477.038
148 0 120.108 14.437 1734 83.2895 1167.32 474.669
149 0 123.266 13.7021 1689 87.4997 1168.47 468.882
150 1 56.0725 13.0367 731 88.4884 1169.44 502.142
151 0 60.1129 12.8924 775 88.9381 1168.66 503.599
152 0 59.2762 14.5758 864 88.3333 1167.89 502.154
153 0 63.3875 13.6462 865 90.0613 1167.82 500.62
154 0 66.2846 13.789 914 89.1783 1169.12 499.084
155 0 67.1724 13.9194 935 90.0674 1169.38 497.421
156 0 71.2601 14.0331 1000 89.164 1169.1 495.949
157 0 73.2655 14.5089 1063 88.1938 1169.68 495.212
158 0 75.3677 15.0993 1138 87.4807 1169.93 494.84
159 0 77.2716 14.3649 1110 89.8847 1169.97 492.872
160 0 79.3158 14.2847 1133 90.5931 1170.44 493.064
161 0 82.3787 14.664 1208 90.577 1169.57 490.309
162 0 83.25 14.7147 1225 90.9298 1169.09 490.638
163 0 87.2812 14.8256 1294 91.7102 1169.15 487.723
164 0 89.4257 14.6378 1309 91.783 1168.83 487.585
165 0 92.4272 15.2661 1411 92.4635 1169.19 486.437
166 0 95.3509 14.5987 1392 94.8161 1168.46 484.064
167 1 44.2899 12.5311 555 97.0973 1169.37 508.477
168 0 45.3899 13.7476 624 98.8349 1169.78 506.444
169 0 48.3841 13.5788 657 98.1598 1170.26 505.577
170 0 49.2275 14.2603 702 98.3105 1170.45 505.473
171 0 51.4583 14.4 741 97.2942 1170.91 504.688
172 0 51.1999 14.336 734 98.4877 1170.09 503.046
173 0 55.4307 14.1077 782 96.6253 1170.57 502.091
174 0 57.2635 14.7913 847 95.3518 1169.84 500.872
175 0 58.4334 14.6834 858 96.3147 1170.71 499.787
176 0 59.4177 15.1975 903 96.5393 1170.36 499.684
177 0 62.3609 14.384 897 97.3188 1170.32 499.085
178 0 65.4773 15.5016 1015 95.8837 1170.61 497.703
179 0 66.203 15.3316 1015 95.7103 1170.8 496.7
180 0 67.228 15.559 1046 96.3738 1170.2 495.057
181 0 70.261 15.8267 1112 93.7905 1170.18 496.125
182 0 73.3472 15.4471 1133 94.4016 1169.67 492.918
183 0 76.278 15.3517 1171 95.398 1169.96 491.909
184 0 78.2939 15.3269 1200 95.235 1169.75 490.864
185 0 82.4608 15.5589 1283 94.6726 1169.88 491.097
186 0 81.327 15.4192 1254 95.996 1169.77 489.949
187 0 86.367 15.9088 1374 94.4119 1169.93 487.686
188 0 87.4765 16.1415 1412 96.2684 1169.38 486.422
189 0 90.4439 16.1316 1459 97.6011 1169.22 484.899
190 0 94.4799 16.5114 1560 96.8865 1169.06 482.474
191 0 96.3614 15.5145 1495 101.787 1168.51 481.449
192 0 99.3263 15.6152 1551 101.224 1168.17 482.569
193 0 103.526 15.6193 1617 101.495 1167.9 480.75
194 0 106.398 15.7616 1677 102.671 1168.1 479.594
195 0 110.302 16.1103 1777 102.984 1167.99 476.761
196 0 114.407 15.8644 1815 104.293 1168.31 474.167
197 0 118.355 16.4421 1946 102.262 1167.53 472.128
198 0 121.328 15.5941 1892 106.032 1167.68 470.601
199 0 126.277 15.6403 1975 105.645 1167.28 469.161
200 0 130.189 15.8539 2064 105.043 1167.74 467.436
201 1 70.1477 13.6569 958 112.214 1167.91 494.855
202 0 73.1664 14.8019 1083 139.864 1167.88 492.721
203 0 76.1501 14.8916 1134 138.483 1168.36 490.323
204 0 79.1083 14.7393 1166 138.705 1167.93 488.684
205 0 82.1634 14.885 1223 136.406 1167.74 487.246
206 0 82.1634 14.8728 1222 174.764 1166.73 487.223
207 0 87.2353 14.9825 1307 135.248 1167 485.962
208 0 88.1144 14.8784 1311 136.037 1166.99 484.346
209 0 92.1386 15.3139 1411 135.05 1167.69 483.121
210 0 95.1829 14.8556 1414 135.7 1167.39 480.071
211 0 98.1549 14.8643 1459 135.321 1167.61 478.742
212 0 104.209 15.0179 1565 132.617 1167.32 476.65
213 1 42.0682 10.2453 431 113.865 1168.85 509.599
214 0 43.0595 9.80039 422 113.344 1169.49 508.204
215 0 45.0427 10.2791 463 110.354 1169.25 508.978
216 0 45.0692 11.0941 500 110.416 1169.22 507.786
217 0 45.1138 8.88864 401 102.613 1167.41 508.89
218 0 45.2069 9.62243 435 101.508 1167.78 507.823
219 0 47.1285 10.2061 481 99.921 1167.19 506.661
220 0 48.1739 9.4657 456 99.9364 1167.48 505.8
221 0 50.2452 9.41384 473 99.9535 1167.31 504.848
222 0 51.1526 9.48143 485 99.8515 1168.02 506.208
223 0 52.2819 9.98434 522 100.159 1167.83 503.761
224 0 56.239 10.0642 566 99.5177 1167.71 502.885
225 0 58.3581 9.57879 559 100.222 1167.15 500.887
226 0 60.1461 10.0755 606 99.1766 1167.25 499.875
227 0 62.1885 9.88929 615 100.216 1167.02 497.985
228 0 62.2375 10.1546 632 100.614 1167.96 497.359
229 0 65.1398 9.85572 642 100.065 1167.22 497.341
230 0 68.2162 9.58716 654 101.159 1167.4 495.446
231 0 69.2111 10.0273 694 100.514 1167.81 495.419
232 0 72.143 9.96632 719 100.7 1167.75 494.261
233 0 73.0896 7.93546 580 103.61 1167.42 494.055
234 0 77.1035 8.74149 674 111.093 1166.49 493.206
235 1 40.0143 9.57158 383 93.1332 1167.17 509.585
236 0 42.0859 10.336 435 90.1609 1166.5 510.041
237 0 44.0729 9.66581 426 91.4836 1166.52 509.19
238 0 45.0902 10.1796 459 90.695 1166.79 508.939
239 0 43.1224 9.46145 408 95.201 1165.97 509.044
240 0 43.1204 9.36911 404 112.738 1165.97 509.168
241 0 44.1149 8.86323 391 94.757 1166.82 508.834
242 0 45.1022 9.26784 418 94.5502 1166.48 507.469
243 0 46.1639 9.40128 434 94.4355 1166.56 507.537
244 0 48.1398 8.68304 418 95.3636 1167.05 506.306
245 0 52.2121 9.55718 499 93.1784 1166.82 505.269
246 0 51.1309 9.28988 475 96.6758 1167.31 502.651
247 0 53.1643 9.34838 497 95.6157 1166.72 503.584
248 1 113.468 10.1703 1154 106.66 1166.71 474.386
249 0 119.581 9.07336 1085 107.953 1166.21 473.103
250 0 119.662 10.5213 1259 104.381 1166.58 470.743
251 1 234.912 12.5835 2956 127.27 1165.65 401.276
252 0 243.841 12.5451 3059 125.368 1165.54 396.36
253 0 253.75 13.0443 3310 123.553 1165.45 393.824
254 0 262.844 12.7186 3343 124.494 1165.2 386.014
255 0 273.656 12.7679 3494 126.099 1165.07 381.723
256 0 282.708 12.7906 3616 124.751 1165.31 373.405
257 0 291.771 12.8011 3735 126.569 1165.57 372.355
258 0 302.799 13.187 3993 123.463 1165.76 367.244
259 0 311.679 13.3567 4163 124.342 1164.89 359.885
260 0 320.988 13.6173 4371 124.089 1165.54 357.414
261 0 328.964 13.0166 4282 127.429 1164.91 349.189
262 0 338.818 14.3322 4856 123.842 1164.92 339.958
263 0 348.111 14.5126 5052 124.143 1164.19 337.775
264 0 358.953 14.7707 5302 124.27 1164.53 331.866
265 0 367.178 14.7231 5406 124.584 1164.45 325.066
266 0 381.155 14.5558 5548 124.696 1164.66 323.826
267 0 387.231 14.0485 5440 128.288 1164.34 317.083
268 0 386.434 4.38109 1693 154.186 1164.24 315.214
269 1 54.168 10.689 579 107.368 1165.74 450.421
270 0 57.1112 9.47275 541 81.8041 1165.25 501.597
271 0 57.1526 9.53588 545 82.844 1166.17 499.694
272 0 59.1235 9.31948 551 84.5535 1165.61 498.365
273 0 63.1014 10.4435 659 82.61 1166.19 499.616
274 0 65.1401 10.6693 695 83.4101 1165.91 497.633
275 0 67.1232 10.6223 713 84.533 1165.73 495.387
276 0 71.1132 11.8122 840 81.881 1166.33 497.689
277 0 71.1089 11.8129 840 133.157 1166.32 497.605
278 0 76.1708 11.5399 879 86.4778 1166.52 493.166
279 0 78.2518 11.2457 880 90.5932 1167.3 490.427
280 0 80.2151 11.4193 916 98.4138 1167.18 490.153
281 0 84.1739 11.5594 973 99.333 1166.59 487.405
282 0 88.2636 11.341 1001 97.6623 1166.61 488.845
283 1 46.0585 10.7472 495 89.1111 1167.12 508.727
284 0 47.0603 10.5609 497 91.9095 1167.28 507.68
285 0 48.1601 10.5274 507 92.8185 1165.51 507.862
286 0 50.2208 10.7326 539 88.6586 1165.91 506.894
287 0 47.3414 10.6672 505 88.6297 1167.43 508.594
288 0 48.3457 10.88 526 89.6578 1168.23 507.53
289 0 50.2949 11.0548 556 90.4371 1168.28 506.784
290 0 52.3354 11.4072 597 89.1742 1168.27 504.067
291 0 53.31 11.0111 587 90.8143 1167.78 504.286
292 0 52.2894 11.6085 607 91.8435 1167.45 503.858
293 0 57.3163 11.7419 673 89.5736 1167.48 504.024
294 0 57.3387 11.5454 662 91.3852 1166.82 502.222
295 0 59.2318 11.5647 685 91.0555 1166.99 502.762
296 0 60.2764 11.5966 699 90.8984 1166.83 500.542
297 0 61.1916 11.0473 676 91.3639 1167.33 499.871
298 0 63.195 11.8838 751 88.8429 1167 500.064
299 0 63.2668 11.491 727 91.1032 1166.88 498.556
300 0 67.2386 12.4333 836 89.0622 1167.11 497.939
301 0 68.1892 11.7027 798 90.8772 1166.98 496.439
302 0 69.3607 11.3897 790 92.2025 1166.26 494.876
303 0 72.2553 11.3348 819 89.2564 1166.48 493.791
304 0 76.2621 11.4605 874 90.6201 1165.97 492.24
305 0 78.2563 11.9863 938 90.9648 1165.65 491.394
306 0 83.2675 12.1056 1008 90.9325 1166.61 490.067
307 0 85.2566 12.2571 1045 92.7397 1166.02 489.116
308 0 88.232 12.0478 1063 95.2041 1166.13 487.134
309 0 90.3223 12.3447 1115 99.4386 1166.32 485.546
310 0 91.2165 12.2237 1115 94.7327 1165.92 484.329
311 1 50.1957 11.1364 559 98.7907 1167.1 504.816
312 0 50.1933 11.1369 559 97.9785 1166.95 501.916
313 0 50.092 11.1395 558 95.6093 1165.73 502.238
314 0 52.1413 10.3757 541 84.5305 1165.52 508.741
315 0 53.176 11.0576 588 84.1939 1166 506.77
316 0 55.0804 11.4015 628 82.7341 1166.37 507.303
317 0 55.0804 11.3834 627 136.75 1166.37 507.182
318 0 59.1908 11.6234 688 83.5581 1165.8 505.177
319 0 59.114 11.7231 693 85.1255 1165.63 505.387
320 0 61.2178 11.4346 700 84.9957 1165.68 505.241
321 0 63.1797 11.491 726 84.8402 1165.37 504.047
322 0 67.1621 11.8073 793 85.4275 1165.08 501.19
323 0 70.2432 12.3998 871 84.8932 1164.87 501.158
324 0 70.1214 11.7653 825 87.4376 1165.48 500.389
325 0 74.1577 12.5813 933 86.8349 1164.69 498.954
326 0 77.1895 12.6053 973 87.0062 1164.84 498.448
327 0 78.2198 12.9379 1012 88.5336 1164.96 495.848
328 1 42.0344 10.6104 446 90.6076 1165.8 515.504
329 0 45.0928 10.9552 494 91.2287 1165.81 514.686
330 0 44.1131 11.1985 494 89.8765 1165.59 514.911
331 0 45.2354 11.6944 529 91.5822 1166.01 512.446
332 0 49.0288 12.1561 596 91.5487 1162.4 511.779
333 0 48.0292 12.659 608 90.0888 1163.47 511.549
334 0 51.1534 13.1369 672 85.128 1163.8 511.201
335 0 52.2043 12.7576 666 85.9715 1164.36 511.213
336 0 53.3689 11.636 621 89.8551 1165.07 508.77
337 0 54.0772 12.4452 673 88.4814 1162.7 508.296
338 0 56.1853 12.4232 698 85.1977 1163.54 508.019
339 0 55.2294 12.9822 717 85.7266 1163.33 507.227
340 0 57.2477 12.3673 708 84.6511 1164.33 505.288
341 0 60.351 12.2782 741 83.7814 1164.97 504.466
342 0 63.363 12.4521 789 81.9354 1164.31 504.349
343 0 65.3339 12.2907 803 81.8854 1164.37 503.085
344 0 68.3488 12.9483 885 80.2757 1163.6 501.607
345 0 69.221 12.1206 839 80.8141 1163.3 502.911
346 0 72.3318 11.9035 861 81.7689 1164 499.707
347 0 76.2894 11.8365 903 82.2514 1163.2 498.298
348 0 76.1417 11.6887 890 86.2888 1162.59 498.822
349 0 77.1596 11.4308 882 88.2449 1162.74 497.738
350 1 42.021 10.233 430 88.5744 1164.08 514.723
351 0 42.1478 10.7479 453 88.4724 1164.76 514.009
352 0 45.2074 10.8611 491 86.9878 1164.87 512.367
353 0 44.168 11.2978 499 87.4629 1165.19 511.347
354 0 46.0235 10.9944 506 91.8972 1165.68 511.658
355 0 47.0665 11.4731 540 90.4463 1165.44 510.731
356 0 50.0168 11.5961 580 89.3483 1164.82 510.336
357 0 46.3297 10.2742 476 83.9286 1163.99 512.58
358 0 47.2795 10.9138 516 83.5775 1164.1 508.853
359 0 50.27 10.6624 536 81.9459 1163.95 508.629
360 0 51.156 10.771 551 81.4864 1162.18 508.853
361 0 52.097 10.7108 558 81.2384 1162.34 507.192
362 0 53.2265 11.1411 593 79.1501 1162.57 506.546
363 0 54.1482 10.2496 555 78.773 1162.76 507.591
364 0 56.1391 10.9193 613 77.677 1163.03 506.856
365 0 57.1834 11.3145 647 75.9768 1162.72 505.122
366 0 61.2938 11.6814 716 74.7779 1163.42 505.45
367 0 61.194 11.8802 727 75.1376 1163.81 504.638
368 0 64.1724 11.921 765 75.0039 1163.25 501.578
369 0 66.1637 11.8947 787 75.432 1163.36 503.727
370 0 68.2927 11.3189 773 76.8499 1163.43 499.423
371 0 70.4214 11.4738 808 77.4282 1163.56 497.665
372 0 72.2603 11.0573 799 79.6896 1163.32 496.909
373 0 76.2204 11.4667 874 78.7998 1163.73 496.362
374 0 80.205 11.9195 956 78.7845 1163.19 494.402
375 0 81.1324 11.9927 973 80.2261 1163.02 491.624
376 0 84.196 11.4851 967 80.8314 1163.06 490.85
377 0 86.1578 11.3281 976 81.2039 1163.65 491.494
378 1 48.1309 11.3233 545 82.0587 1164.36 509.064
379 0 49.2135 11.379 560 80.6821 1164.71 506.818
380 0 50.1151 12.2318 613 80.1533 1164.65 506.684
381 0 54.0899 11.9616 647 79.6012 1163.32 505.706
382 0 49.2699 10.2903 507 83.0769 1165.19 506.856
383 0 51.1252 12.4596 637 80.6452 1164.84 505.838
384 0 52.2866 11.2266 587 82.6286 1165.69 506.09
385 0 53.2061 11.2205 597 82.2529 1165.26 505.752
386 0 55.2345 12.1482 671 80.93 1165.5 503.754
387 0 58.1931 12.4242 723 80.314 1165.09 502.136
388 0 60.1518 11.6705 702 82.5969 1165.41 501.481
389 0 62.1896 12.494 777 82.5187 1164.78 499.058
390 0 63.1858 12.6611 800 82.05 1164.97 497.958
391 0 65.1591 12.2776 800 82.7175 1164.51 495.971
392 0 66.0775 12.0011 793 83.9697 1164.88 494.82
393 0 70.2596 12.098 850 80.5824 1165.01 494.034
394 0 74.1935 12.7774 948 79.5454 1164.59 492.301
395 0 76.1772 13.1798 1004 79.742 1164.88 491.48
396 0 79.2353 12.4944 990 82.5212 1165.46 490.146
397 0 81.2183 13.1128 1065 83.3127 1165.59 488.266
398 0 84.2256 13.3807 1127 85.3744 1165.97 488.232
399 0 86.2411 13.2535 1143 85.8871 1165.17 486.609
400 1 44.041 10.581 466 84.9721 1166.07 508.719
401 0 46.0162 10.6267 489 81.0532 1166.12 506.757
402 0 47.072 11.6205 547 77.7916 1166.58 505.4
403 0 47.0708 11.3446 534 77.0899 1165.83 505.423
404 0 47.1396 11.7311 553 79.0163 1166.41 506.179
405 0 49.1058 11.7909 579 77.7979 1166.43 506.846
406 0 51.3237 11.9438 613 78.6623 1167.03 505.468
407 0 50.3357 11.9001 599 79.5175 1166.77 505.078
408 0 50.3595 12.0335 606 124.845 1166.79 504.955
409 0 56.239 11.7534 661 78.1452 1166.29 502.587
410 0 59.1971 12.0614 714 76.1737 1165.86 502
411 0 57.1045 12.3633 706 77.0255 1166.41 500.921
412 0 62.1244 13.0384 810 74.2531 1165.72 499.035
413 0 63.1179 12.3261 778 75.865 1164.87 497.504
414 0 66.1524 13.4689 891 73.4882 1165.57 498.073
415 0 68.2076 12.7845 872 77.2007 1165.44 495.892
416 0 71.192 13.288 946 77.5867 1165.81 495.522
417 0 72.1737 13.038 941 81.4293 1165.69 491.684
418 0 75.1774 12.8762 968 83.5651 1165.12 490.902
419 0 77.1002 13.2814 1024 84.0576 1164.73 489.888
420 0 79.0219 12.8825 1018 86.8202 1164.01 487.656
421 0 81.117 12.858 1043 85.6836 1165 486.461
422 0 84.2054 12.7427 1073 85.4995 1165.17 485.73
423 0 87.2044 12.9237 1127 84.2449 1164.37 484.35
424 1 43.197 9.25991 400 87.2925 1167.03 505.52
425 0 46.1707 10.8944 503 85.7256 1166.76 504.94
426 0 45.0884 11.1115 501 83.004 1165.57 504.255
427 0 49.0407 10.8685 533 85.0338 1165.66 504.283
428 0 52.0272 11.4171 594 83.4444 1166.11 503.024
429 0 53.0708 10.9665 582 83.7337 1165.79 502.058
430 0 51.1461 11.3401 580 84.9224 1165.66 501.255
431 0 56.1676 11.6615 655 82.3847 1166.43 500.127
432 0 57.0911 12.0684 689 80.5065 1165.57 500.061
433 0 56.1173 11.8324 664 83.1114 1165.84 499.572
434 0 61.1115 11.1436 681 84.0514 1165.19 495.791
435 0 64.1592 11.7988 757 82.3461 1165.09 495.913
436 0 66.2344 12.4709 826 80.9334 1164.88 496.931
437 0 69.184 11.361 786 82.3219 1165.59 494.935
438 0 69.2009 11.9652 828 82.32 1165.1 493.396
439 0 72.2712 11.9826 866 81.5727 1165.34 492.012
440 0 72.202 11.8695 857 81.5356 1165.35 491.072
441 0 77.1396 11.6672 900 81.8944 1165.04 489.748
442 0 80.1049 12.7458 1021 78.7786 1165.32 489.428
443 0 84.0343 12.3759 1040 78.3058 1164.5 488.719
444 0 88.0922 12.5891 1109 78.1921 1165.2 487.542
445 0 90.1206 12.9271 1165 77.6532 1164.38 486.271
446 0 93.1529 11.9266 1111 80.6967 1164.75 482.968
447 1 49.0133 10.6502 522 76.6054 1165.07 506.105
448 0 50.1497 11.3261 568 70.5863 1165.42 506.879
449 0 51.2869 11.9134 611 66.2079 1164.66 506.552
450 0 51.3084 11.4406 587 67.7308 1164.96 507.273
451 0 53.1599 11.7006 622 70.0338 1164.43 505.63
452 0 54.2487 11.0786 601 71.0499 1164.3 504.697
453 0 56.124 11.2608 632 69.0902 1164.41 502.956
454 0 57.2832 11.3646 651 69.1459 1164.51 501.588
455 0 59.1352 11.144 659 70.2777 1164.79 501.03
456 0 61.1975 11.4874 703 70.9346 1164.61 499.895
457 0 62.2442 11.728 730 71.8849 1165.14 499.626
458 0 63.1915 11.0458 698 75.2278 1165.33 499.895
459 0 67.1915 11.6979 786 74.8969 1165.58 497.567
460 0 69.2772 11.5911 803 76.061 1165.41 494.847
461 0 71.1822 11.3371 807 77.4746 1165.02 494.695
462 0 72.1328 11.3679 820 79.5061 1165.33 493.687
463 0 75.1455 12.2163 918 78.7015 1164.18 491.876
464 0 75.1455 12.1365 912 129.487 1164.18 491.85
465 0 78.1903 11.8941 930 79.5978 1163.72 490.773
466 0 83.1924 12.1526 1011 78.3838 1164.48 489.75
467 0 84.14 12.2296 1029 79.105 1164.18 488.099
468 0 87.1416 12.6117 1099 78.0473 1164.6 485.347
469 0 88.1698 11.682 1030 80.8 1164.18 484.278
470 0 91.1929 12.7422 1162 80.1162 1163.77 482.744
471 0 93.1965 12.1893 1136 81.7667 1164 482.756
472 0 95.1791 11.9669 1139 83.2608 1163.64 480.299
473 0 101.235 12.6241 1278 81.9648 1163.8 477.339
474 0 101.281 12.0457 1220 84.8402 1163.5 475.619
475 0 106.272 12.8915 1370 82.8861 1163.51 473.278
476 0 108.355 12.5513 1360 83.2757 1163.79 471.643
477 0 113.349 12.9953 1473 82.0835 1163.5 470.823
478 0 114.301 12.3621 1413 83.8266 1163.63 468.867
479 0 120.329 13.4132 1614 79.8786 1163.34 467.445
480 0 121.294 12.2677 1488 81.2789 1163.07 464.429
481 0 124.454 12.7035 1581 80.6433 1162.66 459.466
482 0 126.283 12.7175 1606 80.4346 1162.87 454.494
483 0 131.295 12.7652 1676 81.2399 1163.13 452.079
484 0 131.295 12.7804 1678 132.836 1163.13 452.136
485 0 141.253 12.9201 1825 84.8071 1162.86 446.132
486 0 144.276 13.3217 1922 84.884 1162.72 445.198
487 0 154.369 13.5714 2095 82.9518 1163.2 444.572
488 0 154.377 13.1626 2032 84.9897 1162.47 438.822
489 0 161.301 13.2361 2135 84.7054 1162.27 437.481
490 0 165.209 13.8794 2293 82.9137 1162.61 435.019
491 0 168.219 13.3873 2252 84.3588 1163 431.972
492 0 174.167 13.4641 2345 84.3565 1162.65 430.63
493 0 177.265 13.714 2431 86.3505 1161.45 425.938
494 0 184.315 13.9652 2574 85.8434 1162.27 426.643
495 0 190.333 13.5079 2571 89.5161 1162.27 420.785
496 0 196.327 13.6354 2677 89.17 1162.71 418.097
497 0 202.3 14.2907 2891 88.1857 1162.32 417.657
498 0 209.322 14.2842 2990 87.9502 1162.59 415.241
499 0 217.329 13.7809 2995 89.1766 1162.18 410.514
500 1 39.0563 7.50198 293 65.744 1165 504.386
501 0 44.03 10.1749 448 66.5848 1165.58 508.6
502 0 40.2036 8.80518 354 65.2797 1163.85 511.475
503 0 42.3043 8.86434 375 65.712 1163.76 510.379
504 0 46.26 9.66277 447 62.8345 1163.96 509.738
505 0 47.1641 9.1595 432 63.3287 1163.37 511.067
506 0 47.1725 8.96709 423 64.1773 1163.82 508.931
507 0 48.1959 9.62737 464 63.9224 1163.75 508.011
508 0 51.2122 10.5248 539 62.3989 1164.28 507.991
509 0 52.1808 10.8277 565 62.2053 1163.4 505.766
510 0 55.2387 9.37749 518 64.3224 1163.21 505.347
511 0 58.1355 10.4927 610 64.4213 1162.59 503.695
512 0 59.1795 11.2201 664 64.0467 1163.83 503.148
513 0 60.2294 10.377 625 65.5632 1163.78 502.504
514 0 61.2376 10.892 667 65.5337 1164.12 503.033
515 0 62.2478 10.0405 625 66.5408 1164.06 502.773
516 0 64.2617 10.8774 699 65.6137 1163.43 500.16
517 0 67.3066 11.3659 765 64.5895 1163.28 498.865
518 0 66.2452 10.3404 685 69.2248 1163.58 500.291
519 0 71.2955 10.758 767 68.2608 1163.39 498.927
520 0 71.2091 10.083 718 68.5237 1162.99 498.49
521 0 75.2899 10.8248 815 67.054 1163.15 496.46
522 0 77.2039 9.84406 760 67.9276 1162.81 497.034
523 0 79.2351 10.4878 831 68.4477 1162.7 495.852
524 1 45.1209 10.1283 457 69.6958 1163.32 512.365
525 0 44.1373 10.1955 450 71.06 1163.45 511.107
526 0 45.2921 10.4875 475 71.28 1162.91 510.337
527 0 48.2108 11.346 547 70.1133 1163.27 510.559
528 0 45.3049 10.7052 485 68.8247 1162.36 509.734
529 0 47.1059 11.3786 536 69.181 1161.47 510.843
530 0 49.0894 10.0836 495 71.5172 1161.76 510.752
531 0 49.0665 10.4144 511 72.9139 1161.68 510.166
532 0 50.0962 11.2783 565 73.2319 1162.02 510.379
533 0 54.1089 10.4604 566 74.9311 1161.32 507.488
534 0 54.0314 10.3088 557 77.6284 1160.56 506.889
535 0 58.0525 12.3509 717 73.8285 1160.14 507.225
536 0 58.0386 12.0954 702 75.6966 1161.38 507.788
537 0 59.0504 12.5825 743 75.8358 1161.55 506.295
538 0 62.0983 12.8506 798 75.9474 1161.03 503.992
539 0 63.0621 12.7969 807 76.3061 1161.12 503.962
540 0 68.0797 13.2051 899 76.1168 1161.56 505.078
541 0 69.0386 13.4852 931 76.9828 1161.87 502.696
542 0 70.0625 13.0883 917 80.5234 1161.58 500.925
543 0 72.0587 12.9061 930 82.7892 1161.98 501.533
544 0 77.0813 13.4274 1035 80.8213 1161.16 499.974
545 0 79.0939 14.211 1124 80.4635 1161.37 497.939
546 0 79.0665 12.7614 1009 84.0396 1161.43 497.03
547 0 83.0754 13.229 1099 81.6597 1160.97 497.197
548 0 82.0937 12.5832 1033 84.8616 1160.93 495.356
549 1 43.0528 10.731 462 81.961 1161.55 516.636
550 0 43.1069 10.4856 452 84.6969 1162.06 513.929
551 0 45.089 11.4662 517 82.5938 1161.27 514.006
552 0 48.0737 12.2728 590 78.7 1160.76 513.551
553 0 47.0118 12.3373 580 87.7621 1164.34 511.6
554 0 50.0384 12.1507 608 83.3141 1164.82 512.559
555 0 51.0364 12.5009 638 83.5549 1164.42 511.803
556 0 52.0403 11.9523 622 85.4518 1164.72 510.143
557 0 53.0397 12.4624 661 84.1104 1164.45 510.404
558 0 55.0192 12.4502 685 83.6788 1163.64 510.404
559 0 52.3214 11.0662 579 76.323 1162.59 510.415
560 0 54.3153 11.4332 621 75.1948 1162.16 508.597
561 0 57.2213 11.7089 670 72.7403 1162.07 508.294
562 0 57.2186 11.0803 634 74.6609 1162.19 508.046
563 0 60.2737 11.8128 712 73.5478 1162.05 507.379
564 0 62.1661 11.6301 723 74.0152 1162.3 507.69
565 0 64.317 11.8009 759 73.4967 1162.51 507.848
566 0 67.372 12.3642 833 73.916 1163.22 504.884
567 0 67.2238 11.9898 806 77.0087 1162.75 502.378
568 0 72.3439 12.6894 918 76.183 1162.39 501.371
569 0 74.3071 11.8966 884 80.5486 1162.85 499.819
570 0 75.2711 12.6343 951 79.5668 1162.48 498.531
571 0 79.3244 12.2283 970 80.2351 1163.1 496.51
572 0 82.2664 11.7059 963 80.6459 1162.73 498.133
573 0 83.269 11.7691 980 81.6878 1162.05 496.642
574 0 85.2078 11.9238 1016 83.2136 1161.52 493.981
575 1 43.0699 10.9125 470 83.7213 1162.9 514.606
576 0 46.0348 11.4913 529 78.3119 1163.69 514.017
577 0 47.0459 11.6269 547 76.0457 1160.99 513.121
578 0 45.1259 10.8807 491 82.5703 1162.65 513.308
579 0 46.1402 10.4681 483 83.677 1162.29 515.201
580 0 47.0826 10.386 489 85.2229 1161.7 513.812
581 0 49.0923 11.0201 541 83.854 1161.51 514.287
582 0 51.1476 11.3397 580 82.4293 1161.77 513.64
583 0 51.0886 11.0788 566 82.6201 1161.17 512.705
584 0 55.1457 11.0797 611 81.7578 1161.37 511.524
585 0 55.1007 11.3066 623 82.2873 1161.09 510.424
586 0 57.0745 10.8279 618 82.3835 1160.83 511.037
587 0 58.1116 11.2026 651 82.8034 1160.43 508.928
588 0 60.1255 10.844 652 84.9663 1160.41 508.899
589 0 62.0699 10.8104 671 84.4784 1160.68 506.541
590 0 64.0795 11.5013 737 81.1506 1159.91 505.76
591 0 66.2779 11.5725 767 83.2999 1162.72 505.04
592 0 66.2526 11.1996 742 83.7251 1162.43 504.755
593 0 71.2537 11.6906 833 83.3601 1162.66 504.25
594 0 72.1086 11.663 841 85.1546 1161.69 502.929
595 0 76.096 11.7746 896 86.3884 1160.89 501.6
596 0 79.2418 11.9255 945 84.9566 1161.46 500.387
597 1 41.1007 10.6324 437 87.2952 1162.88 517.517
598 0 41.099 10.5599 434 149.751 1162.86 517.606
599 0 46.2076 11.7297 542 89.3432 1162.68 514.616
600 0 44.2719 10.9776 486 78.2922 1162.3 517.064
601 0 43.1455 10.0822 435 79.9977 1161.75 518.317
602 0 45.1592 10.2748 464 80.6789 1161.25 515.718
603 0 46.2291 11.3565 525 77.7181 1161.87 512.792
604 0 49.3401 10.8634 536 78.1511 1162.04 513.675
605 0 50.315 11.1696 562 78.8114 1162.01 513.214
606 0 51.3292 11.2801 579 78.7789 1162.24 511.708
607 0 53.2868 11.4287 609 77.8703 1162 512.174
608 0 54.3683 11.3485 617 79.8817 1161.9 509.397
609 0 56.3098 11.561 651 79.0184 1162.8 509.327
610 0 58.2881 11.8892 693 79.3709 1162.47 508.095
611 0 59.3441 11.4923 682 78.9795 1162.22 507.962
612 0 62.2692 11.4985 716 77.8575 1161.95 508.101
613 0 65.2011 11.5642 754 77.2294 1161.26 506.959
614 0 66.3805 11.5697 768 78.7747 1161.49 505.966
615 0 68.3035 11.4928 785 78.6089 1161.91 504.206
616 0 71.2029 11.5445 822 78.6837 1161.75 502.14
617 0 73.3086 11.9358 875 79.0103 1161.94 501.77
618 0 74.1961 11.5909 860 80.6419 1161.35 499.699
619 0 80.2163 12.1796 977 78.6776 1160.76 498.553
620 1 42.0824 11.3587 478 80.7197 1163.05 514.402
621 0 43.0863 11.2565 485 80.5691 1163.49 515.002
622 0 45.1046 11.4401 516 78.3934 1163.22 514.814
623 0 48.0661 12.1707 585 85.2974 1163.35 512.289
624 0 50.0186 12.2554 613 84.0653 1163.36 511.742
625 0 50.0171 12.3358 617 85.3485 1162.81 510.164
626 0 51.0298 12.3261 629 85.663 1163.63 509.189
627 0 51.0298 12.4045 633 160.679 1164.62 509.169
628 0 55.0626 12.622 695 84.0489 1163.93 508.658
629 0 55.0323 12.4291 684 84.7105 1163.95 507.265
630 0 54.2254 11.821 641 76.4992 1163.43 507.466
631 0 54.22 11.5087 624 77.2548 1162.85 508.458
632 0 56.2031 11.4407 643 77.2551 1163.43 508.376
633 0 58.2406 11.8989 693 79.2496 1163.24 507.661
634 0 59.2538 11.763 697 82.7231 1163.67 505.591
635 0 62.3686 12.1054 755 82.3788 1163.64 504.523
636 0 62.23 11.5378 718 82.1936 1163.4 505.038
637 0 64.1898 11.2479 722 82.3573 1162.95 503.619
638 0 68.2915 11.9781 818 79.6577 1162.44 502.781
639 0 70.1254 11.95 838 82.0537 1162.96 500.414
640 0 73.2474 12.2735 899 85.218 1162.5 499.907
641 0 74.2049 12.0882 897 87.262 1162.6 499.304
642 0 78.2841 12.0075 940 88.0106 1162.69 497.355
643 0 80.2645 12.2345 982 88.9287 1162.71 495.768
644 0 81.2636 11.998 975 90.4821 1162.68 493.065
645 0 86.2344 11.7239 1011 90.6578 1163.27 492.147
646 0 88.2816 11.6106 1025 91.922 1163.28 489.976
647 0 91.213 12.6298 1152 90.7248 1162.69 487.497
648 0 96.2114 12.3894 1192 91.3624 1163.18 485.69
649 1 52.1167 10.5724 551 93.6751 1164.08 506.684
650 0 51.0311 11.0913 566 91.1502 1163.61 506.705
651 0 53.0344 11.7094 621 88.3333 1163.99 503.902
652 0 52.2407 11.1599 583 87.5111 1163.72 507.172
653 0 53.2556 11.135 593 86.8988 1163.33 506.573
654 0 56.2227 11.1876 629 87.4515 1163.89 505.607
655 0 54.3223 11.2293 610 90.118 1163.82 505.472
656 0 57.2751 11.2789 646 90.209 1163.98 504.664
657 0 58.2139 11.097 646 90.6068 1163.67 503.443
658 0 62.1804 11.9813 745 89.2752 1163.95 501.965
659 0 62.229 11.9076 741 89.6721 1163.97 502.31
660 0 65.2999 11.9449 780 89.5474 1164.11 500.378
661 0 67.2661 11.6998 787 91.3672 1164.08 498.513
662 0 68.3171 11.5344 788 92.6193 1164.44 498.843
663 0 74.3941 12.501 930 89.6129 1163.63 495.337
664 0 74.3659 11.8468 881 92.6833 1163.74 494.764
665 0 79.3883 12.886 1023 90.4594 1163.34 492.63
666 0 81.4544 13.0625 1064 90.7378 1163.41 492.472
667 0 81.2885 12.3265 1002 92.8124 1163.59 490.391
668 0 85.2993 12.6965 1083 92.2031 1163.79 488.787
669 0 88.3931 13.0327 1152 91.8498 1163.37 486.802
670 0 93.4312 13.1434 1228 89.8233 1163.37 486.812
671 1 49.1608 10.7606 529 93.5312 1164.65 507.327
672 0 50.2157 11.6298 584 93.0908 1164.61 506.247
673 0 50.1384 11.3087 567 93.1287 1165.05 502.169
674 0 54.1441 11.5987 628 90.6736 1164.35 505.17
675 0 53.4523 11.7488 628 87.9061 1164.87 505.172
676 0 56.2899 12.6133 710 85.9028 1164.76 505.307
677 0 57.3349 13.0462 748 85.3302 1164.68 503.047
678 0 58.3626 13.1077 765 84.9569 1164.35 502.391
679 0 59.4082 13.1968 784 84.9247 1164.65 501.412
680 0 61.5015 12.6013 775 84.8026 1164.17 500.957
681 0 62.1821 12.2704 763 86.1638 1164.35 500.321
682 0 64.4898 13.0563 842 82.8432 1164.3 498.942
683 0 66.365 12.9888 862 83.2042 1163.65 498.436
684 0 69.2013 13.0344 902 82.7672 1163.92 498.784
685 0 70.2676 13.4486 945 81.7312 1164.86 496.93
686 0 73.3906 13.7892 1012 81.0277 1164.48 497.175
687 0 75.3219 13.0772 985 83.9614 1165.13 494.629
688 0 77.2671 12.9809 1003 89.9192 1164.67 494.642
689 0 79.3378 12.0876 959 92.5412 1165.19 492.66
690 0 81.2953 12.5592 1021 91.3252 1165.18 493.1
691 0 85.3233 12.646 1079 90.9759 1165.53 491.058
692 0 88.28 12.9928 1147 89.626 1165.49 490.651
693 0 90.3292 12.388 1119 91.8883 1164.63 489.856
694 0 94.257 12.7418 1201 89.5845 1164.5 487.95
695 0 97.261 12.5333 1219 87.3281 1164.31 484.852
696 0 98.1675 12.2953 1207 87.3505 1164.63 483.354
697 0 100.202 12.1256 1215 84.7086 1162.47 479.393
698 1 48.0662 8.69634 418 73.8086 1161.94 506.88
699 0 49.0859 9.88064 485 74.7691 1162.57 507.095
700 0 56.2068 12.0448 677 74.0679 1164.19 507.479
701 0 57.2061 12.3239 705 78.4794 1164.77 507.891
702 0 57.246 12.3677 708 78.3672 1164.32 507.398
703 0 60.2824 11.7779 710 78.3099 1164.71 505.658
704 0 60.1328 12.1065 728 76.2486 1163.96 505.874
705 0 63.3113 12.7307 806 76.5074 1163.9 503.614
706 0 64.2575 12.0142 772 77.6075 1164.1 504.137
707 0 66.2363 12.8178 849 77.3098 1163.91 501.534
708 0 66.3185 12.1686 807 83.3284 1163.52 503.492
709 0 69.2276 12.5384 868 80.8871 1162.53 502.418
710 0 71.3116 11.4427 816 83.4105 1163.29 500.831
711 0 72.3078 11.8798 859 82.9371 1163.02 499.357
712 0 76.2355 12.2384 933 81.6785 1162.41 497.628
713 0 79.1519 12.078 956 83.4268 1161.23 497.692
714 0 79.1318 12.0053 950 84.5558 1161.38 495.118
715 0 82.2578 11.7071 963 85.8453 1162.42 493.929
716 0 86.3171 11.9559 1032 83.4651 1162.46 493.921
717 0 89.3147 12.5847 1124 84.3238 1161.77 491.974
718 1 45.1332 10.2807 464 86.7026 1162.47 513.334
719 0 49.1205 11.0341 542 83.4133 1162.93 513.312
720 0 49.1288 10.9915 540 86.3093 1162.58 510.95
721 0 51.0614 11.1043 567 81.2063 1164.01 511.483
722 0 47.1356 10.2258 482 82.2386 1163.17 516.29
723 0 49.185 9.96239 490 83.9959 1162.64 515.739
724 0 53.1869 10.5477 561 83.5241 1162.21 512.988
725 0 53.1865 10.2658 546 85.4927 1162.75 514.062
726 0 56.1991 10.9966 618 84.3689 1162.8 513.4
727 0 55.1836 10.6735 589 86.5331 1162.74 512.229
728 0 58.2353 11.3677 662 84.855 1162.79 510.424
729 0 59.1933 10.8289 641 87.9516 1162.7 509.872
730 0 61.2636 11.1975 686 88.6108 1163.07 508.789
731 0 66.2496 11.4567 759 87.4032 1163.17 507.564
732 0 65.2098 10.8573 708 89.8785 1163.05 507.516
733 0 68.2925 11.0993 758 88.0673 1163.01 506.885
734 0 71.2675 10.7342 765 84.9425 1161.88 503.614
735 0 74.1633 11.0297 818 85.6687 1161.81 500.672
736 0 76.2565 10.7663 821 86.9001 1162.41 498.976
737 0 80.2246 11.6548 935 84.6759 1162.32 498.426
738 1 40.0545 10.5107 421 85.3515 1164.54 517.109
739 0 43.1548 10.6361 459 84.6057 1164.8 516.551
740 0 44.1806 11.4303 505 83.802 1163.89 515.893
741 0 47.2447 11.451 541 84.9778 1163.54 514.092
742 0 47.2382 11.7278 554 83.9314 1163.95 513.303
743 0 48.17 11.9992 578 82.2007 1164.29 512.806
744 0 48.5072 11.3385 550 82.7127 1163.78 513.313
745 0 50.3826 12.5639 633 81.643 1163.4 510.9
746 0 51.3696 12.4198 638 83.3229 1164.08 510.964
747 0 53.3993 11.9477 638 84.1614 1163.55 510.862
748 0 53.3567 12.4633 665 83.8857 1164.69 510.335
749 0 56.2885 11.6542 656 84.8186 1164.28 509.377
750 0 58.3353 12.4624 727 83.6946 1163.57 507.648
751 0 54.2124 11.0122 597 90.0335 1164.15 510.196
752 0 57.3694 11.7833 676 88.2618 1163.99 507.707
753 0 60.3657 11.4635 692 89.2428 1163.98 506.114
754 0 61.3112 11.5476 708 90.8107 1164.13 505.743
755 0 63.2354 11.8604 750 90.6067 1164.16 505.221
756 0 64.2668 11.4056 733 91.7231 1164.31 504.061
757 0 66.202 11.5706 766 93.6162 1163.96 504.114
758 0 68.2236 11.7994 805 94.2658 1164.25 503.36
759 0 70.2709 11.5695 813 95.2226 1163.95 503.039
760 0 73.2261 12.1814 892 89.2702 1164 500.752
761 0 75.1607 12.1606 914 94.9519 1163.2 500.967
762 0 77.2409 12.2862 949 96.0084 1163.16 498.92
763 0 80.2037 12.3934 994 95.8763 1162.77 497.608
764 0 81.2865 12.2653 997 95.9188 1163.29 495.677
765 0 83.2608 11.7342 977 98.1689 1163.19 495.269
766 0 86.2697 11.5568 997 98.1805 1164.01 496.654
767 0 88.2383 12.2283 1079 99.2391 1164.68 493.793
768 0 89.2368 11.8673 1059 100.712 1164.75 492.699
769 1 50.0626 11.7852 590 99.5203 1164.65 509.261
770 0 53.0122 11.7331 622 100.963 1161.94 507.641
771 0 54.0123 12.6823 685 96.2482 1163.1 508.077
772 0 54.0532 12.9132 698 96.1576 1162.92 506.574
773 0 55.0353 12.8827 709 92.7052 1162.41 506.293
774 0 58.1145 12.8195 745 93.0604 1162.51 504.928
775 0 59.0883 12.6082 745 94.5799 1162.38 506.71
776 0 61.082 13.1299 802 93.1858 1162.9 504.372
777 0 62.0397 12.8466 797 93.9937 1161.96 503.857
778 0 64.0353 13.5394 867 93.1742 1162.65 502.543
779 0 67.0338 13.1277 880 94.1716 1162.18 501.811
780 0 67.0648 13.3453 895 95.9229 1161.99 500.569
781 0 70.03 13.6656 957 95.1975 1161.88 499.459
782 0 73.1501 13.3561 977 95.5374 1162.18 497.994
783 0 74.1568 13.2422 982 96.835 1162.86 495.839
784 0 78.135 13.5023 1055 96.7507 1162.45 496.594
785 0 81.0545 13.9536 1131 98.7356 1162.15 495.157
786 0 81.0704 13.4698 1092 102.329 1162.52 493.716
787 0 84.1069 12.4247 1045 102.663 1162.68 490.868
788 0 86.0182 12.0905 1040 105.533 1162.33 487.2
789 0 86.0982 11.8237 1018 111.184 1163.7 486.204
790 0 90.1865 12.0639 1088 110.251 1163.64 485.485
791 0 92.152 12.1321 1118 112.326 1163.5 485.304
792 0 94.2374 12.511 1179 115.73 1163.91 483.66
793 0 100.167 13.2578 1328 118.74 1164.61 485.839
794 0 102.285 13.2668 1357 119.332 1164.79 484.354
795 1 54.1611 11.1888 606 118.045 1165.38 507.5
796 0 53.1919 11.2987 601 109.316 1164.87 507.684
797 0 56.138 11.9171 669 107.859 1165.45 505.822
798 0 55.0447 11.1364 613 95.5351 1163.71 504.184
799 0 57.0731 10.9859 627 96.4354 1163.51 502.163
800 0 58.0497 11.5074 668 94.9716 1163.59 501.6
801 0 62.0523 11.4742 712 94.6882 1163.69 500.591
802 0 63.0459 11.5947 731 95.3912 1163.25 499.599
803 0 64.0406 11.3834 729 97.0343 1162.43 498.025
804 0 66.058 11.6261 768 98.1562 1163.03 496.596
805 0 68.0319 11.9209 811 96.2602 1162.8 497.194
806 0 71.0345 11.8675 843 97.0676 1162.72 495.83
807 0 73.0764 11.4811 839 98.2729 1162.91 495.688
808 0 76.0484 11.8346 900 97.46 1161.88 494.394
809 0 80.1628 11.7885 945 96.455 1162.81 493.796
810 0 81.0907 11.2713 914 99.1575 1162.69 491.219
811 0 83.069 11.5567 960 103.631 1162.14 493.829
812 1 43.1027 9.11775 393 95.313 1162.2 513.29
813 0 43.086 9.30696 401 96.5611 1162.29 512.783
814 0 46.0523 11.4435 527 115.258 1162.14 513.71
815 0 49.0575 12.0879 593 110.759 1162.68 512.216
816 0 45.1583 10.895 492 107.504 1163.18 507.852
817 0 46.1158 9.54121 440 98.8205 1161.74 509.536
818 0 46.1158 9.64963 445 110.434 1161.73 509.661
819 0 47.0921 10.1716 479 99.1482 1161.88 510.445
820 0 52.2476 11.1584 583 102.072 1163.16 513.894
821 0 54.1792 11.3512 615 102.603 1162.86 511.22
822 0 56.413 10.9726 619 102.535 1162.35 510.771
823 0 57.2427 10.9883 629 103.696 1162.61 510.564
824 0 58.1965 12.0282 700 101.547 1162.61 509.297
825 0 59.1963 10.4398 618 104.235 1162.52 510.377
826 0 63.1822 11.633 735 100.18 1162.63 509.351
827 0 65.1521 11.6804 761 100.368 1162.35 507.817
828 0 67.147 11.6312 781 101.434 1162.4 506.132
829 0 68.1746 12.556 856 106.029 1162.67 504.36
830 0 71.1957 12.866 916 105.735 1162.81 503.028
831 0 75.1866 12.1963 917 106.402 1162.76 500.843
832 0 76.2423 12.2111 931 105.588 1162.44 500.731
833 0 81.1855 13.9311 1131 101.688 1162.35 501.213
834 0 82.1958 13.48 1108 108.22 1162.34 498.713
835 0 85.2094 13.2497 1129 108.338 1162.34 498.234
836 0 89.2513 13.6917 1222 106.676 1162.61 496.022
837 1 50.0294 12.5326 627 107.065 1163.64 515.078
838 0 50.0612 12.7444 638 109.053 1162.61 512.227
839 0 50.0948 12.7159 637 107.659 1162.31 508.656
840 0 52.0801 12.6728 660 101.785 1161.87 504.03
841 0 54.0865 13.0347 705 101.685 1161.46 507.034
842 0 55.0472 14.1333 778 104.148 1162.78 508.022
843 0 56.047 13.453 754 106.668 1162.28 507.192
844 0 56.0166 13.853 776 102.867 1162.59 507.845
845 0 60.0166 13.7795 827 101.265 1162.83 506.918
846 0 59.0228 13.571 801 103.83 1162.59 505.316
847 0 61.0425 13.4988 824 104.279 1162.6 504.632
848 0 65.0401 14.099 917 101.117 1162.13 503.166
849 0 66.0934 14.0559 929 102.352 1162.22 501.93
850 0 70.0925 14.3525 1006 100.053 1162.2 500.828
851 0 70.0413 14.3487 1005 101.585 1162.33 499.008
852 0 72.0764 14.4985 1045 101.718 1162.92 498.143
853 0 75.0528 14.2167 1067 101.504 1162.46 496.723
854 0 79.0714 13.9747 1105 101.677 1162.54 495.597
855 0 82.0638 14.6837 1205 99.5992 1161.38 493.593
856 0 82.0638 14.6715 1204 173.242 1161.38 493.624
857 0 87.0266 14.8116 1289 99.8402 1161.56 489.963
858 0 87.0266 14.8001 1288 162.675 1161.57 489.984
859 0 92.1648 14.2462 1313 101.609 1161.9 487.087
860 1 45.0967 12.0408 543 106.429 1162.59 509.228
861 0 45.045 12.8982 581 106.213 1162.11 508.298
862 0 49.1198 13.3551 656 104.245 1162.73 507.459
863 0 49.0839 14.0168 688 101.799 1162.3 505.715
864 0 49.087 13.5678 666 97.1697 1161.88 507.583
865 0 50.0708 12.6621 634 100.412 1161.6 509.115
866 0 51.1161 13.44 687 99.5531 1161.23 506.803
867 0 54.1333 13.5961 736 97.2283 1161.08 505.289
868 0 57.0741 13.1583 751 97.2304 1161.03 503.549
869 0 56.2055 13.3439 750 87.012 1161.29 502.435
870 0 58.0486 13.5748 788 98.151 1160.93 501.146
871 0 60.1108 13.3088 800 98.9588 1160.87 500.102
872 0 62.1463 13.1303 816 99.6716 1161.1 498.007
873 0 65.1905 14.2045 926 96.96 1161.12 497.38
874 0 67.2969 13.3587 899 99.0011 1161.16 495.614
875 0 70.2624 13.0938 920 99.2696 1161.54 495.465
876 0 72.2739 14.0576 1016 96.7874 1161.19 494.94
877 0 74.223 14.1196 1048 96.6584 1160.17 493.222
878 0 74.1349 13.6643 1013 98.9457 1160.78 491.692
879 0 77.2912 13.792 1066 98.0872 1160.73 491.064
880 0 80.3537 13.8015 1109 98.0361 1160.62 489.999
881 0 83.3006 13.8655 1155 97.0147 1160.67 488.739
882 0 86.1941 14.0729 1213 96.5886 1160.42 486.81
883 0 89.109 13.6574 1217 96.9022 1160.78 484.867
884 0 92.1698 13.4426 1239 97.255 1160.74 482.357
885 1 47.1146 11.8859 560 103.58 1161.22 503.041
886 0 51.1088 12.8745 658 97.3374 1161.78 501.055
887 0 50.126 12.8676 645 98.4171 1161.45 500.231
888 0 53.1204 13.347 709 96.6869 1160.65 499.181
889 0 52.0968 13.0718 681 97.5521 1161.11 499.814
890 0 54.0785 13.5174 731 96.7469 1161.37 498.914
891 0 57.098 13.5732 775 96.7213 1161.29 497.281
892 0 59.0386 13.127 775 98.9613 1161.17 496.915
893 0 59.1737 13.4519 796 99.951 1161.2 495.667
894 0 64.0975 13.4483 862 98.3608 1161.18 495.587
895 0 64.0778 13.7021 878 98.7563 1160.69 493.977
896 0 66.1286 13.4435 889 100.039 1161.14 492.134
897 0 70.1052 13.6224 955 99.7602 1161.36 489.908
898 0 73.1573 13.7649 1007 98.6038 1161.09 488.225
899 0 76.164 14.1799 1080 97.6806 1160.92 487.276
900 0 79.0581 13.7873 1090 97.6495 1161.03 487.179
901 0 83.0696 14.4096 1197 97.0301 1161.21 483.583
902 0 84.1135 13.9692 1175 99.5021 1161.94 482.589
903 0 87.1136 14.108 1229 98.8487 1161.34 480.55
904 0 90.0574 14.2465 1283 98.2557 1161.76 479.111
905 0 94.0723 14.1381 1330 97.9226 1161.42 477.699
906 0 97.0841 13.5656 1317 98.4419 1161.01 475.932
907 1 50.0587 11.8061 591 90.6565 1161.78 500.839
908 0 51.1877 12.6398 647 96.949 1163.91 502.488
909 0 53.1786 12.8059 681 95.072 1163.63 503.333
910 0 54.1519 13.0743 708 94.9859 1163.94 504.486
911 0 58.204 13.4183 781 93.5723 1163.93 504.027
912 0 58.1674 13.358 777 97.1248 1163.81 502.336
913 0 62.207 13.9213 866 93.1039 1163.65 501.127
914 0 61.142 13.6894 837 94.7551 1163.88 499.877
915 0 66.1692 13.6922 906 94.0033 1163.2 499.534
916 0 66.1611 13.5125 894 96.9541 1163.75 497.956
917 0 68.1369 13.7077 934 97.5535 1163.27 496.927
918 0 70.0996 13.9088 975 97.2933 1163.27 496.059
919 0 71.0787 13.9423 991 97.3471 1162.61 493.742
920 0 74.0479 13.3022 985 99.5635 1162.23 492.166
921 0 77.0467 14.2122 1095 98.0913 1162.43 490.749
922 0 81.0941 14.477 1174 96.8671 1161.82 490.504
923 0 82.1102 14.3831 1181 97.2972 1162.03 490.724
924 0 83.1133 13.632 1133 100.438 1161.97 491.237
925 0 87.078 14.4124 1255 98.4 1161.98 488.904
926 0 89.0587 13.9908 1246 99.1589 1161.51 487.864
927 0 92.116 13.8629 1277 99.5184 1161.47 486.323
928 0 95.0985 13.7962 1312 99.4322 1160.98 484.901
929 0 97.1526 14.5441 1413 97.6893 1161.14 483.994
930 0 103.108 14.0629 1450 97.5359 1160.84 481.937
931 0 103.134 13.3418 1376 100.533 1159.84 478.374
932 0 107.202 13.386 1435 100.387 1159.67 475.97
933 0 110.08 14.0988 1552 98.6798 1159.84 476.562
934 0 117.373 14.0407 1648 97.5376 1159.98 476.203
935 0 122.283 13.6895 1674 99.1171 1159.64 471.277
936 0 126.362 13.5325 1710 97.5912 1159.62 471.739
937 0 132.262 13.1406 1738 98.8982 1159.74 468.3
938 0 137.215 13.7886 1892 99.3753 1160.14 464.45
939 1 73.1565 11.4139 835 95.7976 1160.02 498.675
940 0 74.2394 11.9209 885 94.1966 1159.75 500.122
941 0 76.168 11.9341 909 94.6139 1159.08 496.51
942 0 79.1963 12.6269 1000 92.643 1159.32 495.082
943 0 80.2117 12.5792 1009 91.7661 1160.26 497.462
944 0 84.2236 12.36 1041 91.4496 1160.47 495.3
945 0 86.212 12.0981 1043 92.6894 1160.94 492.371
946 0 87.2301 12.5874 1098 92.1375 1160.49 490.864
947 0 91.3044 12.409 1133 92.5746 1160.43 487.717
948 0 93.2243 12.1213 1130 93.7743 1160.83 485.629
949 0 96.2844 12.3281 1187 92.9714 1161.17 485.357
950 0 100.325 12.3199 1236 93.1553 1160.99 481.426
951 0 103.322 12.2917 1270 100.99 1160.8 482.197
952 0 108.295 12.9092 1398 100.689 1160.95 479.059
953 0 111.267 12.4116 1381 102.615 1161.15 477.999
954 0 117.272 12.5605 1473 101.511 1160.41 476.253
955 0 122.295 12.7151 1555 100.61 1160.78 471.724
956 1 71.154 11.1589 794 87.7091 1161.61 500.264
957 0 72.1554 11.8494 855 87.2421 1161.11 497.935
958 0 74.3845 11.9649 890 86.8079 1161.98 500.589
959 0 76.2168 12.1364 925 87.1157 1161.94 497.983
960 0 80.3055 12.6143 1013 85.7759 1162.03 497.063
961 0 82.3048 12.3808 1019 87.4553 1161.73 496.128
962 0 84.4459 12.4103 1048 87.1174 1162.43 493.306
963 0 87.3334 12.6985 1109 87.0189 1162.36 489.665
964 0 89.2637 12.7711 1140 85.2307 1162.18 488.571
965 0 90.2712 12.3074 1111 86.8956 1162.01 485.754
966 0 94.2474 12.5945 1187 85.8787 1162.27 489.049
967 0 96.2997 12.1496 1170 87.2385 1161.91 485.384
968 0 99.1923 12.0977 1200 87.1358 1161.83 480.544
969 0 100.237 12.1014 1213 86.9918 1162.56 480.487
970 0 102.167 11.7748 1203 87.7955 1161.19 477.023
971 0 104.22 10.8329 1129 89.2631 1162.57 473.557
972 0 109.329 11.2779 1233 87.0495 1162.19 471.201
973 0 114.253 11.3433 1296 86.2099 1163.01 468.333
974 1 65.1349 11.4531 746 85.3874 1163.27 498.802
975 0 65.1479 11.6658 760 85.175 1162.84 497.109
976 0 65.1707 10.1426 661 80.0817 1163.26 500.283
977 0 67.1922 9.73327 654 81.0092 1163.97 498.914
978 0 69.1863 10.161 703 80.256 1164.04 497.138
979 0 72.2184 9.88667 714 88.9636 1163.9 496.221
980 0 78.2095 10.881 851 88.436 1164.62 494.785
981 0 79.1494 11.1688 884 89.0939 1164.02 494.505
982 0 80.2086 10.8966 874 91.1259 1163.83 492.108
983 0 81.2175 10.4903 852 81.9108 1163 490.83
984 0 83.1179 10.9242 908 82.5033 1163.21 491.095
985 0 88.1386 11.1529 983 81.5687 1163.02 491.314
986 0 91.1591 10.8821 992 82.3196 1162.43 487.879
987 0 97.1537 12.2383 1189 80.1362 1162.94 487.114
988 0 100.16 12.3103 1233 80.8597 1162.33 484.089
989 1 51.1372 11.3225 579 88.6252 1163.14 507.815
990 0 51.1335 11.9491 611 87.3011 1162.58 502.876
991 0 53.1394 12.2884 653 89.0322 1163.22 502.864
992 0 56.1687 12.3556 694 82.268 1162.81 503.807
993 0 55.1653 11.7646 649 86.5747 1162.14 504.872
994 0 58.1386 12.0918 703 85.926 1162.72 504.218
995 0 57.1799 11.63 665 89.197 1162.61 502.941
996 0 59.1257 12.1605 719 86.9249 1162.83 502.652
997 0 61.1563 11.9366 730 88.0342 1163.33 502.781
998 0 64.1713 12.6692 813 86.4354 1163 499.648
999 0 65.1752 12.4741 813 88.449 1162.85 498.956
1000 0 68.1843 12.6569 863 88.2793 1162.63 498.015
1001 0 70.1558 13.1564 923 88.6457 1162.48 495.959
1002 0 70.1558 13.1992 926 148.672 1163.49 495.942
1003 0 75.1721 13.9014 1045 88.7407 1162.35 492.577
1004 0 78.227 13.2946 1040 90.8663 1162.47 490.564
1005 0 80.1678 13.5092 1083 89.8837 1163.15 490.929
1006 0 81.2002 13.6576 1109 91.3499 1163.87 486.264
1007 0 84.2316 13.7122 1155 91.8857 1163.02 485.478
1008 0 86.1746 14.0413 1210 91.5653 1163.64 484.561
1009 0 86.1746 14.0413 1210 152.767 1163.63 484.592
1010 0 89.1792 13.714 1223 94.5536 1162.98 483.182
1011 0 91.1753 13.8634 1264 94.538 1162.52 481.994
1012 0 97.3544 14.5962 1421 91.9529 1162.76 480.199
1013 0 95.325 13.753 1311 95.8322 1162.72 479.773
1014 0 99.3225 14.0552 1396 95.6698 1162.58 479.172
1015 0 101.278 13.5469 1372 98.266 1162.1 476.014
1016 0 105.27 13.5841 1430 98.0182 1162.29 476.404
1017 0 108.366 14.0265 1520 97.5395 1162.84 473.326
1018 0 112.331 13.7452 1544 98.0641 1162.92 473.212
1019 0 113.284 14.1502 1603 98.4498 1163.63 470.194
1020 0 118.341 13.74 1626 98.2952 1163.61 469.417
1021 0 121.326 13.8388 1679 97.564 1162.89 466.719
1022 0 125.431 13.0032 1631 98.5953 1162.45 466.2
1023 0 131.366 13.9533 1833 96.9771 1163.3 462.543
1024 0 134.26 13.8984 1866 99.992 1163.62 457.052
1025 1 63.2976 11.2958 715 100.565 1163.39 494.923
1026 0 64.1507 11.13 714 100.522 1162.96 492.157
1027 0 67.2488 12.4909 840 97.8821 1163.09 491.594
1028 0 69.2586 12.3017 852 98.0516 1162.5 489.768
1029 0 69.1195 13.0065 899 95.4805 1162.02 489.952
1030 0 73.05 13.306 972 93.4537 1162.14 490.279
1031 0 73.1053 13.2822 971 94.6045 1162.16 488.604
1032 0 73.1536 12.8907 943 97.1983 1162.36 487.303
1033 0 77.0861 12.6352 974 96.655 1162.29 485.233
1034 0 78.1998 12.7494 997 96.7653 1162.2 483.602
1035 0 81.0468 12.7581 1034 95.4149 1161.99 482.298
1036 0 85.0542 13.0152 1107 94.065 1162.09 479.276
1037 0 89.1217 12.6007 1123 94.5058 1161.93 478.17
1038 0 91.1342 12.7724 1164 94.4046 1161.69 476.975
1039 0 94.1792 12.3382 1162 94.0069 1161.36 475.254
1040 0 96.2182 12.8874 1240 93.6129 1161.56 476.022
1041 0 99.1272 12.9732 1286 93.8989 1161.23 471.208
1042 0 102.169 12.5674 1284 94.9159 1161.92 470.017
1043 0 108.185 12.4324 1345 94.8773 1161.67 466.356
1044 0 110.157 12.5276 1380 95.2167 1161.7 467.46
1045 0 114.29 12.5121 1430 95.8007 1161.49 463.809
1046 0 118.256 12.7943 1513 96.3014 1160.85 461.515
1047 0 124.253 14.0037 1740 93.4764 1160.82 457.428
1048 0 127.267 12.9648 1650 97.6006 1160.88 457.318
1049 0 129.299 12.707 1643 99.1406 1161.37 458.37
1050 0 137.287 12.8636 1766 98.4977 1161.1 455.334
1051 0 139.272 13.1756 1835 99.5144 1160.86 452.42
1052 0 145.291 12.9946 1888 100.324 1161.47 452.927
1053 0 148.234 12.858 1906 101.973 1161.4 449.221
1054 0 153.345 13.3881 2053 104.493 1161.51 445.93
1055 0 158.181 13.257 2097 109.186 1161.8 445.639
1056 0 161.18 13.7486 2216 111.368 1161.56 441.478
1057 0 166.258 14.1226 2348 111.632 1162.25 438.798
1058 0 173.306 14.333 2484 111.491 1161.72 435.546
1059 0 180.312 13.7095 2472 114.153 1161.24 434.684
1060 0 187.216 14.3577 2688 112.621 1161.83 433.757
1061 0 192.401 13.5862 2614 115.976 1161.36 428.795
1062 0 202.418 13.9069 2815 116.556 1162.04 425.821
1063 0 211.372 13.19 2788 116.705 1162.19 427.148
1064 1 55.1777 10.2759 567 96.8007 1162.86 509.617
1065 0 57.2415 10.709 613 95.5546 1162.6 508.217
1066 0 57.2532 10.1479 581 98.043 1162.11 508.296
1067 0 58.2016 9.98255 581 89.4957 1162.12 508.46
1068 0 59.1783 9.32775 552 92.8931 1162.02 508.873
1069 0 59.166 9.617 569 121.362 1161.05 509.286
1070 0 64.2139 10.574 679 91.8954 1162.69 506.698
1071 0 66.2137 11.5082 762 91.3911 1162.56 505.345
1072 0 67.1378 11.0519 742 93.0782 1162.5 505.061
1073 0 69.1514 10.3541 716 94.9763 1162.35 504.024
1074 0 69.2185 10.2574 710 97.5056 1162.07 502.368
1075 0 72.162 10.5319 760 98.3237 1162.19 503.125
1076 1 41.0234 9.31175 382 98.1702 1163.06 517.997
1077 0 43.0664 9.49695 409 96.4156 1163.13 516.687
1078 0 43.0316 10.2018 439 96.221 1163.79 516.314
1079 0 42.0184 10.6144 446 98.2152 1163.6 516.061
1080 0 45.0278 11.0154 496 95.8004 1164.31 515.875
1081 0 43.0953 9.21214 397 89.2897 1161.42 517.113
1082 0 45.1937 9.16057 414 89.1401 1162.28 517.355
1083 0 45.2168 8.97897 406 90.5517 1162.22 515.177
1084 0 47.2361 8.95502 423 91.0733 1162.8 515.364
1085 0 46.2685 8.10487 375 92.984 1162.12 514.208
1086 0 47.3366 8.936 423 92.4728 1162.17 513.898
1087 0 48.2835 9.31996 450 90.5733 1162.12 514.718
1088 0 55.2493 7.16751 396 92.3813 1162.77 514.374
1089 0 55.249 7.89154 436 104.14 1162.15 512.11
1090 0 54.2561 8.57046 465 102.985 1162.27 510.555
1091 0 56.2359 8.81999 496 102.849 1162.09 509.885
1092 0 60.2775 9.47286 571 100.412 1162.8 509.245
1093 0 60.1522 8.54499 514 101.521 1162.55 505.868
1094 0 62.2511 8.73881 544 100.414 1162.34 503.195
1095 0 64.2079 9.6094 617 96.034 1161.98 500.666
1096 0 70.2627 9.89145 695 93.3799 1162.11 497.381
1097 0 76.1847 11.2621 858 87.4557 1161.86 497.759
1098 0 76.2025 10.0259 764 88.589 1161.77 497.872
1099 1 41.1337 8.14417 335 89.1701 1164.34 519.806
1100 0 44.1694 9.21452 407 85.9607 1164.29 518.875
1101 0 42.2207 9.11874 385 92.2182 1163.36 515.922
1102 0 45.2674 10.2281 463 89.4039 1163.09 514.238
1103 0 47.1988 9.61888 454 90.4515 1162.94 513.487
1104 0 46.2487 9.23269 427 95.1733 1162.79 513.122
1105 0 48.1888 9.33826 450 94.2889 1162.96 512.222
1106 0 51.196 9.61012 492 93.4797 1162.94 513.364
1107 0 51.2266 10.1315 519 92.896 1162.93 512.703
1108 0 51.2487 9.79537 502 95.7689 1162.26 511.004
1109 0 51.1595 9.38242 480 97.2938 1161.86 510.348
1110 0 54.2107 9.75822 529 97.1682 1162.24 510.178
1111 0 55.2017 10.4526 577 97.8458 1162.54 508.575
1112 0 55.1731 9.69675 535 100.37 1162.23 508.621
1113 0 59.2271 10.4007 616 98.4643 1162.23 508.617
1114 0 59.1542 10.5487 624 99.4119 1162.82 507.663
1115 0 61.1719 11.0672 677 98.0679 1163.12 508.647
1116 0 62.1572 10.8756 676 99.2722 1162.56 507.728
1117 0 65.1723 11.6 756 98.4471 1162.85 505.278
1118 0 67.0803 12.2242 820 96.6622 1164.75 505.293
1119 0 68.0412 11.493 782 99.6471 1164.25 502.57
1120 0 70.0498 10.9351 766 100.149 1164.47 504.208
1121 0 72.062 11.2126 808 99.0186 1164.29 501.052
1122 0 73.0669 11.8248 864 98.5891 1164.28 500.698
1123 0 78.0335 12.469 973 96.443 1164.57 499.901
1124 0 81.0673 11.953 969 97.8958 1164.28 497.988
1125 0 82.1128 12.2514 1006 98.7356 1164.69 497.488
1126 0 87.142 12.5198 1091 98.0266 1163.86 495.669
1127 1 49.028 10.2595 503 95.326 1162.75 516.867
1128 0 51.0475 11.264 575 93.967 1162.56 516.652
1129 0 51.1062 11.1924 572 92.9073 1162.18 516.872
1130 0 53.1208 11.3327 602 89.1611 1162.08 516.022
1131 0 53.1011 11.9771 636 89.4969 1161.65 515.865
1132 0 56.114 12.2073 685 88.6803 1161.79 514.549
1133 0 59.0677 11.3598 671 101.213 1164.35 511.1
1134 0 61.0461 11.7288 716 100.282 1164.32 511.106
1135 0 64.0702 11.6123 744 99.668 1163.96 510.64
1136 0 62.0725 12.9043 801 88.7091 1163.71 510.026
1137 0 67.0812 12.1196 813 99.845 1163.39 507.228
1138 0 69.0506 12.6719 875 98.7771 1163.99 505.675
1139 0 69.0485 11.5426 797 102.66 1163.42 505.792
1140 0 71.0301 11.6289 826 102.944 1163.95 504.047
1141 0 74.0251 11.8879 880 101.683 1164.14 504.297
1142 0 76.0409 12.3881 942 100.434 1163.98 503.673
1143 0 79.0325 12.9567 1024 99.752 1163.4 501.502
1144 0 83.0841 12.698 1055 100.114 1163.66 500.675
1145 0 82.097 12.9968 1067 100.737 1163.22 500.063
1146 0 86.0958 12.5558 1081 100.896 1163.81 497.475
1147 0 89.0919 13.1886 1175 100.883 1163.45 495.631
1148 0 90.2097 12.8146 1156 102.537 1163.62 494.7
1149 0 93.2265 13.0864 1220 102.129 1162.51 492.36
1150 0 96.3003 13.0529 1257 91.0406 1162.72 490.671
1151 0 100.332 12.4188 1246 92.2849 1161.87 490.283
1152 1 52.034 10.1472 528 88.6515 1163.23 513.926
1153 0 54.0206 10.7922 583 85.8868 1162.3 514.252
1154 0 56.0736 11.9129 668 83.3578 1161.09 511.859
1155 0 58.1829 11.7904 686 81.5787 1161.85 511.863
1156 0 60.1679 11.6175 699 82.8641 1161.65 509.499
1157 0 60.0932 11.6486 700 92.1129 1162.66 508.361
1158 0 64.0378 11.4776 735 90.6939 1162.66 508.32
1159 0 66.0752 11.9712 791 90.1896 1162.98 506.59
1160 0 69.1512 11.6412 805 90.8522 1162.16 505.471
1161 0 72.0789 12.2505 883 89.4496 1162.5 505.52
1162 0 72.106 11.7189 845 92.9432 1162.11 505.049
1163 0 76.0897 12.091 920 92.5826 1161.72 503.124
1164 0 77.2114 12.3427 953 93.4386 1161.2 502.226
1165 0 80.282 12.2568 984 94.2236 1161.22 500.015
1166 0 81.2571 11.9866 974 96.6088 1161.72 498.952
1167 0 87.2842 12.1328 1059 96.5109 1161.48 498.076
1168 0 87.2786 11.9388 1042 98.4184 1161.06 497.767
1169 0 91.3764 12.4978 1142 98.0385 1161.42 495.399
1170 0 95.5414 12.7065 1214 98.0873 1161.84 493.269
1171 0 98.6145 12.5032 1233 99.9351 1162.54 489.122
1172 1 49.1591 11.6967 575 88.1165 1161.6 518.722
1173 0 51.2662 11.255 577 89.156 1161.59 518.125
1174 0 49.0864 11.2047 550 91.8273 1160.48 517.596
1175 0 50.1377 11.269 565 92.6 1160.69 516.935
1176 0 52.2172 11.5288 602 91.8804 1160.65 515.757
1177 0 54.15 11.5974 628 89.2946 1160.54 513.459
1178 0 56.1964 11.2997 635 90.9039 1160.44 511.58
1179 0 57.3426 11.719 672 90.9539 1160.93 511.845
1180 0 59.1687 11.2728 667 92.3013 1161.16 510.148
1181 0 61.1736 12.3092 753 89.9309 1161.43 510.497
1182 0 63.2271 11.514 728 90.0577 1161.74 510.407
1183 0 64.2148 11.5861 744 92.1868 1160.75 509.743
1184 0 67.1569 11.1381 748 93.9011 1161.11 505.393
1185 0 69.2039 11.5745 801 93.5243 1160.63 504.816
1186 0 73.2294 11.5664 847 92.2751 1160.37 503.795
1187 0 76.2955 11.2982 862 93.1485 1160.77 502.611
1188 0 78.3428 11.9347 935 92.5508 1161.2 500.802
1189 0 79.4777 11.953 950 94.1263 1161.28 498.896
1190 0 82.5752 11.759 971 94.2873 1161.32 498.009
1191 0 84.7188 11.6975 991 95.8103 1161.34 494.656
1192 0 87.7596 11.9531 1049 94.5586 1161.69 493.954
1193 0 90.7759 11.3026 1026 96.0517 1161.32 490.54
1194 0 93.4934 12.2576 1146 93.9092 1161.28 489.794
1195 0 94.5893 11.1112 1051 97.2217 1161.08 488.276
1196 1 48.5484 10.6286 516 86.6357 1161.59 513.578
1197 0 50.4207 11.1462 562 86.2295 1161.09 511.525
1198 0 52.3493 11.4997 602 85.1545 1161.21 510.523
1199 0 53.4228 11.8676 634 86.1467 1161.38 508.819
1200 0 56.3979 11.2238 633 86.1185 1160.99 511.215
1201 0 59.2726 11.1856 663 92.2715 1161.69 510.186
1202 0 61.27 11.4085 699 84.0386 1161.22 509.957
1203 0 61.2917 12.0734 740 83.1378 1161.18 507.904
1204 0 62.2431 11.2462 700 85.5986 1160.7 507.57
1205 0 66.1973 11.3147 749 90.9132 1161.17 506.782
1206 0 66.2155 10.7679 713 91.7433 1161.03 504.683
1207 0 68.2225 11.2133 765 91.6092 1161.88 505.454
1208 0 72.1392 11.1867 807 92.0694 1160.76 502.799
1209 0 72.2125 11.9093 860 88.7977 1161.48 500.669
1210 0 74.295 11.8043 877 91.114 1161.42 501.511
1211 0 77.1701 11.7403 906 92.6943 1161.74 499.272
1212 0 79.3773 12.0059 953 92.1584 1162.01 498.838
1213 0 83.299 11.9809 998 92.2705 1161.85 497.028
1214 0 84.3783 12.3966 1046 93.5029 1161.72 496.022
1215 0 88.3551 12.4158 1097 93.7411 1161.55 493.762
1216 0 89.4534 12.7441 1140 94.5632 1161.32 493.372
1217 0 93.4094 12.5897 1176 94.7262 1162.04 490.88
1218 0 93.4195 12.5777 1175 140.531 1164.05 490.981
1219 0 98.3753 12.7369 1253 95.2642 1161.25 488.42
1220 0 100.445 13.0121 1307 95.3489 1162.05 487.828
1221 0 103.517 13.0896 1355 95.0738 1161.69 487.331
1222 0 107.72 13.006 1401 96.0971 1161.43 482.256
1223 1 60.3897 11.9888 724 91.5166 1162.57 509.037
1224 0 62.4452 12.2187 763 93.7025 1162.78 505.82
1225 0 65.1795 12.0744 787 96.3151 1162.4 506.386
1226 0 65.1537 12.8926 840 92.7238 1161.49 505.61
1227 0 68.134 12.2846 837 92.5795 1161.1 505.559
1228 0 70.1948 12.3941 870 92.6368 1161.3 501.59
1229 0 74.1981 12.2106 906 92.3753 1161.79 501.424
1230 0 75.2131 12.2319 920 92.5924 1162.16 498.577
1231 0 79.381 12.4841 991 91.6236 1162.88 497.809
1232 0 81.5711 13.3626 1090 90.4587 1162 495.261
1233 0 84.5042 12.7568 1078 91.0742 1162.51 493.76
1234 0 84.4881 13.0906 1106 91.3454 1161.69 492.194
1235 0 88.5326 12.9105 1143 92.301 1161.87 489.614
1236 0 91.6159 13.0545 1196 91.7851 1162.2 487.251
1237 0 94.8398 12.6107 1196 92.2734 1161.96 485.46
1238 0 97.8595 13.1617 1288 92.25 1162.79 486.382
1239 0 97.8595 13.1209 1284 140.075 1163.8 486.334
1240 0 104.858 13.3991 1405 92.2762 1162.98 483.26
1241 0 107.701 13.8996 1497 91.6146 1163.07 481.571
1242 0 111.899 13.3334 1492 93.0543 1161.85 478.985
1243 0 114.801 12.9963 1492 94.2621 1162.42 475.529
1244 0 116.597 13.1564 1534 94.427 1161.74 472.96
1245 0 121.765 13.1072 1596 93.7744 1161.85 471.694
1246 0 127.764 14.4172 1842 90.4875 1161.81 465.287
1247 0 127.624 12.529 1599 96.0275 1162.26 467.846
1248 1 72.5249 11.8166 857 90.9335 1162.44 495.931
1249 0 75.3533 11.665 879 91.1263 1162.26 496.425
1250 0 77.294 11.9673 925 89.7049 1162.73 497.577
1251 0 81.3776 12.485 1016 90.1457 1162.38 494.608
1252 0 82.2163 12.2603 1008 90.869 1163.16 494.239
1253 0 86.2887 12.9333 1116 90.1335 1163.51 493.577
1254 0 87.2565 12.5034 1091 91.9716 1163.44 493.374
1255 0 90.349 12.7395 1151 92.344 1163.58 490.891
1256 0 94.4458 12.5786 1188 94.2879 1163.61 488.371
1257 0 96.5192 12.6089 1217 93.7157 1164.12 485.919
1258 0 99.4867 12.8359 1277 92.5865 1164.15 484.352
1259 0 103.568 12.4073 1285 92.2047 1163.08 481.894
1260 0 105.598 12.6044 1331 92.0481 1163.3 479.065
1261 0 110.498 12.5975 1392 91.2234 1163.57 478.411
1262 0 112.554 12.5095 1408 92.4979 1163.13 476.409
1263 0 115.442 12.8203 1480 92.9007 1162.99 473.555
1264 0 120.478 12.6247 1521 93.0289 1163.53 475.32
1265 0 122.43 12.595 1542 93.9099 1162.81 471.347
1266 0 128.448 12.9546 1664 93.4958 1162.64 471.329
1267 0 130.519 13.1782 1720 93.664 1162.68 469.803
1268 0 135.473 13.0728 1771 94.5443 1162.11 465.826
1269 0 138.555 12.782 1771 95.5178 1162.62 460.473
1270 0 141.442 12.5635 1777 96.762 1162.59 461.225
1271 0 145.573 12.6328 1839 96.3496 1162.67 459.124
1272 0 150.543 12.8336 1932 96.383 1162.42 455.723
1273 0 156.61 12.9175 2023 96.828 1162.33 455.963
1274 0 161.551 12.9556 2093 96.9159 1162.46 453.795
1275 0 165.465 13.2294 2189 97.3632 1162.27 449.582
1276 0 170.518 12.9429 2207 99.0335 1162.06 448.022
1277 0 174.447 13.8896 2423 97.8997 1161.1 444.254
1278 0 180.465 13.7755 2486 99.7651 1161.92 444.004
1279 0 186.525 14.2287 2654 100.749 1161.3 440.079
1280 0 191.541 14.0335 2688 102.435 1161.55 437.021
1281 0 197.518 14.3987 2844 101.932 1161.34 435.448
1282 0 202.51 13.8067 2796 102.089 1161.37 430.951
1283 0 211.516 14.0935 2981 99.6337 1161.61 430.12
1284 0 217.541 13.409 2917 100.862 1161.62 427.447
1285 0 224.493 13.5327 3038 99.6745 1161.84 421.397
1286 0 230.545 13.5852 3132 100.199 1162.11 418.248
1287 1 158.448 11.4738 1818 98.2668 1162.53 455.34
1288 0 162.431 11.4695 1863 99.256 1162.17 453.106
1289 0 170.354 12.8966 2197 98.0401 1162.67 450.205
1290 0 176.486 12.4145 2191 98.7887 1162.28 448.335
1291 0 181.456 12.4824 2265 98.8755 1162.6 447.988
1292 0 186.409 12.435 2318 99.4392 1162.17 443.579
1293 0 191.492 12.5906 2411 99.4977 1162.36 439.757
1294 0 198.446 12.6634 2513 100.009 1162.43 436.578
1295 0 202.444 12.3738 2505 101.994 1161.98 430.188
1296 0 209.448 12.6094 2641 102.154 1162.13 430.538
1297 0 215.557 13.2772 2862 101.879 1161.92 425.253
1298 0 220.446 12.6516 2789 103.935 1161.69 423.643
1299 1 177.512 12.0218 2134 103.304 1161.04 444.5
1300 0 182.375 12.8581 2345 104.846 1162.21 441.931
1301 0 188.454 12.5495 2365 107.895 1161.97 438.876
1302 0 194.426 12.5703 2444 109.132 1162.42 435.609
1303 0 202.45 12.0721 2444 110 1162.38 433.01
1304 0 207.547 12.6815 2632 109.193 1162.33 428.592
1305 0 214.503 12.5126 2684 109.738 1162.7 425.721
1306 0 219.485 12.748 2798 111.777 1162.64 423.419
1307 0 226.622 13.4012 3037 110.585 1162.59 420.287
1308 0 232.478 13.2443 3079 112.187 1162.38 416.255
1309 0 239.579 12.7724 3060 113.502 1162.56 413.246
1310 0 247.633 13.7704 3410 110.354 1161.87 411.456
1311 0 254.514 13.1231 3340 114.336 1161.59 405.802
1312 0 262.334 13.3913 3513 113.798 1161.08 402.268
1313 0 271.377 14.0064 3801 111.658 1161.15 397.191
1314 0 280.322 14.3192 4014 112.006 1161.29 396.286
1315 0 286.46 14.1206 4045 113.503 1160.96 390.636
1316 0 292.561 13.4707 3941 116.641 1161.15 385.541
1317 0 303.535 13.9424 4232 115.695 1161.35 383.947
1318 0 310.609 14.3814 4467 114.815 1161.27 376.455
1319 0 317.554 15.4745 4914 111.81 1160.59 369.296
1320 0 327.554 15.515 5082 112.018 1161.01 364.875
1321 0 337.53 16.0134 5405 111.435 1161.35 356.907
1322 0 349.507 15.7679 5511 110.635 1162.06 352.917
1323 0 360.409 14.9081 5373 113.431 1161.01 349.474
1324 0 372.411 15.8105 5888 111.664 1161.67 341.082
1325 1 310.418 12.5798 3905 120.805 1162.16 378.868
1326 0 321.524 13.1437 4226 120.135 1164.05 368.689
1327 0 325.509 15.3083 4983 112.904 1162.3 358.853
1328 0 331.615 15.0204 4981 115.506 1161.83 349.76
1329 1 60.1895 9.85221 593 91.398 1164.58 507.089
1330 0 56.1622 8.79596 494 83.8826 1162.62 513.334
1331 0 56.2212 8.84009 497 85.9517 1162.94 512.706
1332 0 58.1583 9.18183 534 86.1348 1162.66 513.155
1333 0 58.1804 8.97209 522 90.0019 1162.6 511.146
1334 0 58.1762 8.31956 484 92.2996 1162.99 514.975
1335 0 58.2544 9.04653 527 94.1518 1163.55 512.619
1336 0 61.2709 9.72729 596 94.8607 1163.06 510.716
1337 0 68.3912 12.604 862 83.9698 1163.44 504.604
1338 0 64.4424 12.1193 781 89.507 1163.79 507.483
1339 0 63.3702 9.87846 626 99.008 1162.92 509.605
1340 0 63.1584 10.0541 635 99.0756 1162.41 512.413
1341 0 62.1806 9.92271 617 100.614 1162.29 511.862
1342 0 63.1959 9.95317 629 100.211 1161.79 513.232
1343 0 63.2392 9.47197 599 102.503 1162.14 512.082
1344 0 65.1825 10.555 688 100.224 1161.84 512.102
1345 0 65.1768 10.5559 688 135.618 1161.86 512.055
1346 0 62.1817 10.4854 652 103.023 1162.18 511.56
1347 0 64.1417 10.6483 683 101.124 1162.17 510.99
1348 0 62.1659 9.89289 615 104.101 1161.84 510.984
1349 0 64.1435 9.89968 635 103.844 1161.85 511.51
1350 0 65.1512 10.5447 687 101.642 1161.27 511.066
1351 0 68.3868 12.5609 859 95.0163 1162.1 505.522
1352 0 69.1564 9.60143 664 101.94 1162.71 510.946
1353 0 74.4256 14.0274 1044 86.4167 1162.55 502.602
1354 0 68.4103 14.2815 977 86.2334 1162.84 507.207
1355 0 69.4202 13.7712 956 86.6967 1162.78 507.586
1356 0 68.3718 14.3334 980 87.6102 1162.85 507.397
1357 0 71.0832 14.0399 998 96.0411 1163.41 497.637
