time division length width area intensity CMx CMy
0 0 58.1195 14.5734 847 112.001 1213 496.429
1 0 61.0405 14.7934 903 108.792 1213.42 495.61
2 0 61.07 14.4261 881 109.486 1213.35 495.976
3 0 62.0475 14.2955 887 108.858 1213.08 496.313
4 0 65.0304 14.547 946 104.471 1213.65 495.587
5 0 68.0646 14.9711 1019 99.842 1213.52 494.872
6 0 69.1111 13.8907 960 102.473 1213.31 493.089
7 0 70.0419 13.806 967 101.503 1213.58 493.2
8 0 74.0416 14.0327 1039 99.2262 1213.73 492.771
9 0 74.048 14.2745 1057 99.5648 1213.53 491.429
10 0 79.0358 14.8161 1171 95.5389 1212.41 489.963
11 0 80.0545 14.7774 1183 95.0642 1213.37 488.293
12 0 84.0969 14.947 1257 92.9483 1213.13 486.99
13 0 87.0594 14.8864 1296 92.3426 1212.13 485.528
14 0 89.1494 14.6384 1305 92.4406 1212.64 483.385
15 0 92.0956 14.3221 1319 92.5011 1212.34 481.953
16 0 93.1024 13.6409 1270 94.2378 1213.05 481.978
17 0 98.0685 14.5816 1430 89.8601 1212.33 479.997
18 0 102.073 15.1559 1547 87.9813 1212.87 479.165
19 0 105.161 15.3764 1617 92.1756 1212.04 475.675
20 0 108.073 14.444 1561 93.5939 1211.84 472.397
21 0 114.067 14.9912 1710 90.0749 1211.02 471.774
22 0 116.092 15.014 1743 89.8193 1211.94 470.848
23 0 121.094 14.9553 1811 89.4539 1211.58 468.46
24 0 125.08 14.3988 1801 91.9783 1211.53 467.712
25 0 128.085 15.0369 1926 91.161 1211.78 465.484
26 0 133.084 15.0281 2000 93.242 1211.49 462.157
27 0 137.094 15.2888 2096 91.8874 1211.38 459.816
28 0 140.09 15.54 2177 90.9614 1211.51 460.038
29 0 147.206 15.6991 2311 91.7347 1210.91 457.634
30 0 150.126 14.8276 2226 93.5341 1211.31 456.061
31 0 155.148 14.7665 2291 90.7922 1211.19 453.28
32 0 158.076 14.7651 2334 88.5835 1210.4 452.299
33 0 165.114 14.9654 2471 86.7378 1210.65 449.697
34 0 171.148 14.8234 2537 86.8506 1210.43 445.153
35 1 91.0224 13.4912 1228 88.364 1211.34 485.912
36 0 93.0756 13.7952 1284 88.2617 1210.33 482.079
37 0 98.0366 13.4542 1319 91.561 1210.67 479.652
38 0 102.069 14.3041 1460 88.7267 1210.3 477.91
39 0 106.099 14.2603 1513 88.77 1210.81 474.832
40 0 110.12 13.8395 1524 89.8694 1210.57 473.852
41 0 113.108 14.3668 1625 88.5822 1210.17 471.604
42 0 118.141 14.2372 1682 88.2313 1210.26 467.707
43 1 64.0702 12.1429 778 88.7815 1209.84 496.195
44 0 65.0831 13.5058 879 86.0671 1209.78 495.77
45 0 67.0277 12.9946 871 87.4386 1209.91 492.972
46 0 69.093 13.5035 933 86.2894 1209.67 491.892
47 0 73.1053 13.6926 1001 87.6533 1210.38 490.957
48 0 75.0791 13.5324 1016 89.3967 1210.73 489.484
49 0 77.0896 13.4908 1040 90.7788 1211.12 488.241
50 0 80.0787 13.8739 1111 89.7984 1210.45 487.186
51 0 84.0461 13.5045 1135 91.2793 1211.03 486.286
52 0 84.0461 13.5045 1135 139.05 1211.03 486.259
53 0 92.1375 14.8691 1370 88.1759 1210.21 481.944
54 0 94.1373 14.4151 1357 89.6109 1210.07 479.304
55 0 99.1204 14.9011 1477 87.3209 1210.68 478.946
56 1 52.0632 12.4656 649 87.8752 1210.76 500.069
57 0 53.1863 12.9357 688 87.9797 1210.67 498.807
58 0 54.0731 12.5571 679 88.9602 1211.01 499.664
59 0 56.2315 13.6756 769 85.9506 1210.88 497.592
60 0 59.1491 13.5251 800 83.8225 1210.38 496.821
61 0 60.0153 13.2799 797 78.6562 1210.46 499.932
62 0 61.0157 13.4883 823 78.6403 1211.12 498.588
63 0 62.0363 12.9279 802 80.9339 1210.87 497.769
64 0 63.0427 12.785 806 81.706 1211.11 498.696
65 0 66.0955 12.7089 840 81.3833 1210.78 496.945
66 0 68.0451 12.9914 884 81.2907 1210.92 496.372
67 0 70.028 12.9377 906 82.1954 1210.43 495.944
68 0 74.0601 13.03 965 81.8124 1209.9 493.852
69 0 76.0425 13.1637 1001 81.6893 1209.97 493.276
70 0 80.0503 13.6414 1092 79.9139 1210.58 491.928
71 0 81.0872 13.7013 1111 80.9469 1210.55 490.14
72 0 84.1024 12.889 1084 81.6421 1210.15 488.381
73 0 86.1064 12.7865 1101 82.0054 1210.37 487.709
74 0 90.0568 13.5359 1219 80.5472 1210.31 484.635
75 0 93.1083 13.35 1243 81.1408 1210.49 484.922
76 0 96.0567 13.1068 1259 82.0349 1210.32 481.559
77 0 99.0903 12.3826 1227 84.1263 1209.69 480.734
78 1 51.0433 12.3817 632 78.0491 1210.44 505.071
79 0 55.0298 12.0117 661 77.4826 1209.66 504.691
80 0 57.0339 12.7117 725 76.5917 1210.81 502.628
81 0 55.0151 11.6877 643 80.0871 1211.08 502.426
82 0 58.0531 12.3335 716 77.6397 1210.9 501.522
83 0 61.0276 12.3223 752 77.7886 1210.82 498.669
84 0 61.0577 12.0214 734 79.2616 1210.94 498.563
85 0 66.0347 12.2057 806 78.9789 1210.81 497.445
86 0 66.0477 12.5515 829 78.953 1210.53 495.739
87 0 70.0664 12.9877 910 76.4659 1211.06 494.366
88 0 72.0349 12.9659 934 77.0921 1211.07 492.925
89 0 75.0686 13.6941 1028 76.1099 1210.64 491.844
90 0 78.0698 13.6672 1067 81.3768 1210.81 488.351
91 0 82.0844 14.3633 1179 78.5182 1210.68 487.612
92 0 83.0433 13.8241 1148 79.7997 1210.84 486.026
93 0 85.1084 13.2772 1130 80.8425 1210.34 486.312
94 0 88.0563 13.798 1215 80.577 1211.05 483.543
95 0 90.0729 13.2004 1189 81.9546 1210.07 482.078
96 0 93.1371 13.711 1277 81.3759 1210.33 481.147
97 0 97.0819 13.8852 1348 81.4822 1209.39 480.855
98 0 101.106 13.8864 1404 80.9558 1210.19 479.676
99 0 104.16 13.3641 1392 82.9246 1209.55 476.448
100 0 108.261 13.9201 1507 82.0319 1209.77 473.914
101 0 111.399 13.6356 1519 86.9414 1209.99 469.497
102 1 60.369 12.142 733 83.9482 1209.18 496.329
103 0 61.05 11.7609 718 80.9471 1209.88 499.981
104 0 65.0923 11.645 758 82.8443 1210.65 498.216
105 0 64.0484 12.4437 797 77.8143 1210.48 496.689
106 0 68.0599 12.8122 872 77.1135 1210.41 495.901
107 0 69.0213 12.2716 847 78.7851 1209.86 493.994
108 0 72.0368 12.1188 873 79.3058 1210.22 493.006
109 0 74.033 12.643 936 78.11 1209.9 490.969
110 0 77.085 11.9089 918 79.6656 1210.07 490.166
111 0 78.0156 12.4462 971 80.3635 1210.98 487.714
112 0 80.0744 12.4259 995 80.4372 1210.42 486.902
113 0 83.1016 12.2501 1018 81.8536 1210.5 484.481
114 0 86.0948 13.1831 1135 80.4802 1210.38 484.465
115 0 90.1709 12.809 1155 80.3316 1210.26 482.049
116 0 90.1618 12.5996 1136 81.2491 1210.41 480.983
117 0 94.2642 12.8044 1207 79.106 1209.97 478.726
118 1 47.1722 11.1718 527 74.5901 1209.65 503.62
119 0 48.3188 11.7966 570 74.6404 1210.45 501.161
120 0 50.2784 11.2971 568 77.1866 1209.55 499.864
121 0 53.2628 12.4102 661 79.3676 1209.66 499.814
122 0 53.0663 12.3431 655 77.4321 1210.52 500.916
123 0 52.0983 11.6703 608 71.3076 1210.57 503.005
124 0 53.0707 11.8333 628 72.0143 1211.11 504.191
125 0 57.0516 11.3581 648 72.8503 1210.6 500.969
126 0 59.0528 12.1417 717 73.0962 1210.19 500.194
127 0 59.1109 11.9098 704 75.0923 1210.03 499.696
128 0 62.0656 11.4395 710 76.2648 1210.38 498.438
129 0 65.0846 11.8307 770 75.9403 1209.74 496.892
130 0 67.0976 12.3998 832 76.1767 1209.75 494.962
131 0 69.072 12.0599 833 76.5894 1209.33 494.81
132 0 71.0525 12.4837 887 76.274 1209.47 493.356
133 0 73.0547 12.1005 884 75.6889 1209.67 492.93
134 0 76.0708 12.4489 947 76.3886 1210.12 490.706
135 0 80.0567 12.0539 965 75.457 1209.94 487.297
136 0 81.0764 12.5191 1015 74.5626 1210 487.443
137 0 83.0618 12.0513 1001 76.2248 1209.67 484.982
138 0 86.067 11.9907 1032 77.0213 1209.02 483.79
139 0 91.0673 12.3096 1121 76.3889 1209.42 483.997
140 0 91.0517 12.5204 1140 76.7561 1209.33 481.616
141 0 95.1142 11.6176 1105 77.4299 1208.66 479.883
142 0 98.1071 11.9257 1170 76.6795 1209.04 479.673
143 0 103.056 12.6921 1308 74.3784 1208.77 478.057
144 0 104.09 12.1145 1261 75.9381 1209 475.298
145 0 110.237 12.6001 1389 75.1634 1208.4 472.31
146 0 113.1 12.1839 1378 75.3752 1208.94 470.406
147 0 118.191 12.8351 1517 74.4212 1208.22 467.979
148 0 121.212 12.012 1456 78.3063 1207.93 466.556
149 0 124.125 12.713 1578 77.6096 1208.75 463.499
150 0 130.167 13.3136 1733 77.2493 1208.29 459.313
151 1 73.0791 10.5639 772 75.6075 1209.12 492.196
152 0 75.0566 11.1249 835 76.9677 1208.46 489.347
153 0 78.0732 11.0409 862 78.0974 1208.66 487.748
154 0 81.0491 11.783 955 77.8325 1208.02 486.163
155 0 83.06 11.8228 982 78.4196 1208.54 486.082
156 0 84.0632 11.9434 1004 80.5349 1208.34 486.375
157 0 88.0651 12.1842 1073 79.9935 1208.7 483.381
158 0 90.0752 12.1565 1095 80.9781 1208.91 483.137
159 0 90.0401 11.8503 1067 72.5398 1208.13 485.082
160 0 91.0706 11.0903 1010 76.5069 1208.56 483.624
161 0 96.0592 11.6595 1120 76.0446 1208.72 482.289
162 0 99.0932 11.474 1137 76.3685 1208.62 480.303
163 0 102.051 11.3375 1157 77.2723 1208.56 478.733
164 0 105.095 11.9131 1252 77.5966 1209.15 477.79
165 0 108.125 11.6254 1257 78.3699 1209.25 475.936
166 0 111.057 12.2549 1361 79.3005 1208.91 474.53
167 0 115.087 11.8519 1364 80.937 1208.67 471.23
168 0 118.106 12.3617 1460 81.724 1209.4 467.508
169 0 118.183 11.3552 1342 83.7161 1209.6 466.72
170 0 122.12 11.4396 1397 83.4596 1209.56 464.428
171 0 127.127 11.6498 1481 82.9642 1210.35 462.033
172 0 132.084 12.4012 1638 79.707 1209.93 459.542
173 0 136.091 11.8891 1618 83.1829 1210.47 457.147
174 0 143.153 12.8953 1846 82.7416 1209.89 454.151
175 0 145.165 13.0403 1893 86.1743 1209.13 452.3
176 0 150.184 13.0773 1964 86.2795 1209.95 451.019
177 0 155.337 13.0233 2023 87.7059 1209.14 448.076
178 0 160.199 13.1524 2107 87.1747 1209.61 444.619
179 0 163.234 13.0059 2123 88.7235 1209.92 441.306
180 0 167.321 12.3595 2068 90.442 1210.38 433.497
181 0 177.348 13.9105 2467 86.3474 1210.21 437.729
182 0 180.238 13.5321 2439 90.0828 1210.23 435.937
183 0 187.273 13.6965 2565 88.7404 1209.67 432.147
184 0 191.286 13.9738 2673 88.5095 1209.62 426.796
185 0 196.226 14.0552 2758 91.5736 1209.66 425.893
186 0 202.145 13.3963 2708 90.3678 1209.77 423.453
187 0 209.239 13.855 2899 91.9583 1209.17 419.281
188 0 215.207 13.4707 2899 90.2732 1209.86 412.487
189 0 223.29 14.0848 3145 91.0722 1210.32 411.707
190 1 173.31 11.0149 1909 88.8455 1210.63 435.113
191 0 181.335 12.794 2320 93.281 1209.75 435.266
192 0 184.284 12.4156 2288 89.9895 1209.28 433.327
193 0 191.228 11.5621 2211 84.863 1208.02 433.439
194 0 197.221 10.9167 2153 84.1301 1208.14 426.288
195 0 204.281 11.1366 2275 88.9701 1208.44 422.69
196 0 212.246 12.2311 2596 86.8941 1208.11 421.854
197 0 219.38 11.7331 2574 88.4134 1208.16 413.669
198 0 228.329 12.1404 2772 87.9794 1208.29 411.272
199 0 236.393 12.4285 2938 88.4735 1207.78 404.584
200 0 244.412 12.7039 3105 87.6744 1207.84 400.344
201 1 61.0336 10.2403 625 74.7696 1210.09 499.302
202 0 63.1548 10.6089 670 92.7896 1209.69 496.769
203 0 63.0557 11.0537 697 93.0875 1208.92 494.809
204 0 59.0474 8.92504 527 85.7021 1209.46 500.26
205 0 62.133 9.47966 589 86.0136 1209.6 498.211
206 0 62.133 9.41528 585 114.761 1209.62 498.33
207 0 64.1004 9.31351 597 87.1625 1209.44 497.859
208 0 67.1062 9.01556 605 85.962 1209.92 497.641
209 0 70.0744 9.88949 693 84.342 1208.71 495.317
210 0 71.1125 9.87168 702 83.4516 1209.33 493.006
211 0 73.118 10.0386 734 81.4305 1208.68 493.357
212 0 77.1665 10.0173 773 79.3118 1208.53 493.103
213 0 79.1239 9.33978 739 80.41 1207.62 490.503
214 0 82.1645 10.0773 828 79.3152 1207.78 489.393
215 1 44.1194 8.68099 383 78.6136 1208.03 507.747
216 0 46.0587 10.0741 464 77.7435 1207.67 506.241
217 0 47.0317 10.78 507 76.5424 1207.28 504.822
218 0 50.067 10.8055 541 75.6858 1209.18 503.617
219 0 42.0555 8.41746 354 68.322 1208.16 492.475
220 0 43.0466 9.52455 410 67.839 1207.32 492.563
221 1 56.0665 11.3972 639 88.2629 1206.24 499.463
222 0 55.0116 10.8704 598 91.6221 1206.68 500.41
223 0 56.0603 11.2379 630 92.8698 1207.14 499.398
224 0 62.0345 11.6548 723 91.8783 1207.38 496.92
225 0 64.0388 12.4768 799 91.6508 1207.42 496.473
226 0 67.0384 12.56 842 91.2625 1207 496.3
227 0 68.0319 12.744 867 90.9619 1207.03 494.807
228 0 68.0275 12.4362 846 93.0532 1207.07 495.361
229 0 72.0904 13.4831 972 91.3035 1206.91 493.069
230 0 72.0212 12.6213 909 94.8515 1207.65 493.77
231 0 73.0698 13.056 954 95.7799 1207.32 492.521
232 0 74.1731 13.064 969 97.1135 1207.94 491.421
233 0 78.1467 12.8348 1003 97.4217 1207.92 491.935
234 0 78.0588 12.2856 959 99.6267 1208.54 487.886
235 0 77.1638 11.7283 905 101.552 1207.96 485.09
236 0 80.1248 11.532 924 101.749 1208.6 482.558
237 0 81.1519 11.2505 913 103.066 1207.69 481.562
238 0 84.0695 11.324 952 102.997 1206.4 482.43
239 0 89.049 12.2068 1087 99.2236 1206.72 479.997
240 0 93.107 11.911 1109 99.3282 1206.8 480.908
241 0 97.1035 13.326 1294 93.041 1207.11 482.043
242 0 100.136 12.0336 1205 89.8324 1206.8 477.866
243 0 102.219 10.5655 1080 91.4907 1207.43 476.897
244 1 54.0229 11.9764 647 91.4915 1206.17 501.538
245 0 57.0573 12.058 688 91.048 1206.47 500.94
246 0 59.0394 11.6532 688 90.718 1206.3 501.281
247 0 59.0394 11.6363 687 155.491 1207.29 501.172
248 0 61.0169 12.3081 751 87.9987 1206.35 499.632
249 0 62.0368 11.606 720 89.4333 1206.27 498.006
250 0 63.0705 12.1927 769 87.3108 1206.88 497.641
251 0 63.1265 11.9443 754 88.3767 1208.09 496.379
252 0 67.1094 12.4275 834 84.0264 1207.9 496.265
253 0 70.0489 12.1058 848 80.612 1206.18 495.416
254 0 71.084 13.4489 956 79.8734 1208 493.26
255 0 72.1827 12.5099 903 82.6899 1208.19 493.669
256 0 72.1434 12.3088 888 85.7849 1207.58 491.528
257 0 76.1941 12.4288 947 84.7793 1207.77 491.549
258 0 78.2147 12.4913 977 84.8147 1208.39 490.843
259 0 80.2063 11.9941 962 85.738 1208.07 489.388
260 0 79.1981 10.9472 867 91.7266 1207.59 485.108
261 0 86.1521 12.8958 1111 86.2223 1207.93 486.528
262 0 88.1562 12.682 1118 88.017 1207.94 486.069
263 0 89.1449 12.3731 1103 89.8849 1207.83 483.704
264 0 92.1737 13.2033 1217 87.7017 1207.27 482.806
265 0 95.197 13.0256 1240 89.9379 1207.53 481.233
266 0 98.1307 13.0133 1277 89.7588 1206.96 479.934
267 0 101.088 12.6623 1280 88.0812 1206.57 478.366
268 0 103.129 12.4116 1280 88.2797 1206.99 476.012
269 0 106.105 12.6384 1341 89.8218 1206.19 476.517
270 0 110.151 12.9368 1425 90.146 1206.22 474.851
271 1 59.0574 10.7861 637 83.9639 1206.07 500.359
272 0 59.0242 10.3178 609 82.931 1206.3 499.993
273 0 63.1242 11.7863 744 81.4852 1206.71 498.642
274 0 63.1546 11.6698 737 74.2632 1207.74 499.607
275 0 66.1542 11.6697 772 75.4326 1207.55 495.847
276 0 69.1301 12.368 855 74.9006 1207.38 496.119
277 0 71.1481 12.1577 865 76.696 1207.6 495.289
278 0 73.1261 12.3349 902 75.4723 1208 492.877
279 0 75.0543 12.4177 932 71.5783 1206.98 493.965
280 0 79.0553 12.0928 956 73.1642 1207.6 491.793
281 0 81.1099 12.6618 1027 73.4041 1207.65 490.672
282 0 82.1032 12.4112 1019 77.8175 1207.53 488.576
283 0 87.0375 12.1557 1058 79.5113 1207.89 487.863
284 1 43.0486 9.96547 429 76.3054 1208.2 509.35
285 0 46.0624 10.8331 499 75.3347 1208.37 508.906
286 0 46.0472 9.92461 457 77.3676 1208.27 508.67
287 0 49.0538 10.4987 515 77.9534 1208.71 506.064
288 0 49.1184 11.2789 554 77.7274 1208.08 504.522
289 0 52.039 11.7988 614 77.3681 1207.34 504.806
290 0 53.0551 11.6294 617 80.7682 1208.17 503.186
291 0 55.0705 11.1312 613 82.2594 1208.28 503.677
292 0 57.0792 11.5804 661 80.0802 1208 503.21
293 0 57.0346 11.0635 631 81.1632 1208.43 503.908
294 0 58.0627 11.9526 694 80.2435 1207.76 501.389
295 0 59.1404 11.3966 674 81.9065 1207.28 501.312
296 0 60.1023 11.4804 690 81.9362 1207.19 500.341
297 0 63.1161 11.36 717 82.583 1206.69 498.884
298 0 64.1009 11.1855 717 82.166 1207.62 498.403
299 0 68.0542 11.5937 789 80.8213 1207.32 497.785
300 0 70.1106 11.7101 821 80.7052 1206.74 496.395
301 0 72.0921 11.3189 816 82.7439 1207.23 493.812
302 0 74.1194 11.8862 881 82.328 1207.4 491.927
303 0 77.1028 11.5949 894 81.9072 1207.41 491.334
304 0 80.0881 11.0878 888 76.9077 1207.22 490.534
305 0 84.0716 11.5259 969 73.9309 1207.03 489.254
306 0 86.049 11.0518 951 74.2177 1206.66 486.498
307 0 88.0579 11.0041 969 74.8493 1206.41 487.562
308 0 93.1288 11.4465 1066 73.5347 1206.73 484.659
309 1 48.0262 10.286 494 72.8036 1206.26 509.117
310 0 47.0088 10.2108 480 74.6896 1206.35 507.058
311 0 49.0242 10.9946 539 74.2635 1206.68 505.729
312 0 54.0383 11.6769 631 75.3185 1206.61 505.304
313 0 51.0983 10.2939 526 73.7053 1207.72 508.869
314 0 50.1381 10.3913 521 74.2495 1208.31 508.027
315 0 54.1431 10.1952 552 74.2554 1208.08 506.388
316 0 54.0381 10.4371 564 74.9113 1206.48 506.064
317 0 58.0306 10.3049 598 74.2291 1206.55 504.684
318 0 59.056 10.2106 603 74.6716 1206.17 505.093
319 0 60.1004 9.93338 597 75.9296 1205.98 505.342
320 0 63.0397 11.4055 719 73.6481 1206.43 503.188
321 0 65.0887 10.8314 705 73.7887 1206.85 502.495
322 0 66.0542 10.6276 702 74.9259 1206.15 501.665
323 0 69.042 10.8774 751 74.4394 1206.21 501.116
324 0 69.0391 10.8055 746 121.639 1206.19 501.181
325 0 73.103 10.6836 781 74.8156 1205.5 498.184
326 0 77.1131 10.9579 845 73.9337 1205.79 498.851
327 0 79.1118 9.70778 768 76.556 1206.8 495.565
328 0 82.1258 11.3484 932 74.3659 1205.94 494.578
329 0 86.2794 10.8601 937 74.9029 1206.26 492.874
330 1 45.0349 9.97004 449 75.8062 1206.9 513.102
331 0 47.0243 11.4409 538 73.7881 1207.13 511.926
332 0 49.1084 11.2201 551 74.2976 1206.7 509.969
333 0 51.0196 11.1134 567 75.873 1206.62 507.414
334 0 52.0879 10.7895 562 74.2473 1205.78 507.788
335 0 53.0152 11.4684 608 75.6118 1205.88 506.967
336 0 56.0485 13.0066 729 71.6763 1206.72 506.654
337 0 58.027 12.2702 712 72.9185 1205.87 506.492
338 0 59.1273 11.5852 685 73.3314 1206.35 505.746
339 0 60.0556 11.6559 700 74.9586 1206.16 505.436
340 0 62.0377 12.573 780 73.4487 1205.66 504.492
341 0 63.0926 12.7749 806 74.6935 1205.78 503.042
342 0 66.0988 12.9049 853 74.8453 1205.81 503.308
343 0 67.0877 12.9085 866 76.1039 1204.92 502.788
344 0 67.0498 13.3334 894 77.9374 1204.86 501.543
345 0 69.0423 13.5424 935 77.292 1203.44 501.297
346 0 73.0929 13.1887 964 77.9741 1203.39 499.896
347 0 75.0943 13.0636 981 79.4037 1203.37 496.905
348 0 75.0692 13.0013 976 79.9877 1202.75 496.436
349 0 78.0921 13.4072 1047 80.7584 1203.27 494.654
350 0 80.0906 13.26 1062 80.2326 1204.03 493.176
351 0 83.1065 12.9112 1073 80.9702 1203.39 492.791
352 0 87.0444 13.4414 1170 79.4897 1203.01 492.521
353 0 89.1142 13.6903 1220 79.8689 1203.33 490.859
354 0 92.1054 13.3543 1230 81.2057 1203.15 488.776
355 0 94.043 13.0047 1223 82.072 1203.01 487.734
356 0 95.162 13.8185 1315 81.9863 1202.94 487.956
357 1 50.0678 11.025 552 85.6703 1203.32 511.082
358 0 51.0447 12.5772 642 86.8847 1204.7 508.364
359 0 50.0336 10.8727 544 81.568 1204.35 505.934
360 0 54.1116 12.5851 681 96.3774 1203.86 507.073
361 0 55.1516 12.6741 699 95.9514 1203.58 507.089
362 0 56.0703 12.627 708 96.7161 1203.62 504.959
363 0 58.0724 13.2593 770 92.0545 1204.33 505.39
364 0 57.1162 12.4308 710 96.8704 1205.04 504.78
365 0 56.0921 12.1229 680 84.5324 1205.09 507.484
366 0 59.0711 11.6131 686 85.4534 1204.28 507.609
367 0 61.0424 11.9261 728 86.2871 1205.2 504.418
368 0 63.0949 11.6174 733 86.0109 1204.94 502.539
369 0 63.108 11.2347 709 88.0917 1205.73 502.267
370 0 64.0788 10.9084 699 89.2232 1205.32 498.079
371 0 69.0416 12.9053 891 86.4186 1205.23 498.51
372 0 72.0322 12.6888 914 88.4256 1204.54 497.216
373 0 75.0613 13.096 983 88.3571 1204.32 496.498
374 0 78.0519 12.9401 1010 89.1218 1204.8 495.105
375 0 81.0436 13.4495 1090 89.3853 1205.14 494.528
376 0 81.0459 12.7829 1036 92.3176 1204.8 490.745
377 0 83.0233 11.5871 962 92.9719 1205.32 485.767
378 0 88.0347 12.7563 1123 95.4381 1205.22 487.898
379 0 89.1032 13.0523 1163 102.013 1205.71 486.082
380 0 92.0764 12.6634 1166 102.889 1205.63 484.413
381 0 97.0747 12.8149 1244 100.832 1205.2 483.918
382 0 99.113 12.2386 1213 100.646 1205.19 481.973
383 1 51.1044 11.5646 591 88.0998 1205.09 507.455
384 0 52.0618 11.5824 603 87.1874 1205.28 506.177
385 0 54.0394 11.8247 639 86.1581 1205.35 504.961
386 0 57.0906 12.2962 702 83.5242 1205.59 504.986
387 0 57.0363 11.9222 680 86.5294 1206.04 503.546
388 0 58.0248 11.7708 683 87.2167 1206.18 503.587
389 0 60.0404 11.1925 672 89.381 1205.99 502.961
390 0 61.0676 11.6265 710 88.3972 1205.7 501.948
391 0 64.0119 12.1852 780 87.8436 1205.65 499.35
392 0 66.0331 11.8274 781 89.2907 1205.83 498.423
393 0 68.0561 12.0342 819 90.033 1206.5 496.47
394 0 69.0262 11.5174 795 90.5723 1206.32 495.753
395 0 73.0664 12.4134 907 87.6439 1206.59 495.319
396 0 75.0406 11.7536 882 88.8764 1206.69 492.38
397 1 39.0174 10.1237 395 84.3266 1206.7 512.106
398 0 41.0088 10.8513 445 81.427 1206.84 512.726
399 0 43.0113 11.0669 476 80 1207.34 511.716
400 0 44.0089 12.4293 547 77.6124 1207.6 509.477
401 0 45.1193 11.525 520 80.375 1208.48 507.292
402 0 46.0248 11.6024 534 80.9644 1207.06 507.927
403 0 47.0595 11.8786 559 83.3542 1207.42 507.428
404 0 49.1034 12.8912 633 80.6667 1207.48 507.155
405 0 49.0885 12.3858 608 82.8602 1207.32 509.587
406 0 51.0395 12.1866 622 83.3055 1206.9 508.395
407 0 51.1575 12.4322 636 83.3931 1207.37 507.794
408 0 54.1121 12.4741 675 79.2 1207.48 506.916
409 0 51.1247 11.1883 572 84.8881 1207.56 508.108
410 0 56.1219 11.9027 668 81.7665 1207.12 504.795
411 0 56.1058 11.5674 649 82.5963 1206.43 505.287
412 0 57.0711 11.547 659 82.7162 1207.12 504.942
413 0 60.0806 11.884 714 81.7339 1205.9 502.063
414 0 61.0751 12.018 734 81.2929 1205.88 503.187
415 0 65.0663 12.08 786 80.4008 1205.87 500.854
416 0 66.0255 11.7076 773 80.4838 1206.45 499.175
417 0 71.0551 11.864 843 78.7556 1206.46 497.874
418 0 74.0767 13.1755 976 76.2705 1206.32 497.223
419 0 75.0789 12.5868 945 77.9132 1205.91 493.948
420 0 79.0408 12.386 979 77.5608 1206.07 493.129
421 0 80.0375 11.657 933 80.627 1206.2 491.951
422 0 84.0755 11.8346 995 80.7628 1206.12 490.74
423 0 86.0626 12.0145 1034 80.6006 1206.47 489.097
424 0 91.0777 11.9129 1085 80.4074 1205.19 485.849
425 1 44.0127 10.8378 477 81.1803 1206.22 509.784
426 0 46.035 11.4478 527 81.3567 1206.35 510.438
427 0 46.0259 11.537 531 92.0527 1206.07 507.783
428 0 46.0499 10.9012 502 82.9303 1205.44 509.464
429 0 47.0785 11.0666 521 82.6603 1205.61 507.745
430 0 50.0305 10.9933 550 80.8182 1205.47 508.255
431 0 50.0224 11.3349 567 80.3457 1205.06 508.554
432 0 51.0926 10.8822 556 79.7878 1204.54 508.304
433 0 54.0633 11.542 624 77.9343 1205.2 506.885
434 0 57.083 10.7212 612 79.8971 1205.53 504.708
435 0 57.052 10.4641 597 80.8543 1205.76 504.642
436 0 60.0282 11.328 680 78.6882 1205.14 503.641
437 0 62.0478 11.3783 706 78.9108 1205.27 503.302
438 0 66.028 11.5406 762 75.6824 1205.44 501.888
439 0 68.0531 11.7261 798 75.1003 1205.57 500.378
440 0 71.0728 12.0721 858 75.6807 1204.56 500.591
441 0 73.0345 11.9943 876 75.6998 1205.24 499.796
442 0 77.0601 12.912 995 75.7045 1206.49 496.828
443 0 79.0637 12.7492 1008 78.0347 1206.25 494.464
444 0 82.1577 12.8168 1053 78.661 1206.43 493.903
445 0 84.0477 12.838 1079 78.43 1206.57 491.919
446 0 88.0566 13.2301 1165 79.4326 1206.73 491.037
447 0 90.0431 13.0493 1175 80.3583 1205.94 489.481
448 1 49.0272 12.2789 602 80.4817 1206.64 509.679
449 0 51.0094 11.9194 608 79.4671 1206.65 508.965
450 0 53.0399 12.2361 649 76.5146 1205.91 508.888
451 0 54.1182 13.2673 718 74.8189 1206.94 507.66
452 0 55.1294 12.7881 705 76.4014 1207.24 506.423
453 0 58.1398 12.814 745 75.753 1206.77 504.932
454 0 58.1393 12.1433 706 77.8584 1207.6 504.244
455 0 60.1213 12.375 744 77.254 1207.01 504.185
456 0 63.1433 12.9863 820 76.239 1207.45 502.455
457 0 63.1301 12.6247 797 76.5621 1207.46 502.078
458 0 65.1093 13.0703 851 75.0435 1207.35 501.266
459 0 66.0435 12.3858 818 76.6577 1207.1 500.758
460 0 71.0923 13.2082 939 74.1225 1207.41 498.662
461 0 72.0941 12.8166 924 75.3864 1207.75 498.002
462 0 75.1443 13.5206 1016 74.3819 1207.19 496.041
463 0 77.0831 13.2325 1020 74.6951 1207.15 494.569
464 0 77.0757 11.8585 914 78.2746 1207.89 496.357
465 0 79.2318 11.3969 903 77.134 1206.57 493.777
466 0 80.0897 11.0501 885 80.0949 1206.52 492.979
467 0 85.2264 11.8625 1011 78.3056 1206.15 491.074
468 0 87.1352 11.901 1037 78.9576 1205.49 490.265
469 1 47.0728 10.9617 516 80.0795 1206.47 508.516
470 0 48.1109 12.4088 597 78.0034 1206.92 508.973
471 0 50.0845 12.8183 642 78.4844 1206.12 507.246
472 0 51.1369 11.8896 608 80.875 1206.27 506.655
473 0 54.1362 12.487 676 91.9216 1206.45 505.355
474 0 49.1051 9.9786 490 85.7878 1207.03 507.657
475 0 53.0314 10.6352 564 86.7376 1206.54 506.138
476 0 53.0292 11.0128 584 86.9127 1206.47 505.2
477 0 57.033 11.2742 643 85.8849 1205.95 504.76
478 0 58.0176 11.5137 668 86.4671 1206.52 503.94
479 0 60.0512 11.2904 678 86.3732 1206.37 503.842
480 0 62.0975 11.2887 701 86.0585 1205.45 501.678
481 0 62.1379 10.9112 678 87.3525 1205.89 501.28
482 0 65.0669 11.7418 764 85.0969 1206.04 500.766
483 0 69.1103 11.2718 779 85.2439 1205.21 498.651
484 0 70.0748 11.1452 781 86.0704 1204.87 496.79
485 0 73.0933 11.629 850 84.5941 1205.47 495.085
486 0 75.0807 11.5076 864 84.1736 1205.08 495.256
487 0 78.1014 11.6003 906 83.4437 1205.42 492.499
488 0 80.2306 10.6692 856 84.3785 1204.91 491.506
489 0 84.2019 12.0069 1011 80.1869 1204.91 488.369
490 0 87.2315 11.6586 1017 80.7817 1204.47 487.76
491 0 90.252 12.2989 1110 81.9063 1205.24 484.049
492 1 48.1269 10.5762 509 81.0472 1205.83 509.884
493 0 48.1667 11.5432 556 79.0414 1206.06 508.349
494 0 51.2128 11.1496 571 79.9807 1204.97 506.399
495 0 50.0561 11.4871 575 81.7165 1205.2 506.278
496 0 53.1229 11.8593 630 79.9 1205.44 505.559
497 0 55.151 11.7858 650 82.3877 1205.54 503.346
498 0 57.174 12.016 687 82.2751 1205.33 503.523
499 0 58.1305 11.9731 696 83.9641 1205.59 503.034
500 0 62.1556 12.163 756 83.0807 1205.34 502.173
501 0 62.1556 12.1309 754 135.267 1205.36 502.196
502 0 67.126 12.052 809 86.8925 1204.6 499.981
503 0 66.0861 11.8482 783 87.8736 1205.54 498.395
504 0 66.1208 11.6454 770 86.374 1205.72 498.251
505 0 71.1265 11.7678 837 84.6798 1205.08 496.74
506 0 75.1188 11.6615 876 85.96 1205.04 494.519
507 0 79.2236 12.6982 1006 84.6312 1204.09 492.349
508 0 81.2943 11.9074 968 87.8967 1203.94 489.785
509 0 85.2776 12.6528 1079 85.4374 1204.27 489.678
510 0 85.1223 11.5598 984 90.6789 1204.28 489.026
511 0 89.1038 11.784 1050 90.4848 1204.94 487.629
512 0 93.2328 12.3562 1152 89.822 1204.05 485.284
513 0 97.2428 12.7516 1240 89.6556 1204.45 481.544
514 0 98.3257 12.2857 1208 91.7508 1204.04 480.618
515 0 101.254 13.0168 1318 90.6366 1204.6 478.492
516 0 105.243 11.8013 1242 92.4412 1204 477.776
517 0 104.316 12.2033 1273 93.762 1203.7 480.062
518 1 56.1212 11.7781 661 85.121 1203.42 502.743
519 0 59.143 12.0724 714 86.4342 1203.96 500.171
520 0 59.143 11.9879 709 147.661 1203.95 500.212
521 0 62.0586 12.4399 772 87.3135 1204.11 501.255
522 0 63.0675 11.6225 733 88.2592 1205.26 502.48
523 0 64.1434 12.2382 785 84.5159 1205.61 500.629
524 0 67.1657 12.3575 830 84.3036 1205.32 500.169
525 0 67.0693 12.6735 850 84.7553 1205.56 499.455
526 0 69.0845 11.855 819 89.1123 1205 498.998
527 0 72.1023 12.0801 871 88.7796 1204.88 497.837
528 0 76.0866 12.5252 953 84.5887 1204.76 496.083
529 0 78.0402 12.2629 957 83.6729 1205.18 495.036
530 0 80.0617 12.7901 1024 82.3662 1204.02 494.665
531 0 80.0626 11.9406 956 84.6831 1204.18 494.708
532 0 85.0612 12.7555 1085 85.4544 1204.66 491.519
533 0 88.1337 13.3207 1174 84.2368 1204.13 489.255
534 0 89.1208 12.5672 1120 86.025 1203.39 488.931
535 0 92.1012 13.268 1222 83.8502 1203.94 488.325
536 0 94.2684 13.1327 1238 84.7213 1203.99 487.573
537 0 95.1928 11.1563 1062 84.9991 1204.26 486.249
538 0 98.0843 11.1129 1090 86.1826 1204.64 484.829
539 0 101.15 11.6856 1182 83.3223 1204.71 483.648
540 0 102.121 10.938 1117 86.5962 1205.03 483.288
541 0 104.083 11.1641 1162 85.4561 1204.94 481.765
542 0 107.086 11.1779 1197 84.9549 1204.29 480.612
543 0 110.128 11.4231 1258 86.5946 1203.96 479.625
544 0 114.085 11.1759 1275 87.1176 1203.66 476.765
545 0 117.052 10.8926 1275 86.7498 1203.92 477.557
546 0 120.084 11.5003 1381 85.8653 1203.68 474.344
547 0 124.093 10.8064 1341 89.7912 1204.02 472.969
548 0 129.1 11.1232 1436 89.9429 1203.13 469.394
549 1 75.0525 11.2854 847 85.2987 1204.24 497.179
550 0 77.0556 11.5761 892 83.6143 1204.03 494.101
551 0 80.0666 12.4022 993 80.6626 1204.09 492.447
552 0 82.0779 11.9399 980 79.5857 1205.06 492.247
553 0 85.1222 12.1355 1033 79.7725 1204.42 491.831
554 0 85.1198 12.0301 1024 81.2705 1204.64 489.472
555 0 91.1031 11.6132 1058 81.8885 1204.52 486.917
556 0 91.147 11.6186 1059 83.0038 1204.41 488.684
557 0 93.1291 10.8559 1011 84.9407 1204.6 486.938
558 0 94.1029 10.0528 946 87.6945 1203.94 486.209
559 0 96.1573 10.1916 980 88.2 1204.59 483.81
560 0 102.131 10.653 1088 86.8842 1204.88 479.915
561 0 101.137 10.5006 1062 88.5744 1205.15 478.164
562 0 107.065 10.5356 1128 91.3989 1204.73 477.206
563 0 114.198 12.2068 1394 86.8214 1204.8 476.835
564 0 116.192 12.445 1446 87.0512 1203.03 475.571
565 0 121.22 12.267 1487 87.7942 1203.56 473.769
566 0 124.237 12.3393 1533 88.0496 1203.46 471.997
567 0 128.148 12.6339 1619 87.1859 1203.63 469.407
568 0 132.214 12.805 1693 86.9982 1204.45 466.543
569 0 135.207 12.1813 1647 89.5343 1204.66 464.674
570 0 140.288 12.1892 1710 89.2895 1204.73 460.518
571 0 146.259 13.4146 1962 86.9618 1203.76 459.093
572 0 151.274 13.5384 2048 86.3135 1204.7 455.412
573 0 159.313 13.665 2177 85.9012 1204.9 453.775
574 0 161.327 13.3208 2149 96.1982 1204.16 445.915
575 0 165.321 12.6723 2095 98.5847 1203.96 445.448
576 0 171.333 13.2316 2267 97.8258 1203.83 441.79
577 0 178.347 13.2719 2367 96.9975 1203.4 439.936
578 0 182.37 12.9791 2367 101.27 1203.55 436.951
579 0 180.209 12.9461 2333 98.7874 1203.16 434.476
580 0 187.165 12.5451 2348 96.3654 1203.56 434.635
581 0 196.212 12.2724 2408 95.0137 1203.59 435.342
582 0 200.22 13.65 2733 96.4146 1203.61 426.388
583 1 148.22 12.5962 1867 98.9855 1202.98 445.978
584 0 155.14 13.9358 2162 95.4611 1203.69 447.498
585 0 162.28 13.2364 2148 96.4595 1203.15 443.989
586 0 167.292 13.593 2274 95.332 1203.42 441.254
587 0 176.352 13.785 2431 94.3143 1203.11 437.499
588 0 175.235 13.245 2321 95.8083 1202.76 431.587
589 0 186.308 13.6977 2552 92.9483 1203.71 430.337
590 0 191.445 13.5182 2588 94.8362 1203.66 424.572
591 0 197.417 13.6007 2685 95.3236 1202.55 419.786
592 1 210.411 13.8016 2904 95.2287 1202.79 422.365
593 1 46.0728 8.39975 387 73.1163 1204.52 502.217
594 0 49.05 8.88889 436 66.0596 1203.36 504.408
595 0 50.0644 8.76871 439 64.6082 1202.26 502.793
596 0 54.0474 9.45466 511 73.5499 1202.34 509.769
597 0 56.0378 10.8677 609 70.1593 1202.74 507.342
598 0 56.0061 10.8738 609 71.642 1202.58 506.621
599 0 57.0392 11.0275 629 71.2878 1201.73 506.817
600 0 60.0979 10.6992 643 70.605 1202.36 505.185
601 0 61.0479 10.7129 654 70.9495 1202.46 504.751
602 0 64.037 10.978 703 69.9815 1202.11 503.861
603 0 64.0402 10.5871 678 71.3466 1202.41 503.746
604 0 66.0586 11.1113 734 71.0027 1202.3 501.563
605 0 68.0893 10.3247 703 71.8578 1202.37 501.845
606 0 67.063 9.9757 669 73.9955 1202.3 501.466
607 0 69.14 10.4715 724 74.0442 1202.15 500.588
608 0 73.0926 10.5072 768 74.4896 1201.81 498.581
609 0 74.0712 10.0849 747 76.5797 1201.94 497.438
610 0 74.034 9.56317 708 76.4407 1201.81 498.088
611 0 76.1206 9.69514 738 76.3862 1202.27 498.107
612 0 79.0708 9.70016 767 77.1604 1202.49 494.922
613 1 45.0349 10.1033 455 72.5495 1201.89 512.756
614 0 45.0549 10.1432 457 69.1007 1202.19 512.871
615 0 47.0246 10.3137 485 67.6165 1201.44 512.443
616 0 47.0128 10.6992 503 65.4891 1201.74 510.829
617 0 45.091 8.69352 392 69.0459 1202.71 513.898
618 0 47.0558 10.2644 483 67.0663 1201.72 510.124
619 0 50.0789 10.9427 548 65.5821 1201.63 509.131
620 0 52.0291 10.8401 564 64.8245 1201.82 508.009
621 0 52.0315 10.5129 547 66.3346 1202.47 507.391
622 0 50.0447 9.69133 485 68.2495 1202.67 508.216
623 0 50.0801 8.90573 446 70.935 1203.45 508.126
624 0 54.0277 9.69874 524 69.9885 1203.41 506.723
625 0 57.0526 10.8496 619 68.3861 1203.52 507.669
626 0 57.0577 11.3044 645 70.924 1202.87 505.322
627 0 59.0378 10.5356 622 72.381 1202.46 505.405
628 0 59.0369 10.9084 644 72.8665 1201.72 504.831
629 0 60.0934 11.1659 671 73.3115 1202.26 503.164
630 0 63.0499 11.1975 706 74.5595 1203.6 502.055
631 0 64.1077 11.3559 728 75.7885 1203.5 501.831
632 0 67.0461 11.5592 775 75.3665 1202.75 500.968
633 0 69.0813 11.3924 787 76.9187 1203.41 501.048
634 0 71.1066 12.3898 881 76.3212 1203.18 500.128
635 0 74.1142 12.8315 951 77.1115 1203.06 497.942
636 0 76.1648 12.3154 938 80.194 1203.89 497.237
637 0 76.0982 12.2999 936 82.6549 1203.72 494.601
638 0 79.1382 11.9159 943 82.9979 1203.71 495.791
639 0 83.2231 12.5927 1048 83.2891 1203.56 492.781
640 0 88.3186 13.4513 1188 81.7214 1203.13 489.031
641 0 90.2593 13.9044 1255 82.7116 1202.97 487.7
642 0 95.1754 14.3104 1362 82.8407 1203.6 488.138
643 0 98.2842 14.3563 1411 84.1885 1203.66 485.206
644 1 51.1727 10.5721 541 96.7523 1203.67 506.664
645 0 53.1497 11.6463 619 96.1712 1203.7 507.501
646 0 54.074 12.2795 664 85.9563 1204.36 507.596
647 0 55.1985 12.4641 688 83.1875 1205.02 505.605
648 0 56.1423 13.5014 758 89.3021 1205.24 504.836
649 0 58.1501 13.3276 775 88.9742 1205.02 504.43
650 0 60.1537 13.6317 820 88.5207 1205.04 503.127
651 0 63.1499 13.0008 821 87.9403 1205 501.995
652 0 64.1532 13.7172 880 86.1341 1205.15 502.117
653 0 68.2376 14.0978 962 83.8503 1205.38 500.681
654 0 68.1533 13.7044 934 86.5021 1204.56 498.005
655 0 69.3208 13.8487 960 85.3344 1204.49 499.496
656 0 72.1965 13.6849 988 86.0213 1204.81 496.83
657 0 74.3183 13.6844 1017 87.2291 1205.04 495.121
658 0 76.2672 13.5183 1031 88.9583 1204.44 494.184
659 0 78.2827 13.4896 1056 88.4697 1204.97 493.702
660 0 82.2232 13.512 1111 88.405 1204.55 491.631
661 0 85.351 13.4152 1145 88.0777 1205.2 489.486
662 0 86.2466 13.96 1204 88.015 1204.89 487.98
663 0 91.2388 13.777 1257 88.1416 1205.06 486.072
664 0 94.2106 12.5357 1181 97.7324 1204.64 485.717
665 0 97.2449 12.8644 1251 97.1807 1204.83 483.392
666 1 47.0449 11.4996 541 94.4917 1206.64 508.399
667 0 50.0141 11.8567 593 91.5953 1205.21 506.585
668 0 53.0347 12.539 665 88.1609 1205.85 507.561
669 0 53.052 12.4783 662 76.497 1205.14 506.257
670 0 54.0356 13.4541 727 75.718 1204.41 505.558
671 0 55.0725 12.7468 702 78.8746 1205.11 504.142
672 0 56.056 12.5589 704 79.2884 1204.65 504.801
673 0 56.0341 12.4745 699 82.1717 1204.2 502.97
674 0 59.0892 12.7942 756 80.2963 1204.56 501.694
675 0 61.0378 13.0739 798 78.9223 1204.62 501.053
676 0 64.0963 12.9181 828 77.9058 1204.49 499.529
677 0 66.0856 13.7851 911 76.2909 1204.7 497.936
678 0 68.0449 13.2412 901 77.0566 1204.19 498.142
679 0 67.0598 12.72 853 79.8042 1204.27 497.421
680 0 71.0993 12.799 910 79.2022 1204.98 495.165
681 0 73.0411 13.0338 952 78.541 1204.41 494.399
682 0 76.0947 13.4438 1023 78.5083 1205.07 494.05
683 0 77.0871 13.0502 1006 80.1223 1205.2 492.272
684 0 81.0588 13.3607 1083 78.4746 1205.23 492.345
685 0 85.0813 13.4577 1145 78.6725 1205.49 491.384
686 0 88.1366 13.1954 1163 90.9347 1205.52 488.58
687 0 90.1001 12.7969 1153 92.7606 1205.35 486.787
688 0 94.0669 13.2565 1247 90.3352 1205.41 487.842
689 0 97.1115 12.6761 1231 92.9643 1205.7 486.12
690 0 101.086 13.3748 1352 90.7463 1205.91 484.871
691 1 53.048 11.7818 625 87.8992 1205.03 507.462
692 0 55.0496 11.862 653 86.2404 1204.8 505.807
693 0 57.0124 12.927 737 79.6974 1205.44 507.347
694 0 58.0538 12.0578 700 80.85 1205.13 505.004
695 0 60.0998 12.4792 750 76.4827 1206.06 503.831
696 0 62.0757 13.2258 821 74.056 1205.94 503.985
697 0 63.0467 11.8959 750 77.3773 1204.94 503.056
698 0 67.0468 12.4391 834 74.9652 1204.85 503.361
699 0 68.1316 12.2117 832 77.2103 1204.54 502.319
700 0 68.0298 12.3328 839 77.9356 1203.78 500.188
701 0 72.0513 12.616 909 76.6227 1204.5 500.172
702 0 75.0787 12.3604 928 77.819 1203.99 498.651
703 0 73.0569 11.1968 818 82.665 1204.24 498.911
704 0 77.0255 10.5679 814 83.8157 1204.09 498.259
705 0 80.0483 11.3182 906 81.8664 1204.2 496.445
706 0 80.0667 10.8534 869 84.4764 1204.19 494.45
707 0 82.0521 10.8468 890 83.0281 1203.46 495.045
708 0 86.0454 9.75067 839 84.3969 1203.5 493.995
709 0 89.0351 9.9736 888 82.7477 1202.81 492.419
710 1 46.0271 8.92953 411 80.9757 1203.26 512.92
711 0 47.0133 10.38 488 79.0984 1203.67 513.115
712 0 50.0187 10.4161 521 79.5355 1204.37 509.017
713 0 52.0184 11.0922 577 79.5581 1204.53 510.21
714 0 56.0229 11.9594 670 75.8284 1203.61 509.103
715 0 56.0532 11.4534 642 77.9361 1203.37 508.754
716 0 58.035 12.1995 708 76.7345 1202.5 508.225
717 0 60.0829 11.3011 679 78.1429 1202.86 508.063
718 0 62.0512 11.6839 725 77.8566 1202.78 505.21
719 0 64.0633 11.6759 748 77.4906 1203.11 506.037
720 0 66.0763 11.8802 785 76.1478 1203 503.248
721 0 63.035 10.1055 637 80.1837 1203.71 507.669
722 0 67.1059 10.8187 726 78.5248 1203.84 506.577
723 0 67.0854 10.673 716 81.2696 1203.34 505.359
724 0 72.0862 11.084 799 80.388 1203.02 503.806
725 0 72.0411 10.8966 785 81.9172 1202.45 504.907
726 0 75.0607 10.0852 757 84.0727 1202.83 503.012
727 0 79.0655 10.8897 861 84.5761 1202.97 500.412
728 0 79.0655 10.8265 856 139.085 1202.96 500.369
729 1 46.0273 10.8848 501 90.6747 1202.26 516.088
730 0 49.0525 10.6824 524 89.6985 1202.54 516.452
731 0 49.0151 12.0983 593 89.855 1202.61 513.931
732 0 51.0235 11.9553 610 85.4 1202.69 513.566
733 0 51.0754 12.0998 618 85.8964 1203.39 513.926
734 0 51.0223 12.0144 613 87.7635 1203.42 512.635
735 0 53.0257 12.2205 648 88.2515 1202.75 509.588
736 0 56.0428 12.2763 688 87.8692 1203.48 508.98
737 0 57.0657 12.4418 710 88.2915 1203.49 507.769
738 0 58.0582 12.2291 710 89.8746 1202.87 507.424
739 0 60.1024 12.6285 759 89.7484 1203.86 506.65
740 0 63.1038 12.7568 805 88.7466 1204.15 506.578
741 0 63.0919 12.2995 776 91.7036 1203.42 504.942
742 0 65.1055 12.5335 816 91.0931 1203.27 504.395
743 0 68.1178 12.8013 872 89.8968 1203.8 503.452
744 0 69.2023 12.9187 894 90.4195 1203.35 502.529
745 0 71.1155 13.007 925 90.3697 1203.63 500.666
746 0 75.1717 13.2364 995 89.2945 1203.82 499.461
747 0 76.1313 12.9119 983 88.9715 1204.25 498.246
748 0 79.0639 12.9136 1021 87.6033 1203.46 496.736
749 0 79.0817 12.6704 1002 87.7934 1203.76 496.612
750 0 83.131 13.3404 1109 86.6096 1203.51 494.799
751 0 86.0953 12.9624 1116 86.5206 1204.3 493.87
752 1 43.0825 10.654 459 90.0436 1204.11 514.608
753 0 47.0513 10.6267 500 97.064 1205.86 512.01
754 0 49.0368 11.4404 561 86.0998 1206.22 510.128
755 0 49.136 11.1731 549 88.6175 1205.98 510.077
756 0 50.0741 11.3033 566 88.8339 1205.5 510.279
757 0 51.0458 12.2831 627 86.067 1205.28 510.534
758 0 53.0395 12.5001 663 84.6546 1205.15 509.122
759 0 51.0792 10.6893 546 76.7509 1204.23 501.463
760 0 52.1019 10.8441 565 77.6 1204.42 503.078
761 0 56.084 11.5363 647 77.2828 1204.7 502.453
762 0 56.0918 11.0177 618 79.7735 1205.07 501.22
763 0 60.0579 11.3224 680 83.375 1204.69 501.279
764 0 60.0327 12.16 730 84.1452 1204.15 500.475
765 0 61.0159 11.3905 695 84.3568 1204.14 498.588
766 0 63.0578 12.2427 772 81.4896 1204.37 497.617
767 0 64.0884 12.0303 771 83.4073 1203.85 496.682
768 0 66.08 11.5617 764 84.712 1204.09 496.035
769 0 68.0723 12.2957 837 84.055 1204.81 494.362
770 0 69.0569 12.106 836 83.317 1204.66 491.89
771 0 71.1089 11.5035 818 85.4242 1204.57 491.852
772 0 73.1509 11.9889 877 81.2999 1204.28 488.854
773 0 77.146 12.5087 965 80.6995 1204.87 488.922
774 0 81.1017 12.922 1048 80.5792 1203.88 487.195
775 0 84.0568 12.789 1075 81.6726 1204.59 488.188
776 0 85.1533 12.5773 1071 83.2857 1204.4 484.936
777 0 87.1919 13.5104 1178 82.6553 1204.75 483.177
778 0 89.1354 12.8344 1144 85.0114 1204.54 483.012
779 0 94.1283 12.7698 1202 85.4659 1204.49 482.08
780 0 95.0821 12.2526 1165 88.091 1204.55 481.994
781 0 95.0821 12.2631 1166 131.176 1205.55 482.041
782 1 50.0946 11.0391 553 80.5226 1204.29 505.669
783 0 50.0946 11.079 555 129.766 1202.31 505.512
784 0 50.0661 10.1666 509 87.169 1205.14 498.658
785 0 54.0502 11.3043 611 90.3404 1204.73 500.038
786 0 55.0767 11.5657 637 89.113 1205.04 502.181
787 0 55.088 11.2366 619 90.0355 1205.42 500.289
788 0 58.0289 11.2185 651 89.5269 1205.35 497.742
789 0 62.032 11.6391 722 86.9806 1205.28 497.438
790 0 63.1071 11.4092 720 87.05 1206.12 496.297
791 0 66.0902 11.9382 789 84.8695 1206.68 496.394
792 0 68.0195 12.1436 826 85.6574 1206.3 495.789
793 0 70.0559 11.6478 816 86.7206 1206.06 495.39
794 0 69.0452 11.659 805 89.6795 1206.16 492.426
795 0 75.1196 12.3803 930 86.5828 1205.99 491.676
796 0 76.0819 11.9345 908 89.8568 1205.95 491.991
797 0 79.0336 12.5137 989 88.7927 1206.72 490.823
798 0 80.0891 11.9117 954 92.0692 1206.56 487.805
799 0 82.0907 12.3522 1014 92.0217 1206.99 486.516
800 0 84.1443 12.027 1012 92.9625 1206.79 485.695
801 0 91.0667 13.6493 1243 97.0105 1207.08 489.732
802 0 93.1296 13.7443 1280 98.9086 1207.08 488.587
803 0 94.1848 13.378 1260 100.814 1206.1 486.97
804 0 99.2036 13.9813 1387 99.1889 1205.83 485.867
805 0 99.1156 13.5397 1342 101.091 1205.98 486.057
806 0 102.177 13.1144 1340 103.449 1205.77 484.717
807 0 106.104 13.7507 1459 101.511 1205.39 484.592
808 0 110.071 14.0091 1542 101.611 1205.18 483.665
809 0 115.163 13.2247 1523 104.11 1205.33 478.909
810 0 119.149 13.4789 1606 103.79 1205.67 478.405
811 1 59.0564 10.6508 629 95.504 1205.93 506.698
812 0 62.0346 11.284 700 92.6757 1205.3 506.117
813 0 62.0945 11.7241 728 91.3723 1205.05 504.885
814 0 66.0889 12.12 801 88.8577 1204.38 503.893
815 0 69.1334 12.6422 874 87.2757 1204.61 501.938
816 0 71.1253 12.2741 873 88.4628 1205.03 501.369
817 0 74.0868 12.8903 955 87.0021 1203.71 501.79
818 0 75.1887 12.4221 934 89.1863 1204.6 499.842
819 0 78.082 12.4613 973 89.5242 1204.78 499.305
820 0 80.0774 12.6503 1013 90.3238 1205.24 497.337
821 0 84.0784 12.417 1044 91.2471 1204.48 496.579
822 0 85.0964 11.8101 1005 93.7493 1204.41 495.26
823 0 87.1908 12.5931 1098 93.5492 1203.74 493.216
824 0 90.2022 12.7602 1151 92.9948 1203.62 492.52
825 0 95.2151 13.1597 1253 91.0958 1204.04 491.078
826 0 99.2027 12.6509 1255 98.3641 1203.63 490.916
827 0 101.267 12.6794 1284 97.5249 1203.57 487.361
828 0 103.202 12.6354 1304 97.8811 1204.3 486.133
829 1 56.2044 11.6717 656 93.0549 1203.93 508.883
830 0 58.2635 11.4652 668 91.7066 1202.86 509.413
831 0 60.1095 12.028 723 91.8866 1203.91 507.632
832 0 60.0402 12.0586 724 92.942 1205.08 507.999
833 0 63.0325 13.025 821 91.084 1205.09 505.844
834 0 63.082 12.3807 781 93.7644 1205.12 505.953
835 0 66.2485 11.955 792 87.8864 1204.77 506.313
836 0 68.191 12.3477 842 84.5641 1204.7 504.595
837 0 70.2485 12.043 846 91.9444 1204.35 501.557
838 0 73.2552 12.8728 943 94.6119 1204.39 500.292
839 0 74.1854 12.6575 939 95.6645 1202.92 498.618
840 0 75.2015 12.8189 964 94.9367 1202.95 497.488
841 0 77.2175 13.6757 1056 94.018 1202.82 494.684
842 0 80.2539 13.2455 1063 94.2145 1202.79 494.136
843 0 82.2827 13.5873 1118 95.2496 1202.6 492.123
844 0 84.2215 13.2983 1120 95.0071 1202.63 491.102
845 0 87.2412 13.9154 1214 98.0346 1202.72 490.671
846 0 88.2359 13.0672 1153 97.5377 1202.51 489.068
847 0 88.0499 12.7768 1125 96.8969 1202.77 489.58
848 0 89.0771 12.8316 1143 97.9204 1203.24 488.022
849 0 91.1123 12.7754 1164 99.3351 1203.5 486.513
850 0 93.1284 12.9391 1205 99.2805 1203.57 483.313
851 0 97.1174 12.9019 1253 97.8324 1203.43 483.032
852 0 99.1018 13.1279 1301 98.1891 1203.17 481.113
853 0 100.111 12.576 1259 99.1882 1203.54 480.21
854 0 104.105 12.8044 1333 99.0788 1203.52 477.351
855 0 107.101 13.0251 1395 97.6703 1203.71 477.984
856 0 112.147 13.4734 1511 96.7253 1203.74 474.928
857 0 114.181 13.7764 1573 97.4933 1203.67 471.88
858 0 120.134 13.2768 1595 97.4063 1203.05 470.223
859 0 122.177 13.194 1612 96.5589 1203.41 468.499
860 0 129.148 13.2252 1708 96.5585 1203.51 463.555
861 1 67.0534 10.8719 729 96.406 1201.88 495.909
862 0 69.0712 11.3361 783 94.6577 1203.78 494.289
863 0 75.1523 13.2531 996 89.1797 1204.51 497.173
864 0 74.117 12.6961 941 91.6589 1203.84 495.488
865 0 79.0936 13.4524 1064 87.8806 1203.76 495.376
866 0 80.1347 12.8908 1033 89.8422 1203.75 491.064
867 0 84.0776 13.1188 1103 87.3699 1203.98 490.612
868 0 86.0619 12.828 1104 86.8533 1203.51 489.169
869 0 88.0903 12.9413 1140 86.8553 1203.49 486.71
870 0 91.0721 12.9677 1181 86.1499 1203.27 485.207
871 0 92.0933 12.9868 1196 87.0602 1203.63 482.434
872 0 93.0722 12.399 1154 88.5858 1203.16 481.967
873 0 96.0505 12.9932 1248 87.2869 1203.26 479.621
874 0 97.0831 11.9485 1160 90.1069 1202.85 480.82
875 0 99.0573 11.4883 1138 90.8471 1202.91 479.25
876 0 103.079 11.6998 1206 90.243 1203.44 477.911
877 0 104.086 11.5097 1198 91.4891 1203.64 474.801
878 0 111.121 11.069 1230 91.2374 1203.32 472.921
879 0 116.074 11.5185 1337 89.5146 1202.48 475.501
880 0 120.172 11.7748 1415 86.9908 1202.32 472.23
881 0 121.077 11.4143 1382 85.1585 1202.27 465.102
882 1 64.0974 9.73519 624 77.5128 1202.76 491.601
883 0 74.0764 12.3251 913 83.6692 1202.46 495.757
884 0 73.0381 10.7341 784 82.449 1203.03 497.702
885 0 74.1031 11.2411 833 79.7887 1202.97 496.678
886 0 78.0304 11.0085 859 81.6624 1203.09 495.104
887 0 81.1115 10.1712 825 79.4424 1202.65 494.887
888 0 85.0681 10.7796 917 77.819 1202.87 492.928
889 0 87.1 10.93 952 78.3393 1202.8 489.889
890 0 88.1002 10.5902 933 79.373 1202.75 489.553
891 0 92.0625 11.5791 1066 77.5647 1202.9 486.268
892 0 95.0959 11.7776 1120 77.8705 1202.77 485.926
893 0 99.0909 11.545 1144 78.1801 1202.97 484.22
894 0 100.097 10.8394 1085 79.1023 1202.94 482.655
895 0 106.086 12.1223 1286 77.6275 1203.05 481.782
896 0 107.05 11.7235 1255 80.8446 1201.91 478.849
897 0 112.073 11.7602 1318 80.5129 1203 477.174
898 0 114.14 12.0203 1372 81.2835 1203.4 477.149
899 0 118.176 12.3121 1455 81.6131 1203.02 475.484
900 0 121.15 12.2328 1482 81.664 1203.7 472.377
901 0 127.122 11.8941 1512 83.0853 1203.57 469.97
902 1 74.0509 11.6001 859 83.5483 1204.66 496.076
903 0 76.1304 12.6231 961 79.051 1203.74 494.697
904 0 79.1117 12.3876 980 82.7714 1203.71 494.195
905 0 82.0519 12.3215 1011 86.1058 1203.85 491.851
906 0 84.1335 12.7892 1076 84.7296 1204.36 490.823
907 0 86.1389 12.8281 1105 84.7511 1205.13 488.244
908 0 88.1073 13.2339 1166 83.8559 1204.84 487.582
909 0 91.1176 12.5113 1140 85.8965 1205.6 486.17
910 0 93.1041 13.1358 1223 85.6214 1205.2 483.831
911 0 97.1 13.2647 1288 85.1328 1205.16 483.426
912 0 100.216 13.1017 1313 86.1797 1204.66 480.807
913 0 103.137 13.6323 1406 84.4808 1204.62 479.117
914 0 103.219 12.1489 1254 85.3684 1204.29 481.156
915 0 103.233 10.7233 1107 85.6278 1204.67 478.861
916 0 108.086 11.9812 1295 88.3792 1203.37 478.687
917 0 107.322 11.377 1221 85.5897 1204.11 479.564
918 1 55.1154 9.72505 536 78.2407 1204.88 507.593
919 0 58.1652 10.9344 636 75.9701 1204.73 504.709
920 0 59.053 10.9901 649 74.8644 1203.9 505.099
921 0 61.1042 10.8667 664 76.0633 1204.46 504.136
922 0 63.1142 11.1385 703 75.1707 1204.46 502.95
923 0 64.1637 11.1745 717 75.205 1203.94 502.833
924 0 65.1037 10.8135 704 76.2543 1203.95 504.104
925 0 68.0968 11.3808 775 75.6981 1204.13 502.005
926 0 69.1251 11.2984 781 76.8912 1203.7 502.488
927 0 71.0944 11.3792 809 77.1706 1203.62 501.706
928 0 75.1449 12.4027 932 75.4013 1203.27 499.279
929 0 76.1012 12.0497 917 77.9029 1202.15 498.902
930 0 78.141 12.2727 959 77.707 1202.78 497.432
931 0 81.162 12.5921 1022 77.7818 1202.32 496.247
932 0 84.0408 12.7081 1068 77.3474 1202.35 496.169
933 0 86.1367 12.306 1060 77.8887 1202.25 494.213
934 0 89.1038 12.6931 1131 78.2431 1202.96 493.332
935 0 93.0808 13.1928 1228 77.0497 1203.14 492.136
936 0 96.1363 13.8345 1330 76.4474 1202.25 490.003
937 0 98.0995 13.2722 1302 79.2642 1201.85 488.883
938 0 100.115 13.3647 1338 83.4596 1201.66 487.986
939 0 103.111 13.6746 1410 83.2752 1201.82 485.696
940 0 107.12 13.8349 1482 84.8516 1201.99 483.874
941 0 113.21 13.8415 1567 85.0485 1201.61 483.14
942 0 114.114 13.2675 1514 87.3032 1201.92 481.959
943 0 118.157 13.0842 1546 87.5802 1201.8 480.248
944 1 63.0386 11.7547 741 82.2969 1202.29 508.447
945 0 66.1043 12.6921 839 77.1561 1200.89 506.062
946 0 66.1434 12.2764 812 80.7512 1200.52 504.495
947 0 69.0852 13.1866 911 81.2997 1200.62 503.572
948 0 70.0343 13.4648 943 78.9014 1202.39 504.703
949 0 71.1325 13.032 927 81.5965 1202.33 504.272
950 0 75.0906 13.2107 992 82.5161 1202.75 500.604
951 0 76.0776 12.8947 981 93.5586 1202.59 501.922
952 0 78.1378 12.9003 1008 95.369 1203.44 501.531
953 0 81.1874 13.5489 1100 95.8982 1204.36 499.783
954 0 83.1411 12.9058 1073 96.3392 1202.29 500.242
955 0 86.0958 13.1598 1133 96.2039 1203.56 498.246
956 0 88.1081 13.1656 1160 86.1103 1202.61 496.002
957 0 89.0568 12.6773 1129 89.9637 1203.18 494.635
958 0 90.0725 12.4899 1125 90.6329 1203.32 493.246
959 0 94.137 12.5455 1181 88.6063 1203.24 492.332
960 0 97.0908 12.5862 1222 88.9141 1203.31 491.088
961 0 99.1378 12.8306 1272 89.9253 1203.67 488.326
962 0 103.108 12.9961 1340 88.4828 1203.37 485.763
963 0 107.097 13.1656 1410 87.8667 1203.74 483.998
964 1 59.065 10.9879 649 90.473 1204.27 509.744
965 0 60.0501 10.3747 623 85.5441 1204.56 505.13
966 0 58.1187 9.73869 566 79.4311 1204.11 504.235
967 0 58.1457 10.4565 608 80.8684 1203.24 502.697
968 0 62.1087 10.3528 643 82.6827 1203.07 500.042
969 0 63.1086 10.268 648 81.7963 1203.54 499.56
970 0 68.1402 11.0948 756 79.7381 1204.17 496.493
971 0 69.1193 10.4312 721 81.4327 1203.66 495.247
972 0 69.136 10.1973 705 84.7092 1203.82 494.481
973 0 74.1263 10.8868 807 82.5874 1203.98 495.38
974 0 77.1051 10.57 815 85.5202 1204.04 494.13
975 0 79.1438 10.6768 845 86.7751 1204.78 492.864
976 0 82.0643 10.7111 879 86.3197 1204.84 492.387
977 0 85.0743 11.0492 940 86.534 1204.7 491.577
978 0 87.0466 11.1894 974 87.5708 1204.88 490.704
979 0 91.1312 10.9622 999 98.8098 1204.54 491.583
980 0 93.118 11.813 1100 103.073 1205.7 492.105
981 0 96.1588 11.2834 1085 98.8903 1204.43 488.938
982 0 99.1559 12.3341 1223 102.694 1204.5 489.309
983 0 102.12 11.8586 1211 94.3072 1204.66 486.693
984 1 53.0936 11.1689 593 85.7167 1204.81 512.336
985 0 56.1429 12.112 680 86.0691 1204.67 510.246
986 0 58.052 11.9031 691 87.4298 1204.35 509.69
987 0 59.1134 12.5352 741 88.4683 1204.38 508.332
988 0 60.0386 11.9257 716 90.4553 1204.69 508.693
989 0 59.0869 11.4746 678 94.9602 1204.76 509.059
990 0 60.0762 11.1858 672 97.0521 1204.73 507.094
991 0 64.0924 11.343 727 95.5832 1205.32 505.754
992 0 66.15 11.8216 782 95.5997 1205.19 505.193
993 0 66.087 11.6664 771 97.7082 1205.38 504.94
994 0 69.1016 11.7363 811 98.5894 1204.95 504.126
995 0 71.0922 12.1532 864 99.5822 1204.4 500.52
996 0 75.0993 12.6765 952 96.0137 1204.4 500.235
997 0 77.0772 12.4161 957 93.4159 1205.26 499.884
998 0 78.1102 11.8422 925 95.6962 1205.06 498.272
999 0 80.1551 11.877 952 95.1387 1204.98 496.189
1000 0 83.1196 11.6218 966 95.8634 1204.77 494.223
1001 0 85.1121 11.8785 1011 95.8437 1205.03 493.047
1002 0 88.1629 11.3767 1003 95.0768 1204.97 493.357
1003 0 90.0807 11.8338 1066 93.2139 1205.08 491.289
1004 0 94.0988 12.1893 1147 93.7254 1205.46 489.246
1005 0 95.1327 11.1003 1056 93.4839 1205.49 489.155
1006 1 50.0968 11.338 568 94.0933 1206.54 511.069
1007 0 51.0416 11.8531 605 100.096 1206.48 509.051
1008 0 52.0717 12.4828 650 99.1538 1206.66 508.791
1009 0 52.0717 12.4828 650 134.508 1207.68 508.866
1010 0 59.0523 11.583 684 102.137 1206.72 507.868
1011 0 60.0585 11.8551 712 100.133 1206.63 507.73
1012 0 62.0877 12.4662 774 99.2532 1205.69 506.373
1013 0 62.1428 12.5517 780 99.85 1205.65 504.935
1014 0 64.1474 12.2842 788 100.676 1205.48 504.452
1015 0 65.0817 12.6917 826 101.053 1204.81 503.886
1016 0 67.1486 13.0904 879 99.8805 1205.15 503.107
1017 0 70.1604 13.4834 946 99.5063 1205.08 501.321
1018 0 72.17 12.9139 932 100.59 1205.83 500.079
1019 0 74.109 12.9809 962 102.074 1205.53 499.453
1020 0 75.2267 13.24 996 101.684 1205.62 497.18
1021 0 78.2011 13.1456 1028 101.798 1205.77 496.302
1022 0 80.0872 12.9983 1041 97.6801 1206.24 497.085
1023 0 83.0686 13.6514 1134 95.4409 1206.43 497.484
1024 0 83.1324 13.3041 1106 98.1799 1206.21 495.596
1025 0 88.0562 13.1507 1158 98.4732 1205.59 494.022
1026 0 88.0463 13.5156 1190 97.1244 1206.04 492.597
1027 0 90.0709 12.3125 1109 95.0009 1205.23 490.004
1028 0 91.046 12.5211 1140 95.5009 1205.3 488.726
1029 0 95.0793 12.6842 1206 95.8806 1205.06 488.092
1030 0 98.0364 13.3012 1304 94.9509 1205.11 488.153
1031 0 100.147 12.7213 1274 98.2881 1204.62 485.422
1032 0 104.075 12.6351 1315 99.4487 1204.94 484.176
1033 0 107.099 12.9879 1391 98.2437 1205.24 482.607
1034 0 110.103 13.0605 1438 101.316 1205.23 483.747
1035 0 114.117 13.5037 1541 97.5295 1204.69 480.076
1036 0 116.137 13.5787 1577 97.8916 1203.93 477.352
1037 0 120.102 13.5136 1623 98.5373 1204.31 477.511
1038 0 124.124 13.7765 1710 99.6088 1204.29 474.76
1039 0 126.109 13.2742 1674 101.651 1203.68 474.088
1040 0 132.119 13.4424 1776 101.831 1204.1 469.538
1041 0 135.129 13.6241 1841 101.064 1203.77 468.012
1042 0 141.137 14.1423 1996 100.246 1203.47 465.711
1043 0 144.193 14.1963 2047 100.308 1203.64 464.246
1044 0 146.106 13.3122 1945 103.775 1203.86 461.953
1045 0 153.265 13.9627 2140 101.136 1203.48 460.496
1046 0 155.135 13.8266 2145 102.979 1203.28 457.983
1047 0 162.191 14.0575 2280 103.273 1203.57 456.675
1048 0 165.166 13.4047 2214 106.099 1203.6 452.839
1049 0 170.261 13.7378 2339 105.693 1204 453.878
1050 0 175.315 13.7809 2416 102.07 1204.04 452.139
1051 0 181.203 13.896 2518 104.613 1203.91 448.401
1052 0 185.178 13.8245 2560 107.773 1203.4 445.561
1053 0 191.274 15.2922 2925 104.093 1202.47 439.114
1054 0 197.362 13.9743 2758 111.014 1203.5 435.509
1055 0 203.246 14.4849 2944 110.764 1203.95 431.775
1056 0 213.29 15.2984 3263 111.694 1203.88 429.117
1057 0 217.298 15.3108 3327 112.341 1204.3 426.402
1058 0 223.259 15.3812 3434 113.357 1204.6 423.302
1059 0 231.206 15.3932 3559 114.024 1204.05 416.815
1060 0 237.262 15.8179 3753 112.072 1203.4 411.369
1061 0 241.231 15.367 3707 113.581 1203.94 408.21
1062 1 255.256 18.217 4650 104.475 1203.9 399.813
1063 0 257.354 16.9145 4353 108.588 1203.62 399.767
1064 1 60.0791 10.7858 648 103.258 1204.83 500.94
1065 0 63.0516 11.7206 739 101.658 1204.43 499.766
1066 0 64.0583 11.8642 760 99.9855 1203.89 502.117
1067 0 66.0637 11.383 752 97.141 1204.33 501.32
1068 0 68.0682 12.9135 879 110.59 1203.64 504.755
1069 0 73.1117 12.9665 948 110.124 1203.37 504.781
1070 0 72.0672 12.7797 921 113.435 1203.51 502.927
1071 0 75.1289 13.1507 988 113.264 1203.85 501.519
1072 0 81.0899 13.3432 1082 110.766 1203.79 500.307
1073 0 82.0523 13.077 1073 111.854 1203.69 499.017
1074 0 82.0721 12.3672 1015 114.709 1203.62 497.563
1075 0 87.0257 12.8927 1122 111.927 1203.88 496.75
1076 0 89.0455 12.8586 1145 110.994 1203.41 495.429
1077 0 89.0455 12.9147 1150 153.459 1202.41 495.423
1078 0 95.1466 13.1586 1252 109.587 1203.93 489.526
1079 0 98.0537 12.5034 1226 109.915 1203.71 486.939
1080 0 102.107 12.3302 1259 107.359 1204 483.493
1081 1 42.0315 10.0401 422 92.9052 1203.49 511.787
1082 0 44.0277 10.8568 478 88.1464 1203.63 511.985
1083 0 45.0312 10.7259 483 79.9275 1204.44 510.752
1084 0 49.072 11.7582 577 88.3865 1203.75 515.019
1085 0 51.0274 12.0719 616 87.5779 1203.9 514.779
1086 0 50.0499 12.2478 613 89.8989 1204.72 514.561
1087 0 53.0655 11.9852 636 90.2579 1204.54 513.667
1088 0 54.0435 12.3234 666 90.2928 1204.27 513.755
1089 0 58.0692 12.5023 726 100.102 1204.3 512.445
1090 0 58.0989 12.9262 751 101.252 1204.9 511.892
1091 0 61.1284 13.0872 800 101.082 1204.16 510.798
1092 0 62.0696 13.0176 808 98.8403 1203.82 510.6
1093 0 63.0469 13.2441 835 100.217 1204.81 510.45
1094 0 64.0291 13.0253 834 103.771 1204.55 509.048
1095 0 66.0394 12.6288 834 106.953 1204.78 507.916
1096 0 66.0217 12.2535 809 110.86 1204.36 508.252
1097 0 67.1012 12.5035 839 110.684 1205.46 505.415
1098 0 70.071 12.8869 903 108.875 1205.78 505.452
1099 0 73.0497 12.4025 906 110.702 1207.26 508.455
1100 0 74.0862 12.1615 901 112.576 1206.52 506.171
1101 0 77.0632 12.5741 969 111.473 1205.68 504.901
1102 0 77.1212 12.6943 979 112.53 1204.95 503.352
1103 0 80.0471 12.6925 1016 117.207 1204.63 502.566
1104 0 84.2905 12.3501 1041 110.345 1204.3 499.345
1105 0 87.1779 12.6982 1107 107.169 1204.46 497.295
1106 1 46.1326 11.9655 552 109.045 1205.22 518.143
1107 0 48.0545 12.2985 591 108.504 1204.95 516.858
1108 0 50.1298 12.9663 650 105.726 1205.32 515.232
1109 0 53.0933 12.996 690 103.214 1205.35 515.671
1110 0 53.0514 12.7612 677 104.034 1204.19 514.126
1111 0 51.0291 12.7574 651 107.957 1204.02 515.014
1112 0 52.029 12.3008 640 110.202 1204.45 514.916
1113 0 52.0769 12.0783 629 110.835 1204.65 514.954
1114 0 54.0801 12.2041 660 109.542 1204.03 514.909
1115 0 55.0536 11.9338 657 110.023 1205.12 514.703
1116 0 57.0729 12.4578 711 110.816 1206.12 513.671
1117 0 59.0564 12.5981 744 113.176 1205.34 510.37
1118 0 62.0356 12.3316 765 114.761 1204.62 510.316
1119 0 63.0214 12.4243 783 115.971 1205.56 509.032
1120 0 65.0697 11.6798 760 112.757 1204.45 509.947
1121 0 67.0401 12.8431 861 107.649 1205.14 507.782
1122 0 69.0272 11.3433 783 101.14 1205.5 505.475
1123 0 70.121 11.6655 818 98.879 1205.15 503.433
1124 0 74.043 11.5068 852 99.4918 1205.32 502.008
1125 0 75.0571 11.4313 858 102.883 1205.16 501.068
1126 0 77.0586 11.6016 894 105.79 1205.6 499.103
1127 0 81.0645 11.1393 903 106.022 1205.12 498.866
1128 0 82.0932 11.4991 944 106.996 1204.45 497.715
1129 0 83.0647 11.3165 940 109.57 1204.49 495.79
1130 0 87.0615 11.5551 1006 107.916 1204.22 496.151
1131 1 45.0376 10.9686 494 102.648 1204.79 514.739
1132 0 50.0099 12.1776 609 104.655 1204.97 515.586
1133 0 50.0783 11.9812 600 102.912 1205.36 515.283
1134 0 50.0115 11.4774 574 99.0244 1204.6 511.97
1135 0 53.0203 13.1459 697 103.516 1204.71 513.983
1136 0 54.0489 11.9891 648 108.25 1204.67 515.852
1137 0 55.039 12.1187 667 107.708 1204.75 513.049
1138 0 55.0738 11.9476 658 107.609 1204.96 513.015
1139 0 59.0915 12.743 753 106.684 1204.25 511.75
1140 0 59.0468 12.4816 737 108.468 1204.67 510.669
1141 0 63.0381 13.3253 840 103.737 1205.19 511.379
1142 0 65.0763 13.3382 868 100.642 1204.56 510.598
1143 0 66.0414 12.9918 858 104.618 1205 510.045
1144 0 69.0787 13.5932 939 102.158 1204.65 507.114
1145 0 71.0792 13.2669 943 102.461 1205 507.121
1146 0 76.0886 13.5368 1030 99.9184 1203.91 505.265
1147 0 77.0754 13.3246 1027 100.847 1204.15 503.194
1148 0 79.0939 13.2501 1048 100.383 1204.32 502.833
1149 0 83.0557 13.521 1123 99.7044 1204.56 499.645
1150 0 85.0725 13.4121 1141 89.4549 1204.86 498.96
1151 0 88.0639 13.4448 1184 90.8902 1204.25 498.082
1152 0 91.0858 13.5916 1238 91.7351 1204.09 497.268
1153 0 94.1236 13.971 1315 98.2122 1203.75 495.242
1154 0 97.116 13.3964 1301 96.279 1203.74 491.58
1155 0 99.1288 12.7914 1268 92.9527 1202.71 487.354
1156 1 51.0647 12.494 638 94.6567 1203.06 510.136
1157 0 54.0402 13.4345 726 91.2397 1203.58 511.59
1158 0 55.0458 12.8257 706 93.9221 1203.77 511.898
1159 0 59.0461 13.5657 801 92.0075 1203.54 509.278
1160 0 59.0357 13.5342 799 93.2578 1203.6 508.431
1161 0 61.0737 13.672 835 95.897 1203.17 507.437
1162 0 64.0554 13.8318 886 95.4108 1203.73 506.658
1163 0 65.0731 13.7538 895 94.0034 1203.14 505.68
1164 0 67.0618 14.2704 957 93.7001 1203.14 504.273
1165 0 68.0556 13.5184 920 96.1261 1202.58 503.029
1166 0 71.043 13.5974 966 96.1998 1203.09 501.514
1167 0 71.0525 13.863 985 97.5147 1203.24 500.23
1168 0 76.0274 14.3896 1094 94.6188 1203.18 501.458
1169 0 78.0521 14.6697 1145 96.3162 1202.63 498.218
1170 0 79.0228 14.1352 1117 99.1459 1202.77 498.876
1171 0 83.0394 14.5353 1207 98.7995 1202.52 496.567
1172 0 85.1072 14.5581 1239 99.9451 1202.91 495.362
1173 0 88.1402 14.0004 1234 102.746 1203.05 494.831
1174 0 91.1067 14.3787 1310 103.18 1202.53 494.082
1175 0 93.0436 14.3266 1333 106.617 1202.68 491.166
1176 0 98.0622 13.9095 1364 104.3 1202.46 491.353
1177 1 51.0802 13.4299 686 103.955 1203.54 513.771
1178 0 53.1138 13.5558 720 102.842 1202.33 513.686
1179 0 53.149 13.227 703 105.711 1202.89 511.865
1180 0 58.0701 13.3632 776 103.737 1202.91 511.562
1181 0 58.1081 13.5093 785 104.757 1203.55 511.517
1182 0 61.0545 13.2013 806 104.156 1203.59 511.558
1183 0 63.1235 13.0696 825 106.642 1203.5 511.046
1184 0 66.0303 13.6755 903 106.334 1203.38 507.96
1185 0 67.0696 13.4636 903 106.717 1202.9 506.543
1186 0 70.092 13.0685 916 107.909 1203.99 505.742
1187 0 72.1225 13.5603 978 108.394 1202.94 503.929
1188 0 74.1652 13.8609 1028 107.052 1203.2 503.417
1189 0 75.0895 13.9434 1047 107.995 1202.94 502.819
1190 0 78.1607 13.5746 1061 109.118 1202.87 500.929
1191 0 81.097 13.6996 1111 107.369 1203.15 498.916
1192 0 85.1027 14.5824 1241 103.547 1203.25 498.455
1193 0 87.2071 13.6457 1190 106.063 1203.09 496.285
1194 1 42.081 11.1927 471 100.652 1203.64 518.533
1195 0 44.1443 11.8928 525 96.9067 1203.52 519.385
1196 0 43.0586 12.5178 539 103.642 1203.36 519.933
1197 0 46.0454 12.4008 571 92.5044 1203.62 518.461
1198 0 46.0224 12.8198 590 92.2508 1203.53 517.453
1199 0 48.0894 12.6015 606 93.5561 1203.52 516.226
1200 0 49.0344 12.7462 625 92.7808 1203.62 516.518
1201 0 53.0876 12.5265 665 92.7398 1203.46 515.52
1202 0 54.0502 13.6355 737 90.8874 1203.73 513.654
1203 0 54.0701 13.7414 743 91.7739 1203.55 513.572
1204 0 54.0662 13.1135 709 95.2355 1203.52 512.457
1205 0 56.1075 12.5473 704 96.7912 1203.31 512.997
1206 0 60.0533 13.2549 796 94.005 1203.6 511.231
1207 0 62.0146 13.3194 826 93.6816 1203.78 511.191
1208 0 64.0787 12.8904 826 98.0375 1203.12 508.575
1209 0 65.045 12.622 821 99.4275 1203.93 507.873
1210 0 66.0289 13.1609 869 99.5466 1203.09 507.623
1211 0 69.0182 12.8951 890 100.017 1202.32 505.065
1212 0 70.0521 12.1481 851 98.2021 1203.02 502.655
1213 0 74.0421 12.6009 933 96.8574 1202.81 503.135
1214 0 75.0392 12.9666 973 99.9959 1202.69 500.801
1215 0 77.0265 13.1383 1012 99.1848 1203.66 500.054
1216 0 78.0467 12.4669 973 102.994 1203.63 500.293
1217 0 83.0321 13.1154 1089 103.303 1202.63 500.474
1218 0 84.0695 12.4659 1048 102.984 1202.63 499.552
1219 0 86.1266 12.5165 1078 101.908 1202.85 498.775
1220 0 90.1226 13.06 1177 100.511 1202.73 497.364
1221 0 94.2234 13.4892 1271 104.903 1202.77 493.109
1222 0 95.1025 12.0607 1147 103.659 1202.86 493.505
1223 1 50.0082 12.358 618 99.3803 1203.52 516.196
1224 0 52.0704 12.5407 653 99.0214 1204.08 515.436
1225 0 52.0432 12.9892 676 109.213 1203.99 514.265
1226 0 53.0296 12.6156 669 99.2377 1203.21 514.356
1227 0 54.0283 12.3454 667 99.2324 1203.51 514.679
1228 0 57.0121 12.2606 699 99.4092 1203.31 510.947
1229 0 60.018 12.6795 761 97.0158 1203.11 510.757
1230 0 60.0421 13.0575 784 95.7462 1203.31 509.198
1231 0 63.0509 13.0529 823 95.8542 1203.17 508.083
1232 0 65.0263 13.4407 874 95.5973 1203.64 505.116
1233 0 67.0491 13.2888 891 94.7576 1203.75 504.068
1234 0 70.0452 13.9624 978 95.2607 1203.66 502.79
1235 0 70.0107 13.6551 956 97.2312 1205.07 502.512
1236 0 74.0441 13.8836 1028 98.1683 1203.94 499.345
1237 0 75.0303 13.7411 1031 99.3055 1203.61 501.018
1238 0 76.0132 13.7476 1045 99.5828 1204.08 500.161
1239 0 81.0808 13.7147 1112 99.9874 1203.63 499.214
1240 0 82.0854 13.8392 1136 100.504 1204.69 498.46
1241 0 85.0462 13.6867 1164 100.403 1204.24 496.488
1242 0 87.0426 13.7749 1199 102.138 1204.21 493.619
1243 0 90.0949 14.2516 1284 99.8917 1204.28 491.659
1244 0 91.0906 13.6677 1245 101.653 1204.74 489.334
1245 0 96.0834 14.0503 1350 100.124 1205.56 486.704
1246 0 100.137 13.911 1393 100.187 1204.39 486.157
1247 0 102.113 14.2098 1451 100.329 1204.23 485.768
1248 0 106.079 14.6966 1559 100.944 1203.65 483.221
1249 0 110.07 14.5908 1606 102.206 1203.58 482.722
1250 0 112.158 14.6044 1638 104.198 1204.05 482.247
1251 1 57.0369 11.5539 659 102.401 1203.83 508.97
1252 0 60.0456 12.4739 749 104.725 1203.39 506.996
1253 0 59.0851 12.1181 716 100.082 1204.52 505.253
1254 0 62.0646 12.6159 783 103.289 1203.79 503.948
1255 0 63.0402 12.151 766 100.482 1205.13 501.877
1256 0 65.0398 11.9158 775 101.716 1205.29 500.258
1257 0 67.0873 12.685 851 99.3208 1205.56 500.939
1258 0 69.0475 12.3683 854 102.212 1205.34 498.683
1259 0 73.0588 13.0169 951 100.068 1204.53 498.514
1260 0 76.0606 13.0159 990 104.09 1204.08 495.829
1261 0 77.0415 12.6425 974 105.978 1203.87 494.042
1262 0 80.0791 12.8873 1032 104.588 1204.08 492.793
1263 0 82.1225 12.9075 1060 106.592 1204.43 490.367
1264 0 86.131 13.3982 1154 106.607 1204.59 490.16
1265 0 90.073 13.5557 1221 110.404 1204.53 488.103
1266 0 94.0863 14.0297 1320 109.933 1204.23 487.121
1267 1 47.0286 11.7588 553 100.524 1204.46 512.268
1268 0 49.1161 11.3201 556 100.254 1205.47 511.423
1269 0 50.0733 11.9225 597 100.399 1204.51 511.116
1270 0 52.1142 13.2977 693 99.9538 1203.67 507.074
1271 0 53.0188 11.6751 619 99.8352 1203.25 508.897
1272 0 54.1166 12.1959 660 99.9061 1204.07 508.606
1273 0 56.0821 11.8041 662 103.107 1204.03 507.509
1274 0 58.0615 11.9528 694 103.238 1204.21 506.682
1275 0 61.0761 12.7055 776 100.348 1204.95 506.146
1276 0 63.1016 12.4244 784 102.02 1204.93 505.724
1277 0 65.0628 12.5878 819 101.512 1205.19 504.757
1278 0 67.037 12.5751 843 102.807 1204.6 503.776
1279 0 68.054 12.6517 861 102.548 1204.7 503.165
1280 0 71.0671 12.3545 878 103.065 1204.25 502.268
1281 0 70.1258 11.622 815 107.022 1203.87 500.856
1282 0 75.089 13.3175 1000 100.962 1203.92 497.932
1283 0 78.0491 13.184 1029 101.093 1204.16 497.853
1284 0 80.128 12.6797 1016 103.446 1204.55 496.193
1285 0 82.1149 12.8479 1055 106.243 1204.88 494.727
1286 0 86.0969 12.7182 1095 106.493 1204.46 494.801
1287 0 89.0949 13.48 1201 106.27 1204.68 492.45
1288 0 91.0567 12.8382 1169 110.648 1204.98 490.385
1289 0 94.1287 12.5679 1183 108.113 1204.86 489.922
1290 0 98.1537 13.2445 1300 104.618 1205.01 488.995
1291 0 101.211 12.6567 1281 106.579 1205.04 487.863
1292 1 55.1852 11.3617 627 101.167 1204.48 507.989
1293 0 57.1013 11.3307 647 103.521 1204.68 508.706
1294 0 59.1539 12.8986 763 103.828 1204.5 506.193
1295 0 59.0717 12.7811 755 105.682 1205.04 501.885
1296 0 60.1708 11.7997 710 99.4437 1204.48 506.399
1297 0 62.178 12.1426 755 100.188 1204.1 505.657
1298 0 66.0816 12.3635 817 98.6304 1204.38 503.318
1299 0 68.1069 12.3336 840 99.0595 1204.1 501.319
1300 0 70.106 11.9676 839 99.2992 1204.52 500.974
1301 0 72.1634 11.5433 833 101.412 1204.44 498.287
1302 0 75.1774 12.3707 930 98.9591 1204.55 499.101
1303 0 77.0919 11.83 912 101.587 1203.65 495.632
1304 0 80.1366 11.8922 953 101.249 1203.95 494.369
1305 0 81.1288 11.0935 900 102.711 1203.54 496.724
1306 1 44.0751 10.8678 479 103.566 1203.86 513.205
1307 0 47.1008 10.934 515 100.736 1203.82 513.159
1308 0 48.0871 11.292 543 100.954 1203.49 511.882
1309 0 49.0843 11.4089 560 102.948 1203.25 513.979
1310 0 47.0324 11.6303 547 94.4424 1203.48 514.671
1311 0 46.0356 11.187 515 97.5049 1204.16 515.614
1312 0 50.026 12.1137 606 96.1436 1203.48 512.165
1313 0 49.0546 11.4566 562 96.5427 1203.68 513.785
1314 0 52.0405 11.6256 605 96.1157 1203.49 512.139
1315 0 53.0345 10.7289 569 96.9086 1203.58 512.218
1316 0 55.0332 11.6838 643 96.5894 1203.65 510.944
1317 0 57.0389 11.2204 640 95.2906 1203.69 511.161
1318 0 60.0178 11.38 683 94.2709 1203.57 509.25
1319 0 62.0362 11.1548 692 94.6691 1203.44 508.168
1320 0 64.0189 11.6059 743 94.5545 1203.61 506.882
1321 0 65.0428 11.0543 719 97.3338 1203.34 507.662
1322 0 68.0634 11.3277 771 96.6835 1203.58 506.844
1323 0 72.0541 11.5191 830 97.559 1203.36 503.223
1324 0 74.1152 11.2662 835 98.9102 1203.87 503.332
1325 0 77.1228 11.5919 894 97.9564 1204.01 501.317
1326 1 43.1239 11.2235 484 100.163 1205.64 517.054
1327 0 44.032 10.2426 451 103.552 1204.45 514.082
1328 0 42.0122 10.1399 426 101.096 1203.43 511.852
1329 0 50.0605 11.3662 569 104.293 1204.07 514.599
1330 0 51.0955 11.6449 595 105.376 1203.97 513.929
1331 0 51.048 11.8712 606 105.167 1203.9 513.13
1332 0 53.1197 12.0106 638 103.658 1203.59 510.774
1333 0 53.1027 11.5248 612 106.464 1203.37 510.528
1334 0 57.0749 11.739 670 105.352 1203.43 510.213
1335 0 57.1496 11.6536 666 106.233 1203.52 508.661
1336 0 58.1064 11.5134 669 107.556 1203.4 508.762
1337 0 61.1216 12.1888 745 103.781 1203.59 508.079
1338 0 64.0932 12.8251 822 102.19 1203.27 507.956
1339 0 64.1082 12.1201 777 106.731 1202.88 506.885
1340 0 66.077 11.986 792 107.126 1203.35 505.67
1341 0 69.1148 12.718 879 104.313 1203.44 504.257
1342 0 68.1011 12.085 823 107.091 1203.18 504.104
1343 0 70.0621 12.0322 843 107.628 1202.37 503.082
1344 0 75.0741 12.4277 933 104.889 1202.06 501.275
1345 0 78.0679 12.3098 961 106.365 1202.36 500.594
1346 0 78.0759 12.0652 942 108.811 1201.82 499.05
1347 0 78.1125 12.2004 953 109.18 1202.43 497.804
1348 0 83.1549 12.2903 1022 109.579 1202.05 496.793
1349 0 86.1872 12.5889 1085 107.853 1202.6 495.829
1350 0 87.2299 12.4499 1086 109.347 1203.08 494.274
1351 0 92.2867 12.5153 1155 104.816 1203.52 492.864
1352 1 49.1118 10.1605 499 105.886 1202.49 514.992
1353 0 50.1049 11.0967 556 104.975 1202.99 514.351
1354 0 51.0905 10.5891 541 105.591 1202.19 514.055
1355 0 53.1554 11.457 609 103.627 1202.96 512.519
1356 0 53.0342 11.4455 607 102.585 1202.28 510.832
1357 0 54.0519 11.0819 599 105.067 1201.47 508.898
1358 0 54.0268 11.846 640 103.916 1201.64 507.869
1359 0 56.0214 11.7098 656 105.535 1201.74 506.591
1360 0 58.0796 11.8114 686 103.27 1201.99 506.669
1361 0 62.193 11.1427 693 105.558 1202.28 508.606
1362 0 67.1497 12.42 834 99.2218 1202.47 509.261
1363 0 68.16 12.6027 859 98.6868 1202.9 506.614
1364 0 70.2347 11.9314 838 100.181 1202.88 506.635
1365 0 71.1785 11.9418 850 102.365 1203.19 505.359
1366 0 74.278 12.3859 920 102.617 1203.18 504.412
1367 0 77.2204 12.4449 961 101.619 1202.86 504.625
1368 0 78.3241 12.4483 975 102.807 1203.25 502.297
1369 0 79.1593 11.9127 943 98.4984 1203 501.417
1370 0 82.1897 11.7168 963 98.5805 1202.04 499.867
1371 0 83.2607 11.0857 923 95.4496 1203 496.525
1372 0 86.2298 11.481 990 94.9596 1203.16 493.793
1373 0 90.1487 11.2148 1011 97.2611 1203.16 492.716
1374 0 93.3565 11.6435 1087 97.1647 1203.2 492.045
1375 0 95.1867 11.115 1058 98.7221 1202.95 491.75
1376 1 49.0733 9.7609 479 88.5616 1203.15 516.253
1377 0 51.0873 10.0808 515 82.4466 1203.91 515.819
1378 0 51.0816 11.0999 567 83.8748 1203.42 516.522
1379 0 52.0499 12.2383 637 80.9765 1203.96 516.672
1380 0 52.0307 11.3587 591 88.3926 1204.48 515.159
1381 0 53.0755 11.738 623 89.7175 1204.18 515.506
1382 0 55.0575 12.6232 695 86.8014 1204.44 514.878
1383 0 55.1151 11.1766 616 90.0438 1204.53 513.933
1384 0 56.0613 11.1664 626 87.1166 1203.54 514.981
1385 0 60.0628 12.5868 756 80.0437 1203.42 512.983
1386 0 58.1079 11.754 683 81.1537 1202.79 513.105
1387 0 59.067 11.8171 698 79.3281 1203.24 512.738
1388 0 63.0497 11.943 753 77.077 1203.43 511.082
1389 0 63.1211 10.9789 693 78.2453 1203.17 510.599
1390 0 66.0521 10.6734 705 77.7901 1202.61 509.391
1391 0 67.1011 11.6391 781 75.2702 1201.77 506.303
1392 0 67.1116 10.7433 721 77.8669 1202.18 506.846
1393 0 71.1015 11.4766 816 77.6446 1202.9 505.538
1394 0 71.0606 11.6239 826 78.3184 1202.3 504.15
1395 0 73.0906 10.5622 772 81.8692 1202.55 502.354
1396 0 71.0553 11.484 816 100.555 1200.78 426.543
1397 0 73.0835 10.8369 792 77.4394 1202.49 495.837
1398 0 75.0633 10.5245 790 85.3139 1202.76 499.062
1399 0 82.133 12.2241 1004 82.4462 1202.5 499.598
1400 0 82.1514 11.771 967 80.3485 1201.94 494.416
1401 0 85.1365 12.0277 1024 81.9502 1201.75 492.613
1402 0 87.1262 11.7875 1027 87.628 1201.87 495.905
1403 0 91.068 11.8154 1076 86.4638 1202.14 494.34
1404 0 92.0554 11.5039 1059 90.5127 1201.95 493.587
1405 1 49.103 10.6918 525 88.821 1202.52 515.299
1406 0 50.1673 11.2623 565 87.6212 1202.38 514.644
1407 0 52.1394 10.9898 573 89.3944 1202.86 514.33
1408 0 51.11 10.8981 557 92.3178 1201.88 513.262
1409 0 56.0958 12.1399 681 89.3583 1201.14 511.339
1410 0 57.0739 11.6516 665 88.3759 1202.81 509.009
1411 0 59.136 12.1922 721 87.4591 1202.08 508.313
1412 0 59.0558 11.8871 702 91.2066 1203.24 507.974
1413 0 62.0758 12.1787 756 91.0198 1202.97 507.643
1414 0 64.0822 11.8286 758 93.7955 1203 507.765
1415 0 65.0532 12.313 801 94.0262 1202.64 507.854
1416 0 67.064 12.7639 856 94.5467 1202.71 506.326
1417 0 66.1159 12.2058 807 97.6729 1203.34 505.61
1418 0 70.1929 13.064 917 92.6489 1202.42 504.84
1419 0 71.0816 12.6334 898 95.049 1203.08 502.643
1420 0 75.0806 13.5455 1017 93.4671 1202.48 502.268
1421 0 77.0888 12.972 1000 95.582 1202.66 502.123
1422 0 79.0884 13.2131 1045 95.666 1202.91 500.233
1423 0 83.0739 12.9884 1079 96.3837 1202.7 498.496
1424 0 86.0392 13.4009 1153 95.8907 1202.82 498.214
1425 0 87.0858 13.791 1201 96.1998 1203.07 495.313
1426 0 89.0595 13.564 1208 96.6325 1202.64 495.46
1427 0 91.2068 13.5516 1236 99.5704 1203.22 494.043
1428 0 95.0871 13.7032 1303 99.683 1203.12 491.942
1429 0 97.0635 13.3109 1292 108.536 1203.05 490.769
1430 0 100.15 13.4499 1347 108.497 1203.16 489.23
1431 0 101.08 12.9601 1310 109.072 1203.55 487.834
1432 1 53.0585 10.9879 583 101.837 1203.79 513.182
1433 0 56.0763 11.5914 650 99.06 1203.3 512.135
1434 0 56.1357 12.1313 681 94.7166 1203.06 509.51
1435 0 57.0833 12.7358 727 96.74 1202.74 508.719
1436 0 60.1692 13.2626 798 96.4612 1203.05 507.422
1437 0 62.0501 13.1829 818 102.894 1202.53 509.336
1438 0 64.066 13.0178 834 103.976 1202.44 508.218
1439 0 67.0234 13.3685 896 102.959 1203.19 506.724
1440 0 68.0429 12.7861 870 105.634 1203.24 506.903
1441 0 69.033 13.4718 930 104.673 1202.88 504.026
1442 0 72.0834 13.3734 964 104.011 1202.12 503.47
1443 0 73.0752 13.3151 973 105.157 1202.79 501.662
1444 0 76.0662 13.9484 1061 103.683 1203.1 501.458
1445 0 78.1733 13.4445 1051 104.832 1202.63 500.211
1446 0 79.0653 13.7481 1087 106.925 1203.37 498.354
1447 0 81.1143 13.894 1127 106.55 1203.07 497.297
1448 0 84.113 14.4211 1213 105.131 1203.1 495.12
1449 0 84.0741 13.4524 1131 109.188 1202.21 494.799
1450 0 87.1421 13.6788 1192 109.227 1202.43 493.174
1451 0 91.1059 14.2362 1297 107.353 1202.06 491.389
1452 0 92.0787 13.7708 1268 109.021 1201.9 489.856
1453 0 97.1797 14.4269 1402 105.809 1203.07 488.198
1454 0 98.1022 14.1383 1387 107.968 1203.22 487.114
1455 0 100.043 13.3743 1338 108.896 1203.44 487.309
1456 0 103.106 13.2582 1367 108.812 1203.51 485.519
1457 1 60.0519 11.54 693 105.385 1204.75 507.82
1458 0 59.0706 12.5782 743 102.12 1204.33 506.966
1459 0 58.0709 10.4527 607 94.0379 1202.46 501.433
1460 0 60.0628 11.2216 674 95.4807 1202.01 501.224
1461 0 63.0316 11.3118 713 97.0856 1202.16 500.032
1462 0 65.0624 11.4967 748 96.5548 1202.41 498.689
1463 0 66.0433 11.3713 751 98.024 1202.79 496.758
1464 0 68.0344 10.5535 718 99.9359 1201.88 497.453
1465 0 69.0297 11.6472 804 97.8072 1202.16 493.735
1466 0 73.0359 11.3369 828 95.9746 1202.54 492.597
1467 0 76.0402 11.4413 870 95.1023 1202 491.199
1468 0 78.0709 11.8226 923 94.8527 1201.79 489.056
1469 0 82.0461 11.6154 953 93.7461 1202.53 489.674
1470 0 82.0483 10.9326 897 97.4861 1202.3 487.669
1471 0 85.0945 12.0337 1024 95.208 1201.77 486.219
1472 0 90.043 11.9276 1074 95.5512 1203.12 483.426
1473 0 91.1039 12.1949 1111 95.432 1203.07 483.66
1474 0 93.0709 12.0124 1118 97.347 1203.28 481.556
1475 0 98.0606 11.9416 1171 96.9249 1203.2 479.851
1476 0 104.043 12.8505 1337 105.534 1202.46 483.43
1477 0 108.091 14.0344 1517 102.647 1201.43 481.701
1478 0 110.108 13.4504 1481 104.103 1202.2 480.945
1479 1 57.0528 10.6042 605 102.817 1201.99 508.499
1480 0 61.0693 12.0028 733 98.5675 1203.17 506.303
1481 0 60.0594 11.755 706 102.432 1202.81 504.439
1482 0 61.106 12.7974 782 91.5844 1203.32 504.54
1483 0 60.1253 10.7775 648 95.6713 1203.99 507.144
1484 0 64.1176 10.9174 700 94.2486 1204.31 505.319
1485 0 64.1846 11.093 712 93.9888 1203.77 504.42
1486 0 67.1958 11.0721 744 93.3024 1203.61 504.431
1487 0 70.1288 11.707 821 90.8246 1203.45 501.946
1488 0 72.2134 11.6045 838 91.1074 1203.67 503.055
1489 0 74.1885 11.2551 835 92.8838 1203.87 502.092
1490 0 75.1541 11.4964 864 93.772 1204.16 500.455
1491 0 76.1325 11.5325 878 93.5718 1204.09 500.819
1492 0 81.2484 12.0002 975 89.5138 1203.63 497.989
1493 0 83.1269 12.0298 1000 91.118 1203.87 497.619
1494 0 86.3069 12.0732 1042 91.4031 1204.31 496.464
1495 0 89.1514 12.0918 1078 92.6494 1203.68 493.836
1496 0 91.2159 11.84 1080 92.9917 1203.57 493.649
1497 0 95.2972 12.3299 1175 94.0766 1203.94 491.826
1498 1 50.031 11.4329 572 99.3741 1204.92 512.066
1499 0 50.1403 11.6673 585 98.0444 1204.68 506.754
1500 0 49.225 11.0919 546 96.8993 1203.75 505.353
1501 0 54.2231 12.1351 658 101.986 1203.14 507.506
1502 0 53.0988 10.5841 562 91.8683 1202.93 510.21
1503 0 52.1005 11.5738 603 90.2703 1202.26 509.043
1504 0 54.0329 10.7157 579 92.2504 1203.01 508.9
1505 0 58.1053 11.4619 666 90.97 1203.47 508.006
1506 0 58.0937 11.602 674 90.8828 1202.79 508.18
1507 0 62.1376 12.1987 758 90.0528 1202.61 507.538
1508 0 64.0902 11.7179 751 90.1105 1202.71 506.961
1509 0 63.0681 12.3042 776 90.3698 1202.67 504.789
1510 0 67.1158 11.6366 781 89.6376 1203.2 504.649
1511 0 69.0467 12.2526 846 89.422 1202.57 503.73
1512 0 69.0325 12.0668 833 91.611 1202.19 501.663
1513 0 73.0733 12.7543 932 91.677 1202 501.114
1514 0 75.0595 12.0571 905 92.8564 1202.85 500.491
1515 0 75.139 11.858 891 94.4299 1203.73 499.773
1516 0 77.0923 11.7781 908 93.9791 1203.99 499.128
1517 0 80.0852 12.0871 968 93.5527 1203.3 498.517
1518 0 82.1095 11.6308 955 94.4555 1203.12 496.216
1519 0 84.0897 12.3321 1037 92.9151 1203.13 495.81
1520 0 85.0346 11.9598 1017 94.3235 1202.92 494.348
1521 0 89.0539 12.7002 1131 93.6233 1203.65 492.442
1522 0 92.049 13.0365 1200 92.5042 1202.89 490.201
1523 0 94.0613 13.8739 1305 91.7655 1203.34 489.598
1524 0 95.0844 13.2303 1258 93.7901 1203.76 487.514
1525 0 95.0996 13.1862 1254 144.259 1203.76 487.665
1526 0 102.109 13.5346 1382 94.1158 1203.01 484.793
1527 0 104.063 13.6744 1423 94.2101 1203.49 482.529
1528 0 107.088 13.6523 1462 93.9808 1202.86 480.738
1529 0 110.071 12.4192 1367 100.2 1203.37 475.53
1530 0 114.186 12.6723 1447 102.002 1203.23 474.111
1531 0 115.199 12.7866 1473 105.557 1203 471.123
1532 1 56.1969 8.77272 493 96.9757 1203.28 494.325
1533 0 58.2484 9.73418 567 97.6631 1203.91 495.321
1534 0 62.1075 10.3208 641 91.4041 1204.27 497.207
1535 0 65.0767 10.8948 709 93.9323 1202.7 496.152
1536 0 68.1257 11.1118 757 94.0106 1203.52 495.824
1537 0 70.1777 11.1146 780 93.8295 1203.18 495.144
1538 0 72.0542 11.075 798 94.4561 1202.59 492.679
1539 0 73.1766 11.2058 820 95.2805 1202.88 491.361
1540 0 74.1141 10.6862 792 98.2412 1203.1 490.462
1541 0 78.0497 10.6599 832 98.3918 1202.65 490.754
1542 0 81.1288 11.7098 950 97.0537 1202.86 491.584
1543 0 84.0495 11.6479 979 99.335 1203.71 489.626
1544 0 86.1043 11.0331 950 102.62 1203.28 488.229
1545 0 90.1064 11.4087 1028 99.0827 1203.12 487.583
1546 0 92.1427 11.1023 1023 101.771 1202.9 486.638
1547 0 91.0933 11.4718 1045 103.157 1203.17 484.992
1548 0 95.1352 11.7727 1120 104.173 1203.93 484.839
1549 0 99.1457 12.1942 1209 102.591 1203.38 486.154
1550 0 102.177 12.1749 1244 102.633 1203.43 482.933
1551 0 102.236 11.5027 1176 105.073 1203.67 479.743
1552 0 107.172 12.0834 1295 102.281 1203.71 476.546
1553 0 110.148 12.3652 1362 100.62 1203.41 475.036
1554 0 114.177 11.6398 1329 101.268 1203.15 471.79
1555 0 116.217 11.5904 1347 100.956 1203.16 473.52
1556 0 120.328 11.959 1439 99.23 1203.33 472.699
1557 0 125.207 12.092 1514 98.389 1203.25 471.516
1558 0 130.334 12.9437 1687 96.8068 1203.27 468.708
1559 0 133.239 12.9316 1723 99.0029 1203.76 463.234
1560 0 137.233 12.9706 1780 99.723 1203 461.016
1561 0 142.254 13.4478 1913 100.798 1202.96 460.023
1562 0 145.353 13.4156 1950 102.267 1202.98 459.763
1563 0 149.346 12.8761 1923 104.906 1203.53 455.604
1564 0 154.392 13.4463 2076 102.537 1202.79 455.5
1565 0 156.235 13.4925 2108 103.396 1202.84 450.97
1566 0 161.333 13.5744 2190 104.784 1202.91 447.852
1567 0 166.217 13.7231 2281 104.637 1202.47 445.367
1568 0 173.263 13.7421 2381 104.248 1203.37 445.313
1569 0 177.255 13.3705 2370 105.287 1202.7 442.317
1570 0 180.156 13.5438 2440 105.655 1202.87 440.141
1571 0 186.249 14.078 2622 103.241 1202.63 439.33
1572 0 191.268 13.4262 2568 103.943 1203.07 437.056
1573 0 197.124 13.702 2701 102.882 1202.63 434.734
1574 0 202.286 13.565 2744 103.19 1202.44 430.828
1575 0 208.277 12.8963 2686 104.638 1202.72 428.319
1576 0 216.296 13.93 3013 101.818 1202.85 423.599
1577 0 225.324 13.9976 3154 102.302 1202.32 416.344
1578 0 231.28 14.3203 3312 102.386 1202.54 411.856
1579 0 237.287 14.4256 3423 100.296 1202.1 407.553
1580 1 175.346 12.2501 2148 99.7705 1202 440.587
1581 0 183.365 12.7342 2335 100.694 1202.47 433.596
1582 0 187.295 13.428 2515 102.528 1202.71 427.392
1583 0 193.259 13.1171 2535 106.94 1201.71 424.307
1584 0 199.307 13.2358 2638 107.714 1202.27 424.179
1585 0 206.279 13.2103 2725 107.71 1202.25 422.506
1586 0 213.347 13.4242 2864 108.017 1202.31 417.08
1587 0 221.341 13.3143 2947 107.442 1202.14 413.743
1588 0 227.403 13.1485 2990 107.415 1201.76 409.925
1589 0 234.454 12.9407 3034 107.343 1201.5 410.576
1590 0 240.502 12.9854 3123 109.213 1201.84 401.733
1591 0 246.417 13.1687 3245 108.453 1201.9 399.684
1592 0 254.47 13.4712 3428 109.04 1201.38 395.454
1593 0 263.478 13.6178 3588 108.826 1201.8 388.608
1594 0 271.366 13.5868 3687 109.338 1201.88 389.295
1595 0 279.248 13.8551 3869 109.079 1202.16 386.869
1596 1 62.0861 10.5015 652 91.2239 1202.78 495.851
1597 0 67.046 12.305 825 91.1309 1202.1 498.759
1598 0 69.0986 12.1421 839 90.3159 1201.24 498.956
1599 0 72.0663 12.4885 900 90.49 1201.34 497.877
1600 0 74.2094 11.8988 883 93.3262 1201.96 497.852
1601 0 78.1898 11.5744 905 92.4652 1202.34 495.314
1602 0 79.1642 11.3435 898 93.0579 1202.52 493.983
1603 0 79.1607 10.6113 840 93.2071 1202.93 494.808
1604 0 81.1698 10.6813 867 92.5421 1202.49 492.968
1605 0 82.174 10.2344 841 91.082 1202.98 493
1606 0 86.1345 11.0525 952 87.9695 1202.74 490.952
1607 0 86.1383 10.3554 892 87.4652 1202.48 489.567
1608 0 89.1516 10.0503 896 86.6172 1203.01 486.423
1609 0 93.1432 10.4785 976 76.5871 1203.53 484.709
1610 0 94.0978 9.67079 910 78.3527 1203.1 481.445
1611 0 97.0646 9.32369 905 81.8619 1203.35 481.69
1612 0 104.147 11.9447 1244 72.4622 1203.48 484.438
1613 0 106.142 11.6353 1235 75.7911 1203.55 480.415
1614 0 105.284 10.5524 1111 74.9658 1203.22 474.707
1615 0 110.214 10.3436 1140 75.7377 1202.28 472.816
1616 0 112.179 9.44024 1059 76.204 1203.05 474.29
1617 0 116.24 10.4525 1215 76.6979 1202.23 469.83
1618 0 119.163 10.1457 1209 76.3672 1202.39 466.844
1619 0 122.369 10.6236 1300 74.3154 1202.5 466.436
1620 0 123.124 9.795 1206 79.1401 1202.94 465.989
1621 0 126.239 9.77509 1234 78.2828 1202.33 464.156
1622 0 129.143 9.83407 1270 78.9189 1202.32 462.273
1623 0 134.33 11.107 1492 78.1354 1201.8 461.225
1624 0 137.346 10.5354 1447 78.8563 1201.3 459.879
1625 0 143.28 11.3484 1626 78.3118 1202.14 454.808
1626 0 146.336 11.0157 1612 79.6371 1202.29 454.915
1627 0 149.433 11.209 1675 80.3839 1201.75 448.54
1628 0 155.358 11.9402 1855 80.4183 1202.5 449.885
1629 0 157.242 12.3885 1948 81.0056 1202.26 444.965
1630 0 159.258 11.2333 1789 83.8519 1202.61 438.551
1631 0 164.225 11.5999 1905 81.937 1201.38 440.478
1632 0 169.196 11.8974 2013 81.5196 1201.41 437.185
1633 0 160.198 10.8678 1741 85.6261 1201.74 425.667
1634 0 167.271 11.8968 1990 84.1829 1201.9 423.066
1635 0 169.3 11.5593 1957 82.0291 1201.85 421.19
1636 1 253.233 4.37147 1107 102.424 1201.82 416.423
1637 1 94.0997 10.7227 1009 86.0505 1202.38 461.202
1638 1 112.155 12.4559 1397 81.01 1202.69 472.092
1639 0 113.127 12.2871 1390 82.6878 1202.47 467.173
1640 0 117.059 11.4985 1346 84.4532 1201.61 467.188
1641 0 119.104 11.4438 1363 84.3302 1201.72 464.284
1642 0 119.047 10.9621 1305 85.2659 1201.88 459.451
1643 0 124.143 11.5593 1435 83.253 1202.21 458.617
1644 0 129.073 11.4199 1474 83.7741 1201.57 455.612
1645 0 134.205 12.0263 1614 83.2094 1201.48 452.146
1646 0 135.085 12.259 1656 83.6117 1201.22 447.737
1647 0 142.083 12.1197 1722 82.054 1201.33 447.491
1648 0 144.097 11.749 1693 82.6302 1201.78 444.151
1649 0 148.097 11.8166 1750 82.7611 1201.34 442.544
1650 0 152.108 12.0046 1826 82.3664 1201.61 437.123
1651 1 178.142 8.53252 1520 83.448 1201.28 450.601
1652 1 88.0544 9.01716 794 74.0479 1201.07 480.19
1653 0 93.1011 12.0622 1123 78.4354 1201.74 487.42
1654 0 93.0546 11.2622 1048 73.5391 1201.56 477.914
1655 0 95.049 11.0259 1048 74.7252 1201.78 475.447
1656 0 99.0931 11.4337 1133 74.4007 1201.42 473.776
1657 0 104.13 11.3224 1179 72.7956 1201.63 470.764
1658 0 107.083 11.1409 1193 77.7058 1201.94 472.672
1659 0 106.143 11.6635 1238 75.8764 1201.67 470.339
1660 0 112.135 11.5931 1300 76.6931 1202.46 468.236
1661 0 116.112 11.3683 1320 71.753 1202.47 472.172
1662 0 121.146 12.6872 1537 77.3845 1203.02 475.162
1663 0 126.189 12.1484 1533 78.9367 1202.27 471.027
1664 0 130.119 13.1649 1713 76.4863 1201.94 469.999
1665 0 132.123 12.7608 1686 78.5765 1203.08 468.505
1666 0 134.101 12.7292 1707 80.1892 1202.52 465.809
1667 0 138.162 12.7966 1768 75.3682 1202.18 465.902
1668 0 144.2 13.3634 1927 75.562 1202.02 463.907
1669 0 147.164 13.1758 1939 76.7777 1202.01 458.091
1670 0 152.159 13.1048 1994 78.1324 1202.81 457.181
1671 0 156.306 12.4371 1944 84.3431 1202.2 455.824
1672 0 161.169 13.5944 2191 82.5559 1201.79 452.319
1673 0 167.251 13.2914 2223 82.0126 1202.24 451.72
1674 0 168.262 12.3438 2077 84.3558 1201.78 450.3
1675 0 175.243 12.2116 2140 83.6028 1201.85 448.265
1676 0 179.263 12.6295 2264 83.8392 1202.33 443.449
1677 0 182.194 11.839 2157 86.2443 1202.64 443.391
1678 0 186.334 12.2254 2278 86.6133 1202.54 441.985
1679 0 194.302 12.6092 2450 87.1812 1201.67 437.873
1680 0 199.25 12.4517 2481 87.7578 1201.25 434.544
1681 0 206.391 12.738 2629 87.5321 1201.77 428.697
1682 0 212.398 12.8344 2726 87.8584 1201.15 426.726
1683 0 218.29 13.5508 2958 87.8256 1201.47 422.533
1684 0 225.508 12.7844 2883 90.4884 1201.77 421.576
1685 0 230.62 13.5548 3126 90.0285 1200.93 415.64
1686 0 238.741 14.0487 3354 90.291 1201.49 413.861
1687 0 246.608 13.71 3381 90.2674 1202 412.513
1688 0 252.79 13.7624 3479 92.9118 1202.28 404.458
1689 0 253.761 11.8024 2995 95.8745 1202.36 411.001
1690 1 290.661 22.0188 6400 71.5836 1202.06 378.633
1691 0 293.049 22.1977 6505 72.0832 1201.24 368.927
1692 0 295.868 20.0292 5926 76.6983 1201.69 365.724
1693 0 296.036 13.4072 3969 92.7715 1201.76 384.667
1694 0 302.802 16.813 5091 83.6951 1201.21 370.539
1695 0 309.874 16.4131 5086 83.9805 1201.28 365.329
1696 0 319.657 16.4458 5257 85.2401 1201.62 362.777
1697 0 327.439 15.7281 5150 87.2076 1201.84 358.95
1698 1 81.3631 10.4101 847 78.4841 1201.21 486.881
1699 0 86.3651 11.4977 993 80.4068 1201.62 485.788
1700 0 88.1523 11.5368 1017 79.8368 1202.05 482.619
1701 0 92.0893 12.6399 1164 78.2904 1202.63 485.174
1702 0 94.1633 12.2765 1156 79.9844 1202.92 483.723
1703 0 97.1583 12.598 1224 80.0621 1202.89 480.844
1704 0 100.16 12.7497 1277 80.2725 1203.06 479.906
1705 0 110.165 14.8685 1638 74.0433 1203.02 461.958
1706 0 109.171 14.3261 1564 76.4393 1203.07 461.609
1707 0 111.282 14.5935 1624 78.3861 1202.64 462.3
1708 0 113.219 13.1161 1485 82.5354 1202 463.818
1709 0 115.211 12.5161 1442 84.4736 1202.21 466.267
1710 0 120.314 12.4508 1498 84.3959 1201.91 465.178
1711 0 123.226 12.5704 1549 85.4577 1202.33 462.045
1712 0 126.216 12.1696 1536 87.9512 1202.24 461.324
1713 0 136.177 13.5633 1847 85.5241 1202.05 461.417
1714 0 136.229 12.5671 1712 87.5356 1202.86 456.969
1715 1 160.3 16.7748 2689 71.2291 1203.02 441.922
1716 0 160.174 16.4009 2627 73.1663 1202.93 440.415
1717 0 159.224 16.8819 2688 71.6641 1203.2 439.071
1718 0 157.332 15.4832 2436 76.9228 1202.93 441.226
1719 0 157.222 13.5477 2130 83.6516 1202.65 443.032
1720 0 154.136 11.1201 1714 88.9615 1201.61 447.487
1721 0 169.248 15.9706 2703 75.5187 1202.55 441.385
1722 0 173.391 15.3815 2667 76.7214 1202.19 437.951
1723 0 178.383 15.321 2733 76.9795 1202.06 436.964
1724 0 182.346 15.8051 2882 76.3046 1202.82 433.076
1725 0 187.336 15.4215 2889 76.8737 1202.77 428.662
1726 0 194.387 15.5463 3022 76.2118 1202.17 425.911
1727 0 201.553 15.9759 3220 75.5543 1202.06 424.564
1728 0 206.56 15.671 3237 78.7773 1201.97 422.265
1729 0 209.533 15.4678 3241 81.5563 1202.33 419.773
1730 0 217.509 16.6476 3621 78.7305 1201.68 415.599
1731 0 223.542 16.5562 3701 79.5493 1201.9 414.665
1732 0 229.515 16.8398 3865 80.1612 1201.62 407.805
1733 0 236.479 17.0205 4025 80.3558 1202.04 402.188
1734 0 241.573 15.6599 3783 83.4444 1201.65 403.407
1735 0 248.569 16.4099 4079 81.1635 1201.48 399.938
1736 0 255.527 16.1549 4128 82.4113 1201.86 396.554
1737 0 261.449 16.1064 4211 84.1491 1201.7 391.831
1738 0 268.547 16.1722 4343 87.6901 1201.24 388.121
1739 0 278.503 16.6174 4628 86.594 1201.78 388.61
1740 0 286.6 17.3134 4962 85.1481 1202.03 380.926
1741 0 294.523 16.7695 4939 87.5594 1202.46 377.886
1742 0 301.53 16.3897 4942 88.7459 1202.17 368.625
1743 0 312.364 16.1446 5043 86.4842 1202.18 366.161
1744 0 322.404 16.3646 5276 85.952 1201.79 364.373
1745 0 332.323 15.494 5149 88.4801 1201.16 359.291
1746 0 343.325 16.1975 5561 86.8635 1201.28 351.293
1747 0 354.352 16.2889 5772 88.4113 1201.34 349.371
1748 1 172.225 12.6347 2176 91.5519 1202.33 440.441
1749 1 61.0289 10.3557 632 83.875 1202.06 499.965
1750 0 63.09 11.2538 710 82.1746 1201.79 498.076
1751 0 66.1622 11.6078 768 81.9336 1201.42 497.789
1752 0 68.1479 11.7832 803 82.6999 1202.98 498.321
1753 0 69.063 12.409 857 80.2322 1202.3 496.287
1754 0 72.2618 12.8422 928 79.7457 1202.24 496.974
1755 0 72.1403 12.947 934 80.742 1202.65 496.434
1756 0 73.2023 12.486 914 81.7188 1203.17 495.584
1757 0 75.3093 12.2561 923 76.6154 1202.97 497.41
1758 0 77.1687 11.1703 862 78.0708 1202.2 496.661
1759 0 80.1685 11.7003 938 78.0021 1202.11 495.175
1760 0 84.3938 11.6596 984 78.9746 1202.38 491.762
1761 0 84.3938 11.7544 992 144.755 1202.37 491.75
1762 0 88.359 12.2002 1078 81.743 1202.7 488.228
1763 0 91.2969 12.6839 1158 81.2668 1202.43 486.911
1764 0 94.2289 12.0239 1133 82.0688 1202.58 485.405
1765 0 95.3111 12.4435 1186 81.3744 1202.91 485.352
1766 0 99.2984 12.4373 1235 81.3036 1202.98 482.502
1767 0 100.436 13.1228 1318 81.2329 1202.54 479.448
1768 0 103.238 12.1563 1255 83.4566 1202.29 476.787
1769 0 106.217 12.4368 1321 83.4497 1202.33 475.491
1770 0 110.451 13.3724 1477 82.9878 1201.88 472.542
1771 0 114.515 12.7144 1456 83.9966 1201.46 471.179
1772 0 120.286 12.6365 1520 84.1329 1201.7 472.983
1773 1 63.267 12.2181 773 82.5627 1202.51 497.759
1774 0 63.055 11.6089 732 85.3648 1202.85 499.691
1775 0 64.0497 11.3662 728 84.8805 1203.04 499.707
1776 0 64.0495 11.538 739 85.8106 1203.22 499.31
1777 0 67.0546 11.0656 742 86.3827 1203.23 498.86
1778 0 68.0667 11.7826 802 88.086 1203.77 496.883
1779 0 72.0791 12.3059 887 87.1883 1203.38 495.971
1780 0 74.0877 12.0398 892 88.2141 1203.47 493.515
1781 0 78.1083 12.2266 955 88.6806 1203.45 492.088
1782 0 78.1416 11.9015 930 90.6957 1203.22 490.353
1783 0 82.13 12.5533 1031 89.4035 1203.09 487.79
1784 0 85.1826 12.9604 1104 88.2192 1203.04 487.37
1785 0 87.1297 12.6478 1102 89.3911 1203.35 485.496
1786 0 89.2083 12.7454 1137 89.5479 1203.12 484.989
1787 0 93.26 13.1139 1223 89.9935 1203.13 481.993
1788 0 96.2442 12.9462 1246 89.7368 1203.37 481.953
1789 0 97.2784 12.9422 1259 89.83 1203.22 480.923
1790 0 102.304 13.1178 1342 88.649 1203.57 478.869
1791 0 102.16 11.9225 1218 95.2036 1203.42 476.47
1792 0 109.202 13.1499 1436 91.5439 1203.33 474.953
1793 0 112.21 13.3232 1495 92.0174 1202.68 474.254
1794 0 117.109 13.2868 1556 92.2693 1202.64 472.323
1795 0 123.177 13.7526 1694 92.2444 1202.42 469.642
1796 0 126.247 13.4181 1694 93.8973 1201.93 467.24
1797 0 128.153 13.9131 1783 94.4773 1202.6 465.25
1798 0 133.226 14.3816 1916 93.6681 1201.67 463.674
1799 0 136.216 14.1319 1925 94.3803 1201.74 462.767
1800 0 141.209 14.3758 2030 96.1202 1201.45 460.591
1801 0 144.173 13.6364 1966 96.8703 1201.42 459.11
1802 0 151.166 14.3617 2171 95.1939 1201.19 457.816
1803 0 155.268 14.9998 2329 95.1151 1201.29 455.183
1804 0 158.243 14.3893 2277 98.6636 1200.97 451.324
1805 0 163.213 14.1411 2308 101.202 1200.92 449.654
1806 0 169.274 14.7867 2503 99.8706 1201.68 446.289
1807 0 174.206 14.9249 2600 100.47 1201.86 444.435
1808 0 178.358 14.7849 2637 102.057 1201.39 441.595
1809 0 183.402 14.9017 2733 103.141 1201.84 436.675
1810 0 187.428 14.4962 2717 106.245 1201.4 434.474
1811 0 192.51 14.9551 2879 106.197 1201.46 432.451
1812 0 197.493 14.522 2868 108.392 1201.37 427.762
1813 0 198.498 14.7558 2929 172.434 1201.37 428.701
1814 1 167.327 11.0861 1855 112.451 1201.47 451.868
1815 0 165.333 11.1956 1851 111.606 1201.73 450.181
1816 0 165.478 12.0923 2001 108.507 1201.79 447.438
1817 0 171.367 12.377 2121 109.397 1201.11 441.937
1818 0 176.381 13.2497 2337 108.352 1201.61 438.205
1819 0 180.235 13.5101 2435 107.207 1200.64 436.218
1820 0 187.24 13.1435 2461 107.085 1201.9 432.134
1821 0 192.441 12.8559 2474 108.595 1201.42 435.47
1822 0 197.266 12.8557 2536 108.623 1201.31 430.82
1823 0 205.32 12.8093 2630 108.752 1201.1 426.828
1824 0 211.542 12.5696 2659 107.518 1201.46 425.818
1825 0 215.39 12.4147 2674 109.41 1201.45 420.957
1826 0 225.363 12.837 2893 108.723 1201.48 418.839
1827 0 232.388 12.9697 3014 108.233 1201.76 413.654
1828 0 239.307 12.8329 3071 108.814 1201.36 409.542
1829 0 247.587 12.9248 3200 109.004 1201.06 402.927
1830 0 256.442 13.2077 3387 108.408 1201.03 402.448
1831 0 264.418 12.9832 3433 109.239 1201.39 396.024
1832 1 197.289 11.5111 2271 106.48 1201.48 432.598
1833 0 203.317 12.7142 2585 105.255 1201.48 427.434
1834 0 208.428 13.0885 2728 104.128 1201.49 426.557
1835 0 213.516 12.9639 2768 105.391 1202.24 422.796
1836 0 218.558 12.2805 2684 105.947 1202.55 419.841
1837 0 226.621 12.2407 2774 110.153 1202.03 414.043
1838 0 232.464 12.2944 2858 110.097 1202.69 411.709
1839 0 239.51 12.1916 2920 109.754 1202.7 409.642
1840 0 247.514 12.8235 3174 108.892 1202.39 407.121
1841 0 256.602 13.406 3440 108.124 1202.35 400.353
1842 0 262.537 12.364 3246 105.174 1202.24 397.972
1843 0 273.547 13.0106 3559 106.419 1202.4 393.689
1844 0 281.522 12.7201 3581 107.637 1202.57 386.905
1845 0 288.406 12.5795 3628 109.08 1202.78 382.323
1846 0 289.523 10.6589 3086 111.1 1202.83 389.948
1847 0 290.382 8.17889 2375 110.777 1202.84 410.103
1848 0 289.433 9.00036 2605 108.886 1202.63 402.55
1849 1 266.408 11.4899 3061 104.013 1202.39 399.44
1850 0 272.313 12.1588 3311 102.73 1202.57 395.5
1851 0 280.547 12.9996 3647 102.132 1202.87 387.849
1852 0 287.215 14.7102 4225 99.5995 1201.45 385.898
1853 0 297.424 13.6808 4069 97.0098 1201.48 378.457
1854 0 304.45 13.0596 3976 99.4577 1201.86 373.337
1855 0 313.342 15.2166 4768 93.2043 1201.73 366.639
1856 0 323.505 15.8174 5117 91.8814 1202.02 361.877
1857 0 333.504 15.7179 5242 92.3134 1201.74 357.36
1858 0 343.647 16.6013 5705 90.8323 1201.89 353.17
1859 0 352.654 16.648 5871 91.1671 1202.23 344.308
1860 0 361.548 15.5249 5613 96.0665 1202.02 339.822
1861 0 373.744 16.0003 5980 98.6677 1202.27 330.765
1862 0 385.541 15.1631 5846 99.837 1202.06 327.777
1863 0 399.601 15.8808 6346 95.3749 1202.03 320.851
1864 0 410.761 15.6003 6408 98.2762 1201.91 308.63
1866 0 419.784 16.4061 6887 103.825 1202.31 304.811
1867 0 420.565 16.4564 6921 100.546 1201.66 308.41
1868 0 223.3 16.3054 3641 95.9388 1200.51 244.383
1869 0 230.329 17.0713 3932 94.2355 1200.67 231.532
1870 0 223.492 16.9894 3797 96.1156 1201.37 215.083
1871 0 226.624 17.4959 3965 94.9594 1201.8 218.203
1872 0 231.684 18.3094 4242 92.8751 1201.4 220.828
1873 0 232.924 17.8986 4169 92.425 1200.82 219.547
1874 0 233.957 16.9775 3972 94.6755 1201.26 220.067
1875 0 234.804 17.2825 4058 92.5044 1201.57 219.846
1876 0 243.166 16.3592 3978 95.2401 1201.51 226.759
1877 0 251.215 17.1845 4317 91.1584 1201.33 240.058
1878 0 256.336 16.8529 4320 89.5199 1201.69 244.913
1879 0 258.236 16.3726 4228 91.0367 1201.69 246.914
1880 0 262.202 16.6932 4377 89.8673 1202.03 252.591
1881 0 266.468 16.6436 4435 89.7829 1201.86 255.094
1882 0 274.569 15.8321 4347 92.1458 1202.36 262.641
1883 0 278.571 16.9939 4734 88.6715 1202.09 260.208
1884 0 284.38 15.5988 4436 91.5122 1202.17 255.3
1885 0 294.694 17.1738 5061 87.8267 1202.66 248.606
1886 0 294.596 17.3797 5120 88.393 1202.53 248.149
1887 0 292.741 17.6641 5171 89.8822 1201.8 246.241
