time division length width area intensity CMx CMy
0 0 43.0258 11.7371 505 97.2634 914.37 500.968
1 0 46.0326 11.6657 537 96.1639 914.808 500.488
2 0 46.0065 11.7375 540 96.0537 914.637 501.567
3 0 49.0297 12.7474 625 92.1808 914.344 500.394
4 0 48.0207 12.1198 582 92.6117 914.859 500.302
5 0 50.0136 12.4766 624 89.2388 914.731 501.048
6 0 53.0192 12.6746 672 88.5179 914.417 499.799
7 0 52.0618 12.6964 661 88.9531 914.708 499.322
8 0 55.0414 13.0629 719 86.993 914.798 498.221
9 0 57.0509 12.41 708 89.3065 914.66 497.643
10 0 59.0676 12.765 754 87.9907 913.517 496.528
11 0 61.0227 12.225 746 88.4517 914.432 495.869
12 0 63.1538 13.1425 830 89.7349 914.136 494.539
13 0 67.0803 14.4006 966 87.9389 913.236 492.838
14 0 70.063 13.5307 948 94.1857 913.981 490.415
15 0 70.0534 13.6324 955 95.4377 913.542 490.273
16 0 72.0682 13.4456 969 95.8834 914.35 490.546
17 0 76.0998 13.4954 1027 95.0438 913.498 487.633
18 0 79.135 13.9382 1103 94.7063 914.064 487.715
19 0 81.1621 14.4895 1176 93.5374 913.38 485.478
20 0 84.1182 13.9209 1171 96.38 913.051 483.647
21 0 89.1077 15.1839 1353 92.782 912.204 483.336
22 0 90.0948 14.7511 1329 95.0293 913.024 481.965
23 0 93.0795 14.7293 1371 95.2188 912.705 480.569
24 0 94.0717 14.6484 1378 96.1422 912.747 480.737
25 0 100.081 15.2276 1524 92.9442 913.013 478.167
26 0 102.1 15.2302 1555 92.3749 912.601 477.871
27 0 105.088 14.8066 1556 92.7397 912.539 476.083
28 0 108.123 15.1217 1635 90.1829 912.602 475.524
29 0 114.068 15.3944 1756 88.6498 911.927 473.701
30 0 118.126 15.6528 1849 87.4851 912.362 472.082
31 1 58.0264 12.9941 754 90.8037 912.509 500.642
32 0 60.0429 13.2239 794 90.6889 911.666 500.154
33 0 64.0515 13.8014 884 88.6561 911.936 498.038
34 0 66.0562 14.0638 929 89.8698 911.822 496.637
35 0 70.0817 13.8981 974 89.8368 912.313 494.719
36 0 72.036 14.5066 1045 88.8507 911.251 492.221
37 0 76.05 14.1354 1075 89.7795 911.692 490.294
38 0 79.0582 14.2174 1124 89.3852 911.441 488.625
39 0 82.055 14.3684 1179 88.7574 911.933 487.662
40 0 85.0626 14.6363 1245 88.506 911.897 485.521
41 0 86.0346 14.2849 1229 89.24 911.474 484.222
42 0 90.0411 13.6937 1233 89.283 911.722 482.343
43 0 93.1167 13.7462 1280 88.1961 911.36 478.888
44 0 96.0924 14.2675 1371 86.2188 911.45 479.262
45 1 49.0889 12.4672 612 84.0245 911.923 501.35
46 0 50.0958 12.4761 625 83.5264 911.866 501.059
47 0 51.0701 12.1206 619 83.7884 911.89 497.262
48 0 52.0819 12.7108 662 84.3384 912.02 497.588
49 0 54.0504 12.7289 688 84.3619 912.096 498.586
50 0 58.0201 12.9265 750 83.856 911.476 497.644
51 0 59.066 12.7146 751 85.4581 911.992 498.245
52 0 59.0663 12.6976 750 138.448 912.988 498.287
53 0 62.0753 13.4031 832 86.5541 911.286 495.859
54 0 66.027 13.0401 861 86.9663 911.209 494.942
55 0 66.0529 12.6565 836 87.927 911.689 494.634
56 0 70.0643 12.7026 890 88.5124 911.702 492.496
57 0 74.0477 12.8296 950 89.5379 911.395 488.872
58 0 78.0382 13.3781 1044 87.5565 911.862 489.779
59 0 78.018 13.3431 1041 88.4169 911.923 488.247
60 0 80.0661 13.1267 1051 89.5557 911.324 486.322
61 0 84.079 13.2613 1115 89.7874 911.485 484.838
62 0 87.1101 13.5576 1181 89.0093 912.229 482.644
63 0 90.0374 12.9724 1168 90.5034 911.698 480.562
64 0 94.1117 13.2183 1244 88.9156 912.042 479.987
65 0 94.1075 12.6239 1188 90.2525 911.739 479.37
66 0 99.084 12.3532 1224 89.2328 911.76 478.047
67 0 104.127 13.0994 1364 88.1591 911.328 474.846
68 1 56.0781 11.1808 627 87.6284 910.748 497.166
69 0 60.0523 12.2893 738 86.3577 910.875 497.654
70 0 62.0373 12.702 788 86.9708 911.668 497.473
71 0 66.074 12.819 847 86.6505 911.705 496.028
72 0 68.0506 13.2548 902 85.4978 911.619 494.436
73 0 71.0768 13.2533 942 85.9745 911.784 493.046
74 0 73.0758 12.7949 935 87.8438 911.787 491.867
75 0 74.0751 11.8798 880 90.5023 911.918 491.124
76 0 77.1157 12.9546 999 87.6216 911.815 489.504
77 0 77.1354 12.0956 933 92.299 911.271 488.046
78 0 82.069 12.6113 1035 89.3324 911.654 487.272
79 0 84.089 12.9387 1088 89.9246 910.951 486.317
80 0 85.0994 12.315 1048 91.5248 912.144 485.198
81 0 87.0719 12.2198 1064 91.5602 912.516 484.231
82 0 92.056 12.2643 1129 90.0195 912.335 481.909
83 0 93.0513 11.8752 1105 90.1656 912.243 480.776
84 0 95.1194 11.3436 1079 91.0473 912.423 478.194
85 0 100.119 10.967 1098 90.0956 912.329 475.184
86 1 54.1136 10.7367 581 79.5628 912.367 500.207
87 0 56.0736 10.4149 584 76.6216 912.997 499.382
88 0 57.0682 11.5125 657 74.0152 912.846 498.708
89 0 59.1442 11.2268 664 74.3434 912.557 497.47
90 0 60.1086 10.6474 640 70.7156 912.377 497.194
91 0 60.0702 10.7208 644 72.4239 911.877 496.438
92 0 61.0773 10.7405 656 73.904 911.543 494.009
93 0 62.0452 10.0088 621 74.6522 910.997 494.672
94 0 67.0767 10.6743 716 73.0642 911.798 494.27
95 0 68.0948 11.7043 797 71.9724 910.817 491.64
96 0 70.1716 10.5741 742 73.8248 911.074 490.387
97 0 74.1636 11.5825 859 72.5949 910.279 490.987
98 0 75.1218 10.5429 792 73.6856 911.177 489.528
99 0 79.1491 11.1309 881 72.8172 910.563 487.544
100 0 80.0921 10.3006 825 75.08 910.944 487.664
101 0 84.132 10.5073 884 77.3552 911.251 483.663
102 0 88.1163 10.8379 955 75.8754 910.59 483.29
103 0 90.1477 10.8932 982 75.5438 910.647 482.411
104 0 92.1638 10.4596 964 76.0042 911.275 480.293
105 1 49.1466 9.94982 489 71.4315 912.149 501.294
106 0 51.0806 10.2583 524 66.5553 912.578 501.685
107 0 52.1051 9.99902 521 67.4779 911.695 500.372
108 0 54.0974 9.79714 530 67.8283 911.73 499.421
109 0 54.1516 10.0459 544 69.6636 912.156 499.919
110 0 56.1877 10.5895 595 69.6017 912.266 499.353
111 0 57.08 9.96847 569 71.3251 913.13 498.042
112 0 58.0873 9.46851 550 72.2491 912.48 497.28
113 0 60.107 9.78255 588 71.9116 912.284 495.095
114 0 63.1358 10.7704 680 70.5118 912.175 493.879
115 0 64.0798 10.3465 663 71.8205 912.29 495.965
116 0 68.0745 10.9292 744 71.328 912.358 493.906
117 0 69.0864 10.6099 733 70.5498 911.971 494.469
118 0 72.0347 11.1058 800 72.61 911.318 491.536
119 0 74.0909 11.4049 845 72.497 912.143 491.041
120 0 77.0849 11.4679 884 73.345 911.24 489.494
121 0 79.1852 11.6183 920 73.9815 911.033 488.478
122 0 82.1042 11.9482 981 72.9337 911.591 486.871
123 0 84.1017 11.4623 964 76.0332 911.537 485.612
124 0 86.0882 11.0236 949 79.0759 912.157 485.146
125 0 88.0665 11.866 1045 79.3713 911.841 482.474
126 0 91.1225 11.4242 1041 82.5399 911.332 480.676
127 0 97.1061 12.821 1245 87.5462 911.093 478.294
128 0 99.1197 11.9048 1180 88.9254 911.703 476.777
129 0 102.092 12.1263 1238 89.6696 910.948 475.243
130 1 52.1287 10.5892 552 83.8134 911.44 501.299
131 0 54.0546 10.9149 590 80.039 911.288 499.83
132 0 57.0317 11.8706 677 77.1772 911.369 497.923
133 0 57.0476 11.8498 676 72.6095 910.858 499.765
134 0 59.043 11.7372 693 73.0447 911.111 498.867
135 0 63.06 12.8608 811 68.4612 911.178 497.716
136 0 66.0847 13.2708 877 67.0034 911.48 495.911
137 0 67.0913 12.5352 841 68.0048 911.138 494.787
138 0 68.1446 12.18 830 68.3458 910.624 494.798
139 0 69.155 11.5538 799 70.8373 910.922 493.727
140 0 74.0551 11.8155 875 68.936 910.066 492.424
141 0 75.1097 11.9026 894 68.7405 909.311 491.386
142 0 78.0437 11.7755 919 68.7682 909.807 490.642
143 0 80.0335 11.1328 891 69.4186 909.638 488.19
144 0 83.0874 11.2051 931 69.638 910.025 487.787
145 0 84.0635 10.9322 919 70.4962 910.13 485.845
146 0 88.1133 11.0653 975 69.7497 911.237 486.291
147 0 90.0579 10.4155 938 70.3454 910.563 483.954
148 1 47.0272 10.6534 501 69.481 910.521 505.449
149 0 49.0112 11.6096 569 67.5975 910.25 502.459
150 0 49.087 11.1027 545 71.4073 910.09 501.822
151 0 47.0291 10.0576 473 69.6025 909.96 503.907
152 0 50.0154 10.6967 535 69.1477 909.516 502.884
153 0 51.0552 10.5768 540 68.9852 909.394 502.687
154 0 54.0714 10.1162 547 68.4552 908.856 500.437
155 0 54.0211 10.3848 561 68.5722 909.647 498.677
156 0 56.0737 10.5397 591 70.3536 909.474 499
157 0 58.0305 10.0292 582 70.1512 909.77 497.567
158 0 59.0224 10.2334 604 70.5464 909.985 497.641
159 0 62.2627 10.5199 655 70.2794 909.426 495.678
160 0 66.0357 10.6306 702 70.5242 909.601 494.886
161 0 67.0427 9.78481 656 71.9512 909.643 492.252
162 0 70.0392 10.5227 737 70.7476 909.678 492.802
163 0 71.0931 10.3948 739 70.8214 909.947 492.813
164 0 73.0776 9.53781 697 73.109 910.356 492.181
165 0 76.0553 10.9 829 71.6936 910.427 488.726
166 0 79.0636 9.95401 787 74.1665 909.94 488.478
167 0 82.0837 10.8182 888 73.9043 909.888 485.801
168 0 85.1237 10.1147 861 76.7282 910.797 482.93
169 1 46.0634 10.1599 468 75.1859 911.498 503.374
170 0 47.0697 10.4738 493 73.146 911.832 502.252
171 0 50.0922 10.5406 528 73.9678 911.938 502.261
172 0 52.0825 11.1746 582 69.6289 911.866 500.125
173 0 54.1074 11.6066 628 71.0987 912.502 498.537
174 0 55.043 12.4811 687 70.2955 911.606 499.568
175 0 58.0326 12.1656 706 71.2323 910.742 498.387
176 0 56.1906 11.194 629 75.1002 911.824 500.801
177 0 59.0645 11.8514 700 74.0586 910.94 498.653
178 0 58.0748 11.0375 641 75.4337 911.214 497.061
179 0 61.1591 11.5437 706 72.9065 911.595 497.534
180 0 64.1809 12.309 790 71.4114 912.094 495.849
181 0 65.2015 11.5488 753 72.8473 912.279 495.785
182 0 67.0772 12.2247 820 74.2098 912.083 492.812
183 0 69.0895 11.9845 828 75.3551 911.374 492.422
184 0 70.1025 11.583 812 76.4076 911.326 491.952
185 0 73.0885 11.7118 856 77.4813 910.55 488.801
186 0 76.1161 12.0999 921 76.8882 911.407 489.74
187 0 79.1356 12.4723 987 75.8024 911.277 489.255
188 0 82.1492 12.4286 1021 77.4065 911.452 486.932
189 0 85.1691 11.941 1017 78.4228 911.727 485.028
190 1 46.2559 10.5068 486 76.8066 912.329 502.858
191 0 45.2548 10.7613 487 74.0164 911.485 500.429
192 0 46.2681 10.8714 503 70.503 910.962 499.753
193 0 49.165 12.4479 612 77.9869 910.111 502.415
194 0 50.2155 12.2074 613 77.9755 910.37 500.977
195 0 52.1432 12.3506 644 77.9193 910.533 500.801
196 0 52.2308 12.4639 651 78.1429 910.246 499.948
197 0 55.2239 12.2773 678 76.7965 910.224 499.652
198 0 58.0359 12.4578 723 75.621 911.246 498.158
199 0 58.0683 12.4164 721 75.9404 910.656 498.413
200 0 61.0571 12.5784 768 74.793 910.667 497.483
201 0 63.0485 12.7045 801 74.4632 910.854 496.142
202 0 65.0331 12.5013 813 94.2349 910.814 494.322
203 0 68.0717 12.3105 838 94.4547 910.32 494.412
204 0 69.0559 12.1206 837 95.2401 910.148 492.502
205 0 70.1569 12.9139 906 94.6711 910.458 491.461
206 0 70.1369 13.0031 912 141.575 910.416 491.45
207 0 75.1223 12.0071 902 95.1441 910.243 489.529
208 0 77.114 11.9434 921 93.6222 910.796 489.06
209 0 79.0958 11.897 941 93.9756 909.38 488.295
210 0 81.101 11.7631 954 94.2306 910.202 486.051
211 0 83.1198 11.1405 926 86.6652 908.855 481.053
212 0 86.1053 11.2188 966 88.8727 909.269 484.762
213 0 88.111 11.1904 986 88.9777 909.322 483.336
214 1 46.0931 10.5222 485 84.5258 909.53 504.81
215 0 46.0147 10.4966 483 83.3954 909.925 504.493
216 0 47.0174 9.97503 469 84.6269 909.891 504.386
217 0 51.0128 10.5464 538 81.5911 909.779 503.335
218 0 51.1164 10.7598 550 82.0564 909.611 501.682
219 0 50.1055 10.9369 548 81.7865 908.834 500.958
220 0 55.1023 11.5603 637 80.336 908.278 500.327
221 0 56.1473 12.111 680 82.7529 908.54 497.272
222 0 58.0561 11.7128 680 89.9221 908.974 496.682
223 0 59.0511 12.5823 743 89.105 909.297 496.05
224 0 63.0276 12.2645 773 90.1009 909.516 494.524
225 0 62.0516 12.5057 776 92.4588 908.96 494.168
226 0 65.0564 12.005 781 93.5967 908.566 491.99
227 0 68.0747 12.4569 848 92.4469 908.888 491.561
228 0 70.0388 12.593 882 92.7302 908.65 490.508
229 0 73.0947 12.2991 899 94.8198 908.512 489.974
230 0 74.0472 12.7351 943 95.5292 909.162 488.127
231 0 79.0558 12.5228 990 96.3192 908.219 487.377
232 0 82.166 13.0589 1073 95.7279 908.549 487.092
233 0 82.1002 12.5335 1029 99.4888 908.534 486.055
234 0 85.0947 12.398 1055 99.4028 908.734 482.465
235 0 88.1336 12.4016 1093 98.6395 909.019 480.857
236 0 90.1277 12.8373 1157 97.713 908.769 479.945
237 0 93.1816 12.1161 1129 97.0957 908.32 477.734
238 0 95.1255 11.7003 1113 90.2255 908.739 479.001
239 1 49.0232 11.158 547 88.4644 909.784 500.068
240 0 51.0535 11.6544 595 87.5076 908.477 499.227
241 0 54.0576 11.7837 637 85.4192 908.316 498.852
242 0 58.0833 12.5337 728 87.4038 908.014 498.271
243 0 59.0494 12.2948 726 87.8168 907.868 498.632
244 0 60.0518 11.923 716 89.2947 908.087 498.302
245 0 63.1113 11.7253 740 89.6405 908.354 497.369
246 0 65.1016 12.4575 811 88.4834 908.387 496.533
247 0 65.1506 12.4327 810 139.905 908.404 496.609
248 0 69.1484 13.1601 910 87.4824 908.379 494.034
249 0 68.1245 12.4478 848 91.1804 908.304 493.064
250 0 73.1393 12.6334 924 89.869 908.953 491.839
251 0 74.1231 13.0863 970 90.8175 909.339 490.933
252 0 76.1087 12.6004 959 91.2972 909.193 490.318
253 0 79.1399 12.9138 1022 88.3552 908.134 488.855
254 0 81.0714 12.5445 1017 90.8564 908.723 485.974
255 0 85.1358 12.8031 1090 91.1046 909.006 485.378
256 0 87.2396 12.8841 1124 91.6076 908.666 484.043
257 1 45.0346 10.8805 490 86.4326 908.955 507.608
258 0 46.0573 11.616 535 81.8467 909.417 506.95
259 0 47.0715 11.5994 546 82.0788 909.423 506.581
260 0 49.0456 11.7238 575 84.1322 909.183 504.473
261 0 50.0391 11.7908 590 83.4136 909.605 503.275
262 0 51.0752 12.0802 617 83.3468 910.063 502.084
263 0 52.0566 11.5067 599 85.1987 909.611 502.145
264 0 54.0977 11.7565 636 84.684 909.486 500.766
265 0 56.0417 12.5264 702 83.0157 909.725 500.694
266 0 57.0283 11.8011 673 84.7207 909.407 500.071
267 0 58.0262 12.5116 726 83.624 909.241 498.726
268 0 62.0546 12.4084 770 82.9935 909.486 498.321
269 0 62.0471 12.1359 753 85.834 908.619 497.737
270 0 63.1018 12.4719 787 85.8768 908.768 497.174
271 0 66.1384 12.8518 850 85.06 908.644 496.595
272 0 68.0748 12.8094 872 83.5917 908.881 495.399
273 0 70.0736 12.5154 877 85.4584 908.896 494.518
274 0 73.0459 12.9781 948 83.711 908.949 491.925
275 0 75.0788 12.7732 959 84.3608 908.923 490.626
276 0 77.069 13.2608 1022 84.8601 908.773 490.12
277 0 78.0513 12.6327 986 86.9077 908.967 489.08
278 0 83.0733 12.5552 1043 86.7306 909.279 487.048
279 1 41.0189 10.166 417 87.3142 909.902 507.52
280 0 43.0462 10.9417 471 85.7919 910.473 507.622
281 0 45.0376 11.4127 514 84.642 910.399 505.893
282 0 45.0317 11.1477 502 85.3028 910.01 507.434
283 0 46.1301 11.4892 530 85.4094 910.281 504.925
284 0 48.1782 11.9141 574 89.9286 909.603 503.549
285 0 50.1046 11.1966 561 91.8877 908.824 504.009
286 0 52.1103 11.7827 614 90.7899 908.919 502.941
287 0 51.1247 11.7164 599 93.3723 908.798 502.513
288 0 54.0981 11.2573 609 93.2939 907.928 503.182
289 0 56.0763 11.6983 656 92.5564 908.034 501.384
290 0 56.0906 11.4279 641 95.3604 908.412 499.39
291 0 58.1774 11.5681 673 94.9792 908.428 498.961
292 0 59.123 11.6029 686 93.8251 908.236 498.334
293 0 64.1429 11.7394 753 92.1567 908.908 498.27
294 0 65.1418 12.2195 796 91.5729 908.407 496.662
295 0 66.1072 12.1016 800 92.2838 907.912 497.186
296 0 68.1398 12.2542 835 93.0742 907.853 495.819
297 0 70.1335 12.6331 886 92.9752 907.475 493.632
298 0 71.1343 12.3007 875 93.8583 908.664 492.569
299 0 75.0312 12.2882 922 93.8612 908.973 492.742
300 0 79.0724 12.3558 977 92.9079 908.193 490.744
301 0 80.0767 12.6129 1010 94.0347 908.691 488.158
302 0 84.068 12.6921 1067 93.1425 908.995 487.936
303 0 87.1288 12.6135 1099 93.0491 909.03 486.132
304 0 89.1104 13.1186 1169 92.2549 909.497 483.926
305 1 44.0612 10.2584 452 89.6549 909.792 506.991
306 0 46.0296 11.0147 507 88.0178 909.728 505.467
307 0 46.0358 11.0132 507 88.7081 909.558 505.594
308 0 50.0642 11.8448 593 80.1922 909.28 505.369
309 0 48.0658 12.2124 587 74.1124 908.194 507.138
310 0 50.0145 12.1165 606 74.6205 908.629 506.526
311 0 52.0218 12.0526 627 76.244 909.376 506.083
312 0 53.0384 11.9724 635 77.2236 908.51 505.945
313 0 53.065 12.2303 649 78.2111 908.455 504.946
314 0 55.0123 12.8698 708 77.1596 908.773 504.614
315 0 58.0529 12.8159 744 77.4395 908.395 503.001
316 0 60.0218 12.6287 758 77.9894 908.611 502.096
317 0 63.0226 12.3765 780 78.5167 908.612 501.674
318 0 62.0527 12.2154 758 79.3865 908.22 501.181
319 0 66.0506 12.7175 840 78.3583 908.029 501.808
320 0 68.0477 12.5353 853 79.3763 908.475 500.321
321 0 70.0503 12.6909 889 79.0472 908.867 499.73
322 0 70.0456 12.3206 863 81.6199 908.273 498.098
323 0 73.0599 12.4008 906 82.8852 908.264 496.586
324 0 76.0787 12.8945 981 81.8043 907.914 496.6
325 0 78.1435 13.0657 1021 82.5877 907.909 495.879
326 0 80.1225 12.4934 1001 85.041 907.931 494.004
327 0 81.0396 13.0554 1058 85.5614 907.957 492.718
328 0 84.0616 12.8953 1084 86.5304 907.578 491.741
329 0 86.0912 12.6261 1087 88.7875 907.698 492.648
330 0 88.0354 12.7222 1120 89.9446 907.821 491.958
331 0 89.0399 12.2979 1095 93.053 907.774 489.416
332 0 93.0603 12.7659 1188 91.0118 907.171 486.915
333 0 98.0807 12.9893 1274 90.7567 907.396 485.63
334 1 50.029 11.3934 570 92.121 907.774 508.502
335 0 52.0287 11.7435 611 92.8036 907.517 508.19
336 0 53.0524 12.4217 659 92.4476 908.003 506.675
337 0 54.0342 12.3995 670 91.9731 907.204 504.913
338 0 54.0258 12.1608 657 86.2253 907.368 505.018
339 0 56.0809 11.84 664 87.1687 906.703 504.384
340 0 57.0938 12.5933 719 85.299 906.801 503.819
341 0 61.065 12.9534 791 84.0657 906.75 502.547
342 0 64.0705 13.0481 836 83.9474 906.724 502.006
343 0 63.0471 12.8 807 86.6022 906.188 500.882
344 0 66.0447 12.3856 818 87.9609 905.854 499.764
345 0 68.0584 12.6509 861 87.1185 905.704 499.038
346 0 70.0326 12.5227 877 88.3774 905.569 497.818
347 0 71.0815 12.8022 910 89.4055 905.706 496.566
348 0 72.0256 12.0652 869 91.6582 904.18 495.306
349 0 75.0586 12.2837 922 90.8167 904.503 494.951
350 0 77.056 12.2249 942 89.9809 905.042 493.402
351 0 81.0804 12.4814 1012 88.7717 904.478 491.493
352 0 82.0328 11.8245 970 89.2722 904.141 491.311
353 0 86.1118 11.4154 983 86.4171 904.935 490.345
354 0 90.0641 11.403 1027 86.076 904.698 486.998
355 1 47.0679 11.2816 531 82.3277 905.2 507.766
356 0 48.013 11.7052 562 80.8096 905.123 507.418
357 0 49.0217 11.2603 552 87.3678 905.859 504.697
358 0 50.0168 11.796 590 88.8136 906.986 505.134
359 0 54.0044 11.5361 623 87.7207 906.624 503.913
360 0 56.0285 12.1902 683 86.1157 905.136 502.146
361 0 55.0364 10.5021 578 90.3633 904.984 502.029
362 0 59.034 11.3325 669 87.0269 904.803 500.842
363 0 60.022 11.779 707 84.6888 905.612 499.818
364 0 62.0643 11.6975 726 85.5331 905.613 499.855
365 0 64.0303 11.8538 759 84.7273 905.701 497.971
366 0 67.0669 11.7047 785 85.0369 904.856 498.008
367 0 68.0599 11.4752 781 85.831 905.858 496.835
368 0 70.0926 11.2137 786 85.4555 905.651 494.168
369 0 73.0927 11.7385 858 84.69 906.399 494.261
370 0 75.0682 11.6561 875 84.48 906.289 491.93
371 0 77.1053 11.2573 868 84.9147 906.619 492.522
372 0 79.1483 11.0552 875 87.208 906.031 488.719
373 0 83.0825 10.4836 871 87.3157 905.83 490.251
374 1 42.0182 9.61489 404 83.1262 906.918 508.577
375 0 46.0289 10.0372 462 81.0931 907.182 508.037
376 0 45.0239 9.5727 431 78.2204 906.856 508.824
377 0 46.0244 10.69 492 76.8841 907.193 507.754
378 0 47.0141 10.5075 494 77.6559 906.945 508.285
379 0 46.0472 10.4892 483 78.2132 906.93 506.992
380 0 50.0365 11.3717 569 75.7487 906.536 505.167
381 0 51.018 11.1921 571 75.2312 906.245 504.594
382 0 51.1044 10.2144 522 76.5939 906.402 505.412
383 0 52.0756 10.1967 531 77.0904 906.363 503.079
384 0 56.0948 10.4109 584 74.9846 906.57 502.565
385 0 57.1002 10.9982 628 73.6083 906.803 502.739
386 0 56.0882 9.30677 522 77.1475 907.119 501.205
387 0 59.1068 10.2865 608 74.903 907.658 500.299
388 0 62.1162 10.0779 626 75.8786 907.829 499.938
389 1 125.216 10.1105 1266 97.6611 906.997 465.656
390 0 124.202 9.13032 1134 99.2346 906.668 465.074
391 0 124.148 6.70972 833 98.8836 906.522 473.084
392 1 37.0592 7.82532 290 83.0414 906.645 508.024
393 0 35.0681 7.95596 279 82.8961 907.373 508.283
394 0 34.0878 7.27534 248 81.5766 907.242 508.315
395 0 36.036 8.43601 304 78.7171 907.424 507.431
396 0 37.0241 8.69704 322 75.9193 907.556 508.863
397 0 44.019 9.58678 422 73.2275 907.637 504.72
398 0 44.0876 8.43775 372 73.2124 907.917 507.688
399 0 46.0808 9.11443 420 72.3405 908.388 504.871
400 0 47.0668 8.41358 396 72.6263 908.24 504.576
401 0 50.069 9.50689 476 71.8908 908.233 502.567
402 0 50.1665 9.08973 456 73.4934 907.2 502.678
403 0 50.0259 9.17525 459 75.0588 907.453 499.782
404 0 51.1588 9.20662 471 75.4522 907.679 499.732
405 0 54.2014 9.15106 496 76.5343 907.496 500.234
406 0 54.1047 8.52052 461 77.4794 907.145 500.616
407 0 55.1882 8.8787 490 78.298 907.735 499.522
408 0 57.2086 8.58263 491 78.0163 908.088 498.682
409 0 59.1921 8.29503 491 78.3116 907.984 497.326
410 0 62.2448 9.1092 567 77.3527 907.582 493.815
411 0 63.2438 8.57 542 78.3229 907.238 496.244
412 0 64.2463 9.09002 584 79.25 908.062 492.317
413 0 68.3382 10.2139 698 77.6805 907.43 488.106
414 0 72.4226 10.2178 740 78.3203 907.534 488.889
415 0 72.1946 10.0839 728 79.2555 906.971 485.591
416 0 73.0715 10.6471 778 78.7031 907.226 487.374
417 0 75.0585 11.3511 852 77.9754 907.351 484.646
418 0 79.1845 12.0478 954 77.7233 907.302 484.389
419 0 79.1269 11.7912 933 78.7342 906.39 480.753
420 0 78.1082 10.3702 810 83.9778 906.496 483.027
421 0 80.0822 10.739 860 83.5942 906.652 481.834
422 0 85.0514 10.9111 928 83.2037 906.287 481.904
423 0 87.0889 10.8625 946 84.4006 906.868 477.274
424 0 89.0982 10.7859 961 84.3184 905.605 477.836
425 0 93.0542 10.639 990 85.6616 906.539 474.875
426 0 98.1126 10.9466 1074 84.3548 906.656 474.744
427 0 103.076 10.3224 1064 85.8355 906.944 473.467
428 0 106.08 10.9729 1164 84.5773 906.54 470.643
429 1 56.1275 9.12209 512 83.9805 907.1 493.141
430 0 60.0935 10.1675 611 82.5188 907.426 494.745
431 0 63.0508 11.0387 696 79.6954 907.079 494.682
432 0 67.079 10.4504 701 81.5292 905.708 494.23
433 0 70.0976 10.357 726 80.9449 906.205 493.442
434 0 71.0637 10.9761 780 81.0628 906.586 492.073
435 0 73.0551 11.1286 813 80.631 906.562 490.103
436 0 75.1195 10.9293 821 80.4409 907.862 490.127
437 0 78.0254 11.4834 896 80.0179 907.955 488.434
438 0 81.0927 11.1847 907 79.9526 908.47 485.967
439 0 82.1852 11.0117 905 81.4983 907.86 485.23
440 0 88.2103 11.9034 1050 80.079 907.114 487.23
441 0 91.1036 12.7328 1160 79.619 908.047 486.159
442 0 94.2142 12.2381 1153 81.6938 907.683 484.775
443 0 96.1525 12.4906 1201 82.6062 907.395 482.032
444 0 99.1114 12.2488 1214 83.6697 907.946 482.464
445 0 101.177 12.3941 1254 82.8724 907.52 480.909
446 0 103.132 11.3738 1173 84.8252 908.614 479.358
447 0 105.157 12.1437 1277 77.8536 907.665 476.806
448 1 56.1298 10.2798 577 74.818 908.428 503.893
449 0 59.158 10.2268 605 75.5818 909.205 504.319
450 0 58.1075 10.4806 609 75.2709 908.604 502.724
451 0 60.1354 10.5595 635 76.3717 908.494 502.378
452 0 62.0411 10.4608 649 75.6826 908.159 501.037
453 0 62.0958 11.128 691 76.3589 908.386 499.618
454 0 65.1225 11.5014 749 76.753 909.283 497.64
455 0 68.0426 12.066 821 75.8258 908.542 497.983
456 0 69.1018 12.156 840 76.7667 909.098 495.47
457 0 70.0976 11.969 839 77.441 908.995 494.278
458 0 73.0809 11.7815 861 77.0883 908.98 494.733
459 0 74.0872 11.5944 859 78.3679 908.516 493.875
460 0 78.0862 12.2045 953 76.2151 908.643 490.828
461 0 79.063 12.4711 986 75.9351 909.017 490.1
462 0 83.1108 12.369 1028 76.7831 908.68 488.336
463 0 83.1263 12.5351 1042 77.2294 908.571 488.253
464 0 85.1265 11.7355 999 79.6767 909.371 486.675
465 0 87.1116 12.4783 1087 78.6523 908.37 486.086
466 0 91.2254 12.8583 1173 78.4271 908.088 482.485
467 0 93.148 12.3674 1152 79.7543 907.711 482.457
468 0 97.1361 12.8274 1246 78.8467 907.06 480.435
469 0 98.0723 11.6751 1145 82.7493 907.556 479.186
470 0 102.195 13.0143 1330 80.282 908.257 478.889
471 1 53.0495 10.6504 565 85.7522 908.244 501.892
472 0 55.0469 10.6636 587 83.2692 908.605 501.698
473 0 56.0547 11.0071 617 85.0211 909.039 499.93
474 0 57.1306 11.1324 636 85.6384 907.764 498.585
475 0 59.0721 10.7496 635 79.5008 908.4 501.578
476 0 59.1511 10.7014 633 80.2938 908.368 500.784
477 0 61.0618 10.8251 661 79.0242 907.602 500.032
478 0 62.1175 10.0133 622 79.5289 908.54 500.153
479 0 63.0596 10.5139 663 78.089 908.247 499.145
480 0 65.1393 9.93256 647 78.3493 907.504 497.329
481 0 66.0579 10.0367 663 78.641 907.84 496.109
482 0 68.1375 9.48083 646 78.6223 907.774 496.221
483 0 71.0596 9.97755 709 77.4147 907.024 494.267
484 0 70.0712 9.16211 642 78.9206 906.869 492.555
485 0 75.094 9.72115 730 77.1151 907.262 489.27
486 0 77.0862 9.53478 735 77.6286 907.237 488.188
487 0 80.0911 10.101 809 75.9815 907.675 489.99
488 0 83.1735 9.84689 819 75.619 907.062 486.861
489 0 86.1558 9.80781 845 74.3503 907.278 485.327
490 0 89.127 10.7824 961 74.1488 906.97 483.562
491 0 90.1156 10.3423 932 75.3401 907.553 481.397
492 0 95.1811 9.84439 937 75.7631 907.632 481.48
493 0 97.0759 9.88917 960 76.2448 907.524 478.162
494 0 98.1769 9.71715 954 78.5241 907.342 477.282
495 1 50.0832 9.24462 463 79.6372 907.54 502.004
496 0 55.1615 10.714 591 74.1252 906.926 499.57
497 0 56.0304 10.8512 608 77.7549 907.451 497.886
498 0 58.0369 11.4238 663 75.9216 905.52 498.63
499 0 57.0428 11.4476 653 77.1455 905.557 498.415
500 0 59.0382 10.959 647 79.527 906.824 498.55
501 0 59.0382 10.9082 644 111.745 906.817 498.46
502 0 65.0566 10.6984 696 80.0402 905.886 496.693
503 0 65.1867 11.398 743 79.4065 906.991 496.082
504 0 70.1119 12.1092 849 76.6843 906.829 494.763
505 0 70.2202 11.6918 821 77.1985 906.621 492.856
506 0 73.1981 11.1068 813 79.0197 906.841 491.908
507 0 76.2898 11.2859 861 79.2764 906.355 489.812
508 0 77.1983 11.8655 916 80.1681 906.536 488.182
509 0 78.0302 11.2905 881 80.1964 905.439 484.276
510 0 79.0907 11.3161 895 81.9944 905.204 483.004
511 0 83.1239 12.3551 1027 79.1577 906.088 480.665
512 0 84.1143 11.4249 961 81.0291 905.35 479.349
513 0 83.0274 10.6712 886 78.0959 905.659 472.401
514 0 84.0439 10.7087 900 81.1756 905.326 474.009
515 0 85.083 10.2958 876 83.4338 906.296 471.725
516 0 89.0728 10.9012 971 81.6014 905.64 467.482
517 1 45.094 9.58 432 74.7106 905.488 498.363
518 0 41.0706 8.108 333 68.4715 905.045 495.222
519 0 51.0382 11.0505 564 69.3901 905.897 504.66
520 0 53.0652 11.288 599 70.9583 905.628 505.586
521 0 54.038 11.603 627 71.067 905.579 505.533
522 0 55.085 11.4006 628 72.8599 905.522 504.467
523 0 54.0557 10.8037 584 73.6541 905.971 504.926
524 0 58.0748 11.5024 668 71.994 905.752 503.129
525 0 59.0588 11.497 679 72.486 905.965 502.94
526 0 60.0915 11.6988 703 75.0896 905.286 501.336
527 0 64.0848 11.6096 744 75.8118 905.28 500.272
528 0 66.04 11.5385 762 76.7349 905.035 499.319
529 0 65.0394 11.7775 766 78.0118 905.578 499.076
530 0 69.0307 11.5456 797 78.074 904.538 498.683
531 0 69.0386 11.0373 762 80.4029 905.757 496.781
532 0 74.1063 11.9288 884 79.3337 906.281 495.73
533 0 76.1036 12.2202 930 79.8398 905.699 494.765
534 0 78.0956 12.0877 944 80.84 904.895 493.4
535 0 81.1481 12.9886 1054 80.186 905.503 492.526
536 0 84.0716 12.192 1025 82.278 905.621 491.442
537 0 84.1251 12.7192 1070 82.9972 905.357 490.295
538 0 88.2373 12.1717 1074 85.1397 906.003 489.887
539 0 91.1348 12.7613 1163 83.6242 905.925 486.568
540 0 95.0736 13.1793 1253 81.767 905.53 486.006
541 0 97.1003 12.1318 1178 84.5662 905.654 485.916
542 0 101.17 12.731 1288 82.8005 904.576 482.798
543 0 102.111 12.1241 1238 86.5525 904.414 481.729
544 1 55.1129 11.7395 647 87.2427 905.405 504.496
545 0 51.057 10.596 541 79.1294 905.248 498.625
546 0 53.0404 10.0301 532 73.9737 904.878 503.224
547 0 56.0393 9.92162 556 76.1421 905.532 503.135
548 0 57.0185 10.1546 579 77.1969 905.456 500.492
549 0 60.0658 10.2721 617 76.5835 905.642 500.418
550 0 61.0222 10.0783 615 77.4862 905.468 498.925
551 0 62.1435 10.6367 661 76.6354 905.31 494.903
552 0 63.0355 9.6295 607 77.5848 905.435 496.148
553 0 68.176 11.2063 764 73.5052 904.961 497.332
554 0 71.0375 10.8816 773 74.5666 904.881 495.865
555 0 72.0733 10.8362 781 75.0141 904.834 494.627
556 0 75.0762 11.3085 849 74.9388 904.893 491.762
557 0 77.099 10.908 841 75.824 904.924 489.977
558 0 80.1751 11.2005 898 75.4454 904.635 488.771
559 0 80.1092 10.6854 856 78.5023 904.957 484.327
560 0 87.1356 13.0142 1134 86.7892 905.316 490.75
561 0 87.199 12.2937 1072 89.8554 905.486 485.469
562 0 91.3032 12.3325 1126 91.9689 905.501 483.637
563 0 94.1359 12.4501 1172 89.6024 905.422 482.944
564 0 93.2798 12.1677 1135 90.1269 904.716 482.747
565 0 98.1985 12.9228 1269 88.6154 905.267 480.382
566 0 100.311 12.6207 1266 90.248 905.2 475.557
567 0 104.32 12.6246 1317 89.5254 905.254 473.931
568 0 106.351 12.7503 1356 89.6069 905.875 469.931
569 0 107.263 12.3248 1322 91.3011 906.144 468.462
570 0 109.253 12.5763 1374 90.3071 906.223 465.176
571 0 115.294 12.7847 1474 88.8582 905.314 463.99
572 0 116.248 11.6991 1360 90.7794 906.066 464.338
573 0 123.284 12.4591 1536 90.3704 906.169 459.438
574 0 125.302 11.4523 1435 91.9261 905.566 456.893
575 0 129.243 12.0316 1555 91.8161 905.39 456.31
576 0 138.208 12.2135 1688 91.9419 905.229 452.318
577 0 141.292 12.0177 1698 91.4564 904.84 451.46
578 0 148.204 12.3276 1827 93.7291 904.836 446.239
579 1 68.1049 9.67625 659 79.9954 904.49 487.34
580 0 69.2245 10.4154 721 78.4383 904.829 487.165
581 0 75.0845 10.3217 775 75.0516 905.157 486.68
582 0 77.1371 10.5008 810 77.542 905.142 486.228
583 0 81.1362 10.6611 865 74.9399 904.612 483.777
584 0 87.0913 12.0219 1047 83.0821 905.792 487.585
585 0 90.139 11.804 1064 84.032 905.223 488.348
586 0 94.1225 12.1012 1139 84.4241 905.753 486.25
587 0 95.18 11.9458 1137 84.9894 904.824 483.719
588 0 100.191 11.9172 1194 94.2211 904.69 481.014
589 0 104.292 12.3596 1289 92.0155 905.576 479.431
590 0 106.09 11.8107 1253 90.8061 905.33 478.136
591 0 111.104 12.0608 1340 89.9052 904.143 476.393
592 0 115.163 12.2001 1405 92.1445 903.94 473.907
593 0 117.217 11.5171 1350 93.9718 903.592 474.411
594 1 74.1291 10.3603 768 89.4505 904.342 497.641
595 0 76.1384 11.3872 867 87.0473 903.971 496.983
596 0 79.1559 12.1027 958 87.7537 904.015 494.837
597 0 81.0893 12.3444 1001 87.9131 904.498 492.35
598 0 84.1318 12.421 1045 89.5464 904.608 490.874
599 0 85.0743 12.9299 1100 85.9164 903.705 491.087
600 0 87.0914 12.7912 1114 86.57 904.074 489.033
601 0 89.1194 12.3654 1102 88.0563 904.178 487.714
602 0 92.066 13.3274 1227 86.5624 904.04 484.945
603 0 93.0629 12.0886 1125 90.4231 903.957 485.29
604 0 96.1643 12.2915 1182 90.2403 904.012 484.085
605 0 98.092 12.0499 1182 91.4585 903.47 481.982
606 0 100.053 11.264 1127 92.5519 903.428 482.015
607 0 105.138 11.718 1232 92.3807 903.999 479.27
608 0 108.114 12.2834 1328 91.6777 903.634 475.91
609 0 112.252 12.1156 1360 92.7235 903.378 473.307
610 0 116.258 12.2659 1426 92.2265 903.509 470.78
611 0 119.279 12.4246 1482 92.3286 903.914 468.833
612 0 123.261 12.2748 1513 94.3853 904.228 467.06
613 1 69.2483 10.6717 739 91.9648 904.428 495.949
614 0 70.3365 11.3597 799 89.8861 904.688 491.959
615 0 69.174 11.7385 812 89.17 903.373 488.151
616 0 73.1296 12.3753 905 89.5945 903.483 491.194
617 0 77.2694 12.2299 945 88.9164 903.694 489.043
618 0 79.0398 12.6645 1001 85.957 903.748 487.829
619 0 81.0955 12.3805 1004 87.7749 903.301 485.957
620 0 85.0778 12.4592 1060 86.8491 903.523 485.032
621 0 83.0909 11.1565 927 91.9428 903.999 486.786
622 0 88.0721 11.9675 1054 88.3197 904.115 485.699
623 0 92.1632 12.3585 1139 85.9561 904.607 483.953
624 0 92.0732 11.5777 1066 89.6191 904.603 480.409
625 0 93.1276 11.7259 1092 87.0403 904.806 478.226
626 0 98.1199 12.0669 1184 85.489 904.647 474.71
627 0 99.1406 11.9628 1186 87.1821 904.309 471.96
628 0 103.121 12.209 1259 85.691 903.474 471.134
629 1 51.1177 8.99884 460 80.1478 904.306 495.304
630 0 55.1382 9.97493 550 79.1782 905.349 494.551
631 0 56.1086 10.3906 583 79.7907 905.184 493.316
632 0 58.0297 10.4257 605 75.9025 905.398 494.707
633 0 62.0614 11.7625 730 67.2534 905.478 493.601
634 0 65.0386 11.5931 754 80.9231 905.788 499.596
635 0 68.0733 11.8255 805 82.5006 905.502 497.942
636 0 68.0799 11.4865 782 85.5921 906.387 497.243
637 0 70.0875 12.5843 882 84.3594 906.198 495.976
638 0 70.0849 12.0568 845 86.2911 906.241 495.856
639 0 74.0502 12.532 928 85.6401 905.99 494.829
640 0 76.1496 12.3179 938 86.7676 905.45 493.946
641 0 79.1046 13.0966 1036 85.4556 905.098 491.778
642 0 79.0318 12.3115 973 89.2837 905.587 491.291
643 0 82.1429 12.6487 1039 87.0982 905.369 489.126
644 0 86.1568 13.4522 1159 85.7222 905.651 488.582
645 0 89.17 13.4799 1202 85.2413 905.554 485.963
646 0 91.0577 12.9039 1175 86.0434 905.762 482.938
647 0 93.0718 12.6784 1180 86.4992 905.464 480.77
648 0 95.0865 12.883 1225 89.2694 905.841 479.469
649 0 98.0985 12.9156 1267 88.9329 905.736 477.742
650 0 100.141 12.9717 1299 90.0316 905.634 477.52
651 0 104.059 13.4635 1401 88.5253 905.546 474.328
652 0 105.105 12.9394 1360 89.9294 905.723 473.575
653 0 109.083 12.6234 1377 90.793 906.075 471.908
654 0 115.077 13.4258 1545 87.956 905.311 470.202
655 0 115.089 12.7032 1462 87.8194 905.04 468.544
656 0 118.15 12.6619 1496 90.5829 905.352 467.225
657 0 120.097 12.39 1488 91.1768 905.988 465.012
658 0 122.059 11.6993 1428 88.486 905.231 459.394
659 1 66.0145 8.95258 591 80.802 906.252 488.766
660 0 68.0655 10.3136 702 79.4416 905.385 486.655
661 0 68.1275 9.87854 673 75.4413 906.089 484.844
662 0 76.0426 10.1654 773 72.7219 905.657 486.763
663 0 77.0721 10.7172 826 72.6755 905.659 487.709
664 0 80.0758 10.7773 863 73.0614 905.521 486.477
665 0 84.0602 11.2181 943 78.1538 905.313 488.133
666 0 86.061 10.2602 883 79.1404 906.422 487.116
667 0 89.0593 11.0713 986 76.1106 906.14 485.312
668 0 90.1281 10.4629 943 77.0456 906.859 485.509
669 0 93.142 10.8759 1013 72.2122 906.814 480.304
670 0 94.0653 10.312 970 77.0134 906.438 482.725
671 0 98.1057 10.8658 1066 77.2964 906.958 478.885
672 0 102.072 10.6885 1091 77.6957 906.575 478.654
673 0 103.066 10.7795 1111 79.2853 905.686 474.821
674 0 107.042 11.0424 1182 78.0626 906.04 474.945
675 0 110.085 10.2194 1125 79.1458 906.216 473.764
676 0 112.121 9.1776 1029 79.3178 905.937 473.057
677 0 117.143 10.0732 1180 78.2161 905.949 469.856
678 0 121.127 10.1959 1235 78.6032 905.896 465.719
679 1 64.1407 9.26089 594 75.2946 906.308 498.079
680 0 68.12 10.5549 719 71.1822 906.793 494.847
681 0 71.0734 11.2419 799 70.627 906.305 493.428
682 0 73.1247 10.6804 781 72.4699 906.954 492.187
683 0 77.0358 11.2675 868 71.409 905.945 491.709
684 0 78.0784 11.0914 866 73.0266 906.308 492.07
685 0 82.0398 12.0186 986 72.0801 906.458 488.795
686 0 82.0504 10.9811 901 76.1709 906.196 487.862
687 0 87.048 12.0738 1051 76.9134 906.537 486.497
688 0 90.1371 12.1482 1095 76.3215 906.315 486.348
689 0 93.0318 11.9529 1112 76.7536 906.277 485.832
690 0 95.0526 11.7303 1115 78.5704 906.566 483.109
691 0 97.1156 11.8416 1150 79.367 906.018 483.292
692 1 51.0438 10.4028 531 80.2411 905.746 507.782
693 0 52.0122 11.0359 574 79.3833 906.486 507.131
694 0 54.0683 11.0046 595 76.9748 906.01 505.635
695 0 55.1409 10.6999 590 78.8 905.956 504.164
696 0 55.0453 11.0818 610 81.1852 906.5 504.843
697 0 58.1699 11.3633 661 80.5401 906.239 503.902
698 0 61.1076 11.7661 719 79.363 906.142 503.676
699 0 61.1829 11.8334 724 80.7832 905.735 502.378
700 0 60.1059 11.5463 694 83.7839 905.134 502.074
701 0 65.0808 11.9697 779 81.2773 905.815 502.655
702 0 68.1534 12.0317 820 81.3927 905.504 501.294
703 0 70.1397 12.4466 873 82.1535 905.825 498.542
704 0 71.196 12.276 874 84.0618 905.757 497.85
705 0 74.284 11.7791 875 84.3977 905.981 499.19
706 0 75.1374 12.0978 909 85.8097 906.074 497.376
707 0 76.1275 12.085 920 86.8304 905.179 495.688
708 0 80.1865 13.7679 1104 82.6422 905.466 495.744
709 0 82.2311 12.9756 1067 85.8735 904.708 494.948
710 0 85.1805 13.4186 1143 84.9431 905.367 494.245
711 0 86.2334 13.1272 1132 84.773 905.504 493.255
712 0 88.1264 12.6182 1112 82.0656 904.403 492.118
713 0 90.0527 12.1929 1098 85.4308 904.729 491.725
714 0 93.1012 12.5025 1164 84.2019 905.149 490.492
715 0 96.0765 12.4484 1196 84.6572 904.974 488.712
716 0 97.1522 12.4547 1210 86.6099 903.997 488.523
717 0 99.0708 12.698 1258 88.7313 904.165 487.503
718 0 102.11 12.7216 1299 90.3118 904.033 483.582
719 0 106.125 12.457 1322 91.0582 904.352 485.253
720 0 107.056 12.7597 1366 92.104 904.256 482.964
721 0 111.16 12.2795 1365 93.9678 905.157 481.626
722 0 111.163 12.6571 1407 98.565 905.067 482.122
723 0 116.236 12.5349 1457 99.709 904.787 481.293
724 0 119.187 12.5433 1495 101.652 904.197 478.086
725 0 122.238 12.4184 1518 103.219 903.619 475.13
726 0 126.196 12.4569 1572 103.506 904.015 475.599
727 0 128.224 12.252 1571 107.701 904.05 472.235
728 0 127.22 12.3408 1570 156.423 904.042 472.287
729 0 133.172 12.3224 1641 111.834 903.787 468.112
730 0 138.203 12.5468 1734 110.619 903.889 466.097
731 0 142.162 12.4506 1770 112.858 904.169 463.734
732 0 146.143 12.4125 1814 113.56 904.166 460.152
733 0 151.162 12.7281 1924 112.814 904.572 458.417
734 0 154.167 12.707 1959 113.341 904.488 456.407
735 0 157.275 12.6911 1996 114.893 903.753 450.563
736 0 165.232 13.006 2149 112.635 904.518 449.245
737 1 88.1003 9.7162 856 99.3984 904.85 490.347
738 0 91.1571 10.5313 960 98.3354 904.409 487.961
739 0 94.1025 11.4768 1080 97.8759 905.438 488.044
740 0 97.093 11.2367 1091 98.4482 905.327 487.195
741 0 99.1193 11.7132 1161 99.9854 905.094 486.332
742 0 103.125 11.6558 1202 100.893 904.68 483.41
743 0 106.12 11.1949 1188 102.265 904.859 481.553
744 0 108.141 11.1613 1207 103.694 904.159 478.103
745 0 112.2 11.6756 1310 101.45 904.389 476.621
746 0 113.204 10.4678 1185 104.488 904.59 474.432
747 0 117.202 10.8445 1271 102.788 904.825 473.766
748 0 122.168 12.0163 1468 100.144 904.076 468.999
749 0 126.164 11.4296 1442 100.261 904.455 467.334
750 0 131.155 10.865 1425 100.953 904.372 464.775
751 0 134.207 10.7744 1446 100.243 905.198 464.241
752 1 73.1155 10.6954 782 89.7928 905.02 493.565
753 0 75.0944 10.853 815 99.0135 905.401 491.513
754 0 77.0902 11.2595 868 86.606 906.42 494.732
755 0 79.2247 10.8426 859 88.0978 906.312 492.456
756 0 80.1387 10.3446 829 90.7406 905.919 490.189
757 0 86.1204 11.1356 959 87.9718 905.493 489.169
758 0 87.1341 11.1208 969 86.8834 905.621 488.125
759 0 89.1872 10.8087 964 86.8859 905.95 486.46
760 0 93.1848 10.9996 1025 86.6332 906.234 484.871
761 0 95.1497 11.1509 1061 87.1998 906.523 481.948
762 0 99.1205 10.6739 1058 87.9565 906.785 481.186
763 0 101.127 10.2545 1037 92.8814 906.004 479.755
764 0 105.182 9.84006 1035 96.0232 905.569 476.042
765 1 52.0562 8.91344 464 85.6638 905.815 507.205
766 0 55.0248 9.79559 539 83.6716 905.985 505.675
767 0 56.0787 9.86113 553 84.0687 906.524 505.175
768 0 58.0568 10.5758 614 82.5847 906.85 503.941
769 0 59.0652 10.3276 610 85.3115 905.759 502.248
770 0 60.076 10.8196 650 83.8908 905.315 499.926
771 0 62.0341 10.4136 646 85.9474 905.258 499.028
772 0 66.1428 11.324 749 80.3832 905.195 498.003
773 0 67.0789 12.1797 817 84.9045 905.288 495.836
774 0 70.0484 11.0923 777 86.8378 904.266 495.412
775 0 73.0333 11.8713 867 84.9746 905.021 494.91
776 0 75.0637 11.8566 890 85.1169 904.954 493.426
777 0 76.1124 12.0611 918 86.3377 905.602 492.831
778 0 80.1707 11.5254 924 87.7597 905.582 490.779
779 0 81.085 12.0367 976 88.1322 905.442 489.622
780 0 83.0655 11.9905 996 88.5372 905.464 487.289
781 0 86.0745 11.8734 1022 89.2055 904.167 484.727
782 0 89.0504 11.7012 1042 89.4117 904.517 483.572
783 0 91.1573 12.0671 1100 88.3391 904.801 480.345
784 0 95.0932 12.6087 1199 86.1618 904.885 481.023
785 1 51.0332 10.3854 530 91.217 904.492 503.017
786 0 52.0632 9.8342 512 91.7344 904.986 503.08
787 0 53.0258 11.0512 586 86.4659 907.643 503.527
788 0 55.0635 10.5151 579 77.2366 907.406 501.858
789 0 56.145 11.025 619 82.7754 907.179 502.792
790 0 58.1975 10.9799 639 77.011 907.579 502.498
791 0 59.1207 10.8761 643 76.8445 907.969 503.128
792 0 60.1877 10.8328 652 78.7193 907.555 501.568
793 0 63.1689 11.8254 747 76.6104 907.408 499.791
794 0 64.1712 11.033 708 78.476 907.603 499.401
795 0 66.1754 11.3033 748 77.4706 907.568 497.52
796 0 69.0707 11.3507 784 78.6276 907.565 497.565
797 0 72.1231 11.106 801 76.8577 908.74 495.933
798 0 74.0875 11.4324 847 75.6328 908.47 494.208
799 0 76.1399 10.9404 833 77.2065 908.592 492.695
800 0 78.055 11.4407 893 76.7917 908.576 493.308
801 0 80.1504 11.9775 960 75.9792 908.357 490.822
802 1 43.0627 9.70677 418 75.8349 909.471 511.574
803 0 43.1277 10.5733 456 72.8224 908.5 512.441
804 0 45.1076 10.8407 489 74.047 908.2 511.683
805 0 44.0838 10.3893 458 78.2598 908.275 510.734
806 0 48.1651 11.1699 538 72.2212 907.745 509.329
807 0 48.1623 10.5477 508 74.2047 907.791 509.717
808 0 48.1542 10.674 514 75.1751 907.591 509.132
809 0 52.2014 11.6089 606 72.929 907.457 507.462
810 0 52.0924 10.6925 557 77.6409 907.903 506.519
811 0 54.1468 11.4688 621 76.306 907.441 507.225
812 0 55.1514 12.1665 671 75.1937 906.943 506.472
813 0 56.1237 11.9201 669 73.5202 906.649 507.226
814 0 59.1032 11.2515 665 73.5714 905.928 506.526
815 0 60.1659 12.3326 742 71.6415 906.127 504.923
816 0 61.167 12.2615 750 72.1147 906.664 505.596
817 0 65.128 11.915 776 71.5747 905.331 504.392
818 0 67.1424 12.8235 861 70.4669 906.215 504.523
819 0 69.1268 12.0214 831 72.9001 906.184 503.832
820 0 68.1178 12.1995 831 74.2852 906.838 502.714
821 0 72.1244 13.2687 957 72.8986 905.976 500.922
822 0 73.103 12.7081 929 75.3165 905.95 500.466
823 0 75.1109 12.8077 962 76.0218 905.2 498.178
824 0 77.0669 12.6254 973 77.4861 904.936 497.618
825 0 80.1304 12.5545 1006 77.1431 905.484 495.177
826 0 84.0945 12.6881 1067 77.5745 904.924 496.185
827 0 86.0736 13.4304 1156 77.1609 904.958 493.84
828 0 88.21 13.2411 1168 77.47 905.698 492.967
829 0 90.1091 12.9399 1166 80.1767 905.464 491.545
830 0 92.1617 12.847 1184 81.6622 904.441 490.632
831 0 95.2345 12.9995 1238 81.7892 905.006 488.897
832 0 98.2181 13.2562 1302 81.7074 905.44 487.646
833 0 100.115 12.9051 1292 84.8437 905.481 486.404
834 0 100.139 12.932 1295 136.287 906.496 486.378
835 0 107.138 13.1513 1409 86.1604 905.544 483.573
836 0 111.12 13.4359 1493 84.4581 905.658 481.433
837 1 62.045 11.7818 731 83.0369 906.064 505.628
838 0 64.0323 11.3224 725 83.1366 904.623 501.319
839 0 65.1384 11.6982 762 81.4383 903.228 499.903
840 0 66.1906 12.1921 807 79.2354 904.535 500.824
841 0 70.0908 12.2127 856 77.7103 904.408 498.682
842 0 73.1013 12.0244 879 78.8874 904.494 496.365
843 0 75.0991 11.2518 845 81.5456 904.302 494.999
844 0 77.1043 11.2186 865 79.7711 904.379 494.654
845 0 81.0826 11.5068 933 84.4084 904.551 494.976
846 0 81.0877 11.2101 909 80.2805 904.393 492.625
847 0 85.1 11.6804 994 79.1268 904.059 491.466
848 0 89.107 11.7724 1049 79.0906 904.617 491.103
849 0 91.0698 11.2771 1027 81.4664 904.899 488.035
850 0 94.1473 11.6413 1096 82.3823 904.827 486.162
851 0 96.0979 11.634 1118 81.7218 904.877 484.537
852 1 51.116 11.2489 575 79.0817 905.228 507.619
853 0 52.1109 11.5907 604 77.6209 905.618 507.421
854 0 54.0186 11.0332 596 77.1577 904.265 507.963
855 0 54.0396 11.214 606 76.9538 904.111 508.142
856 0 56.0676 11.2899 633 76.722 903.848 507.487
857 0 57.0786 11.0724 632 77.9193 903.813 505.81
858 0 59.0942 11.4055 674 78.1231 903.389 505.018
859 0 60.0241 10.5291 632 79.1361 903.791 504.905
860 0 63.0385 11.5644 729 76.6763 903.925 503.252
861 0 64.0353 11.2126 718 78.5557 903.364 503.13
862 0 67.0642 11.6456 781 75.5416 903.388 502.54
863 0 69.0418 11.4279 789 77.1204 904.262 499.797
864 0 70.0288 10.8384 759 78.8564 903.619 498.759
865 0 73.0282 11.6667 852 76.7617 903.582 499.396
866 0 76.0359 11.1263 846 78.7518 903.495 495.61
867 0 79.0372 11.0454 873 78.2451 903.804 494.585
868 0 80.0356 10.8077 865 79.3457 903.465 494.57
869 0 84.0474 11.4816 965 79.343 903.476 492.214
870 0 87.0257 11.2955 983 79.3917 903.453 491.365
871 0 89.0375 11.3323 1009 81.6452 903.709 489.558
872 0 94.0589 10.8974 1025 81.3639 904.482 487.865
873 0 94.0693 9.37607 882 82.5 903.846 483.899
874 1 51.0327 10.5031 536 76.528 904.685 508.347
875 0 50.1315 10.0336 503 79.0596 904.682 507.753
876 0 54.2323 11.377 617 76.4603 905.269 505.185
877 0 56.0339 10.8506 608 77.9688 904.456 506.773
878 0 58.1088 11.5989 674 76.3932 904.944 505.426
879 0 61.2138 12.1541 744 88.5336 904.977 503.509
880 0 62.2407 11.5841 721 88.1567 904.963 504.595
881 0 64.1143 11.3859 730 88.5904 904.181 501.712
882 0 66.2041 11.3588 752 88.4761 904.894 501.769
883 0 66.1314 11.6132 768 89.6628 904.458 499.684
884 0 69.1699 11.6958 809 89.9567 904.737 497.574
885 0 69.2214 11.6582 807 87.2751 905.051 498.289
886 0 72.1309 11.7009 844 88.3602 905.102 495.123
887 0 74.1915 11.3086 839 87.5626 904.729 494.545
888 0 76.2066 11.0883 845 87.2308 905.17 494.309
889 0 79.1418 10.9171 864 86.8032 904.78 493.057
890 0 81.1876 11.4303 928 85.5948 904.499 489.867
891 0 84.0889 11.6305 978 78.225 904.114 489.849
892 0 85.0569 10.252 872 83.7156 904.054 488.109
893 0 89.0671 10.5089 936 86.5726 904.153 487.198
894 1 45.008 9.79827 441 78.1655 903.73 510.413
895 0 46.0106 9.82383 452 79.146 903.914 508.591
896 0 47.0265 10.3346 486 78.1502 903.148 505.922
897 0 50.0695 11.8435 593 86.543 904.234 506.061
898 0 52.0407 11.2412 585 84.8034 904.643 504.53
899 0 51.0622 12.4358 635 83.3669 904.146 505.129
900 0 55.1309 11.9352 658 84.9316 905.029 504.079
901 0 56.0881 12.73 714 84.8529 904.58 503.648
902 0 58.0808 12.9991 755 89.9854 904.734 502.63
903 0 60.0989 12.5127 752 90.6835 905.138 503.039
904 0 59.1138 12.4506 736 94.303 904.795 501.269
905 0 63.167 12.2374 773 94.48 905.283 499.455
906 0 66.0469 12.8091 846 93.4657 905.643 497.48
907 0 68.0929 11.6752 795 96.1208 904.93 496.172
908 0 67.039 12.4554 835 95.4731 905.111 495.741
909 0 71.0783 12.7324 905 95.4254 906.299 494.004
910 0 72.1121 13.3542 963 95.3977 905.735 493.669
911 0 75.0873 12.7185 955 98.2272 906.065 493.472
912 0 75.0869 13.1314 986 98.9178 905.742 492.586
913 0 79.1046 12.8438 1016 99.9154 905.73 490.52
914 0 80.2793 12.8676 1033 100.372 905.375 489.463
915 0 84.1542 13.0118 1095 101.347 906.164 488.698
916 0 86.0749 12.9538 1115 99.0816 905.449 487.363
917 0 88.164 12.3747 1091 101.409 905.649 487.734
918 0 91.1365 12.9586 1181 99.5301 905.653 486.886
919 0 94.1138 12.283 1156 101.771 905.542 484.617
920 0 97.1473 12.2289 1188 101.23 904.782 484.269
921 0 100.099 12.4177 1243 101.785 905.497 480.785
922 1 52.0439 11.0868 577 96.9601 905.099 504.887
923 0 54.1889 11.8844 644 94.9006 904.731 502.085
924 0 55.1119 10.8688 599 87.4441 905.352 506.072
925 0 55.1562 11.6578 643 82.7372 905.463 506.222
926 0 58.0649 11.6249 675 81.2444 904.578 506.004
927 0 61.0272 11.0934 677 81.9158 904.742 504.796
928 0 61.0367 11.7143 715 80.8657 904.387 504.35
929 0 64.0736 11.9394 765 80.881 903.597 502.52
930 0 64.0465 11.3667 728 83 904.214 500.504
931 0 68.035 11.4206 777 82.6795 903.416 498.353
932 0 70.0736 11.5878 812 82.8153 903.166 498.298
933 0 72.0538 11.5747 834 82.3285 903.223 497.458
934 0 73.1072 11.2985 826 83.3765 904.053 497.356
935 0 78.0307 12.3926 967 79.7342 904.397 497.979
936 0 80.103 12.1968 977 79.8383 903.387 496.316
937 0 81.1308 11.5616 938 81.467 902.878 495.221
938 0 86.0993 11.87 1022 81.093 902.418 492.884
939 0 88.1355 12.7644 1125 80.9351 902.874 492.049
940 0 92.0732 12.5661 1157 83.121 902.897 492.043
941 0 94.0635 12.3321 1160 84.7853 902.625 490.737
942 0 95.1246 11.5322 1097 87.4239 902.982 488.216
943 0 101.091 12.9784 1312 83.6791 903.084 487.607
944 1 52.0315 10.705 557 77.6715 903.695 512.81
945 0 54.0436 10.8986 589 75.0306 903.132 512.214
946 0 57.0234 11.1182 634 78.3675 902.83 509.259
947 0 59.0521 12.2096 721 81.0569 902.423 505.861
948 0 62.1513 11.649 724 75.826 902.541 506.151
949 0 64.1451 11.7234 752 75.6676 903.121 506.093
950 0 66.0548 11.8538 783 76.0894 903.547 504.174
951 0 66.0614 12.0948 799 85.8786 902.944 503.362
952 0 69.067 11.583 800 86.9725 903.774 502.901
953 0 72.1727 12.0683 871 86.7842 904.74 501.885
954 0 73.1445 12.154 889 86.8999 902.691 502.647
955 0 77.1762 12.776 986 85.4817 903.918 499.592
956 0 79.0979 11.8461 937 77.159 903.06 497.515
957 0 81.1711 11.9501 970 80.0979 903.9 496.141
958 0 82.2094 11.9086 979 82.7906 903.995 495.371
959 0 84.2022 11.8524 998 83.5812 903.989 492.538
960 0 88.0992 11.4189 1006 84.0656 904.162 492.359
961 0 90.2181 11.8601 1070 84.886 904.455 489.515
962 0 93.205 11.9629 1115 85.2655 904.261 487.635
963 1 49.1889 10.7951 531 83.5537 904.957 509.168
964 0 49.2089 10.5875 521 84.1958 904.921 510.34
965 0 50.0542 11.068 554 84.0144 904.872 508.318
966 0 52.1177 10.7833 562 81.2989 905.472 510.164
967 0 52.09 10.693 557 81.9461 905.844 509.169
968 0 54.153 11.0243 597 82.7822 905.328 509.055
969 0 57.1166 12.0806 690 78.5841 905.806 507.688
970 0 57.0849 11.2814 644 80.6335 906.41 505.627
971 0 59.1263 11.5515 683 79.9341 905.858 504.898
972 0 60.1186 10.9617 659 82.5008 905.927 503.64
973 0 61.1575 11.5276 705 81.3135 906.058 502.475
974 0 65.1161 12.0093 782 81.5972 906.137 501.99
975 0 66.0976 11.5284 762 83.269 906.677 500.962
976 0 68.1203 11.832 806 82.8561 906.233 498.339
977 0 71.1547 12.1426 864 81.9421 905.9 498.086
978 0 72.1023 12.5377 904 81.4646 906.342 496.813
979 0 74.1452 11.8147 876 90.7272 906.14 497.175
980 0 76.1441 11.3732 866 93.2564 907.124 495.828
981 0 78.1214 11.9686 935 91.8449 906.127 494.494
982 0 82.1321 12.139 997 91.2337 906.304 494.113
983 0 82.126 11.9451 981 82.2681 906.349 492.982
984 0 85.0963 11.8219 1006 83.16 905.807 493.597
985 0 87.1017 11.2627 981 86.8318 905.51 489.766
986 0 88.1896 11.6794 1030 85.9961 905.244 488.725
987 0 92.1556 11.741 1082 86.7884 905.494 487.28
988 0 93.1944 11.1809 1042 87.9683 905.746 485.337
989 0 98.2395 11.5534 1135 87.6722 905.744 484.306
990 0 102.17 12.1268 1239 86.3228 905.549 481.789
991 0 106.118 12.4861 1325 87.2574 906.081 480.392
992 0 109.16 11.3045 1234 93.3825 906.129 479.237
993 0 114.053 11.819 1348 91.5096 906.039 476.139
994 1 55.0524 10.4446 575 86.7583 905.358 504.042
995 0 55.0844 10.021 552 88.0489 904.063 501.681
996 0 60.1587 11.1871 673 83.2526 904.223 500.149
997 0 62.1359 11.3622 706 83.9164 906.793 501.548
998 0 63.1768 11.7132 740 82.0135 906.619 500.899
999 0 68.1539 11.0339 752 83.242 906.906 499.125
1000 0 67.162 11.6882 785 84.0854 906.698 496.767
1001 0 67.1369 11.7968 792 85.5896 906.971 497.02
1002 0 71.1566 12.1001 861 83.5703 906.791 495.417
1003 0 71.1507 12.1011 861 84.338 906.962 495.002
1004 0 76.1128 12.1793 927 85.9687 907.184 493.032
1005 0 76.0811 12.3158 937 84.6894 907.387 491.461
1006 0 78.1061 12.0989 945 87.9556 907.855 491.875
1007 0 81.1117 11.9958 973 88.8458 907.49 489.141
1008 0 80.1205 11.2456 901 92.2519 907.626 490.506
1009 0 84.099 11.76 989 89.6249 908.023 492.295
1010 0 87.1443 11.9113 1038 90.7803 907.748 488.944
1011 0 91.1185 12.0832 1101 89.5377 907.801 487.777
1012 0 94.0979 12.1576 1144 88.66 906.973 486.687
1013 0 94.0572 11.1953 1053 90.7274 906.942 481.933
1014 0 99.0509 12.0948 1198 88.7204 906.802 480.311
1015 1 56.0444 10.1348 568 87.5599 904.549 503.151
1016 0 52.0592 9.89258 515 85.5087 904.674 497.684
1017 0 53.0076 9.84764 522 89.7567 904.738 497.17
1018 0 60.0509 10.6243 638 89.0893 905.71 501.456
1019 0 60.0469 10.675 641 90.8409 905.599 500.685
1020 0 63.0822 10.3516 653 90.856 905.865 499.738
1021 0 67.1099 11.0416 741 90.3198 906.822 500.988
1022 0 68.0801 10.9871 748 90.5401 906.757 499.421
1023 0 71.0919 11.4218 812 89.5357 907.257 498.941
1024 0 72.1482 11.0883 800 90.8288 906.994 497.768
1025 0 74.1584 11.4754 851 90.8966 906.586 496.051
1026 0 78.1626 11.2202 877 89.3113 906.978 493.555
1027 0 80.2353 11.1173 892 92.2152 906.071 491.166
1028 0 83.1506 11.5333 959 89.2649 906.139 490.654
1029 0 84.163 11.1332 937 91.6361 905.846 491.397
1030 0 86.1136 10.6603 918 92.4303 905.883 489.164
1031 0 89.105 10.2576 914 94.9048 905.728 487.353
1032 0 91.108 10.5809 964 93.5218 905.428 483.761
1033 0 94.0978 10.8079 1017 95.2124 905.961 485.06
1034 0 98.0998 10.7034 1050 95.0419 906.191 483.152
1035 1 48.0205 9.39182 451 77.8559 906.601 506.878
1036 0 52.053 10.5469 549 79.9654 905.668 507.104
1037 0 51.095 10.3728 530 81.8509 906.291 505.534
1038 0 55.0279 10.74 591 83.2623 905.11 505.728
1039 0 55.0887 10.5103 579 83.5924 904.722 506.095
1040 0 57.0224 11.4166 651 81.7972 905.063 504.014
1041 0 59.0648 10.5985 626 80.5335 905.34 502.562
1042 0 61.053 10.9249 667 79.6522 905.129 500.165
1043 0 63.0839 10.7951 681 80.3421 905.07 499.976
1044 0 64.081 10.7052 686 79.9023 905.442 500.21
1045 0 67.091 10.523 706 80.5722 904.46 499.272
1046 0 68.1387 11.0363 752 79.9814 904.166 496.747
1047 0 71.1052 11.7713 837 78.8399 904.523 496.61
1048 0 72.1107 10.4561 754 82.805 904.427 495.627
1049 0 74.088 11.2029 830 82.3494 904.943 497.355
1050 0 76.0919 11.7227 892 78.5426 905.17 496.065
1051 0 76.1149 10.8389 825 80.0582 904.909 494.098
1052 0 80.0378 10.6825 855 78.1544 904.468 493.116
1053 0 82.059 10.4924 861 77.5192 903.531 491.642
1054 0 83.0439 10.4162 865 77.4347 905.056 485.864
1055 0 86.0799 11.8727 1022 82.5362 905.088 488.769
1056 0 88.1494 11.3898 1004 84.0986 905.12 489.349
1057 0 91.1228 12.0826 1101 83.6085 906.043 487.816
1058 0 95.0927 12.1671 1157 86.4719 906.001 486.784
1059 0 98.1267 12.0762 1185 87.4464 905.209 484.744
1060 0 100.098 11.8084 1182 89.6201 904.525 483.448
1061 0 102.072 12.2952 1255 90.5952 905.174 482.049
1062 1 56.0526 9.86574 553 93.5552 904.577 509.861
1063 0 57.1137 10.6629 609 91.9113 904.667 508.585
1064 0 57.0765 9.91651 566 94.6572 905.313 505.466
1065 0 60.1323 11.4248 687 93.524 904.905 505.773
1066 0 62.1249 10.7042 665 96.4707 904.474 505.104
1067 0 63.101 11.125 702 95.9031 905.057 504.091
1068 0 64.0722 11.0032 705 97.3376 904.611 503.243
1069 0 67.0773 11.2259 753 96.8207 904.432 502.337
1070 0 69.0372 11.4286 789 96.6248 904.605 501.158
1071 0 70.1107 11.7528 824 97.574 904.942 499.417
1072 0 71.0445 11.2465 799 99.4956 905.005 499.527
1073 0 73.0959 11.8611 867 99.4579 905.396 497.828
1074 0 74.1109 11.1455 826 102.584 905.249 497.449
1075 0 78.0932 11.832 924 100.853 905.643 496.06
1076 0 80.1288 11.4815 920 101.157 905.046 495.379
1077 0 80.1297 11.3566 910 114.134 904.089 494.871
1078 0 85.1616 11.0261 939 102.015 905.633 492.808
1079 1 40.0765 9.931 398 97.1156 905.07 515.671
1080 0 42.0362 9.75349 410 94.022 905.322 514.405
1081 0 42.033 10.801 454 86.0154 905.269 515.112
1082 0 44.0366 10.6048 467 84.9636 905.242 513.572
1083 0 44.0227 10.7672 474 86.5464 905.454 513.703
1084 0 46.0197 10.7563 495 85.8303 905.141 511.986
1085 0 47.0275 10.3982 489 86.7566 905.035 511.507
1086 0 49.0978 10.6726 524 87.1813 907.185 511.895
1087 0 50.051 10.6691 534 86.5225 906.891 511.436
1088 0 52.034 11.2234 584 85.1798 906.467 510.75
1089 0 52.0724 11.388 593 96.8347 906.567 510.309
1090 0 52.0563 11.2955 588 97.6514 907.049 509.974
1091 0 56.0517 11.4537 642 95.2134 906.279 508.497
1092 0 59.1025 11.4885 679 91.1473 905.663 508.739
1093 0 61.1239 11.8284 723 90.538 906.577 506.685
1094 0 62.0837 11.5328 716 92.0684 906.247 506.472
1095 0 63.0632 11.7025 738 92.6856 906.333 505.42
1096 0 66.085 11.8332 782 90.7852 905.779 503.426
1097 0 68.0961 11.5425 786 91.0369 906.109 502.734
1098 0 71.1108 11.8688 844 90.2405 906.498 500.855
1099 0 72.0525 10.9226 787 92.7243 907.621 503.473
1100 0 74.0573 11.3426 840 92.106 907.046 502.527
1101 0 75.1234 11.2482 845 92.6615 906.436 499.541
1102 0 77.047 12.0186 926 91.2527 905.838 498.147
1103 0 79.0431 11.7025 925 92.3859 905.695 497.388
1104 0 83.0547 11.3901 946 93.0856 905.534 497.098
1105 0 84.0571 11.742 987 92.385 905.65 493.72
1106 1 44.0287 10.4932 462 94.2597 906.664 516.338
1107 0 45.0714 10.1173 456 93.5329 906.732 515.868
1108 0 45.0414 10.3904 468 93.203 907.137 515.462
1109 0 46.0946 11.151 514 91.2276 906.088 514.181
1110 0 51.0568 10.4785 535 102.936 907.172 513.933
1111 0 50.0138 11.3369 567 101.268 907.053 511.367
1112 0 52.0243 12.1674 633 98.9305 907.167 510.913
1113 0 51.1195 10.9743 561 103.583 905.952 510.738
1114 0 56.0838 12.1069 679 98.349 905.443 511.159
1115 0 57.133 12.3396 705 98.2709 906.543 510.99
1116 0 60.1662 12.7646 768 98.8281 907.699 510.573
1117 0 60.1793 11.8313 712 104.98 906.817 508.522
1118 0 61.1825 12.2094 747 106.325 906.186 507.823
1119 0 62.2252 11.9244 742 108.217 907.197 507.117
1120 0 65.1707 11.9532 779 108.845 906.235 507.098
1121 0 66.1621 12.0462 797 107.442 907.044 506.926
1122 0 69.1734 12.765 883 105.373 906.783 506.008
1123 0 72.1842 12.0802 872 106.116 906.503 503.581
1124 0 74.1463 12.0977 897 107.377 906.725 502.106
1125 0 76.1616 12.526 954 108.94 906.49 500.565
1126 0 78.2026 12.1224 948 112.203 907.156 500.109
1127 0 81.11 12.5755 1020 110.3 906.608 499.582
1128 0 83.2051 12.6074 1049 112.794 905.857 497.874
1129 0 86.2521 12.9968 1121 111.63 905.931 497.905
1130 1 44.0104 11.7699 518 111.409 906.631 517.344
1131 0 46.0288 11.6666 537 110.546 906.773 516.59
1132 0 47.019 12.3142 579 112.269 907.055 515.515
1133 0 50.0206 12.5149 626 105.315 907.188 515.04
1134 0 50.0177 11.8358 592 108.573 906.953 514.752
1135 0 51.0271 12.268 626 109.518 907.113 514.115
1136 0 50.0589 12.0658 604 113.82 906.386 514.649
1137 0 53.0826 12.5276 665 111.262 906.448 510.923
1138 0 55.1755 12.6143 696 109.892 906.711 510.671
1139 0 55.1927 12.9727 716 111.112 906.074 510.609
1140 0 59.1439 13.1882 780 109.81 906.287 509.013
1141 0 59.1424 12.3262 729 113.715 906.726 510.394
1142 0 61.1233 12.8593 786 109.489 906.263 509.519
1143 0 63.1422 13.1766 832 111.517 906.256 508.341
1144 0 65.1658 13.0283 849 111.524 905.981 506.882
1145 0 68.2178 12.9878 886 111.204 906.308 506.453
1146 0 70.1506 13.3142 934 110.874 905.225 504.867
1147 0 70.1614 13.2409 929 112.361 905.395 503.856
1148 0 73.1786 13.3782 979 112.251 905.425 502.633
1149 0 75.1673 13.2105 993 112.996 905.646 500.919
1150 0 77.0801 13.233 1020 97.6 906.135 500.845
1151 0 80.1029 12.7711 1023 99.5376 905.674 499.637
1152 0 83.1225 13.5102 1123 100.919 904.964 496.901
1153 0 85.1491 13.1651 1121 102.281 904.475 495.112
1154 0 88.2007 13.0838 1154 102.088 904.645 492.242
1155 0 89.1526 12.2487 1092 102.556 904.375 490.895
1156 0 90.1465 12.2135 1101 103.748 904.531 490.563
1157 0 95.2142 13.3278 1269 100.37 904.658 487.887
1158 0 97.1342 12.7967 1243 99.5664 904.442 487.822
1159 0 100.059 12.4826 1249 90.8591 904.46 488.632
1160 1 51.0585 10.5565 539 94.0482 904.278 513.334
1161 0 53.0974 11.3 600 96.8167 904.015 511.602
1162 0 57.1023 12.1887 696 96.3477 904.815 510.675
1163 0 56.0282 11.7619 659 96.1108 903.964 509.501
1164 0 57.0823 12.3506 705 93.7262 903.679 507.33
1165 0 59.0404 12.4999 738 92.7561 903.484 508.692
1166 0 61.028 12.0273 734 93.2507 904.05 507.884
1167 0 64.0481 12.8029 820 91.2354 904.17 506.75
1168 0 65.0342 13.0393 848 90.5177 904.032 505.899
1169 0 67.0241 12.503 838 92.7768 903.492 504.181
1170 0 70.0494 12.9908 910 90.8945 903.542 504.273
1171 0 72.0814 12.7772 921 91.6482 903.256 501.794
1172 0 74.0558 12.5716 931 92.7873 903.506 501.067
1173 0 76.1498 12.9088 983 91.8688 903.506 499.835
1174 0 79.0927 12.694 1004 91.6514 902.864 498.272
1175 0 82.0503 12.273 1007 92.7895 902.996 496.682
1176 0 85.1158 12.4889 1063 92.5146 903.294 494.921
1177 0 87.0914 12.3434 1075 93.0409 903.663 493.423
1178 0 87.1006 11.8599 1033 94.6389 902.389 493.573
1179 0 91.1216 12.0169 1095 93.3863 903.02 493.611
1180 0 93.1277 11.6829 1088 94.4476 903.058 491.38
1181 1 51.0385 11.7558 600 93.0633 903.878 513.188
1182 0 52.0737 11.3493 591 91.7716 904.684 511.75
1183 0 52.0468 11.5089 599 93.2437 903.337 511.698
1184 0 53.0416 11.4816 609 84.0624 903.737 511.074
1185 0 57.0626 11.7765 672 80.6711 903.338 510.009
1186 0 59.0273 11.7573 694 81.3746 904.275 508.182
1187 0 58.1222 10.9941 639 84.3928 903.504 507.659
1188 0 60.0819 10.1528 610 86.9066 904.803 509.318
1189 0 63.048 11.3723 717 85.781 904.004 507.989
1190 0 66.0668 11.2613 744 85.4207 903.366 505.89
1191 0 67.2267 10.71 720 86.9764 903.801 505.975
1192 0 68.1368 11.1981 763 87.2647 903.789 503.87
1193 0 72.0881 11.5414 832 86.2969 903.68 502.746
1194 0 72.0923 11.2772 813 87.2522 904.027 502.898
1195 0 76.1226 12.5324 954 84.7369 903.774 500.854
1196 0 77.0973 11.479 885 95.2904 903.923 500.183
1197 0 81.1433 11.6091 942 87.5265 904.719 500.928
1198 0 83.13 12.1737 1012 86.9219 903.943 499.6
1199 0 85.1633 11.7891 1004 90.3008 903.887 498.706
1200 0 88.24 11.7747 1039 91.4668 904.239 497.417
1201 0 89.0845 11.8764 1058 93.1975 903.97 496.601
1202 0 93.1445 11.9384 1112 93.8597 904.123 493.955
1203 0 95.1904 11.8499 1128 95.9114 904.076 493.864
1204 0 100.12 11.4562 1147 96.3086 904.039 490.847
1205 1 55.0281 11.2488 619 99.0081 903.604 510.616
1206 0 59.0477 11.4992 679 96.7143 904.177 508.566
1207 0 61.0588 12.4306 759 96.473 905.812 507.685
1208 0 62.0197 12.4638 773 97.6054 905.197 507.402
1209 0 65.0829 12.5071 814 96.4803 905.956 507.466
1210 0 65.0675 12.3871 806 98.9578 905.191 506.715
1211 0 69.0495 12.9183 892 96.1525 904.493 505.668
1212 0 69.118 11.8782 821 95.5164 904.864 503.89
1213 0 73.1666 12.5877 921 92.9663 904.613 502.543
1214 0 75.0859 12.4924 938 96.1002 904.506 501.54
1215 0 77.0677 13.0535 1006 94.2117 905.671 500.383
1216 0 78.0549 12.7218 993 97.0826 905.531 499.462
1217 0 83.0675 12.7727 1061 95.7408 904.513 498.54
1218 0 85.0596 12.8028 1089 92.7603 904.474 497.91
1219 0 88.0573 11.9922 1056 93.1496 904.641 494.195
1220 1 47.0516 11.3705 535 96.5271 904.792 513.968
1221 0 48.1061 11.3915 548 96.458 904.405 514.064
1222 0 49.0518 12.3951 608 95.9309 903.931 513.729
1223 0 50.0501 12.3476 618 96.089 904.38 513.772
1224 0 51.0302 12.8551 656 94.7668 904.819 512.652
1225 0 53.0425 11.5191 611 88.4714 905.435 513.854
1226 0 52.0136 11.9007 619 89.2795 904.304 512.787
1227 0 55.0549 11.4794 632 89.2769 904.453 511.924
1228 0 57.031 12.2039 696 87.4397 904.326 509.795
1229 0 59.0383 11.9922 708 87.3644 904.256 508.815
1230 0 60.1546 12.2019 734 86.6962 904.399 506.583
1231 0 64.0371 12.1492 778 87.1401 904.167 506.082
1232 0 66.0403 12.3409 815 87.6871 904.583 505.585
1233 0 68.0341 12.3909 843 86.6145 904.576 504.044
1234 0 71.0526 12.7089 903 88.2658 904.783 502.752
1235 0 72.0451 12.9225 931 89.6391 906.016 501.397
1236 0 75.101 13.1822 990 91.5879 904.945 500.065
1237 0 79.08 13.0374 1031 92.8264 905.052 499.259
1238 0 81.1109 13.4014 1087 92.1472 905.422 500.764
1239 0 82.0545 13.1376 1078 95.4295 904.991 499.351
1240 0 85.2678 13.0413 1112 96.6466 905.837 497.874
1241 0 87.0858 12.436 1083 97.7341 905.344 497.024
1242 0 91.1035 13.3584 1217 96.7502 904.967 494.379
1243 0 94.0742 12.9685 1220 94.65 905.162 489.164
1244 1 48.0242 13.5557 651 92.553 906.081 508.137
1245 0 50.0157 13.2958 665 94.1579 906.922 506.883
1246 0 51.0162 14.0544 717 87.1799 905.393 512.11
1247 0 53.027 13.5026 716 88.3212 905.282 510.433
1248 0 56.1148 13.9357 782 97.7225 904.832 508.896
1249 0 58.1087 12.8896 749 99.9012 904.897 508.143
1250 0 59.0922 13.2843 785 99.386 905.464 509.991
1251 0 61.0619 13.1342 802 100.799 905.52 507.451
1252 0 63.0828 13.7756 869 98.3924 905.295 507.283
1253 0 65.0818 14.1668 922 97.0499 906.164 508.166
1254 0 66.0728 13.8484 915 99.059 905.748 506.932
1255 0 69.035 14.7462 1018 97.5187 906.962 504.142
1256 0 71.0601 14.5088 1031 97.1542 906.909 504.014
1257 0 71.0667 14.4793 1029 98.6987 907.363 503.158
1258 0 75.0321 15.6067 1171 94.433 906.891 501.537
1259 0 77.0675 14.922 1150 96.3009 905.847 496.355
1260 0 79.0419 15.1186 1195 98.2837 905.5 496.278
1261 0 81.032 15.9073 1289 97.5493 905.531 496.258
1262 0 85.0486 15.1678 1290 99.2581 905.729 495.621
1263 0 87.0238 15.536 1352 100.936 906.056 494.155
1264 0 89.0649 15.4719 1378 103.086 906.234 493.093
1265 0 92.0872 15.127 1393 105.375 906.193 490.812
1266 0 94.0846 16.0175 1507 104.516 905.886 489.73
1267 0 96.0757 15.8 1518 107.997 905.819 489.111
1268 0 101.047 16.1212 1629 106.529 905.959 486.882
1269 0 105.151 15.1401 1592 109.731 905.334 486.465
1270 0 108.084 15.4139 1666 108.737 905.241 485.541
1271 0 112.142 15.5964 1749 107.556 905.088 481.752
1272 0 117.109 15.097 1768 109.117 904.711 479.059
1273 1 60.0299 14.5927 876 119.049 905.107 506.743
1274 0 60.0711 14.8824 894 121.633 905.173 504.917
1275 0 62.0974 15.524 964 119.086 906.019 503.242
1276 0 66.0883 16.4628 1088 113.119 905.995 503.745
1277 0 68.1167 16.0754 1095 115.382 906.125 500.693
1278 0 69.1261 15.6525 1082 117.116 905.6 501.51
1279 0 70.059 15.2443 1068 118.641 905.635 499.677
1280 0 73.0903 16.0486 1173 115.641 905.336 499.754
1281 0 76.0903 16.4541 1252 115.093 905.036 498.229
1282 0 76.1081 16.3583 1245 114.765 905.113 496.565
1283 0 80.1564 16.0811 1289 114.163 905.185 495.408
1284 0 82.0912 16.1406 1325 115.348 905.737 493.294
1285 0 83.0834 16.0441 1333 117.431 905.96 492.496
1286 0 87.1147 16.3922 1428 115.568 905.861 493.634
1287 0 91.1031 16.4978 1503 115.098 905.811 490.285
1288 0 95.1328 16.3035 1551 113.402 905.895 488.166
1289 0 98.1585 16.4836 1618 111.422 905.842 487.939
1290 0 102.128 16.4108 1676 109.777 906.062 487.48
1291 0 107.131 16.4379 1761 108.413 906.156 484.826
1292 0 107.174 16.058 1721 110.977 905.981 482.529
1293 0 114.255 15.9642 1824 110.522 905.651 480.366
1294 1 49.0871 14.0566 690 110.512 905.912 510.048
1295 0 52.116 14.0648 733 110.9 906.244 506.827
1296 0 54.1867 14.8745 806 110.143 906.409 506.158
1297 0 59.1254 15.1881 898 115.531 906.039 505.551
1298 0 60.1726 15.306 921 115.935 906.515 504.054
1299 0 62.2106 15.0939 939 117.653 906.27 502.487
1300 0 64.1279 14.5646 934 119.797 906.527 502.275
1301 0 66.0966 15.084 997 119.258 906.508 500.816
1302 0 68.1018 14.772 1006 120.422 906.479 500.565
1303 0 71.132 15.5064 1103 118.043 905.814 498.553
1304 0 72.2318 15.0488 1087 120.126 906.192 498.018
1305 0 76.1606 14.9027 1135 118.868 905.666 497.13
1306 0 76.1241 15.1595 1154 119.791 906.276 497.65
1307 0 80.1323 14.7756 1184 118.672 906.077 497.603
1308 0 83.2159 15.1413 1260 119.391 905.514 494.512
1309 0 85.0844 14.8206 1261 119.581 905.374 494.702
1310 0 87.2489 14.8311 1294 120.193 905.349 493.673
1311 0 91.1472 14.4382 1316 121.531 905.924 492.1
1312 0 95.067 16.6619 1584 115.417 905.516 491.933
1313 1 47.0793 14.2526 671 121.955 906 513.486
1314 0 48.1097 13.6563 657 124.721 905.979 513.594
1315 0 51.1211 14.2798 730 123.399 905.999 512.518
1316 0 52.1082 14.4891 755 124.955 905.799 511.269
1317 0 53.0941 14.2012 754 125.793 905.87 511.009
1318 0 55.069 14.0369 773 125.935 905.925 510.712
1319 0 55.0845 14.3598 791 126.576 906.145 510.517
1320 0 59.146 14.7094 870 124.002 906.125 509.433
1321 0 59.0613 14.1379 835 128.572 905.8 508.702
1322 0 63.1015 14.3103 903 125.705 906.076 509.062
1323 0 63.1623 14.7398 931 127.437 905.638 507.029
1324 0 67.1394 14.1795 952 128.581 906.19 505.959
1325 0 68.1868 14.079 960 129.067 906.207 505.481
1326 0 69.1182 14.2654 986 129.117 907.499 504.798
1327 0 71.2086 13.973 995 129.896 907.104 503.943
1328 0 73.118 14.1142 1032 132.966 906.273 501.999
1329 0 76.1151 14.1759 1079 131.521 906.046 500.573
1330 1 34.1605 12.734 435 135.177 906.412 521.359
1331 0 35.0556 13.4929 473 134.216 906.421 519.981
1332 0 36.0612 13.4494 485 132.975 906.225 519.047
1333 0 38.0591 13.6367 519 131.308 906.1 519.289
1334 0 39.0592 13.1595 514 134.364 905.889 519.078
1335 0 39.0908 13.993 547 132.85 905.93 518.075
1336 0 40.0779 14.4219 578 132.642 905.715 517.365
1337 0 42.0676 13.8824 584 131.854 905.777 518.017
1338 0 44.0861 14.018 618 133.278 905.636 517.427
1339 0 42.0756 13.6421 574 140.979 905.275 516.472
1340 0 43.0732 14.2548 614 139.121 905.844 517.308
1341 0 45.0843 14.1734 639 138.806 905.798 516.027
1342 0 47.1178 14.2197 670 138.206 906.213 515.512
1343 0 49.1036 14.4389 709 136.986 905.53 515.069
1344 0 49.0877 14.3009 702 137.06 904.932 514.9
1345 0 51.1142 14.1252 722 140.914 905.107 514.583
1346 0 54.1008 14.1957 768 141.314 904.599 514.165
1347 0 53.1142 13.8004 733 146.932 904.993 512.065
1348 0 56.1272 14.093 791 146.736 904.563 511.939
1349 0 58.0942 14.8208 861 143.253 905.016 511.849
1350 0 58.0905 14.4086 837 148.3 905.466 511.006
1351 0 61.1057 14.8595 908 142.803 905.859 510.414
1352 0 62.1139 15.0208 933 143.561 904.989 509.895
1353 0 63.1301 15.2225 961 147.975 905.168 508.505
1354 0 63.0717 14.8244 935 151.287 904.557 507.559
1355 0 66.1228 15.5015 1025 149.275 905.227 507.641
1356 0 68.0961 15.3753 1047 151.372 905.393 506.977
1357 0 69.16 15.6015 1079 152.902 904.736 506.146
1358 0 72.1122 15.254 1100 153.346 904.82 505.465
1359 0 75.0949 15.1408 1137 156.093 904.911 504.091
1360 0 75.104 15.5784 1170 155.887 904.918 502.538
1361 0 78.1705 15.3127 1197 156.425 904.183 502.684
1362 0 79.0908 15.7667 1247 155.987 904.225 501.739
1363 0 81.1411 15.738 1277 157.186 904.718 500.611
1364 1 51.0468 6.30794 322 110.86 905.838 521.904
1365 0 53.3428 6.46761 345 114.046 905.922 519.661
1366 0 52.2932 7.45794 390 114.674 905.646 516.533
1367 0 51.0929 6.55669 335 116.878 905.606 519.669
1368 1 38.0896 10.1865 388 112.296 905.76 518.307
1369 0 38.0641 9.45774 360 112.928 905.594 518.767
1370 0 39.0351 9.42741 368 111.033 904.611 519.068
1371 0 40.1686 9.6344 387 110.747 905.222 518.32
1372 0 40.0799 9.63077 386 112.189 905.251 517.316
1373 0 39.043 9.16937 358 102.953 904.048 518.249
1374 0 40.1075 9.49946 381 101.961 903.997 518.446
1375 0 40.063 10.0592 403 102.489 903.901 518.851
1376 0 40.0735 8.9835 360 105.836 903.272 518.472
1377 1 158.402 13.3647 2117 137.684 903.642 452.007
1378 0 160.249 12.5242 2007 144.063 902.984 451.988
1379 1 103.174 8.82009 910 129.741 903.86 484.919
1380 0 104.156 9.28416 967 139.132 904.195 483.867
1381 0 104.206 8.72313 909 146.82 903.858 480.831
1382 0 106.204 10.009 1063 142.579 903.678 481.124
1383 0 108.382 10.1308 1098 141.005 903.884 481.382
1384 0 111.28 9.5794 1066 138.811 902.856 479.836
1385 0 114.315 9.07143 1037 138.094 902.813 474.566
1386 0 116.348 9.16219 1066 135.077 902.144 473.693
1387 0 120.375 9.42055 1134 131.275 902.575 472.136
1388 0 125.417 9.7036 1217 127.872 902.849 471.352
1389 1 89.2422 5.96131 532 108.927 902.474 496.139
1390 1 30.0392 8.7885 264 92.7045 902.201 523.345
1391 0 30.0071 8.19806 246 93.4472 901.459 522.951
1392 0 31.0251 9.28281 288 89.3993 901.778 524.083
1393 0 31.0428 8.69768 270 92.1 902.415 523.07
1394 0 31.0064 8.35312 259 85.193 902.243 523.34
1395 0 26.0184 7.14878 186 91.8387 904.839 526.14
1396 0 27.0104 7.07135 191 93.4974 904.466 525.691
1397 0 26.074 7.01849 183 90.7268 905.027 526.044
1398 0 28.0043 7.49885 210 92.0667 904.848 525.21
1399 0 28.0332 7.56245 212 93.4387 904.708 523.316
1400 0 30.0238 7.56066 227 92.837 904.335 522.956
1401 0 28.021 7.20887 202 95.2772 904.282 523.837
1402 0 30.0245 8.29323 249 95.0522 904.145 522.169
1403 0 33.0628 8.46874 280 91.875 904.321 521.525
1404 0 33.0623 7.68248 254 96.7283 904.228 520.492
1405 0 32.0997 7.97514 256 97.6055 904.285 519.895
1406 0 36.1063 8.2534 298 96.2013 904.359 520.661
1407 0 35.0996 8.43315 296 96.7196 904.845 520.267
1408 1 47.0399 10.3742 488 115.637 901.924 476.158
1409 0 38.1611 8.14965 311 97.0322 903.64 517.154
1410 0 38.156 8.91079 340 96.6412 904.347 515.794
1411 0 40.0643 8.087 324 97.6327 903.59 515.948
1412 0 40.1049 8.00401 321 98.9034 904.875 515.679
1413 0 42.1115 8.42999 355 97.7775 904.744 514.341
1414 0 43.0856 8.4483 364 99.7994 904.805 515.409
1415 1 25.0072 7.07796 177 103.503 904.921 523.525
1416 0 28.0148 6.81783 191 104.026 904.822 522.529
1417 0 25.0211 8.07318 202 101.985 905.48 524.01
1418 0 29.0144 8.54749 248 98.2056 904.395 522
1419 0 25.0243 5.87429 147 102.109 905.258 523.578
1420 0 28.0034 8.17757 229 98.1921 904.738 521.598
1421 0 0 0 0 -nan -nan -nan
1422 0 28.0028 7.78495 218 98.5872 905.257 521.45
1423 1 40.0081 6.67366 267 97.5693 905.052 518.423
1424 0 31.005 7.86969 244 96.4508 904.902 519.836
1425 0 40.0342 9.54183 382 125.712 902.471 451.042
1426 0 32.0088 7.90407 253 99.7826 903.067 520.012
1427 0 34.0381 8.31422 283 100.286 903.314 519.675
1428 0 35.0274 9.50684 333 101.189 903.267 518.438
1429 0 36.0278 9.82574 354 102.435 902.876 517.023
1430 0 37.0203 9.75141 361 102.535 902.981 516.781
1431 0 39.0477 10.039 392 102.727 903.676 516.253
1432 0 35.0045 7.8847 276 95.2428 904.83 519.478
1433 0 39.031 9.35153 365 90.9616 905.006 519.668
1434 0 38.0187 9.2586 352 90.0568 905.386 520.409
1435 0 42.0205 10.2331 430 89.1349 905.063 518.067
1436 0 42.0408 9.53835 401 90.3716 905.092 518.12
1437 0 42.0336 9.89684 416 89.137 904.57 518.322
1438 0 44.0289 10.0843 444 88.9437 904.66 517.207
1439 0 46.0044 9.69472 446 89.2489 905.206 516.612
1440 0 47.0327 10.2482 482 88.4087 904.502 516.006
1441 0 48.0154 9.91349 476 88.5504 904.359 515.754
1442 0 49.0376 10.339 507 87.8876 903.665 514.408
1443 0 51.0709 10.0253 512 88.7891 904.394 513.041
1444 0 52.0229 10.2839 535 90.5888 904.557 510.961
1445 0 54.0317 9.77204 528 89.9905 904.142 511.934
1446 0 56.0486 10.259 575 90.433 904.685 509.553
1447 0 57.0905 9.24847 528 91.5587 904.472 510
1448 0 60.0385 10.5266 632 89.0886 904.394 507.622
1449 0 62.0532 10.3943 645 89.4915 903.512 506.603
1450 0 63.0357 9.01077 568 92.7113 903.822 506.63
1451 0 66.0432 9.43322 623 92.0337 903.575 503.478
1452 0 68.0499 9.77224 665 92.0812 903.274 502.406
1453 1 36.0584 9.87288 356 92.0815 904.983 517.52
1454 0 38.0405 10.4888 399 91.4662 904.752 516.534
1455 0 39.0224 11.3012 441 95.8481 903.81 516.957
1456 0 36.0962 10.7213 387 89.8114 905.721 518.571
1457 0 36.168 10.0088 362 92.1381 906.207 518.066
1458 0 39.0672 9.72682 380 90.4368 906.145 519.024
1459 0 39.1029 9.41106 368 91.913 905.247 519.057
1460 0 38.0521 8.93513 340 93.9265 905.309 518.974
1461 0 38.0545 9.69662 369 92.2032 905.39 518.864
1462 0 37.1056 10.0524 373 92.193 905.568 517.7
1463 0 45.0802 10.4702 472 88.5042 905.754 516.017
1464 0 44.1028 10.7249 473 88.4567 904.865 516.913
1465 0 46.1446 10.4671 483 88.236 905.197 515.159
1466 0 48.0608 11.4022 548 84.8631 905.336 513.655
1467 0 48.1448 11.0084 530 84.117 904.928 513.298
1468 0 51.1119 11.2303 574 82.4634 904.683 511.012
1469 0 53.1164 10.8253 575 82.2104 905.28 511.358
1470 0 53.0821 11.1337 591 83.0592 904.888 511.883
1471 0 53.1036 11.0539 587 83.5094 904.506 510.303
1472 0 56.135 10.5282 591 84.5093 904.65 508.245
1473 0 59.1332 10.7216 634 83.6435 904.737 508.943
1474 0 59.0745 11.0708 654 83.9801 904.878 507.535
1475 0 62.0955 11.3535 705 83.0624 904.797 505.379
1476 0 63.1363 11.1346 703 83.4267 905.408 505.329
1477 0 65.0406 10.8701 707 84.5304 904.322 504.908
1478 0 67.0934 11.4616 769 83.3264 904.86 502.388
1479 0 69.0712 10.3806 717 86.2706 904.584 501.098
1480 0 73.0892 11.4928 840 84.269 904.986 499.371
1481 0 74.0727 10.7732 798 86.49 904.622 497.727
1482 0 76.1438 11.3995 868 84.7581 904.355 498.121
1483 0 78.0913 10.2956 804 87.1493 904.587 495.631
1484 0 80.1126 11.2217 899 85.1502 905.038 494.606
1485 0 82.1126 11.74 964 84.1566 904.384 492.593
1486 0 84.1173 11.2343 945 85.272 904.262 492.683
1487 0 87.127 12.0055 1046 83.2476 904.164 492.701
1488 0 88.1073 11.3952 1004 85.8227 904.006 491.031
1489 0 92.0696 11.3501 1045 85.9732 904.251 490.72
1490 0 93.1047 11.8361 1102 86.1307 904.655 489.247
1491 0 96.1706 11.9475 1149 85.7781 904.45 487.268
1492 0 99.0961 11.5948 1149 87.228 903.497 483.673
1493 0 104.058 11.1765 1163 89.9768 903.931 484.27
1494 0 108.078 11.6674 1261 92.2649 904.729 481.374
1495 0 112.173 12.2222 1371 88.3698 903.576 480.905
1496 0 115.16 11.9399 1375 90.3236 903.56 477.905
1497 0 118.18 11.3809 1345 91.8349 903.981 477.489
1498 0 121.142 11.3503 1375 93.2196 904.321 474.983
1499 1 58.0415 10.6303 617 89.504 904.219 506.968
1500 0 62.0642 10.4408 648 86.9568 904.145 505.87
1501 0 64.0173 11.7624 753 87.6972 904.2 504.286
1502 0 68.044 11.5073 783 88.0562 904.415 502.884
1503 0 69.0956 12.0702 834 88.4448 904.11 498.634
1504 0 72.0664 12.0167 866 90.4457 904.018 499.587
1505 0 75.1367 12.5505 943 88.8229 904.863 498.379
1506 0 76.0807 11.685 889 89.9449 904.048 497.287
1507 0 77.0626 11.9513 921 84.4995 903.705 498.094
1508 0 79.0448 12.3474 976 83.5031 903.987 497.182
1509 0 82.0866 11.9142 978 84.6074 903.782 495.566
1510 0 83.0841 11.3379 942 86.7144 905.124 497.157
1511 0 84.0562 11.1116 934 89.015 904.53 493.614
1512 0 90.0558 12.4145 1118 86.0474 904.038 492.688
1513 0 90.0969 10.966 988 91.6296 903.91 492.64
1514 0 93.1554 10.9494 1020 92.1186 904.608 488.906
1515 0 96.1161 11.3717 1093 90.2809 904.659 491.196
1516 0 98.068 11.3595 1114 90.7953 904.158 487.264
1517 0 103.153 11.4975 1186 92.1754 904.847 485.285
1518 0 106.144 11.3525 1205 92.6622 904.202 484.369
1519 1 61.0668 10.8733 664 96.6626 904.619 504.852
1520 0 64.0722 11.1437 714 97.4202 905.426 502.808
1521 0 66.0719 11.4572 757 97.7913 906.198 501.009
1522 0 69.0642 11.2649 778 98.0925 904.626 500.341
1523 0 71.0549 11.4278 812 99.4224 905.031 499.426
1524 0 74.0647 12.0435 892 100.11 905.422 498.14
1525 0 74.0647 12.03 891 136.774 905.416 498.204
1526 0 79.0129 13.3269 1053 93.0057 903.763 495.068
1527 0 79.0818 11.8358 936 98.8868 904.978 497.927
1528 0 82.0785 12.3175 1011 97.6894 903.431 495.01
1529 0 83.077 12.037 1000 100.396 904.854 495.283
1530 0 86.0504 11.8303 1018 100.982 905.6 493.832
1531 0 89.0397 11.8262 1053 101.84 905.776 491.754
1532 0 91.0813 11.8685 1081 102.186 905.838 491.328
1533 0 95.0806 12.5683 1195 100.52 906.288 490.251
1534 0 97.0924 12.0195 1167 102.362 906.354 488.058
1535 0 100.09 11.8293 1184 103.733 904.83 486.54
1536 0 103.069 12.4092 1279 104.351 905.509 485.742
1537 0 105.104 11.9596 1257 106.267 905.294 482.879
1538 0 110.105 12.3155 1356 104.596 904.762 479.858
1539 0 112.135 12.3244 1382 105.561 905.072 478.493
1540 1 60.0293 10.7947 648 105.978 905.789 502.699
1541 0 61.0267 10.225 624 99.5561 902.913 501.803
1542 0 57.0468 9.13284 521 95.1727 903.512 496.772
1543 0 60.0347 9.61111 577 90.9636 904.376 495.858
1544 0 62.0801 8.94006 555 87.8414 904.274 496.283
1545 0 64.0605 9.24126 592 84.6216 904.37 494.34
1546 0 67.0561 9.55916 641 84.897 904.041 494.323
1547 0 69.0429 10.269 709 95.6361 905.188 501.079
1548 0 71.0968 10.6193 755 96.9722 906.028 499.31
1549 0 73.114 10.8324 792 96.0189 905.357 498.165
1550 0 76.1383 10.1263 771 98.1569 905.35 496.172
1551 0 75.0454 10.0206 752 98.8657 905.342 497.436
1552 0 80.0754 11.0021 881 96.0034 905.462 495.07
1553 0 79.0966 10.5946 838 98.1432 905.211 492.474
1554 0 82.0751 10.5879 869 97.0898 904.944 491.029
1555 0 86.1569 11.1192 958 94.9415 905.036 490.236
1556 0 92.119 11.7457 1082 91.0915 905.231 491.52
1557 0 96.0814 11.8545 1139 91.3257 905.105 490.027
1558 0 96.1294 11.9214 1146 92.6492 905.352 489.808
1559 0 99.1444 11.6295 1153 93.6583 905.951 489.055
1560 1 51.0211 10.6427 543 92.2486 906.092 511.057
1561 0 52.017 10.5158 547 94.532 905.197 508.558
1562 0 53.1462 10.7063 569 91.4112 903.518 507.49
1563 0 55.1692 10.5856 584 90.8031 904.551 505.329
1564 0 57.0416 11.5004 656 90.2409 903.082 506.37
1565 0 58.0681 11.4176 663 90.2624 903.7 504.103
1566 0 56.0512 10.4547 586 85.7338 903.585 506.618
1567 0 59.0248 10.7243 633 84.9368 903.13 506.378
1568 0 61.027 11.2901 689 83.9869 903.692 505.907
1569 0 63.0494 11.372 717 83.5286 903.319 505.126
1570 0 65.0277 11.2721 733 83.9645 903.316 502.89
1571 0 68.0707 11.1355 758 83.4908 903.14 502.17
1572 0 69.0311 11.3862 786 83.1756 903.618 502.79
1573 0 70.0627 10.8617 761 83.8896 903.162 502.305
1574 0 74.0403 11.0886 821 82.62 903.229 500.006
1575 0 76.0644 11.7532 894 81.7248 903.56 499.03
1576 0 78.045 10.904 851 80.7897 904.102 496.986
1577 0 83.0845 10.9888 913 79.4129 903.646 495.911
1578 0 85.0492 11.217 954 80.4644 903.497 492.877
1579 0 87.0645 11.0378 961 82.0676 903.464 491.012
1580 0 90.0889 11.0224 993 83.1309 903.262 489.391
1581 0 96.0869 12.3118 1183 80.0761 903.822 486.183
1582 0 97.0894 12.4833 1212 80.3358 904.092 484.205
1583 0 100.09 11.6495 1166 83.5283 903.338 481.886
1584 1 52.0342 10.3586 539 82.0557 903.724 508.865
1585 0 51.1042 10.1361 518 80.6795 904.232 508.676
1586 0 52.0739 10.2355 533 75.5403 905.681 506.248
1587 0 54.0124 10.405 562 80.9324 903.867 509.407
1588 0 57.0258 10.5391 601 80.8652 903.393 509.052
1589 0 58.0461 10.8534 630 80.519 903.264 507.567
1590 0 60.0219 11.0626 664 80.8374 903.489 505.42
1591 0 60.0481 10.3584 622 81.865 903.614 506.079
1592 0 63.018 11.2825 711 80.8748 903.158 505.219
1593 0 65.071 10.8958 709 80.5035 903.588 502.662
1594 0 67.0371 10.6807 716 79.6355 903.177 502.982
1595 0 69.0483 11.0937 766 79.7441 903.516 499.671
1596 0 72.0571 10.4084 750 79.9813 903.485 500.403
1597 0 74.0774 10.597 785 82.6535 903.116 497.005
1598 0 77.0539 10.551 813 82.9582 902.806 494.632
1599 0 79.0949 10.4684 828 83.4481 903.036 493.278
1600 0 84.0677 10.5391 886 83.772 903.283 490.167
1601 1 43.0052 10.6499 458 87.9258 903.439 510.616
1602 0 41.0403 9.28356 381 88.0394 903.404 506.155
1603 0 40.0335 10.1915 408 84.277 904.495 502.103
1604 0 42.0226 9.78046 411 84.399 903.365 502.9
1605 0 44.0948 9.81975 433 84.8684 904.005 504.166
1606 0 51.0689 10.9264 558 89.2473 903.541 506.862
1607 0 51.2526 11.5116 590 88.2136 903.88 505.097
1608 0 53.0449 11.5563 613 87.9706 903.92 505.002
1609 0 55.0251 11.6674 642 88.2227 903.17 504.755
1610 0 57.0135 11.8218 674 87.3368 902.819 504.16
1611 0 60.0348 11.4933 690 86.7333 903.067 503.412
1612 0 61.0166 11.1937 683 87.6442 903.192 503.649
1613 0 60.044 11.4416 687 88.9374 903.402 501.333
1614 0 64.0324 12.0252 770 86.7805 903.742 499.431
1615 0 65.063 11.2353 731 80.8564 903.324 501.61
1616 0 65.0502 10.8993 709 81.1791 904.035 499.532
1617 0 66.0496 10.8101 714 83.1541 903.27 499.898
1618 0 67.0372 10.621 712 84.1461 903.504 497.236
1619 0 71.0151 11.1103 789 83.4854 903.556 496.208
1620 0 73.1006 10.807 790 87.7911 903.982 496.503
1621 0 75.1191 10.2637 771 88.2075 903.438 495.503
1622 0 79.019 10.5418 833 87.3854 903.305 493.417
1623 0 81.0464 10.9814 890 87.6584 902.767 493.403
1624 1 43.0505 9.91859 427 88.5012 902.068 510.178
1625 0 43.071 10.4943 452 88.8916 903.055 509.604
1626 0 46.1246 11.0353 509 89.886 903.536 508.149
1627 0 47.0303 11.1205 523 88.8604 902.258 508.985
1628 0 47.0851 11.5111 542 89.976 903.993 509.408
1629 0 50.017 11.1362 557 90.1221 903.214 507.521
1630 0 49.0463 11.1323 546 91.478 903.551 507.18
1631 0 53.0471 11.782 625 87.2432 902.613 507.094
1632 0 54.0462 12.5633 679 85.5611 902.739 506.084
1633 0 53.011 11.5071 610 88.4869 902.664 504.621
1634 0 57.0271 11.4332 652 87.6258 902.767 505.376
1635 0 58.0785 12.2076 709 86.6573 902.886 503.355
1636 0 60.0671 12.3861 744 85.5699 902.882 504.39
1637 0 59.0304 12.2818 725 88.2607 902.971 501.127
1638 0 62.0607 12.0205 746 89.7855 903.063 501.051
1639 0 65.0887 12.5521 817 88.4602 902.831 500.532
1640 0 66.0904 13.073 864 87.7211 903.462 500.512
1641 0 68.107 12.451 848 89.2028 903.591 497.298
1642 0 70.0421 12.7923 896 87.8527 903.616 496.994
1643 0 74.1105 12.6298 936 87.2019 903.882 495.854
1644 0 77.1437 13.3776 1032 85.3004 903.488 496.388
1645 0 80.0646 13.2018 1057 86.315 903.272 493.482
1646 0 82.057 13.1006 1075 85.6846 902.528 492.953
1647 0 86.0508 13.2015 1136 83.9419 902.805 492.059
1648 1 43.0087 10.1375 436 84.4564 903.119 513.287
1649 0 45.0948 10.3781 468 84.7991 902.618 512.624
1650 0 47.0393 10.7357 505 85.0594 902.962 510.988
1651 0 50.0284 11.7933 590 83.2508 902.575 510.047
1652 0 51.0488 12.2628 626 80.7508 902.518 508.391
1653 0 51.0088 12.4096 633 72.139 902.828 509.452
1654 0 53.0174 12.543 665 72.0436 903.159 508.794
1655 0 53.0184 12.0336 638 74.431 903.207 508.19
1656 0 55.07 11.7124 645 73.4961 904.136 508.104
1657 0 56.0564 11.5241 646 74.2632 904.18 507.384
1658 0 57.0774 11.7034 668 75.0284 904.166 506.244
1659 0 58.119 11.2356 653 73.6998 903.799 505.68
1660 0 62.0798 12.0812 750 72.86 904.508 504.499
1661 0 63.1057 11.8056 745 74.0188 904.481 504.475
1662 0 64.1077 12.0266 771 74.3696 904.787 502.533
1663 0 68.105 12.2018 831 73.6065 904.148 499.205
1664 0 68.0517 11.5353 785 74.9197 903.61 499.159
1665 0 72.1069 11.8435 854 73.1628 904.74 498.402
1666 0 74.0488 11.587 858 75.5035 904.11 497.316
1667 0 76.0886 11.434 870 75.6736 903.641 496.72
1668 0 76.0817 11.1196 846 77.9622 903.443 495.682
1669 1 39.0576 10.0877 394 78.1777 904.452 513.66
1670 0 40.0708 10.5064 421 78.6627 904.907 513.409
1671 0 41.0806 10.4185 428 74.6565 904.322 512.636
1672 0 42.0253 10.803 454 77.6101 904.022 512.304
1673 0 43.0637 11.007 474 78.5907 904.118 510.414
1674 0 43.0491 11.3591 489 80.9427 903.765 509.928
1675 0 47.0781 11.4491 539 74.1317 903.831 510.783
1676 0 48.0794 11.0026 529 74.7826 904.172 510.259
1677 0 46.0441 10.6854 492 76.4776 904.25 510.671
1678 0 49.153 11.1082 546 74.9341 904.229 509.363
1679 0 55.1042 11.3966 628 72.1545 903.693 509.279
1680 0 57.0315 12.1862 695 70.1511 903.014 509.037
1681 0 57.0113 12.366 705 70.2823 903.926 507.149
1682 0 59.0904 12.2693 725 69.8979 903.277 506.883
1683 0 60.0466 12.6069 757 69.9921 903.745 505.527
1684 0 61.0351 12.0095 733 71.2715 903.974 505.094
1685 0 63.0657 12.3998 782 70.2813 903.604 504.652
1686 0 67.0571 12.5565 842 70.5095 904.081 503.037
1687 0 68.0753 12.2952 837 72.2736 904.585 501.615
1688 0 68.0419 12.022 818 74.2518 904.879 500.71
1689 0 71.0814 10.6638 758 79.4288 904.747 499.404
1690 0 74.0685 10.7603 797 80.4391 904.44 498.038
1691 0 76.0941 11.4726 873 79.3047 903.866 496.262
1692 0 80.136 11.8549 950 78.979 904.444 494.102
1693 0 83.1212 12.2592 1019 78.9676 904.664 492.338
1694 0 84.2177 11.7078 986 81.2982 903.984 489.793
1695 0 89.1644 12.4041 1106 79.8852 904.172 490.632
1696 0 91.1606 12.297 1121 81.9661 904.35 488.534
1697 1 48.0858 10.6684 513 77.2476 904.616 511.766
1698 0 49.0674 10.3531 508 76.8209 903.85 507.732
1699 0 49.1003 10.6313 522 78.8697 903.831 504.148
1700 0 52.0616 10.6412 554 79.0199 903.424 504.381
1701 0 56.0913 11.0891 622 78.5434 904.442 503.81
1702 0 57.1188 10.767 615 79.7724 904.345 503.257
1703 0 58.0577 10.6618 619 80.7302 904.562 501.373
1704 0 61.0814 10.9526 669 79.8998 904.749 500.445
1705 0 63.0464 11.3726 717 80.6025 904.714 501.311
1706 0 64.0832 10.3303 662 81.8293 904.683 500.982
1707 0 65.0468 10.946 712 82.3371 904.795 499.796
1708 0 68.0369 11.6114 790 81.0152 904.006 498.422
1709 0 71.054 11.245 799 81.8598 903.954 498.101
1710 0 73.1105 10.573 773 82.74 903.684 495.642
1711 0 77.2129 11.6043 896 82.2266 904.282 494.424
1712 0 80.0605 12.4781 999 81.4585 904.279 496.064
1713 0 80.0592 12.4283 995 84.4613 904.217 495.902
1714 0 86.0824 11.6168 1000 84.932 904.833 492.484
1715 1 45.0658 10.3404 466 80.9893 905.519 512.129
1716 0 46.0454 10.7068 493 80.6106 905.428 512.258
1717 0 46.0676 11.4397 527 77.814 905.643 511.315
1718 0 49.0959 11.1415 547 77.8885 905.474 510.969
1719 0 50.0408 12.1501 608 78.1382 905.148 509.954
1720 0 51.0884 11.9205 609 76.6453 904.383 508.982
1721 0 53.0431 11.3493 602 77.887 905.389 508.364
1722 0 56.0756 12.1265 680 75.7191 905.079 507.875
1723 0 56.1458 11.5948 651 78.0046 904.459 506.08
1724 0 57.1621 10.6714 610 80.8098 905.69 507.99
1725 0 58.1507 10.9887 639 80.9061 905.609 505.194
1726 0 59.1118 10.3363 611 79.5646 904.715 507.538
1727 0 63.184 11.0788 700 77.6657 904.644 505.459
1728 0 65.0864 11.5539 752 80.1263 904.511 503.722
1729 0 68.1364 11.565 788 79.3858 904.846 502.423
1730 0 69.0832 11.5513 798 80.3622 904.102 501.093
1731 0 72.1767 10.4327 753 81.6999 904.442 501.21
1732 0 74.107 10.9032 808 80.297 904.126 498.941
1733 0 76.0992 10.1578 773 80.63 904.594 496.789
1734 0 79.137 10.8293 857 81.063 904.254 497.202
1735 0 82.1252 11.2389 923 79.8202 904.143 496.533
1736 0 85.1281 10.9952 936 80.875 904.428 494.394
1737 0 85.1012 9.58859 816 78.6765 904.221 490.466
1738 0 89.144 10.612 946 79.1797 903.66 488.244
1739 0 94.1164 10.147 955 83.3675 904.371 491.471
1740 0 95.1206 9.7245 925 86.3416 904.585 488.668
1741 0 99.1214 9.56403 948 84.3808 905.057 487.461
1742 1 50.0532 11.9673 599 76.9733 904.831 510.304
1743 0 52.0533 11.0848 577 77.1352 905.163 509.523
1744 0 53.1049 12.3906 658 74.19 904.781 509.201
1745 0 54.038 11.6214 628 76.3201 904.221 509.589
1746 0 56.1102 12.4042 696 73.6667 904.392 508.114
1747 0 57.0366 12.0975 690 74.6058 904.497 507.264
1748 0 56.0403 10.3319 579 79.9309 905.434 509.39
1749 0 57.086 10.9659 626 78.4936 905.061 506.246
1750 0 59.0506 10.7027 632 77.5981 904.582 506.505
1751 0 62.0713 11.3579 705 75.7277 904.03 505.526
1752 0 61.0651 10.628 649 78.2619 904.501 502.914
1753 0 66.0537 10.8245 715 74.607 904.334 502.445
1754 0 66.0371 10.7818 712 74.7612 903.611 500.556
1755 0 68.0884 10.6186 723 74.8631 903.972 501.647
1756 0 72.1208 11.5362 832 73.393 904.321 501.073
1757 0 74.1062 11.2406 833 74.4394 904.471 498.391
1758 0 76.0868 11.1189 846 73.5319 903.615 497.485
1759 0 79.0533 11.0938 877 74.8255 903.561 495.182
1760 0 83.1372 11.4991 956 75.0784 903.66 493.526
1761 0 84.0802 11.0133 926 77.973 904.238 491.703
1762 0 88.0661 11.6276 1024 77.4121 903.99 490.026
1763 1 46.0126 10.5189 484 80.5578 904.952 510.733
1764 0 47.018 10.379 488 82.6475 905.127 507.594
1765 0 49.1816 11.122 547 82.2578 904.684 505.143
1766 0 49.1041 12.0967 594 81.005 904.611 506.322
1767 0 53.1814 11.4702 610 82.223 904.205 505.79
1768 0 53.1525 10.7239 570 84.8281 903.925 504.904
1769 0 54.2509 11.5943 629 83.9682 903.984 505.113
1770 0 56.2192 12.1133 681 83.3451 903.567 504.774
1771 0 58.1669 12.2578 713 81.7742 903.215 505.506
1772 0 58.1296 11.8012 686 83.3149 903.523 504.357
1773 0 59.1017 11.3364 670 85.8298 903.534 502.942
1774 0 60.132 12.0402 724 86.7597 903.439 500.855
1775 0 64.1053 12.7602 818 84.4682 903.545 499.549
1776 0 67.1177 12.2471 822 85.3418 903.634 498.822
1777 0 68.1551 12.5596 856 85.9042 903.608 497.019
1778 0 71.099 12.1661 865 88.326 904.336 497.084
1779 0 71.1119 11.8827 845 91.226 903.998 496.292
1780 0 76.1299 12.4261 946 90.1173 904.124 495.135
1781 0 76.0881 12.2752 934 93.091 904.112 492.657
1782 0 79.1085 12.7167 1006 91.2952 903.946 492.073
1783 0 82.1071 12.3132 1011 93.3798 904.032 490.193
1784 0 86.1143 12.8898 1110 91.0315 904.009 489.619
1785 1 44.0415 11.3302 499 89.1984 905.138 509.583
1786 0 46.0481 12.1178 558 88.3423 905.194 510.038
1787 0 47.0135 12.2731 577 88.6655 905.17 509.957
1788 0 46.045 11.163 514 86.1362 904.09 505.451
1789 0 47.0366 11.6292 547 73.8026 904.422 504.85
1790 0 50.0683 11.2247 562 73.427 904.778 504.584
1791 0 52.0649 11.9274 621 74.2802 904.634 503.424
1792 0 56.1285 11.6518 654 74.3853 904.625 502.81
1793 0 57.0769 12.0539 688 74.5102 903.994 503.496
1794 0 57.0658 11.6707 666 76.2447 903.944 501.297
1795 0 59.0575 11.7682 695 76.2273 903.633 502.032
1796 0 60.0924 12.1147 728 75.7143 903.168 502.592
1797 0 60.0281 11.2447 675 78.6756 903.913 500.416
1798 0 65.0591 12.2504 797 75.7679 902.913 500.231
1799 0 65.0697 12.3252 802 74.4751 903.055 497.165
1800 0 68.0998 12.3348 840 75.244 902.84 496.789
1801 0 69.0533 12.1645 840 74.1107 902.8 496.905
1802 0 72.0566 12.171 877 74.1254 902.465 495.88
1803 0 74.1033 12.1722 902 75.51 902.685 494.618
1804 0 78.074 12.5266 978 74.5828 902.364 493.28
1805 0 76.0571 11.544 878 78.5888 902.466 489.928
1806 0 80.0357 12.1946 976 77.1865 903.039 489.228
1807 0 82.0702 12.0994 993 77.8802 903.248 486.909
1808 0 86.0612 12.3284 1061 78.704 902.81 486.666
1809 0 88.0547 12.072 1063 79.8344 903.294 482.842
1810 1 42.0432 9.65672 406 75.2808 903.197 508.02
1811 0 42.0912 9.78827 412 76.0146 903.384 508.01
1812 0 45.0472 10.5889 477 74.6625 902.975 506.755
1813 0 45.05 10.566 476 102.521 902.979 506.803
1814 0 42.0275 9.96967 419 77.241 902.761 503.379
1815 0 44.0304 10.1975 449 76.4321 903.138 502.151
1816 0 49.0183 9.79226 480 75.5896 903.133 501.071
1817 0 50.0462 10.4304 522 76.6801 902.542 501.9
1818 0 56.0615 11.416 640 82.95 903.108 506.703
1819 0 58.0522 11.9892 696 80.5977 901.76 505.362
1820 0 61.0344 12.2882 750 78.8947 902.94 505.848
1821 0 61.0265 12.0276 734 80.4578 902.956 503.638
1822 0 64.0267 12.1199 776 79.1933 902.844 502.314
1823 0 67.036 12.2919 824 78.7257 902.595 501.407
1824 0 68.0636 12.5912 857 77.035 902.949 500.634
1825 0 71.1028 12.2499 871 77.2445 903.052 499.194
1826 0 72.0292 12.0368 867 78.4279 902.917 497.093
1827 0 75.0736 12.1348 911 77.3974 903.305 496.221
1828 0 77.0591 11.2771 869 78.9137 902.743 494.316
1829 0 82.0436 11.567 949 76.7956 902.446 493.384
1830 0 83.0397 11.4524 951 78.225 902.389 491.249
1831 0 86.0727 11.3276 975 77.7713 902.784 489.658
1832 0 90.0868 12.3991 1117 76.1925 902.71 490.201
1833 1 46.0245 11.2332 517 80.5455 902.801 508.752
1834 0 46.1014 10.8457 500 82.636 904.034 507.562
1835 0 45.0213 10.6838 481 77.7443 903.873 503.044
1836 0 43.0264 9.85443 424 74.3113 903.847 503.259
1837 0 46.0803 10.3081 475 75.4526 903.352 503.608
1838 0 48.062 10.32 496 76.125 904.04 502.349
1839 0 50.1379 10.172 510 76.251 904.126 501.612
1840 0 53.0711 10.5707 561 76.4991 903.888 500.64
1841 0 53.0983 10.7725 572 78.7343 903.743 497.694
1842 0 56.0406 10.2604 575 75.5878 903.666 497.614
1843 0 58.0315 10.8562 630 77.6016 903.902 496.29
1844 0 62.0506 10.846 673 77.841 904.128 496.059
1845 0 63.0728 10.7178 676 79.3358 904.428 494.012
1846 0 64.0737 11.0654 709 80.0522 904.492 493.57
1847 0 69.053 11.2233 775 80.2929 904.519 493.019
1848 0 70.0506 10.7208 751 81.1811 904.282 491.65
1849 0 69.0472 10.8332 748 81.8676 904.269 489.623
1850 0 73.0642 11.004 804 81.8159 904.392 487.546
1851 0 76.0813 11.0014 837 83.098 904.602 485.98
1852 0 83.0664 13.736 1141 88.7327 903.439 489.989
1853 0 83.116 12.2359 1017 93.6785 903.625 488.331
1854 0 88.1222 12.9933 1145 90.7878 904.119 486.847
1855 0 90.0865 12.2993 1108 91.0424 904.253 485.66
1856 0 89.0649 11.1941 997 88.6048 904.029 478.882
1857 1 46.0354 9.57959 441 83.0363 904.016 499.628
1858 0 48.0389 10.1168 486 84.8004 904.167 498.296
1859 0 54.0813 11.1684 604 77.0364 904.414 505.591
1860 0 57.0762 12.8425 733 78.7995 904.405 504.992
1861 0 57.0546 11.9184 680 81.8074 904.515 505.072
1862 0 61.0509 11.8426 723 80.7884 904.486 505.279
1863 0 60.0873 12.2988 739 81.4736 904.54 503.618
1864 0 63.0449 11.8011 744 82.4462 904.274 502.079
1865 0 66.0484 12.4303 821 80.7418 904.361 501.616
1866 0 69.1313 12.469 862 81.0151 904.794 501.017
1867 0 71.0968 12.1665 865 82.3931 904.382 498.391
1868 0 74.0808 12.3244 913 83.2968 904.023 497.933
1869 0 75.1562 12.1347 912 84.3586 903.689 496.171
1870 0 78.1295 12.4025 969 83.4221 903.833 494.78
1871 0 82.1199 12.36 1015 83.3911 904.306 492.666
1872 0 83.1433 12.1116 1007 85.3416 903.843 490.743
1873 0 87.1585 12.7125 1108 82.7085 903.116 489.006
1874 0 90.2174 12.8024 1155 83.6545 903.627 488.382
1875 1 47.1371 9.63147 454 85.0044 905.026 509.031
1876 0 51.1648 10.6128 543 85.7256 904.586 505.963
1877 0 53.1273 10.5219 559 86.4758 904.297 505.923
1878 0 57.1497 11.6186 664 83.8554 904.604 504.072
1879 0 55.0632 10.4062 573 83.0716 904.178 498.632
1880 0 55.0431 10.5009 578 81.9481 904.334 497.566
1881 0 55.064 10.2063 562 83.548 904.183 497.721
1882 0 60.0557 10.6235 638 88.8824 904.756 501.665
1883 0 64.1118 11.8543 760 85.4184 904.524 500.342
1884 0 65.1376 11.1763 728 87.2679 904.435 498.374
1885 0 67.1095 11.3844 764 87.0877 905.086 499.103
1886 0 69.1893 11.6347 805 86.5006 904.893 497.786
1887 0 71.1645 11.7474 836 86.9581 904.026 496.603
1888 0 74.1043 11.6457 863 85.9038 903.658 496.859
1889 0 77.1631 12.1301 936 85.9626 903.568 493.072
1890 0 79.1523 12.6086 998 85.3617 903.639 493.421
1891 0 82.1669 12.0852 993 86.7694 903.934 492.809
1892 0 85.1163 12.3831 1054 87.241 904.138 490.794
1893 0 85.1245 11.8885 1012 88.7658 904.762 490.164
1894 0 89.1086 11.9068 1061 88.1668 904.976 488.269
1895 0 91.1279 12.455 1135 85.9656 904.8 488.018
1896 0 93.0918 12.4501 1159 86.5945 905.016 486.579
1897 0 99.1453 12.4565 1235 85.4964 905.385 485.583
1898 0 100.179 12.857 1288 87.0706 904.751 481.643
1899 0 103.075 12.6703 1306 88.1531 904.152 481.955
1900 0 108.136 12.1236 1311 91.3509 904.684 477.757
1901 0 110.105 11.8887 1309 89.4179 904.032 476.345
1902 0 113.108 11.7587 1330 90.5729 904.334 474.045
1903 0 116.166 12.6371 1468 88.1982 903.82 473.578
1904 0 119.161 10.8677 1295 91.2124 904.715 474.411
1905 1 66.0513 10.5221 695 84.1295 904.738 501.089
1906 0 69.0829 10.7697 744 82.922 905.239 501.738
1907 0 70.0752 10.9454 767 82.3051 904.343 499.038
1908 0 73.0242 11.8454 865 81.0393 904.001 496.03
1909 0 75.0497 11.8055 886 84.535 904.658 494.812
1910 0 76.0266 11.8643 902 85.7372 903.605 491.198
1911 0 78.0347 11.7384 916 84.8624 903.931 489.286
1912 0 79.0722 11.2682 891 81.9574 902.345 486.345
1913 0 81.0723 11.4959 932 82.9925 902.602 485.882
1914 0 84.0946 11.1779 940 75.7777 902.554 485.539
1915 0 86.1938 11.1841 964 81.999 902.947 492.852
1916 0 89.068 11.6877 1041 77.1844 902.601 484.61
1917 0 88.0879 10.4782 923 81.6793 901.787 482.983
1918 0 95.0998 11.1252 1058 79.311 901.954 482.447
1919 0 98.1244 11.4039 1119 79.235 901.786 479.946
1920 0 100.111 11.6171 1163 80.4437 901.712 481.286
1921 0 104.073 10.9826 1143 80.5704 901.717 478.426
1922 0 107.048 11.1819 1197 81.4737 901.749 477.316
1923 0 110.07 11.5563 1272 81.4929 901.391 477.129
1924 0 114.128 11.5922 1323 80.7695 901.918 474.806
1925 0 115.138 10.7349 1236 82.6699 902.202 472.755
1926 0 121.124 11.9877 1452 85.0758 902.062 474.825
1927 0 125.09 12.2471 1532 84.4302 902.442 472.976
1928 0 129.229 11.8239 1528 82.7219 902.545 471.003
1929 0 136.144 12.2077 1662 81.2401 901.966 467.869
1930 0 139.179 12.1427 1690 82.0503 901.42 464.35
1931 1 77.1175 10.8406 836 79.2608 903.06 498.989
1932 0 78.0437 11.6089 906 79.4525 902.058 496.151
1933 0 81.0768 11.8283 959 78.512 902.075 497.18
1934 0 87.0531 13.0955 1140 83.0044 902.675 494.292
1935 0 88.1912 13.2099 1165 85.2197 902.066 490.936
1936 0 91.0787 12.6484 1152 83.6302 901.213 487.265
1937 0 94.1042 13.3363 1255 84.8351 901.594 489.767
1938 0 97.1494 14.0402 1364 83.544 901.761 488.404
1939 0 99.1591 13.3018 1319 85.323 901.385 485.265
1940 0 102.129 13.2577 1354 86.2061 902.152 486.931
1941 0 105.157 13.2753 1396 86.0208 902.419 485.504
1942 0 107.111 13.7427 1472 87.5136 902.282 483.083
1943 0 109.128 13.6262 1487 87.6106 901.972 482.506
1944 0 112.134 13.3323 1495 89.1806 902.399 479.767
1945 0 117.219 14.17 1661 86.2613 901.15 480.01
1946 0 120.113 14.0951 1693 87.1536 901.883 477.627
1947 0 124.163 14.0542 1745 85.4304 902.292 475.968
1948 0 127.205 13.9931 1780 87.0539 902.348 473.772
1949 0 131.103 14.0119 1837 87.0577 901.894 471.834
1950 0 136.204 13.6192 1855 89.6604 901.804 468.443
1951 0 139.37 13.7691 1919 89.9078 901.367 466.586
1952 0 144.318 13.685 1975 89.8815 902.136 463.129
1953 0 149.272 14.0013 2090 88.6995 902.388 459.792
1954 0 152.271 13.2987 2025 91.6904 902.608 460.634
1955 0 156.224 13.1542 2055 93.5411 903.08 458.06
1956 0 162.312 12.9873 2108 94.1447 903.193 457.917
1957 0 165.237 13.3929 2213 97.6141 902.597 454.29
1958 0 173.292 13.5263 2344 98.0939 901.721 450.257
1959 0 179.271 13.4489 2411 98.1933 902.697 448.251
1960 0 184.28 13.5555 2498 100.131 902.388 444.865
1961 0 191.317 12.9837 2484 101.143 902.486 444.461
1962 0 199.271 13.3587 2662 101.631 902.2 439.013
1963 0 205.353 13.4451 2761 104.248 902.153 436.725
1964 0 212.38 13.942 2961 103.963 902.531 431.352
1965 0 219.361 13.5302 2968 107.508 902.456 427.145
1966 0 225.343 13.5394 3051 109.036 902.56 427.923
1967 0 232.434 14.0513 3266 109.284 901.979 422.229
1968 0 239.35 13.2567 3173 111.763 901.838 420.762
1969 1 183.306 13.0492 2392 114.501 901.826 445.427
1970 0 189.289 12.4994 2366 117.47 901.901 443.59
1971 0 197.287 13.7262 2708 114.033 901.553 441.162
1972 0 202.262 13.8385 2799 115.488 901.896 436.073
1973 0 210.455 14.0838 2964 113.963 901.473 433.755
1974 0 216.454 14.1554 3064 113.844 902.206 429.347
1975 0 222.393 14.3935 3201 112.437 901.277 427.104
1976 0 226.457 14.4972 3283 111.491 901.661 421.524
1977 1 252.352 11.7296 2960 115.297 901.423 425.156
1978 0 253.433 13.5065 3423 110.67 901.427 418.069
1979 0 251.552 13.4764 3390 112.962 901.017 412.699
1980 0 256.428 13.4736 3455 111.152 900.988 412.226
1981 0 265.496 14.3317 3805 108.706 900.668 405.476
1982 0 271.62 14.13 3838 110.707 901.57 401.854
1983 0 280.475 14.2758 4004 109.333 901.045 395.648
1984 1 310.936 21.5865 6712 83.8921 901.112 366.002
1985 0 317.857 20.742 6593 86.9172 901.813 360.234
1986 0 321.665 19.0602 6131 93.7808 901.375 364.021
1987 0 325.599 15.6389 5092 105.614 901.185 370.983
1988 0 325.662 15.6266 5089 156.71 897.187 371.046
1989 1 270.429 12.3766 3347 113.091 901.742 408.898
1990 0 277.321 13.1508 3647 113.27 901.577 401.724
1991 0 285.492 13.3208 3803 112.526 901.737 399.928
1992 0 294.509 13.9452 4107 113.332 901.346 392.126
1993 0 303.397 15.422 4679 109.786 900.978 382.913
1994 0 310.426 13.4074 4162 115.956 900.809 385.101
1995 0 395.706 16.7473 6627 94.6511 900.657 354.359
1996 0 394.688 16.0912 6351 99.3514 900.29 353.314
1997 0 395.049 15.2715 6033 106.062 900.26 355.468
1998 1 359.378 22.4694 8075 89.5408 901.765 336.158
1999 0 367.344 22.3442 8208 91.1516 900.832 333.107
2000 0 375.397 20.7087 7774 95.9734 901.122 332.565
2001 0 374.443 15.4229 5775 113.612 901.396 347.378
2002 1 328.312 12.3724 4062 119.842 901.32 380.504
2003 0 339.381 13.3655 4536 118.443 901.63 368.437
2004 0 348.328 12.9763 4520 121.909 900.566 363.413
2005 0 359.314 15.2986 5497 116.116 901.023 347.962
2006 0 370.523 15.578 5772 114.394 901.532 345.332
2007 0 381.474 15.6996 5989 116.171 900.816 333.972
2008 0 394.465 15.5502 6134 121.49 900.87 331.681
2009 0 406.538 16.2789 6618 123.063 901.151 319.106
2010 0 418.705 16.4173 6874 126.843 901.129 313.61
2011 0 416.203 11.7226 4879 141.496 901.706 329.753
2012 0 421.333 11.9383 5030 138.548 901.243 336.138
2013 0 419.275 12.8341 5381 136.698 901.379 326.407
2014 0 418.477 13.2695 5553 134.27 901.942 325.425
2015 0 419.25 16.1169 6757 122.959 901.106 311.852
2016 0 410.004 15.3242 6283 124.158 901.147 316.63
2017 0 402.963 14.8922 6001 125.55 900.762 318.452
2018 0 400.918 15.0455 6032 124.257 900.955 317.881
2019 0 403.668 15.104 6097 122.143 901.427 319.805
2020 0 404.937 14.4096 5835 123.423 901.091 322.871
2021 0 408.147 14.4972 5917 123.991 901.546 331.705
2022 0 410.49 15.3475 6300 120.984 901.527 326.361
2023 0 407.341 15.0145 6116 120.93 901.206 334.966
2024 0 409.968 14.6938 6024 121.905 900.881 328.196
2025 1 77.083 6.88868 531 88.0603 901.842 493.742
2026 0 81.0397 8.13182 659 85.4006 901.575 493.058
2027 0 82.0831 6.932 569 85.7522 901.478 488.645
2028 0 87.0873 6.99298 609 84.619 901.146 489.703
2029 0 90.1032 7.72447 696 85.4641 902.151 487.346
2030 0 95.0941 8.32859 792 85.3207 901.831 481.774
2031 0 97.0797 8.24065 800 86.11 901.48 482.176
2032 0 403.857 13.3414 5388 128.448 901.271 291.664
2033 0 405.274 13.6821 5545 128.084 901.291 295.79
2034 0 407.972 13.9789 5703 131.317 901.3 291.375
2035 0 411.393 13.8238 5687 132.152 902.018 295.332
2036 1 140.56 11.6961 1644 73.1861 901.508 454.104
2037 0 135.345 12.2723 1661 75.897 901.083 455.861
2038 0 144.448 12.122 1751 75.036 901.54 454.066
2039 1 64.2327 8.64046 555 78.5225 901.744 494.074
2040 0 64.0526 8.82088 565 78.4566 902.673 494.888
2041 0 65.0704 9.25152 602 75.4485 903.546 493.664
2042 0 69.0848 8.6126 595 75.4017 903.919 491.792
2043 0 70.0659 8.69182 609 76.78 903.742 487.1
2044 1 35.041 5.73614 201 82.5672 905.045 509.647
2045 0 35.0335 5.50902 193 83.1606 904.306 508.404
2046 0 35.0382 5.50827 193 83.43 904.135 505.42
2047 0 38.0238 6.44333 245 81.8 903.69 505.233
2048 0 37.0203 5.99671 222 79.9099 901.802 505.878
2049 0 37.0301 6.42721 238 83.3025 902.92 508.66
2050 0 40.0708 7.48675 300 86.4633 902.667 507.527
2051 0 40.036 8.06774 323 84.6068 902.139 506.427
2052 0 41.0106 6.36421 261 87.1916 903.123 502.992
2053 0 39.1627 5.89847 231 78.6667 903.074 509.996
2054 0 40.0702 7.56173 303 74.8977 902.38 511.832
2055 0 41.0974 7.76205 319 77.0094 902.42 510.36
2056 0 47.068 7.43605 350 77.26 903.749 508.76
2057 0 44.1294 6.91149 305 79.9475 903.439 508.407
2058 0 45.1235 7.24678 327 79.2385 902.376 510.474
2059 0 50.0649 7.47031 374 78.2727 901.944 508.925
2060 0 49.1015 7.88163 387 79.0258 901.809 508.127
2061 0 52.1263 8.28756 432 78.4468 901.928 506.688
2062 0 52.0766 9.21718 480 77.0708 902.9 507.89
2063 0 51.1035 8.49257 434 79.2995 901.823 507.29
2064 0 51.1511 7.80042 399 80.8872 902.444 507.411
2065 0 52.2345 8.05981 421 81.7791 902.798 508.466
2066 0 59.1048 9.25475 547 80.777 902.616 505.453
2067 0 62.0297 9.36648 581 82.6678 903.37 501.246
2068 0 65.0713 10.7421 699 80.2003 903.418 503.2
2069 0 65.0328 9.91807 645 83.9209 903.219 504.343
2070 0 68.0612 10.5199 716 83.1285 903.44 502.952
2071 0 69.1405 10.2545 709 84.6178 903.22 502.56
2072 0 72.1566 10.1446 732 86.0355 902.94 500.775
2073 0 72.0861 11.0146 794 87.8816 902.44 498.077
2074 0 77.0549 10.9922 847 86.5868 902.562 497.491
2075 0 78.1067 10.9722 857 88.035 902.674 496.17
2076 0 82.026 10.9843 901 89.1232 902.69 495.216
2077 1 45.0305 10.1487 457 91.3939 903.363 511.74
2078 0 46.0535 10.5312 485 89.367 902.887 511.922
2079 0 46.1409 11.1831 516 81.4012 900.742 509.651
2080 0 47.0528 11.7527 553 79.6709 903.181 510.526
2081 0 47.0696 11.4936 541 81.3253 902.214 508.922
2082 0 48.0512 11.5294 554 80.8718 902.496 508.32
2083 0 49.0115 12.14 595 79.3698 903.158 507.728
2084 0 52.1109 11.7058 610 78.6836 903.21 507.364
2085 0 51.0489 11.4596 585 79.7829 903.674 507.61
2086 0 53.0322 11.5024 610 79.0279 903.933 506.551
2087 0 55.0475 11.5537 636 77.9277 903.116 506.607
2088 0 54.0669 11.9112 644 77.559 902.927 506.812
2089 0 58.0464 12.5761 730 74.063 902.703 504.985
2090 0 60.1159 12.8252 771 72.891 902.482 505.004
2091 0 61.1687 12.3102 753 73.2483 902.24 505.671
2092 0 62.134 13.1007 814 71.7912 902.08 502.264
2093 0 62.1222 13.0066 808 123.142 902.059 502.197
2094 0 67.1582 12.9396 869 71.496 902.158 501.117
2095 0 67.0648 11.8095 792 74.4356 902.221 500.634
2096 0 69.1453 12.6979 878 72.0695 901.079 498.657
2097 0 72.0748 12.6396 911 72.0033 902.525 498.268
2098 0 70.0672 11.8315 829 75.3715 902.392 495.896
2099 0 74.0453 12.0062 889 74.5084 901.88 494.992
2100 0 78.0795 12.641 987 73.4671 902.038 492.054
2101 0 80.1569 12.2884 985 74.7888 901.966 491.574
2102 0 84.0866 11.9282 1003 75.5803 901.525 491.016
2103 1 43.0687 10.8199 466 80.8541 903.187 510.603
2104 0 45.0637 10.7626 485 80.8928 903.67 509.699
2105 0 46.0499 11.379 524 79.4886 902.55 507.55
2106 0 46.0647 11.1148 512 81.209 902.621 507.627
2107 0 47.0632 11.6864 550 80.7145 902.275 508.058
2108 0 51.0633 11.4955 587 79.063 901.842 506.54
2109 0 51.0722 12.2376 625 81.9344 902.29 505.869
2110 0 54.0214 12.5691 679 81.8085 902.532 504.216
2111 0 54.0305 12.0488 651 83.298 902.776 503.55
2112 0 56.023 12.2093 684 82.9722 903.202 503.737
2113 0 58.0933 12.7209 739 82.2625 902.943 502.336
2114 0 60.1369 12.3718 744 82.1586 901.374 500.542
2115 0 62.1657 12.3058 765 82.6771 901.366 499.45
2116 0 62.188 12.9124 803 82.7547 901.21 499.276
2117 0 65.128 12.4678 812 82.7956 902.353 498.131
2118 0 66.1668 12.5894 833 81.7335 901.945 498.041
2119 0 68.1287 12.7406 868 83.4044 901.918 496.609
2120 0 70.089 12.9407 907 84.0154 901.925 494.576
2121 0 71.1298 12.8216 912 84.5164 901.836 492.474
2122 0 75.1114 12.6612 951 83.4932 902.211 492.894
2123 0 78.2176 12.9127 1010 80.9069 903.069 492.013
2124 0 80.1316 13.0161 1043 81.6309 902.769 489.896
2125 0 82.1268 13.1139 1077 81.9248 901.465 489.273
2126 0 85.2096 13.2262 1127 83.921 901.703 486.75
2127 0 87.17 13.0894 1141 84.9693 902.273 485.776
2128 0 91.1677 12.6251 1151 85.7811 902.47 482.574
2129 0 94.2495 12.8701 1213 84.5886 902.378 483.73
2130 1 48.0494 10.51 505 85.6396 903.061 507.493
2131 0 50.007 11.4784 574 83.0976 902.618 506.753
2132 0 51.0361 11.4233 583 82.5935 901.278 503.05
2133 0 52.0758 11.7905 614 79.7736 901.459 503.303
2134 0 53.0171 12.147 644 80.8059 901.377 502.79
2135 0 57.0545 13.0402 744 78.5524 901.172 502.165
2136 0 59.0745 12.7805 755 79.1815 901.792 500.759
2137 0 61.0345 12.7305 777 79.3874 901.779 500.189
2138 0 63.0487 13.2596 836 79.8325 901.902 498.596
2139 0 64.0627 13.1122 840 80.1548 901.981 496.835
2140 0 68.0463 13.2116 899 79.9644 902.245 497.291
2141 0 70.0213 13.6673 957 80.8025 902.065 495.959
2142 0 73.0355 13.1443 960 81.1823 901.726 494.281
2143 0 74.105 13.3459 989 80.6805 901.903 492.845
2144 0 78.023 12.8808 1005 81.2756 901.898 491.322
2145 0 81.0369 13.1915 1069 82.3545 901.823 489.667
2146 0 82.0345 12.8239 1052 85.2291 902.015 490.872
2147 0 84.0332 12.3761 1040 87.7096 901.931 490.268
2148 0 85.0391 12.4884 1062 88.4783 902.107 488.806
2149 0 90.0681 12.968 1168 87.3305 902.047 488.068
2150 0 92.0324 12.4739 1148 89.2901 902.815 486.488
2151 0 94.0575 12.7263 1197 89.9098 902.658 483.623
2152 0 98.0292 13.3022 1304 90.4302 902.378 482.533
2153 1 50.0408 11.4107 571 93.0595 902.851 507.778
2154 0 53.0235 12.1455 644 94.1335 902.449 506.534
2155 0 53.0512 12.799 679 94.0663 903.974 504.795
2156 0 54.0451 12.9892 702 95.0513 903.439 503.963
2157 0 56.0265 12.5833 705 88.8908 902.43 505.024
2158 0 56.0221 12.5665 704 90.2173 902.388 503.567
2159 0 60.0276 12.2943 738 90.3388 901.587 501.74
2160 0 60.0361 12.7757 767 89.7236 903.185 503.117
2161 0 63.0334 12.8821 812 89.8227 902.72 501.201
2162 0 65.0568 12.9886 845 89.1302 902.373 500.002
2163 0 68.0494 12.2264 832 89.7091 902.192 499.159
2164 0 70.0205 12.4107 869 89.9091 902.351 497.533
2165 0 74.0311 12.7244 942 89.4862 902.596 495.615
2166 0 73.0298 12.1457 887 92.7756 903.585 494.76
2167 0 78.0414 12.5574 980 92.3418 902.83 492.614
2168 0 80.0308 12.6201 1010 93.0455 902.879 491.617
2169 0 84.0473 12.3859 1041 94.6138 902.908 491.673
2170 0 87.1093 12.226 1065 92.3916 903.074 491.412
2171 0 90.081 12.2889 1107 88.5736 903.379 488.518
2172 1 46.0783 11.2851 520 89.8019 902.727 508.742
2173 0 48.0589 11.1322 535 89.2692 903.525 507.725
2174 0 49.0205 11.6074 569 88.2584 904.16 505.83
2175 0 52.0265 12.4744 649 86.131 903.94 505.931
2176 0 54.0236 12.1428 656 86.0046 904.375 504.117
2177 0 54.0263 12.0497 651 87.6068 904.313 504.797
2178 0 56.0693 11.9673 671 86.7362 904.869 502.325
2179 0 58.0877 11.6031 674 86.3294 904.798 501.389
2180 0 60.0913 11.6157 698 85.6476 904.616 500.301
2181 0 62.0767 11.808 733 84.3029 904.402 498.432
2182 0 64.0674 12.1435 778 83.2134 904.776 498.267
2183 0 67.1034 12.3243 827 82.8815 904.32 496.947
2184 0 67.0349 11.6656 782 85.0026 903.716 496.847
2185 0 70.1111 12.5515 880 83.0341 904.876 494.706
2186 0 75.0751 12.4009 931 82.6821 903.62 493.798
2187 0 77.11 12.6961 979 82.0358 903.904 491.934
2188 0 80.0816 12.2 977 80.8864 904.039 491.592
2189 0 82.1322 12.1877 1001 81.5504 903.799 491.039
2190 0 86.1466 12.2466 1055 81.8995 904.214 489.28
2191 0 87.1375 12.4745 1087 82.8694 903.837 488.817
2192 0 90.128 11.7832 1062 85.1478 903.631 486.34
2193 1 46.1029 11.2357 518 85.6236 904.334 508.575
2194 0 47.0881 11.2767 531 83.7439 904.689 508.23
2195 0 49.0995 11.6091 570 84.2877 905.296 508.035
2196 0 51.0941 11.469 586 80.9625 904.753 506.587
2197 0 52.0935 11.8825 619 83.3005 904.667 507.204
2198 0 53.0189 12.09 641 85.3729 904.66 507.69
2199 0 54.0362 12.2511 662 85.3792 904.615 506.962
2200 0 56.0302 12.6003 706 85.0467 904.609 505.834
2201 0 57.0274 12.3274 703 87.0967 905.058 505.367
2202 0 58.0535 12.5746 730 86.9206 905.522 505.418
2203 0 58.0634 12.4864 725 87.4455 904.829 504.792
2204 0 62.1004 12.2382 760 86.4882 904.386 503.066
2205 0 64.0859 12.5301 803 86.0486 904.682 502.608
2206 0 66.0592 12.6553 836 86.3708 904.907 499.724
2207 0 69.0419 12.8762 889 85.2014 905.021 499.846
2208 0 70.1763 12.2833 862 86.594 904.718 498.387
2209 0 73.1262 12.7998 936 85.1453 903.623 498.091
2210 0 74.0523 12.5452 929 85.4822 904.028 497.004
2211 0 77.1095 12.2553 945 85.619 904.315 495.771
2212 0 80.1073 11.8716 951 84.2965 903.711 494.836
2213 0 83.0776 12.5786 1045 82.3225 903.741 494.14
2214 0 84.1294 12.1361 1021 84.998 903.992 492.694
2215 0 86.0977 12.4858 1075 85.6419 904.233 489.897
2216 0 88.1652 12.3064 1085 85.0654 903.561 488.744
2217 0 92.1129 12.7235 1172 83.0896 903.38 488.236
2218 0 94.1121 12.687 1194 84.459 903.357 486.405
2219 0 96.1664 12.416 1194 96.7178 902.924 484.536
2220 0 99.1405 12.2553 1215 95.1909 903.805 482.257
2221 0 99.1707 12.7457 1264 95.3608 903.764 481.477
2222 0 103.155 13.0192 1343 92.8042 903.634 479.874
2223 0 107.106 11.9694 1282 95.5047 903.081 480.63
2224 0 109.142 11.2331 1226 98.283 903.513 476.329
2225 0 114.128 11.8814 1356 97.2035 903.771 475.209
2226 1 59.0204 10.0474 593 94.3558 903.781 503.609
2227 0 63.0259 11.1859 705 93.1504 903.079 501.023
2228 0 65.0587 11.8047 768 92.1198 903.534 502.128
2229 0 66.071 11.2001 740 94.9338 903.982 498.839
2230 0 67.0991 12.0419 808 85.9839 903.489 498.964
2231 0 71.0827 11.8876 845 87.0556 903.094 497.344
2232 0 73.0511 11.9642 874 86.4462 903.986 495.779
2233 0 76.0729 12.2514 932 84.6255 903.148 493.848
2234 0 80.0622 13.0399 1044 83.4301 903.071 494.229
2235 0 82.0769 13.0244 1069 84.2498 903.521 494.676
2236 0 85.0938 12.7624 1086 84.512 903.026 492.233
2237 0 88.1078 12.6322 1113 85.1554 903.043 489.636
2238 0 90.0802 12.4001 1117 84 902.892 489.457
2239 0 95.081 12.1055 1151 81.7689 901.85 488.917
2240 0 98.0639 12.1553 1192 82.7802 901.752 486.654
2241 1 45.0247 9.66137 435 86.6644 901.871 511.644
2242 0 47.042 10.3525 487 82.5873 902.136 510.924
2243 0 50.0619 11.5856 580 78.1759 902.226 511.029
2244 0 48.0416 10.595 509 79.8723 902.09 511.326
2245 0 48.0362 9.57612 460 82.013 901.62 511.237
2246 0 50.0549 10.9879 550 81.22 901.182 508.115
2247 0 52.0293 10.9938 572 79.0175 901.316 510.259
2248 0 54.0637 10.4136 563 80.5879 902.162 509.005
2249 0 56.0555 10.4539 586 80.3652 901.85 507.771
2250 0 57.1215 9.52356 544 81.4724 901.882 507.551
2251 0 60.0629 10.3225 620 80.7694 901.674 506.148
2252 0 62.03 11.3171 702 80.188 902.124 505.001
2253 0 64.024 11.5894 742 81.7453 901.186 503.656
2254 0 64.0481 11.7099 750 82.8267 902.508 502.709
2255 0 67.0306 12.0542 808 82.7983 902.948 503.958
2256 0 69.0965 11.303 781 84.0333 902.74 502.186
2257 0 73.1076 12.5979 921 82.5081 902.427 500.684
2258 0 76.0637 12.0688 918 84.0174 902.723 500.621
2259 0 77.0865 11.9736 923 86.5049 902.613 499.211
2260 0 79.1071 12.5526 993 86.2074 902.148 497.83
2261 0 81.0737 12.9759 1052 86.5865 902.688 497.12
2262 0 84.2034 12.8855 1085 87.8894 903.278 494.045
2263 0 85.128 12.7573 1086 89.209 902.68 493.757
2264 0 87.1508 12.5185 1091 90.5206 903.189 492.762
2265 0 88.281 11.9618 1056 92.4006 903.028 490.999
2266 0 92.1954 11.66 1075 92.7433 903.29 489.051
2267 1 50.1896 11.2374 564 92.6294 903.445 510.007
2268 0 53.0387 12.1421 644 90.1506 902.632 509.36
2269 0 55.1294 12.5341 691 83.2547 903.74 509.488
2270 0 55.0802 11.692 644 84.3028 903.894 508.943
2271 0 57.0698 12.2306 698 83.1189 904.166 507.255
2272 0 59.0642 12.2071 721 83.4424 903.469 507.074
2273 0 61.081 12.5407 766 82.0888 903.491 505.743
2274 0 64.0625 12.9717 831 80.6871 903.523 506.057
2275 0 66.0877 13.1189 867 81.3183 903.048 504.75
2276 0 69.1291 13.0046 899 81.2959 903.34 503.446
2277 0 71.0578 13.3413 948 80.48 902.751 502.043
2278 0 74.1134 13.5063 1001 80.3596 902.891 501.465
2279 0 74.0731 13.0412 966 82.117 903.587 499.442
2280 0 76.0808 12.3816 942 84.2558 903.414 498.689
2281 0 79.0907 12.138 960 84.2312 903.376 499.062
2282 0 81.1095 12.6249 1024 82.5352 903.854 498.862
2283 0 86.0532 12.8641 1107 81.7615 903.94 497.011
2284 0 88.1044 12.837 1131 82.5411 903.938 494.056
2285 1 45.0716 12.0031 541 87.2884 903.299 516.449
2286 0 46.0192 12.1471 559 83.5277 903.562 514.893
2287 0 48.0661 12.2956 591 82.4298 903.675 512.484
2288 0 49.038 12.684 622 81.1142 903.732 513.58
2289 0 50.0307 12.9321 647 80.0696 903.79 514.102
2290 0 53.0591 12.8536 682 79.2258 903.441 512.238
2291 0 52.036 12.9141 672 80.3765 903.76 511.522
2292 0 57.0417 12.7801 729 79.177 903.198 511.038
2293 0 57.0431 12.9025 736 80.0408 903.44 509.966
2294 0 57.0864 12.9978 742 81.1631 903.721 509.993
2295 0 59.0587 12.5807 743 82.0081 903.677 509.456
2296 0 61.0445 12.5318 765 83.1399 903.991 507.919
2297 0 64.0622 12.722 815 82.3644 904.142 506.681
2298 0 66.1446 12.7599 844 82.2986 903.832 505.018
2299 0 68.0842 12.7489 868 82.4055 903.871 504.407
2300 0 70.0928 12.7688 895 83.267 903.751 503.312
2301 0 71.1291 12.5125 890 82.5371 903.227 501.004
2302 0 72.0534 11.7274 845 79.5515 902.817 497.305
2303 0 74.152 11.5573 857 79.6488 903.023 496.182
2304 1 37.0348 9.47757 351 78.1709 904.464 517.017
2305 0 39.0592 11.0089 430 76.007 904.123 515.265
2306 0 40.0966 10.6493 427 79.7518 903.211 515.208
2307 0 40.0709 11.1303 446 77.1682 902.614 511.339
2308 0 40.0291 10.7922 432 79.3727 902.225 510.933
2309 0 42.0068 10.8316 455 80.1516 902.888 510.89
2310 0 43.0622 10.6358 458 81.6703 902.9 511.644
2311 0 44.0733 11.0271 486 81.5761 902.152 510.636
2312 0 45.0421 10.9231 492 83.1443 902.059 509.685
2313 0 48.0398 11.4072 548 83.1478 901.774 509.272
2314 0 50.1354 11.469 575 83.8539 901.882 510.139
2315 0 51.0482 11.1659 570 95.3158 901.71 507.384
2316 0 51.061 11.1239 568 96.7447 902.407 507.158
2317 0 55.1703 11.8723 655 103.466 902.279 510.302
2318 0 57.1085 11.7321 670 103.736 901.936 509.19
2319 0 61.0817 12.1477 742 100.125 902.276 506.352
2320 0 62.1045 12.3824 769 100.034 902.26 505.597
2321 0 63.1012 12.5196 790 100.095 902.449 504.711
2322 0 64.0616 12.207 782 101.932 902.436 502.329
2323 0 66.0674 11.7002 773 102.335 902.003 501.765
2324 0 69.1276 12.6144 872 99.5115 902.273 501.612
2325 0 70.0877 11.9136 835 102.12 902.031 500.907
2326 0 74.0659 12.4889 925 99.9859 902.01 499.066
2327 0 77.0389 12.8766 992 99.0232 903.041 496.4
2328 0 77.0596 12.4709 961 103.969 902.785 495.176
2329 0 81.1309 12.3627 1003 103.069 902.524 493.536
2330 0 83.0833 12.3009 1022 92.7309 902.557 491.301
2331 0 86.1694 12.3246 1062 92.404 903.34 491.944
2332 0 89.0648 12.7098 1132 91.0663 903.452 488.686
2333 0 91.0448 12.082 1100 93.2691 902.941 487.142
2334 1 46.0232 11.0596 509 89.3163 903.483 510.432
2335 0 49.0364 12.0115 589 91.3922 904.022 509.576
2336 0 50.0505 12.0878 605 92.2066 904.149 507.093
2337 0 53.0502 12.6861 673 88.5854 904.068 509.245
2338 0 54.0431 12.6936 686 89.1472 904.025 508.101
2339 0 54.0493 12.7106 687 88.9112 903.686 507.328
2340 0 56.0536 12.488 700 90.6171 904.344 507.456
2341 0 59.0527 13.1069 774 89.1512 904.667 506.563
2342 0 60.1219 12.6576 761 89.8436 904.707 505.813
2343 0 61.0724 12.608 770 90.0208 903.538 504.932
2344 0 65.0876 12.9518 843 87.363 904.083 506.464
2345 0 67.1047 12.2644 823 88.5577 904.129 504.685
2346 0 69.1196 12.7605 882 87.4569 904.297 503.72
2347 0 71.1112 12.7547 907 86.4642 904.034 502.696
2348 0 73.1737 12.7642 934 86.0985 903.126 503.067
2349 0 77.0489 12.3817 954 87.4665 902.941 501.122
2350 0 77.1488 12.4435 960 89.5521 902.554 499.775
2351 1 37.023 11.5063 426 90.2465 902.643 519.953
2352 0 38.049 10.907 415 90.9229 903.092 520.202
2353 0 40.0768 10.5298 422 91.2299 902.602 519.431
2354 0 41.0548 12.1788 500 87.58 902.5 518.112
2355 0 42.0639 12.2433 515 89.167 903.064 517.757
2356 0 46.1392 12.3756 571 87.6918 903.368 516.31
2357 0 46.0735 12.7405 587 87.7649 901.729 516.746
2358 0 47.056 12.4107 584 88.4332 902.272 516.346
2359 0 49.0992 12.5053 614 88.1026 902.293 515.349
2360 0 50.1208 12.5098 627 88.1818 902.104 515.463
2361 0 53.0595 12.4012 658 88.3602 902.448 515.632
2362 0 53.0457 12.329 654 89.1682 901.56 514.904
2363 0 55.0815 12.1093 667 88.6717 901.085 514.855
2364 0 58.0637 12.2107 709 98.1805 900.965 513.037
2365 0 59.1038 11.9282 705 98.5064 900.589 511.001
2366 0 61.056 13.1191 801 95.5406 900.499 508.994
2367 0 63.0817 12.999 820 96.111 899.783 509.618
2368 0 64.0808 12.3438 791 99.0847 899.831 507.054
2369 0 66.1138 12.5087 827 98.4921 902.295 509.606
2370 0 69.2142 12.8875 892 98.074 900.97 506.664
2371 0 71.1449 13.8731 987 97.3404 900.518 504.504
2372 0 74.2359 14.3462 1065 96.4808 900.394 503.815
2373 0 77.121 14.0429 1083 96.0157 899.896 502.178
2374 0 80.1406 13.0396 1045 97.2947 900.121 500.954
2375 0 83.1063 13.0796 1087 96.4443 899.751 498.555
2376 0 85.0789 13.6579 1162 87.6351 899.954 496.923
2377 1 46.0562 12.0505 555 87.5622 900.389 517.512
2378 0 45.0536 11.8082 532 90.3421 901.096 516.216
2379 0 46.0579 12.0283 554 89.9332 900.81 516.262
2380 0 47.0368 12.9473 609 89.5484 900.714 515.422
2381 0 49.0516 12.8028 628 90.2213 900.949 514.482
2382 0 52.1599 12.6726 661 96.5885 901.306 513.762
2383 0 53.1596 12.6036 670 96.5075 901.621 512.298
2384 0 56.1585 12.8743 723 94.6929 901.678 511.663
2385 0 56.1192 13.507 758 94.3179 900.993 510.365
2386 0 58.1326 13.2456 770 93.7 900.968 508.249
2387 0 57.0815 13.3844 764 95.6414 901.154 507.953
2388 0 61.0864 13.3745 817 93.7674 901.034 506.059
2389 0 63.1251 13.4812 851 92.2103 901.014 504.657
2390 0 64.1145 13.0548 837 93.6022 901.069 504.818
2391 0 67.1485 13.8797 932 90.6481 902.132 503.648
2392 0 69.2294 14.0836 975 90.4882 901.388 501.926
2393 0 72.1406 13.8895 1002 90.5539 900.918 501.457
2394 0 74.0993 13.5224 1002 92.6387 901.121 500.256
2395 0 76.0426 13.8344 1052 93.8213 900.767 498.186
2396 0 79.0355 14.0696 1112 93.0234 901.3 495.917
2397 0 81.0517 13.7196 1112 94.0216 901.328 495.834
2398 0 83.0424 13.451 1117 94.9776 901.542 493.249
2399 0 84.1127 13.5532 1140 95.7947 900.55 489.77
2400 0 88.0518 13.5261 1191 93.7775 901.897 491.814
2401 0 91.1481 13.7249 1251 93.7994 901.592 488.636
2402 0 92.0677 13.3923 1233 94.8589 901.687 486.754
2403 1 50.0305 12.2525 613 92.5873 901.922 509.212
2404 0 53.0269 12.3522 655 92.284 902.354 506.38
2405 0 53.0591 13.5698 720 87.3194 902.953 508.335
2406 0 54.2026 13.7078 743 88.253 902.794 507.098
2407 0 58.1848 13.1649 766 91.5013 902.492 507.303
2408 0 58.2019 13.3157 775 93.5523 902.528 505.772
2409 0 59.1106 12.9418 765 93.4431 903.034 506.59
2410 0 62.1339 12.5696 781 93.6005 902.649 505.329
2411 0 63.1854 13.7374 868 92.1002 903.902 504.492
2412 0 65.144 13.0787 852 94.5 902.946 502.05
2413 0 67.062 13.3608 896 94.0089 902.627 501.827
2414 0 69.1076 13.9203 962 92.4667 903.243 501.276
2415 0 68.1056 12.6862 864 96.1088 903.535 501.022
2416 0 72.1494 12.7097 917 96.3348 903.148 501.265
2417 0 75.1476 13.4269 1009 94.6432 903.181 499.045
2418 0 76.1532 12.8951 982 95.9185 902.997 498.297
2419 0 79.1271 12.6379 1000 95.231 902.794 496.458
2420 0 79.1188 12.6519 1001 91.8042 902.719 495.898
2421 0 81.1911 12.8955 1047 91.7058 902.586 494.057
2422 0 85.168 12.1759 1037 94.7772 902.532 492.134
2423 0 87.1002 12.8473 1119 96.1037 902.817 490.885
2424 0 91.1582 12.8787 1174 95.9216 903.23 491.032
2425 0 92.1373 12.5139 1153 97.2559 903.97 488.694
2426 0 95.1108 12.4171 1181 96.442 904.22 486.353
2427 0 99.1617 12.8175 1271 96.14 904.164 483.681
2428 0 101.108 12.8378 1298 96.6726 902.7 480.775
2429 0 104.135 12.4838 1300 96.8762 902.572 480.555
2430 0 108.106 12.2749 1327 97.4951 902.855 480.532
2431 0 113.222 12.9745 1469 96.0919 902.85 477.668
2432 0 117.091 13.1522 1540 95.3591 903.403 477.02
2433 0 120.199 13.2198 1589 95.3058 902.623 475.201
2434 0 124.261 12.7071 1579 97.5212 902.987 472.339
2435 0 129.197 13.1659 1701 96.7108 903.28 470.653
2436 0 133.133 13.1298 1748 97.4611 902.891 469.368
2437 0 135.207 13.2612 1793 98.0089 903.106 466.291
2438 0 141.209 13.1224 1853 98.3594 903.312 464.46
2439 0 144.138 12.939 1865 100.774 903.173 462.026
2440 0 150.139 13.6607 2051 99.6811 902.949 459.643
2441 0 156.172 13.562 2118 100.619 902.765 457.41
2442 0 162.123 13.8783 2250 99.9809 902.524 455.179
2443 0 164.127 13.4774 2212 102.569 902.731 450.865
2444 0 171.134 13.9365 2385 100.351 902.627 448.011
2445 0 175.221 13.8796 2432 100.299 902.452 447.686
2446 0 182.308 14.3823 2622 99.4104 902.492 444.323
2447 0 186.177 14.4486 2690 99.3874 902.425 442.254
2448 0 190.207 13.9637 2656 102.913 902.753 438.626
2449 0 197.273 13.8894 2740 103.312 902.78 436.164
2450 0 203.216 13.5914 2762 104.744 902.604 433.298
2451 0 212.27 14.2555 3026 102.801 902.674 431.581
2452 0 220.237 13.9713 3077 104.284 902.208 427.143
2453 1 160.168 12.181 1951 104.864 903.101 459.582
2454 0 164.104 12.3824 2032 106.614 902.285 451.908
2455 0 169.284 12.7832 2164 109.149 902.297 450.841
2456 0 177.236 13.4735 2388 106.52 902.257 447.275
2457 0 184.292 13.267 2445 107.182 901.998 444.198
2458 0 190.22 12.985 2470 108.046 902.565 441.447
2459 0 197.215 13.6197 2686 108.162 901.949 435.811
2460 0 204.235 13.3572 2728 109.771 902.132 432.54
2461 0 209.291 13.541 2834 109.751 901.968 429.407
2462 0 217.275 13.2367 2876 111.411 901.46 422.44
2463 0 224.284 12.765 2863 112.664 902.127 418.216
2464 0 232.264 13.024 3025 111.934 902.366 416.288
2465 0 239.34 13.0275 3118 111.907 901.541 413.446
2466 0 248.358 13.4846 3349 112.623 901.405 407.943
2467 1 188.274 12.4924 2352 110.593 902.105 440.776
2468 0 195.217 12.5655 2453 109.223 902.002 436.885
2469 0 201.23 12.6969 2555 106.488 901.851 432.89
2470 0 210.224 12.3345 2593 107.444 901.244 428.173
2471 1 63.1374 11.3879 719 98.758 902.086 501.47
2472 0 65.1276 11.8076 769 97.3394 902.369 498.462
2473 0 64.0473 11.6789 748 98.9973 902.233 495.981
2474 0 66.1368 11.7484 777 96.6396 902.665 497.081
2475 0 68.0458 11.2424 765 89.783 902.669 496.336
2476 0 74.0452 12.6544 937 97.3927 903.695 498.761
2477 0 77.088 12.3495 952 97.4244 904.302 498.051
2478 0 79.078 12.5699 994 95.8944 903.393 497.754
2479 0 81.1516 12.0269 976 97.8617 902.951 496.715
2480 0 85.115 12.5007 1064 96.9859 902.619 493.406
2481 0 85.1202 12.547 1068 145.464 902.628 493.47
2482 0 90.1767 12.908 1164 94.6684 902.484 492.495
2483 0 93.1257 12.9717 1208 93.351 902.641 491.182
2484 0 94.0464 12.664 1191 93.1839 901.829 489.343
2485 0 98.0685 12.4403 1220 95.1812 901.579 486.401
2486 0 102.037 13.2011 1347 92.1782 901.955 483.033
2487 0 106.075 12.3968 1315 94.1764 902.645 484.104
2488 0 111.064 13.8749 1541 90.6522 901.299 476.056
2489 0 112.061 12.3326 1382 95.78 901.709 478.824
2490 0 116.067 12.4669 1447 94.7726 901.614 476.27
2491 0 120.033 12.9465 1554 93.7226 901.736 475.454
2492 0 120.109 12.6719 1522 96.1432 902.022 472.562
2493 0 126.06 12.8272 1617 91.2913 902.555 471.278
2494 0 128.092 12.249 1569 90.1944 902.076 465.709
2495 0 131.088 12.7548 1672 91.183 902.301 463.483
2496 0 136.223 12.92 1760 91.429 902.052 461.035
2497 1 75.0848 10.9476 822 90.4708 902.746 493.995
2498 0 79.1309 11.9675 947 91.0433 903.082 491.702
2499 0 81.1452 11.5226 935 80.123 901.719 486.962
2500 0 85.077 11.5542 983 81.527 901.847 486.709
2501 0 89.1012 12.2221 1089 79.9917 902.216 485.992
2502 0 90.1686 11.9665 1079 80.8749 902.024 485.966
2503 0 94.0715 12.2673 1154 81.6213 902.426 484.194
2504 0 97.0947 12.3179 1196 82.3278 902.742 482.243
2505 0 101.165 12.2374 1238 82.5113 901.922 479.714
2506 0 103.092 11.5237 1188 85.138 901.798 477.944
2507 0 106.038 11.9863 1271 84.679 901.943 477.884
2508 0 108.061 11.6231 1256 85.9379 901.627 477.913
2509 0 113.088 12.6803 1434 91.7573 902.205 479.365
2510 0 117.13 11.4659 1343 90.4892 902.536 474.564
2511 0 120.175 11.7163 1408 92.4723 901.512 470.843
2512 1 65.0475 10.5 683 79.855 902.805 501.7
2513 0 66.0592 10.8388 716 81.6243 902.545 498.753
2514 0 70.042 11.6216 814 77.7629 901.903 499.604
2515 0 73.039 11.6787 853 78.3564 901.748 499.927
2516 0 76.0723 11.8571 902 77.7417 901.439 498.222
2517 0 77.0682 11.9894 924 78.9232 902.129 496.088
2518 0 81.1535 12.4455 1010 77.5238 901.297 496.083
2519 0 84.1049 12.318 1036 77.4865 901.477 493.236
2520 0 85.0971 12.4211 1057 78.6916 900.983 489.893
2521 0 89.0737 11.9227 1062 79.6525 900.65 489.666
2522 0 92.1022 11.8347 1090 79.8615 901.188 487.178
2523 0 96.1517 12.2307 1176 79.6786 900.844 485.554
2524 0 96.1517 12.2619 1179 122.979 900.853 485.442
2525 0 100.161 12.4899 1251 82.0072 900.496 481.262
2526 0 104.181 11.9408 1244 83.9703 900.358 480.242
2527 0 110.105 11.4527 1261 85.7756 900.501 473.613
2528 1 56.0852 9.93133 557 74.1688 901.113 506.027
2529 0 56.047 10.0273 562 74.895 900.553 504.801
2530 0 57.066 9.56787 546 75.6154 900.463 505.044
2531 0 59.0309 10.9773 648 74.1219 900.991 503.591
2532 0 59.0521 10.7024 632 75.182 901.674 503.492
2533 0 63.1425 11.4186 721 74.1609 901.046 501.846
2534 0 65.0937 11.5987 755 72.0146 902.097 499.838
2535 0 67.0937 11.8491 795 73.7145 901.492 498.829
2536 0 70.107 11.2114 786 75.0013 902.291 498.51
2537 0 72.0777 11.557 833 74.3854 902.627 497.253
2538 0 73.0927 10.8219 791 75.4918 902.968 495.89
2539 0 76.0737 12.3039 936 72.7457 901.931 493.489
2540 0 81.0791 12.0746 979 72.4341 902.005 495.606
2541 0 79.0544 11.2201 887 74.655 901.35 492.347
2542 0 85.0862 12.2464 1042 71.666 901.818 491.835
2543 0 87.1225 11.5125 1003 73.2293 902.02 491.369
2544 0 88.1668 11.9092 1050 74.2324 901.619 489.313
2545 0 92.186 10.7392 990 77.0586 901.548 487.664
2546 0 94.1172 11.6769 1099 77.1729 901.785 487.406
2547 0 95.1182 11.7643 1119 78.5031 902.303 485.391
2548 0 98.1523 11.421 1121 79.6967 901.797 484.323
2549 0 101.154 10.8646 1099 82.6369 901.238 480.56
2550 1 54.0217 10.1256 547 78.5302 901.501 504.644
2551 0 56.0271 10.37 581 77.8296 901.929 505.01
2552 0 57.0606 11.4265 652 77.7577 902.525 503.11
2553 0 59.0338 11.1631 659 81.7375 903.983 503.78
2554 0 61.028 12.1748 743 82.4172 904.162 501.417
2555 0 63.1084 13.1361 829 83.0917 903.206 500.912
2556 0 65.0874 12.9211 841 83.4744 904.466 501.409
2557 0 63.0931 13.0284 822 86.2397 903.81 500.242
2558 0 69.1257 13.1789 911 85.3985 902.889 498.731
2559 0 70.0528 12.8475 900 87.2033 902.94 496.624
2560 0 74.1284 13.1663 976 86.4191 902.515 494.488
2561 0 76.1345 13.4761 1026 86.039 901.82 493.914
2562 0 79.0909 13.5287 1070 87.3234 902.389 492.05
2563 0 80.0988 13.2087 1058 90.4367 902.362 490.836
2564 0 83.0821 13.0353 1083 90.6981 902.665 489.95
2565 0 86.0769 13.5344 1165 89.8644 902.654 486.724
2566 0 88.1129 13.4487 1185 91.3561 902.217 485.946
2567 0 89.0635 13.6532 1216 92.1225 902.617 484.224
2568 0 91.101 13.1832 1201 94.5645 902.163 484.684
2569 0 93.1159 12.6831 1181 96.0703 903.036 484.252
2570 0 98.1137 12.4855 1225 96.2759 902.498 482.211
2571 0 101.102 12.8584 1300 95.5254 902.615 480.643
2572 0 102.076 12.4123 1267 97.5414 902.658 481.598
2573 0 106.197 12.7499 1354 96.9202 903.287 478.865
2574 0 108.133 12.7435 1378 97.3476 903.041 476.67
2575 0 111.137 12.57 1397 96.7545 903.247 476.538
2576 1 57.0203 10.8558 619 98.7981 902.47 498.969
2577 0 59.0976 11.811 698 94.7693 902.362 496.789
2578 0 61.0194 11.7504 717 93.5091 902.338 493.941
2579 0 62.0686 11.8256 734 94.1008 902.418 493.008
2580 0 64.133 12.2246 784 92.7653 902.639 491.536
2581 0 67.1233 12.1865 818 94.2763 903.232 491.746
2582 0 68.1017 12.217 832 93.7139 902.233 489.722
2583 0 69.1017 12.0981 836 94.5478 902.635 487.715
2584 0 73.088 11.9992 877 94.1973 903.099 487.225
2585 0 74.0477 12.5325 928 94.8976 903.286 485.266
2586 0 76.0387 12.9539 985 94.7838 904.041 484.886
2587 0 80.0664 13.189 1056 93.9981 903.753 482.96
2588 0 81.0376 12.8336 1040 94.2567 904.312 481.42
2589 0 83.0324 12.2603 1018 97.8969 903.456 486.697
2590 0 85.0629 12.0029 1021 93.2174 903.169 482.392
2591 0 86.116 11.4497 986 95.2799 903.199 481.704
2592 0 91.0873 12.3947 1129 95.0381 903.107 479.409
2593 0 92.0776 11.512 1060 97.6123 903.184 476.792
2594 0 95.1087 11.8706 1129 96.9575 904.227 475.635
2595 0 98.1487 11.5743 1136 97.6461 903.247 475.211
2596 1 51.0243 10.7008 546 90.5806 903.82 496.579
2597 0 51.0458 10.2065 521 92.9482 903.635 494.862
2598 0 54.0292 10.7719 582 89.9106 904.204 496.101
2599 0 56.0266 9.94171 557 83.2172 902.856 495.959
2600 0 59.0712 10.2419 605 82.6612 903.028 495.957
2601 0 61.0394 10.1082 617 82.9984 902.577 495.57
2602 0 61.052 10.1389 619 83.4911 902.578 491.556
2603 0 65.138 10.7771 702 81.7037 902.687 492.707
2604 0 67.0506 10.0521 674 83.9599 902.795 491.107
2605 0 68.0442 10.2433 697 84.5768 902.397 490.598
2606 0 71.125 10.2355 728 84.3929 902.53 489.997
2607 0 74.1002 11.1201 824 83.6723 903.282 488.334
2608 0 75.1844 11.0661 832 84.6815 901.824 486.606
2609 0 80.1466 11.5164 923 82.8332 902.41 487.136
2610 0 83.1135 11.5505 960 81.7708 902.724 485.558
2611 0 84.0724 11.169 939 83.4952 902.582 483.022
2612 0 87.1712 11.5749 1009 81.7552 902.354 483.449
2613 0 92.1938 12.0182 1108 80.1706 902.338 483.79
2614 0 93.1443 11.1547 1039 83.1347 902.001 480.055
2615 0 97.1402 11.3856 1106 81.1989 902.533 480.203
2616 0 99.0865 12.1005 1199 86.5671 902.715 482.14
2617 0 104.112 12.573 1309 83.9366 902.391 479.564
2618 0 109.177 12.237 1336 83.4401 902.986 476.193
2619 0 114.172 12.4111 1417 87.9111 903.082 472.193
2620 1 61.1105 12.2401 748 80.4452 904.124 501.444
2621 0 63.1289 12.9576 818 79.8056 902.869 500.251
2622 0 66.1984 12.7496 844 79.5438 902.549 498.989
2623 0 68.0444 12.4771 849 80.4499 902.413 497.287
2624 0 70.06 13.1744 923 77.935 902.315 496.336
2625 0 74.1345 12.6797 940 78.0415 902.382 493.084
2626 0 74.1823 12.6985 942 77.8641 902.385 492.544
2627 0 76.0683 11.9892 912 72.7533 902.712 489.607
2628 0 77.0908 11.8043 910 73.6725 902.9 487.812
2629 0 78.0886 11.3717 888 75.0462 902.672 486.565
2630 0 82.1123 12.3368 1013 74.1708 902.646 487.003
2631 0 84.0888 12.7484 1072 74.7239 902.994 483.823
2632 0 88.094 12.2937 1083 77.2198 902.642 481.299
2633 0 89.1149 12.3324 1099 79.1683 903.517 479.824
2634 0 92.1557 12.5874 1160 79.7543 903.13 478.303
2635 0 94.1382 12.7366 1199 80.3011 903.119 478.706
2636 0 97.2051 12.6537 1230 82.7171 903.682 476.391
2637 0 100.281 12.0362 1207 85.7813 903.316 476.108
2638 0 104.238 12.8648 1341 90.7658 903.437 473.848
2639 0 108.104 12.9504 1400 94.9836 902.662 474.941
2640 0 111.191 12.7168 1414 86.6605 903.062 471.32
2641 0 114.175 12.5071 1428 84.9132 902.646 466.323
2642 0 115.256 12.0601 1390 86.5496 902.205 465.173
2643 0 119.171 11.6388 1387 87.8767 902.854 461.565
2644 0 124.103 12.135 1506 86.5239 902.282 463.282
2645 0 128.105 11.7872 1510 87.2503 901.864 462.325
2646 0 131.162 11.825 1551 89.5068 902.077 459.587
2647 0 131.159 11.7796 1545 116.533 902.064 459.432
2648 0 140.212 12.2814 1722 87.9199 902.983 457.224
2649 0 146.092 10.5139 1536 90.6452 902.58 454.139
2650 0 150.182 10.6205 1595 90.4232 902.177 452.562
2651 0 155.125 10.3336 1603 91.2146 902.105 446.114
2652 0 162.257 11.2476 1825 89.1112 902.231 443.076
2653 1 80.143 11.6417 933 79.2776 902.883 487.92
2654 0 83.0797 11.3626 944 79.8443 902.551 488.546
2655 0 87.1035 12.2383 1066 79.7899 901.488 486.527
2656 0 90.0984 11.1212 1002 82.7884 901.762 486.148
2657 0 92.0883 11.8039 1087 82.6385 902.658 482.282
2658 0 96.1002 12.0395 1157 80.6067 903.359 481.418
2659 0 99.0935 12.019 1191 80.7817 902.358 479.534
2660 0 102.046 11.8084 1205 84.8373 902.506 477.486
2661 0 106.076 11.322 1201 84.8734 901.694 477.689
2662 0 108.144 11.7066 1266 84.5758 902.29 476.156
2664 1 44.0168 10.6323 468 77.1902 901.923 509.09
2665 0 45.0135 11.441 515 77.6427 902.132 507.408
2666 0 45.0565 11.4523 516 77.9593 902.343 507.647
2667 0 48.0714 11.3581 546 83.0128 904.484 508.767
2668 0 48.0417 10.9696 527 83.148 904.078 504.017
2669 0 51.0561 12.0064 613 80.8173 903.48 501.62
2670 0 53.1136 11.7672 625 81.2704 902.776 503.136
2671 0 55.1558 12.1111 668 81.8039 904.168 503.024
2672 0 57.1525 11.758 672 82.0818 903.548 501.583
2673 0 58.2139 11.8357 689 82.2453 903.337 501.695
2674 0 60.1529 12.2022 734 82.0436 904.334 500.237
2675 0 61.0972 12.6847 775 80.1884 904.675 499.846
2676 0 63.1373 12.6391 798 81.2744 903.525 497.926
2677 0 62.04 12.3308 765 83.6444 902.426 496.676
2678 0 65.0648 12.6336 822 80.736 902.106 494.659
2679 0 65.0605 10.9129 710 76.6831 902.844 497.186
2680 0 66.02 10.7695 711 76.2982 901.85 494.191
2681 0 68.0641 10.255 698 76.9054 902.014 494
2682 0 71.0514 10.7106 761 74.2602 901.694 494.08
2683 0 73.031 10.4476 763 74.3984 901.536 493.585
2684 0 75.0703 10.0972 758 73.8575 901.387 492.536
2685 0 75.0984 9.7339 731 69.6908 901.996 487.48
2686 0 78.0642 8.95417 699 70.3548 902.721 489.435
2687 1 41.0271 9.55465 392 67.5561 903.495 509.755
2688 0 41.0652 9.57014 393 68.8575 903.377 508.188
2689 0 45.0417 11.4339 515 65.4796 903.699 508.206
2690 0 46.07 11.3523 523 65.1185 903.43 508.476
2691 0 47.0581 11.4114 537 64.352 903.715 509.562
2692 0 48.0493 10.6349 511 69.6869 903.579 509.182
2693 0 49.1209 10.0975 496 70.4214 903.613 508.065
2694 0 50.0494 11.0291 552 69.5833 903.826 507.022
2695 0 51.0466 10.8332 553 69.8698 902.722 506.731
2696 0 53.0558 10.8942 578 69.9273 902.562 507.317
2697 0 54.1025 10.6095 574 71.1098 903.155 504.927
2698 0 57.0473 11.2188 640 70.0797 903.322 505.653
2699 0 56.0577 10.6141 595 71.8639 902.723 503.973
2700 0 58.0967 11.1882 650 71.4308 902.645 504.032
2701 0 60.0881 10.6177 638 72.6144 902.064 501.627
2702 0 60.0358 10.577 635 73.8236 902.364 499.532
2703 0 64.0456 11.726 751 71.8469 902.318 498.245
2704 0 65.1245 11.2093 730 71.7301 902.526 496.507
2705 0 67.0779 11.0767 743 71.1009 902.219 496.576
2706 0 68.1141 10.8201 737 72.943 902.699 493.182
2707 0 71.065 11.3277 805 71.8211 903.23 494.081
2708 0 74.1102 10.9567 812 72.4138 903.505 491.445
2709 0 75.0694 10.7101 804 73.5846 903.501 489.756
2710 0 79.079 11.381 900 72.3789 902.787 488.57
2711 0 81.0597 10.8562 880 75.1023 903.215 487.034
2712 0 82.1117 10.3518 850 75.8824 902.506 484.34
2713 0 84.1 10.2854 865 74.9977 902.993 485.491
2714 0 88.1184 10.293 907 74.2922 903.023 483.541
2715 0 91.1141 9.95455 907 75.9327 901.835 482.31
2716 0 93.1301 9.8894 921 74.9739 901.987 482.213
2717 0 97.1267 10.7077 1040 73.4673 902.673 480.591
2718 0 99.0969 10.3838 1029 75.6152 902.172 477.14
2719 1 53.0543 10.216 542 73.3266 902.474 500.234
2720 0 54.0718 10.8374 586 70.9539 902.152 498.206
2721 0 55.1176 10.7951 595 72.0924 902.133 496.286
2722 0 59.0524 10.9056 644 70.5761 901.896 496.89
2723 0 61.026 10.8478 662 68.9607 901.486 495.378
2724 0 63.0396 11.2945 712 69.2261 901.374 495.131
2725 0 64.0631 11.3014 724 69.1892 902.586 492.622
2726 0 65.0661 10.6046 690 70.6594 903.091 492.601
2727 0 67.0764 11.6285 780 68.8782 903.115 491.772
2728 0 69.043 11.7029 808 68.5619 903.566 489.354
2729 0 69.0627 10.9321 755 70.0212 902.657 488.738
2730 0 72.0779 10.1418 731 72.1094 902.557 488.382
2731 0 73.0923 10.0558 735 71.5959 902.92 485.94
2732 0 75.0553 9.84607 739 72.6076 902.687 484.681
2733 0 79.063 10.1438 802 71.106 902.678 483.532
2734 0 81.0927 10.8148 877 69.9544 902.794 483.162
2735 0 82.0696 10.7226 880 71.4932 902.894 480.701
2736 0 87.0696 10.9912 957 71.1264 902.847 480.786
2737 0 90.0715 10.3806 935 72.1626 902.506 477.704
2738 0 94.0792 10.6187 999 73.1932 902.424 476.309
2739 0 97.124 10.8624 1055 74.5972 902.96 473.954
2740 0 97.1386 10.8711 1056 98.8987 902.962 473.812
2741 0 102.071 10.483 1070 76.6215 903.036 470.385
2742 0 106.083 10.9914 1166 76.4794 902.743 470.35
2743 0 111.062 11.8673 1318 75.5751 902.798 469.454
2744 0 116.084 12.1722 1413 75.9059 903.004 468.05
2745 0 119.081 12.9408 1541 74.4023 903.083 467.632
2746 0 124.067 12.6303 1567 76.4008 904.026 464.274
2747 0 127.09 12.6445 1607 77.3721 903.81 462.302
2748 0 131.094 12.0219 1576 77.3223 903.46 460.853
2749 0 134.122 12.675 1700 77.2876 903.204 459.546
2750 0 142.12 13.3901 1903 76.4414 903.38 458.092
2751 0 146.106 13.1001 1914 75.8114 903.263 454.411
2752 0 150.115 13.2099 1983 75.9032 903.224 452.856
2753 0 156.123 13.342 2083 77.278 902.988 451.393
2754 1 79.0642 11.2567 890 77.6809 903.928 490.622
2755 0 82.0826 11.8539 973 75.7081 903.505 488.357
2756 0 85.065 12.1436 1033 71.3698 903.47 487.686
2757 0 86.072 12.3037 1059 72.8763 903.245 486.434
2758 0 90.0414 11.9945 1080 74.2833 903.461 485.557
2759 0 92.1142 11.5074 1060 77.3151 903.966 485.746
2760 0 94.1003 11.5515 1087 78.2567 903.456 483.684
2761 0 94.1003 11.5834 1090 128.211 903.474 483.828
2762 0 99.113 11.8249 1172 78.5768 903.109 479.007
2763 0 104.069 12.5206 1303 77.4282 903.008 477.834
2764 0 107.106 11.7454 1258 78.5771 903.528 478.077
2765 0 110.163 12.0094 1323 78.6667 903.299 475.034
2766 0 111.131 12.0938 1344 78.872 902.814 474.531
2767 0 117.139 12.6345 1480 77.6392 903.558 472.395
2768 0 120.107 11.6896 1404 80.6873 903.454 470.486
2769 0 122.145 11.822 1444 83.6614 903.547 469.11
2770 0 129.204 12.2751 1586 82.3651 903.794 466.258
2771 0 128.105 11.0925 1421 77.9655 902.251 459.431
2772 0 135.157 11.2166 1516 82.7441 903.182 458.649
2773 0 137.148 11.0392 1514 77.8408 902.203 451.875
2774 1 68.1237 10.8773 741 71.7233 902.472 488.792
2775 0 71.0954 9.95846 708 73.548 902.915 485.869
2776 0 74.0977 10.6346 788 71.6332 902.357 487.431
2777 0 76.0888 11.1317 847 71.4864 902.128 487.131
2778 0 78.1112 10.6131 829 73.2497 902.877 485.521
2779 0 81.1348 11.4008 925 71.8746 903.284 483.651
2780 0 84.0898 10.9764 923 73.5482 902.115 483.166
2781 0 86.0521 10.1915 877 74.3672 902.392 485.814
2782 0 90.0784 12.0118 1082 80.2246 902.816 486.87
2783 0 92.1361 11.5915 1068 81.9878 902.758 487.39
2784 0 97.127 12.5712 1221 80.6208 902.691 484.132
2785 0 98.1264 10.9858 1078 82.8497 903.12 484.568
2786 0 103.087 11.7377 1210 80.6273 903.262 481.502
2787 0 105.07 11.6589 1225 81.9135 902.998 482.284
2788 0 109.065 12.5247 1366 82.265 903.271 479.005
2789 0 112.145 12.4839 1400 87.6093 903.539 474.436
2790 0 116.063 11.9849 1391 87.6398 902.846 473.278
2791 0 119.048 12.1716 1449 88.5245 902.344 470.462
2792 0 122.103 11.9817 1463 88.3295 902.873 470.868
2793 0 125.13 11.6599 1459 88.2269 902.631 467.674
2794 1 64.0755 9.4888 608 79.8651 902.184 493.513
2795 0 67.0446 11.1568 748 77.9278 901.83 490.203
2796 0 71.0616 12.2429 870 82.4885 901.542 491.64
2797 0 74.0584 12.3281 913 83.816 901.798 493.079
2798 0 78.091 12.1397 948 87.0095 901.392 492.411
2799 0 79.1163 11.7169 927 87.1855 901.504 492.864
2800 0 85.1365 13.0379 1110 82.4784 901.905 493.05
2801 0 87.082 13.4815 1174 82.7411 901.492 492.512
2802 0 88.0612 12.6162 1111 86.4185 901.95 490.115
2803 0 91.0476 13.103 1193 84.508 901.924 489.094
2804 0 95.0951 13.2078 1256 84.4363 901.404 486.393
2805 0 98.1257 14.0636 1380 82.3587 901.141 486.029
2806 0 101.1 13.0663 1321 84.7812 901.918 485.054
2807 0 105.08 13.5611 1425 81.9642 903.602 483.274
2808 0 106.179 13.383 1421 81.6101 903.444 482.345
2809 0 111.279 13.2819 1478 80.5995 903.251 480.838
2810 0 112.173 13.1315 1473 81.6477 903.186 479.576
2811 1 63.0465 12.5939 794 80.0428 903.322 501.838
2812 0 66.0818 13.2563 876 75.3402 903.087 501.217
2813 0 66.1064 13.2362 875 76.3703 903.323 500.688
2814 0 70.0711 13.8716 972 73.9218 903.02 500.189
2815 0 71.1341 13.58 966 74.6014 903.153 499.759
2816 0 72.0317 12.6889 914 76.4814 903.315 499.194
2817 0 77.1168 13.5249 1043 73.441 903.001 498.206
2818 0 80.075 14.4365 1156 71.4074 903.287 496.593
2819 0 81.1029 13.7726 1117 73.4306 902.103 494.78
2820 0 81.0735 12.4085 1006 78.3231 902.876 496.863
2821 0 82.0395 13.0913 1074 77.5661 902.301 495.35
2822 0 86.1326 13.4676 1160 76.4121 902.225 491.101
2823 0 86.0725 12.2571 1055 79.2057 902.126 491.506
2824 0 92.1139 13.201 1216 74.5674 901.76 488.942
2825 0 92.0669 12.089 1113 76.9587 902.614 488.209
2826 0 96.1093 12.4025 1192 77.6669 901.999 486.813
2827 0 99.1361 12.6493 1254 77.4123 901.353 485.613
2828 1 47.0503 12.0509 567 71.6614 901.862 506.27
2829 0 49.0225 11.9537 586 76.8737 902.297 504.154
2830 0 49.0454 12.4782 612 77.1471 902.078 501.716
2831 0 50.0505 12.1677 609 69.422 903.02 503.619
2832 0 53.0191 12.1088 642 69.1355 902.083 503.385
2833 0 53.0264 12.4655 661 68.885 901.657 503.865
2834 0 53.0569 12.0625 640 72.0203 901.647 503.794
2835 0 56.0203 12.3527 692 70.3815 901.689 502.948
2836 0 58.0308 12.39 719 70.2253 901.701 501.643
2837 0 59.0391 11.8566 700 71.7014 901.75 501.54
2838 0 63.0438 13.2289 834 78.1607 902.011 505.014
2839 0 64.0975 13.339 855 78.3322 901.909 503.34
2840 0 68.0877 13.6295 928 76.3006 902.406 502.016
2841 0 70.144 13.6291 956 77.1496 902.118 499.771
2842 0 71.1288 13.6794 973 76.6824 901.491 500.191
2843 0 74.0875 13.538 1003 76.0538 901.942 496.758
2844 0 74.0657 13.5285 1002 77.1248 901.849 496.096
2845 0 78.0338 13.507 1054 76.6186 901.864 492.716
2846 0 79.0739 13.5822 1074 76.7952 902.191 493.921
2847 0 81.0791 13.3943 1086 78.3812 901.728 491.624
2848 0 85.0451 13.6281 1159 77.1303 901.541 490.849
2849 0 87.0656 13.2544 1154 78.1152 901.716 489.151
2850 0 90.0514 13.3479 1202 78.2304 902.594 484.7
2851 0 92.0649 13.6969 1261 77.9144 901.684 484.809
2852 0 94.1155 13.7066 1290 78.1016 901.86 484.003
2853 0 96.0819 13.5614 1303 77.221 902.072 482.079
2854 0 99.0625 13.3451 1322 78.4296 902.295 479.323
2855 0 102.079 12.941 1321 79.5481 901.829 478.214
2856 0 109.118 14.1682 1546 75.0052 901.861 475.275
2857 0 110.114 13.9583 1537 74.7612 902.137 472.82
2858 0 117.06 13.6426 1597 74.9706 902.192 470.941
2859 1 57.0762 12.422 709 77.0917 903.536 501.353
2860 0 58.0331 12.8892 748 79.3249 903.972 501.164
2861 0 62.0354 12.9926 806 77.8412 903.873 501.175
2862 0 65.0804 14.2439 927 76.0022 903.192 501.029
2863 0 65.0693 13.0784 851 80.4877 903.811 500.502
2864 0 68.0539 13.9595 950 80.1705 903.068 499.253
2865 0 69.0548 13.54 935 80.2128 903.231 498.38
2866 0 71.069 14.1553 1006 78.9722 902.146 496.114
2867 0 74.0287 13.7109 1015 79.4256 902.547 494.279
2868 0 77.0679 13.1962 1017 81.1013 903.333 494.056
2869 0 79.1521 13.4677 1066 81.0356 903.021 491.345
2870 0 82.096 13.472 1106 81.9964 902.875 490.868
2871 0 84.0561 13.61 1144 82.1311 903.059 488.58
2872 0 85.1283 14.0259 1194 82.5737 902.502 486.432
2873 0 88.0952 13.7351 1210 83.3653 903.314 486.972
2874 0 89.1668 13.4467 1199 85.9508 903.45 485.639
2875 0 93.0591 13.9266 1296 86.3928 903.335 483.579
2876 0 96.1356 14.1259 1358 87.6451 902.307 482.328
2877 0 99.1362 13.8093 1369 89.7297 902.69 479.341
2878 0 100.066 13.571 1358 89.3512 902.229 476.955
2879 0 104.113 14.0329 1461 92.6064 901.719 475.1
2880 0 108.131 14.279 1544 93.9132 901.714 473.218
2881 0 110.139 13.4466 1481 96.8542 902.222 471.807
2882 0 114.108 13.9868 1596 96.1347 901.739 469.284
2883 0 117.142 13.8465 1622 98.7867 902.007 468.526
2884 1 58.0129 11.9284 692 97.3916 902.477 497.864
2885 0 58.0454 11.9562 694 101.641 902.004 495.081
2886 0 67.0309 12.4868 837 102.395 901.352 501.171
2887 0 67.0299 12.845 861 103.973 902.225 501.498
2888 0 69.0991 12.6196 872 107.565 902.03 499.46
2889 0 70.0655 12.9736 909 107.936 901.734 497.295
2890 0 73.0914 13.0111 951 108.588 901.589 496.243
2891 0 74.0584 13.2733 983 110.311 901.897 496.333
2892 0 76.0581 13.4502 1023 103.58 901.823 492.233
2893 0 77.1883 13.344 1030 113.078 901.718 492.573
2894 0 79.0954 13.8693 1097 115.972 901.319 490.342
2895 0 77.1034 13.242 1021 124.58 901.96 489.828
2896 0 80.0612 13.1899 1056 114.143 901.705 490.63
2897 0 80.0452 13.1426 1052 118.736 901.449 490.197
2898 0 82.0685 13.1719 1081 119.973 901.341 490.414
2899 0 82.1088 13.1533 1080 120.905 901.769 489.525
2900 0 86.1679 14.1816 1222 114.227 902.079 489.239
2901 0 87.1844 13.8213 1205 113.54 902.629 487.676
2902 0 89.0466 13.813 1230 112.544 902.165 485.402
2903 0 93.1792 13.2326 1233 111.677 901.676 484.574
2904 0 96.0957 14.0277 1348 107.346 901.671 483.345
2905 0 98.0584 13.5226 1326 108.687 901.921 482.105
2906 0 99.0846 13.1807 1306 109.074 901.472 481.366
2907 0 102.106 13.0746 1335 108.654 901.548 479.996
2908 0 104.044 13.081 1361 110.084 901.295 479.182
2909 0 108.074 13.1391 1420 106.087 901.532 478.866
2910 0 110.147 13.4638 1483 107.57 902.702 477.105
2911 0 111.157 13.2156 1469 111.004 901.509 474.912
2912 0 113.078 13.2917 1503 113.936 901.891 472.642
2913 0 116.173 13.5315 1572 113.926 902.099 472.412
2914 0 116.173 12.7741 1484 117.821 902.28 471.898
2915 0 118.127 12.8505 1518 118.144 901.661 470.397
2916 0 122.208 13.2724 1622 116.486 902.009 469.059
2917 0 124.141 12.808 1590 116.253 901.613 467.213
2918 0 127.216 12.6163 1605 115.593 901.452 466.946
2919 0 129.252 12.7735 1651 117.536 901.656 464.796
2920 0 131.234 13.0073 1707 116.749 902.301 463.595
2921 0 134.201 12.7421 1710 116.304 901.849 460.814
2922 0 138.15 13.0366 1801 115.458 902.602 460.235
2923 0 141.156 12.8369 1812 115.598 901.918 458.847
2924 0 142.267 12.4906 1777 119.404 901.775 457.891
2925 0 144.199 13.1069 1890 121.847 902.811 456.503
2926 0 150.255 12.4322 1868 124.729 902.338 454.366
2927 0 154.222 12.5339 1933 124.503 902.023 453.049
2928 0 156.168 13.1589 2055 123.573 902.16 449.865
2929 0 160.18 12.5921 2017 128.772 902.186 449.32
2930 0 163.219 12.2596 2001 130.608 901.931 446.749
2931 0 169.23 12.9351 2189 130.016 901.546 445.448
2932 0 170.156 12.8353 2184 132.429 901.739 442.67
2933 0 177.182 12.6819 2247 132.012 901.835 442.189
2934 0 179.167 12.72 2279 132.707 902.541 438.842
2935 0 186.226 13.0702 2434 131.46 901.767 436.133
2936 0 190.12 13.3547 2539 130.509 902.146 434.454
2937 0 195.154 13.5021 2635 130.858 902.133 432.724
2938 0 200.144 13.3004 2662 130.745 902.281 430.364
2939 0 205.115 12.8562 2637 132.281 901.951 426.722
2940 0 209.157 13.0572 2731 131.08 901.707 422.412
2941 0 220.205 13.0787 2880 129.958 901.944 421.493
2942 0 226.214 13.0098 2943 129.659 901.751 417.525
2943 0 233.31 12.4941 2915 131.94 901.792 416.554
2944 0 240.186 12.482 2998 130.787 901.706 413.944
2945 0 249.253 13.6327 3398 125.247 901.417 411.054
2946 0 254.292 13.3665 3399 126.68 902.055 400.761
2947 0 261.309 13.4133 3505 126.189 902.033 402.874
2948 0 268.327 13.6997 3676 124.632 902.115 397.864
2949 0 275.225 13.687 3767 123.843 901.905 395.351
2950 0 283.239 13.6104 3855 125.113 902 388.429
2951 0 289.267 13.5377 3916 124.972 902.238 383.904
2952 0 299.377 14.4466 4325 121.752 902.472 376.341
2953 1 315.251 20.2505 6384 100.662 902.53 352.916
2954 0 318.284 17.0414 5424 114.716 901.767 359.115
2955 0 322.318 13.8807 4474 125.009 902.027 366.125
2956 0 331.314 13.8117 4576 123.358 901.173 366.031
2957 0 338.406 13.5577 4588 126.554 901.438 360.786
2958 0 347.353 15.4742 5375 119.623 901.727 353.411
2959 0 356.298 15.3692 5476 116.89 901.742 344.204
2960 0 361.352 15.6883 5669 117.297 900.749 342.833
2961 0 372.398 16.3669 6095 114.251 901.188 339.583
2962 0 381.403 16.6858 6364 112.047 901.618 337.008
2963 0 390.449 16.248 6344 112.471 902.275 330.527
2964 0 399.624 15.7899 6310 113.781 901.554 327.617
2965 0 410.723 16.1569 6636 112.391 901.36 319.508
2966 0 416.456 15.4254 6424 116.75 901.689 309.182
2967 0 423.493 16.4749 6977 112.583 901.61 303.166
2968 0 423.447 16.0256 6786 114.064 901.646 302.881
2969 0 423.434 16.5457 7006 112.647 901.643 302.143
