time division length width area intensity CMx CMy
0 0 55.0343 14.1366 778 117.915 1138.35 497.842
1 0 55.0414 14.8434 817 119.439 1138.96 496.874
2 0 56.0207 14.9766 839 120.946 1138.67 497.131
3 0 57.1111 15.2335 870 120.523 1138.42 496.172
4 0 60.0392 15.1401 909 116.743 1139.06 496.611
5 0 63.0707 15.7918 996 112.212 1138.94 496.217
6 0 65.0156 15.1963 988 113.922 1138.65 495.408
7 0 65.135 15.2913 996 114.981 1139.01 494.259
8 0 67.0602 15.4488 1036 114.216 1139.22 493.312
9 0 70.0427 15.0194 1052 114.746 1138.94 493.081
10 0 73.0501 16.0712 1174 110.096 1137.84 490.855
11 0 74.0528 15.2189 1127 112.132 1138.7 490.626
12 0 74.0528 15.2189 1127 161.405 1139.7 490.64
13 0 78.0256 15.1104 1179 110.939 1137.37 488.534
14 0 81.0298 15.8954 1288 108.83 1137.95 486.259
15 0 83.105 16.052 1334 107.368 1137.54 485.448
16 0 86.0928 15.5995 1343 107.475 1138.36 485.591
17 0 86.0544 15.6529 1347 108.114 1137.52 483.241
18 0 92.0547 15.9145 1465 104.274 1138.08 483.014
19 1 45.052 13.8285 623 109.18 1137.34 504.212
20 0 47.054 13.7077 645 109.093 1137.13 502.904
21 0 48.0429 13.8002 663 107.887 1136.27 501.753
22 0 50.0605 14.5824 730 104.475 1137.08 500.949
23 0 52.0352 14.4902 754 105.046 1136.9 501.16
24 0 54.0269 14.1781 766 106.593 1136.86 501.405
25 0 54.0251 14.8264 801 104.89 1137.04 500.027
26 0 58.019 14.9262 866 103.355 1136.82 499.934
27 0 60.0523 15.3033 919 102.513 1136.74 498.614
28 0 62.0262 14.6228 907 103.031 1136.85 499.492
29 0 64.0632 15.032 963 103.196 1136.29 498.139
30 0 66.1183 14.7765 977 104.264 1136.82 498.139
31 0 67.1348 14.8805 999 104.844 1136.77 496.521
32 0 70.048 15.0183 1052 104.005 1135.92 497.055
33 0 71.0788 15.4899 1101 103.505 1136.11 495.969
34 0 74.095 15.4936 1148 103.03 1135.97 494.16
35 0 78.0583 15.3731 1200 102.595 1136.43 494.06
36 0 80.0202 15.7085 1257 103.298 1135.38 490.723
37 0 81.0358 15.6474 1268 105.315 1135.91 489.394
38 0 84.0173 15.2469 1281 106.461 1135.65 486.741
39 0 87.0599 15.2653 1329 106.745 1136.03 485.665
40 0 90.062 15.4116 1388 106.523 1135.99 484.174
41 0 92.1371 15.3901 1418 105.869 1135.61 482.625
42 0 97.047 16.0438 1557 101.706 1135.68 481.349
43 0 102.257 15.8913 1625 100.111 1135.25 478.636
44 0 103.058 15.6707 1615 100.805 1135.13 476.63
45 0 108.15 15.5525 1682 100.256 1135.29 474.508
46 0 115.159 15.8911 1830 97.3699 1135.15 471.93
47 0 118.144 15.4134 1821 98.9511 1135.24 467.997
48 0 121.097 14.9137 1806 98.6196 1135.61 469.078
49 1 64.1013 13.3695 857 96.0677 1136.37 497.093
50 0 69.0581 13.8579 957 97.3647 1135.59 494.862
51 0 69.0666 14.0299 969 99.4881 1136.02 495.426
52 0 69.0666 13.9865 966 168.174 1137.01 495.411
53 0 76.1027 13.7052 1043 100.096 1135.46 492.139
54 0 77.0784 13.5965 1048 99.8521 1135.51 490.016
55 0 79.0971 13.8817 1098 99.1029 1136.02 488.22
56 0 83.1608 13.6122 1132 98.629 1135.93 486.069
57 0 86.1568 13.8004 1189 97.6207 1135.77 484.959
58 0 90.0916 13.6417 1229 97.0228 1136.17 483.056
59 0 93.1262 13.7126 1277 96.3594 1136.18 480.979
60 0 95.1176 13.4991 1284 96.3427 1135.57 480.101
61 0 100.101 13.4065 1342 96.506 1135.88 477.845
62 1 52.1071 12.0137 626 94.8067 1137.01 501.083
63 0 55.0935 12.1793 671 92.7243 1136.43 501.201
64 0 57.0496 12.2875 701 92.9986 1136.73 501.312
65 0 59.0931 12.9457 765 92.7425 1136.32 499.974
66 0 61.0555 13.1192 801 93.5943 1136.26 498.256
67 0 63.0355 13.5321 853 96.231 1135.74 497.642
68 0 62.0524 12.3928 769 91.1287 1135.65 497.553
69 0 64.1112 13.0866 839 88.9797 1135.77 497.669
70 0 66.0555 12.1867 805 90.3776 1136.34 496.24
71 0 69.0996 12.605 871 89.4558 1136.31 494.948
72 0 72.2204 12.9188 933 87.6195 1136 492.866
73 0 76.0808 12.8548 978 87.9908 1136.24 491.666
74 0 78.0703 12.8218 1001 87.8482 1136.21 490.478
75 0 83.1014 12.948 1076 87.1933 1136.33 489.784
76 0 86.1176 13.4583 1159 86.4754 1136.23 487.881
77 0 87.0474 12.7747 1112 90.2761 1135.7 485.814
78 0 90.1847 13.173 1188 89.1498 1136.22 485.06
79 0 96.1759 13.0906 1259 89.5218 1135.33 483.006
80 0 96.1126 12.7871 1229 91.6436 1136.43 481.665
81 0 100.138 13.0221 1304 91.885 1136.71 479.321
82 0 102.138 12.581 1285 91.7665 1136.39 478.765
83 0 107.211 12.9837 1392 90.209 1136.18 476.331
84 0 111.132 13.1915 1466 91.1289 1136.32 473.829
85 0 117.128 13.0712 1531 90.6519 1136.33 471.244
86 0 119.237 13.536 1614 90.1698 1136.1 468.617
87 1 66.0619 11.4589 757 89.9194 1137.03 492.565
88 0 69.1005 12.1996 843 90.0403 1137.12 491.87
89 0 70.0418 12.7067 890 88.773 1136.66 489.853
90 0 73.1117 13.3768 978 86.6922 1136.67 488.308
91 0 73.0881 12.5465 917 84.5682 1136.28 489.74
92 0 77.1373 13.2102 1019 83.2895 1136.57 489.273
93 0 79.1209 13.3467 1056 83.7017 1135.88 487.389
94 0 81.1554 13.0737 1061 84.6051 1136.61 485.756
95 0 82.0967 12.7654 1048 86.2128 1135.65 483.428
96 0 87.1367 13.2206 1152 84.5408 1135.94 481.898
97 0 88.0483 13.061 1150 85.3487 1135.04 483.25
98 0 93.1141 13.1881 1228 85.3591 1135.84 481.695
99 0 94.1794 13.177 1241 86.7728 1135.23 478.983
100 0 98.2106 13.8885 1364 84.7515 1135.63 479.674
101 0 99.138 12.6793 1257 91.2944 1135.94 477.184
102 0 106.075 13.5188 1434 88.1339 1135.22 475.808
103 0 107.147 13.1781 1412 89.716 1135.4 473.368
104 0 112.112 13.2279 1483 88.091 1135.82 471.73
105 0 114.131 13.353 1524 87.2625 1135.95 469.333
106 0 117.179 13.313 1560 88.6731 1135.78 465.23
107 1 62.0414 11.8308 734 89.8106 1135.72 491.424
108 0 67.0556 12.4971 838 87.1062 1136.22 491.482
109 0 68.0449 13.0208 886 86.3781 1135.96 488.569
110 0 72.0643 13.0855 943 85.141 1135.81 489.566
111 0 69.0471 11.7456 811 86.6079 1136.54 487.89
112 0 72.0533 11.7691 848 85.6014 1135.97 489.034
113 0 76.0431 12.2299 930 83.7161 1135.63 488.572
114 0 78.0548 11.761 918 85.4412 1136.01 488.106
115 0 82.0504 12.797 1050 83.6476 1135.64 484.872
116 0 84.0289 12.4719 1048 84.2376 1135.86 483.585
117 0 85.0377 12.2181 1039 83.616 1135.4 481.678
118 0 87.0582 12.371 1077 85.6778 1135.34 481.018
119 0 92.0661 13.0232 1199 83.5997 1136.37 477.523
120 0 94.1057 12.8048 1205 84.4423 1135.52 474.951
121 0 96.1013 13.1424 1263 83.4418 1135.33 473.58
122 0 99.1986 12.9639 1286 83.1415 1135.66 471.175
123 0 103.135 13.2448 1366 83.0652 1135.75 467.668
124 1 52.0441 10.8754 566 86.1696 1136.75 495.708
125 0 54.0706 12.0398 651 85.5914 1135.8 495.258
126 0 58.0534 11.7823 684 85.1886 1135.57 494.958
127 0 59.0238 12.2662 724 85.2597 1135.65 493.899
128 0 61.1741 11.7533 719 88.3394 1135.96 492.679
129 0 63.1541 12.3507 780 87.4744 1135.47 492.024
130 0 66.1694 12.4982 827 86.7533 1135.26 489.971
131 0 67.2208 12.9275 869 85.5063 1134.98 488.834
132 0 69.1631 12.8826 891 86.3356 1135.1 488.246
133 0 72.0825 13.7481 991 82.9859 1135.09 487.296
134 0 72.1787 12.8154 925 86.347 1135.4 486.824
135 0 75.1187 12.7265 956 84.3598 1135.39 484.81
136 0 79.0704 13.3552 1056 82.1932 1135.3 483.213
137 0 81.0806 12.4444 1009 82.781 1134.65 482.176
138 0 81.1276 12.4865 1013 83.9418 1133.78 480.677
139 0 85.1942 12.7591 1087 84.1012 1134.07 479.728
140 0 86.054 12.4573 1072 85.6325 1133.94 477.948
141 1 43.0203 9.76284 420 82.0452 1133.03 500.386
142 0 45.0601 10.0754 454 82.3568 1133.57 501.714
143 0 47.0584 10.6251 500 80.574 1133.47 501.048
144 0 49.0348 10.5028 515 82.5437 1135.12 501.266
145 0 49.0308 11.2786 553 81.8246 1134.99 502.579
146 0 51.0194 11.7014 597 79.5059 1135.34 504.997
147 0 52.0223 11.7642 612 80.3333 1134.69 504.325
148 0 53.0266 12.0128 637 81.5118 1134.29 504.772
149 0 53.0235 11.9381 633 82.6825 1135.05 501.956
150 0 56.0219 11.8704 665 83.0737 1134.84 501.024
151 0 58.0323 12.4413 722 80.7729 1134.54 501.799
152 0 61.0344 12.8125 782 79.5818 1134.35 499.958
153 0 62.0553 12.7628 792 80.5556 1134.24 500
154 0 63.0293 12.4387 784 81.6429 1133.87 499.237
155 0 64.0433 12.1949 781 83.0064 1134.48 498.178
156 0 67.0402 11.5751 776 86.1443 1134.02 497.584
157 0 69.0221 12.5177 864 84.5301 1134.07 495.212
158 0 69.0534 11.8459 818 87.989 1134.2 494.381
159 0 73.0497 12.0603 881 86.5437 1133.58 492.563
160 0 75.0401 11.7004 878 90.3554 1133.92 492.565
161 0 76.0732 12.4354 946 89.8414 1134.14 489.748
162 0 79.0348 12.0706 954 90.2243 1134.13 490.706
163 1 44.0095 10.7704 474 88.5274 1134.26 507.738
164 0 47.0202 11.4419 538 87.8996 1134.99 507.719
165 0 48.0182 11.8497 569 87.0685 1134.96 506.337
166 0 48.0324 11.8254 568 88.5282 1135.07 505.437
167 0 45.0242 11.0829 499 84.3447 1133.88 507.541
168 0 46.049 10.4888 483 86.942 1134.44 505.797
169 0 48.034 11.7209 563 84.3037 1134.69 505.877
170 0 48.0405 10.4912 504 87.1091 1134.64 505.427
171 0 50.0275 11.3138 566 84.735 1135.24 504.687
172 0 50.0265 10.7143 536 83.2127 1134.97 503.759
173 0 51.0281 10.7784 550 83.8236 1135.42 503.431
174 0 54.0378 11.1033 600 82.9183 1134.66 502.597
175 0 54.0227 11.162 603 83.7131 1133.86 503.285
176 0 55.0259 11.431 629 84.2337 1134.78 503.3
177 0 57.047 10.9208 623 85.1974 1134.11 502.823
178 0 60.066 12.3364 741 81.1174 1134.49 500.256
179 0 61.0504 11.7608 718 81.9039 1134.83 499.98
180 0 64.0705 11.581 742 81.8504 1135.37 498.867
181 0 64.0338 11.6345 745 81.7275 1135.29 499.468
182 0 68.0607 11.4897 782 84.2967 1135.22 498.28
183 0 70.0848 11.4147 800 85.5175 1134.82 495.884
184 0 71.0796 11.7615 836 85.8074 1134.83 494.553
185 0 74.0589 11.7744 872 86.1548 1134.75 494.354
186 0 77.0764 11.3913 878 87.3861 1135.03 493.795
187 1 44.0283 11.6062 511 85.7436 1134.92 508.528
188 0 45.0162 11.6847 526 89.0532 1135.69 507.76
189 0 46.0211 12.277 565 87.8885 1136.48 506.081
190 0 46.0184 11.7127 539 89.6067 1137.13 505.889
191 0 45.0752 10.9595 494 82.166 1135.06 507.759
192 0 44.0176 11.2228 494 82.6437 1134.93 508.502
193 0 45.0328 11.1696 503 83.6262 1133.75 507.575
194 0 46.0491 10.9014 502 83.3247 1133.82 506.578
195 0 49.0602 11.1903 549 82.1512 1134.15 507.348
196 0 49.0398 10.8687 533 83.0356 1133.82 507.008
197 0 50.0173 10.7563 538 82.3197 1133.77 505.688
198 0 52.0304 11.7239 610 78.8639 1134.19 505.021
199 0 54.0352 10.5487 570 81.0842 1133.73 505.177
200 0 56.0292 11.1192 623 79.8636 1133.8 503.791
201 0 55.0357 11.2654 620 79.929 1134.11 503.792
202 0 58.0343 10.58 614 102.153 1134.11 502.349
203 0 60.0111 11.2646 676 101.954 1133.63 501.663
204 0 62.0194 10.9804 681 101.304 1133.67 501.634
205 0 62.0617 11.0213 684 102.134 1134.17 501.857
206 0 62.061 10.8603 674 132.579 1135.16 501.933
207 0 67.0307 11.6961 784 102.421 1133.99 498.312
208 0 69.0983 11.3027 781 102.798 1134.72 498.996
209 0 70.0805 11.6152 814 103.414 1133.51 496.5
210 0 72.0836 11.3341 817 103.195 1134.43 495.348
211 0 74.0407 11.5072 852 102.184 1133.73 495.325
212 0 75.0952 11.5853 870 101.424 1133.74 495.074
213 0 78.0694 11.2976 882 102.718 1133.91 493.451
214 0 81.105 11.4543 929 100.368 1133.93 493.98
215 0 83.151 11.3408 943 101.173 1134.09 490.701
216 0 85.2108 12.3693 1054 100.266 1134.08 490.816
217 0 87.1084 12.1458 1058 100.486 1134.19 488.24
218 0 90.0645 12.3245 1110 98.9468 1134.12 487.462
219 0 93.0952 12.267 1142 99.169 1133.79 485.699
220 0 96.164 11.8443 1139 99.3161 1133.1 485.137
221 1 53.0133 12.2234 648 94.233 1133.61 505.332
222 0 55.0698 12.0938 666 96.7808 1133.94 503.808
223 0 57.083 12.403 708 102.736 1134.45 503.449
224 0 53.0962 10.8859 578 95.5571 1134.47 505.196
225 0 57.1049 11.2074 640 95.7172 1134.29 503.647
226 0 57.0838 10.9313 624 96.2436 1133.77 501.877
227 0 60.1218 11.6929 703 92.643 1133.93 501.229
228 0 62.1002 11.2238 697 94.0961 1133.86 500.164
229 0 62.0814 10.8406 673 96.8395 1133.68 499.009
230 0 65.1663 11.2021 730 96.037 1134.47 499.23
231 0 68.1244 10.1579 692 99.1272 1133.45 499.118
232 0 70.0764 10.5742 741 99.278 1133.66 498.266
233 0 73.0745 10.4961 767 101.053 1133.61 495.864
234 0 75.1585 9.83256 739 100.877 1133.55 494.773
235 1 41.0077 10.6078 435 98.6322 1134.32 509.418
236 0 43.0165 10.3914 447 98.9374 1134.19 508.996
237 0 45.0098 10.3533 466 100.3 1134.05 507.564
238 0 46.0257 11.4501 527 98.74 1133.68 506.932
239 0 44.0278 9.63029 424 97.5826 1133.54 507.934
240 0 46.0719 10.2666 473 95.6237 1133.34 508.334
241 0 46.0277 9.36392 431 97.6195 1133.58 507.158
242 0 50.0874 10.7412 538 93.5446 1133.01 505.349
243 0 51.0371 10.0123 511 95.0215 1132.85 505.344
244 0 52.0762 10.139 528 95.3011 1132.91 504.091
245 0 54.0786 10.4108 563 95 1133.33 503.458
246 0 55.0386 10.4654 576 95.2795 1133.28 502.417
247 0 55.0386 10.4472 575 121.184 1133.28 502.525
248 0 60.0896 10.1182 608 94.3092 1133.25 501.771
249 0 62.1035 11.1427 692 92.5014 1133.09 500.017
250 0 62.0741 10.1331 629 93.434 1133.74 500.474
251 0 67.0499 11.305 758 91.0488 1133.96 498.639
252 0 70.0263 11.4386 801 86.7803 1133.86 498.422
253 0 72.0489 11.7559 847 83.4947 1132.72 497.534
254 0 72.0224 11.2465 810 85.6716 1133.33 494.989
255 0 76.0751 11.5544 879 85.7952 1133.46 495.076
256 0 78.0827 10.6426 831 88.5596 1133.19 496.807
257 1 41.0285 10.8949 447 88.8121 1133.31 510.635
258 0 43.0418 11.6166 500 85.36 1133.61 509.962
259 0 45.0518 11.853 534 87.1685 1133.64 509.253
260 0 47.084 11.9998 565 89.4566 1133.15 507.632
261 0 44.0506 10.0339 442 91.4774 1134.11 510.262
262 0 43.0849 10.8623 468 91.1282 1134.1 509.051
263 0 45.0478 9.74521 439 93.2346 1134 508.692
264 0 48.0857 11.2715 542 90.0406 1133.62 507.245
265 0 48.0373 10.4086 500 92.86 1133.74 506.23
266 0 52.0699 10.2939 536 91.7948 1133.51 505.892
267 0 52.0988 10.5569 550 91.2509 1133.37 506.369
268 0 53.0735 11.2674 598 90.7241 1133.65 504.828
269 0 56.0773 11.5555 648 90.6049 1132.75 503.082
270 0 57.0581 11.2517 642 91.3193 1132.91 503.431
271 0 57.0777 11.3004 645 91.5442 1132.68 502.836
272 0 62.1068 11.9633 743 87.2759 1132.95 500.848
273 0 62.0511 11.5872 719 89.5925 1132.83 499.619
274 0 65.0889 11.3691 740 88.427 1132.99 499.419
275 0 66.0429 11.2654 744 89.0228 1132.97 499.051
276 0 68.0851 11.6766 795 90.9031 1132.78 497.308
277 0 71.113 11.7559 836 90.549 1132.93 495.864
278 0 74.089 11.3512 841 90.6409 1133.18 494.41
279 0 77.0487 11.2267 865 87.0682 1133.1 492.546
280 0 78.1345 10.7763 842 90.4727 1133.61 492.315
281 1 39.0214 11.0965 433 91.7783 1134.04 509.718
282 0 39.06 11.3415 443 91.6479 1133.71 510.677
283 0 44.0433 11.1027 489 90.0389 1133.66 509.998
284 0 44.0267 11.8337 521 87.0806 1133.81 509.194
285 0 42.0438 11.7496 494 88.915 1133.92 509.842
286 0 45.1047 11.3514 512 88.7285 1133.89 510.461
287 0 44.0915 10.7957 476 92.666 1133.76 510.015
288 0 46.0128 12.0836 556 90.0558 1132.74 509.183
289 0 46.0681 11.6132 535 92.7626 1132.93 507.621
290 0 48.0599 11.7562 565 93.7292 1133.17 505.804
291 0 49.0576 11.9655 587 93.6576 1133.16 506.538
292 0 51.0427 12.323 629 91.0906 1132.91 504.677
293 0 54.0737 11.9282 645 90.8698 1133.49 504.74
294 0 54.0598 11.6908 632 92.3117 1132.94 502.71
295 0 57.0846 11.3866 650 92.9431 1132.52 503.003
296 0 60.1039 11.7962 709 92.1552 1132.38 502.186
297 0 60.1096 11.4291 687 94.2591 1132.06 501.801
298 0 63.043 12.5153 789 91.5501 1132.92 499.184
299 0 65.0501 12.2828 799 92.6433 1132.65 499.284
300 0 67.0542 12.1842 817 93.1224 1132.01 498.157
301 0 71.0904 11.83 841 93.1653 1132.51 496.036
302 0 73.0515 12.4296 908 91.3051 1132.54 494.662
303 0 75.0515 12.3116 924 91.2013 1132.74 494.045
304 1 36.0453 11.4301 412 94.8544 1133.69 511.689
305 0 39.0332 12.2204 477 91.3228 1133.59 511.18
306 0 41.0196 12.0674 495 93.396 1133.47 509.907
307 0 38.0062 11.3139 430 86.2186 1132.96 512.772
308 0 39.0608 11.4437 447 85.3199 1133.13 513.331
309 0 40.0792 11.6769 468 85.297 1132.56 512.246
310 0 42.0262 11.2549 473 85.5011 1132.9 512.008
311 0 44.0223 11.267 496 85.9879 1133.8 511.109
312 0 44.0686 11.6183 512 87.1055 1133.16 510.762
313 0 45.0248 11.5492 520 87.5558 1132.95 510.037
314 0 47.0262 12.2272 575 86.5235 1133.15 509.612
315 0 50.0429 12.809 641 85.3635 1132.85 509.087
316 0 49.0406 11.5618 567 89.642 1133.13 508.892
317 0 52.0257 11.9556 622 87.7604 1133.2 508.175
318 0 56.0376 12.902 723 84.8188 1132.7 507.138
319 0 56.0345 12.6172 707 88.1231 1132.57 506.166
320 0 58.0287 11.9079 691 88.4732 1132.98 506.353
321 0 59.0509 12.4808 737 87.4396 1133.4 505.649
322 0 62.0796 12.6451 785 87.7745 1132.74 502.962
323 0 63.0318 13.0569 823 88.4787 1132.65 502.981
324 0 64.0311 12.4783 799 151.367 1132.64 503.672
325 0 66.0383 12.1596 803 90.2752 1132 501.899
326 0 70.1284 12.9477 908 88.3139 1131.87 500.562
327 0 72.0468 12.2559 883 90.4054 1132.03 500.527
328 0 76.0374 12.5991 958 89.1169 1131.63 499.117
329 0 78.0518 12.9273 1009 88.1685 1131.84 497.436
330 0 80.1114 12.1955 977 90.0972 1132.09 497.044
331 0 83.1282 11.8492 985 92.7634 1132.12 496.234
332 0 87.0681 12.5764 1095 91.0868 1131.46 493.324
333 0 89.1444 13.0462 1163 91.1599 1131.56 490.107
334 1 48.0295 11.6179 558 94.7563 1131.74 510.131
335 0 50.0966 12.7953 641 96.9345 1131.53 509.115
336 0 52.0673 12.8295 668 97.7754 1131.85 507.174
337 0 51.0821 12.1765 622 88.9437 1131.46 510.17
338 0 52.0605 12.5239 652 88.8006 1131.28 508.025
339 0 54.0534 11.6736 631 90.3629 1131.13 508.78
340 0 57.1061 11.6975 668 90.5674 1130.84 506.829
341 0 59.0866 11.7962 697 91.4433 1130.88 506.4
342 0 60.0909 12.531 753 90.6401 1130.84 504.822
343 0 60.0423 12.308 739 92.1028 1130.27 504.306
344 0 62.0753 12.4365 772 93.1749 1129.96 503.543
345 0 64.0588 11.8329 758 93.6412 1129.58 502.735
346 0 68.0572 12.3426 840 91.9071 1129.37 501.432
347 0 69.0534 12.179 841 91.8656 1129.41 500.804
348 0 71.0296 12.0232 854 92.5539 1128.77 498.471
349 0 72.058 11.2271 809 94.4697 1129.28 498.899
350 0 75.0787 11.801 886 91.6287 1129.97 498.483
351 0 81.056 11.93 967 90.3485 1129.29 496.216
352 0 81.0428 11.5988 940 90.5957 1128.94 496.529
353 0 81.1003 12.1331 984 90.4329 1129.13 494.459
354 0 88.1109 12.6545 1115 88.8834 1128.97 490.236
355 0 89.1402 12.0148 1071 89.3726 1128.81 489.531
356 0 92.0751 12.2835 1131 89.9408 1128.78 489.212
357 0 100.072 10.4425 1045 91.0373 1129.32 491.547
358 0 97.1316 12.0764 1173 92.8167 1130.12 486.42
359 0 102.173 12.9389 1322 91.8336 1129.75 484.332
360 0 104.242 12.4038 1293 92.6063 1129.48 480.19
361 0 110.134 12.5121 1378 91.1952 1129.19 480.113
362 0 112.155 12.5362 1406 90.5846 1129.18 478.403
363 0 117.228 12.4885 1464 87.472 1129.97 476.279
364 1 60.0548 11.6394 699 90.382 1130.71 503.179
365 0 62.0652 11.3751 706 96.9377 1130.85 501.745
366 0 66.0373 12.4021 819 95.2112 1129.3 500.69
367 0 67.0738 11.957 802 96.5087 1130.22 498.81
368 0 69.1062 11.9381 825 94.6145 1129.93 496.17
369 0 72.076 11.6266 838 94.8162 1130.57 496.477
370 0 76.0801 11.5799 881 93.8899 1130.3 493.195
371 0 79.0905 12.0242 951 92.6309 1130.67 492.964
372 0 80.0852 11.5377 924 94.0931 1130.19 490.499
373 0 85.0571 11.4982 978 92.3937 1130.02 491.096
374 0 87.1023 11.94 1040 92.1856 1130.42 488.87
375 0 90.1771 11.3222 1021 93.5788 1130.84 487.262
376 1 44.0141 10.224 450 82.5978 1131.58 510.698
377 0 45.0247 10.9051 491 80.1813 1131.78 510.369
378 0 48.041 11.9065 572 78.7203 1131.6 509.568
379 0 50.0192 11.5956 580 79.3052 1131.75 508.993
380 0 51.0262 11.5235 588 79.5153 1131.45 507.963
381 0 52.0512 11.5271 600 79.1217 1131.06 505.895
382 0 52.0468 11.6818 608 79.1003 1131.21 505.974
383 0 54.0596 11.9313 645 78.6946 1131.06 503.895
384 0 56.0866 11.6249 652 78.9954 1131.21 503.485
385 0 58.1148 12.1139 704 77.9659 1131.17 503.408
386 0 61.0513 12.1865 744 90.4852 1130.98 501.046
387 0 62.0709 11.648 723 92.2476 1131.35 497.874
388 0 65.0669 11.6649 759 92.0329 1131.5 499.12
389 0 67.0657 11.5111 772 92.6904 1131.34 497.859
390 0 71.1699 12.2383 871 91.597 1131.02 495.358
391 0 73.0532 12.3882 905 92.5602 1130.97 494.204
392 0 76.0787 12.6579 963 91.919 1131.15 493.28
393 0 77.0764 12.7666 984 93.4146 1131.83 492.311
394 0 80.1131 12.5947 1009 93.5808 1131.66 491.212
395 0 83.0871 12.5411 1042 94.0547 1131.83 489.524
396 0 85.1884 12.8656 1096 93.6597 1131.93 488.197
397 0 88.1892 12.3598 1090 94.3138 1132.28 486.276
398 0 90.0808 13.5212 1218 92.3399 1132.51 485.483
399 0 95.1659 14.0281 1335 91.3191 1132.78 484.152
400 0 98.1715 12.9264 1269 94.3002 1132.8 482.728
401 0 100.148 13.4302 1345 94.8134 1132.71 481.062
402 0 103.235 13.0576 1348 96.4503 1131.81 478.004
403 0 107.167 13.045 1398 96.4785 1132.17 477.96
404 0 109.158 13.2561 1447 95.0511 1132.28 475.647
405 1 56.1059 10.9614 615 86.0504 1132.5 505.748
406 0 57.0987 11.8742 678 85.1917 1132.22 504.015
407 0 59.066 12.122 716 85.4637 1132.55 503.04
408 0 61.0892 11.786 720 83.8694 1132.86 503.633
409 0 63.074 11.1932 706 84.6119 1132.83 503.857
410 0 64.0646 10.7548 689 86.1161 1132.37 500.782
411 0 67.0375 10.6657 715 84.9077 1131.95 501.495
412 0 70.1492 11.2047 786 84.3499 1132.66 499.202
413 0 73.0863 11.0281 806 82.7841 1132.02 496.432
414 0 74.1161 11.3471 841 81.4043 1131.96 497.295
415 0 76.0924 11.1443 848 81.7736 1131.84 495.434
416 0 81.0872 11.1238 902 81.7738 1132.48 493.624
417 0 82.0595 11.4185 937 81.2914 1132.39 490.998
418 0 85.0787 11.1191 946 81.5254 1132.11 490.075
419 0 88.07 11.4341 1007 80.3734 1131.6 489.265
420 0 92.0972 11.781 1085 79.6516 1131.77 487.247
421 0 93.0999 11.2782 1050 82.3324 1131.8 485.632
422 1 44.0696 11.3684 501 80.7625 1132.01 510.479
423 0 47.0648 11.9622 563 78.9378 1132.44 507.563
424 0 46.0277 10.8848 501 80.016 1131.01 509.896
425 0 46.0388 10.4694 482 80.0581 1131.7 510.498
426 0 47.063 10.7515 506 80.2431 1132.03 509.536
427 0 50.0402 10.7114 536 80.5298 1132.15 507.319
428 0 52.0581 11.3527 591 79.7851 1131.82 506.611
429 0 52.0528 11.3346 590 80.2119 1131.78 506.89
430 0 55.0287 11.067 609 79.9606 1131.81 505.557
431 0 56.032 11.2614 631 79.3899 1131.15 504.983
432 0 58.0795 11.4843 667 77.7691 1130.79 503.946
433 0 61.0759 12.0342 735 75.4585 1131.33 503.976
434 0 63.0539 11.1333 702 79.2108 1131.74 501.959
435 0 63.1464 11.3387 716 79.0768 1131.74 500.557
436 0 67.114 12.4564 836 76.5419 1130.96 499.551
437 0 68.0688 10.7098 729 78.9547 1131.14 500.171
438 0 71.0538 12.2161 868 76.1694 1131.39 497.409
439 0 74.1065 11.9423 885 76.2938 1131.43 496.559
440 0 77.063 11.1986 863 79.2816 1130.44 495.74
441 0 80.1309 12.0678 967 78.5326 1130.85 492.96
442 0 83.0785 12.097 1005 79.1015 1130.74 492.328
443 1 42.087 11.1911 471 79.862 1130.49 511.35
444 0 43.0431 10.6405 458 81.8603 1130.68 511.389
445 0 44.0666 11.7095 516 79.4826 1130.83 510.097
446 0 44.0859 12.022 530 81.0604 1131.43 509.879
447 0 48.04 12.6561 608 78.9391 1131.31 508.281
448 0 48.0339 12.512 601 78.4709 1131 507.908
449 0 48.0609 11.7975 567 80.6138 1131.62 508.069
450 0 50.0586 12.4055 621 79.4766 1131.76 507.879
451 0 52.0276 11.8399 616 80.7922 1131.74 506.349
452 0 53.0423 12.4052 658 80.7462 1131.96 504.913
453 0 54.0548 12.8203 693 80.2366 1131.22 504.85
454 0 55.109 12.4662 687 81.7336 1132.03 503.761
455 0 58.1094 13.4229 780 80.1846 1131.4 503.009
456 0 58.0278 12.9938 754 84.0809 1131.99 502.277
457 0 61.0407 13.1715 804 83.291 1132.01 501.692
458 0 63.048 13.577 856 83.2196 1131.88 499.903
459 0 66.1185 13.9749 924 83.0476 1131.65 499.563
460 0 68.0578 13.9734 951 83.5415 1131.78 496.902
461 0 70.0662 14.158 992 83.2923 1132.23 496.957
462 0 72.0418 14.0752 1014 84.2604 1131.86 495.579
463 0 75.0653 14.2143 1067 84.448 1131.83 495.16
464 0 77.089 14.5416 1121 84.4906 1132.72 493.892
465 0 78.0463 14.0045 1093 87.2608 1131.61 493.553
466 0 79.0214 14.0721 1112 89.402 1131.52 492.455
467 0 82.0362 14.7984 1214 87.93 1131.32 490.979
468 0 85.1308 14.5541 1239 89.3575 1130.69 489.14
469 0 87.0413 14.9814 1304 90.309 1131.14 486.538
470 0 84.0821 13.356 1123 95.9341 1131.68 490.99
471 0 88.1516 13.7377 1211 96.1321 1130.96 488.426
472 0 90.0318 13.8618 1248 96.2155 1131.14 487.154
473 0 92.0597 13.4043 1234 98.5057 1131.46 486.854
474 0 95.0591 13.9808 1329 97.0602 1131.52 485.295
475 0 96.0842 13.9253 1338 100.493 1130.91 484.578
476 0 100.089 13.9376 1395 100.882 1130.86 482.565
477 0 103.061 13.885 1431 101.744 1130.57 481.931
478 0 104.145 13.3179 1387 103.733 1131.1 480.331
479 0 107.12 13.8162 1480 103.391 1131.03 478.486
480 0 110.051 13.7482 1513 103.754 1130.37 477.599
481 0 116.093 13.9543 1620 103.566 1130.78 474.412
482 0 118.148 13.991 1653 103.88 1130.92 473.087
483 0 123.156 14.4369 1778 102.741 1130.21 470.141
484 0 127.096 14.1153 1794 104.559 1129.9 468.611
485 0 129.119 13.9174 1797 105.446 1130.56 466.822
486 0 134.144 14.7678 1981 103.968 1130.47 463.178
487 0 140.172 14.9887 2101 102.86 1131 462.658
488 0 145.175 15.0508 2185 103.037 1130.36 458.451
489 0 148.273 14.77 2190 103.148 1130.59 455.435
490 0 152.199 15.1644 2308 102.529 1130.27 454.708
491 0 157.16 14.5457 2286 105.245 1130.95 451.545
492 0 162.232 15.0094 2435 105.204 1131.01 449.478
493 0 168.187 14.8704 2501 104.651 1131.33 448.409
494 0 172.22 15.155 2610 105.84 1130.75 444.71
495 0 178.138 14.7133 2621 106.976 1130.59 441.707
496 0 184.224 14.9004 2745 105.024 1130.15 436.543
497 0 190.257 15.4581 2941 105.335 1130.26 433.814
498 0 194.277 14.9168 2898 107.872 1130.14 434.143
499 1 51.1274 12.1853 623 92.077 1131.02 504.669
500 0 54.0326 12.622 682 92.2331 1130.81 504.874
501 0 54.0326 12.659 684 140.494 1130.82 504.851
502 0 58.0497 13.0922 760 91.4342 1130.82 503.454
503 0 60.0537 13.6378 819 90.3101 1130.96 503.162
504 0 62.0284 13.3487 828 90.7548 1131.22 502.193
505 0 64.0679 13.4077 859 90.4098 1130.76 500.356
506 0 65.0826 12.4457 810 95.7605 1130.98 499.246
507 0 67.0605 12.6006 845 96.2462 1130.7 497.747
508 0 71.071 13.3247 947 95.8057 1130.65 496.363
509 0 71.0511 13.3425 948 96.9557 1130.76 495.223
510 0 72.056 13.4895 972 99.3673 1130.54 494.076
511 0 76.1429 13.6454 1039 99.3725 1131.34 493.106
512 0 78.0712 13.334 1041 102.528 1130.64 491.684
513 0 80.0831 13.5734 1087 105.355 1130.95 490.468
514 0 81.1154 13.6719 1109 106.08 1130.61 491.43
515 0 85.1487 14.0813 1199 105.002 1131.24 489.417
516 0 87.0877 13.8711 1208 106.7 1130.62 487.377
517 0 88.0751 14.8737 1310 107.699 1130.21 487.437
518 0 94.1706 13.9322 1312 103.322 1130.15 487.897
519 0 96.1615 14.2053 1366 103.594 1130.43 486.317
520 0 96.1744 14.2138 1367 159.823 1131.42 486.286
521 0 103.075 13.7278 1415 104.142 1129.96 482.368
522 0 105.252 13.5009 1421 105.646 1129.61 480.799
523 0 109.161 13.6587 1491 103.753 1129.95 478.48
524 0 114.156 12.9735 1481 105.698 1129.89 477.034
525 1 63.0784 12.8729 812 105.103 1130.2 502.007
526 0 65.0469 13.4211 873 106.922 1129.66 501.348
527 0 65.0219 12.8418 835 110.05 1128.68 501.121
528 0 67.0265 13.4424 901 101.931 1129.18 501.146
529 0 67.0287 12.8154 859 104.804 1129.6 501.3
530 0 71.0479 12.949 920 102.888 1128.61 500.34
531 0 73.0719 13.0967 957 102.556 1128.75 498.425
532 0 76.0794 12.5658 956 103.992 1129.42 496.657
533 0 80.0778 12.9124 1034 103.048 1129.09 494.653
534 0 81.0783 12.6544 1026 104.19 1128.31 493.802
535 0 85.0927 13.2914 1131 101.834 1128.92 492.289
536 0 86.1072 12.7748 1100 103.308 1129.07 491.611
537 1 48.0428 12.0101 577 101.399 1128.49 509.66
538 0 50.0321 12.492 625 101.88 1129.3 507.794
539 0 53.0173 13.0712 693 96.8398 1129.53 507.947
540 0 52.0247 12.4556 648 101.088 1129.5 506.714
541 0 52.0224 11.5335 600 94.8283 1129.66 506.958
542 0 52.0428 12.0286 626 95.377 1128.74 508.07
543 0 55.0461 11.9536 658 96.0198 1128.58 507.119
544 0 56.0245 11.727 657 96.5556 1128.44 506.234
545 0 59.1235 11.9918 709 95.8265 1128.91 504.911
546 0 60.0704 11.5365 693 95.4329 1128.72 504.557
547 0 62.0555 11.8765 737 97.8426 1129.25 502.583
548 0 63.136 12.0692 762 99.8242 1129.05 501.654
549 0 65.0962 12.0437 784 98.9107 1129.47 501.657
550 0 69.1288 12.2525 847 97.4097 1129.68 499.543
551 0 70.1429 12.7312 893 94.9418 1129.75 497.934
552 0 72.1053 12.662 913 96.5367 1129.45 496.917
553 0 76.1207 12.8612 979 95.8866 1129.14 496.09
554 0 78.2106 13.0545 1021 97.9814 1128.99 496.267
555 0 79.1786 12.6676 1003 99.5155 1128.91 496.335
556 0 81.1253 13.1402 1066 98.4381 1128.93 494.157
557 0 85.1014 13.008 1107 99.4318 1128.92 491.475
558 0 85.1572 12.929 1101 100.692 1128.72 490.817
559 0 90.3192 13.1866 1191 100.069 1129.12 488.088
560 0 91.2378 12.4071 1132 102.925 1129.16 487.83
561 1 49.084 10.6756 524 97.2386 1129.1 507.279
562 0 52.1588 11.6759 609 100.934 1129.18 507.834
563 0 52.0619 12.2931 640 102.734 1128.86 507.477
564 0 55.0909 12.1799 671 92.5365 1128.8 508.228
565 0 55.0674 12.0216 662 92.4275 1128.86 508.662
566 0 56.0918 12.123 680 92.1382 1128.83 509.851
567 0 60.2653 12.9096 778 89.7828 1129.19 507.38
568 0 59.145 12.7145 752 91.7633 1129.68 505.863
569 0 62.144 12.4549 774 91.5336 1129.96 506.813
570 0 63.0718 12.7474 804 90.4714 1130.11 504.956
571 0 64.2988 12.1464 781 93.1985 1129.16 504.563
572 0 67.3312 12.4014 835 92.6204 1130.05 502.356
573 0 69.1989 12.6447 875 93.2743 1130.07 502.275
574 0 72.206 13.323 962 93.0863 1129.49 499.951
575 0 74.2215 12.5705 933 96.329 1129.26 499.382
576 0 76.1303 13.5032 1028 95.4552 1129.12 498.376
577 0 79.1182 12.93 1023 96.0958 1128.67 497.392
578 0 81.2312 13.4924 1096 97.7226 1128.8 496.492
579 0 86.125 13.4456 1158 97.6028 1128.1 493.824
580 0 87.1054 13.3976 1167 98.497 1128.51 492.996
581 0 91.1638 13.7006 1249 95.8215 1128.71 491.318
582 0 93.128 13.7767 1283 96.7553 1128.77 488.879
583 0 97.2578 14.3125 1392 92.2981 1128.2 487.871
584 1 53.1736 12.0549 641 97.5179 1128.58 508.579
585 0 54.0813 11.5382 624 98.9199 1128.08 508.276
586 0 56.0721 12.3948 695 96.9007 1129.01 507.499
587 0 53.1556 10.9302 581 87.6988 1128.1 509.719
588 0 56.1576 10.6308 597 86.3685 1127.97 508.992
589 0 58.0768 11.2609 654 85.6498 1129.15 507.642
590 0 60.1388 11.3072 680 84.7662 1129.06 506.641
591 0 62.1089 11.3188 703 85.6202 1128.08 506.02
592 0 64.132 11.1333 714 88.0952 1128.22 506.242
593 0 67.0768 12.5528 842 86.1817 1127.92 504.234
594 0 68.1479 12.1354 827 87.9021 1128.67 501.953
595 0 69.1256 12.1518 840 89.0393 1128.41 501.396
596 0 73.0944 12.3265 901 91.1543 1128.42 499.7
597 0 76.2037 12.8865 982 87.6212 1128.86 499.51
598 0 77.1332 12.8479 991 90.1614 1128.94 498.137
599 0 79.1214 12.6641 1002 89.526 1128.35 496.941
600 0 81.1561 12.8025 1039 89.1222 1128.65 496.218
601 0 84.1108 13.0067 1094 88.766 1128.84 495.104
602 0 85.0854 12.7989 1089 89.213 1128.79 494.529
603 0 89.1616 12.9316 1153 89.6305 1128.73 493.129
604 0 94.0939 13.9754 1315 89.3255 1128.87 491.482
605 0 96.049 14.0553 1350 90.8333 1128.32 490.63
606 0 97.0458 13.5812 1318 94.8695 1128.34 489.178
607 0 101.077 13.6431 1379 95.8086 1128.67 487.474
608 0 104.096 14.0351 1461 95.5346 1128.26 485.064
609 1 51.0576 11.5752 591 91.313 1128.22 510.575
610 0 53.0354 12.2937 652 93.8436 1128.19 510.256
611 0 55.086 13.1068 722 90.5416 1128.58 509.961
612 0 55.0139 11.9788 659 92.3551 1129.02 511.191
613 0 57.0592 12.1628 694 90.9222 1129 510.699
614 0 58.0582 12.1085 703 90.4623 1128.92 510.003
615 0 62.0337 12.8962 800 87.8425 1127.7 508.229
616 0 63.0842 13.0461 823 87.1288 1128.05 507.292
617 0 65.0415 12.9302 841 88.0749 1128.17 505.048
618 0 67.042 12.0223 806 90.2159 1128.47 504.569
619 0 68.0664 13.0755 890 90.273 1128.22 501.945
620 0 72.173 12.9688 936 90.0556 1128.35 501.846
621 0 75.0753 13.2001 991 91.1413 1128.86 500.767
622 0 78.0687 13.7187 1071 89.6993 1128.74 498.671
623 0 80.0758 12.9128 1034 94.0087 1129.09 496.38
624 0 85.0831 13.1048 1115 92.6511 1129.26 495.329
625 0 85.0554 12.2391 1041 95.9798 1129.5 493.289
626 0 89.0606 12.688 1130 94.1566 1129.13 491.846
627 0 92.1051 12.996 1197 93.5856 1128.8 490.393
628 0 94.06 12.4708 1173 94.9284 1127.98 488.921
629 0 98.063 12.6653 1242 93.901 1128.37 485.855
630 0 101.086 12.1184 1225 96.6865 1129.68 485.13
631 1 52.0535 10.8926 567 89.0282 1129.4 508.961
632 0 55.0278 12.1575 669 87.1256 1128.8 508.046
633 0 56.0166 11.9786 671 86.5589 1129.39 507.355
634 0 59.0188 11.8098 697 87.4218 1128.95 506.225
635 0 60.0503 11.4571 688 88.2892 1128.84 504.648
636 0 61.0639 11.447 699 89.3891 1129.65 503.936
637 0 64.0218 11.1681 715 90.372 1129.37 500.4
638 0 67.0443 11.8877 797 88.1543 1129.4 501.896
639 0 69.0583 11.3093 781 89.5301 1129.11 499.798
640 0 70.1496 11.3757 798 89.2995 1128.66 497.662
641 0 75.0342 10.8484 814 93.2801 1128.39 496.065
642 0 78.0697 11.3488 886 91.7178 1129.05 495.529
643 0 79.0943 11.1386 881 89.8865 1128.89 494.82
644 0 84.0806 11.3463 954 87.7463 1128.98 493.063
645 0 85.1061 11.2565 958 87.3883 1129 490.515
646 0 89.0802 11.0687 986 85.3976 1129.34 487.906
647 0 92.0977 10.9558 1009 86.663 1129.46 486.276
648 0 95.0404 11.9423 1135 85.1313 1129.25 486.618
649 1 48.0365 11.3247 544 80.4338 1129.08 509.101
650 0 51.0213 12.0342 614 80.8795 1129.04 508.866
651 0 52.026 12.2439 637 80.5494 1129.35 506.813
652 0 53.0177 12.1092 642 77.134 1129.54 507.444
653 0 55.044 12.7898 704 75.777 1129.9 505.793
654 0 55.0247 12.3581 680 76.1103 1129.03 504.884
655 0 57.0614 12.8633 734 75.6758 1129.08 504.575
656 0 60.092 12.2146 734 76.9401 1129.67 503.432
657 0 61.0583 12.4635 761 78.2694 1129.98 502.594
658 0 63.0739 12.3664 780 80.3026 1129.49 501.276
659 0 64.045 12.7567 817 79.6805 1129.93 500.568
660 0 66.0951 12.4215 821 82.7332 1129.53 500.01
661 0 68.055 12.5634 855 83.6877 1130.37 497.768
662 0 69.1057 12.1408 839 85.7819 1129.89 497.658
663 0 72.044 12.6867 914 83.4595 1130.25 495.943
664 0 73.0914 12.4091 907 81.172 1130.15 494.467
665 0 76.0763 13.2236 1006 79.329 1130.43 494.935
666 0 78.0382 13.0449 1018 79.111 1131.42 495.14
667 0 81.2204 12.6569 1028 80.8735 1130.07 492.768
668 0 85.1198 13.4869 1148 80.8092 1130.75 493.084
669 0 87.1776 13.4553 1173 81.376 1130.68 489.336
670 0 88.0884 12.9302 1139 82.6251 1130.6 489.061
671 1 46.0309 11.3837 524 79.25 1131.04 509.989
672 0 47.0639 11.3038 532 80.6335 1130.89 509.637
673 0 49.0269 11.3203 555 82.009 1130.31 507.993
674 0 50.1665 11.2625 565 81.892 1130.52 507.566
675 0 53.1389 12.7402 677 78.7282 1130.36 504.238
676 0 53.0918 12.1864 647 79.187 1130.31 505.679
677 0 57.3311 12.6982 728 78.6415 1130.54 501.632
678 0 56.1626 12.7309 715 81.2448 1129.98 499.659
679 0 60.134 13.0708 786 84.5712 1130.32 498.546
680 0 62.2096 13.4867 839 74.7819 1130.64 500.216
681 0 64.1535 13.3118 854 74.8876 1130.13 497.941
682 0 65.2806 13.0667 853 75.0129 1130.57 497.638
683 0 67.2645 13.5733 913 75.3417 1130.73 495.844
684 0 70.2522 13.3519 938 76.2313 1130.81 495.908
685 0 72.2353 13.9406 1007 75.9583 1131.12 495.038
686 0 74.1568 13.7546 1020 77.4441 1130.86 493.508
687 0 77.2239 13.3249 1029 78.726 1131.35 494.218
688 0 81.1213 14.3366 1163 78.1806 1131.23 491.38
689 0 83.164 13.3591 1111 80.9001 1131.23 493.177
690 0 84.0587 13.1456 1105 82.0851 1131.54 492.205
691 0 87.088 12.9065 1124 81.7456 1131.05 491.343
692 0 90.0293 12.8847 1160 80.9543 1131.1 491.207
693 0 90.0788 13.0219 1173 82.1228 1131.7 489.807
694 0 94.1484 13.107 1234 81.3136 1131.19 487.789
695 0 97.0876 13.2561 1287 83.1266 1130.77 484.457
696 0 101.063 12.8732 1301 83.761 1131.43 484.101
697 0 104.153 13.6723 1424 84.3406 1131.01 484.492
698 0 106.19 13.5794 1442 85.0444 1130.9 482.551
699 0 112.164 13.7299 1540 84.6623 1130.5 480.924
700 0 115.096 13.7537 1583 86.5496 1129.81 477.924
701 0 118.187 13.7833 1629 86.3603 1130.4 478.276
702 0 124.174 13.8032 1714 87.7847 1129.91 474.763
703 0 126.368 12.8751 1627 90.7419 1130.19 471.79
704 0 133.505 13.3778 1786 90.2105 1130.08 469.133
705 0 138.358 13.2266 1830 90.9967 1130.17 467.441
706 0 142.256 13.5952 1934 91.6541 1130.18 464.612
707 0 146.292 13.0356 1907 92.3644 1129.3 464.75
708 0 151.371 12.8162 1940 93.1134 1129.43 463.166
709 1 70.1833 12.5671 882 95.7449 1128.77 498.4
710 0 72.1843 13.4378 970 94.0536 1129.34 496.72
711 0 75.1956 13.6976 1030 95.1777 1129.36 496.015
712 0 77.0971 14.2158 1096 91.7135 1128.66 494.531
713 0 78.1675 12.7547 997 96.8626 1129.06 496.332
714 0 80.184 13.3069 1067 94.2352 1129.5 493.903
715 0 81.1719 12.8862 1046 95.6272 1129.3 494.546
716 0 84.1346 12.9079 1086 96.1768 1128.39 492.442
717 0 87.1779 13.1799 1149 95.7572 1128.6 490.833
718 0 91.222 13.2315 1207 95.4167 1128.69 488.602
719 0 94.1023 13.2728 1249 94.727 1128.93 488.327
720 0 95.1293 12.9823 1235 94.8988 1128.79 485.27
721 0 99.1137 13.2777 1316 92.3002 1129.57 484.233
722 0 103.121 13.6054 1403 91.2124 1129.71 481.824
723 0 106.043 12.6646 1343 92.1951 1129.22 481.882
724 0 113.081 12.0886 1367 91.4506 1128.84 480.703
725 1 67.0699 12.7926 858 95.2786 1128.4 501.328
726 0 67.08 12.4926 838 96.957 1128.69 499.415
727 0 69.1178 12.6161 872 98.2649 1128.75 497.221
728 0 69.1178 12.6885 877 138.588 1128.73 497.25
729 0 74.1307 12.6803 940 99.5011 1128.51 494.614
730 0 77.1286 12.3689 954 99.3228 1128.56 492.778
731 0 81.1337 13.6441 1107 96.3695 1128.87 492.042
732 0 83.1638 12.8902 1072 98.3591 1128.89 489.16
733 0 86.165 13.1144 1130 97.1681 1129.27 488.342
734 0 88.091 13.1569 1159 96.5841 1129.32 486.427
735 0 90.065 13.1239 1182 97.7453 1128.64 482.469
736 0 92.0374 12.5927 1159 97.1734 1129.24 480.67
737 0 96.079 12.0838 1161 97.0534 1129.2 479.863
738 0 101.054 12.5477 1268 95.0016 1128.66 476.884
739 0 105.081 12.5142 1315 94.527 1129.66 474.947
740 0 110.085 12.0997 1332 93.6344 1129.84 474.083
741 1 56.0462 11.5976 650 94.6846 1128.98 497.457
742 0 58.0254 12.3911 719 94.5132 1129.02 497.723
743 0 62.0261 12.5109 776 93.241 1129.5 496.778
744 0 60.0433 12.6908 762 96.0919 1129.13 493.81
745 0 66.0246 12.3287 814 93.8243 1129.33 493.306
746 0 67.0715 13.2843 891 91.9708 1129.49 492.595
747 0 65.0478 12.8675 837 94.1673 1129.68 489.994
748 0 68.0411 12.6541 861 95.9001 1128.94 489.577
749 0 77.0441 9.90342 763 97.4587 1129.15 490.408
750 0 75.0392 12.2203 917 95.2105 1128.93 487.01
751 0 75.0336 13.1008 983 94.7457 1129.7 485.14
752 0 76.0193 12.6678 963 97.1381 1129.55 482.482
753 0 82.0192 12.241 1004 104.651 1129.67 482.4
754 0 81.06 12.9657 1051 96.001 1129.83 480.157
755 0 83.0311 13.0433 1083 97.1828 1129.51 479.376
756 0 91.0849 13.0098 1185 96.8878 1129.15 478.67
757 0 95.0838 13.6406 1297 94.3894 1128.99 478.897
758 0 98.1343 13.3796 1313 94.639 1128.94 476.907
759 0 102.07 13.6475 1393 94.5707 1129.34 474.815
760 0 107.094 13.5956 1456 95.601 1129.7 474.582
761 0 109.095 13.0528 1424 99.0042 1130.03 472.224
762 0 114.063 13.475 1537 98.5582 1130.37 471.076
763 1 63.073 10.6226 670 90.2284 1130.13 505.306
764 0 66.0873 11.4092 754 89.3833 1129.7 502.264
765 0 67.0253 11.6672 782 88.4322 1129.3 501.786
766 0 69.1161 11.7483 812 88.6453 1129.96 502.068
767 0 70.0467 11.8635 831 90.509 1129.33 501.373
768 0 74.0541 11.7077 867 102.152 1129.65 498.946
769 0 75.0831 11.3341 851 104.636 1130.37 495.136
770 0 79.0745 12.0519 953 100.885 1130.32 494.165
771 0 81.0747 11.7793 955 102.572 1130.26 492.798
772 0 84.0569 11.6469 979 97.8141 1129.9 491.729
773 0 87.1062 11.8821 1035 96.6077 1130.45 490.348
774 0 89.0714 11.9567 1065 97.339 1129.42 489.421
775 0 90.084 10.912 983 99.2167 1130.1 488.157
776 0 92.0928 11.3907 1049 98.8818 1129.9 486.502
777 0 97.0552 11.4471 1111 98.7309 1130.17 484.152
778 0 99.1722 11.0212 1093 100.35 1129.95 483.266
779 1 51.1055 9.62715 492 88.9756 1130.03 509.15
780 0 53.0585 10.6298 564 86.5355 1130.13 509.149
781 0 55.0605 10.7518 592 86.5608 1129.36 506.191
782 0 58.1175 11.5972 674 97.6528 1129.23 503.68
783 0 61.0888 10.9349 668 98.4117 1129.41 502.064
784 0 62.0759 11.1315 691 97.8741 1129.51 501.883
785 0 62.1518 11.5845 720 99.1181 1129.46 502.854
786 0 67.0548 11.6472 781 98.6466 1129.7 502.312
787 0 68.0893 11.1178 757 100.176 1130.02 501.69
788 0 69.0854 10.8272 748 100.66 1130.04 499.606
789 0 71.1473 11.3708 809 99.3424 1129.81 498.319
790 0 73.1513 11.2917 826 98.2082 1130.46 496.115
791 0 76.1117 10.8262 824 97.0886 1130.87 496.346
792 0 80.2146 10.8833 873 98.2703 1131.11 494.313
793 1 41.13 9.53076 392 92.9643 1130.76 515.112
794 0 40.1019 10.4983 421 91.1568 1130.85 514.791
795 0 43.0865 10.8851 469 88.7143 1130.86 512.448
796 0 44.1007 11.5418 509 88.2338 1130.9 512.251
797 0 46.1672 11.415 527 86.0512 1131.82 512.355
798 0 45.0358 12.2569 552 85.9565 1132.03 512.986
799 0 47.0309 11.9708 563 86.7691 1132.4 511.348
800 0 48.055 11.7574 565 86.1027 1132.22 510.968
801 0 49.0369 11.3588 557 85.8851 1132.24 510.479
802 0 53.0501 11.2912 599 99.9916 1133.15 508.611
803 0 54.0492 11.2305 607 98.318 1132.21 509.18
804 0 57.0663 11.215 640 97.6312 1131.97 507.625
805 0 58.1449 11.3853 662 96.1798 1131.98 507.766
806 0 59.13 11.8722 702 96.0271 1131.62 506.132
807 0 59.0478 12.0411 711 95.9269 1131.58 507.129
808 0 64.0645 12.2377 784 95.3622 1131.36 505.909
809 0 65.0935 12.1978 794 96.17 1131.01 504.019
810 0 67.0894 11.7753 790 99.6456 1131.14 502.099
811 0 68.1355 11.4037 777 101.44 1130.35 499.562
812 0 72.0909 12.7894 922 97.5152 1129.92 500.793
813 0 73.0697 12.7686 933 97.3012 1129.59 498.373
814 0 73.097 12.244 895 99.2771 1128.99 499.264
815 0 78.1667 12.8315 1003 96.9661 1129.2 497.705
816 1 40.0681 11.7799 472 94.1674 1129.32 518.258
817 0 39.0684 12.0558 471 96.9002 1128.07 517.58
818 0 43.1774 12.2055 527 97.5958 1128.87 517.522
819 0 42.0753 13.1431 553 99.2984 1129.02 516.718
820 0 44.0555 13.3241 587 101.463 1129.71 515.85
821 0 45.1228 13.8511 625 103.563 1128.86 515.382
822 0 47.0572 13.898 654 103.583 1128.88 514.294
823 0 49.1315 13.9625 686 103.931 1128.3 514.06
824 0 50.076 14.0786 705 104.058 1128.14 514.203
825 0 53.109 13.9148 739 102.476 1128.6 513.349
826 0 53.1714 14.5003 771 101.857 1128.1 513.38
827 0 54.0795 14.7376 797 102.235 1128.2 512.681
828 0 56.1042 15.0078 842 102.71 1128.93 512.103
829 0 59.0594 15.0696 890 103.312 1128.72 511.149
830 0 62.0641 14.4528 897 105.456 1127.72 511.066
831 0 62.1329 15.3381 953 104.886 1128.45 510.441
832 0 65.1549 14.9797 976 106.2 1128.83 509.064
833 0 67.1286 15.6565 1051 106.652 1128.96 508.196
834 0 68.0568 15.5018 1055 108.09 1128.99 508.272
835 0 71.047 15.4264 1096 109.535 1129.16 507.453
836 0 71.0514 14.9469 1062 112.073 1129.17 505.765
837 0 74.0583 15.4878 1147 113.087 1128.87 504.109
838 0 75.0714 15.6784 1177 115.659 1128.87 501.624
839 0 79.0567 15.7102 1242 113.549 1127.66 500.593
840 0 80.054 15.8268 1267 113.704 1127.68 498.098
841 0 84.0931 15.6969 1320 112.883 1127.67 496.544
842 0 85.1316 15.7051 1337 113.853 1127.86 496.194
843 0 88.0424 15.5153 1366 115.208 1127.68 493.311
844 0 92.1156 15.7628 1452 112.473 1127.69 492.537
845 0 93.0837 15.8352 1474 118.261 1127.9 490.904
846 0 96.0897 15.4959 1489 112.656 1127.87 488.846
847 0 99.1448 15.5631 1543 111.935 1127.72 487.417
848 1 53.1689 13.8803 738 120.497 1128.36 508.199
849 0 54.1276 14.1887 768 119.161 1128.8 508.1
850 0 58.114 14.7297 856 116.171 1128.73 505.395
851 0 61.1987 14.6735 898 114.08 1128.7 504.222
852 0 61.2061 15.407 943 112.78 1128.54 503.108
853 0 66.3603 15.6419 1038 108.926 1128.91 502.495
854 0 67.2938 15.2614 1027 111.112 1128.97 501.171
855 0 70.2928 16.3601 1150 107.039 1129.14 499.597
856 0 71.198 15.4499 1100 111.328 1129.1 498.866
857 0 75.1644 15.832 1190 110.199 1128.96 497.357
858 0 76.0952 15.6383 1190 113.011 1128.49 495.765
859 0 78.1442 15.8681 1240 112.43 1128.97 495.21
860 0 79.1112 15.9143 1259 112.97 1128.94 493.301
861 0 83.1413 16.1532 1343 112.727 1128.44 492.762
862 0 85.189 16.4106 1398 111.416 1128.41 491.173
863 0 89.1197 16.0122 1427 111.761 1129.34 489.801
864 0 93.227 16.2721 1517 109.572 1128.65 488.873
865 0 95.1475 15.6494 1489 112.331 1128.54 488.099
866 0 98.1698 16.0946 1580 112.625 1128.34 485.029
867 0 102.177 16.1191 1647 112.06 1128.66 482.659
868 0 105.193 16.5505 1741 110.643 1128.45 481.316
869 0 106.123 15.6611 1662 114.95 1128.34 478.616
870 0 110.138 15.5442 1712 114.994 1128.12 477.263
871 0 115.162 15.9949 1842 114.329 1128.59 475.06
872 0 115.164 15.3694 1770 117.925 1128.17 473.436
873 0 121.181 15.5553 1885 117.425 1128.22 470.483
874 0 125.224 15.3645 1924 118.556 1127.87 468.437
875 0 129.183 15.4664 1998 118.678 1127.93 466.674
876 0 134.234 15.242 2046 119.003 1128.52 466.136
877 0 138.274 15.6574 2165 119.058 1128.74 460.687
878 0 144.204 15.8942 2292 119.135 1128.47 457.845
879 0 145.287 15.5967 2266 120.146 1128.32 455.58
880 0 151.37 15.6174 2364 116.942 1128.26 454.77
881 0 157.262 16.0369 2522 115.724 1127.99 451.625
882 0 160.242 14.9773 2400 119.351 1128.36 449.643
883 0 167.352 15.566 2605 118.316 1127.84 447.116
884 0 175.216 16.0145 2806 118.129 1128.16 443.184
885 0 181.266 15.7172 2849 116.104 1128.52 440.551
886 0 186.346 15.278 2847 119.872 1128.62 437.43
887 0 195.267 15.635 3053 116.648 1128.24 434.281
888 1 104.225 13.6147 1419 123.763 1129.02 475.037
889 0 109.259 13.9851 1528 120.296 1128.85 473.098
890 0 112.177 14.3345 1608 119.361 1128.64 469.545
891 0 117.194 14.1731 1661 119.2 1128.64 466.988
892 0 122.275 14.3447 1754 118.342 1128.56 466.366
893 0 127.302 14.171 1804 117.818 1128.69 463.887
894 0 132.311 14.3375 1897 116.129 1128.67 460.52
895 0 136.28 14.2134 1937 116.317 1128.76 458.09
896 0 143.201 14.4901 2075 115.774 1127.86 455.814
897 0 147.226 14.4336 2125 114.818 1129.05 452.469
898 0 152.195 14.4683 2202 114.796 1129.12 446.327
899 0 156.316 13.6967 2141 115.861 1128.62 444.331
900 0 165.352 14.0126 2317 112.553 1129.26 440.243
901 1 97.1279 11.7165 1138 97.8014 1129.48 478.993
902 0 98.1435 10.8922 1069 98.0309 1129.39 477.529
903 0 102.156 11.8544 1211 101.064 1129.41 473.026
904 0 106.076 11.4635 1216 101.348 1128.34 473.115
905 0 109.137 11.8475 1293 101.211 1128.69 470.008
906 0 115.149 11.1855 1288 98.2857 1129.12 470.585
907 0 118.084 11.1446 1316 94.2287 1128.77 467.167
908 1 69.1107 9.98398 690 87.8087 1128.58 494.08
909 0 69.0744 10.467 723 88.101 1129.76 491.604
910 0 71.0834 10.2133 726 87.9311 1129.07 488.986
911 0 75.1058 10.8647 816 93.0135 1129.92 488.612
912 0 75.0952 10.267 771 94.5084 1129.61 486.23
913 0 79.0958 10.7338 849 91.4075 1129.44 485.221
914 0 82.104 10.1335 832 90.9543 1129.15 481.84
915 0 85.1363 10.3364 880 93.1261 1130.01 480.98
916 0 86.157 9.72643 838 93.6659 1129.44 478.813
917 0 90.172 10.0918 910 92.4725 1129.78 478.307
918 0 93.1841 10.4202 971 90.9763 1129.8 474.359
919 0 96.2015 9.79194 942 90.7208 1129.7 472.363
920 0 101.194 9.54605 966 88.3033 1128.85 471.261
921 1 48.0424 6.41101 308 71.9058 1128.38 496.383
922 0 49.024 7.07816 347 69.3746 1128.76 496.983
923 1 14.0012 3.07117 43 69.093 1129.47 516.256
924 0 24.01 4.87298 117 68.735 1130.01 518.299
925 0 25.0144 2.15875 54 70.8518 1131.04 518.204
926 0 27.0223 3.55262 96 70.9479 1130.69 513.302
927 0 23.0029 4.65159 107 67.9907 1130.64 516.215
928 0 19.0008 1.36837 26 70.4231 1130.62 521.423
929 1 61.0511 6.60103 403 87.3275 1126.47 491.814
930 0 56.0127 2.80293 157 97.6879 1126.85 482.885
931 0 48.0222 4.16474 200 95.295 1126.44 481.765
932 0 55.0413 2.18018 120 98.8917 1126.47 477.642
933 1 16.0017 3.31214 53 68.3019 1127.92 522.019
934 0 15.0453 3.05743 46 68.2826 1127.3 521.391
935 1 85.1198 9.21054 784 75.4974 1127.5 491.362
936 0 88.131 9.65608 851 76.8155 1126.35 487.391
937 0 90.2724 8.77345 792 77.6452 1126.21 489.396
938 0 92.1496 9.44117 870 76.7414 1126 488.399
939 0 94.2808 8.70803 821 78.0451 1126.34 488.269
940 0 96.116 9.68621 931 79.6649 1126.18 486.957
941 1 49.142 8.91294 438 66.1096 1126.12 513.765
942 0 50.1221 9.63647 483 67.2961 1126.92 511.404
943 0 53.1744 9.6663 514 66.4261 1126.41 511.619
944 0 52.1008 8.00371 417 69.5588 1127.04 511.357
945 0 53.1086 9.26403 492 67.8049 1126.63 511.587
946 0 54.2294 9.33074 506 70.0158 1126.34 509.828
947 0 56.2989 9.71599 547 69.4168 1126 509.956
948 0 59.1257 9.72504 575 69.607 1126.69 509.558
949 0 59.1902 9.76513 578 71.3114 1126.75 507.208
950 0 60.1991 9.81743 591 72.0423 1127.28 505.34
951 0 61.2392 10.2222 626 80.6262 1127.15 504.559
952 0 63.0624 11.0367 696 81.1983 1128.08 504.421
953 0 65.181 10.2944 671 82.6736 1129 504.167
954 0 68.0688 11.3562 773 81.317 1127.06 502.578
955 0 69.1958 10.9833 760 81.9395 1128.33 503.168
956 0 72.178 10.1277 731 72.6676 1127.56 501.379
957 0 72.1031 10.277 741 76.2591 1128.04 498.541
958 0 75.2314 10.8598 817 75.8066 1128.3 496.707
959 0 76.1014 10.486 798 76.7845 1128.09 495.45
960 0 79.2407 10.5628 837 76.9104 1128.3 493.014
961 0 84.1153 11.4486 963 76.2222 1128.5 491.354
962 0 86.1498 10.8416 934 78.3929 1128.28 489.717
963 0 89.1792 11.4489 1021 78.4368 1128.76 486.912
964 0 91.1581 11.299 1030 80.8447 1128.6 485.681
965 1 47.1381 9.24942 436 76.5986 1128.68 509.349
966 0 48.1337 8.76725 422 75.8199 1129.25 512.659
967 0 51.1633 10.2222 523 72.979 1129.5 511.249
968 0 52.1421 10.8741 567 73.6755 1128.61 508.397
969 0 54.102 11.0532 598 70.3094 1129.46 509.294
970 0 55.1211 10.7218 591 71.044 1130.17 507.269
971 0 56.1336 11.0807 622 70.7363 1129.73 507.396
972 0 57.1003 11.6637 666 71.4294 1129.7 506.661
973 0 60.1279 11.2593 677 71.0192 1129.99 505.032
974 0 60.1133 10.8462 652 73.8405 1130.1 503.064
975 0 62.1148 11.6075 721 72.8793 1130.63 503.178
976 0 63.025 11.8207 745 73.6631 1130.25 501.514
977 0 66.1028 12.1629 804 72.9913 1130 500.929
978 0 68.0482 12.2119 831 73.3249 1130.5 499.73
979 0 70.1106 12.138 851 82.0505 1130.28 498.381
980 0 71.0937 12.1248 862 84.4142 1131.22 501.246
981 0 73.1831 12.3526 904 84.6239 1130.2 498.362
982 0 75.1893 12.422 934 85.2077 1130.24 497.714
983 0 77.103 12.6973 979 75.2145 1130.47 498.084
984 0 80.1167 13.5677 1087 74.1012 1129.86 497.285
985 0 81.1818 13.131 1066 78.5019 1129.86 495.447
986 0 82.1954 13.0299 1071 79.8282 1129.53 493.84
987 0 84.1022 13.2933 1118 82.661 1129.49 492.803
988 0 87.14 13.6677 1191 83.7011 1129.84 492.177
989 0 89.1629 13.638 1216 88.514 1129.94 491.776
990 0 91.1891 14.0148 1278 91.8607 1129.78 488.032
991 0 93.1417 13.7318 1279 94.4722 1130.26 486.988
992 0 95.1418 13.4011 1275 96.3326 1130.21 486.902
993 0 98.1554 13.4481 1320 96.2295 1130.23 485.532
994 0 98.1593 13.4577 1321 97.4784 1129.68 482.826
995 0 102.163 14.565 1488 94.8038 1129.26 481.805
996 0 105.247 13.9671 1470 94.6585 1129.22 482.162
997 0 108.116 14.1145 1526 94.6402 1130.15 478.704
998 0 111.122 13.6787 1520 94.4467 1129.74 476.239
999 0 115.176 13.9526 1607 93.7666 1129.72 474.428
1000 0 119.226 13.7219 1636 93.813 1129.56 472.235
1001 1 67.0738 11.3159 759 93.9236 1129.89 498.249
1002 0 68.0605 12.1363 826 91.7639 1129.76 496.816
1003 0 70.128 12.0637 846 89.4799 1129.79 496.267
1004 0 70.1026 12.6672 888 91.6329 1130.09 495.363
1005 0 73.1225 12.9645 948 89.1635 1130.33 493.771
1006 0 76.081 13.2622 1009 95.559 1130.78 492.207
1007 0 77.0805 13.0383 1005 98.7214 1130.57 490.973
1008 0 79.0259 13.5399 1070 97.1168 1130.81 490.578
1009 0 82.1755 13.3495 1097 94.34 1131.39 493.697
1010 0 82.0901 13.1806 1082 94.2976 1131.18 490.462
1011 0 84.0321 12.8046 1076 93.3903 1131.21 489.631
1012 0 86.1233 12.7259 1096 92.7956 1130.42 487.786
1013 0 87.035 12.4433 1083 92.9686 1130.48 485.779
1014 0 88.0839 12.5108 1102 92.8094 1130.43 485.346
1015 0 90.0784 12.3781 1115 93.8332 1129.79 483.415
1016 0 93.101 12.7603 1188 92.3763 1130.14 483.621
1017 0 96.0499 13.0765 1256 91.914 1130.24 482.208
1018 0 99.0932 12.9171 1280 90.5008 1131.09 482.789
1019 0 99.0983 12.1495 1204 93.907 1130.79 480.429
1020 0 104.121 13.4363 1399 90.7555 1131.06 479.059
1021 0 105.063 13.1921 1386 90.9697 1131.41 477.807
1022 0 108.134 13.1596 1423 89.1103 1131.31 477.294
1023 0 110.07 13.0553 1437 89.2234 1131.69 474.871
1024 0 110.06 12.902 1420 89.4845 1131.53 473.064
1025 0 114.097 12.8838 1470 88.7748 1130.84 471.479
1026 0 115.115 11.684 1345 90.9227 1131.33 468.769
1027 0 120.122 11.8713 1426 90.3254 1130.39 467.856
1028 0 121.156 12.2652 1486 90.1662 1130.4 466
1029 0 125.176 11.7754 1474 91.2124 1130.04 465
1030 0 128.139 12.2601 1571 90.3246 1130.04 461.882
1031 0 129.111 12.2607 1583 91.6589 1129.64 457.704
1032 0 134.22 11.2502 1510 93.4464 1129.9 458.481
1033 0 139.138 11.6862 1626 92.8395 1130.21 455.21
1034 0 139.134 11.4925 1599 93.1795 1130.4 452.262
1035 0 145.137 11.7269 1702 92.7009 1129.6 451.916
1036 0 148.136 11.8135 1750 93.6714 1129.25 450.461
1037 0 156.215 12.47 1948 92.9307 1129.52 448.661
1038 0 159.212 12.1725 1938 96.05 1129.48 445.45
1039 0 164.195 12.205 2004 96.5105 1128.96 444.372
1040 0 167.366 12.2187 2045 98.1746 1129.41 441.609
1041 0 175.208 12.6021 2208 97.8596 1128.99 438.285
1042 0 180.228 12.118 2184 99.5087 1128.86 439.463
1043 0 186.31 13.2521 2469 99.2799 1128.87 434.302
1044 0 191.237 12.6335 2416 101.926 1129.07 432.339
1045 0 199.226 12.9802 2586 101.267 1128.75 429.308
1046 0 205.254 13.1252 2694 102.65 1128.44 425.97
1047 0 212.24 13.8381 2937 102.902 1128.77 424.08
1048 0 215.103 12.9891 2794 106.758 1128.73 419.454
1049 0 226.265 13.5681 3070 105.612 1129.16 419.772
1050 1 169.182 12.59 2130 105.177 1129.27 447.311
1051 0 174.233 12.621 2199 107.421 1129.11 445.849
1052 0 178.25 13.0379 2324 108.44 1128.6 441.602
1053 0 185.157 14.107 2612 106.251 1127.82 437.27
1054 0 190.131 13.3277 2534 112.56 1129.17 434.599
1055 0 197.335 13.7533 2714 115.268 1129.69 430.378
1056 0 204.136 14.0152 2861 115.958 1129.69 429.57
1057 0 209.227 13.9609 2921 117.365 1130.11 427.229
1058 0 214.255 14.0207 3004 120.404 1130.36 423.453
1059 0 220.362 14.871 3277 120.665 1129.71 419.669
1060 0 225.444 14.4959 3268 124.153 1128.93 417.016
1061 0 233.382 14.5727 3401 123.86 1129.52 412.999
1062 0 239.489 14.5268 3479 125.514 1129.38 412.844
1063 0 247.448 14.6334 3621 123.709 1129.16 407.056
1064 0 254.336 14.4455 3674 123.985 1129.66 401.73
1065 0 262.419 14.3739 3772 124.578 1129.17 395.843
1066 0 272.342 14.4157 3926 123.735 1128.99 391.33
1067 0 281.337 14.0685 3958 124.952 1129.58 388.057
1068 0 289.292 13.9686 4041 127.517 1129.1 382.998
1069 1 213.207 12.2135 2604 127.362 1129.23 423.432
1070 0 217.3 12.2274 2657 129.068 1129.29 420.329
1071 0 225.355 12.3627 2786 130.009 1129.63 415.836
1072 0 233.23 12.6913 2960 131.038 1129.52 410.255
1073 0 241.292 12.806 3090 130.144 1129.35 408.812
1074 0 248.267 12.3536 3067 133.063 1129.26 404.291
1075 0 254.258 12.5306 3186 132.185 1129.36 401.093
1076 0 262.343 13.0745 3430 134.997 1128.98 392.381
1077 0 262.368 13.1228 3443 168.431 1127.97 392.301
1078 0 259.152 6.29746 1632 134.194 1130.21 436.721
1079 1 296.306 18.3864 5448 111.888 1129.19 357.172
1080 0 301.193 17.3842 5236 116.018 1129.62 358.963
1081 0 305.298 13.7046 4184 130.584 1129.31 366.243
1082 0 318.298 15.8028 5030 118.892 1129.36 357.25
1083 0 328.315 16.2527 5336 117.749 1129.57 349.751
1084 0 337.348 15.5596 5249 121.265 1129.23 347.226
1085 0 347.427 15.4162 5356 122.088 1129.04 339.252
1086 0 359.287 15.4027 5534 123.353 1129.67 333.092
1087 0 367.375 15.3222 5629 125.222 1129.44 327.759
1088 0 381.499 15.4208 5883 124.951 1129.03 319.152
1089 0 393.369 15.9215 6263 138.345 1128.99 313.309
1090 0 408.384 15.9923 6531 138.771 1129.53 305.632
1091 0 419.702 15.7516 6611 138.702 1129.46 294.323
1092 0 81.0944 12.6026 1022 80.411 1129.1 492.129
1093 0 82.0583 12.2596 1006 83.7575 1129.8 491.675
1094 0 79.0703 10.3958 822 93.3455 1129.37 494.187
1095 0 84.0442 10.1851 856 114.501 1130.66 491.69
1096 0 82.0289 9.7039 796 98.9485 1128.79 490.474
1097 0 84.0643 9.73064 818 98.456 1129.05 488.872
1098 0 84.0484 10.958 921 95.3214 1129.57 489.003
1099 0 95.0946 14.8168 1409 82.638 1131.31 494.448
1100 0 97.1127 15.1268 1469 83.8271 1130.85 491.516
1101 0 98.0935 15.2507 1496 84.3222 1130.45 487.715
1102 0 101.106 15.5974 1577 83.7825 1129.87 486.228
1103 0 103.161 15.1996 1568 87.5383 1129.71 484.232
1104 0 105.128 15.2101 1599 90.4678 1129.45 482.95
1105 0 108.164 15.6244 1690 86.487 1129.69 481.08
1106 0 109.11 15.1957 1658 89.0392 1130.14 481.383
1107 0 112.214 15.0337 1687 91.8791 1130.02 478.363
1108 0 114.133 15.0527 1718 93.6251 1130.36 476.835
1109 0 115.129 14.6097 1682 99.8389 1130.17 474.788
1110 0 118.225 14.2271 1682 97.8318 1130 473.775
1111 0 120.198 14.8089 1780 96.2281 1129.71 471.662
1112 0 124.143 14.9344 1854 95.4364 1130.11 468.437
1113 0 136.292 17.5139 2387 83.9426 1130.75 452.63
1114 0 137.301 17.356 2383 85.8246 1129.98 452.642
1115 0 137.136 16.8738 2314 89.7226 1131.02 453.579
1116 0 138.071 17.223 2378 92.8936 1131.65 453.409
1117 0 140.103 15.4672 2167 103.149 1130.43 462.006
1118 0 144.141 15.3808 2217 106.226 1129.92 462.519
1119 0 148.265 15.9917 2371 106.695 1130.83 457.734
1120 0 149.192 15.3493 2290 110.793 1130.06 457.232
1121 0 152.171 14.9897 2281 110.739 1130.71 455.935
1122 0 155.162 15.2422 2365 110.532 1130.62 452.277
1123 0 159.126 15.5034 2467 108.282 1130.37 452.174
1124 0 163.214 15.7891 2577 108.312 1130.61 448.664
1125 0 167.126 15.3836 2571 112.41 1130.22 447.855
1126 0 171.088 15.0274 2571 115.722 1130.73 444.834
1127 0 175.142 15.142 2652 115.682 1130.2 444.385
1128 0 181.19 15.5803 2823 115.048 1129.28 441.828
1129 0 186.243 15.4637 2880 115.984 1129.47 438.516
1130 0 190.169 15.3337 2916 116.181 1129.1 435.253
1131 0 195.194 15.3591 2998 113.787 1129.05 434.804
1132 0 199.18 15.5788 3103 116.171 1129.16 431.464
1133 0 205.118 15.2108 3120 114.746 1128.99 427.502
1134 0 210.235 15.0356 3161 114.585 1128.72 422.905
1135 0 217.159 15.1088 3281 116.258 1128.82 421.028
1136 0 221.152 15.5549 3440 116.747 1128.27 419.418
1137 0 229.191 15.5024 3553 114.501 1128.55 412.58
1138 1 175.173 10.9663 1921 119.333 1129.42 443.028
1139 0 179.221 11.2152 2010 121.575 1128.75 439.136
1140 0 184.229 11.6214 2141 120.719 1129.09 433.917
1141 0 192.261 11.6248 2235 118.471 1129.4 434.842
1142 0 200.197 11.8783 2378 113.658 1128.99 430.762
1143 0 203.226 11.9522 2429 117.276 1129.37 426.814
1144 0 212.216 12.2092 2591 116.765 1129.09 422.139
1145 0 218.192 11.7236 2558 117.907 1129.62 420.989
1146 0 225.279 11.9984 2703 116.822 1128.49 415.236
1147 0 234.177 12.3112 2883 115.038 1128.95 413.772
1148 1 177.178 10.4697 1855 105.279 1129.53 445.959
1149 0 182.164 11.5226 2099 103.539 1129.69 443.817
1150 0 185.237 11.1965 2074 94.2117 1130 441.778
1151 0 192.278 11.7226 2254 93.0634 1129.27 436.17
1152 0 195.31 10.5422 2059 94.7606 1129.16 435.518
1153 0 202.263 11.2279 2271 94.0722 1128.82 432.184
1154 0 211.213 11.3535 2398 93.1109 1128.88 429.437
1155 0 216.319 12.084 2614 91.9178 1128.47 426.499
1156 0 221.245 11.6206 2571 92.7472 1128.63 423.836
1157 0 229.389 12.4723 2861 90.8448 1128.79 419.389
1158 0 235.452 11.8283 2785 93.5713 1128.5 414.878
1159 0 243.542 11.4066 2778 93.6242 1128.22 411.65
1160 0 247.356 11.5906 2867 94.7426 1128.03 406.39
1161 1 50.1073 8.68138 435 78.446 1129.95 510.214
1162 0 53.0936 8.94646 475 74.5263 1130.62 510.046
1163 0 53.2374 9.54215 508 82.2835 1130.11 507.657
1164 0 54.0772 8.45089 457 77.291 1129.9 506.691
1165 0 53.0396 8.20143 435 70.7977 1129.14 509.025
1166 0 54.1015 8.33619 451 71.2616 1129.74 508.51
1167 0 56.119 8.42852 473 72.0381 1129.78 507.501
1168 0 58.1054 8.38133 487 72.3183 1129.62 507.924
1169 0 61.087 8.56156 523 73.0746 1129.11 504.725
1170 0 63.1082 9.91948 626 71.9329 1129.24 505.497
1171 0 64.1683 9.50625 610 74.2607 1129.02 504.782
1172 0 67.1221 10.0116 672 74.1101 1129.12 503.26
1173 0 68.0783 10.4585 712 74.6138 1129.14 503.473
1174 0 70.063 10.5048 736 75.7038 1128.48 501.125
1175 0 72.0858 10.3072 743 77.0592 1128.55 499.026
1176 0 76.0842 10.9353 832 76.9459 1128.73 500.132
1177 0 77.0806 10.7161 826 80.0714 1129.17 497.775
1178 0 80.1391 10.644 853 79.5358 1127.78 498.127
1179 0 82.0833 10.2579 842 80.1259 1128.36 496.056
1180 0 84.1794 10.6558 897 88.1817 1128.32 492.316
1181 0 87.0721 10.5545 919 87.7399 1128.71 493.859
1182 0 91.1254 10.4801 955 85.1026 1128.54 494.068
1183 0 92.084 10.8488 999 85.5235 1128.17 493.041
1184 0 95.1123 9.96716 948 87.7458 1128.22 490.084
1185 1 51.0434 8.81603 450 78.32 1128.21 513.976
1186 0 53.085 9.94632 528 78.1648 1129.12 510.438
1187 0 54.1364 10.2149 553 79.8137 1128.65 511.072
1188 0 55.0884 10.6011 584 77.1353 1129.07 510.702
1189 0 58.0359 11.2344 652 76.5092 1128.86 509.235
1190 0 58.1712 11.3286 659 77.9196 1128.72 508.932
1191 0 62.2302 11.5057 716 77.1494 1129.05 507.732
1192 0 61.0819 10.8543 663 79.0694 1128.98 508.113
1193 0 63.0698 10.9403 690 79.6 1128.99 506.813
1194 0 65.0763 10.5876 689 80.193 1129.3 506.882
1195 0 66.1343 10.267 679 81.6318 1128.74 506.434
1196 0 66.1096 9.99855 661 94.5961 1128.77 504.483
1197 0 71.0975 10.788 767 83.3755 1129.42 503.682
1198 0 71.0745 10.1443 721 85.8974 1129.02 503.058
1199 0 73.1011 11.2584 823 85.859 1128.98 503.563
1200 0 78.1385 11.8764 928 84.6196 1128.91 502.913
1201 0 79.1114 11.7429 929 88.8353 1128.61 500.71
1202 0 82.1394 11.9309 980 89.0439 1128.91 499.991
1203 0 83.1239 12.1144 1007 90.4667 1128.87 499.031
1204 0 86.2538 11.9879 1034 93.3443 1128.84 497.302
1205 0 88.103 12.4173 1094 94.9525 1128.6 497.544
1206 0 92.1283 12.7648 1176 95.148 1128.89 495.793
1207 0 95.1234 12.878 1225 97.0669 1128.89 493.091
1208 0 97.1141 12.9332 1256 99.6974 1128.54 490.548
1209 0 101.073 12.3475 1248 100.106 1129.68 490.354
1210 0 103.143 11.8089 1218 103.697 1128.96 487.793
1211 0 106.141 11.6543 1237 98.6532 1128.17 486.447
1212 0 109.196 12.8851 1407 95.6048 1128.64 483.739
1213 1 63.1455 11.3389 716 98.852 1128.77 508.737
1214 0 64.1916 11.6059 745 101.697 1128.4 506.993
1215 0 64.1808 11.8571 761 95.7346 1129.65 506.568
1216 0 68.1187 11.7736 802 93.8878 1129.44 506.296
1217 0 71.1556 11.7348 835 97.0204 1128.2 505.576
1218 0 71.2246 12.2008 869 91.5535 1128.12 504.352
1219 0 73.2409 12.2473 897 90.0412 1128.33 502.624
1220 0 74.1511 11.3687 843 92.3428 1128.3 501.972
1221 0 77.1911 11.8926 918 89.1667 1128.44 500.96
1222 0 79.1877 12.161 963 87.3801 1128.57 500.161
1223 0 82.1272 11.8353 972 86.7778 1129.06 498.971
1224 0 85.0624 11.8619 1009 87.5084 1129.46 498.265
1225 0 87.1468 11.6585 1016 87.9518 1129.76 496.043
1226 0 93.14 11.939 1112 88.2635 1128.8 493.953
1227 0 96.173 12.1656 1170 88.5248 1128.93 492.585
1228 1 48.0365 10.7626 517 86.1373 1129.38 514.112
1229 0 50.0859 11.8596 594 81.9074 1129.12 514.513
1230 0 50.1621 11.8017 592 81.022 1129.27 511.821
1231 0 53.1625 11.6624 620 80.1919 1128.89 511.79
1232 0 52.1368 11.2013 584 82.8014 1129.37 511.291
1233 0 54.1918 11.6807 633 81.2622 1129.35 509.186
1234 0 55.1082 11.7587 648 82.0741 1129.48 509.168
1235 0 56.1597 11.3783 639 83.3631 1130.69 509.225
1236 0 58.2241 11.2153 653 85.7917 1129.56 507.303
1237 0 60.0847 11.3673 683 84.8975 1129.09 508.259
1238 0 61.1252 11.4028 697 83.8321 1129.56 509.132
1239 0 63.2104 10.2989 651 86.5684 1129.17 508.912
1240 0 65.1574 11.6334 758 83.9828 1130.2 507.352
1241 0 66.1856 11.5584 765 83.5399 1129.62 504.825
1242 0 69.1562 11.8283 818 84.9046 1129.48 502.046
1243 0 73.1551 11.8789 869 83.2831 1129.53 500.871
1244 0 74.0897 11.4861 851 83.4266 1130.05 500.08
1245 0 76.1737 11.9595 911 82.775 1130.85 497.361
1246 0 78.0882 11.5382 901 83.8668 1129.67 495.156
1247 0 82.2368 12.0992 995 82.0392 1129.56 493.449
1248 0 85.1081 12.3138 1048 82.1966 1129.08 493.818
1249 0 88.1989 12.9934 1146 81.9503 1129.13 490.497
1250 0 92.198 12.6901 1170 84.3479 1129.78 491.335
1251 0 94.17 12.3606 1164 86.2294 1129.77 488.879
1252 0 97.182 12.9448 1258 85.5429 1129.41 487.866
1253 0 98.1279 11.964 1174 87.333 1130.18 487.832
1254 0 102.167 11.9216 1218 87.3793 1129.38 485.837
1255 1 53.0774 10.0043 531 82.8343 1131.16 509.64
1256 0 56.0466 10.1166 567 80.7213 1131.11 506.406
1257 0 59.0559 11.2266 663 78.2308 1131.64 506.37
1258 0 58.1054 10.9112 634 79.0252 1131.22 504.356
1259 0 61.1679 11.3949 697 76.3099 1130.49 503.743
1260 0 64.192 10.9671 704 77.0923 1130.14 502.979
1261 0 65.1009 11.198 729 76.3347 1130.18 502.774
1262 0 67.1138 10.9367 734 75.4741 1130.36 500.061
1263 0 71.1585 10.8912 775 74.9136 1130.62 498.684
1264 0 73.039 11.5418 843 74.1424 1130.71 498.063
1265 0 73.1291 10.8712 795 75.1421 1130.77 496.991
1266 0 77.0653 11.925 919 73.7552 1130.43 495.254
1267 0 79.1277 11.7911 933 74.9936 1130.5 495.181
1268 0 80.1695 11.7626 943 75.2195 1130.51 493.397
1269 0 82.1055 11.7044 961 77.1915 1129.57 492.08
1270 0 85.1584 11.7193 998 77.983 1129.49 491.777
1271 0 89.1612 10.61 946 82.1353 1129.27 489.255
1272 0 92.1463 11.2647 1038 81.2572 1128.99 487.435
1273 0 94.1106 11.2102 1055 81.6626 1129.12 485.597
1274 0 97.1553 10.8795 1057 82.106 1129.41 484.14
1275 0 101.201 10.6027 1073 82.2842 1130.09 482.076
1276 1 56.1147 10.336 580 78.5845 1130.23 505.941
1277 0 58.0587 11.0061 639 78.5869 1130.43 505.094
1278 0 58.0623 11.3154 657 82.5388 1130.01 503.731
1279 0 61.0524 12.3009 751 81.8415 1130.04 501.322
1280 0 60.0142 10.5308 632 76.1424 1129.35 505.473
1281 0 61.0324 10.4043 635 77.9291 1128.91 504.006
1282 0 66.0377 11.7357 775 73.6981 1129.27 502.185
1283 0 65.0389 11.1626 726 75.3719 1129.4 500.912
1284 0 69.0508 11.1078 767 76.545 1129.62 499.849
1285 0 71.0406 11.599 824 77.8604 1129.87 499.164
1286 0 71.0634 10.962 779 81.2413 1129.64 498.761
1287 0 75.0954 11.5586 868 80.0115 1129.65 495.468
1288 0 79.0743 12.5704 994 76.6398 1129.95 495.954
1289 0 81.0933 11.5423 936 78.3109 1129.89 494.369
1290 0 84.0481 12.2787 1032 76.688 1130.06 495.753
1291 0 87.0306 12.0188 1046 77.6329 1130.14 494.384
1292 0 90.0418 11.7834 1061 79.0113 1129.79 492.314
1293 0 91.1239 11.0619 1008 81.6339 1129.46 491.308
1294 0 96.1437 11.9405 1148 79.5871 1129.26 487.077
1295 0 99.2003 12.5604 1246 78.0634 1129.74 484.647
1296 1 54.0314 11.4378 618 80.5243 1130.02 505.778
1297 0 57.0979 11.7342 670 81.1433 1129.99 506.222
1298 0 58.0945 12.2387 711 83.7173 1129.98 504.072
1299 0 59.0186 12.8604 759 78.834 1130.05 504.523
1300 0 60.0514 12.406 745 79.3208 1130.73 505.158
1301 0 61.0598 13.0364 796 78.7374 1130.66 502.97
1302 0 65.0118 12.5823 818 78.1968 1130.78 501.859
1303 0 66.0166 12.4666 823 78.8992 1130.04 500.739
1304 0 68.0331 12.8614 875 77.8914 1130.24 499.061
1305 0 69.0479 12.933 893 77.4233 1129.79 499.851
1306 0 72.0439 12.6451 911 77.9265 1130.18 498.236
1307 0 74.1176 12.6691 939 76.7199 1130.04 499.411
1308 0 76.0322 12.2317 930 79.1247 1129.51 495.777
1309 0 79.0603 12.5347 991 78.1352 1129.35 495.908
1310 0 81.0366 12.809 1038 78.3102 1129.22 493.882
1311 0 80.0717 12.6637 1014 80.4694 1129.61 494.459
1312 0 84.0326 13.5543 1139 80.6532 1129.25 493.149
1313 0 86.0387 12.0295 1035 82.0348 1129.15 492.515
1314 0 87.0695 11.9789 1043 83.557 1129.18 491.769
1315 0 91.0522 12.4544 1134 83.1958 1129.22 490.177
1316 0 95.0551 12.6663 1204 84.0689 1129.21 489.584
1317 0 94.0327 11.5066 1082 86.6904 1129.07 489.849
1318 0 100.058 12.6827 1269 84.5808 1129.2 487.111
1319 1 50.0219 10.8752 544 85.8879 1128.99 511.388
1320 0 54.0346 11.4926 621 85.7005 1129.16 509.404
1321 0 55.0227 11.4316 629 89.5866 1128.94 508.684
1322 0 58.0441 11.7841 684 87.924 1129.24 508.289
1323 0 55.0227 11.2499 619 81.5315 1129.21 507.719
1324 0 59.0522 11.4306 675 80.2874 1129.54 507.117
1325 0 60.0506 10.2747 617 81.3387 1129.82 506.421
1326 0 62.0478 11.6684 724 78.9627 1131.16 504.355
1327 0 66.1311 10.7967 714 79.5112 1130.7 503.609
1328 0 67.0306 10.9055 731 80.974 1130 503.761
1329 0 69.0956 10.4493 722 81.1939 1129.83 501.819
1330 0 71.11 11.3908 810 79.2309 1129.49 502.046
1331 0 74.1527 11.1931 830 79.6157 1129.48 500.108
1332 0 74.1219 11.2652 835 78.1964 1129.2 497.138
1333 0 75.0718 10.7231 805 79.1752 1129.04 497.482
1334 0 80.0854 12.3493 989 76.4864 1128.94 496.187
1335 0 81.1876 10.8391 880 79.1295 1128.99 494.052
1336 0 82.0587 11.3334 930 79.4043 1128.78 493.878
1337 0 86.2088 11.9593 1031 77.6479 1128.82 492.842
1338 0 89.2232 11.5329 1029 80.4859 1128.54 490.968
1339 0 91.1209 12.006 1094 83.4543 1128.35 487.829
1340 0 93.1258 11.2536 1048 83.4256 1128.85 489.145
1341 0 97.1304 11.8912 1155 86.929 1128.89 484.4
1342 0 101.15 11.4879 1162 86.6713 1129.15 483.028
1343 0 105.156 12.3435 1298 84.1649 1128.46 482.354
1344 0 109.345 13.1419 1437 81.5699 1127.91 480.021
1345 0 112.357 12.4425 1398 84.0129 1128.12 480.597
1346 0 116.41 12.9199 1504 83.5612 1127.66 477.328
1347 0 121.486 12.0837 1468 85.438 1128.31 474.172
1348 0 122.4 11.8709 1453 87.8878 1127.77 471.86
1349 1 67.2814 10.3446 696 82.704 1128.71 501.012
1350 0 69.2833 10.6519 738 80.8266 1129.38 503.55
1351 0 71.079 10.6923 760 77.9868 1128.8 502.882
1352 0 73.0754 11.0023 804 75.1604 1128.74 503.244
1353 0 77.0298 11.8006 909 75.8053 1128.28 497.991
1354 0 79.113 12.2609 970 75.2124 1127.66 497.861
1355 0 83.0947 11.6855 971 76.1092 1128.79 497.587
1356 0 84.0666 12.3117 1035 76.0589 1128.99 495.341
1357 0 86.0737 11.8968 1024 77.5195 1128.23 494.478
1358 0 89.139 12.0486 1074 77.5196 1128.25 492.479
1359 0 92.0846 12.2279 1126 78.8037 1128.43 491.393
1360 0 94.0251 11.9862 1127 78.961 1128.6 491.409
1361 0 97.1224 11.7069 1137 80.2788 1127.84 490.324
1362 0 99.0723 12.4354 1232 79.0901 1128.01 488.212
1363 0 102.111 11.8596 1211 80.4451 1128.42 485.95
1364 0 105.143 11.7079 1231 82.0154 1128.41 484.77
1365 0 109.329 12.22 1336 82.8204 1128.72 484.506
1366 0 112.22 11.3884 1278 91.0196 1128.75 482.088
1367 1 60.1217 9.697 583 89.9022 1128.32 508.997
1368 0 63.1516 11.2586 711 88.6765 1128.47 506.143
1369 0 65.1411 11.0069 717 89.8912 1128.33 505.569
1370 0 65.1186 11.241 732 82.8784 1127.5 503.697
1371 0 70.0739 11.5021 806 76.6278 1128.53 502.711
1372 0 69.1387 11.4986 795 78.9358 1128.65 501.015
1373 0 72.1691 11.2929 815 80.9546 1128.72 500.818
1374 0 75.1022 10.7454 807 84.083 1128.74 498.449
1375 0 78.1187 11.2905 882 83.585 1128.59 496.685
1376 0 78.2074 11.137 871 87.4638 1128.16 495.343
1377 0 82.1141 11.07 909 87.0407 1129.11 493.79
1378 0 82.1612 11.2462 924 90.9924 1128.44 494.418
1379 0 85.0982 11.7629 1001 89.032 1129.02 493.778
1380 0 84.0999 11.3674 956 94.1172 1129.33 492.589
1381 0 83.1416 10.6204 883 96.9366 1128.91 491.153
1382 0 86.1818 11.3597 979 94.9734 1129.2 491.845
1383 0 88.1926 11.078 977 92.913 1129.31 489.753
1384 0 91.3001 11.1172 1015 89.2443 1128.18 489.118
1385 1 44.1313 8.24812 364 82.0275 1128.65 514.72
1386 0 46.1587 8.38411 387 79.8062 1127.82 513.465
1387 0 46.148 9.20951 425 76.7812 1128.22 512.513
1388 0 46.18 9.37634 433 77.8453 1128.59 512.607
1389 0 49.1058 9.6119 472 76.0657 1128.19 511.28
1390 0 51.1153 9.97744 510 75.2176 1127.79 511.294
1391 0 51.1308 9.93531 508 76.748 1127.05 510.39
1392 0 52.0248 10.1106 526 78.924 1127.74 508.589
1393 0 55.1156 11.2309 619 77.643 1128.27 507.892
1394 0 53.0416 10.2938 546 81.9432 1126.81 507.454
1395 0 56.0896 10.715 601 81.6106 1127.18 507.288
1396 0 59.0614 10.887 643 83.6376 1127.06 505.647
1397 0 60.1863 10.9161 657 82.0639 1128.28 505.665
1398 0 62.0683 11.0846 688 85.0436 1128.16 503.994
1399 0 64.1862 11.1239 714 86.8473 1127.89 503.212
1400 0 66.1441 11.354 751 87.6551 1127.47 502.51
1401 0 67.1169 11.3086 759 90.9657 1127.32 502.436
1402 0 69.1825 11.7371 812 91.3781 1127.16 500.539
1403 0 70.2049 11.6659 819 91.5824 1127.52 500.438
1404 0 74.1413 11.3837 844 95.1967 1127.27 500.255
1405 0 75.1894 11.7171 881 96.1555 1127.19 499.356
1406 0 77.2137 12.4201 959 96.6006 1127.36 498.08
1407 0 79.1368 12.2446 969 97.3839 1127.89 498.772
1408 0 81.3237 12.2719 998 99.2224 1127.19 497.244
1409 0 83.1854 12.1416 1010 100.699 1126.79 494.906
1410 0 84.2089 12.3146 1037 103.011 1127.49 493.694
1411 0 88.2113 11.8012 1041 106.461 1126.79 492.455
1412 0 89.2685 11.7735 1051 108.201 1128.04 492.633
1413 0 94.304 11.8129 1114 106.954 1127.85 491.411
1414 0 94.2113 11.9625 1127 107.602 1127.93 490.346
1415 0 96.2283 11.6598 1122 108.578 1127.54 488.59
1416 0 99.3502 12.31 1223 107.733 1127.49 488.473
1417 0 102.225 11.5333 1179 109.726 1128 487.952
1418 0 104.17 11.558 1204 107.273 1127.02 485.984
1419 0 107.196 11.4556 1228 107.106 1127.72 483.755
1420 0 111.305 12.1108 1348 103.594 1127.3 483.15
1421 0 113.363 12.0762 1369 104.207 1127.51 481.424
1422 1 63.1435 10.6583 673 105.551 1128.46 504.397
1423 0 63.1854 11.3634 718 103.887 1128.18 503.032
1424 0 66.1767 12.1191 802 101.515 1128.27 501.354
1425 0 67.1817 12.042 809 102.796 1128.62 500.507
1426 0 68.2912 11.8903 812 103.61 1128.68 499.267
1427 0 68.2082 12.3152 840 104.608 1129.01 498.289
1428 0 70.2276 12.5592 882 104.533 1128.63 497.33
1429 0 74.2741 12.6154 937 102.011 1128.49 496.138
1430 0 74.2689 12.1585 903 103.208 1128.66 495.299
1431 0 76.2708 12.3507 942 101.522 1129.09 493.386
1432 0 77.1377 11.6804 901 101.458 1128.87 496.065
1433 0 78.1835 11.3323 886 102.394 1129.15 494.656
1434 0 81.1854 11.8494 962 98.7921 1129.57 493.739
1435 0 81.1598 11.7792 956 100.23 1129.25 493.352
1436 0 82.0896 11.0854 910 100.837 1129.41 491.229
1437 0 86.1816 11.8703 1023 97.8397 1128.73 490.994
1438 0 88.1234 11.4612 1010 99.7366 1128.81 488.615
1439 0 92.1598 11.7513 1083 97.2428 1129.26 487.705
1440 0 94.0763 12.0222 1131 97.4545 1129.17 486.325
1441 0 99.106 11.3515 1125 98.4587 1128.89 485.538
1442 0 102.113 11.4188 1166 92.6904 1127.87 485.375
1443 0 109.073 9.11317 994 98.4316 1128.77 490.959
1444 0 111.196 13.3009 1479 91.835 1128.81 481.162
1445 0 112.163 12.1698 1365 95.2608 1128.3 482.755
1446 0 115.177 11.7558 1354 97.3944 1128.9 481.061
1447 1 64.153 13.0313 836 98.6041 1128.73 501.432
1448 0 66.0511 13.7167 906 96.7417 1128.68 499.187
1449 0 67.1404 13.1813 885 99.035 1127.97 498.54
1450 0 69.185 13.1676 911 100.693 1127.99 497.67
1451 0 72.0777 13.8739 1000 98.882 1127.7 495.707
1452 0 72.0727 13.6113 981 101.262 1127.32 494.593
1453 0 74.0948 13.8606 1027 101.004 1128.07 495.369
1454 0 76.0925 13.5624 1032 104.017 1128.28 493.134
1455 0 80.0478 13.8292 1107 103.196 1128.14 492.939
1456 0 81.1705 13.8351 1123 104.504 1128.5 492.96
1457 0 86.0854 14.6599 1262 102.042 1128.8 491.516
1458 0 88.1829 13.9369 1229 104.105 1128.86 490.413
1459 0 91.1438 14.0547 1281 105.04 1127.89 489.421
1460 0 93.1261 14.1314 1316 103.973 1127.91 489.116
1461 0 94.1336 13.9058 1309 105.539 1128.08 488.988
1462 0 96.0847 13.8524 1331 106.494 1128.33 485.612
1463 0 97.104 13.2332 1285 108.024 1128.72 486.072
1464 0 100.079 14.1988 1421 105.434 1127.81 484.462
1465 0 104.098 13.8908 1446 104.871 1128.22 481.207
1466 1 50.0489 11.4688 574 100.542 1128.49 505.282
1467 0 53.021 12.6176 669 101.055 1127.8 503.676
1468 0 56.0312 12.5466 703 103.903 1127.39 505.112
1469 0 55.0188 12.2867 676 93.9556 1128.16 506.652
1470 0 58.0076 12.4294 721 97.5118 1128.01 508.66
1471 0 58.042 12.5599 729 98.1536 1127.73 506.193
1472 0 61.019 12.6846 774 98.4121 1128.05 504.606
1473 0 62.0286 12.5748 780 98.8051 1128.13 504.088
1474 0 64.031 12.8375 822 98.4136 1128.54 503.943
1475 0 66.0376 12.8563 849 98.2509 1128.47 501.416
1476 0 67.0438 12.6783 850 98.8694 1129.05 501.018
1477 0 70.0511 12.705 890 98.964 1127.85 499.496
1478 0 73.0464 13.0876 956 97.5764 1128.51 498.666
1479 0 75.0358 13.1937 990 98.1515 1128.16 497.709
1480 0 77.0635 12.7298 981 97.4179 1128.15 495.547
1481 0 79.1612 12.8219 1015 97.7832 1128.02 494.219
1482 0 82.0731 12.7691 1048 98.2548 1127.64 492.145
1483 0 85.101 12.6438 1076 100.224 1128.06 490.65
1484 0 88.1089 12.6434 1114 98.9713 1128.2 489.292
1485 0 91.0925 13.1515 1198 99.3531 1127.74 488.853
1486 0 96.1307 13.0551 1255 103.669 1127.61 484.858
1487 1 52.0491 11.5852 603 98.9436 1127.64 505.799
1488 0 56.0285 12.1724 682 92.8651 1128.25 506.796
1489 0 57.0546 12.7071 725 92.7903 1128.33 505.447
1490 0 59.0462 11.8551 700 92.5886 1128.72 504.06
1491 0 62.0364 12.2992 763 90.6697 1128.78 504.396
1492 0 65.102 13.1025 853 90.0234 1128.42 501.566
1493 0 66.096 12.8298 848 91.605 1128.78 500.584
1494 0 69.0377 13.1233 906 90.9846 1129.1 498.815
1495 0 70.061 12.8317 899 93.2258 1128.5 498.95
1496 0 71.0228 13.1929 937 94.0213 1128.5 497.723
1497 0 73.0574 12.9624 947 103.345 1128.93 496.178
1498 0 76.0614 13.1473 1000 102.545 1129.16 492.794
1499 0 82.1538 11.941 981 104.014 1129.12 491.282
1500 0 81.1398 13.0022 1055 103.168 1128.81 489.171
1501 0 84.1889 13.2321 1114 103.074 1128.92 487.164
1502 0 87.1506 13.5398 1180 102.497 1129.07 486.808
1503 0 88.1484 13.5226 1192 102.527 1128.4 484.726
1504 0 89.2107 13.2719 1184 103.972 1128.9 482.58
1505 0 94.2295 13.7537 1296 101.557 1129.49 482.9
1506 0 94.2848 13.4274 1266 102.416 1128.81 481.887
1507 0 98.3087 13.539 1331 102.549 1128.39 480.144
1508 0 100.203 13.3729 1340 102.598 1128.57 479.162
1509 0 103.239 12.8343 1325 104.257 1128.29 477.37
1510 0 109.281 13.296 1453 101.301 1128.82 477.243
1511 0 113.225 12.9918 1471 101.86 1128.19 474.838
1512 0 115.231 13.2169 1523 101.128 1127.78 472.068
1513 0 118.23 12.5433 1483 100.539 1127.58 471.106
1514 0 123.272 12.6956 1565 98.1157 1128.32 468.916
1515 0 128.19 13.4722 1727 101.867 1128.46 465.288
1516 0 133.159 13.4125 1786 101.007 1128.61 462.318
1517 0 137.232 12.4898 1714 103.462 1128.18 459.092
1518 1 76.1661 10.7922 822 94.1545 1128.68 492.723
1519 0 77.1563 11.1721 862 95.5313 1128.46 489.538
1520 0 79.0974 11.1508 882 99.2041 1129.43 488.073
1521 0 85.1783 11.7753 1003 97.6401 1130.09 487.887
1522 0 87.0824 11.9657 1042 97.1315 1129.23 485.299
1523 0 89.1386 11.7794 1050 98.1133 1129.5 484.503
1524 0 93.1471 11.7663 1096 97.2381 1129.86 482.505
1525 0 93.1471 11.7341 1093 141.923 1129.85 482.318
1526 0 99.1413 11.9426 1184 96.8142 1128.76 478.804
1527 0 101.245 12.0796 1223 95.3271 1129.32 479.686
1528 0 106.216 12.6535 1344 93.7403 1128.54 476.667
1529 0 108.213 11.9209 1290 95.1457 1128.84 476.508
1530 0 110.17 11.8907 1310 94.8809 1128.56 474.906
1531 0 113.164 11.9296 1350 95.6259 1128.92 471.402
1532 0 115.176 11.3825 1311 95.9695 1128.77 472.342
1533 1 59.0677 9.09126 537 87.0912 1129.93 497.473
1534 0 62.0494 9.08953 564 85.9823 1129.64 494.92
1535 0 66.0605 10.4752 692 76.0289 1128.3 496.991
1536 0 66.0578 9.74903 644 78.25 1129.69 495.023
1537 0 70.0678 9.86188 691 77.5239 1129.24 493.498
1538 0 71.0651 10.0753 716 77.574 1128.82 492.328
1539 0 76.0505 10.2038 776 77.7036 1129.13 491.89
1540 0 77.0428 10.5266 811 77.8409 1129.17 491.483
1541 0 80.087 10.7883 864 78.1458 1128.76 491.318
1542 0 81.0747 11.1255 902 79.1608 1128.45 489.1
1543 0 83.1615 10.6419 885 81.9073 1129.42 487.913
1544 0 84.1087 9.97519 839 84.6448 1129.02 487.682
1545 0 88.0543 10.6184 935 81.5166 1128.84 484.765
1546 0 87.0718 9.02703 786 87.1781 1128.6 485.55
1547 0 92.0474 9.16918 844 87.9265 1128.91 484.566
1548 0 97.0858 10.3517 1005 87.8607 1129.32 483.321
1549 0 98.1066 10.6517 1045 87.7282 1128.78 484.333
1550 0 102.098 10.0393 1025 89.6039 1128.73 479.77
1551 0 104.127 9.9878 1040 90.226 1128.87 480.401
1552 0 108.039 10.4685 1131 88.8727 1128.92 478.027
1553 0 112.056 10.1646 1139 89.5198 1127.94 477.003
1554 0 116.074 10.6656 1238 87.2472 1128.06 472.266
1555 1 64.0914 10.6255 681 86.4068 1128.93 501.827
1556 0 67.1232 11.1735 750 86.1627 1129.56 501.039
1557 0 69.1133 11.8356 818 84.2518 1129.42 500.445
1558 0 70.1254 11.237 788 83.1142 1129.44 497.789
1559 0 73.1315 11.5135 842 84.0808 1130.07 496.1
1560 0 73.0861 9.94718 727 89.1431 1129.24 500.31
1561 0 76.0928 10.4609 796 88.5063 1128.79 499.188
1562 0 75.0728 9.97699 749 91.5968 1128.98 499.303
1563 0 80.0527 11.5549 925 88.6162 1129.38 496.349
1564 0 82.0563 10.7487 882 90.042 1128.61 496.024
1565 0 84.1049 10.8912 916 88.8079 1128.61 494.272
1566 0 87.1212 11.7423 1023 88.0293 1128.58 492.069
1567 0 88.0727 10.9455 964 90.5446 1128.45 491.117
1568 0 92.0315 11.7568 1082 88.8447 1129.19 492.316
1569 0 96.0729 11.8452 1138 89.6775 1128.61 488.355
1570 0 97.0879 11.2269 1090 91.0037 1128.57 488.968
1571 0 101.027 11.8781 1200 89.7417 1128.6 485.18
1572 0 103.079 12.0103 1238 88.1761 1129.26 485.74
1573 0 105.051 11.442 1202 89.2146 1128.62 485.455
1574 0 108.103 11.1653 1207 90.3844 1128.49 483.809
1575 0 113.058 12.268 1387 87.088 1128.96 479.975
1576 1 59.0347 10.7056 632 86.2975 1129.44 506.217
1577 0 61.1326 12.203 746 84.7466 1128.26 503.444
1578 0 63.0751 11.2723 711 93.5443 1128.52 501.159
1579 0 65.0573 12.0509 784 81.1952 1127.71 502.233
1580 0 65.1007 11.8739 773 82.9043 1127.6 501.235
1581 0 67.0476 11.9617 802 82.6958 1128 500.298
1582 0 70.0522 12.2766 860 82.0895 1128.24 497.44
1583 0 70.0299 12.3947 868 84.5795 1127.4 498.037
1584 0 73.04 12.5137 914 86.1762 1128.14 498.444
1585 0 75.0494 12.5784 944 85.6102 1128.32 498.917
1586 0 76.0826 12.0395 916 86.9323 1128.51 497.202
1587 0 80.081 12.8994 1033 84.6408 1128.28 495.816
1588 0 80.0869 12.399 993 85.7885 1127.92 495.88
1589 0 83.119 12.7287 1058 84.4121 1127.61 493.855
1590 0 86.0922 12.7073 1094 85.5859 1127.8 491.992
1591 0 90.0631 12.8799 1160 84.619 1127.81 492.084
1592 0 92.0469 13.0151 1198 85.4783 1127.26 491.502
1593 0 90.06 11.3591 1023 91.9453 1127.65 490.406
1594 0 93.0619 11.6052 1080 90.5268 1127.16 489.392
1595 0 97.0388 11.6654 1132 91.1272 1127.51 489.743
1596 0 100.097 12.6377 1265 95.2348 1127.59 487.797
1597 0 105.06 12.945 1360 95.3757 1127.27 485.517
1598 0 107.063 12.4973 1338 95.3288 1126.89 483.938
1599 1 59.0091 11.4559 676 97.4172 1126.94 506.303
1600 0 61.0725 11.6419 711 94.7834 1127.27 503.608
1601 0 63.0845 12.729 803 83.8705 1127.79 501.545
1602 0 65.0627 12.6801 825 86.0073 1127.83 501.704
1603 0 67.1079 12.3383 828 87.0495 1128.27 501.175
1604 0 68.0892 12.2486 834 89.1775 1127.85 501.206
1605 0 69.0645 13.1471 908 89.011 1128.27 500.567
1606 0 72.1202 12.1325 875 89.6194 1127.77 500.192
1607 0 75.1313 12.9107 970 86.4918 1127.88 496.944
1608 0 76.103 12.8904 981 87.7543 1128.25 495.903
1609 0 80.1175 12.8312 1028 86.9066 1128.26 494.326
1610 0 82.0993 12.8259 1053 87.472 1127.93 493.618
1611 0 84.173 13.4128 1129 86.5004 1128.16 491.139
1612 0 87.2176 13.5294 1180 87.3051 1128.37 491.565
1613 0 87.265 12.0667 1053 93.7426 1128.39 492.934
1614 0 89.3137 12.4505 1112 94.2878 1128.69 491.126
1615 0 91.2159 12.3772 1129 96.1851 1127.93 489.657
1616 0 96.3398 11.9888 1155 94.3238 1128.67 489.616
1617 0 98.2419 12.4489 1223 95.3279 1127.88 487.447
1618 0 99.1442 12.4163 1231 97.0918 1127.99 484.652
1619 0 104.211 11.8605 1236 97.1602 1127.96 483.171
1620 1 58.1157 12.3375 717 103.958 1128.43 506.506
1621 0 59.1159 12.8054 757 101.871 1127.93 505.013
1622 0 61.1563 13.1793 806 102.501 1127.73 504.015
1623 0 62.0758 12.6458 785 107.748 1127.06 505.166
1624 0 64.0575 13.0508 836 107.95 1126.43 501.591
1625 0 67.0752 13.2389 888 105.873 1127.27 501.886
1626 0 68.078 13.3817 911 104.349 1127.37 501.594
1627 0 71.083 13.4209 954 103.682 1126.81 500.461
1628 0 73.0707 13.6717 999 103.005 1127.76 499.592
1629 0 76.0741 13.6577 1039 103.074 1127.83 498.639
1630 0 76.1015 13.39 1019 105.042 1128.27 497.455
1631 0 81.0622 13.8659 1124 100.332 1127.72 495.459
1632 0 84.0935 14.3769 1209 97.8213 1127.72 495.196
1633 0 84.0877 13.8427 1164 99.396 1128.01 494.495
1634 0 89.0836 13.8522 1234 97.3379 1128 493.577
1635 0 92.1328 13.6868 1261 98.1213 1127.85 490.347
1636 0 93.1288 14.0665 1310 96.9321 1127.59 489.937
1637 0 96.1066 13.7452 1321 98.5995 1127.87 488.646
1638 0 99.1073 13.3996 1328 99.6099 1127.77 488.484
1639 0 102.171 12.9098 1319 101.501 1127.49 486.215
1640 0 104.242 13.6317 1421 99.8473 1128.02 484.464
1641 1 54.1112 11.846 641 94.9532 1128.46 508.81
1642 0 55.1124 11.9937 661 93.6248 1128.46 507.629
1643 0 57.1355 12.8292 733 92.1746 1128.68 506.66
1644 0 59.0829 13.2018 780 88.491 1128.18 507.2
1645 0 62.0302 12.6551 785 99.4497 1128.78 504.731
1646 0 62.1021 13.1397 816 97.0049 1128.34 504.547
1647 0 65.0494 13.2207 860 92.4279 1128.47 502.67
1648 0 66.0804 13.5895 898 87.5869 1128.76 503.531
1649 0 67.0772 12.5825 844 90.3708 1128.29 502.392
1650 0 68.1604 12.5293 854 92.815 1128.62 500.28
1651 0 71.0892 12.7586 907 93.7883 1128.12 499.938
1652 0 74.1057 12.6441 937 97.5688 1127.91 496.338
1653 0 76.0746 13.1319 999 96.4444 1127.98 497.312
1654 0 76.2478 12.8266 978 96.9765 1128.23 497.438
1655 0 80.1512 12.8008 1026 97.3655 1128.21 494.964
1656 0 82.1297 12.8212 1053 97.0256 1127.75 494.229
1657 0 83.1369 12.7982 1064 98.468 1127.85 492.815
1658 0 86.071 12.8382 1105 99.0262 1127.78 491.033
1659 0 89.1732 13.0757 1166 95.9511 1127.61 489.875
1660 0 92.1462 13.153 1212 96.8746 1128.28 488.448
1661 0 94.2313 13.2016 1244 98.1897 1128.22 486.752
1662 0 97.26 13.1606 1280 98.6172 1128.68 484.959
1663 0 100.175 12.6578 1268 100.387 1128.04 482.468
1664 0 103.17 13.1433 1356 99.4993 1127.64 480.299
1665 0 107.194 13.1817 1413 98.4551 1128.69 479.118
1666 0 109.366 12.6274 1381 102.154 1128.12 477.164
1667 0 112.17 13.1051 1470 100.828 1127.6 475.648
1668 1 56.1251 10.7617 604 103.603 1127.55 503.702
1669 0 60.1228 11.8424 712 101.522 1127.56 501.761
1670 0 60.2228 12.3375 743 103.04 1128.13 500.174
1671 0 64.0895 13.2315 848 101.403 1127.65 499.741
1672 0 64.194 13.0853 840 104.571 1127.53 498.593
1673 0 68.1534 13.8805 946 101.006 1127.8 497.105
1674 0 70.1118 13.6782 959 101.64 1127.36 496.701
1675 0 73.139 13.905 1017 101.287 1127.32 495.494
1676 0 74.1865 13.7896 1023 102.575 1127.6 494.414
1677 0 77.1657 13.6719 1055 102.086 1127.95 493.557
1678 0 77.1427 13.4685 1039 103.505 1127.93 492.815
1679 0 79.2613 13.7772 1092 103.102 1127.25 491.464
1680 0 83.2181 13.759 1145 103.241 1126.68 490.063
1681 0 86.1332 14.0248 1208 103.688 1127.3 489.401
1682 0 86.2071 13.7344 1184 105.354 1126.73 488.579
1683 0 90.1489 13.866 1250 105.893 1127.13 487.849
1684 0 91.1432 13.8354 1261 107.26 1127.51 486.13
1685 0 93.2084 14.1189 1316 105.251 1127.05 484.497
1686 0 96.1048 13.683 1315 105.764 1127.51 485.69
1687 0 99.1743 13.8443 1373 103.56 1127.98 484.9
1688 0 105.122 14.6212 1537 99.566 1128.28 480.077
1689 0 105.093 14.0161 1473 101.749 1128.36 481.798
1690 0 109.212 13.3959 1463 103.792 1128.01 478.938
1691 0 114.216 13.4307 1534 103.184 1127.27 476.107
1692 1 64.0679 11.8624 760 103.893 1127.72 501.932
1693 0 67.1088 12.517 840 104.932 1128.02 500.126
1694 0 67.1368 12.616 847 103.7 1127.5 497.391
1695 0 70.1163 12.8073 898 103.454 1127.58 497.449
1696 0 69.1145 12.0959 836 97.9426 1127.69 497.754
1697 0 71.1608 12.6615 901 104.691 1127.84 499.448
1698 0 73.1237 12.5814 920 106.224 1127.05 497.346
1699 0 78.1567 12.782 999 106.672 1127.39 496.707
1700 0 81.1144 13.1913 1070 110.86 1126.99 493.815
1701 0 84.2468 13.6029 1146 113.406 1127.9 492.012
1702 0 87.2027 12.7175 1109 116.887 1127.77 490.395
1703 0 88.1695 13.6895 1207 115.355 1127.79 488.461
1704 0 93.1875 13.7894 1285 114.672 1127.99 487.773
1705 0 93.1403 12.7872 1191 118.728 1128.15 486.129
1706 0 95.1465 13.0641 1243 115.915 1128.19 484.99
1707 0 99.2833 13.0334 1294 113.651 1128.17 484.949
1708 0 102.312 12.4717 1276 114.701 1127.41 481.343
1709 1 59.1078 11.6567 689 109.328 1127.86 503.428
1710 0 58.0736 11.5715 672 112.365 1127.96 503.554
1711 0 60.0257 12.0782 725 110.532 1128 503.234
1712 0 62.0283 12.5265 777 106.716 1128.02 500.861
1713 0 63.11 13.3259 841 102.038 1128.11 502.207
1714 0 66.1309 11.825 782 112.871 1128.62 499.256
1715 0 68.0537 11.7995 803 112.478 1128.79 498.451
1716 0 72.1716 12.1932 880 110.493 1128.48 496.566
1717 0 72.1971 11.7041 845 110.115 1128.8 494.901
1718 0 73.1983 11.2161 821 112.275 1128.56 490.73
1719 0 78.1903 11.536 902 109.743 1128.29 492.455
1720 0 81.1322 12.0174 975 107.892 1127.71 490.363
1721 0 83.151 12.9283 1075 104.582 1128.47 489.747
1722 0 82.2264 12.0399 990 107.147 1128.15 486.541
1723 0 86.1584 11.328 976 107.751 1128.14 485.82
1724 0 89.1458 11.7448 1047 105.953 1128.89 484.059
1725 0 92.1224 12.0275 1108 105.225 1128.86 483.036
1726 0 96.1863 12.7669 1228 95.1327 1128.26 482.35
1727 0 99.1265 11.9141 1181 101.269 1128.06 480.668
1728 0 100.166 11.7205 1174 103.675 1128.08 478.9
1729 1 54.1508 10.0275 543 100.884 1128.48 501.692
1730 0 55.1245 10.5398 581 100.076 1127.91 499.157
1731 0 56.0907 11.3031 634 97.9574 1127.98 499.347
1732 0 60.1067 11.9121 716 95.1704 1127.79 498.599
1733 0 63.1285 11.6904 738 95.393 1128.11 497.382
1734 0 60.0361 11.693 702 97.3818 1128.15 495.853
1735 0 67.062 12.138 814 93.2568 1127.71 496.243
1736 0 66.0537 12.2779 811 95.9457 1128.09 493.666
1737 0 71.0656 12.3407 877 94.7548 1127.98 492.562
1738 0 73.066 12.3997 906 95.6932 1127.52 492.76
1739 0 73.051 11.3072 826 99.9673 1128.04 490.678
1740 0 81.0887 11.062 897 99.1828 1128.19 490.609
1741 0 81.1042 12.0586 978 97.5296 1128.61 489.339
1742 0 82.0709 11.2829 926 99.662 1128.3 489.881
1743 0 85.0657 11.6968 995 98.5387 1128.05 486.25
1744 0 87.0724 11.5995 1010 99.1871 1127.73 484.652
1745 0 88.0745 11.354 1000 100.883 1127.15 485.219
1746 0 93.1274 11.6078 1081 99.3497 1127.16 483.11
1747 0 95.126 11.921 1134 100.229 1127.31 481.792
1748 0 97.0859 11.9791 1163 101.443 1128.17 480.97
1749 0 101.124 12.3907 1253 97.2378 1127.8 479.095
1750 1 52.0385 10.3769 540 95.1018 1126.87 503.402
1751 0 55.0312 10.594 583 95.4082 1126.84 502.569
1752 0 58.0541 11.4548 665 82.7639 1127.28 501.865
1753 0 60.073 11.253 676 79.9541 1127.32 500.571
1754 0 61.059 11.2187 685 80.2905 1126.73 501.013
1755 0 63.0863 10.8581 685 80.0175 1127.01 497.912
1756 0 61.0215 10.6192 648 80.8719 1127.46 498.773
1757 0 68.1034 11.6881 796 77.059 1127.63 498.347
1758 0 72.1292 12.3806 893 74.9608 1126.85 496.981
1759 0 73.1572 11.9059 871 77.3157 1126.96 496.987
1760 0 73.0862 11.1923 818 80.2555 1127.21 495.104
1761 0 73.0954 11.2593 823 128.081 1127.22 495.164
1762 0 79.124 12.2719 971 80.484 1127.67 492.007
1763 0 82.1213 12.3476 1014 80.4763 1127.4 490.583
1764 0 83.0549 12.0282 999 82.8498 1127.42 488.05
1765 0 85.0791 11.7185 997 83.8164 1127.57 487.872
1766 0 89.0761 12.4163 1106 83.151 1127.86 484.948
1767 0 91.0942 12.0425 1097 84.6855 1127.44 482.615
1768 0 94.1329 12.4292 1170 85.1248 1127.13 481.408
1769 0 96.1085 12.4339 1195 88.4167 1127.24 480.178
1770 0 99.1139 12.7429 1263 94.3412 1126.85 480.236
1771 0 99.0823 11.2129 1111 92.9343 1126.31 481.594
1772 0 102.093 11.421 1166 93.4039 1126.84 480.907
1773 0 107.049 11.9197 1276 93.348 1126.77 477.457
1774 1 58.0496 10.6116 616 94.7192 1126.87 502.08
1775 0 60.0297 11.4776 689 89.3803 1127.09 501.074
1776 0 63.075 11.4467 722 90.7673 1127.22 500.472
1777 0 67.062 11.5416 774 90.3075 1127.47 499.264
1778 0 69.033 12.0667 833 92.4574 1129.18 497.85
1779 0 71.045 12.3584 878 92.9692 1128.82 496.595
1780 0 74.1003 12.2537 908 93.0176 1128.91 495.471
1781 0 76.0339 12.5602 955 93.4136 1129.06 494.892
1782 0 79.0778 12.3549 977 93.9632 1128.88 493.508
1783 0 82.0546 12.7598 1047 93.8023 1129.04 492.607
1784 0 83.0447 13.2218 1098 93.4062 1129.09 490.888
1785 0 86.0867 13.1031 1128 94.5204 1129.33 489.198
1786 0 88.0817 13.2264 1165 95.0936 1129.17 489.72
1787 0 92.0458 13.2325 1218 95.8768 1129.3 489.183
1788 0 93.0572 13.7012 1275 96.0722 1129.62 487.497
1789 0 95.0842 13.2409 1259 97.2844 1129.42 487.811
1790 0 100.044 14.0838 1409 93.9155 1129.91 485.6
1791 0 98.0667 12.3895 1215 102.314 1129.65 481.077
1792 0 104.078 14.028 1460 97.4589 1129.59 482.558
1793 0 107.07 13.7947 1477 99.1618 1128.8 481.447
1794 0 110.083 13.1628 1449 100.527 1128.89 479.088
1795 1 59.0607 10.3961 614 99.373 1129.06 506.502
1796 0 61.0569 11.5138 703 94.9459 1128.02 504.424
1797 0 65.064 11.7884 767 99.6858 1128.87 502.321
1798 0 66.1276 12.4305 822 98.0073 1127.91 501.321
1799 0 67.048 12.8565 862 98.4826 1128.35 501.382
1800 0 69.0629 12.3366 852 101.367 1128.14 500.702
1801 0 73.0474 12.7451 931 97.6155 1128.04 499.422
1802 0 76.0253 12.7589 970 98.1495 1127.76 498.373
1803 0 78.044 13.3514 1042 97.9501 1127.93 495.801
1804 0 80.0444 12.8804 1031 99.3007 1127.57 495.63
1805 0 82.0537 13.1377 1078 99.3126 1127.55 494.279
1806 0 85.0809 13.0347 1109 99.3859 1128.25 493.453
1807 0 88.0724 12.9666 1142 99.0324 1128.43 492.83
1808 0 89.0568 13.6879 1219 98.6842 1127.93 491.517
1809 0 92.0579 13.2634 1221 99.9451 1128.35 488.686
1810 0 92.0991 13.2249 1218 101.702 1127.93 487.239
1811 0 95.1124 13.1949 1255 100.469 1127.88 487.858
1812 0 99.0877 13.2206 1310 100.909 1127.77 485.682
1813 0 99.0877 13.1903 1307 164.824 1127.76 485.625
1814 0 104.133 12.6088 1313 96.671 1127.3 484.088
1815 0 106.15 12.1055 1285 96.891 1127.57 481.839
1816 0 110.185 12.1433 1338 96.3072 1127.59 481.251
1817 1 56.0438 11.152 625 99.9264 1127.59 506.544
1818 0 57.0655 11.6182 663 101.546 1127.9 506.857
1819 0 58.1341 11.8003 686 102.074 1126.73 505.217
1820 0 60.1082 12.1281 729 99.3484 1128.25 504.187
1821 0 62.1146 12.1549 755 100.625 1128.08 503.291
1822 0 63.1623 12.3808 782 100.852 1128.05 502.161
1823 0 64.0489 12.5529 804 101.746 1127.84 501.835
1824 0 67.0647 12.1674 816 101.219 1128.14 501.274
1825 0 68.0993 12.6139 859 101.575 1128.14 500.291
1826 0 72.0711 12.8484 926 101.975 1127.89 498.937
1827 0 72.1704 12.6645 914 103.953 1128.2 497.996
1828 0 76.1004 12.996 989 103.337 1127.79 496.733
1829 0 76.1203 13.0977 997 104.466 1127.57 494.956
1830 0 75.1126 12.1285 911 101.957 1127.31 497.957
1831 0 80.0873 12.9484 1037 107.851 1127.47 493.575
1832 0 80.1437 12.6897 1017 110.712 1127.63 492.371
1833 0 84.2339 13.5812 1144 108.442 1127.74 490.212
1834 0 85.293 12.9905 1108 111.423 1127.63 490.235
1835 0 88.1967 13.0617 1152 110.838 1128.01 489.129
1836 0 90.2222 13.2894 1199 109.87 1127.75 488.194
1837 0 92.2022 12.9173 1191 113.838 1127.38 487.068
1838 0 93.1883 13.2849 1238 113.186 1127.98 485.507
1839 0 96.1268 13.4926 1297 110.395 1127.97 485.234
1840 0 97.2658 12.7794 1243 113.681 1127.7 484.511
1841 0 99.2141 12.4781 1238 115.636 1127.66 482.564
1842 0 102.248 13.1445 1344 106.566 1127.57 481.696
1843 0 104.081 12.644 1316 111.406 1127.71 479.274
1844 0 109.168 13.4838 1472 108.679 1127.8 477.796
1845 0 113.181 13.2796 1503 109.756 1128.04 475.007
1846 0 116.218 12.5195 1455 111.49 1128.02 472.845
1847 0 118.167 12.6178 1491 112.581 1128.07 471.622
1848 0 122.158 12.4511 1521 113.472 1127.76 471.632
1849 0 127.218 13.3 1692 109.483 1127.75 470.824
1850 0 133.26 13.0422 1738 109.717 1127.98 466.016
1851 1 68.0858 11.5736 788 107.513 1128 498.543
1852 0 68.0465 11.5068 783 102.834 1126.73 496.186
1853 0 71.1654 11.396 811 98.5919 1127.12 493.932
1854 0 74.0777 12.0279 891 102.879 1127.65 495.153
1855 0 76.1448 12.9622 987 104.574 1127.25 493.355
1856 0 79.082 12.3669 978 108.488 1127.96 493.053
1857 0 80.1023 12.6963 1017 107.231 1127.47 491.786
1858 0 83.155 13.108 1090 106.96 1127.5 490.062
1859 0 85.1004 12.8437 1093 107.838 1127.73 489.905
1860 0 87.1753 12.71 1108 108.483 1127.54 487.869
1861 0 89.1837 12.0538 1075 110.788 1127.79 487.286
1862 0 91.1282 12.3014 1121 109.301 1127.7 486.851
1863 0 95.17 12.4724 1187 108.006 1127.84 483.776
1864 0 96.0738 12.1885 1171 108.225 1127.72 481.967
1865 0 100.06 12.4425 1245 104.789 1127.93 482.299
1866 0 105.12 12.6237 1327 103.312 1128.24 481.613
1867 0 108.152 12.5564 1358 102.963 1127.9 480.498
1868 0 110.081 12.5634 1383 102.133 1127.51 475.875
1869 0 112.083 11.7413 1316 102.332 1127.34 474.205
1870 0 116.146 12.3981 1440 91.4271 1127.39 472.336
1871 0 121.119 12.3349 1494 90.5884 1127.86 471.135
1872 1 69.1648 11.5232 797 88.4755 1127.68 497.912
1873 0 71.2259 11.7233 835 87.0922 1127.09 496.236
1874 0 73.1908 11.9004 871 90.6303 1127.62 495.774
1875 0 77.2417 12.5321 968 93.0258 1128.06 493.593
1876 0 79.2024 12.7774 1012 85.6186 1128 493.348
1877 0 81.2996 12.3986 1008 89.37 1127.64 490.484
1878 0 83.2627 12.8629 1071 90.028 1128.15 489.53
1879 0 86.1874 12.6933 1094 88.1956 1128.26 488.408
1880 0 88.2385 12.5115 1104 87.0399 1128.62 484.786
1881 0 91.201 12.8178 1169 89.5714 1128.43 484.61
1882 0 93.225 12.9901 1211 90.3443 1128.73 483.3
1883 0 96.2096 12.6287 1215 91.9045 1128.46 480.451
1884 0 98.2248 12.3899 1217 98.023 1128.65 478.876
1885 0 103.286 13.177 1361 95.6958 1128.98 479.076
1886 0 104.164 12.5091 1303 97.1888 1128.73 474.778
1887 0 109.168 12.6228 1378 96.1974 1127.89 474.471
1888 0 113.137 13.1788 1491 93.2381 1127.41 474.728
1889 0 113.202 12.3408 1397 96.4531 1127.43 470.56
1890 0 119.204 13.1036 1562 94.0019 1127.41 472.129
1891 0 121.152 13.0827 1585 93.6284 1127.47 469.703
1892 0 127.123 12.8458 1633 94.1133 1127.71 469.066
1893 0 130.139 13.4088 1745 92.3885 1128.18 466.852
1894 0 134.193 13.5402 1817 92.1051 1128.44 466.004
1895 0 137.143 13.3656 1833 92.467 1128.25 464.015
1896 0 141.19 13.28 1875 93.6629 1128.55 461.504
1897 0 144.22 12.8276 1850 95.1303 1128.77 459.842
1898 0 148.37 12.8193 1902 97.215 1128.22 456.894
1899 0 154.219 13.2474 2043 97.4371 1127.55 455.309
1900 0 158.183 13.7499 2175 96.4152 1128.22 451.905
1901 0 163.202 14.0868 2299 95.3536 1127.89 451.407
1902 0 169.162 14.1284 2390 96.1757 1128.11 449.646
1903 0 172.163 14.1261 2432 97.4108 1127.49 446.748
1904 0 179.234 14.2718 2558 98.3202 1128.43 445.249
1905 0 183.168 14.9043 2730 97.9209 1127.81 440.988
1906 0 189.217 15.2682 2889 97.9889 1128.37 440.785
1907 0 193.282 14.9212 2884 99.9619 1127.38 437.43
1908 0 200.22 15.8825 3180 98.0745 1127.2 431.794
1909 0 203.158 14.8702 3021 103.769 1127.86 432.006
1910 0 209.184 15.3215 3205 103.232 1127.19 430.633
1911 0 212.23 14.4607 3069 107.858 1127.52 425.949
1912 1 262.286 11.1138 2915 112.68 1126.16 425.325
1913 0 261.263 11.7047 3058 113.593 1126.2 426.791
1914 0 262.328 11.8478 3108 116.245 1126.46 421.087
1915 0 242.234 20.6701 5007 93.5041 1126.58 402.077
1916 0 259.36 20.0223 5193 93.6303 1126.61 395.792
1917 0 259.245 20.7294 5374 94.7912 1125.81 394.461
1918 0 261.226 21.3532 5578 93.908 1126.01 390.588
1919 0 264.342 19.838 5244 100.481 1125.96 391.14
1920 0 268.213 18.8507 5056 106.167 1125.78 389.107
1921 0 269.239 20.0083 5387 103.659 1125.71 386.913
1922 0 267.119 15.057 4022 125.505 1125.34 397.256
1923 0 273.195 15.6482 4275 126.096 1125.09 393.872
1924 0 279.249 15.7601 4401 127.431 1125.59 392.995
1925 0 284.299 15.3184 4355 131.104 1126.02 391.282
1926 1 162.135 11.4843 1862 140.733 1125.92 457.357
1927 0 167.17 11.3178 1892 141.612 1126.54 458.456
1928 0 171.165 11.0829 1897 142.715 1126.5 456.054
1929 0 171.128 11.3891 1949 145.879 1126.16 452.645
1930 0 174.126 11.9454 2080 145.729 1125.45 450.086
1931 0 179.182 11.452 2052 147.325 1126.29 451.75
1932 0 174.1 11.4244 1989 151.645 1125.42 449.787
1933 0 175.183 11.7706 2062 152.528 1125.91 449.956
1934 0 322.423 15.2161 4906 148.176 1125.39 367.719
1935 0 327.309 15.5572 5092 149.763 1125.69 364.326
1936 0 331.357 15.9194 5275 149.645 1125.04 359.743
1937 0 337.389 16.2513 5483 149.84 1125.15 359.641
1938 0 339.361 15.429 5236 156.385 1125.22 360.532
1939 0 342.384 15.357 5258 160.231 1124.72 355.029
1940 0 347.353 16.0269 5567 157.48 1125.44 352.8
1941 0 350.415 15.456 5416 162.743 1125.61 352.642
1942 0 355.344 15.9564 5670 165.886 1125.6 349.966
1943 0 359.38 15.741 5657 167.59 1125.48 346.697
1944 0 362.296 15.3631 5566 171.679 1125.93 348.836
1945 0 366.325 16.0595 5883 168.353 1124.54 343.176
1946 0 369.341 15.7145 5804 171.674 1125.13 339.735
1947 0 373.411 15.1602 5661 172.136 1125.56 339.776
1948 0 378.311 16.1534 6111 169.665 1125.5 335.283
1949 0 380.346 15.6515 5953 175.093 1125.06 334.161
1950 0 384.412 15.4652 5945 176.691 1124.81 332.957
1951 0 387.496 15.4634 5992 178.465 1124.43 332.79
1952 0 392.48 16.4212 6445 174.364 1125.2 329.705
1953 0 395.596 16.9061 6688 172.239 1125.49 325.66
1954 0 398.733 16.1662 6446 177.397 1125.58 324.902
1955 0 402.798 16.9043 6809 176.697 1126.15 323.02
1956 0 404.623 16.6797 6749 176.849 1126.17 321.647
1957 0 406.97 15.5957 6347 187.893 1125.62 319.032
1958 0 412.042 16.3236 6726 184.579 1124.93 316.366
1959 0 416.035 17.3711 7227 179.586 1125.99 314.016
1960 0 419.191 17.3763 7284 181.081 1125.81 314.135
1961 0 420.309 15.943 6701 189.49 1126.02 313.524
1962 0 424.553 17.3147 7351 184.869 1125.89 309.348
1963 0 426.572 16.7053 7126 190.405 1125.87 309.616
1964 0 429.68 16.9964 7303 187.235 1126.3 308.432
1965 0 432.077 17.4552 7542 187.279 1126.34 304.873
1966 0 435.105 18.0048 7834 184.625 1126.46 306.02
1967 0 434.28 18.5457 8054 183.61 1126.04 305.336
1968 0 436.554 18.6918 8160 184.254 1125.93 306.065
1969 0 435.89 17.7178 7723 191.186 1125.46 305.932
1970 0 437.768 19.2111 8410 184.418 1125.59 306.791
1971 0 436.792 18.3589 8019 190.338 1125.21 307.016
