time division length width area intensity CMx CMy
0 0 48.0228 14.2432 684 114.611 988.898 499.155
1 0 50.0599 15.002 751 110.144 989.427 498.7
2 0 51.0224 14.719 751 109.077 989.25 499.478
3 0 51.0298 14.4621 738 108.863 988.958 499.164
4 0 54.0222 14.4941 783 103.264 989.481 499.741
5 0 54.0144 14.6628 792 102.229 989.356 499.694
6 0 56.0286 14.5462 815 101.45 989.042 497.69
7 0 57.058 14.1084 805 101.282 989.486 497.842
8 0 60.0121 13.8972 834 99.554 989.621 496.878
9 0 60.0153 13.9464 837 99.8698 989.369 495.695
10 0 63.0531 13.7979 870 96.2609 988.16 495.81
11 0 64.02 13.8238 885 95.1356 989.15 494.533
12 0 66.1429 14.257 943 92.7232 988.943 495.063
13 0 68.0633 14.5012 987 92.3688 987.847 492.909
14 0 71.0766 14.0412 998 92.1092 988.428 491.714
15 0 72.0841 14.0669 1014 91.999 988.078 490.6
16 0 75.0457 14.5112 1089 90.2525 988.781 491.158
17 0 76.0282 14.008 1065 91.5549 988.023 487.322
18 0 77.0526 14.263 1099 91.2611 988.461 488.139
19 0 86.0432 14.8414 1277 90.4393 987.842 482.217
20 0 85.0593 13.5552 1153 91.3547 987.519 482.682
21 1 42.0681 12.8126 539 94.2709 986.861 502.894
22 0 45.0132 13.7515 619 91.1389 987.68 502.008
23 0 45.0324 13.568 611 92.2357 987.372 500.903
24 0 48.0889 13.6206 655 91.5069 987.434 502.539
25 0 48.0429 13.7793 662 91.2326 987.553 501.612
26 0 49.068 13.2877 652 90.5429 987.276 502.495
27 0 53.0669 13.9447 740 89.3041 987.164 501.384
28 0 55.042 13.5533 746 89.6997 987.346 501.586
29 0 56.0546 14.2361 798 90.2719 986.728 500.728
30 0 58.0367 13.8705 805 91.0124 987.27 500.251
31 0 58.0174 14.0303 814 91.0025 987.178 499.974
32 0 60.0361 13.8084 829 92.4427 986.414 500.081
33 0 63.0713 14.222 897 90.9799 986.573 497.949
34 0 66.0208 14.1774 936 91.6741 986.467 497.234
35 0 69.0327 14.6163 1009 92.5401 986.919 495.42
36 0 72.0491 14.6983 1059 92.6459 985.828 492.77
37 0 72.0741 14.388 1037 95.5574 986.28 490.565
38 0 73.1183 13.7448 1005 93.0776 986.118 486.185
39 0 78.0403 14.39 1123 94.2734 986.528 486.453
40 0 80.0618 14.3014 1145 95.3205 986.541 483.07
41 0 82.1166 14.5038 1191 95.4114 986.231 483.987
42 0 85.109 14.6635 1248 94.6154 986.3 483.192
43 0 88.126 14.9332 1316 92.8055 985.811 480.839
44 0 91.1183 14.5306 1324 93.0053 985.823 480.843
45 0 93.0715 14.5909 1358 92.9713 985.954 478.294
46 0 95.2716 14.1805 1351 93.1088 985.77 478.562
47 0 98.0592 13.859 1359 93.4224 985.929 475.79
48 0 103.11 14.3147 1476 92.7107 986.307 474.501
49 0 107.079 13.7562 1473 95.5567 986.695 473.541
50 1 58.0101 12.8598 746 92.8539 986.306 496.882
51 0 60.0498 12.9393 777 92.1544 986.753 497.377
52 0 59.0495 12.6504 747 144.078 987.691 497.539
53 0 63.038 12.9922 819 92.3358 985.891 495.193
54 0 66.0129 13.1338 867 91.8454 985.874 494.178
55 0 67.0612 13.8232 927 90.2708 986.427 492.661
56 0 69.0249 13.6617 943 91.684 986.343 490.287
57 0 71.0584 13.8478 984 91.7348 986.042 488.622
58 0 76.0422 13.6503 1038 90.8295 986.429 489.014
59 0 76.0736 13.9207 1059 91.2398 986.509 486.628
60 0 81.055 14.7431 1195 88.2494 985.998 486.569
61 0 83.0427 14.4263 1198 89.2571 986.154 484.838
62 0 85.0623 13.7076 1166 91.6587 986.815 483.237
63 0 88.0408 13.9027 1224 91.1144 986.379 481.28
64 0 93.0251 13.9532 1298 90.3197 986.737 481.055
65 0 95.0505 14.2977 1359 88.4827 986.485 480.525
66 0 98.0275 14.3021 1402 88.0984 986.467 477.969
67 0 98.0417 12.6987 1245 91.5012 986.1 477.716
68 0 103.062 13.4967 1391 87.2329 985.603 474.898
69 1 54.0243 11.4763 620 84.6742 986.027 496.326
70 0 58.0541 12.8329 745 86.1544 986.664 496.601
71 0 59.0631 12.0549 712 82.3118 986.437 498.765
72 0 61.051 12.5305 765 81.0902 986.025 496.956
73 0 62.0332 12.5578 779 82.1553 986.162 496.671
74 0 65.1133 12.4399 810 82.1728 986.096 494.9
75 0 67.1014 11.9223 800 83.8562 986.208 495.249
76 0 70.0233 12.9243 905 81.3094 986.105 494.296
77 0 72.0675 12.8074 923 83.8581 985.506 491.189
78 0 74.1224 13.046 967 83.4674 986.003 490.533
79 0 76.1255 12.7421 970 84.834 985.224 489.79
80 0 79.0696 12.7483 1008 84.753 986.366 489.615
81 0 83.0764 13.2167 1098 84.7623 986.739 486.066
82 0 85.0528 13.4034 1140 83.8868 986.379 485.812
83 0 87.1101 12.5473 1093 85.2983 986.356 483.265
84 0 89.0724 12.7312 1134 84.8801 986.638 481.374
85 1 49.0457 11.2548 552 82.2192 986.464 503.92
86 0 52.0569 11.8524 617 81.9806 985.932 502.17
87 0 52.0542 12.1988 635 80.3795 986.589 501.085
88 0 52.0224 11.7642 612 72.1193 986.768 502.869
89 0 52.0681 11.2353 585 73.7316 986.244 501.128
90 0 53.1194 10.9 579 73.5371 986.415 499.594
91 0 55.1391 11.0448 609 72.5074 986.34 498.99
92 0 57.0804 10.3713 592 72.8142 986.502 499.395
93 0 58.136 11.3183 658 72.2097 985.982 498.153
94 0 58.0639 11.0051 639 73.9327 986.715 496.986
95 0 64.1636 12.0317 772 72.1347 985.742 494.093
96 0 64.0985 11.966 767 73.0756 986.008 493.568
97 0 68.2506 11.7215 800 72.2512 985.102 495.53
98 0 69.0741 12.0306 831 72.6041 985.984 493.232
99 0 70.088 11.5997 813 73.2891 985.446 493.048
100 0 74.059 11.5178 853 71.7808 985.911 493.292
101 0 77.0504 11.7196 903 73.6102 986.238 490.01
102 0 77.0845 11.2214 865 74.8231 985.531 489.825
103 0 81.0956 11.2707 914 74.7932 985.674 488.675
104 0 85.0524 11.5693 984 73.4482 986.235 487.325
105 0 87.0883 11.2415 979 73.6762 986.485 484.899
106 0 93.159 12.5806 1172 74.291 986.305 481.06
107 1 50.0469 11.0496 553 73.1899 986.363 501.315
108 0 49.0674 10.7403 527 76.1992 986.966 500.658
109 0 54.1039 11.4409 619 76.3522 986.84 498.943
110 0 53.0237 12.2587 650 71.7769 986.14 499.258
111 0 56.1545 12.1095 680 77.5618 987.354 497.228
112 0 59.0536 12.1754 719 77.4367 986.709 495.968
113 0 61.0476 12.3838 756 77.2156 986.857 496.222
114 0 63.1344 13.004 821 76.391 986.904 495.789
115 0 64.0891 12.467 799 78.1702 986.974 495.559
116 0 67.1471 13.0609 877 77.1539 987.54 495.035
117 0 68.1378 12.827 874 77.7449 986.638 493.066
118 0 68.0604 11.9306 812 72.8781 986.698 494.772
119 0 71.1695 12.0838 860 73.6674 987.442 492.02
120 0 74.0749 11.9744 887 74.1522 986.506 492.593
121 0 74.1411 12.4627 924 75.0823 986.168 490.357
122 0 78.176 13.0986 1024 76.5742 986.556 489.533
123 0 82.1237 12.8343 1054 81.3947 986.685 487.02
124 0 84.0891 13.117 1103 82.9039 987.167 486.131
125 0 87.1566 13.1946 1150 84.1348 986.703 484.31
126 0 89.094 13.4352 1197 86.0769 986.362 482.062
127 0 90.1119 13.117 1182 88.0305 986.135 482.753
128 0 93.1237 12.8861 1200 88.7258 986.568 480.328
129 0 97.2216 13.2069 1284 87.1215 985.849 479.239
130 0 97.0953 13.0284 1265 87.6119 985.432 476.13
131 1 49.1094 9.57046 470 80.4404 985.432 504.213
132 0 51.0625 10.0857 515 79.699 985.567 502.278
133 0 52.0866 9.465 493 78.4706 985.669 503.132
134 0 56.1341 9.85141 553 77.3617 985.998 501.716
135 0 58.0767 10.6928 621 74.38 985.807 498.94
136 0 60.1427 11.0903 667 73.6342 985.682 497.825
137 0 60.2025 10.963 660 76.6136 985.303 495.174
138 0 63.1602 12.2704 775 80.2774 984.643 492.569
139 0 65.0881 12.2603 798 79.2293 984.857 496.03
140 0 65.0796 12.4002 807 79.9616 984.579 493.164
141 0 68.0527 11.2119 763 81.1547 983.875 494.375
142 0 69.0834 12.3474 853 79.9156 984.359 492.59
143 0 72.0254 12.329 888 79.839 984.257 491.127
144 0 74.111 12.2249 906 79.6115 984.626 489.503
145 0 76.1038 11.9311 908 80.5066 984.565 488.909
146 0 78.0946 11.4092 891 81.2166 985.104 487.43
147 0 81.1496 11.6821 948 81.0011 984.468 484.815
148 0 82.1293 11.5671 950 83.4053 984.387 484.005
149 0 83.2237 11.8957 990 82.5343 985.296 480.737
150 0 85.2458 11.4258 974 84.2505 984.963 479.875
151 0 90.2025 12.2835 1108 81.9215 984.769 477.374
152 0 90.0709 12.1682 1096 81.6651 984.299 471.933
153 0 93.0681 11.6581 1085 82.7032 984.067 468.735
154 0 93.147 11.4443 1066 84.1313 983.8 468.623
155 0 97.1289 11.3869 1106 85.6076 984.236 468.076
156 0 104.294 12.3689 1290 85.2915 983.981 465.56
157 0 109.165 11.8078 1289 85.5718 984.358 464.489
158 1 56.0826 10.3776 582 82.4639 984.069 492.687
159 0 62.1008 11.3686 706 84.8116 983.738 497.001
160 0 61.1104 10.1783 622 79.9068 984.244 499.809
161 0 62.0837 10.3409 642 80.6386 984.456 496.827
162 0 64.1016 10.3898 666 80.5841 984.488 496.998
163 0 66.2268 10.4791 694 81.0058 984.598 496.023
164 0 68.0608 10.52 716 83.1927 984.953 494.138
165 0 70.1858 10.7287 753 83.1713 984.849 493.466
166 0 72.0999 11.4979 829 83.5862 984.531 491.645
167 0 75.1672 10.7893 811 85.7423 984.275 491.767
168 0 78.1605 10.8367 847 88.5797 984.808 490.04
169 0 81.1977 11.5397 937 88.1633 985.086 488.544
170 0 83.1669 12.1082 1007 87.4449 985.02 486.85
171 0 84.1539 11.681 983 89.1455 985.474 487.572
172 0 87.1249 11.7303 1022 86.5362 985.258 483.689
173 0 88.1236 11.4725 1011 87.636 985.564 484.513
174 0 91.1616 11.6716 1064 85.6457 985.069 482.79
175 0 93.1469 11.498 1071 86.9533 984.286 482.432
176 0 96.0896 11.6038 1115 88.2395 985.214 480.797
177 0 101.157 11.5167 1165 85.3768 984.535 480.312
178 0 103.157 11.9915 1237 85.0922 984.759 477.071
179 0 107.072 11.4502 1226 87.7431 985.073 476.554
180 1 56.0507 10.3835 582 79.9845 985.756 500.397
181 0 59.086 11.1702 660 74.4364 985.676 499.353
182 0 59.0318 11.011 650 76.3677 985.771 498.089
183 0 62.0379 11.1222 690 88.0754 985.175 495.651
184 0 66.1544 11.5034 761 86.5309 985.607 495.054
185 0 66.1096 11.3448 750 88.0653 985.909 494.375
186 0 70.1209 11.6941 820 85.35 986.087 494.93
187 0 69.1506 11.0484 764 86.4542 985.514 493.116
188 0 72.1213 11.4807 828 85.3623 986.043 491.696
189 0 75.136 11.9117 895 84.9709 986.495 489.873
190 0 77.136 11.9399 921 85.0217 986.729 487.739
191 0 79.1068 11.3391 897 88.8774 985.643 485.836
192 0 82.1146 11.4961 944 88.1017 985.492 487.414
193 0 82.0897 10.4398 857 91.0128 984.319 485.921
194 0 88.1069 11.9627 1054 86.1034 984.335 485.094
195 0 90.0344 11.1291 1002 88.9521 983.886 481.92
196 0 92.0585 11.4818 1057 87.9499 983.713 482.158
197 1 45.019 9.17391 413 79.8087 984.571 506.913
198 0 48.0088 10.7272 515 73.8602 984 505.483
199 0 49.0624 9.82423 482 76.6556 984.297 504.34
200 0 50.1203 10.6145 532 75.0432 985.22 503.735
201 0 53.0786 11.4359 607 72.14 984.806 504.007
202 0 55.0889 11.2727 621 90.1852 984.692 503.072
203 0 55.054 11.8247 651 90.2873 984.309 501.648
204 0 58.0987 11.9108 692 88.0838 984.543 501.007
205 0 59.0995 12.149 718 88.5432 984.781 500.028
206 0 59.0995 12.1828 720 126.965 985.792 499.976
207 0 60.048 12.1569 730 89.5055 984.59 499.241
208 0 63.0742 11.6846 737 88.4193 985.076 499.285
209 0 65.1132 11.8409 771 88.4825 983.986 497.237
210 0 69.1168 11.9508 826 95.6671 984.547 495.563
211 0 68.2585 11.852 809 95.9468 984.255 494.902
212 0 71.1575 11.6221 827 94.0846 984.274 493.642
213 0 74.1506 11.9621 887 93.1725 984.481 494.081
214 0 75.2051 11.4088 858 94.9592 984.388 491.534
215 0 78.1251 12.416 970 89.8897 984.593 490.977
216 0 79.1374 11.4611 907 92.4079 984.673 489.571
217 0 81.1175 11.132 903 90.9845 984.733 488.72
218 0 85.1683 11.5066 980 89.6898 984.757 486.89
219 0 87.1194 11.203 976 90.4775 984.317 486.74
220 0 91.1093 12.1173 1104 88.8596 983.639 483.736
221 0 94.0927 12.1688 1145 89.5528 983.965 482.067
222 0 98.1929 11.9153 1170 89.0598 984.303 480.289
223 0 99.2119 12.7908 1269 87.5469 984.779 480.241
224 1 47.0431 10.5223 495 84.3919 985.939 506.093
225 0 47.0504 11.3708 535 87.0411 985.884 504.118
226 0 50.0318 11.093 555 85.6847 985.36 503.802
227 0 51.0081 12.253 625 84.112 984.81 503.768
228 0 53.0555 12.289 652 85.7745 985.006 503.117
229 0 51.0735 11.9631 611 83.9264 984.578 503.584
230 0 53.0284 11.5976 615 85.2472 985.208 502.55
231 0 53.0328 11.3138 600 88.5817 983.588 503.8
232 0 54.0521 11.5259 623 89.0112 983.613 503.714
233 0 55.0196 11.5777 637 90.2622 983.576 503.212
234 0 58.0707 10.9349 635 90.0803 983.485 501.561
235 0 59.1043 11.4543 677 89.4195 983.654 500.145
236 0 60.0777 11.6849 702 89.6197 983.557 499.59
237 0 61.029 11.7977 720 88.6431 983.422 498.171
238 0 64.0396 11.4617 734 88.7956 983.259 498.193
239 0 66.0863 12.0449 796 87.2776 983.518 496.06
240 0 66.0545 11.0212 728 88.7308 983.26 496.313
241 0 68.0458 11.7568 800 86.575 983.634 494.872
242 0 72.0411 11.4102 822 86.7092 983.202 494.215
243 0 73.0474 11.5405 843 87.4069 983.001 493.326
244 0 75.0421 11.9799 899 86.5039 983.208 492.969
245 0 78.0718 12.1427 948 86.769 983.633 492.077
246 0 80.0329 11.5952 928 89.4591 983.611 490.261
247 0 80.0329 11.6452 932 137.602 984.597 490.363
248 0 85.0417 12.2175 1039 90.1145 983.367 486.479
249 0 88.0765 12.5118 1102 90.2967 983.381 484.167
250 0 90.0891 11.9215 1074 91.9544 983.97 484.184
251 0 93.0405 13.0051 1210 93.3851 984.317 481.037
252 0 96.1341 12.7946 1230 91.7203 984.277 481.773
253 0 98.2006 12.78 1255 89.9179 983.26 479.059
254 1 51.0447 10.6573 544 80.6121 984.165 506.14
255 0 52.0629 11.102 578 82.436 984.266 504.187
256 0 56.062 12.0402 675 81.5215 983.708 502.575
257 0 57.0655 11.5131 657 81.8478 983.881 502.493
258 0 57.0474 12.0777 689 81.8302 984.491 501.086
259 0 59.0401 11.3144 668 85.8368 984.257 499.358
260 0 60.0384 12.0756 725 88.3159 983.942 497.566
261 0 61.0543 11.4161 697 90.3888 984.324 496.679
262 0 63.1326 11.8164 746 91.7788 984.363 496.442
263 0 65.0783 12.1699 792 91.8939 984.256 495.898
264 0 67.2042 11.6064 780 93.2115 983.988 494.345
265 0 70.1119 12.2091 856 91.8143 984.236 493.35
266 0 71.1708 11.9572 851 93.5382 984.199 491.603
267 0 73.178 11.6702 854 95.123 984.037 490.156
268 0 74.1262 11.5748 858 97.0186 984.27 489.111
269 0 77.1152 11.9043 918 97.5414 983.438 487.667
270 0 80.1453 12.1779 976 97.0564 983.683 487.655
271 0 84.1239 12.0893 1017 96.9174 983.436 486.173
272 0 85.1954 12.3011 1048 95.3082 983.708 483.586
273 0 89.0924 11.8192 1053 97.0883 983.668 483.857
274 0 92.0826 12.3802 1140 95.1526 983.829 481.762
275 0 94.1766 12.2854 1157 95.8937 983.758 479.29
276 1 48.0241 9.91168 476 91.7479 984.328 505.317
277 0 50.0405 10.2717 514 91.3152 984.588 505.411
278 0 52.0703 11.2924 588 89.6088 984.457 503.609
279 0 54.0662 10.8201 585 89.7026 984.185 500.697
280 0 56.0984 10.8737 610 93.5131 984.71 500.075
281 0 59.0466 11.872 701 91.4479 982.927 498.369
282 0 58.0142 10.6009 615 89.587 982.808 498.904
283 0 61.0718 11.2163 685 89.3591 984.434 499.226
284 0 60.05 11.1907 672 88.6682 984.472 498.964
285 0 63.0458 10.4527 659 90.6859 984.249 497.2
286 0 64.0732 10.0198 642 92.5576 984.332 496.394
287 0 65.0775 11.0484 719 93.3533 984.433 494.871
288 0 68.0728 10.3566 705 94.4496 983.638 495.972
289 0 70.0597 10.9621 768 95.6836 983.734 492.738
290 0 74.2021 10.0132 743 93.2503 983.585 493.241
291 0 76.0712 10.3982 791 92.885 983.499 492.55
292 0 78.0625 10.4788 818 91.9499 983.28 491.142
293 0 78.0505 10.647 831 92.9531 983.821 489.936
294 0 81.1608 9.94322 807 93.8104 983.218 488.8
295 0 82.0653 9.93111 815 94.1117 982.616 488.706
296 0 85.113 9.82223 836 94.4055 982.528 486.798
297 0 89.1426 10.2645 915 93.529 982.026 485.931
298 0 90.1024 10.3771 935 93.0235 982.911 482.829
299 0 93.1801 9.92701 925 92.9924 982.81 484.555
300 0 97.1635 10.0655 978 92.5716 982.239 482.422
301 0 100.149 10.2547 1027 92.5862 982.694 478.459
302 0 103.081 10.5839 1091 90.1366 982.654 478.283
303 0 107.209 10.2696 1101 89.8837 982.721 476.452
304 0 111.162 10.1474 1128 89.5133 983.103 476.341
305 0 115.147 10.7341 1236 86.9555 982.813 471.202
306 1 63.0602 9.03898 570 84.9632 982.495 499.681
307 0 66.0235 9.63293 636 83.7437 982.415 498.723
308 0 67.0183 10.5344 706 82.2677 982.697 496.763
309 0 70.0462 10.8643 761 81.6557 982.595 496.802
310 0 71.0741 10.9885 781 81.6133 982.997 496.07
311 0 74.1405 11.5996 860 80.6105 984.642 494.027
312 0 72.1011 10.1108 729 87.6433 983.82 496.021
313 0 75.0866 10.7343 806 85.9752 983.478 495.872
314 0 77.1061 10.09 778 87.4447 983.694 495.474
315 0 80.0534 10.418 834 88.2134 983.403 493.085
316 0 82.0695 10.223 839 89.2145 983.783 494.936
317 0 84.1655 10.7764 907 88.9967 983.63 492.561
318 0 87.1485 9.62724 839 90.7485 983.38 493.05
319 0 87.0523 9.78722 852 92.2418 983.189 492.903
320 0 91.124 10.6778 973 89.888 983.393 490.825
321 0 95.1169 10.3136 981 89.5953 983.747 488.321
322 0 100.12 10.6473 1066 88.4174 983.058 486.408
323 0 103.228 10.5204 1086 90.198 982.911 484.559
324 0 106.156 10.2114 1084 89.9566 982.456 484.692
325 0 107.218 10.2408 1098 90.857 982.102 482.896
326 1 54.0441 10.2879 556 90.4191 982.077 507.93
327 0 58.05 11.2834 655 89.026 982.771 505.937
328 0 58.0481 11.5594 671 90.0551 981.879 505.182
329 0 60.0187 11.7963 708 90.9124 982.226 504.018
330 0 62.0506 11.3778 706 91.9023 982.615 503.612
331 0 65.0549 11.1598 726 91.0565 982.751 503.877
332 0 64.0357 10.8845 697 95.2367 982.08 500.4
333 0 66.0287 11.3587 750 92.6307 982.591 500.149
334 0 69.0504 11.5423 797 93.0728 982.358 498.444
335 0 70.042 11.2932 791 96.5196 982.145 497.585
336 0 74.0462 11.6414 862 95.7993 982.819 496.45
337 0 77.0388 11.5267 888 95.9279 982.707 494.488
338 0 79.0312 12.1977 964 93.4917 982.544 493.081
339 0 77.0925 11.6743 900 99.1133 980.707 492.206
340 0 81.0468 11.4995 932 92.926 980.484 490.732
341 0 80.0722 10.578 847 83.8996 980.698 489.129
342 0 82.058 10.7851 885 85.4124 980.327 487.693
343 0 83.0536 10.4872 871 88.7543 979.939 485.465
344 0 86.0691 10.4219 897 89.3523 979.466 487.122
345 0 88.072 10.7071 943 89.1495 979.164 485.225
346 0 90.0712 10.4029 937 89.3501 979.066 483.848
347 0 90.1119 10.6201 957 89.6594 979.066 482.848
348 0 96.1025 11.8519 1139 95.7998 978.358 484.286
349 0 97.0612 11.8276 1148 93.1812 978.848 484.232
350 0 102.111 12.7214 1299 90.6328 979.513 483.158
351 0 104.085 12.7107 1323 90.1126 978.964 482.068
352 0 109.171 12.3476 1348 87.5935 978.556 480.236
353 0 111.083 12.2071 1356 88.4469 978.89 478.046
354 0 113.134 11.9505 1352 88.4142 978.788 476.29
355 0 118.07 12.1538 1435 87.8439 978.684 474.305
356 0 120.096 12.0238 1444 90.1039 978.571 471.028
357 0 125.111 12.2851 1537 88.9037 979.102 470.333
358 0 129.134 12.127 1566 91.2254 980.06 467.752
359 0 132.145 11.9868 1584 90.8005 979.719 468.82
360 0 136.18 12.4468 1695 89.3611 979.504 465.7
361 0 139.149 11.7428 1634 90.6328 979.276 462.845
362 0 144.21 12.2876 1772 90.2286 979.709 462.741
363 0 148.283 11.7478 1742 88.2417 979.844 458.317
364 0 152.228 11.6207 1769 90.4799 979.928 457.192
365 0 156.392 12.0531 1885 88.4005 979.972 453.977
366 0 162.237 11.5695 1877 88.3245 979.143 454.136
367 0 165.182 11.4177 1886 87.982 980.025 448.931
368 0 170.395 12.2128 2081 86.2811 979.84 448.815
369 0 175.506 12.3415 2166 89.2364 980.623 443.969
370 0 177.51 12.3148 2186 91.0444 980.401 440.327
371 0 182.443 12.5847 2296 92.5392 980.616 439.399
372 0 185.47 12.6651 2349 93.6696 980.229 435.544
373 0 193.427 12.7387 2464 94.7727 979.822 433.387
374 0 197.43 12.688 2505 94.8515 980.17 430.149
375 0 205.431 12.8218 2634 94.997 980.467 427.233
376 0 212.46 12.4023 2635 93.4338 980.573 423.641
377 0 219.458 12.7769 2804 93.1986 981.016 419.336
378 0 225.493 12.3064 2775 95.2714 980.943 414.805
379 0 233.555 12.3226 2878 95.7325 981.32 411.846
380 0 242.731 12.6272 3065 96.0039 981.304 407.628
381 0 251.645 13.221 3327 94.8512 980.983 405.065
382 1 268.564 11.4126 3065 97.525 981.083 402.701
383 0 268.519 13.2616 3561 93.8939 980.811 393.538
384 0 275.601 13.5014 3721 92.0204 980.964 390.784
385 1 219.506 12.15 2667 94.7702 981.285 422.434
386 0 225.382 11.9042 2683 96.9389 981.488 417.627
387 0 232.541 11.6023 2698 99.2128 981.903 413.789
388 0 240.445 11.7698 2830 98.689 982.095 411.147
389 0 244.469 11.7356 2869 100.81 981.845 404.265
390 0 251.464 11.608 2919 102.942 981.558 395.962
391 0 260.451 12.3478 3216 102.455 981.387 392.793
392 1 63.0633 9.70454 612 82.915 981.121 495.678
393 0 66.127 9.42127 623 82.6934 981.812 495.252
394 0 67.2383 10.2471 689 81.5051 981.758 491.595
395 0 71.1905 10.7599 766 76.9269 981.845 492.542
396 0 73.1043 10.1088 739 70.0622 982.087 487.992
397 0 77.0408 11.0461 851 72.4818 982.018 491.43
398 0 78.0895 11.4612 895 71.3251 982.183 492.959
399 0 81.092 11.0985 900 72.9867 983.807 490.159
400 0 83.1263 11.5367 959 72.0907 982.419 487.357
401 0 85.0705 10.4502 889 73.7694 982.511 484.976
402 0 89.2075 10.8511 968 87.28 981.027 481.118
403 0 95.1878 11.6822 1112 83.9083 981.388 481.759
404 0 97.1947 11.1117 1080 85.9889 981.437 478.89
405 0 99.1754 10.6075 1052 87.884 981.394 481.2
406 0 98.1938 10.0312 985 83.8772 981.435 473.999
407 0 103.231 10.0939 1042 85.9203 981.853 474.143
408 0 105.183 10.61 1116 86.0968 981.853 476.375
409 0 115.137 14.3134 1648 71.7427 982.049 467.039
410 0 112.22 14.2844 1603 74.6737 981.751 473.468
411 0 115.236 14.6308 1686 74.1679 981.391 472.781
412 0 117.226 14.0583 1648 76.2779 982.067 470.918
413 0 121.343 14.7351 1788 74.0822 981.478 466.925
414 0 123.333 14.2298 1755 75.7362 981.481 467.077
415 0 128.324 14.3464 1841 75.3802 981.35 465.388
416 0 131.269 14.5274 1907 75.9822 981.902 462.083
417 0 134.159 14.1548 1899 76.7946 981.815 459.166
418 1 69.052 9.93454 686 72.4563 981.308 499.908
419 0 71.0452 11.2745 801 70.4195 981.333 497.247
420 0 73.0507 11.184 817 72.3978 981.581 496.512
421 0 73.2848 12.0352 882 76.0896 982.482 489.939
422 0 76.1519 12.2518 933 72.1329 982.845 495.471
423 0 72.18 11.1665 806 84.1675 983.113 493.542
424 0 77.0863 10.8191 834 75.0516 980.234 492.468
425 0 80.0976 10.8368 868 74.2074 981.498 491.264
426 0 81.0759 11.5694 938 74.9616 981.593 489.59
427 0 85.0433 11.159 949 76.5722 981.815 488.64
428 0 85.0594 11.1687 950 76.7642 981.373 486.851
429 0 89.0835 11.2815 1005 77.6259 981.743 485.653
430 0 91.0596 11.0367 1005 77.2856 981.704 485.021
431 0 96.07 12.0745 1160 75.2664 981.209 484.339
432 0 97.0891 11.0208 1070 77.6673 981.465 481.907
433 0 102.114 10.7722 1100 75.2027 981.955 481.526
434 0 105.103 10.5897 1113 76.823 982.514 480.199
435 0 109.175 10.9183 1192 74.8968 982.567 477.622
436 0 113.081 11.9206 1348 74.6365 982.072 476.2
437 1 61.0982 10.7532 657 70.8508 981.671 499.828
438 0 62.3254 10.9105 680 68.6044 982.944 496.644
439 0 63.1368 11.2929 713 67.4839 982.447 496.971
440 0 61.0626 10.0553 614 71.158 981.207 499.862
441 0 66.1282 10.4796 693 68.9582 981.427 498.354
442 0 69.0764 10.7417 742 68.7426 981.608 495.966
443 0 70.0538 10.3064 722 70.2452 981.44 493.072
444 0 73.0869 10.1933 745 70.8671 981.486 492.187
445 0 76.0376 11.2313 854 68.5562 981.755 492.07
446 0 77.1293 10.7611 830 70.2639 982.063 490.754
447 0 79.1024 10.0503 795 70.9635 982.137 489.535
448 0 82.0654 10.1626 834 70.7818 981.476 488.062
449 0 82.1557 10.2975 846 71.4551 982.137 487.686
450 0 86.1118 10.2657 884 71.7251 981.981 483.663
451 0 90.101 10.6325 958 71.7912 981.993 482.623
452 0 92.1294 10.6589 982 73.2587 982.311 481.623
453 0 96.1567 11.1797 1075 73.8744 981.925 479.835
454 0 98.1397 11.0353 1083 77.3407 982.814 475.491
455 0 101.148 11.0235 1115 77.6332 982.4 476.519
456 0 106.46 11.0746 1179 78.7269 983.153 471.638
457 0 108.367 10.4552 1133 79.7034 983.109 469.356
458 0 112.338 11.7503 1320 77.878 982.913 468.146
459 1 55.3154 9.90683 548 69.7044 983.091 498.332
460 0 58.2335 9.92556 578 68.8789 982.585 499.185
461 0 58.0852 10.4846 609 69.2989 982.859 498.849
462 0 60.043 9.55981 574 70.8328 982.611 496.456
463 0 65.0747 10.68 695 69.4317 982.508 495.898
464 0 65.0577 11.1901 728 70.533 983.161 493.652
465 0 67.0783 10.6741 716 72.1327 982.937 493.901
466 0 70.0645 11.7606 824 71.8471 982.515 492.306
467 0 72.0604 11.2822 813 74.6605 982.133 490.801
468 0 74.0894 11.2972 837 75.086 981.841 488.988
469 0 76.0384 11.652 886 77.5147 982.139 487.445
470 0 82.0887 11.4145 937 77.1046 981.978 487.141
471 0 82.061 11.8083 969 77.7595 982.073 485.321
472 0 84.1048 12.0921 1017 78.2684 982.621 484.679
473 0 86.1099 11.8337 1019 80.0648 982.847 482.444
474 0 88.1583 11.6835 1030 81.6029 982.904 479.741
475 0 89.1821 11.5943 1034 84.8027 982.445 479.667
476 0 93.2366 11.6478 1086 84.5672 982.445 479.114
477 0 97.1065 11.8118 1147 84.8701 981.827 475.988
478 0 101.171 11.8908 1203 84.2926 982.433 476.233
479 0 103.131 11.7617 1213 84.9876 982.354 475.259
480 0 105.093 12.1606 1278 85.5008 981.518 472.517
481 0 108.107 12.0436 1302 87.1367 981.818 471.708
482 0 113.135 12.3304 1395 86.2215 981.875 471.611
483 0 116.062 12.6915 1473 86.4779 980.934 468.058
484 0 121.1 12.7086 1539 87.0357 980.667 467.199
485 0 126.091 13.0938 1651 86.6548 981.159 464.344
486 0 128.1 12.42 1591 89.2778 980.661 461.884
487 0 133.124 13.1231 1747 87.4373 980.999 460.4
488 0 137.136 13.3007 1824 88.2977 980.429 457.451
489 0 141.153 12.8726 1817 88.7788 980.658 455.313
490 0 146.165 12.7595 1865 91.6155 980.246 453.884
491 0 152.085 13.2886 2021 91.8511 981.028 450.771
492 0 155.153 13.838 2147 93.5803 981.101 448.007
493 1 75.1054 11.4373 859 89.9115 982.698 491.022
494 0 76.1457 11.78 897 90.6265 982.048 489.828
495 0 77.0626 11.9643 922 91.7202 981.923 488.139
496 0 80.0686 12.0896 968 91.2211 981.645 487.724
497 0 83.1048 12.2376 1017 93.1367 981.951 485.689
498 0 85.0629 12.5084 1064 93.5141 981.925 485.455
499 0 88.1354 12.2539 1080 94.6565 981.689 483.194
500 0 91.1136 12.2155 1113 94.5004 981.456 482.834
501 0 91.1136 12.2155 1113 150.636 981.445 482.708
502 0 97.0531 12.8383 1246 93.7777 980.463 480.551
503 0 98.0972 12.7119 1247 94.4274 980.455 479.272
504 0 103.141 13.2149 1363 91.942 980.899 474.361
505 0 108.11 13.3198 1440 90.9646 980.453 474.353
506 0 113.052 12.2157 1381 96.6329 980.423 470.921
507 1 50.0472 9.75079 488 88.4898 980.66 504.734
508 0 53.0106 10.281 545 88.6147 981.521 502.589
509 0 53.0217 10.3731 550 84.1964 981.753 501.729
510 0 54.0302 10.272 555 79.0829 980.95 501.769
511 0 56.0677 10.6657 598 80.5819 980.968 501.52
512 0 56.0403 10.5817 593 78.801 981.307 499.486
513 0 55.0723 10.4953 578 81.59 981.543 500.727
514 0 54.0258 9.86565 533 85.4034 981.18 502.46
515 0 57.0144 9.96239 568 85.2923 981.852 501.565
516 0 59.0509 10.2285 604 84.6159 981 500.278
517 0 61.0206 11.0782 676 86.3624 980.43 496.538
518 0 63.0657 10.6397 671 81.9195 980.681 500.274
519 0 65.0642 11.0967 722 82.2867 981.712 498.785
520 0 65.0196 10.7198 697 85.4362 980.92 497.994
521 0 66.0263 10.9956 726 85.8058 981.216 496.401
522 0 68.0595 10.961 746 86.1716 981.046 495.584
523 0 71.0691 11.1441 792 84.9899 981.448 494.567
524 0 72.0528 11.6581 840 84.5 980.908 493.064
525 0 77.0342 11.4624 883 85.786 981.452 492.829
526 0 78.103 11.0495 863 88.3152 980.803 493.532
527 0 81.0698 11.3482 920 89.7533 980.736 490.833
528 0 83.0709 11.424 949 89.5121 980.553 489.235
529 0 86.0738 11.6993 1007 88.7547 981.209 488.404
530 0 87.0997 11.2859 983 89.59 980.114 487.235
531 1 47.0188 10.1874 479 86.929 980.532 507.144
532 0 50.0205 10.6756 534 87.1929 981.32 506.152
533 0 51.0783 10.7091 547 86.8227 980.963 505.843
534 0 50.0243 10.215 511 86.4951 980.474 503.593
535 0 53.1442 11.6852 621 84.9404 980.741 504.829
536 0 53.0273 10.6737 566 76.3092 978.952 505.61
537 0 54.0086 10.4983 567 76.1728 978.82 505.864
538 0 57.025 11.0478 630 74.2079 979.337 504.443
539 0 58.0211 11.7543 682 71.5499 979.499 503.254
540 0 56.0264 9.97743 559 77.0411 979.814 505.521
541 0 56.0996 9.96441 559 77.39 981.601 504.179
542 0 57.1557 9.90277 566 75.4293 980.583 502.161
543 0 60.1316 10.2276 615 75.0846 980.309 501.021
544 0 60.1259 9.8959 595 75.1782 980.097 500.227
545 0 64.0859 9.90858 635 74.7953 980.391 500.372
546 0 64.107 9.45295 606 75.269 980.076 500.168
547 0 66.1105 9.78665 647 76.7558 980.42 496.658
548 0 70.0826 10.5875 742 76.0189 980.127 497.206
549 0 71.0874 10.0018 711 77.6835 980.733 493.345
550 0 74.1319 10.5892 785 77.4306 980.815 492.364
551 0 76.1063 9.82836 748 77.4305 980.733 491.18
552 0 80.0849 10.7511 861 76.5494 980.554 490.571
553 0 83.11 10.829 900 77.7144 980.153 490.544
554 0 87.1246 11.7189 1021 77.6308 980.019 490.02
555 0 90.1576 12.101 1091 77.2777 979.958 490.095
556 0 92.0877 11.3262 1043 80.6433 979.983 486.845
557 0 95.1941 11.9545 1138 80.7153 979.99 484.099
558 0 99.0836 12.5147 1240 80.5419 979.975 482.352
559 0 105.101 13.33 1401 78.6388 980.386 480.299
560 0 109.106 12.8682 1404 80.4338 980.444 477.884
561 0 112.197 12.8791 1445 81.955 980.764 475.807
562 1 62.0911 10.5168 653 83.1026 981.698 502.652
563 0 58.1215 8.7231 507 74.5483 980.239 495.574
564 0 59.154 9.23015 546 74.6868 979.465 493.54
565 0 67.1091 9.90924 665 70.6617 980.776 496.346
566 0 62.0696 10.1016 627 80.7496 979.493 490.376
567 0 67.0884 10.0912 677 80.2363 979.677 488.168
568 0 68.1792 10.1791 694 81.6974 980.274 487.287
569 0 69.0844 9.92988 686 83.793 980.466 484.87
570 0 72.0886 9.91835 715 83.979 980.543 484.292
571 0 76.1608 10.1364 772 83.7526 979.689 484.916
572 0 79.1352 10.1977 807 84.14 980.507 484.171
573 0 89.1 12.615 1124 91.6272 980.746 489.851
574 0 90.1916 11.9634 1079 94.6089 980.161 487.897
575 0 93.1507 12.0772 1125 95.0569 980.239 487.5
576 0 96.2068 12.39 1192 96.3859 980.029 484.199
577 0 99.2115 12.7707 1267 95.281 979.633 484.409
578 0 101.145 12.487 1263 98.4212 979.766 481.883
579 0 103.167 12.1357 1252 99.5407 979.042 479.546
580 0 107.252 11.9345 1280 100.719 979.467 478.044
581 0 111.165 12.387 1377 99.4452 979.618 475.55
582 0 114.163 12.4646 1423 101.267 979.666 474.605
583 0 118.249 13.0994 1549 96.6023 978.997 473.026
584 0 118.257 12.2192 1445 100.941 979.672 469.342
585 0 123.276 12.3707 1525 100.384 979.137 467.508
586 0 125.185 12.0142 1504 100.895 979.772 467.642
587 0 129.172 12.8356 1658 98.07 978.989 463.619
588 0 133.156 11.9108 1586 99.7547 978.965 462.14
589 0 135.125 12.3145 1664 98.9609 979.785 459.654
590 0 139.131 12.0678 1679 99.6224 979.753 456.591
591 0 145.155 12.3385 1791 97.9481 978.722 457.331
592 0 151.232 11.9221 1803 100.493 979.286 454.668
593 0 157.186 11.9604 1880 102.349 977.881 451.787
594 1 83.1115 10.7326 892 94.8038 979.331 482.594
595 0 86.0816 10.9199 940 94.4266 978.612 478.043
596 0 91.1125 11.634 1060 95.9679 978.177 480.005
597 0 94.1203 12.144 1143 93.5967 978.788 478.327
598 0 98.2494 12.2036 1199 93.6489 979.084 476.146
599 0 105.1 11.5889 1218 88.0411 978.287 478.819
600 0 108.088 11.2871 1220 87.5205 978.39 477.513
601 0 111.129 10.6993 1189 81.0892 979.462 473.875
602 0 113.155 10.3663 1173 82.0546 979.356 471.673
603 0 117.119 9.85324 1154 82.675 979.276 469.016
604 0 120.227 10.3554 1245 83.2747 979.294 469.557
605 0 122.185 10.0094 1223 84.4718 978.764 466.497
606 0 127.181 10.7956 1373 82.8747 978.694 463.079
607 1 65.157 7.82725 510 76.2157 980.106 499.473
608 0 65.2074 6.94707 453 77.1788 979.883 498.731
609 0 66.2574 7.53123 499 77.5391 979.579 497.415
610 0 69.1937 9.68297 670 74.0687 979.548 495.34
611 0 72.1395 8.77466 633 76.1264 979.657 493.33
612 0 74.0371 10.2111 756 74.5503 979.426 494.075
613 0 73.0417 9.0907 664 76.9187 978.548 494.643
614 0 76.0877 9.29191 707 76.8543 978.88 493.96
615 0 76.0641 8.59802 654 78.578 977.902 496.17
616 0 81.0518 8.94489 725 77.2841 978.262 492.847
617 0 86.0568 10.4931 903 74.3599 978.367 493.968
618 0 88.0679 10.7985 951 75.0641 979.089 492.158
619 0 92.0613 11.5467 1063 75.0226 978.171 488.513
620 0 95.1723 11.1272 1059 76.5486 978.715 487.503
621 0 97.0884 11.1754 1085 77.4442 978.873 484.321
622 0 100.112 11.1675 1118 76.3014 978.765 484.076
623 0 102.119 10.8501 1108 77.7265 979.183 482.675
624 0 104.072 11.0116 1146 78.1038 979.366 480.237
625 0 109.18 11.22 1225 77.1396 979.599 479.122
626 0 112.212 11.6565 1308 76.6277 979.241 477.675
627 0 116.145 11.0638 1285 80.9409 979.173 475.161
628 0 120.245 12.2583 1474 75.5611 978.261 475.007
629 0 123.342 11.6019 1431 75.6848 978.652 473.312
630 0 127.154 12.4888 1588 76.2003 979.921 469.46
631 0 131.33 11.3607 1492 79.6655 979.805 466.96
632 0 133.362 10.8652 1449 81.8765 978.937 466.11
633 0 139.27 10.9643 1527 82.6392 979.555 465.64
634 0 143.39 11.0887 1590 83.3314 979.256 462.287
635 0 147.205 11.7319 1727 82.7782 978.965 460.868
636 0 151.351 11.7409 1777 84.1097 979.809 459.367
637 0 156.266 12.0116 1877 85.0607 979.624 457.125
638 0 161.398 12.1935 1968 85.0412 979.709 455.285
639 0 166.465 11.9785 1994 86.0622 979.544 451.808
640 0 171.31 12.6905 2174 85.0667 979.089 448.69
641 0 175.388 12.3212 2161 86.7631 978.868 445.842
642 0 179.384 12.6098 2262 87.55 979.523 445.554
643 0 185.529 11.5831 2149 90.3043 979.434 441.433
644 0 190.478 13.0671 2489 88.0253 979.532 439.45
645 0 195.377 13.456 2629 88.4534 979.538 435.171
646 0 200.578 13.2766 2663 88.1416 979.932 432.228
647 0 206.505 12.7842 2640 91.4042 980.097 430.669
648 0 209.402 12.4211 2601 93.9692 979.803 424.968
649 0 218.261 13.1952 2880 94.8698 979.013 417.982
650 0 225.323 13.2787 2992 95.0351 978.955 416.175
651 0 233.286 13.5714 3166 92.8809 979.053 413.7
652 0 236.354 12.3163 2911 93.7187 979.292 418.09
653 0 245.237 13.383 3282 90.3388 979.683 414.496
654 0 251.25 12.9671 3258 93.1556 978.778 405.762
655 0 261.316 13.8147 3610 92.2127 978.791 396.303
656 0 269.401 14.1722 3818 93.4851 979.216 391.423
657 0 276.329 14.2294 3932 95.0381 979.67 387.639
658 0 283.327 13.9379 3949 98.2532 979.248 378.461
659 1 305.577 20.5906 6292 78.6117 978.779 357.899
660 1 224.251 12.4102 2783 102.67 979.503 409.442
661 0 234.294 13.1117 3072 101.336 980.323 402.092
662 0 241.287 13.4487 3245 101.847 979.949 399.883
663 0 248.196 13.5256 3357 102.279 980.428 396.486
664 0 253.249 13.2913 3366 104.021 980.205 388.388
665 0 263.425 13.0929 3449 105.122 980.017 389.241
666 0 265.347 12.5383 3327 107.311 980.977 388.096
667 0 273.392 12.8643 3517 105.781 979.548 382.064
668 0 280.394 12.4931 3503 107.387 979.983 373.401
669 1 300.329 19.6551 5903 85.7593 979.94 348.855
670 0 300.469 16.7205 5024 96.0629 980.062 350.466
671 0 300.38 14.3551 4312 105.578 980.474 354.444
672 0 306.416 13.3185 4081 110.286 980.297 357.26
673 0 313.397 15.3065 4797 106.738 979.706 345.094
674 0 325.474 14.9228 4857 107.601 980.102 341.541
675 0 337.347 15.8027 5331 103.843 980.267 336.62
676 0 346.431 14.6552 5077 107.24 980.192 331.949
677 0 361.356 15.2288 5503 106.415 980.482 325.592
678 0 378.629 15.4161 5837 104.947 980.011 323.235
679 0 392.598 15.7693 6191 104.247 980.153 326.736
680 0 400.551 15.1791 6080 105.578 980.82 316.553
681 0 412.989 15.7801 6517 104.902 980.477 302.201
682 0 413.266 15.1646 6267 107.817 981.17 305.606
683 0 401.61 15.3831 6178 109.434 981.29 295.713
684 0 404.812 15.0835 6106 110.35 981.343 299.409
685 0 419.368 15.4447 6477 108.096 981.386 306.732
686 0 418.144 15.7434 6583 108.943 981.034 303.949
687 0 423.994 16.0262 6795 109.705 981.448 304.799
688 0 408.57 14.3574 5866 113.088 981.641 296.643
689 0 406.485 14.896 6055 112.888 981.455 300.496
690 0 410.231 12.4491 5107 113.668 981.481 278.356
691 0 406.147 10.7843 4380 114.467 980.803 275.509
692 0 86.1933 14.4095 1242 75.2375 980.731 484.849
693 0 89.1035 15.1621 1351 72.3042 980.816 484.625
694 0 90.2124 14.5324 1311 72.778 981.253 482.937
695 0 93.2883 15.7469 1469 70.9013 981.995 483.47
696 0 95.2236 15.0488 1433 70.3294 982.523 483.791
697 0 96.1693 14.9112 1434 71.5941 982.546 483.347
698 0 99.2406 14.7319 1462 72.0759 981.88 483.378
699 0 102.202 15.6357 1598 70.8141 981.709 481.302
700 0 102.171 14.4561 1477 75.1997 981.059 479.36
701 0 106.152 14.3379 1522 74.6537 981.513 480.81
702 0 109.177 15.5619 1699 69.2584 981.242 477.878
703 0 110.158 14.6698 1616 77.1176 981.403 475.371
704 0 113.238 15.1627 1717 77.4321 981.354 475.165
705 0 116.221 14.6359 1701 78.9976 981.38 474.397
706 0 120.328 15.2583 1836 77.2402 981.429 474.313
707 0 123.381 15.8128 1951 77.5223 980.548 472.049
708 0 124.289 15.2628 1897 80.7464 980.246 468.166
709 0 128.376 15.8441 2034 81.9779 979.318 465.097
710 0 129.299 15.4217 1994 84.7563 979.909 463.237
711 0 133.49 16.1286 2153 84.5114 980.14 461.312
712 0 135.282 15.4271 2087 87.2175 979.315 459.291
713 0 139.323 15.2954 2131 89.9531 979.633 458.273
714 0 141.273 15.2683 2157 89.5744 980.167 455.888
715 0 143.192 14.7914 2118 89.152 980.358 454.199
716 0 146.168 14.3738 2101 91.0314 979.487 455.206
717 0 149.185 14.1435 2110 91.4033 979.628 455.885
718 0 153.303 15.3292 2350 89.0932 979.647 453.955
719 0 156.163 14.2864 2231 91.0296 979.892 453.368
720 0 161.184 14.5176 2340 89.7124 979.671 449.232
721 0 165.234 14.3917 2378 88.2124 980.303 447.617
722 0 167.254 14.1043 2359 88.8754 980.355 444.823
723 0 172.337 14.0597 2423 89.2588 980.029 443.191
724 0 178.241 14.5252 2589 88.8509 979.555 441.225
725 0 182.188 14.3972 2623 90.3443 979.034 439.075
726 0 186.147 14.0319 2612 92.4326 979.307 434.218
727 0 191.21 13.8905 2656 93.645 979.133 431.787
728 0 191.216 13.8639 2651 145.945 979.125 431.713
729 0 201.294 14.0888 2836 95.897 978.637 424.819
730 0 208.228 14.9835 3120 93.1173 979.018 426.003
731 0 213.274 14.5447 3102 95.9665 979.237 417.839
732 0 219.297 15.4129 3380 94.2231 979.162 416.61
733 0 223.282 14.3585 3206 98.6326 979.542 413.54
734 0 229.347 14.3582 3293 99.2095 979.594 411.72
735 0 236.349 14.7832 3494 99.8031 978.926 404.017
736 0 242.305 14.7459 3573 99.1447 979.522 400.586
737 0 251.321 14.7381 3704 99.6771 979.381 395.598
738 0 259.314 15.2595 3957 99.6017 978.928 393.681
739 0 264.326 15.2917 4042 101.912 979.921 390.936
740 0 271.252 15.1999 4123 102.925 980.102 387.347
741 0 278.225 15.8253 4403 102.687 979.291 382.592
742 0 283.244 15.6296 4427 103.909 979.129 377.349
743 0 291.225 15.2116 4430 106.076 979.69 374.125
744 0 297.362 15.355 4566 107.464 979.093 368.228
745 0 302.251 15.6757 4738 107.483 979.342 361.603
746 0 311.218 15.494 4822 108.302 979.469 357.325
747 0 314.191 15.1564 4762 111.05 979.709 351.997
748 0 325.166 15.9026 5171 109.527 978.872 350.397
749 0 334.302 16.6287 5559 107.604 979.089 344.586
750 0 341.286 16.2766 5555 111.607 978.642 337.852
751 0 350.418 16.2406 5691 112.792 979.369 334.118
752 0 361.261 16.2763 5880 113.714 979.273 328.529
753 0 376.306 17.3024 6511 116.895 979.472 325.202
754 0 387.399 16.0222 6207 115.009 979.624 318.663
755 0 397.448 15.7681 6267 118.577 979.366 315.423
756 0 407.405 15.908 6481 121.302 979.098 307.319
757 0 418.485 16.0818 6730 121.403 978.753 304.054
758 0 428.518 17.5722 7530 116.909 978.845 296.153
759 0 427.408 16.1976 6923 122.889 979.203 291.005
760 0 428.438 16.6255 7123 124.109 979.524 290.239
761 0 423.353 15.4552 6543 130.565 979.695 281.131
762 0 426.401 16.6299 7091 126.68 979.993 285.771
763 0 426.29 16.1862 6900 134.086 979.495 283.024
764 0 425.42 16.6541 7085 133.722 979.19 280.403
765 0 51.0692 2.95677 151 81.6424 980.179 508.02
766 0 43.0044 1.72075 74 81.2027 981.459 511.405
767 0 50.0187 3.93853 197 82.1015 981.213 500.401
768 0 46.0141 3.69452 170 86.2059 981.641 501.176
769 0 38.0052 2.86803 109 87.8532 982.477 507.716
770 0 423.476 16.4708 6975 148.189 980.553 279.539
771 0 424.453 15.9546 6772 155.205 980.464 276.425
772 0 417.283 15.8909 6631 152.981 980.179 272.083
773 0 419.864 16.4101 6890 153.128 980.716 273.709
774 0 417.74 16.3355 6824 156.46 979.798 271.492
