time division length width area intensity CMx CMy
0 0 89.0856 15.4795 1379 116.345 1287.44 479.063
1 0 91.0881 14.8647 1354 117.47 1288.03 477.196
2 0 95.1703 15.0467 1432 114.692 1287.78 476.457
3 1 50.0375 12.071 604 111.397 1287.62 500.066
4 0 52.0324 12.9343 673 101.782 1288.32 501.357
5 0 52.0857 13.7082 714 97.8417 1288.29 500.959
6 0 54.0924 13.4584 728 96.6387 1287.92 499.655
7 0 56.0414 13.9004 779 100.548 1288.34 499.335
8 0 54.0252 13.9935 756 91.8545 1288.65 500.981
9 0 58.085 13.4286 780 92.309 1288.47 499.61
10 0 59.0352 13.619 804 90.6704 1287.39 498.361
11 0 62.0157 14.3028 887 88.2255 1288.32 497.324
12 0 64.1039 13.7277 880 87.7193 1288.06 496.645
13 0 65.0612 13.787 897 88.0925 1287.04 495.574
14 0 67.0849 14.0866 945 87.5704 1287.57 493.097
15 0 71.0596 14.1008 1002 86.483 1287.16 493.293
16 0 73.0684 13.9732 1021 86.5162 1287.94 493.278
17 0 74.06 13.7321 1017 87.3933 1287.17 489.06
18 0 78.0238 14.9185 1164 84.9845 1287.71 488.942
19 0 79.2326 14.7414 1168 87.0796 1286.97 487.177
20 0 83.1393 15.1192 1257 89.8473 1286.73 485.164
21 0 87.194 14.4276 1258 91.1089 1285.86 484.282
22 0 88.0991 15.0399 1325 88.9902 1286.65 482.414
23 0 91.0997 14.4457 1316 89.1132 1286.41 480.608
24 0 94.2545 14.4715 1364 88.8255 1286.37 480.992
25 0 97.0706 13.8765 1347 88.9978 1286.62 480.05
26 0 100.163 14.0072 1403 86.9416 1286.34 478.133
27 1 51.2334 12.609 646 83.2152 1286.16 502.011
28 0 53.0863 13.2426 703 81.9033 1286.47 502.811
29 0 56.1404 13.2169 742 80.8221 1285.86 502.704
30 0 59.1312 14.2057 840 77.6083 1286.03 499.925
31 0 58.0284 12.8386 745 78.3128 1286.29 502.124
32 0 58.0225 12.8054 743 78.5343 1285.52 502.766
33 0 61.0377 13.7128 837 77.0609 1285.88 502.054
34 0 62.0794 13.0961 813 79.6531 1285.6 500.124
35 0 66.0392 13.386 884 80.0136 1286.06 499.423
36 0 70.0601 13.9309 976 81.2377 1285.02 496.353
37 0 71.0785 13.5906 966 84.266 1285.52 493.881
38 0 75.0183 14.0632 1055 84.237 1285.25 492.924
39 0 79.0426 14.6124 1155 86.8 1285.75 490.622
40 0 79.0685 14.4685 1144 89.8435 1285.69 489.945
41 0 83.0562 14.9899 1245 91.4835 1285.26 487.763
42 0 86.0691 14.7672 1271 93.2856 1285.36 487.101
43 0 90.0695 15.2216 1371 93.8767 1284.9 483.651
44 0 92.0941 14.7784 1361 96.3248 1284.96 482.191
45 0 96.1799 15.2735 1469 95.7338 1285.03 481.593
46 0 99.2662 15.6146 1550 96.1677 1284.81 479.915
47 0 103.245 15.8555 1637 95.8485 1284.86 476.398
48 0 105.125 15.0582 1583 98.1087 1285.29 473.557
49 0 109.117 15.0206 1639 99.6303 1285.52 472.266
50 0 112.082 15.1853 1702 100.6 1284.82 471.173
51 0 117.106 15.3792 1801 101.499 1285.44 470.852
52 0 117.106 15.439 1808 176.364 1285.43 470.85
53 0 126.206 15.7362 1986 100.967 1285.05 466.811
54 0 129.138 15.3712 1985 102.059 1284.93 463.588
55 0 134.095 15.4816 2076 100.912 1285.13 461.816
56 0 138.159 15.4749 2138 100.519 1285.16 460.116
57 0 144.172 15.5509 2242 99.3577 1284.84 455.311
58 1 76.0496 11.9264 907 100.022 1285.34 488.111
59 0 79.1006 12.3134 974 94.5647 1285.49 486.909
60 0 83.1378 13.7603 1144 96.5682 1285.14 485.591
61 0 84.0686 13.7626 1157 86.8876 1285.42 486.305
62 0 87.1152 13.7404 1197 87.7485 1286.1 484.206
63 0 89.0748 13.5167 1204 89.7907 1285.61 483.891
64 0 93.0822 13.6868 1274 93.5149 1285.96 481.641
65 0 94.3283 13.1986 1245 96.7173 1285.68 482.228
66 0 99.0944 13.8757 1375 94.2553 1285.57 480.295
67 0 102.255 14.454 1478 92.6468 1285.03 478.3
68 0 105.162 14.121 1485 94.3441 1284.54 476.397
69 0 105.162 14.1971 1493 157.095 1283.54 476.424
70 0 112.247 13.7108 1539 92.9695 1285.15 470.762
71 0 114.301 13.5869 1553 93.7836 1285.18 467.306
72 0 119.325 14.2301 1698 90.6072 1284.83 465.163
73 0 124.312 14.4877 1801 89.4936 1284.98 462.285
74 0 128.333 14.0806 1807 89.6264 1284.93 460.754
75 0 129.382 13.6572 1767 93.5608 1285 458.178
76 0 136.389 14.4439 1970 89.7223 1285.01 455.841
77 0 140.235 14.3117 2007 89.1495 1284.23 453.46
78 0 144.236 14.3654 2072 89.0758 1285.05 454.978
79 0 150.326 14.2158 2137 88.0304 1284.31 456.654
80 0 154.317 14.4637 2232 88.7321 1285.29 455.05
81 0 157.245 14.3153 2251 90.5504 1285.54 452.626
82 1 60.1302 12.6226 759 86.0079 1286.15 499.996
83 0 62.1618 12.3388 767 86.116 1285.98 497.935
84 0 64.1505 13.1722 845 82.5657 1286.14 498.862
85 0 65.1311 12.8664 838 82.568 1285.24 497.822
86 0 67.0604 12.3322 827 82.9553 1285.57 495.756
87 0 69.0779 12.8116 885 80.7164 1286.17 493.745
88 0 70.0688 12.6304 885 81.2712 1286.04 494.104
89 0 74.0862 12.9714 961 79.6337 1285.44 492.415
90 0 73.0659 12.1808 890 81.5517 1285.67 490.784
91 0 78.0585 12.7725 997 78.7703 1285.52 489.17
92 0 79.1571 11.2687 892 72.7724 1284.98 489.155
93 0 81.0618 11.5344 935 73.354 1284.54 487.494
94 0 82.0565 11.163 916 73.3231 1285.44 487.647
95 0 87.1612 11.4501 998 72.0521 1284.41 486.174
96 0 90.1364 11.4493 1032 72.2878 1284.64 485.296
97 1 48.0473 11.6552 560 69.1982 1283.97 506.693
98 0 50.1294 11.9491 599 68.9132 1284.84 505.042
99 0 52.1219 12.183 635 69.8205 1284.04 504.054
100 0 53.0912 12.0359 639 69.3725 1284.29 505.596
101 0 56.1726 12.2302 687 71.3654 1284.7 502.696
102 0 60.118 11.4608 689 84.193 1284.34 501.396
103 0 62.1631 11.9846 745 82.3087 1284.57 500.374
104 0 61.1406 11.7434 718 82.571 1285.11 498.68
105 0 62.1224 12.5237 778 79.2982 1285.29 497.982
106 0 66.0397 12.2805 811 79.0296 1285.18 497.562
107 0 68.077 13.1909 898 77.1548 1284.74 496.151
108 0 70.2617 12.5815 884 77.905 1284.93 495.324
109 0 71.1139 12.5433 892 77.3318 1284.57 494.863
110 0 72.131 12.408 895 78.3218 1284.43 492.873
111 0 74.2394 12.756 947 77.8068 1285.58 490.949
112 0 75.2305 12.4816 939 78.2204 1284.95 491.098
113 0 77.1936 11.7497 907 79.1125 1284.92 490.032
114 0 80.2637 12.596 1011 76.5638 1284.78 489.177
115 0 84.2054 12.9683 1092 74.3059 1284.74 487.945
116 0 86.157 12.2915 1059 74.864 1284.95 487.673
117 1 46.106 10.8663 501 69.998 1284.56 507.086
118 0 48.0296 11.0973 533 71.3621 1284.54 507.317
119 0 51.0937 10.9994 562 71.7295 1285.38 505.372
120 0 52.0575 11.1992 583 71.2127 1284.44 505.082
121 0 54.0482 12.1928 659 69.3961 1284.14 504.071
122 0 55.0095 11.7071 644 69.4891 1284.28 503.138
123 0 56.0714 12.2166 685 71.6088 1284.52 500.736
124 0 57.0999 12.0666 689 70.2656 1285.89 500.885
125 0 59.0593 13.0885 773 69.2212 1285.61 500.9
126 0 57.0351 11.4316 652 74.7515 1284.5 501.862
127 0 59.056 12.5474 741 73.9892 1284.7 500.92
128 0 62.1069 11.3514 705 75.0426 1285.18 501.173
129 0 62.0513 10.6041 658 77.2325 1284.6 499.369
130 0 65.149 11.9419 778 75.5977 1284.35 497.233
131 0 66.0455 11.8858 785 75.3465 1283.81 496.15
132 0 67.1071 11.1464 748 76.0401 1283.95 496.987
133 0 72.0791 12.2921 886 71.0519 1284.11 495.558
134 0 72.0781 11.4459 825 74.5782 1284.32 493.784
135 0 77.054 12.4977 963 70.9585 1284.43 489.966
136 0 79.1482 12.066 955 71.7309 1284.48 490.419
137 0 84.1089 12.9356 1088 75.8612 1283.93 487.074
138 0 86.0719 12.629 1087 75.7534 1283.38 485.707
139 0 90.0835 13.2211 1191 74.66 1284.1 485.857
140 0 92.1835 13.2236 1219 75.8917 1284.1 482.737
141 0 95.2447 13.0191 1240 76.2258 1283.62 481.598
142 0 98.2052 12.9117 1268 77.6183 1284.02 481.5
143 1 53.0836 11.9811 636 71.8836 1284.17 504.967
144 0 55.0574 11.6061 639 72.5164 1284.25 504.285
145 0 59.0385 12.856 759 71.1449 1284.16 502.229
146 0 60.085 12.0662 725 71.9986 1284.7 502.401
147 0 60.0945 12.8298 771 72.3346 1283.98 500.728
148 0 63.1005 11.965 755 76.2596 1283.58 500.444
149 0 64.0901 12.1236 777 77.3024 1284.39 497.396
150 0 68.1054 13.2735 904 75.5398 1284.22 496.784
151 0 69.083 12.8975 891 76.4837 1284.03 496.056
152 0 72.0949 13.1632 949 76.49 1283.64 494.919
153 0 71.1283 12.5126 890 80.0843 1283.5 492.883
154 0 75.1448 13.0548 981 78.6116 1283.26 492.42
155 0 76.1498 12.9482 986 78.714 1283.93 491.466
156 0 81.1194 13.1781 1069 79.2544 1283.66 490.07
157 0 82.1524 12.7324 1046 79.8681 1284.03 487.898
158 0 85.1815 12.5966 1073 80.5937 1284.17 486.458
159 0 88.1724 13.3375 1176 79.017 1283.47 485.074
160 0 88.1222 11.8585 1045 84.1474 1283.8 484.548
161 0 92.1441 12.9146 1190 81.7655 1283.79 483.889
162 0 95.2718 12.8789 1227 82.0285 1283.67 480.716
163 0 99.1406 12.6386 1253 82.5515 1283.71 479.748
164 0 102.18 12.7226 1300 83.4785 1283.98 477.789
165 0 104.194 12.3712 1289 84.1963 1284.04 476.876
166 0 106.244 12.8477 1365 84.6374 1283.68 473.322
167 0 111.175 12.5208 1392 85.3592 1283.48 470.101
168 0 115.186 11.9198 1373 87.4574 1283.58 465.636
169 0 120.286 12.5118 1505 85.994 1284.06 465.205
170 0 125.345 12.653 1586 85.0649 1283.93 464.441
171 0 128.246 13.17 1689 83.6116 1284.78 463.877
172 1 50.2122 10.834 544 79.7721 1284.57 498.553
173 0 51.1063 12.1903 623 77.634 1285.23 497.072
174 0 50.0318 11.2129 561 70.0963 1284.01 501.804
175 0 54.1079 11.514 623 69.0578 1283.25 500.971
176 0 54.0166 11.6631 630 69.4365 1284.19 500.24
177 0 55.0186 10.9417 602 70.3023 1283.58 501.15
178 0 57.0427 11.2723 643 68.6159 1284.01 499.358
179 0 59.1127 10.9959 650 69.0462 1284.38 497.966
180 0 61.027 11.3884 695 68.0734 1284.95 497.014
181 0 62.1152 11.3821 707 67.8246 1284.72 497.823
182 0 63.0378 11.3265 714 70.584 1284.83 496.176
183 0 66.0504 11.4912 759 70.4269 1284.26 493.717
184 0 65.0591 11.0669 720 72.0139 1284.29 492.886
185 0 69.0676 11.6553 805 71.559 1284.37 492.229
186 0 72.0343 11.4112 822 71.5134 1284.42 492.432
187 0 75.0634 10.7642 808 72.7686 1284.11 490.303
188 0 76.0483 11.164 849 73.6313 1284.92 487.548
189 0 79.1032 11.8706 939 72.491 1285.38 486.309
190 0 81.0415 10.9697 889 74.7199 1285.49 484.371
191 0 82.0452 10.8111 887 77.4476 1284.65 482.699
192 0 88.0602 11.6284 1024 76.2471 1284.5 483.284
193 0 89.1213 11.4675 1022 77.6233 1283.42 482.174
194 0 92.0881 12.0211 1107 76.7733 1283.51 479.778
195 0 94.0596 11.9711 1126 78.5062 1283.68 478.766
196 0 99.118 12.0059 1190 78.8538 1283.39 477.619
197 1 53.0193 10.3924 551 74.1434 1283.68 500.292
198 0 56.0124 11.1225 623 71.87 1284.19 499.223
199 0 56.0627 10.9699 615 74.4114 1283.51 498.486
200 0 57.0576 12.4085 708 71.8573 1283.27 498.864
201 0 56.0323 10.5118 589 70.2037 1282.65 500.706
202 0 58.0469 10.681 620 87.3839 1283.01 501.11
203 0 61.0611 10.989 671 86.6274 1282.65 498.954
204 0 63.0529 11.0542 697 86.7748 1282.54 497.122
205 0 65.0634 11.2045 729 86.9753 1283.01 496.454
206 0 65.0634 11.1891 728 130.225 1283.02 496.549
207 0 68.0642 11.8711 808 86.9777 1282.78 495.135
208 0 70.1368 11.8198 829 86.953 1283.51 494.546
209 0 72.0704 11.7801 849 87.3675 1282.36 493.331
210 0 74.0354 12.3454 914 86.1751 1283.31 490.927
211 0 76.0798 11.6325 885 87.8136 1282.61 491.462
212 0 80.1224 12.1814 976 85.8453 1282.61 490.522
213 0 81.057 11.7942 956 87.1935 1282.78 488.628
214 0 85.0631 12.4261 1057 85.6954 1282.91 486.671
215 0 86.1469 11.9679 1031 85.2114 1283.45 485.189
216 0 90.1553 12.5561 1132 85.3728 1283.09 483.176
217 0 92.2065 12.472 1150 84.833 1283.47 481.929
218 0 96.0731 12.7507 1225 84.2882 1283.02 480.191
219 0 97.0891 12.2053 1185 85.9468 1282.08 478.352
220 0 100.036 11.5459 1155 88.4641 1281.4 478.304
221 0 105.091 12.9127 1357 86.5718 1281.91 475.667
222 0 106.113 12.006 1274 88.9851 1282.13 473.43
223 0 110.075 12.2372 1347 88.8782 1282.56 472.467
224 0 115.105 12.7883 1472 90.9633 1282.7 469.814
225 0 118.096 12.583 1486 92.6467 1282.6 469.016
226 1 59.0308 10.791 637 91.1429 1282.89 498.474
227 0 61.0596 11.759 718 88.6504 1282.59 497.454
228 0 64.0411 11.9142 763 90.8676 1282.15 495.11
229 0 65.095 12.0439 784 92.4107 1282.27 494.935
230 0 66.0517 12.4751 824 91.7985 1282.75 495.26
231 0 68.0519 12.3729 842 93.8824 1281.7 493.371
232 0 64.0373 11.2434 720 91.8764 1282.79 497.536
233 0 66.0428 11.3411 749 93.8051 1282.7 496.266
234 0 68.0408 11.1845 761 93.6216 1282.57 495.711
235 0 70.0381 11.5794 811 92.8545 1282.67 495.612
236 0 72.087 11.5971 836 93.0383 1282.51 493.356
237 0 76.0732 12.396 943 90.3659 1282.38 492.707
238 0 77.0771 11.3523 875 92.9154 1282.07 491.638
239 0 79.1363 10.8041 855 92.8491 1282.32 491.294
240 0 82.1105 11.7159 962 90.8264 1282.12 489.215
241 0 85.1233 11.5597 984 90.2419 1282.32 489.314
242 0 86.1094 11.3228 975 92.1446 1281.77 485.51
243 0 90.0646 12.1468 1094 89.2843 1281.21 483.878
244 0 94.0863 11.7977 1110 89.036 1281.34 484.28
245 0 97.0891 12.1332 1178 89.0976 1281.6 482.478
246 0 99.1425 11.9928 1189 89.0294 1281.74 481.738
247 0 98.1314 11.2604 1105 134.349 1281.66 480.433
248 0 107.235 12.0856 1296 90.1505 1282.45 474.52
249 1 56.1349 12.5947 707 85.2362 1282.88 498.784
250 0 56.0932 12.4436 698 85.1676 1283.43 499.878
251 0 59.0516 11.5323 681 86.8693 1283.35 498.787
252 0 60.0602 12.7539 766 82.6501 1282.27 498.664
253 0 58.0573 11.8676 689 82.9318 1281.49 500.128
254 0 61.1302 12.547 767 81.4316 1282.13 497.93
255 0 62.1429 12.0046 746 82.9464 1282.25 499.296
256 0 64.0989 11.5447 740 86.0797 1281.9 497.153
257 0 66.0277 11.889 785 84.8127 1282.06 497.518
258 0 69.1625 13.3165 921 82.0445 1282.57 495.871
259 0 71.0131 12.8709 914 84.7527 1282.41 494.098
260 0 73.0981 13.1878 964 87.6629 1281.95 491.9
261 0 78.1959 13.6324 1066 85.6698 1282.34 491.169
262 0 77.1272 13.2119 1019 88.9342 1282.54 489.525
263 0 81.221 13.691 1112 87.2788 1282.3 488.285
264 0 81.2505 13.3415 1084 89.7242 1281.99 485.421
265 0 86.2154 13.8142 1191 88.801 1282.43 483.484
266 0 88.3346 13.7658 1216 89.4811 1282.05 482.679
267 0 90.3053 13.5208 1221 88.8665 1281.97 483.136
268 0 94.2922 13.7445 1296 90.7153 1282.33 479.576
269 0 96.406 13.5884 1310 93.2114 1281.45 475.577
270 0 97.2138 13.2492 1288 88.5675 1281.5 476.617
271 1 50.1114 10.7161 537 90.0372 1281.52 498.883
272 0 52.18 10.6554 556 86.9173 1281.58 496.781
273 0 52.0909 11.0192 574 88.6028 1281.78 496.608
274 0 59.1169 12.6698 749 87.502 1282.4 498.485
275 0 57.1502 10.8486 620 81.1258 1282.47 500.521
276 0 60.0613 11.0054 661 82.3933 1282.4 499.699
277 0 62.1185 11.4137 709 82.8646 1282.51 497.874
278 0 65.0962 11.8747 773 81.8266 1282.46 497.078
279 0 66.0613 12.3824 818 77.9914 1282.48 496.737
280 0 68.0363 11.876 808 80.2401 1282.99 497.677
281 0 70.0613 11.861 831 81.627 1282.84 494.718
282 0 71.0937 11.8717 844 83.5889 1282.56 494.775
283 0 75.0648 11.8031 886 84.0598 1282.89 491.771
284 0 76.1524 11.8709 904 81.5332 1283.24 491.427
285 0 78.0758 11.6041 906 82.9967 1283.32 489.276
286 0 83.068 12.3152 1023 81.4487 1282.9 488.691
287 0 86.0725 12.443 1071 82.6153 1282.58 487.347
288 0 88.0544 11.3907 1003 86.0847 1281.65 486.662
289 0 90.1126 12.3068 1109 84.9134 1281.52 485.341
290 0 92.0898 12.7267 1172 89.5657 1282.1 482.475
291 0 94.0799 11.4477 1077 93.0436 1281.92 482.146
292 0 95.0438 11.9734 1138 91.4121 1281.58 480.48
293 0 100.073 12.331 1234 91.0891 1281.57 479.954
294 1 56.0208 10.7282 601 93.1032 1281.06 500.388
295 0 58.0612 11.1951 650 93.1185 1280.8 499.192
296 0 57.0301 10.8013 616 92.651 1280.25 497.669
297 0 57.0879 10.9305 624 86.6282 1281.91 501.197
298 0 59.042 10.2469 605 88.6628 1282.54 501.094
299 0 62.0286 11.3174 702 87.1453 1281.79 499.729
300 0 63.0682 10.7344 677 88.0458 1281.12 500.099
301 0 64.033 11.3223 725 88.6248 1281.27 497.015
302 0 69.0127 11.6645 805 87.2348 1281.37 496.06
303 0 70.0214 11.1252 779 89.095 1281.61 495.656
304 0 73.0324 11.7071 855 87.8094 1282.16 494.551
305 0 74.1483 11.6928 867 88.1419 1283.09 492.474
306 0 78.1254 12.1983 953 86.0923 1282.56 493.07
307 0 80.0888 12.2364 980 87.2867 1282.18 491.698
308 0 83.1054 12.0449 1001 86.9451 1282.77 489.998
309 0 85.1194 11.9949 1021 88.8227 1282.3 487.992
310 0 88.1242 12.6299 1113 87.6316 1282.3 488.061
311 0 91.0631 11.8819 1082 92.6978 1282.31 485.252
312 0 92.1891 12.4418 1147 92.9913 1281.58 485.432
313 0 94.0733 12.0757 1136 94.5528 1281.46 483.729
314 0 99.0709 12.5769 1246 93.7223 1281.77 482.711
315 0 100.079 12.7999 1281 95.0828 1281.78 479.709
316 0 104.121 12.7352 1326 95.3989 1282.27 479.398
317 0 110.214 13.1018 1444 93.8366 1282.17 474.821
318 0 111.188 13.2928 1478 94.3241 1281.8 472.324
319 0 112.144 12.4215 1393 100.309 1281.49 469.774
320 0 117.116 13.2006 1546 98.2419 1281.82 467.543
321 0 121.12 13.0284 1578 96.9278 1282.2 464.489
322 0 122.165 13.2526 1619 96.8054 1281.58 460.526
323 0 126.13 12.7488 1608 98.8601 1281.54 458.284
324 0 126.135 13.1605 1660 137.145 1281.57 459.329
325 1 69.1188 9.78026 676 95.5962 1280.5 487.09
326 0 73.0989 10.2464 749 97.0307 1281.4 486.801
327 0 80.0721 11.9018 953 88.489 1280.28 493.26
328 0 85.0925 11.6932 995 103.187 1280.68 489.801
329 0 88.1389 12.2647 1081 100.992 1280.15 488.008
330 0 92.0728 12.3706 1139 100.926 1280.2 489.374
331 0 95.0957 12.9028 1227 101.189 1280.27 487.57
332 0 95.1018 12.3657 1176 103.272 1279.68 485.988
333 0 99.1203 12.0359 1193 104.814 1279.94 484.065
334 0 102.129 12.0534 1231 105.195 1279.85 481.396
335 0 105.196 11.8256 1244 106.231 1279.75 480.906
336 0 110.174 12.4984 1377 103.82 1280.29 476.094
337 0 113.269 12.1745 1379 103.614 1280.13 473.999
338 0 116.421 11.6474 1356 103.548 1279.95 471.57
339 0 122.12 11.9555 1460 94.6158 1279.3 473.592
340 0 127.173 11.8893 1512 96.6991 1279.97 470.377
341 0 129.197 11.4786 1483 96.1753 1279.99 467.72
342 1 66.086 10.7587 711 85.9522 1280.58 499.861
343 0 69.1024 10.7666 744 83.2406 1279.84 497.386
344 0 72.1219 11.1617 805 83.5665 1279.59 497.278
345 0 73.0592 9.74552 712 79.823 1278.21 492.909
346 0 75.0327 10.5287 790 79.1354 1278.23 491.63
347 0 77.0808 10.0414 774 79.677 1278.23 490.332
348 0 77.0962 9.96159 768 81.1628 1277.66 486.841
349 0 81.1807 10.9386 888 87.1824 1279.25 493.216
350 0 86.177 11.488 990 84.6737 1279.85 492.127
351 0 86.1858 11.2432 969 85.8493 1279.36 491.143
352 0 90.179 11.2443 1014 83.5069 1278.78 488.898
353 0 93.149 11.6265 1083 81.7876 1279.08 490.401
354 0 94.1044 11.1897 1053 84.8395 1278.93 486.926
355 0 98.2275 11.6057 1140 83.3079 1278.77 486.239
356 0 100.155 11.2426 1126 85.8925 1278.63 484.314
357 0 103.215 11.4712 1184 85.4797 1279.07 482.569
358 0 106.21 11.788 1252 86.3219 1280.04 481.32
359 0 108.138 11.3004 1222 86.9288 1279.64 480.004
360 0 112.232 11.699 1313 85.5065 1279.56 479.158
361 0 115.21 12.2212 1408 84.7884 1279.09 476.587
362 0 117.185 11.9725 1403 85.211 1279.03 475.093
363 0 121.267 12.5508 1522 80.724 1279.7 472.398
364 0 123.233 11.9449 1472 84.8995 1279.75 471.203
365 0 127.181 11.802 1501 83.6849 1279.77 469.709
366 1 68.1164 10.6436 725 86.1531 1279.77 497.826
367 0 70.2299 11.5335 810 82.9025 1280.62 497.484
368 0 72.1886 11.276 814 81.9545 1280.47 493.291
369 0 73.3043 12.1275 889 80.5669 1281.14 492.766
370 0 74.1666 11.5011 853 80.8488 1280.56 490.591
371 0 77.2447 11.6254 898 84.6759 1280.79 491.745
372 0 81.4348 12.2061 994 84.0754 1280.27 492.092
373 0 82.2962 12.2849 1011 86.27 1279.78 490.412
374 0 87.4174 13.018 1138 83.9482 1280.01 488.709
375 0 89.4682 13.0885 1171 85.4654 1280.15 486.259
376 0 90.4067 13.572 1227 84.5387 1280.16 483.93
377 0 89.2101 13.1151 1170 84.0205 1281.05 484.024
378 0 88.1827 11.4081 1006 90.0089 1280.88 486.481
379 0 89.1979 11.9061 1062 90.403 1281.08 483.854
380 0 92.179 11.7923 1087 91.0248 1281.13 482.124
381 0 91.1363 10.3691 945 95.0296 1280.69 477.364
382 0 99.1674 11.8587 1176 89.9728 1280.79 477.732
383 0 102.091 12.0579 1231 88.8562 1280.73 475.755
384 0 102.158 11.7955 1205 89.5261 1280.61 474.465
385 0 104.201 11.9193 1242 89.4823 1279.77 472.68
386 0 107.227 11.9093 1277 90.1323 1280.07 468.151
387 0 112.242 11.9741 1344 89.471 1280.62 467.59
388 0 114.273 11.7 1337 91.8594 1280.67 461.993
389 0 119.225 11.4405 1364 92.9597 1280.29 459.362
390 0 121.197 11.6092 1407 93.9794 1279.9 457.451
391 1 69.1511 10.4843 725 88.7917 1280.38 484.891
392 0 70.1446 10.9631 769 92.4798 1281.02 486.272
393 0 72.1627 11.0861 800 90.8962 1281.49 483.139
394 0 75.1364 11.1664 839 95.236 1281.17 484.837
395 0 82.109 12.3982 1018 84.9617 1280.73 486.575
396 0 85.0857 12.552 1068 83.9625 1280.54 486.022
397 0 86.1889 11.5444 995 76.8955 1281.89 485.358
398 0 89.1427 12.4744 1112 74.4937 1281.95 484.369
399 0 86.0839 11.5585 995 81.5588 1282.56 480.082
400 0 87.247 12.4703 1088 95.25 1282.16 485.567
401 0 89.2149 12.9014 1151 94.503 1282.23 483.444
402 0 92.1934 12.9293 1192 92.9799 1281.07 480.888
403 0 95.2482 13.827 1317 89.3273 1281.22 480.779
404 0 96.1654 13.6848 1316 90.6922 1281.4 480.657
405 0 100.168 13.697 1372 90.5984 1281.22 480.833
406 0 105.039 15.1754 1594 79.9228 1280.24 474.726
407 0 107.09 16.1453 1729 80.4309 1281.36 476.882
408 0 110.145 15.8064 1741 81.7748 1281.6 475.996
409 0 114.155 16.6353 1899 79.3407 1281.55 473.441
410 0 116.081 15.2307 1768 82.7783 1281.05 472.236
411 0 117.167 16.1479 1892 81.4937 1280.76 470.721
412 0 123.138 15.6247 1924 81.8836 1281.42 467.354
413 0 127.109 16.419 2087 77.4988 1281.1 462.79
414 0 130.105 16.4252 2137 78.204 1281.2 463.204
415 0 133.064 16.4808 2193 78.3142 1281.06 461.429
416 0 138.101 16.4517 2272 78.3574 1281.56 458.49
417 0 140.12 16.7571 2348 78.6103 1281.55 457.359
418 0 145.128 16.9161 2455 78.1699 1280.81 454.151
419 0 151.192 17.3025 2616 77.4992 1280.28 453.404
420 0 152.155 16.4832 2508 80.8501 1280.43 450.235
421 0 159.214 18.9179 3012 76.0186 1280.57 446.229
422 0 164.235 17.2436 2832 83.4555 1280.48 442.998
423 0 169.213 18.3319 3102 83.3404 1280.68 442.151
424 1 88.1043 10.0676 887 91.6178 1279.58 481.828
425 0 92.1418 11.4606 1056 90.6278 1280.35 480.838
426 0 96.0958 12.3731 1189 93.3835 1280.82 483.291
427 0 100.124 12.7542 1277 92.0243 1281.19 480.85
428 0 104.109 13.3226 1387 90.8782 1280.96 480.707
429 0 106.067 12.1527 1289 93.9201 1280.52 479.057
430 0 110.146 12.9646 1428 90.388 1280.46 477.34
431 0 114.198 13.3978 1530 91.0719 1279.92 474.916
432 0 117.174 13.4928 1581 91.9361 1279.6 472.429
433 0 121.165 13.3867 1622 91.8391 1280 471.078
434 0 122.109 13.6272 1664 94.7849 1280.32 469.047
435 0 125.135 12.6823 1587 85.8343 1280.65 470.151
436 0 128.123 12.4724 1598 84.5376 1280.27 471.514
437 0 132.205 12.3369 1631 84.9332 1280.3 470.05
438 0 135.194 12.508 1691 83.9166 1280.45 465.756
439 0 140.198 12.2897 1723 83.1155 1280.41 463.111
440 0 143.222 12.6378 1810 83.805 1279.43 459.749
441 0 149.101 12.5083 1865 82.8005 1279.92 457.707
442 1 73.0798 11.5353 843 80.605 1280.59 493.757
443 0 77.0885 12.4662 961 81.4381 1280.65 493.67
444 0 78.122 12.3013 961 84.8189 1280.78 492.13
445 0 76.0646 11.3193 861 82.0163 1280.7 491.792
446 0 80.0979 10.9366 876 82.8425 1281.14 492.094
447 0 83.037 11.8742 986 80.9533 1280.85 490.186
448 0 86.0589 11.9802 1031 80.5713 1280.18 489.382
449 0 88.0387 11.5972 1021 81.8697 1280.83 487.43
450 0 90.0858 11.2448 1013 82.8727 1280.58 487.114
451 0 94.0676 12.0658 1135 80.9092 1280.66 485.942
452 0 95.0823 12.221 1162 82.5215 1280.83 482.476
453 0 99.1038 12.0782 1197 82.3985 1280.22 480.353
454 0 102.139 12.199 1246 83.2825 1281.41 478.823
455 0 105.163 12.1811 1281 83.0539 1281.38 478.167
456 0 107.11 12.0997 1296 85.6644 1281.13 477.862
457 0 111.173 11.7475 1306 85.1914 1280.87 475.44
458 0 115.114 12.3617 1423 88.6901 1281.02 473.273
459 1 62.1141 11.0764 688 87.4593 1280.44 500.371
460 0 62.0819 11.3076 702 84.6766 1280.28 498.278
461 0 66.0823 11.6824 772 81.7876 1281.17 496.709
462 0 67.055 11.9007 798 81.0526 1281 495.056
463 0 69.1087 11.7496 812 81.8966 1280.37 494.695
464 0 73.0407 12.2671 896 80.8996 1281.04 493.23
465 0 73.0766 12.1516 888 87.2815 1279.94 491.856
466 0 74.0814 12.0273 891 89.5701 1279.78 490.754
467 0 77.059 12.5229 965 89.1627 1279.63 488.756
468 0 80.0635 12.7274 1019 88.4338 1278.96 487.59
469 0 82.0715 12.2332 1004 90.987 1279.5 486.3
470 0 81.1039 12.4901 1013 91.8381 1280.54 486.17
471 0 84.0751 12.2391 1029 93.4927 1279.86 484.207
472 0 86.1243 12.8303 1105 92.2579 1280.15 483.121
473 0 90.0924 12.6981 1144 93.4659 1280.43 482.016
474 0 91.0529 13.0474 1188 92.2769 1280.37 480.843
475 0 94.0586 12.8643 1210 95.8545 1279.82 479.739
476 0 95.1433 12.5495 1194 96.8442 1279.91 479.236
477 0 98.1111 12.7712 1253 97.1804 1279.37 477.765
478 0 101.137 13.0812 1323 96.2252 1280.1 477.462
479 0 103.098 12.5512 1294 97.7125 1280.08 474.599
480 0 106.191 12.1385 1289 93.443 1279.27 474.354
481 1 58.1831 10.8623 632 94.3085 1279.71 497.222
482 0 57.2399 10.7792 617 96.543 1279.82 497.671
483 0 60.07 11.1537 670 95.0896 1278.75 496.63
484 0 61.0702 10.8727 664 95.9563 1280.46 495.979
485 0 63.0458 11.4361 721 93.5354 1280.99 495.527
486 0 62.0358 11.2354 697 95.2812 1280.81 493.897
487 0 65.0527 10.6222 691 84.2648 1279.92 496.802
488 0 66.0592 10.1878 673 84.8321 1279.1 494.939
489 0 66.0968 10.5905 700 83.1814 1279.43 495.24
490 0 70.0461 10.8785 762 83.4462 1279.19 493.743
491 0 69.1687 10.3081 713 86.7812 1279.88 492.762
492 0 70.1199 10.5391 739 88.0447 1279.99 491.874
493 0 71.0568 10.2453 728 88.9519 1280.34 492.424
494 0 75.0736 11.6552 875 88.9874 1279.74 489.888
495 0 80.2596 11.8117 948 87.2658 1280.53 489.15
496 0 82.1713 12.0237 988 86.3472 1279.95 488.41
497 0 82.1469 11.236 923 90.4247 1280.13 486.264
498 0 86.215 12.3412 1064 87.9041 1280.12 485.591
499 0 87.157 12.3341 1075 92.1395 1280.08 484.682
500 0 88.1645 12.3065 1085 93.7751 1279.85 481.885
501 0 88.1662 12.3403 1088 127.3 1279.85 481.902
502 0 94.0922 12.1158 1140 93.4833 1279.93 480.79
503 0 97.1961 12.6548 1230 91.3049 1280.21 480.211
504 0 98.1173 12.006 1178 91.9499 1280.4 477.894
505 0 102.169 12.2934 1256 89.0963 1279.89 476.561
506 0 107.127 13.0686 1400 86.3743 1280.26 473.178
507 0 107.123 12.5649 1346 87.1174 1279.83 471.76
508 1 61.0185 10.4395 637 87.0565 1280.31 489.994
509 0 62.0168 10.7551 667 86.1994 1280.46 487.627
510 0 65.0596 10.8516 706 86.2309 1279.51 486.115
511 0 70.1792 10.7154 752 81.3152 1279.98 494.823
512 0 75.0802 11.3878 855 78.7977 1278.89 493.728
513 0 77.0904 11.5189 888 78.5991 1279.33 492.867
514 0 78.03 10.9958 858 80.4196 1279.35 494.126
515 0 80.1602 11.5768 928 79.8071 1280.04 490.824
516 0 81.0275 10.4039 843 81.6963 1279.29 489.553
517 0 88.0881 12.2945 1083 83.7156 1279.04 488.559
518 0 90.2209 12.281 1108 76.5785 1278.97 487.68
519 0 91.1431 11.2131 1022 79.3092 1279.18 486.531
520 0 91.1333 11.2912 1029 126.456 1279.17 486.505
521 1 51.0151 10.1539 518 80.0985 1278.65 506.322
522 0 52.0356 11.3192 589 78.5569 1278.59 505.693
523 0 55.0768 11.7109 645 74.5752 1279.47 506.764
524 0 56.0598 12.2369 686 75.2143 1279.06 504.671
525 0 57.0561 12.0758 689 73.9884 1279.3 505.106
526 0 58.1186 12.2508 712 75.5548 1278.91 504.153
527 0 59.0752 12.4418 735 75.4531 1278.84 504.181
528 0 61.0688 12.1175 740 76.0743 1278.78 501.509
529 0 63.1282 11.9281 753 75.7742 1279.57 500.672
530 0 66.0686 12.4265 821 73.7771 1278.24 500.112
531 0 67.0242 12.5179 839 72.9118 1278.57 499.803
532 0 71.108 12.488 888 72.5923 1279.94 497.514
533 0 71.0841 12.3516 878 74.2392 1279.36 496.514
534 0 71.0786 12.4651 886 75.0384 1278.54 496.58
535 0 75.0807 13.026 978 73.6176 1279.43 496.32
536 0 78.0745 12.5393 979 75.19 1279.6 494.907
537 0 79.1023 12.8188 1014 76.4191 1279.27 493.5
538 0 82.1074 12.9586 1064 76.391 1279.75 492.824
539 0 83.1104 13.5362 1125 75.9538 1279.79 491.991
540 0 86.0673 13.2687 1142 78.0569 1280.05 489.623
541 0 90.0731 13.2559 1194 78.4213 1280.12 488.816
542 0 91.091 13.2834 1210 78.1124 1279.22 488.433
543 0 93.1448 13.1086 1221 80.7682 1278.89 485.759
544 0 95.0461 12.9937 1235 83.6761 1278.66 485.02
545 0 98.0599 13.0328 1278 83.921 1279.02 483.238
546 0 99.0815 12.8682 1275 85.818 1278.64 482.555
547 0 102.096 13.3502 1363 87.248 1279.14 481.111
548 0 106.075 14.0278 1488 87.0786 1279.09 479.856
549 0 107.143 13.7199 1470 88.9537 1279.26 478.482
550 0 112.141 13.5276 1517 90.0501 1278.96 476.549
551 0 117.179 13.8762 1626 88.0781 1278.62 473.436
552 0 121.217 12.7622 1547 90.3717 1278.35 473.482
553 0 124.109 13.4882 1674 88.6422 1278.06 470.986
554 0 129.113 13.9645 1803 88.3134 1277.85 470.28
555 0 132.121 14.0326 1854 89.1996 1277.85 469.122
556 0 137.204 13.1338 1802 90.682 1277.93 467.429
557 1 74.0954 11.5662 857 89.2964 1277.7 500.383
558 0 74.0666 12.3943 918 90.2985 1277.6 497.594
559 0 76.1664 12.4858 951 90.6877 1278.07 496.536
560 0 80.1547 12.8751 1032 88.1919 1278.4 495.111
561 0 81.0777 12.9259 1048 94.6889 1279.96 491.995
562 0 84.1355 12.8127 1078 97.5751 1278.59 490.506
563 0 86.0603 13.0025 1119 92.9732 1278.14 490.913
564 0 89.0776 13.4826 1201 91.5279 1277.69 491.288
565 0 91.0952 13.0852 1192 93.1418 1278.23 490.64
566 0 94.164 13.1791 1241 97.0419 1278.93 488.72
567 0 96.0668 12.8765 1237 98.4487 1279.08 484.728
568 0 100.137 13.4715 1349 95.7658 1279.69 483.87
569 0 102.11 13.0252 1330 96.9541 1279.99 482.845
570 0 104.124 12.7924 1332 97.7455 1280.13 479.802
571 0 110.122 12.7859 1408 96.2237 1279.23 479.644
572 0 112.165 12.9362 1451 95.5679 1280.01 477.316
573 0 117.07 13.4877 1579 93.7372 1280.12 475.642
574 0 119.174 13.1992 1573 94.3496 1279.41 472.293
575 0 120.192 12.2803 1476 94.1145 1278.74 475.133
576 0 125.148 13.0405 1632 92.2488 1278.72 473.227
577 0 127.18 12.2189 1554 93.888 1278.34 471.385
578 0 132.209 12.934 1710 96.455 1278.17 466.981
579 0 138.157 13.0214 1799 95.9572 1277.81 466.681
580 0 140.144 12.3373 1729 95.7588 1278.18 463.511
581 0 148.105 13.1731 1951 93.3936 1278.05 461.358
582 0 150.159 11.7409 1763 96.1463 1278.28 459.904
583 0 155.276 11.4506 1778 91.1147 1277.82 455.568
584 0 160.224 12.7447 2042 93.8031 1278.16 452.724
585 0 163.199 11.82 1929 94.1037 1277.81 451.403
586 0 169.229 12.1492 2056 93.4436 1278.3 447.359
587 1 94.0922 10.1815 958 86.5512 1278.16 489.885
588 0 99.2251 11.3882 1130 84.2292 1278.08 484.873
589 0 99.2075 9.95893 988 87.5688 1279.05 488.38
590 0 104.135 10.9761 1143 84.3106 1278.75 482.866
591 0 109.211 10.4568 1142 85.6252 1277.89 485.158
592 0 112.195 11.2661 1264 89.3418 1277.85 481.605
593 1 66.1485 11.1265 736 90.8084 1277.39 502.954
594 0 66.024 11.2383 742 92.7722 1277.11 501.725
595 0 65.0583 11.5742 753 82.1089 1277.3 501.932
596 0 67.0918 11.3576 762 81.5289 1277.17 503.121
597 0 68.1558 11.1216 758 81.343 1277.67 501.954
598 0 71.089 10.6205 755 82.8927 1277.69 499.678
599 0 74.0875 10.3391 766 81.795 1277.05 500.559
600 0 75.1353 9.58272 720 83.4528 1277.42 496.471
601 0 80.1579 10.916 875 74.6126 1277.72 495.28
602 0 83.0544 10.6677 886 75.5147 1277.68 493.882
603 0 85.1037 10.1993 868 75.9608 1277.66 491.812
604 0 88.119 10.3042 908 75.3998 1277.61 490.366
605 0 91.1096 10.6355 969 74.7018 1277.26 489.648
606 0 94.0807 10.6717 1004 76.2002 1277.29 486.854
607 1 49.0247 10.5049 515 71.668 1277.69 511.67
608 0 50.0783 10.6633 534 74.9288 1277.18 508.816
609 0 51.0323 11.3066 577 75.7366 1277.07 508.418
610 0 54.0508 11.2672 609 75.0837 1276.82 507.351
611 0 54.0201 11.4587 619 75.58 1277.15 508.433
612 0 57.0743 11.7566 671 75.3636 1277.37 506.653
613 0 57.0393 11.5885 661 74.7655 1277.51 507.247
614 0 60.0386 12.0256 722 73.421 1277.48 504.986
615 0 64.0896 12.1237 777 72.1583 1276.55 504.417
616 0 65.1139 11.7333 764 72.6584 1277.16 502.686
617 0 65.1529 12.156 792 71.9306 1277.11 503.207
618 0 66.1221 11.7056 774 73.2377 1277.41 503.336
619 0 70.0809 12.1431 851 72.8719 1277.18 502.059
620 0 71.1208 12.3592 879 72.256 1277.41 499.213
621 0 72.0642 11.9893 864 73.5845 1278.02 499.214
622 0 74.1218 11.8589 879 73.1627 1277.88 496.866
623 0 76.1001 11.3403 863 74.0012 1278.19 495.313
624 0 78.0502 12.1717 950 72.98 1278.34 494.441
625 0 81.0851 11.8147 958 74.1774 1278.65 492.87
626 0 82.0674 11.2834 926 75.0626 1278.39 491.247
627 0 85.1581 11.4141 972 75.7387 1277.94 489.969
628 0 87.0902 11.4364 996 79.0944 1277.1 489.103
629 0 89.0993 11.7173 1044 79.1284 1277.52 485.425
630 0 94.0488 12.5573 1181 77.4251 1278.84 485.395
631 0 95.0498 11.0784 1053 80.7521 1278.63 481.899
632 0 99.105 11.8763 1177 78.593 1277.85 483.348
633 0 100.054 11.6737 1168 80.6875 1278.43 481.748
634 0 104.102 11.4983 1197 81.9557 1278.2 478.547
635 0 107.089 12.5222 1341 80.6562 1277.97 479.554
636 0 109.071 12.4414 1357 82.6618 1278.92 476.646
637 0 113.08 12.637 1429 82.6039 1278.73 474.927
638 0 116.131 13.4159 1558 81.656 1278.72 473.523
639 0 119.106 12.0062 1430 85.1476 1278.62 472.506
640 0 121.06 12.1345 1469 84.9156 1278.09 470.457
641 0 127.103 12.2578 1558 84.1772 1277.85 467.129
642 0 128.122 11.9183 1527 86.7426 1278.46 466.845
643 0 134.182 12.4085 1665 85.0468 1278.33 464.6
644 1 70.079 10.7593 754 78.0265 1278.29 497.41
645 0 73.1435 11.1972 819 81.8535 1278.62 495.553
646 0 75.1172 11.3822 855 87.2889 1279.13 493.739
647 0 76.1209 11.3241 862 76.5534 1278.78 492.884
648 0 80.1424 11.5045 922 77.3991 1278.56 490.287
649 0 82.1068 11.3511 932 77.0376 1278.29 489.915
650 0 85.1523 11.5205 981 78.315 1278.27 487.259
651 0 88.1292 10.9498 965 76.4477 1278.4 486.91
652 0 89.0789 11.0913 988 77.079 1278.51 484.659
653 0 91.0896 10.9123 994 77.2475 1278.86 482.613
654 0 91.0796 10.7488 979 87.0449 1278.04 484.377
655 0 97.0712 11.7027 1136 84.6092 1278.09 480.054
656 0 102.071 11.1687 1140 85.8193 1278.55 477.557
657 0 106.083 11.0951 1177 86.2065 1279.09 477.207
658 0 107.194 10.9147 1170 87.0086 1278.34 475.444
659 0 112.235 10.9858 1233 84.6878 1278.91 473.454
660 1 59.0383 9.82414 580 76.6931 1278.29 501.8
661 0 62.101 11.2076 696 76.283 1279.21 499.661
662 0 65.0706 12.7093 827 74.052 1278.97 497.174
663 0 67.1133 11.1751 750 75.3 1279.32 497.333
664 0 67.0502 11.5883 777 75.0965 1278.91 495.506
665 0 71.0986 11.9693 851 74.8931 1279.15 494.96
666 0 74.056 12.7876 947 73.2587 1280.05 494.857
667 0 75.0789 11.8942 893 74.8757 1278.62 493.923
668 0 77.0702 11.8334 912 74.7237 1279.33 493.247
669 0 80.0816 12.8244 1027 72.7225 1279.37 491.87
670 0 84.0875 12.4394 1046 73.8881 1279.25 490.602
671 0 86.1607 13.2195 1139 77.8832 1279.56 488.677
672 0 89.1481 13.371 1192 77.8381 1279.47 488.348
673 0 91.1847 12.6776 1156 90.904 1279.05 486.106
674 0 97.1348 12.4672 1211 90.1024 1279.36 483.752
675 0 99.1141 12.8841 1277 89.3806 1279.43 481.409
676 0 102.261 12.9179 1321 88.6578 1279.4 480.474
677 0 107.172 12.6713 1358 88.0059 1279.63 478.637
678 0 109.079 12.2663 1338 86.1263 1279.18 476.534
679 0 111.095 12.1428 1349 85.705 1279.16 476.129
680 1 54.0497 11.3044 611 80.8396 1279.38 504.553
681 0 57.0946 12.0677 689 77.8316 1279.46 502.459
682 0 61.0452 13.5801 829 72.7973 1279.78 502.415
683 0 61.0495 13.1041 800 72.5025 1280.26 502.276
684 0 63.0629 13.1615 830 72.7855 1280.35 502.536
685 0 64.0792 13.2804 851 72.6862 1280.15 501.678
686 0 66.1074 13.6445 902 73.1086 1279.79 499.212
687 0 70.0599 12.9603 908 74.7544 1280.16 498.724
688 0 71.0916 13.0958 931 74.5521 1280.11 498.197
689 0 73.1315 12.8946 943 75.684 1280.13 497.676
690 0 76.1156 13.624 1037 74.7204 1280.36 497.352
691 0 78.0852 13.7414 1073 75.1994 1279.68 495.779
692 0 79.0878 13.7569 1088 75.8382 1279.68 495.154
693 0 84.1349 13.9894 1177 75.7613 1280.35 494.833
694 0 85.1 13.9835 1190 75.1084 1280.16 492.676
695 0 88.0686 15.4312 1359 72.5489 1280.19 488.34
696 0 91.0895 14.5132 1322 75.208 1280.84 488.278
697 0 93.1525 14.428 1344 76.9866 1280.47 487.604
698 0 97.1454 14.4731 1406 82.569 1279.89 487.329
699 0 100.237 13.917 1395 84.3943 1279.66 485.74
700 0 101.143 13.9604 1412 85.6204 1278.94 483.11
701 0 106.104 13.4585 1428 86.4237 1279.39 484.031
702 0 107.096 13.8194 1480 86.6155 1279.03 481.42
703 1 57.063 12.0568 688 85.3198 1280.02 507.382
704 0 59.0627 11.9873 708 85.315 1280.89 506.955
705 0 60.0785 12.6002 757 80.0647 1280.97 507.441
706 0 62.0927 13.8019 857 73.8728 1279.69 506.655
707 0 63.0749 13.9041 877 74.447 1279.58 507.579
708 0 65.0743 13.1542 856 74.8785 1279.74 506.05
709 0 67.0794 13.4915 905 75.8873 1278.89 504.878
710 0 68.0597 13.4294 914 74.3096 1279.47 504.606
711 0 73.0933 13.9548 1020 69.6098 1279.49 503.363
712 0 74.0751 13.9723 1035 70.6406 1278.67 500.594
713 0 77.1097 12.9037 995 73.0482 1279.06 502.116
714 0 78.0435 12.8774 1005 73.1184 1279.4 500.39
715 0 81.0719 13.7162 1112 72.2374 1279.14 499.057
716 0 85.0722 14.2115 1209 71.5534 1278.19 497.818
717 0 84.0768 13.4282 1129 73.6953 1278.14 496.188
718 0 89.0553 13.0593 1163 73.5391 1277.97 493.077
719 0 91.117 12.5224 1141 74.6968 1278.35 493.507
720 0 95.1279 13.2138 1257 72.1989 1278.04 492.033
721 0 97.0977 12.8118 1244 73.1278 1278.77 490.425
722 1 48.0279 12.4303 597 76.2228 1278.96 514.995
723 0 52.0805 13.1335 684 75.519 1278.58 514.399
724 0 52.0854 12.5947 656 76.811 1278.28 513.21
725 0 54.039 13.2312 715 76.8042 1278.49 513.327
726 0 54.0939 12.6262 683 76.4714 1279.16 511.878
727 0 57.0873 13.0677 746 76.4584 1279.21 510.973
728 0 55.0846 12.5807 693 130.519 1279.14 510.001
729 0 61.0989 13.2081 807 77.1561 1278.79 508.808
730 0 63.0986 12.5676 793 78.2346 1278.92 507.975
731 0 64.1865 12.5572 806 79.6973 1279.21 507.067
732 0 67.1292 13.5262 908 77.6156 1279.22 505.621
733 0 67.1906 13.112 881 79.6901 1279.68 505.589
734 0 69.0977 12.9527 895 80.1128 1279.67 502.793
735 0 73.1206 12.9512 947 80.6473 1278.92 501.857
736 0 75.1145 14.0319 1054 78.0607 1279.47 499.134
737 0 77.1304 13.5226 1043 79.3452 1279.36 498.667
738 0 79.134 13.4582 1065 80.8272 1278.89 497.267
739 0 81.0929 13.2071 1071 84.1475 1278.92 496.253
740 0 83.0932 13.1419 1092 85.0201 1279.06 496.954
741 0 86.0965 13.5546 1167 84.6941 1278.26 494.875
742 0 88.1014 14.1087 1243 84.3572 1278.2 493.746
743 0 90.0997 13.9179 1254 85.5024 1278.57 493.052
744 0 90.0557 13.6582 1230 88.4431 1278.1 491.872
745 0 92.0749 13.5976 1252 88.7428 1278.35 489.74
746 0 96.1555 13.967 1343 87.1579 1278.53 489.453
747 0 99.1291 14.3752 1425 86.7053 1278.9 487.979
748 0 101.112 13.5296 1368 89.6462 1278.16 487.194
749 0 102.058 13.659 1394 88.1528 1278.44 486.593
750 0 102.151 12.5501 1282 93.5655 1278.19 488.737
751 0 107.084 13.242 1418 94.2941 1278.92 486.791
752 0 111.153 14.4396 1605 91.3421 1278.58 482.352
753 0 117.059 14.8558 1739 96.471 1278.7 479.357
754 0 121.115 15.2169 1843 92.4531 1278.78 476.518
755 1 61.0948 11.8341 723 102.219 1278.61 505.35
756 0 61.088 11.1151 679 94.6348 1279.15 498.676
757 0 64.107 11.8552 760 92.2395 1279.06 497.843
758 0 63.1038 11.5366 728 84.2472 1278.97 503.923
759 0 65.0502 11.1145 723 81.2891 1279.17 500.563
760 0 68.0476 10.9041 742 82.8518 1279.64 500.4
761 0 68.0454 10.8163 736 134.292 1280.61 500.298
762 0 72.0902 11.0556 797 85.4266 1279.86 498.125
763 0 72.1084 10.6229 766 92.547 1279.65 495.842
764 0 75.1177 10.8763 817 91.6463 1279.08 495.028
765 0 80.0976 11.6857 936 88.9038 1278.59 494.004
766 0 81.0958 11.3569 921 90.6319 1279.24 493.404
767 0 85.0811 11.5654 984 91.9024 1278.56 490.642
768 0 87.1347 12.8651 1121 100.756 1278.86 494.662
769 0 92.1122 13.0167 1199 103.937 1279.68 491.187
770 0 94.1176 12.92 1216 102.472 1279.64 488.796
771 0 99.0886 13.7856 1366 100.977 1279.52 485.9
772 1 52.0294 12.3007 640 103.275 1278.6 508.905
773 0 55.1747 12.4695 688 103.241 1279.75 507.077
774 0 55.1118 12.8103 706 91.3938 1279.37 507.231
775 0 55.0757 12.7461 702 91.1781 1280.41 508.312
776 0 58.0895 12.6529 735 90.8517 1280.14 506.68
777 0 59.0916 12.4383 735 92.185 1280.44 504.732
778 0 63.2145 13.3988 847 89.5797 1280.21 503.669
779 0 65.1039 12.1498 791 92.9886 1280.21 504.291
780 0 65.1526 13.7216 894 91.0526 1280.15 502.865
781 0 68.1305 13.0925 892 92.4081 1279.23 500.379
782 0 68.1635 12.6901 865 93.5884 1279.59 498.991
783 0 71.0788 13.2248 940 91.2319 1279.7 497.658
784 0 75.2401 13.6496 1027 90.0691 1279.77 497.425
785 0 76.1134 13.4667 1025 92.6654 1279.57 495.546
786 0 78.2374 13.4207 1050 92.48 1279.82 495.242
787 0 82.1321 13.3687 1098 91.2942 1280.27 495.378
788 0 84.1826 13.0431 1098 87.173 1279.81 490.761
789 0 87.1338 12.8194 1117 87.5649 1279.61 489.795
790 0 89.0924 12.6835 1130 87.715 1280.47 487.626
791 0 92.1384 13.2627 1222 85.6686 1280.61 488.783
792 0 95.1384 12.6658 1205 88.8133 1280.15 487.157
793 1 50.0315 10.9331 547 88.5393 1280.38 509.177
794 0 52.2061 11.3397 592 88.4172 1280.9 507.922
795 0 55.1926 11.3059 624 91.3061 1280.46 501.917
796 0 55.1799 11.5803 639 101.239 1280.43 502.801
797 0 57.1715 12.5587 718 90.4596 1281.67 505.586
798 0 58.1329 12.5746 731 91.052 1281.2 502.505
799 0 59.1298 12.3964 733 93.0232 1281.6 503.487
800 0 61.1253 12.7934 782 92.9399 1281.54 504.409
801 0 64.0838 13.5604 869 89.8527 1281.32 502.15
802 0 67.0943 12.7582 856 90.1215 1281.48 501.895
803 0 69.058 13.2787 917 88.3086 1280.53 502.346
804 0 72.0873 13.012 938 89.162 1280.41 500.217
805 0 71.1595 13.0973 932 89.8627 1280.55 499.734
806 0 74.1891 13.6947 1016 89.2047 1280.35 499.607
807 0 75.1034 12.6492 950 93.481 1280.49 498.654
808 0 78.0827 13.4857 1053 97.9725 1280.47 497.508
809 0 83.1597 13.6003 1131 103.205 1280.22 494.723
810 0 85.2059 12.8747 1097 107.716 1280.54 492.675
811 0 88.079 13.1246 1156 108.605 1280.02 486.979
812 0 90.1357 13.0803 1179 108.753 1279.62 486.255
813 0 94.2293 13.7855 1299 104.137 1279.19 485.705
814 0 97.1692 13.636 1325 103.858 1278.43 485.249
815 0 100.201 13.4031 1343 103.001 1278.79 483.166
816 0 102.249 13.5845 1389 102.189 1279.01 483.244
817 1 53.1231 12.2357 650 98.5108 1277.72 506.649
818 0 57.1921 12.9738 742 99.5472 1278.53 506.945
819 0 58.2002 13.5567 789 104.985 1278.54 506.919
820 0 60.3169 13.7441 829 104.346 1279.14 505.701
821 0 63.0909 14.2493 899 101.489 1279 508.236
822 0 62.1064 13.0904 813 106.113 1278.87 506.253
823 0 62.1064 13.0582 811 170.242 1277.88 506.433
824 0 67.0579 13.287 891 105.635 1277.94 503.004
825 0 69.1582 13.9391 964 101.918 1278.34 501.17
826 0 73.148 14.2178 1040 99.0337 1277.69 501.939
827 0 74.2421 14.6548 1088 98.7307 1277.79 498.555
828 0 77.1094 14.3173 1104 99.5553 1278.55 497.918
829 0 80.2116 14.4368 1158 98.1054 1278.33 498.343
830 0 83.1533 13.9141 1157 100.682 1277.25 497.723
831 0 86.1617 14.4844 1248 98.8061 1277.93 496.484
832 0 88.2097 14.6242 1290 98.4535 1278.55 495.754
833 0 88.2651 14.5698 1286 100.17 1278.99 494.51
834 0 93.1374 14.7309 1372 98.5656 1279.04 492.816
835 0 94.1737 14.8661 1400 100.37 1279.05 492.164
836 0 98.1834 15.2164 1494 97.1995 1279.04 489.902
837 0 100.164 14.9455 1497 101.122 1278.66 486.949
838 0 103.214 14.8138 1529 102.643 1278.71 484.502
839 0 107.204 14.8875 1596 100.857 1277.34 483.425
840 1 57.1202 11.8347 676 98.7322 1277.97 506.472
841 0 61.1776 13.6978 838 93.352 1277.88 503.819
842 0 61.0741 12.8696 786 96.8244 1277.78 503.79
843 0 64.0837 13.6384 874 98.4268 1277.23 502.222
844 0 64.1019 13.5565 869 171.24 1278.23 502.277
845 0 68.023 13.2455 901 103.058 1277.61 500.629
846 0 71.0587 13.4396 955 96.7466 1277.38 498.301
847 0 75.1353 13.0032 977 97.956 1277.59 497.111
848 0 77.0728 13.9089 1072 96.0037 1278 496.077
849 0 80.1255 13.716 1099 97.0946 1278.42 494.47
850 0 82.2082 13.7456 1130 96.0602 1278.37 492.111
851 0 83.1422 13.495 1122 96.0321 1278.48 491.831
852 0 88.0916 13.4292 1183 95.9594 1278.18 489.915
853 0 90.1497 13.5885 1225 94.8922 1278.51 488.825
854 0 92.1224 13.2215 1218 96.179 1278.59 489.232
855 0 95.1838 13.5422 1289 96.3677 1278.77 485.384
856 0 99.0792 13.363 1324 97.2553 1278.59 485.381
857 0 101.09 13.7204 1387 97.7592 1278.3 482.063
858 0 103.064 13.3995 1381 98.336 1277.87 481.216
859 0 107.054 13.2644 1420 98.8754 1278.2 478.896
860 0 110.087 13.789 1518 98.5876 1278.33 478.503
861 0 115.086 13.3552 1537 100.314 1277.66 474.409
862 1 61.0497 11.5807 707 96.2758 1278.08 502.385
863 0 63.01 12.1568 766 95.1057 1279.07 501.608
864 0 65.0899 12.1678 792 94.62 1277.59 498.803
865 0 69.0556 12.8737 889 94.0934 1278.56 499.926
866 0 70.1 12.6961 890 89.4348 1278.63 499.669
867 0 72.0916 12.6367 911 91.0549 1278.82 497.401
868 0 72.1411 11.7547 848 93.0896 1278.46 497.636
869 0 76.1576 12.461 949 93.9621 1278.35 494.322
870 0 79.1242 13.1565 1041 92.5946 1278.48 493.637
871 0 79.0798 12.5696 994 96.1207 1278.87 493.009
872 0 83.1258 12.8721 1070 94.5299 1278.48 492.45
873 0 87.1429 12.8066 1116 95.0152 1278.48 490.056
874 0 89.1061 12.5693 1120 96.2705 1278.1 488.487
875 0 89.1006 11.8742 1058 98.7363 1277.7 487.429
876 0 91.1248 11.6544 1062 99.6751 1278.11 486.442
877 0 95.1563 11.3182 1077 99.8162 1278.4 484.371
878 1 52.1584 10.8707 567 95.0388 1278.59 502.878
879 0 54.1624 10.967 594 92.0707 1278.55 503.699
880 0 52.1439 11.2765 588 86.432 1278.93 509.031
881 0 54.1167 11.5306 624 86.0865 1278.62 507.135
882 0 56.0914 12.0518 676 85.1213 1279.01 507.17
883 0 58.1719 11.5692 673 87.2125 1278.51 506.013
884 0 61.076 12.509 764 86.9699 1278.71 503.351
885 0 61.1244 12.3682 756 86.09 1279.14 504.119
886 0 64.1075 11.7303 752 88.2912 1279.16 503.269
887 0 66.1518 11.7306 776 88.7268 1278.73 501.26
888 0 68.1384 12.6948 865 87.1434 1279.3 498.348
889 0 72.1941 12.3417 891 86.1796 1278.86 496.395
890 0 73.1167 12.3228 901 86.6526 1278.66 496.363
891 0 77.198 12.3708 955 86.4953 1278.64 493.148
892 0 80.1487 13.2504 1062 84.7411 1278.44 493.215
893 0 82.1504 12.4893 1026 86.5234 1278.65 491.005
894 0 85.1748 12.8207 1092 85.4991 1278.53 487.933
895 0 87.1708 13.2384 1154 84.8943 1278.72 487.049
896 0 88.0982 12.5882 1109 87.4283 1277.59 483.726
897 1 46.0927 10.9345 504 87.7877 1279.44 501.863
898 0 50.0425 11.75 588 87.9507 1279.69 501.274
899 0 50.0355 11.1321 557 78.2603 1277.64 507.537
900 0 52.0414 10.876 566 77.553 1278.24 507.346
901 0 55.038 11.1378 613 77.5905 1277.89 505.065
902 0 56.0285 11.5477 647 76.1283 1278.61 505.597
903 0 57.0923 10.9472 625 76.1904 1278.79 503.918
904 0 59.1081 10.8784 643 77.8538 1278.61 504.222
905 0 61.09 11.3603 694 78.0158 1279.22 501.442
906 0 61.0993 11.064 676 77.5015 1279.64 501.056
907 0 65.1275 11.1934 729 76.6694 1279.35 499.14
908 0 67.0643 11.8394 794 75.3955 1279.37 497.538
909 0 70.0729 11.6165 814 76.4865 1280.37 496.367
910 0 71.1919 11.0125 784 78.611 1279.62 496.083
911 0 73.1016 10.5059 768 79.6693 1280.07 496.574
912 0 75.1164 11.2492 845 79.8473 1279.54 494.395
913 0 77.0939 11.1163 857 81.7608 1279.37 492.319
914 0 81.1233 12.5611 1019 78.8096 1278.94 491.176
915 0 84.1262 11.1261 936 84.5299 1279.72 489.606
916 0 87.1312 11.8557 1033 83.1162 1278.85 489.327
917 0 91.1047 11.8984 1084 82.2297 1278.75 487.762
918 0 93.0867 11.9888 1116 82.4507 1278.83 485.682
919 0 95.1611 11.8851 1131 83.7498 1279.05 485.779
920 0 100.118 11.9659 1198 81.985 1278.16 485.585
921 0 103.107 12.1428 1252 81.6566 1278.91 484.139
922 0 105.196 12.529 1318 80.3058 1278.99 482.598
923 1 56.0733 10.5576 592 76.8142 1278.5 504.458
924 0 59.0385 12.585 743 87.5114 1278.12 505.3
925 0 61.1081 12.3715 756 88.373 1278.5 504.872
926 0 61.0558 12.1692 743 93.5599 1278.74 504.217
927 0 64.03 12.0256 770 82.1078 1277.93 505.145
928 0 66.0898 12.1048 800 82.1712 1277.7 503.548
929 0 68.11 12.1274 826 82.3644 1276.84 504.558
930 0 68.0538 12.4019 844 83.2974 1277.76 503.405
931 0 72.0956 12.0257 867 84.2618 1277.01 500.912
932 0 74.0312 12.9135 956 82.3515 1276.76 501.414
933 0 77.0257 12.4374 958 83.3027 1276.69 499.351
934 0 79.0726 13.026 1030 82.5738 1277.28 498.913
935 0 82.0339 12.5802 1032 82.7704 1277.48 496.62
936 0 86.1242 12.8767 1109 81.7259 1276.68 495.553
937 0 89.0671 13.2484 1180 81.0407 1276.26 494.772
938 0 93.044 13.1228 1221 80.7281 1276.11 493.811
939 1 51.0305 11.0326 563 81.9964 1276.1 513.396
940 0 53.0563 11.9684 635 83.5591 1276.08 512.057
941 0 55.1232 11.8462 653 84.0368 1275.76 512.233
942 0 56.0805 12.4286 697 82.8178 1275.94 511.347
943 0 57.0256 12.696 724 82.2569 1276.15 511.54
944 0 59.0889 12.5404 741 85.3198 1276.55 508.32
945 0 61.0347 12.9598 791 82.2984 1276.07 508.56
946 0 62.0824 12.5639 780 84.5487 1275.7 508.406
947 0 64.1002 12.9797 832 84.2524 1275.26 507.256
948 0 67.0714 13.8807 931 82.8776 1275.91 506.257
949 0 68.0752 13.1619 896 85.2812 1276 504.394
950 0 71.1355 13.172 937 85.6446 1276.46 502.769
951 0 72.068 13.848 998 93.1784 1276.22 502.864
952 0 76.0843 13.8136 1051 93.2398 1277.14 502.278
953 0 78.1108 13.7881 1077 94.4113 1278.18 500.818
954 0 79.0758 13.6578 1080 94.1667 1276.19 500.751
955 0 82.0803 13.2309 1086 94.6786 1277.46 499.02
956 0 86.0574 13.8396 1191 82.5516 1276.74 497.432
957 0 85.0816 13.3401 1135 87.3366 1277.17 494.502
958 0 90.0398 13.9161 1253 85.4334 1277.34 494.31
959 0 92.1068 13.1478 1211 87.4624 1277.21 491.889
960 0 95.0888 13.8818 1320 85.5803 1277.28 491.279
961 0 97.0688 13.7634 1336 87.1647 1277.63 489.04
962 0 99.0934 14.2895 1416 86.339 1277.43 487.22
963 0 103.089 13.9879 1442 86.6533 1277.85 486.037
964 1 55.0607 11.1877 616 88.8571 1277.42 511.308
965 0 57.0154 11.453 653 89.9372 1277.61 509.363
966 0 56.0332 12.0286 674 88.0964 1277.54 510.279
967 0 61.0991 12.3733 756 87.4392 1277.67 508.796
968 0 60.0912 13.0801 786 89.1807 1277.37 506.673
969 0 65.1986 13.5279 882 87.1531 1278.92 504.307
970 0 67.1168 12.739 855 89.0468 1279.64 502.846
971 0 70.0623 13.1454 921 87.418 1278.99 500.892
972 0 74.0633 12.9214 957 88.3804 1278.72 499.351
973 0 75.066 13.3882 1005 87.1114 1278.97 497.952
974 0 76.0665 12.9886 988 90.4818 1279.22 496.571
975 0 78.083 12.9349 1010 91.0505 1279.55 495.183
976 0 82.1181 13.1031 1076 89.5753 1279.15 493.809
977 0 85.1108 13.4648 1146 88.9162 1278.87 492.732
978 0 86.1137 12.8899 1110 91.3504 1279.25 490.485
979 0 90.0766 13.0556 1176 98.1667 1279.01 490.718
980 0 91.0767 13.011 1185 100.396 1279.86 491.596
981 0 94.1418 13.1716 1240 100.172 1278.94 487.443
982 0 97.1404 13.3209 1294 99.2141 1278.97 488.458
983 0 98.1635 12.8052 1257 91.8051 1279.15 486.027
984 0 99.0588 13.0428 1292 90.6354 1278.46 486.082
985 0 104.089 13.0369 1357 90.9388 1278.52 484.799
986 0 104.273 12.1316 1265 94.5921 1278.29 482.329
987 0 109.189 12.4279 1357 93.2535 1278.24 480.418
988 0 112.17 12.169 1365 93.4549 1278.43 478.522
989 0 112.085 11.5002 1289 89.6455 1278.27 478.992
990 0 116.102 12.0153 1395 92.4444 1278.31 477.935
991 1 64.1835 11.249 722 94.615 1278.92 501.313
992 0 63.1128 10.5842 668 92.7275 1279.06 497.027
993 0 67.0848 11.2246 753 95.6029 1279.17 499.461
994 0 69.1208 11.6607 806 94.6067 1278.77 497.418
995 0 71.108 11.4474 814 96.2752 1278.36 496.358
996 0 76.1162 11.9423 909 93.4874 1278.38 493.228
997 0 75.0915 11.5859 870 96.1678 1279.31 493.815
998 0 78.0671 11.0674 864 97.4155 1279.16 492.688
999 0 81.143 11.0792 899 98.2614 1279.18 490.172
1000 0 84.1274 12.279 1033 95.8083 1278.89 490.12
1001 0 86.1136 11.241 968 98.3988 1279.2 488.428
1002 0 89.0883 11.7524 1047 96.5692 1279.08 488.083
1003 0 92.1469 12.2739 1131 94.5871 1279.4 485.427
1004 0 95.0753 11.9379 1135 97.9198 1279.69 483.868
1005 0 99.1591 12.0513 1195 94.687 1279.91 483.426
1006 0 101.091 11.6826 1181 98.7993 1280.37 481.66
1007 1 52.0422 10.4146 542 94.1125 1279.5 507.651
1008 0 52.0278 11.2055 583 97.2933 1279.24 506.226
1009 0 54.0187 11.8478 640 85.0891 1279.86 507.964
1010 0 56.0817 11.3763 638 86.0157 1281.65 506.078
1011 0 55.0509 11.5529 636 85.2767 1281.67 506.588
1012 0 59.0908 12.3031 727 81.575 1280.7 506.011
1013 0 61.0989 11.7678 719 82.1989 1280.58 504.919
1014 0 61.1188 11.4204 698 83.563 1280.5 503.556
1015 0 63.0816 11.715 739 84.1164 1279.78 502.15
1016 0 65.0958 12.0284 783 83.4291 1280.07 500.433
1017 0 66.1057 11.7993 780 84.7936 1280.03 500.182
1018 0 70.1375 12.1048 849 82.4688 1280.82 499.548
1019 0 70.1452 12.3886 869 83.901 1280.62 498.528
1020 0 72.1586 12.4032 895 83.8637 1280.96 498.192
1021 0 75.0713 12.255 920 83.9065 1281.24 496.815
1022 0 77.1026 11.9581 922 83.5304 1281.13 495.746
1023 0 82.1183 13.7241 1127 75.3532 1281.76 494.961
1024 0 82.104 12.4842 1025 79.0137 1281.63 494.904
1025 0 85.1682 13.2444 1128 78.719 1281.03 493.838
1026 0 88.1093 13.0406 1149 79.9617 1281.43 490.904
1027 0 91.1633 12.0114 1095 93.4164 1280.36 489.772
1028 0 96.1674 13.1853 1268 90.1002 1280.58 487.974
1029 0 97.1819 12.5538 1220 92.7016 1280.17 486.167
1030 0 98.1289 12.4224 1219 94.0829 1280.32 485.235
1031 0 102.225 12.0226 1229 94.0431 1279.95 484.714
1032 1 56.0534 10.7397 602 89.9352 1281.05 508.749
1033 0 57.0725 11.9147 680 88.7853 1281.26 507.593
1034 0 61.1487 12.1671 744 89.9274 1280.01 501.997
1035 0 62.0375 11.493 713 92 1280.85 503.39
1036 0 64.0383 12.2114 782 91.4693 1280.34 502.806
1037 0 67.0921 11.8941 798 93.0514 1280.66 501.711
1038 0 70.0723 12.3016 862 92.6705 1280.54 502.304
1039 0 71.1176 12.9223 919 92.4222 1279.96 500.555
1040 0 72.1313 13.0041 938 93.0821 1280.42 499.756
1041 0 75.0995 12.8097 962 93.1486 1279.97 497.511
1042 0 77.0877 12.8555 991 94.8456 1279.87 495.755
1043 0 80.1924 12.9439 1038 94.6522 1279.79 495.382
1044 0 83.1496 13.0488 1085 94.1005 1279.98 495.609
1045 0 83.1223 12.8365 1067 96.4086 1279.58 494.507
1046 0 85.1414 12.7553 1086 98.1114 1279.33 492.142
1047 0 88.1491 12.5469 1106 99.3237 1279.48 491.193
1048 0 92.1554 13.347 1230 98.7724 1279.46 488.955
1049 0 93.1181 12.7473 1187 100.985 1279.96 491.968
1050 0 99.1535 13.4539 1334 93.2391 1279.87 491.184
1051 1 50.1043 11.7954 591 95.313 1279.58 509.085
1052 0 51.0511 11.8313 604 88.6192 1279.87 511.674
1053 0 52.1477 12.8289 669 82.8595 1278.87 510.891
1054 0 52.0521 12.9486 674 83.9169 1278.56 510.15
1055 0 55.0688 12.8385 707 85.2419 1279.17 509.719
1056 0 55.0796 12.5273 690 87.2754 1278.91 508.559
1057 0 56.115 13.0268 731 86.7497 1279.43 509.973
1058 0 59.0522 12.1418 717 89.675 1279.79 508.738
1059 0 60.0228 12.8951 774 89.4367 1279.3 508.389
1060 0 62.0758 12.9036 801 89.7353 1278.64 508.959
1061 0 64.0617 13.2529 849 88.9246 1279.25 507.426
1062 0 64.0393 13.0233 834 90.548 1279.1 507.974
1063 0 67.0481 13.3635 896 89.683 1279.11 507.148
1064 0 68.0917 13.1 892 90.7242 1279.45 505.655
1065 0 71.0208 13.2778 943 90.8091 1279.12 503.773
1066 0 72.097 13.3154 960 92.7448 1278.99 502.819
1067 0 73.0209 13.681 999 92.966 1279.41 503.119
1068 0 76.071 13.5794 1033 94.668 1279.04 500.992
1069 0 76.0735 12.856 978 98.8068 1278.67 500.574
1070 0 79.0452 13.1317 1038 97.8786 1278.81 499.01
1071 0 81.0551 12.1152 982 102.488 1279.16 498.211
1072 0 83.0235 13.1288 1090 101.638 1279.25 496.067
1073 0 86.1375 12.9444 1115 102.27 1279.02 496.508
1074 0 88.0628 12.8545 1132 104.256 1278.76 494.481
1075 0 90.0437 12.816 1154 104.347 1279.06 492.862
1076 0 93.1296 13.2074 1230 102.924 1278.65 491.969
1077 0 93.1264 13.2723 1236 138.405 1277.65 491.907
1078 0 97.0738 13.3198 1293 102.841 1279.71 489.732
1079 0 101.078 12.9602 1310 103.619 1279.38 489.308
1080 0 105.08 13.3612 1404 104.298 1279.67 486.615
1081 1 56.0261 11.2805 632 99.394 1279.89 511.206
1082 0 57.0922 11.7354 670 97.2642 1279.9 510.257
1083 0 62.0205 12.3669 767 91.5919 1279.42 508.186
1084 0 61.1182 12.1568 743 96.428 1279.48 509.429
1085 0 63.1594 12.0805 763 96.1048 1279.38 509.121
1086 0 64.0978 12.0285 771 97.153 1280.06 507.095
1087 0 67.1081 12.5618 843 95.3345 1279.79 505.873
1088 0 69.1078 12.6614 875 94.4309 1279.4 506.128
1089 0 70.0322 11.9659 838 108.541 1279.59 504.06
1090 0 73.1023 12.6125 922 107.67 1279.91 502.381
1091 0 77.0658 12.5218 965 106.424 1279.51 501.127
1092 0 79.0723 12.6214 998 102.039 1279.21 499.201
1093 0 81.1338 12.3746 1004 103.329 1280.04 496.211
1094 0 85.0475 12.1462 1033 104.4 1279.66 496.45
1095 0 87.0248 12.1919 1061 106.971 1279.47 494.008
1096 1 44.0101 10.384 457 103.085 1279.26 516.825
1097 0 48.0094 11.706 562 97.8861 1279.58 515.174
1098 0 48.0284 11.7639 565 99.4478 1279.74 513.534
1099 0 50.0597 11.746 588 99.5663 1281.32 517.238
1100 0 50.0322 12.352 618 99.6214 1280.52 515.002
1101 0 52.0591 12.3129 641 98.6693 1279.69 513.128
1102 0 57.0486 12.9363 738 93.836 1279.14 511.747
1103 0 59.0241 13.3674 789 91.4525 1279.19 510.193
1104 0 60.0354 13.2255 794 90.2922 1278.81 509.23
1105 0 62.0623 12.9225 802 90.2194 1279.01 508.909
1106 0 62.0328 12.703 788 90.5876 1279.5 508.944
1107 0 64.0908 11.9206 764 91.4463 1279.41 508.135
1108 0 65.0523 11.8366 770 92.6987 1279.63 507.101
1109 0 69.0233 12.5175 864 90.6018 1279.53 505.128
1110 0 71.1205 12.7811 909 88.9197 1279.3 505.114
1111 0 75.0269 12.2223 917 90.0654 1278.97 503.044
1112 0 76.0544 12.4911 950 91.1463 1279.13 501.695
1113 0 78.0756 12.6032 984 91.4573 1279.3 500.047
1114 0 81.0505 12.8932 1045 90.0258 1278.56 499.931
1115 0 83.0529 12.0164 998 92.5491 1279.53 498.593
1116 1 47.054 11.4549 539 92.961 1280.44 516.87
1117 0 47.0095 11.5721 544 96.2574 1279.63 515.533
1118 0 48.0136 11.2885 542 103.124 1278.9 513.88
1119 0 50.1426 11.8661 595 106.734 1280.88 511.877
1120 0 50.1368 12.0071 602 97.5615 1280.23 513.719
1121 0 50.0332 12.2519 613 95.8891 1280.57 512.85
1122 0 53.0558 12.3832 657 95.1492 1280.44 513.872
1123 0 54.0941 12.5522 679 92.8277 1280.23 511.96
1124 0 56.099 12.9058 724 92.768 1280.57 510.988
1125 0 58.1035 13.2694 771 94.0584 1280.41 509.316
1126 0 58.1045 11.9784 696 100.088 1280.99 509.286
1127 0 62.0542 12.7147 789 98.9455 1280.43 508.583
1128 0 62.0357 12.8152 795 101.453 1279.64 507.564
1129 0 63.0394 12.7698 805 103.439 1279.66 507.798
1130 0 66.064 12.6847 838 102.488 1279.58 506.51
1131 0 66.0677 12.6688 837 101.833 1279.63 505.662
1132 0 67.0704 13.21 886 104.648 1279.84 504.015
1133 0 71.0415 13.3865 951 99.4269 1279.73 503.738
1134 0 73.0687 12.6456 924 100.982 1279.57 503.383
1135 0 77.0703 13.4293 1035 102.152 1279.76 502.033
1136 0 77.0663 13.6116 1049 103.27 1279.26 502.023
1137 0 79.0546 13.6362 1078 103.174 1279.32 499.222
1138 0 81.0775 13.3329 1081 104.426 1279.88 498.174
1139 0 85.0783 13.5875 1156 105.577 1279.03 496.541
1140 0 88.083 13.9528 1229 105.989 1279.52 495.092
1141 0 89.0977 13.7265 1223 108.119 1279.85 496.029
1142 0 94.1384 13.7563 1295 103.489 1279.46 493.395
1143 0 96.1064 13.2249 1271 109.138 1279.54 491.921
1144 1 49.0328 12.0124 589 112.545 1279.66 514.295
1145 0 52.0159 12.3424 642 107.801 1278.92 514.16
1146 0 53.034 13.1802 699 101.793 1278.48 514.133
1147 0 55.0625 12.7491 702 101.259 1279.27 512.48
1148 0 55.1079 12.285 677 101.554 1279.51 511.679
1149 0 58.1005 12.6849 737 98.3202 1279.67 511.531
1150 0 60.0563 12.6881 762 87.8465 1279.8 509.117
1151 0 62.0608 13.1484 816 87.1826 1279.18 507.993
1152 0 63.0592 12.9402 816 88.8664 1278.99 507.863
1153 0 66.0289 12.9186 853 88.9965 1278.65 507.028
1154 0 68.0626 13.4288 914 87.5383 1278.73 504.248
1155 0 70.0607 13.1743 923 88.3348 1278.41 503.948
1156 0 74.1192 13.8156 1024 86.6299 1278.68 501.604
1157 0 74.1195 12.9655 961 89.462 1278.9 501.504
1158 0 77.0673 13.5855 1047 88.8672 1278.69 499.514
1159 0 79.0774 13.4805 1066 87.3161 1278.48 499.085
1160 0 82.082 13.4743 1106 87.8987 1278.51 497.622
1161 0 84.1143 13.2439 1114 91.956 1278.1 497.459
1162 0 86.0867 13.649 1175 92.3362 1278.59 495.342
1163 0 87.1007 13.2031 1150 91.3139 1278.03 494.199
1164 0 89.1131 12.8152 1142 92.6103 1278.11 494.045
1165 0 91.1162 12.8627 1172 94.7611 1277.88 492.52
1166 0 94.0685 12.7248 1197 94.0401 1278.17 491.164
1167 0 93.1195 11.5228 1073 98.4688 1278.42 491.543
1168 0 98.1297 11.9536 1173 97.2447 1278.24 491.218
1169 0 101.082 12.0101 1214 98.6903 1277.85 488.138
1170 0 105.089 12.3515 1298 97.7396 1277.93 487.361
1171 0 108.101 12.6456 1367 98.3497 1277.55 485.658
1172 0 111.192 12.4469 1384 99.9783 1277.98 483.404
1173 0 118.114 12.9028 1524 98.2841 1278 481.312
1174 0 120.179 13.0473 1568 98.6684 1277.37 479.542
1175 1 63.0609 11.5603 729 97.8532 1278.05 506.661
1176 0 66.0353 11.721 774 99.2054 1277.66 505.596
1177 0 68.0413 12.316 838 97.8031 1277.32 504.308
1178 0 69.1308 12.2087 844 100.476 1276.12 503.136
1179 0 70.0614 11.8325 829 103.796 1276.42 503.052
1180 0 71.0505 11.5692 822 105.698 1276.38 503.192
1181 0 74.0946 11.9577 886 103.828 1277.15 502.734
1182 0 77.0679 12.5863 970 102.714 1276.98 502.061
1183 0 81.051 12.671 1027 103.339 1277.11 500.988
1184 0 82.0902 12.3645 1015 105.429 1277 499.68
1185 0 85.2168 12.7205 1084 102.293 1276.83 499.104
1186 0 87.086 12.436 1083 105.49 1278.08 496.235
1187 0 89.0703 12.3386 1099 106.84 1277.09 496.075
1188 0 94.0484 12.6531 1190 106.166 1277.21 493.998
1189 0 95.0419 12.9943 1235 107.734 1276.89 492.012
1190 0 97.0366 12.5107 1214 109.175 1276.68 490.543
1191 0 101.064 12.9917 1313 106.289 1276.76 488.413
1192 0 103.061 12.7982 1319 105.757 1277.33 488.622
1193 0 108.108 12.987 1404 104.559 1278.06 485.489
1194 0 111.108 13.0324 1448 102.785 1278.24 484.899
1195 0 112.095 13.3637 1498 101.385 1278.02 485.185
1196 0 115.099 11.6683 1343 113.235 1277.24 484.52
1197 0 121.112 13.2026 1599 101.953 1277.56 480.742
1198 0 123.095 13.4449 1655 101.027 1278.09 479.752
1199 0 128.129 13.1742 1688 103.076 1278.14 477.101
1200 0 132.211 13.4331 1776 102.87 1278.24 474.234
1201 0 136.262 12.9236 1761 106.18 1278.01 469.907
1202 0 142.126 14.0439 1996 102.588 1277.8 468.342
1203 0 146.162 13.6972 2002 106.512 1278.11 465.799
1204 0 151.15 13.4303 2030 108.16 1278.08 462.229
1205 0 156.258 13.8489 2164 108.228 1277.23 461.759
1206 0 159.3 13.6849 2180 106.852 1277.91 458.948
1207 0 162.245 13.307 2159 109.874 1277.92 455.459
1208 1 89.1909 11.3016 1008 111.74 1278.04 490.993
1209 0 93.1275 11.8225 1101 108.262 1278.79 489.889
1210 0 95.1565 11.4128 1086 94.3499 1277.7 488.434
1211 0 99.0291 11.946 1183 93.0668 1276.97 488.678
1212 0 101.023 11.7201 1184 92.8868 1277.51 487.264
1213 0 105.082 11.7908 1239 93.6263 1277.2 487.391
1214 0 109.075 12.0559 1315 96.0943 1276.93 484.76
1215 0 112.062 12.8589 1441 94.7523 1278.12 482.611
1216 0 114.064 11.7215 1337 98.8691 1277.71 482.524
1217 0 119.131 10.6521 1269 103.554 1276.55 478.595
1218 0 120.141 11.0703 1330 102.251 1276.56 478.614
1219 0 125.073 11.5292 1442 99.9022 1276.72 478.054
1220 0 124.152 11.3973 1415 100.262 1276.73 477.392
1221 0 131.144 11.7275 1538 99.3973 1276.74 472.798
1222 0 133.159 11.3774 1515 100.38 1276.88 472.337
1223 0 139.173 11.9707 1666 98.1627 1277.36 470.624
1224 0 145.098 12.3779 1796 96.2372 1277.78 471.05
1225 0 148.133 12.2795 1819 98.1803 1278.1 466.526
1226 0 152.17 11.9274 1815 99.3796 1277.12 465.213
1227 0 156.325 12.3845 1936 97.9711 1277.31 463.138
1228 0 158.187 11.7013 1851 99.6548 1277.09 457.918
1229 0 165.273 11.478 1897 98.9072 1276.98 456.468
1230 0 172.241 12.3606 2129 95.1996 1277.1 453.031
1231 0 175.247 11.926 2090 96.7995 1276.84 449.248
1232 0 181.683 12.0154 2183 98.0889 1277.98 443.113
1233 0 179.666 9.11137 1637 99.8913 1278.16 449.935
1234 0 180.382 5.36638 968 96.8512 1278.58 479.263
1235 0 181.366 6.38489 1158 96.3584 1279.69 475.259
1236 1 147.387 12.016 1771 93.6426 1278.32 461.388
1237 0 150.497 12.0401 1812 95.6071 1277.84 456.252
1238 0 156.386 12.1558 1901 94.0068 1278.43 456.785
1239 0 161.309 12.7519 2057 95.3943 1277.72 455.182
1240 0 165.403 12.3638 2045 95.3971 1278.78 454.799
1241 0 171.45 12.7034 2178 92.5693 1278.61 451.344
1242 0 173.368 12.4186 2153 94.6433 1278.32 448.225
1243 0 178.387 12.9606 2312 93.3975 1278.33 443.882
1244 0 185.493 12.6366 2344 91.8106 1278.66 443.522
1245 0 190.585 12.4039 2364 92.8177 1279.54 438.19
1246 0 196.46 12.9696 2548 91.4741 1278.31 435.628
1247 0 202.554 12.841 2601 92.0946 1278.22 433.323
1248 0 209.386 13.1527 2754 92.9706 1277.85 427.9
1249 0 215.573 13.5546 2922 93.127 1277.83 426.69
1250 0 221.542 13.2841 2943 94.4628 1278.25 423.741
1251 0 227.533 13.1585 2994 95.4713 1278.39 422.269
1252 0 235.504 12.9552 3051 95.8532 1278.17 420.984
1253 0 241.427 12.4137 2997 97.1258 1278.96 415.479
1254 0 251.391 12.4627 3133 97.2161 1278.18 411.409
1255 0 251.391 12.4627 3133 163.861 1277.18 411.272
1256 1 211.442 11.4168 2414 97.6106 1279.48 425.392
1257 0 220.359 12.3707 2726 94.5712 1280.05 424.385
1258 0 228.427 13.0545 2982 93.3736 1279.6 417.771
1259 0 232.357 12.0504 2800 95.5768 1278.77 412.618
1260 0 241.475 12.6887 3064 94.6991 1278.46 410.186
1261 0 248.391 12.0697 2998 95.2458 1278.38 407.853
1262 0 257.385 12.9339 3329 92.7348 1278.68 405.011
1263 0 263.369 12.1844 3209 96.6229 1278.92 399.228
1264 0 270.368 12.1131 3275 97.4394 1278.96 400.302
1265 0 278.506 12.3875 3450 98.2044 1278.89 394.094
1266 0 286.407 13.3202 3815 98.4702 1278.51 390.805
1267 0 294.494 13.4434 3959 101.373 1278.44 387.936
1268 0 304.672 12.9943 3959 104.573 1278.39 380.874
1269 1 315.637 15.8821 5013 98.4444 1277.84 367.644
1270 0 324.623 14.6816 4766 101.032 1277.78 369.641
1271 0 335.777 14.7241 4944 99.3242 1277.67 358.743
1272 0 342.839 13.1374 4504 104.696 1277.33 358.639
1273 0 353.961 15.4706 5476 99.2971 1277.38 347.447
1274 0 364.886 15.2513 5565 101.059 1277.57 342.619
1275 0 376.889 15.7314 5929 98.4024 1278.55 336.575
1276 0 389.865 15.6362 6096 99.252 1278.49 332.113
1277 1 73.4594 9.78772 719 85.1335 1279.5 495.682
1278 0 75.321 11.3116 852 86.8122 1278.41 499.837
1279 0 78.4748 12.7557 1001 81.6663 1278.52 491.638
1280 0 82.3557 13.1017 1079 80.0797 1278.26 491.239
1281 0 82.3739 11.375 937 86.3042 1278.19 490.788
1282 0 84.4476 10.1128 854 87.9871 1279.19 490.811
1283 0 86.3098 10.2654 886 88.7054 1279.53 489.037
1284 0 90.5512 11.0876 1004 86.7819 1280 489.044
1285 0 90.5061 11.0821 1003 88.5414 1280.14 486.029
1286 0 98.4666 14.0657 1385 79.6996 1280.01 482.484
1287 0 96.4314 13.0352 1257 84.5362 1279.93 481.986
1288 0 98.5819 10.6815 1053 89.6448 1280.06 485.229
1289 0 100.41 10.7559 1080 88.3611 1279.96 483.581
1290 0 107.281 13.0872 1404 81.2934 1280.24 485.747
1291 0 109.365 12.3257 1348 82.8932 1280.32 484.426
1292 0 111.402 12.4145 1383 83.457 1280.18 481.915
1293 0 115.32 12.591 1452 83.3292 1279.84 480.41
1294 0 118.447 12.8665 1524 82.9324 1279.49 477.552
1295 0 121.289 12.8371 1557 84.1471 1279.97 472.687
1296 0 124.382 12.9038 1605 84.7221 1279.93 471.804
1297 1 71.3176 10.1378 723 80.4661 1279.59 501.331
1298 0 73.3305 11.3459 832 80.619 1279.56 496.96
1299 0 76.4178 11.3979 871 80.8289 1278.58 494.236
1300 0 80.3057 11.8298 950 81.5768 1280.34 495.394
1301 0 80.2699 12.0718 969 83.1538 1280.34 495.105
1302 0 84.2489 12.2019 1028 83.5 1280.36 494.703
1303 0 84.3151 11.7535 991 85.9374 1279.52 493.812
1304 0 86.4283 11.6166 1004 88.2072 1279.73 490.425
1305 0 88.276 11.7133 1034 87.5503 1279.29 491.799
1306 0 89.3659 12.3873 1107 88.1102 1279.11 487.17
1307 0 93.3217 12.0979 1129 87.7042 1278.88 486.161
1308 0 95.4064 11.3829 1086 90.9208 1278.29 485.649
1309 0 100.309 11.684 1172 90.0495 1278.06 484.738
1310 0 100.439 12.1566 1221 91.2654 1278.11 481.376
1311 0 102.406 12.4797 1278 92.2183 1278.65 482.498
1312 0 103.272 14.089 1455 91.4234 1278.43 482.398
1313 0 110.334 13.006 1435 91.292 1278.43 479.76
1314 0 114.445 13.4038 1534 91.4342 1278.4 476.676
1315 0 117.449 13.1802 1548 92.5756 1278.41 476.728
1316 0 119.358 12.7851 1526 95.6494 1278.35 473.64
1317 0 123.419 13.9038 1716 92.8223 1278.4 472.134
1318 0 126.373 13.7371 1736 93.8842 1278.36 471.679
1319 0 131.396 14.0339 1844 92.8823 1278.49 471.25
1320 0 134.268 14.538 1952 91.6363 1279.38 469.073
1321 1 72.0986 10.1805 734 88.5041 1279.82 501.433
1322 0 73.0825 10.5497 771 86.572 1279.98 501.562
1323 0 78.0596 11.6193 907 85.7409 1279.56 498.576
1324 0 78.0776 11.4886 897 87.476 1280.21 497.724
1325 0 82.1462 12.0395 989 85.9039 1280.16 496.31
1326 0 85.1161 11.8309 1007 88.0745 1281.38 493.429
1327 0 87.1568 11.9784 1044 88.3918 1280.9 492.322
1328 0 91.2346 11.9143 1087 94.9365 1280.21 489.615
1329 0 95.116 12.1746 1158 92.1589 1279.85 489.662
1330 0 96.1551 11.7415 1129 92.7095 1279.53 489.606
1331 0 99.1368 12.1348 1203 92.6708 1279.56 486.205
1332 0 102.162 11.8342 1209 91.6286 1279.31 484.39
1333 0 106.228 12.1813 1294 90.6244 1279.15 483.517
1334 0 108.134 12.1053 1309 92.191 1278.98 480.684
1335 0 111.215 12.0038 1335 91.1506 1279.11 480.986
1336 0 115.281 12.2049 1407 91.5266 1278.86 479.525
1337 0 117.346 12.2884 1442 90.3218 1278.91 477.611
1338 0 123.225 12.8383 1582 90.1928 1278.72 475.86
1339 0 124.286 12.1172 1506 94.2849 1278.52 472.603
1340 0 131.206 12.2022 1601 92.0119 1279 473.249
1341 0 134.246 12.0599 1619 93.5164 1278.87 470.861
1342 1 76.2257 10.6919 815 89.3141 1278.83 498.395
1343 0 74.088 10.744 796 89.25 1276.94 492.955
1344 0 74.1011 10.8905 807 89.3556 1276.86 489.644
1345 0 82.1747 11.7919 969 93.1827 1277.13 495.068
1346 0 86.2004 12.1925 1051 91.7602 1276.65 492.965
1347 0 87.2394 11.7149 1022 92.6448 1277.3 491.324
1348 0 89.157 11.4517 1021 86.6856 1276.32 494.655
1349 0 89.1012 11.5711 1031 87.3822 1276.61 492.582
1350 0 92.1732 11.0987 1023 88.9374 1277.25 490.574
1351 0 95.2029 11.2917 1075 85.373 1277.61 489.486
1352 0 95.1181 11.144 1060 85.6462 1276.39 486.216
1353 0 98.1629 11.5013 1129 85.7803 1276.84 486.096
1354 0 100.053 11.6438 1165 84.8223 1276.26 484.185
1355 0 100.193 10.9389 1096 87.1469 1277.11 482.188
1356 0 107.142 11.0975 1189 85.8957 1277.34 480.018
1357 0 109.192 11.3928 1244 85.7444 1278.18 479.122
1358 0 111.268 11.0544 1230 86.3325 1278.18 476.376
1359 0 114.218 11.1979 1279 87.5262 1278.33 473.217
1360 0 117.21 10.6134 1244 87.6342 1278.39 470.455
1361 0 118.437 11.4491 1356 88.3009 1277.4 463.774
1362 0 118.201 12.4111 1467 85.8575 1277.35 460.77
1363 0 120.204 12.0213 1445 86.6602 1277.71 456.253
1364 0 126.293 11.6871 1476 86.1443 1277.67 456.163
1365 1 73.1623 9.88214 723 81.1867 1278.74 485.437
1366 0 70.0976 10.2857 721 85.8294 1277.02 486.024
1367 0 79.1789 10.7857 854 82.534 1276.67 487.289
1368 0 85.1344 10.7125 912 83.3509 1277.17 494.962
1369 0 88.1734 10.8423 956 82.2228 1276.88 492.828
1370 0 89.1209 10.727 956 84.1255 1275.66 490.471
1371 0 91.0948 11.1313 1014 85.6262 1277.87 488.212
1372 0 95.2307 11.7819 1122 85.1114 1277.96 486.921
1373 0 98.0863 11.704 1148 86.6028 1276.86 486.828
1374 0 101.074 11.7538 1188 87.734 1277.26 484.186
1375 0 106.151 11.8982 1263 87.5574 1276.47 484.281
1376 0 105.113 11.226 1180 90.9686 1276.01 483.134
1377 0 107.055 12.0312 1288 83.6654 1277.31 478.54
1378 0 107.116 11.5483 1237 86.3298 1276.72 478.233
1379 0 107.079 11.8511 1269 84.3002 1277.4 477.446
1380 0 110.155 11.8378 1304 90.184 1277.65 476.08
1381 0 109.051 11.5176 1256 93.7643 1277.41 475.787
1382 0 109.12 11.382 1242 94.8575 1277.54 473.678
1383 1 65.0869 10.6934 696 89.9626 1277.67 500.276
1384 0 70.123 11.4656 804 88.5659 1276.42 502.402
1385 0 74.046 11.6549 863 86.153 1277.13 503
1386 0 77.0635 11.51 887 83.867 1277.85 501.745
1387 0 78.107 11.113 868 83.03 1278.25 500.544
1388 0 82.0344 11.9706 982 79.6273 1278.5 499.233
1389 0 83.1744 11.518 958 79.9864 1278.24 497.738
1390 0 86.0619 11.7357 1010 79.1663 1277.6 497.325
1391 0 87.0894 12.0221 1047 79 1276.74 495.072
1392 0 91.1006 12.1185 1104 79.8632 1276.83 495.565
1393 0 92.1907 11.8884 1096 83.7327 1277.38 495.597
1394 0 96.2236 11.8786 1143 85.3193 1276.6 491.972
1395 0 98.2919 12.1882 1198 87.571 1276.85 491.171
1396 0 99.1778 11.8373 1174 91.7905 1276.45 487.769
1397 0 103.155 12.6606 1306 88.0704 1277.04 489.217
1398 1 55.1013 10.1813 561 89.8431 1277.67 511.831
1399 0 56.1057 10.8367 608 90.2993 1276.99 508.429
1400 0 58.0873 11.0523 642 74.9533 1277.55 509.427
1401 0 57.0714 10.7059 611 79.6007 1277.49 508.732
1402 0 61.082 10.7888 659 80.7815 1277.28 507.788
1403 0 63.0318 11.1055 700 79.2243 1276.19 508.151
1404 0 63.0321 11.5814 730 85.8616 1275.6 506.337
1405 0 61.0846 10.9848 671 90.6379 1275.58 507.171
1406 0 62.0197 10.3838 644 93.2562 1275.63 507.425
1407 0 65.0492 10.6535 693 93.4589 1276.08 506.258
1408 0 66.0796 10.6841 706 94.7436 1275.63 505.54
1409 0 67.05 10.5742 709 96.0465 1275.08 504.241
1410 0 70.0498 10.9779 769 97.2718 1275.76 502.85
1411 0 72.0409 11.4657 826 97.4032 1275.09 503.369
1412 0 74.057 11.5046 852 99.2594 1276.3 501.124
1413 0 74.0453 11.1013 822 101.763 1276.16 499.496
1414 0 79.0896 11.6829 924 100.293 1276.15 501.016
1415 0 81.0568 11.9793 971 101.255 1275.97 498.925
1416 0 84.05 13.0399 1096 99.8212 1276.08 497.485
1417 0 85.0985 12.4562 1060 102.127 1276.68 498.611
1418 0 86.0414 12.3313 1061 101.69 1275.79 496.357
1419 0 87.0588 11.9115 1037 104.289 1276.48 494.46
1420 0 89.0923 11.6059 1034 105.479 1276.04 492.081
1421 0 94.0727 12.7136 1196 101.04 1276.13 491.322
1422 0 94.0687 12.4271 1169 104.589 1276.54 487.748
1423 0 97.0936 12.3489 1199 104.904 1276.3 486.711
1424 0 99.0344 12.5916 1247 105.199 1276.43 485.187
1425 0 102.092 12.3711 1263 106.054 1276.73 484.093
1426 0 104.036 12.438 1294 105.249 1276.56 482.941
1427 0 106.032 11.9963 1272 108.201 1276.79 481.97
1428 0 110.034 12.578 1384 106.079 1276.75 481.008
1429 0 110.15 12.0654 1329 108.678 1276.53 476.552
1430 0 115.042 12.4215 1429 107.197 1276.54 476.174
1431 0 118.04 12.5381 1480 106.18 1277.07 473.864
1432 0 121.05 12.3916 1500 104.366 1277.02 468.967
1433 0 122.051 11.6426 1421 104.046 1277.24 466.887
1434 1 66.0445 9.90241 654 92.9694 1277.7 491.763
1435 0 69.0878 10.4794 724 84.6354 1277.71 491.87
1436 0 74.0555 10.3301 765 91.4157 1278.81 489.439
1437 0 76.0324 11.1531 848 88.3998 1278.21 489.849
1438 0 78.0853 10.924 853 87.6553 1277.55 488.474
1439 0 81.1076 10.3936 843 89.2562 1277.91 487.015
1440 0 84.132 11.2086 943 87.7466 1278.68 486.738
1441 0 86.1093 11.497 990 88.3465 1278.28 480.894
1442 0 91.1688 11.3635 1036 87.0232 1277.58 482.57
1443 0 93.182 11.7619 1096 87.1597 1278.39 481.344
1444 0 94.1653 11.4373 1077 89.4958 1278.57 480.395
1445 0 101.127 11.6685 1180 88.072 1278.11 479.764
1446 0 102.158 11.8737 1213 90.7148 1278.66 477.169
1447 0 105.188 11.9976 1262 90.0412 1278.52 476.54
1448 0 110.21 11.7684 1297 91.1735 1278.54 477.278
1449 0 113.183 11.3356 1283 93.4926 1277.79 475.354
1450 0 118.144 12.9419 1529 90.4362 1277.92 478.133
1451 0 121.246 12.6767 1537 92.8744 1277.44 474.985
1452 0 127.184 12.9026 1641 91.922 1277.37 472.169
1453 0 129.245 13.1069 1694 91.6865 1278.11 469.493
1454 1 73.0691 9.90842 724 86.9613 1277.9 502.479
1455 0 75.1369 10.7005 804 86.7276 1278.87 499.347
1456 0 78.0887 11.2436 878 85.3713 1279 498.489
1457 0 79.092 11.4297 904 84.8274 1278.19 496.978
1458 0 84.0843 12.4042 1043 82.7507 1277.75 495.225
1459 0 85.0621 12.2381 1041 84.5139 1278.06 494.836
1460 0 86.0523 12.7945 1101 85.5849 1277.24 493.906
1461 0 87.0579 11.8427 1031 88.2386 1277.41 495.039
1462 0 91.0613 12.2884 1119 87.4558 1277.58 492.775
1463 0 93.2458 11.7217 1093 89.0192 1278.91 489.838
1464 0 97.1933 12.1716 1183 87.7058 1277.92 489.996
1465 0 97.1406 11.5914 1126 88.04 1278.09 489.157
1466 0 102.082 12.0883 1234 86.1588 1277.95 487.254
1467 0 104.11 11.9585 1245 86.0112 1277.36 484.097
1468 0 107.123 11.6968 1253 85.9322 1277.84 482.105
1469 0 110.158 11.9737 1319 85.5671 1278.22 479.895
1470 0 113.121 11.5274 1304 86.6035 1277.87 480.15
1471 0 118.115 12.5641 1484 84.19 1277.1 478.135
1472 0 121.123 11.7979 1429 86.7061 1276.36 475.246
1473 0 123.045 12.1582 1496 86.3429 1276.49 473.943
1474 0 130.116 13.3266 1734 83.1984 1276.82 468.741
1475 1 71.0604 10.3574 736 83.5258 1276.68 498.984
1476 0 76.0593 11.1886 851 82.1786 1277.08 498.294
1477 0 79.1497 12.1163 959 82.7122 1277.26 495.553
1478 0 78.103 11.6769 912 79.3443 1277.17 495.735
1479 0 82.0427 12.8104 1051 81.1418 1276.48 493.099
1480 0 86.1368 12.6891 1093 81.9835 1277 491.941
1481 0 87.1138 12.2828 1070 84.7673 1276.62 490.723
1482 0 91.0904 12.5919 1147 84.4839 1276.33 490.582
1483 0 93.0572 13.0028 1210 85.105 1276.68 490.512
1484 0 97.0647 13.6198 1322 83.9887 1277.1 488.437
1485 0 101.046 14.1322 1428 83.5966 1276.72 487.302
1486 0 104.146 13.3851 1394 86.8372 1276.52 484.039
1487 0 108.071 13.5744 1467 86.1377 1276.5 483.174
1488 0 109.127 13.4522 1468 88.6846 1276.38 482.522
1489 0 111.112 13.2929 1477 89.845 1276.73 480.288
1490 0 115.032 14.0048 1611 88.7554 1277.32 479.996
1491 0 119.155 13.5873 1619 89.6096 1277.97 476.853
1492 0 123.193 13.8319 1704 88.966 1277.49 474.562
1493 1 67.102 10.9684 736 94.8179 1278.24 498.954
1494 0 67.0357 10.9046 731 91.8769 1278.3 496.201
1495 0 64.0355 10.6972 685 87.4744 1278.34 490.905
1496 0 71.1923 10.9703 781 74.7606 1277.96 495.287
1497 0 74.0869 11.0951 822 74.9039 1278.3 494.367
1498 0 76.1623 11.0685 843 75.3606 1278.55 490.408
1499 0 78.1121 11.1122 868 75.5518 1278.53 489.197
1500 0 78.0797 9.54153 745 79.7154 1277.96 489.289
1501 0 78.1022 10.1662 794 79.2053 1277.7 487.152
1502 0 81.0939 9.45817 767 80.7236 1277.7 485.451
1503 0 84.0896 10.7148 901 78.646 1277.08 484.755
1504 0 85.091 10.5652 899 79.1824 1277.7 483.821
1505 0 89.1421 11.5321 1028 79.0107 1278.26 482.726
1506 0 87.0623 9.36111 815 83.7043 1277.68 480.98
1507 0 89.2171 11.3767 1015 81.6463 1277.25 478.641
1508 0 92.2316 9.98573 921 82.6851 1277.51 480.025
1509 0 96.1171 11.0386 1061 81.1932 1277.37 475.899
1510 0 97.2834 10.9063 1061 81.3525 1277.71 474.855
1511 0 98.2544 9.97411 980 84.7674 1277.1 472.537
1512 0 103.159 10.6825 1102 83.5308 1276.97 474.313
1513 0 106.138 10.7596 1142 86.1086 1276.74 471.056
1514 0 111.146 11.2104 1246 84.2344 1277.45 469.433
1515 0 115.264 12.1634 1402 82.9344 1277.8 472.581
1516 0 122.174 13.0061 1589 89.9025 1278.05 475.933
1517 0 123.29 12.7423 1571 91.7078 1277.7 473.768
1518 0 126.293 12.6056 1592 90.978 1277.59 470.644
1519 0 129.239 12.2873 1588 90.8722 1277.46 465.676
1520 0 132.354 12.0284 1592 90.7085 1277.37 461.295
1521 0 139.498 12.6812 1769 89.3426 1278.23 461.503
1522 0 142.359 12.623 1797 90.1558 1277.29 456.144
1523 0 144.247 12.3954 1788 91.9217 1277.6 453.642
1524 0 149.31 12.3769 1848 92.1104 1278.04 451.537
1525 0 149.315 12.4234 1855 154.312 1279.04 451.605
1526 0 160.364 12.8271 2057 90.457 1277.53 449.538
1527 0 166.287 13.2602 2205 90.4159 1277.91 444.452
1528 0 172.233 13.3308 2296 90.8837 1277.26 442.532
1529 0 177.441 13.1142 2327 91.6523 1277.59 439.397
1530 0 183.374 13.7697 2525 90.5945 1277.21 434.844
1531 0 188.448 12.932 2437 93.5876 1277.5 437.95
1532 0 193.451 12.644 2446 94.1222 1277.61 432.207
1533 0 199.33 12.7226 2536 94.5138 1278.09 431.939
1534 0 206.432 12.934 2670 93.8232 1278.06 426.417
1535 0 213.398 13.3178 2842 92.431 1276.81 427.237
1536 0 221.43 13.4489 2978 93.0594 1277.35 414.812
1537 1 174.48 11.199 1954 97.8019 1277.35 437.711
1538 0 179.385 12.2752 2202 96.6544 1276.9 436.074
1539 0 185.403 13.3116 2468 95.5891 1277.28 431.151
1540 0 190.409 13.0404 2483 96.7273 1277.38 431.145
1541 0 197.403 13.5611 2677 95.9025 1276.87 426.171
1542 0 205.418 14.137 2904 95.5007 1277.01 428.168
1543 0 210.44 13.7616 2896 99.0805 1277.81 423.516
1544 0 217.456 14.3247 3115 99.5059 1277.33 419.411
1545 0 223.389 14.0517 3139 99.3249 1277.02 414.825
1546 0 231.565 14.0695 3258 100.745 1276.78 411.024
1547 0 241.452 13.9821 3376 102.399 1277.01 405.628
1548 0 248.394 13.7644 3419 105.304 1277.61 402.991
1549 0 258.508 14.1427 3656 104.697 1277.09 403.391
1550 1 67.0563 11.3636 762 89.105 1279.03 499.455
1551 0 69.1954 11.1568 772 90.8264 1278.9 499.51
1552 0 70.052 10.4636 733 92.8581 1276.65 496.895
1553 0 71.076 11.5088 818 91.0208 1276.41 495.226
1554 0 74.0595 12.1659 901 88.5905 1276.29 494.336
1555 0 75.0756 11.3885 855 90.4725 1276.18 490.17
1556 0 79.1844 11.9973 950 92.2821 1278.14 493.218
1557 0 82.228 12.4167 1021 90.3918 1278 493.82
1558 0 85.2546 12.6914 1082 90.5573 1278.16 492.236
1559 0 86.3313 12.6605 1093 93.0073 1278.72 489.82
1560 0 89.2495 12.9076 1152 92.9809 1277.9 488.99
1561 0 93.1082 11.6746 1087 90.8326 1277.56 489.39
1562 0 92.1892 11.5523 1065 93.8338 1277.72 487.321
1563 0 97.1423 11.8074 1147 93.0558 1278.24 486.209
1564 0 99.0897 11.6359 1153 92.954 1277.2 483.198
1565 0 101.163 11.8028 1194 92.5193 1277.57 479.801
1566 0 105.167 11.3343 1192 91.4295 1277.02 475.154
1567 0 106.125 11.1378 1182 84.8105 1277.9 480.057
1568 0 110.156 11.5382 1271 86.0386 1278.8 476.407
1569 0 114.242 11.6245 1328 86.3645 1278.27 475.575
1570 0 116.103 11.2486 1306 89.5582 1278.2 473.884
1571 0 120.129 12.137 1458 87.9643 1277.67 475.017
1572 0 123.14 13.0258 1604 87.2113 1278.21 475.071
1573 0 124.196 12.5044 1553 89.6826 1278.06 471.693
1574 0 129.223 13.171 1702 88.3273 1277.99 470.37
1575 0 129.227 12.6444 1634 91.1377 1278.19 466.96
1576 0 132.212 12.5859 1664 90.6827 1278.3 465.413
1577 0 135.267 12.7896 1730 90.2538 1277.79 463.945
1578 0 139.242 13.2072 1839 90.2664 1277.8 460.716
1579 0 146.245 12.9919 1900 89.3532 1277.81 457.891
1580 0 149.236 12.6578 1889 91.7162 1277.42 455.666
1581 0 153.236 13.241 2029 91.3499 1277.86 452.08
1582 1 89.1522 11.2953 1007 77.146 1278.94 488.311
1583 0 93.1848 11.1284 1037 78.974 1277.6 488.46
1584 0 92.0768 10.98 1011 85.0969 1278.37 488.626
1585 0 96.1252 11.7555 1130 81.6965 1278.31 487.871
1586 0 100.102 11.2186 1123 82.0641 1278.46 485.167
1587 0 100.047 10.555 1056 82.6951 1278.2 485.031
1588 0 105.198 10.7986 1136 81.7104 1278.22 482.319
1589 0 109.126 11.2347 1226 80.1672 1277.47 482.782
1590 0 110.139 11.1132 1224 81.8178 1277.86 480.548
1591 0 113.138 11.3313 1282 81.961 1277.79 477.979
1592 0 116.129 11.9436 1387 81.7058 1277.55 478.366
1593 0 120.156 11.6598 1401 81.8058 1277.92 476.037
1594 0 122.213 11.7991 1442 81.7621 1277.61 473.366
1595 0 126.284 12.4403 1571 80.564 1277.83 473.297
1596 0 128.11 12.4502 1595 80.6031 1277.68 470.565
1597 0 131.14 12.1626 1595 82.8401 1276.96 467.971
1598 0 135.212 12.0256 1626 82.4096 1276.66 463.736
1599 0 139.206 12.4491 1733 82.6936 1276.55 459.757
1600 0 143.124 12.3809 1772 82.9244 1276.87 457.858
1601 0 147.138 12.716 1871 81.465 1277.09 456.579
1602 0 151.259 12.2968 1860 82.5263 1277.12 456.789
1603 0 154.178 12.317 1899 83.3976 1277.55 453.638
1604 0 158.186 12.0238 1902 85.0279 1277.12 451.601
1605 0 163.156 12.1601 1984 84.5968 1277.48 450.085
1606 0 166.214 11.8642 1972 86.2373 1277.01 446.202
1607 0 172.24 12.4768 2149 83.8222 1276.93 444.74
1608 0 177.164 13.0049 2304 83.2001 1277.21 441.628
1609 0 181.312 13.0272 2362 84.3315 1277.1 438.997
1610 0 185.112 13.1704 2438 84.9614 1276.72 436.477
1611 0 188.138 12.7619 2401 85.9683 1276.87 433.657
1612 0 196.158 13.4789 2644 83.7961 1277.18 432.876
1613 0 199.15 12.8546 2560 85.7738 1277.44 427.345
1614 0 205.094 13.233 2714 84.6562 1277.71 426.386
1615 0 207.089 12.9655 2685 86.8633 1276.81 420.661
1616 0 214.141 13.295 2847 84.6449 1277.48 414.138
1617 0 219.214 13.0603 2863 85.8313 1276.25 410.704
1618 0 222.136 12.6679 2814 87.4112 1276.5 405.563
1619 0 214.155 13.3688 2863 88.0905 1276.78 399.775
1620 1 326.218 8.74875 2854 105.248 1276.94 370.121
1621 1 311.276 9.02093 2808 103.383 1276.26 368.734
1622 0 307.261 8.0583 2476 105.147 1276.14 371.33
1623 0 310.279 6.69719 2078 102.814 1275.71 386.539
1624 0 309.329 11.9969 3711 101.091 1275.18 349.784
1625 1 68.0945 9.9127 675 68.6489 1278.09 496.841
1626 0 68.1737 9.51981 649 65.6903 1277.77 500.279
1627 0 69.1197 9.80907 678 66.2611 1276.93 500.131
1628 0 72.147 9.2866 670 67.3373 1277.92 499.769
1629 0 73.1385 10.3092 754 67.6844 1277.9 495.999
1630 0 75.1909 9.96131 749 68.7343 1278.19 494.443
1631 0 76.22 9.80058 747 67.8768 1277.26 493.596
1632 0 79.2132 10.4149 825 67.4982 1277.33 494.399
1633 0 82.1 10.1949 837 68.0812 1277.47 493.83
1634 0 82.1458 9.9092 814 69.699 1277.69 493.541
1635 0 84.1585 10.4683 881 67.9035 1277.41 491.479
1636 0 85.1175 8.69386 740 71.2581 1277.19 488.793
1637 0 86.2005 8.88626 766 71.5875 1277.16 487.999
1638 0 90.1801 10.1131 912 69.2127 1276.48 488.851
1639 0 92.1746 8.549 788 73.1447 1276.35 483.731
1640 0 97.235 9.37934 912 72.5373 1276.85 483.104
1641 0 100.251 9.60588 963 71.2991 1276.95 483.884
1642 0 106.276 9.15544 973 71.3679 1277.03 480.829
1643 0 105.197 9.75316 1026 70.6667 1277.52 481.12
1644 0 108.224 9.97934 1080 71.8176 1276.94 480.383
1645 0 111.124 10.3938 1155 73.5134 1277.06 476.513
1646 0 116.169 10.5536 1226 73.4543 1276.74 475.042
1647 1 98.1569 2.24131 220 81.0864 1278.19 473.545
1648 0 126.236 14.3541 1812 71.5833 1277.47 451.855
1649 0 128.375 14.2318 1827 72.4072 1276.92 460.464
1650 0 131.404 14.3679 1888 72.8125 1277.18 460.675
1651 1 75.2741 10.4684 788 73.7132 1277.09 495.839
1652 0 77.0754 10.626 819 69.4518 1277.33 494.927
1653 0 78.1414 11.8759 928 69.2155 1277.53 497.918
1654 0 79.0614 11.6239 919 70.6453 1277.75 497.271
1655 0 80.1049 11.4475 917 72.1799 1277.98 494.684
1656 0 83.0905 11.8184 982 72.6293 1277.63 495.574
1657 0 84.0996 12.1047 1018 73.1415 1277.63 492.885
1658 0 86.0771 11.815 1017 74.2507 1277.68 494.406
1659 0 89.0644 11.8341 1054 72.111 1277.35 493.312
1660 0 89.0644 12.5078 1114 74.8519 1277.95 490.018
1661 0 90.0576 11.9701 1078 75.7217 1277.89 489.257
1662 0 94.0682 12.8524 1209 74.5823 1278.4 489.094
1663 0 96.1486 12.5743 1209 79.9562 1277.63 486.51
1664 0 98.1001 12.4771 1224 79.8521 1277.31 486.392
1665 0 100.065 13.0914 1310 75.0725 1278.31 485.165
1666 0 101.098 12.018 1215 80.9885 1277.57 483.993
1667 0 105.07 12.6391 1328 79.4782 1277.14 483.041
1668 0 108.087 12.675 1370 80.6401 1276.88 479.848
1669 0 108.105 11.7016 1265 83.5913 1276.81 476.689
1670 0 111.157 12.109 1346 82.6226 1277.52 477.484
1671 0 114.051 12.0911 1379 83.6642 1276.96 473.391
1672 0 116.154 11.5794 1345 84.8535 1276.8 473.968
1673 0 119.118 12.2652 1461 83.8234 1277.25 473.695
1674 0 124.139 12.2282 1518 82.1772 1276.84 473.466
1675 0 127.18 11.9987 1526 82.8408 1276.82 469.486
1676 0 132.131 12.041 1591 83.4236 1277.12 468.376
1677 0 134.081 11.7988 1582 84.2592 1277.04 465.659
1678 1 80.1072 10.3237 827 76.0544 1276.47 493.096
1679 0 82.0298 10.6059 870 76.0161 1276.01 493.187
1680 0 84.0667 11.4314 961 77.4214 1276.1 491.937
1681 0 85.152 11.0273 939 75.525 1277.02 489.648
1682 0 86.0592 10.6322 915 76.5541 1276.63 489.008
1683 0 90.072 10.8025 973 77.1449 1277.11 487.548
1684 0 91.0497 10.5217 958 78.0136 1277.42 487.134
1685 0 95.1356 11.0369 1050 74.7743 1276.72 485.216
1686 0 99.1438 11.2967 1120 74.3509 1277.18 485.049
1687 0 102.11 11.282 1152 73.6727 1277.53 484.663
1688 0 105.163 10.7642 1132 75.2173 1277.71 480.19
1689 0 107.102 11.0736 1186 74.36 1277.67 482.054
1690 0 111.141 11.2379 1249 73.5012 1277.34 480.132
1691 0 113.205 11.7309 1328 72.8358 1276.65 474.434
1692 0 115.184 10.8695 1252 74.4449 1276.78 473.047
1693 0 121.221 11.3347 1374 72.016 1277.15 471.955
1694 0 126.208 11.1404 1406 75.239 1276.54 467.064
1695 0 128.194 10.9599 1405 72.237 1276.57 467.026
1696 0 133.193 11.6748 1555 72.8051 1276.88 464.58
1697 0 137.195 11.1156 1525 76.783 1277.05 461.357
1698 0 142.309 12.3253 1754 79.9025 1276.45 458.827
1699 0 146.249 11.3642 1662 82.4591 1276.71 455.153
1700 0 151.337 12.0394 1822 81.0735 1276.38 455.844
1701 0 154.252 12.2527 1890 81.0841 1277.27 453.186
1702 0 160.28 11.8605 1901 82.2199 1277.14 449.952
1703 0 164.223 12.2699 2015 82.0566 1277.2 448.055
1704 0 168.425 12.4328 2094 82.3773 1277.42 447.392
1705 0 171.311 11.4412 1960 87.2424 1277.51 440.843
1706 0 178.324 13.2624 2365 82.4748 1277.55 440.718
1707 0 183.293 12.8592 2357 84.7064 1277.44 439.081
1708 0 190.352 13.2176 2516 83.9789 1276.77 438.707
1709 0 194.411 13.4612 2617 85.5678 1276.71 434.593
1710 0 198.363 12.9661 2572 87.4522 1276.53 430.449
1711 0 204.352 13.3985 2738 87.9394 1276.8 427.979
1712 0 211.412 13.4619 2846 88.5337 1276.7 425.938
1713 0 213.413 13.9635 2980 90.507 1276.53 422.135
1714 1 168.277 10.7204 1804 88.4545 1277.53 447.1
1715 0 175.283 11.2162 1966 89.9425 1277.45 441.332
1716 0 182.132 12.4031 2259 88.3457 1277.33 441.158
1717 0 188.22 12.852 2419 86.3584 1277.58 439.572
1718 0 193.335 12.8999 2494 87.9158 1277.45 436.195
1719 0 199.383 12.7744 2547 90.2234 1277.37 432.133
1720 0 206.208 12.725 2624 92.2458 1276.61 427.013
1721 0 213.296 13.3711 2852 89.9323 1277.32 426.869
1722 0 220.315 13.1993 2908 87.6496 1276.8 420.954
1723 0 227.572 13.108 2983 89.0798 1276.7 419.35
1724 1 170.355 12.0102 2046 84.8964 1277.59 449.736
1725 0 175.48 11.99 2104 88.692 1277.7 446.167
1726 0 179.425 12.8243 2301 88.309 1277.04 441.907
1727 0 184.221 12.447 2293 94.0353 1276.89 438.752
1728 0 192.286 12.8975 2480 94.7738 1276.91 437.888
1729 0 197.48 13.4697 2660 92.9414 1277.27 434.339
1730 0 202.338 13.2946 2690 94.3885 1276.6 431.481
1731 0 208.364 13.1069 2731 94.2109 1276.87 428.952
1732 0 214.371 13.1268 2814 92.7381 1276.61 422.741
1733 0 221.465 12.9276 2863 91.8729 1276.92 420.749
1734 0 228.33 13.3272 3043 92.1594 1276.61 417.655
1735 0 235.321 13.9809 3290 91.9784 1276.39 414.54
1736 0 241.296 13.8378 3339 95.0015 1276.75 413.123
1737 0 250.292 13.3644 3345 96.1728 1276.64 408.167
1738 1 177.247 12.5023 2216 93.8023 1276.43 446.928
1739 0 184.373 13.0334 2403 96.3354 1277.01 443.866
1740 0 189.211 12.9696 2454 96.0326 1276.97 440.411
1741 0 193.263 12.9823 2509 95.5253 1277.33 438.936
1742 0 201.33 13.3016 2678 94.5407 1277.07 433.551
1743 0 209.215 12.6903 2655 95.1333 1276.74 427.9
1744 0 214.318 13.1674 2822 94.5415 1276.45 425.444
1745 0 220.386 13.4809 2971 93.792 1275.86 424.901
1746 0 227.409 12.6952 2887 94.8528 1275.82 419.673
1747 0 231.321 13.1116 3033 94.7286 1276 414.995
1748 0 237.248 12.94 3070 95.4928 1277.29 412.617
1749 0 245.263 12.8637 3155 94.4095 1276.85 408.005
1750 0 252.373 12.7312 3213 94.2216 1276.48 405.645
1751 0 260.478 13.2871 3461 93.0156 1275.72 397.872
1752 0 265.41 12.2452 3250 95.2686 1276.09 394.674
1753 0 274.36 13.1615 3611 91.4824 1276.11 387.354
1754 0 282.465 13.5592 3830 90.4214 1275.42 387.653
1755 0 289.377 16.2003 4688 84.8407 1275.86 374.482
1756 0 298.533 15.2847 4563 87.3772 1276.35 372.987
1757 0 309.58 15.7213 4867 85.2248 1276.43 367.413
1758 0 318.662 16.5191 5264 83.6381 1275.68 365.17
1759 0 326.787 15.5269 5074 87.2694 1275.66 361.07
1760 0 338.641 16.5721 5612 86.17 1275.93 351.953
1761 0 338.641 16.5219 5595 152.663 1275.93 352.035
1762 0 358.465 15.4548 5540 92.7536 1276.24 341.178
1763 0 370.425 16.5621 6135 91.1068 1276.22 339.517
1764 0 381.531 16.1298 6154 90.0967 1276.45 332.952
1765 0 394.458 16.1411 6367 89.5971 1276.62 323.127
1766 0 389.441 15.9742 6221 91.7425 1277.18 297.685
1767 0 380.402 16.848 6409 92.4648 1276.76 305.152
1768 0 378.661 15.5759 5898 96.4663 1276.4 309.982
1769 0 387.063 15.7442 6094 97.4029 1276.54 318.365
1770 0 383.454 16.8521 6462 93.7885 1275.89 334.076
1771 0 394.498 16.2206 6399 94.2893 1275.55 324.084
1772 1 90.273 9.7039 876 81.6849 1277.07 486.038
1773 0 90.2347 9.87425 891 84.1414 1276.91 482.144
1774 0 94.2065 10.615 1000 80.859 1276.79 483.106
1775 0 96.1816 10.3554 996 79.0151 1276.53 485.883
1776 0 101.296 9.89177 1002 80.8812 1276.74 482.974
1777 0 102.186 10.9409 1118 73.5027 1276.39 476.448
1778 0 106.124 10.3464 1098 76.8206 1276.39 477.242
1779 0 108.168 12.4529 1347 72.2866 1276.7 470.327
1780 0 111.111 10.6561 1184 79.1943 1276.23 477.247
1781 0 115.269 10.5926 1221 81.8698 1277.37 472.885
1782 0 119.168 11.06 1318 78.2079 1277.08 467.958
1783 0 120.173 9.40314 1130 78.9734 1277.41 468.801
1784 0 128.112 14.1204 1809 70.9364 1277.24 456.808
1785 0 131.235 13.7387 1803 72.0588 1277.53 458.182
1786 0 137.179 15.2938 2098 66.5305 1277.03 460.447
1787 1 81.2878 10.5797 860 68.3767 1276.87 490.994
1788 0 86.0943 11.8475 1020 68.8343 1277.04 490.953
1789 0 86.1472 11.2018 965 66.4176 1277.62 495.216
1790 0 91.1199 13.3999 1221 63.0975 1278.55 493.754
1791 0 90.1321 11.4721 1034 69.8114 1278.3 491.035
1792 0 94.1848 13.431 1265 66.7004 1278.28 491.305
1793 0 95.1267 12.6673 1205 69.4598 1277.73 490.845
1794 0 98.0834 12.5607 1232 69.8036 1277.41 489.558
1795 0 100.179 12.7272 1275 70.7584 1277.01 490.071
1796 0 104.167 12.9119 1345 71.3338 1277.17 487.538
1797 0 105.252 11.4773 1208 75.1424 1277.84 485.835
1798 0 106.25 11.4353 1215 77.1498 1276.92 483.862
1799 0 111.152 11.4618 1274 75.6013 1276.87 481.813
1800 0 113.246 11.8415 1341 76.5973 1276.52 480.388
1801 0 116.219 11.7795 1369 75.6443 1276.58 477.703
1802 0 121.094 12.1145 1467 74.9577 1276.4 479.955
1803 0 123.149 13.0655 1609 74.0901 1276.47 476.469
1804 0 125.315 11.4352 1433 77.6727 1276.18 475.059
1805 0 130.181 12.4672 1623 76.7221 1276.09 473.13
1806 0 134.13 12.2344 1641 77.56 1276.75 470.35
1807 0 138.326 12.5717 1739 76.5233 1276.97 472.12
1808 0 142.225 12.6138 1794 77.3724 1276.45 468.535
1809 0 146.318 12.671 1854 77.247 1276.86 465.46
1810 1 79.1407 11.1321 881 71.4393 1276.79 499.687
1811 0 82.1372 11.9313 980 71.0806 1275.67 492.964
1812 0 83.1835 12.6347 1051 71.8744 1276.87 493.315
1813 0 83.1835 12.6948 1056 136.047 1276.86 493.246
1814 0 88.1075 11.6449 1026 71.7593 1276.45 493.166
1815 0 90.1624 11.4793 1035 73.3188 1276.66 489.926
1816 0 92.1404 11.7212 1080 71.3148 1276.72 489.104
1817 0 93.1592 11.5823 1079 73.1288 1276.01 488.699
1818 0 98.218 12.7981 1257 71.436 1276.62 488.57
1819 0 100.16 12.5001 1252 72.8578 1275.59 484.898
1820 0 103.248 12.407 1281 72.9032 1276.88 485.059
1821 0 105.126 12.3186 1295 77.5251 1276.61 482.678
1822 0 109.11 13.0511 1424 75.7935 1276.66 481.285
1823 0 110.111 12.4601 1372 77.2719 1276.58 480.29
1824 0 113.186 13.1641 1490 74.3711 1276.91 477.718
1825 0 115.201 12.2656 1413 75.8762 1276.92 476.966
1826 0 119.181 12.9299 1541 75.0065 1276.88 473.615
1827 0 121.212 12.111 1468 76.3147 1277.19 473.661
1828 0 124.222 12.4696 1549 76.4041 1276.86 471.77
1829 0 130.175 12.2758 1598 76.3573 1276.74 470.536
1830 0 134.18 12.3714 1660 77.3132 1276.72 467.88
1831 0 138.239 12.7388 1761 76.6354 1276.99 465.638
1832 0 141.219 12.3991 1751 78.7219 1276.85 463.678
1833 0 147.174 12.2916 1809 78.5976 1277.05 464.92
1834 1 80.1405 11.7169 939 76.1278 1277.62 495.17
1835 0 83.064 13.3993 1113 74.6756 1278.23 492.964
1836 0 85.035 13.2416 1126 76.6092 1277.07 489.742
1837 0 88.1232 13.2655 1169 86.5261 1276.84 488.958
1838 0 89.0404 12.893 1148 87.4442 1277.49 487.901
1839 0 92.0444 13.4935 1242 85.7681 1277.45 487.042
1840 0 94.0988 12.8269 1207 88.4383 1277.27 484.818
1841 0 95.0802 12.0635 1147 83.2912 1277.73 487.615
1842 0 98.0851 12.2954 1206 79.068 1277.62 484.456
1843 0 100.158 12.2306 1225 82.2539 1277.83 484.427
1844 0 101.117 12.1345 1227 83.683 1277.96 483.048
1845 0 104.112 12.6499 1317 83.3113 1278.19 480.43
1846 0 107.094 12.559 1345 84.8751 1278.17 478.622
1847 0 110.134 12.5302 1380 86.4254 1278.2 475.991
1848 0 115.164 13.5806 1564 83.4827 1277.77 475.338
1849 0 117.25 13.5608 1590 83.7314 1277.87 472.049
1850 0 121.227 13.7593 1668 84.5761 1278.01 469.809
1851 0 124.203 12.8097 1591 86.406 1278.18 468.107
1852 0 131.242 13.5628 1780 86.0669 1276.77 467.531
1853 0 131.167 13.3189 1747 88.0624 1277 463.12
1854 0 137.116 12.9526 1776 89.3677 1277.33 458.109
1855 0 141.184 14.1234 1994 87.1128 1277.01 455.308
1856 0 145.233 14.2598 2071 86.5577 1277.28 452.286
1857 0 146.241 12.4247 1817 90.7661 1276.76 453.012
1858 1 91.2341 13.1749 1202 82.0666 1277.28 483.402
1859 0 91.1489 12.5838 1147 85.7271 1277.51 482.988
1860 0 96.2073 13.9179 1339 80.0052 1277.19 481.29
1861 0 96.1647 12.7698 1228 84.2777 1277.53 481.786
1862 0 100.184 13.5251 1355 82.8893 1277.25 480.007
1863 0 102.229 13.3425 1364 85.3739 1277.37 478.078
1864 0 105.076 13.6187 1431 86.0412 1277.04 477.198
1865 0 109.102 14.0419 1532 85.7167 1277.2 474.206
1866 0 115.135 13.9228 1603 85.4361 1277.58 474.154
1867 0 117.099 14.7482 1727 85.0029 1277.07 469.445
1868 0 119.124 14.5479 1733 84.8932 1276.52 467.632
1869 0 124.216 14.1045 1752 86.0091 1276.29 464.914
1870 0 129.169 14.183 1832 83.6998 1276.4 462.769
1871 0 133.246 14.6646 1954 82.7789 1276.9 461.469
1872 0 136.169 14.2176 1936 84.046 1276.47 459.119
1873 1 77.0515 13.0692 1007 84.149 1275.65 488.467
1874 0 77.064 13.3396 1028 81.9591 1276.28 486.701
1875 0 81.0578 13.842 1122 81.0089 1276.66 484.984
1876 0 84.1664 13.4139 1129 85.5483 1276.6 484.722
1877 0 82.1025 12.8985 1059 89.6308 1276.24 483.003
1878 0 86.087 13.5909 1170 88.5427 1276.65 482.478
1879 0 87.0705 13.4604 1172 90.3797 1276.7 481.52
1880 0 91.1105 13.7635 1254 89.9538 1277.12 479.501
1881 0 94.0764 13.1064 1233 92.4769 1276.97 478.703
1882 0 95.076 13.2841 1263 93.6247 1277.4 478.466
1883 0 98.0427 13.5553 1329 94.7472 1277.12 476.218
1884 0 101.103 13.6296 1378 95.2678 1277.26 474.496
1885 0 104.103 13.6596 1422 96.5506 1277.65 472.899
1886 0 106.082 13.2068 1401 98.9008 1277.54 471.421
1888 0 110.11 13.5501 1492 98.8787 1276.73 469.865
1889 0 113.143 13.4873 1526 99.6684 1276.29 468.613
1890 0 119.172 14.9531 1782 95.1762 1276.21 464.126
1891 0 122.088 14.4977 1770 98.5881 1276.18 462.56
1892 0 123.104 13.5739 1671 101.993 1276.49 461.661
1893 0 129.166 13.8349 1787 101.07 1276.7 460.884
1894 0 138.143 13.9132 1922 101.182 1277.41 455.237
1895 1 57.0338 11.1863 638 93.9655 1277.42 496.154
1896 0 59.0148 11.8953 702 93.3348 1277.61 493.56
1897 0 61.0499 12.5963 769 90.1339 1278.06 493.42
1898 0 61.0377 12.5005 763 92.5858 1277.53 491.164
1899 0 62.052 12.0705 749 93.8652 1276.93 494.929
1900 0 63.0666 12.685 800 92.0212 1277.41 493.18
1901 0 65.0468 11.9453 777 92.8366 1276.78 492.059
1902 0 67.0352 12.3517 828 91.7379 1277.03 491.066
1903 0 70.0146 12.7116 890 89.9494 1276.48 489.278
1904 0 70.0096 12.5554 879 92.5438 1277.44 488.919
1905 0 73.0249 12.8586 939 91.0895 1276.78 487.128
1906 0 75.0498 13.1113 984 90.3943 1277.39 486.282
1907 0 78.0539 12.7732 997 88.9258 1276.36 484.397
1908 0 79.0538 13.2695 1049 87.9266 1276.2 481.976
1909 0 83.0837 13.1674 1094 87.192 1276.9 480.501
1910 0 84.0332 13.0782 1099 87.4031 1276.17 480.143
1911 0 87.0987 13.2379 1153 86.8647 1276.62 478.917
1912 0 91.0782 13.0657 1190 87.3647 1275.33 477.375
1913 0 93.066 13.023 1212 87.797 1275.51 475.363
1914 0 96.0977 12.6018 1211 89.2981 1275.77 475.134
1915 0 97.0622 12.6826 1231 89.6158 1275.82 471.682
1916 0 101.055 12.1023 1223 91.0801 1275.79 472.917
1917 0 107.079 12.9718 1389 88.8546 1274.87 472.392
1918 0 109.087 12.8522 1402 89.4358 1275.16 469.153
1919 0 116.083 13.051 1515 87.9795 1274.95 467.527
1920 0 120.125 13.5192 1624 87.564 1274.86 467.57
1921 0 122.086 12.7779 1560 87.9064 1274.77 466.683
1922 0 128.068 13.1727 1687 87.0694 1274.66 464.009
1923 0 130.12 13.011 1693 88.0219 1274.53 461.051
1924 0 132.14 12.5095 1653 88.0308 1274.99 456.776
1925 1 81.0429 11.4137 925 88.8832 1275.62 481.825
1926 0 82.0843 11.0496 907 90.6869 1275.08 478.78
1927 0 88.0346 11.9498 1052 86.5874 1275.77 480.145
1928 0 88.0934 12.4073 1093 86.1885 1275.63 477.771
1929 0 88.0791 12.2844 1082 87.4408 1275.2 477.172
1930 0 94.0862 12.9775 1221 84.4808 1274.74 475.686
1931 0 96.168 13.5596 1304 83.2032 1275.47 477.103
1932 0 98.0393 12.546 1230 86.9821 1274.6 474.634
1933 0 101.055 12.033 1216 88.4416 1275.19 473.154
1934 0 105.065 12.4209 1305 86.8988 1275.31 471.661
1935 0 106.082 12.4243 1318 88.8634 1275.68 468.742
1936 0 107.105 11.8482 1269 90.0922 1275.1 468.437
1937 0 108.182 10.8983 1179 92.665 1275.12 467.649
1938 0 117.084 12.9138 1512 88.6422 1275.12 463.095
1939 0 123.123 13.4824 1660 88.4355 1274.82 463.067
1940 0 125.073 13.3283 1667 89.1458 1275.47 462.399
1941 0 127.126 12.4915 1588 92.801 1275.55 457.853
1942 0 132.103 12.6947 1677 95.5903 1275.42 454.497
1943 0 138.078 13.3693 1846 92.8922 1275.21 452.355
1944 0 145.153 13.0897 1900 94.7484 1275.51 449.187
1945 0 150.15 13.3667 2007 93.9068 1274.15 449.073
1946 0 154.072 13.6365 2101 93.6787 1274.73 447.05
1947 0 159.232 12.912 2056 93.8487 1275.23 440.441
1948 0 163.242 13.7281 2241 93.2169 1275.3 440.266
1949 0 168.165 13.3559 2246 94.4185 1274.78 435.095
1950 0 172.246 13.5794 2339 95.1257 1274.72 433.192
1951 0 181.264 13.6762 2479 97.288 1274.4 432.548
1952 1 111.105 11.5117 1279 89.6302 1275.42 478.186
1953 0 112.117 10.712 1201 90.9051 1275.37 477.228
1954 0 115.114 11.5103 1325 87.7389 1275.91 475.596
1955 0 118.096 11.1858 1321 89.3762 1276.51 474.031
1956 0 123.106 12.4446 1532 89.2846 1276.64 471.777
1957 0 127.164 12.189 1550 92.6194 1275.93 470.195
1958 0 131.239 12.9687 1702 93.5382 1275.11 467.413
1959 0 132.21 12.639 1671 96.7684 1275.82 465.056
1960 0 136.175 12.5501 1709 99.8912 1275.32 463.545
1961 0 139.269 13.061 1819 106.661 1275.29 461.056
1962 0 142.174 12.8575 1828 108.811 1275.12 459.298
1963 0 148.177 13.4433 1992 108.758 1275.09 456.254
1964 0 152.334 13.28 2023 107.588 1275.52 456.177
1965 0 157.278 13.7464 2162 108.012 1275.63 452.636
1966 0 160.342 12.8662 2063 110.278 1275.97 448.343
1967 0 165.312 13.3505 2207 110.382 1275.69 447.715
1968 0 168.254 13.224 2225 111.777 1275.55 445.676
1969 0 172.284 13.6112 2345 111.116 1275.04 443.582
1970 0 179.203 13.2141 2368 113.255 1275.19 440.93
1971 0 183.155 13.191 2416 113.316 1275 436.702
1972 0 187.267 13.3339 2497 116.35 1275.34 433.282
1973 0 191.225 13.5965 2600 115.741 1274.94 430.039
1974 0 197.295 13.4418 2652 115.197 1275.64 428.529
1975 0 205.324 13.7246 2818 113.98 1274.7 422.645
1976 0 211.221 13.4598 2843 114.585 1275.22 419.708
1977 0 217.268 13.4995 2933 115.069 1274.65 413.224
1978 0 224.261 14.2022 3185 113.358 1274.81 412.62
1979 1 39.0772 8.39365 328 80.6402 1275.64 515.308
1980 0 40.0256 9.31904 373 78.1716 1275.58 513.767
1981 0 40.0322 8.39325 336 81.2351 1275.13 514.283
1982 0 41.0348 9.13858 375 81.9307 1275.93 513.901
1983 0 42.0545 8.65544 364 82.4066 1275.07 515.429
1984 0 41.033 8.60283 353 82.2011 1274.69 514.428
1985 0 40.0105 8.89766 356 82.6489 1274.43 513.132
1986 0 43.1153 8.74399 377 82.2175 1273.75 512.976
1987 0 43.0097 9.30022 400 81.815 1273.51 513.118
1988 0 43.0097 9.34672 402 103.679 1273.49 513.082
1989 0 42.034 8.68344 365 81.7507 1273.87 514.093
1990 0 46.0447 8.99126 414 80.4034 1273.67 513.737
1991 0 43.0622 8.87088 382 80.678 1273.9 513.709
1992 0 46.0547 8.94589 412 79.0947 1273.6 513.886
1993 0 47.1319 8.21101 387 80.0956 1273.47 513.954
1994 0 48.0866 8.31832 400 77.885 1273.48 512.07
1995 0 48.0547 6.99203 336 64.7798 1274.12 516.277
1996 0 48.0568 6.07614 292 67.2294 1274.91 517.651
1997 0 46.1487 7.19414 332 77.9066 1276.3 514.175
1998 0 46.162 8.1019 374 79.0241 1277.1 515.992
1999 0 48.07 8.19638 394 79.231 1276.24 515.726
2000 0 49.0967 8.88044 436 79.8326 1276.84 513.608
2001 0 49.2205 8.16733 402 81.7711 1276.82 514.928
2002 0 50.13 8.29843 416 81.6635 1276.71 513.846
2003 0 51.0545 9.4409 482 80.3568 1277.02 513.793
2004 0 51.2133 9.29447 476 81.4853 1276.14 512.83
2005 0 51.2939 8.83146 453 82.7395 1276.64 511.651
2006 0 52.3392 8.48312 444 83.1261 1277.21 512.606
2007 0 55.2216 9.18119 507 82.8659 1276.24 510.817
2008 0 52.1018 9.38548 489 88.1432 1276.41 512.593
2009 0 54.1532 8.86373 480 89.375 1276.62 513.117
2010 0 55.1359 8.65135 477 90.7987 1276.32 510.948
2011 0 56.2115 8.89497 500 89.068 1276.84 512.306
2012 0 55.2589 9.93506 549 88.7304 1276.45 511.097
2013 0 62.1676 10.2143 635 87.0709 1276.43 508.128
2014 1 30.0731 10.541 317 90.5804 1277.52 522.826
2015 0 30.056 10.5137 316 90.519 1276.56 522.399
2016 0 31.0743 10.8772 338 84.8462 1276.71 524.382
2017 0 33.018 11.0849 366 86.1831 1276.3 523.904
2018 0 36.1144 12.0728 436 72.6606 1276.36 522.28
2019 0 36.0188 12.2714 442 72.69 1276.94 522.448
2020 0 33.0566 10.2854 340 79.55 1276.7 524.068
2021 0 32.0481 10.3906 333 80.3874 1277.25 524.015
2022 0 32.0264 10.1167 324 81.4383 1277.28 524.253
2023 0 32.1412 10.3917 334 79.2515 1276.9 524.347
2024 0 33.0606 9.98166 330 80.1 1276.45 524.891
2025 0 32.0802 9.66328 310 79.0032 1276.79 525.632
2026 0 33.1056 10.7837 357 77.9104 1276.97 523.924
2027 0 33.0211 10.145 335 75.9522 1274.21 524.493
2028 0 34.0149 10.613 361 76.5873 1276.25 523.748
2029 0 32.1094 9.87249 317 78.571 1277.31 524.155
2030 0 31.1346 10.0531 313 76.2748 1276.47 524.355
2031 0 32.0503 10.3275 331 76.5227 1276.72 524.776
2032 0 32.0484 10.1721 326 76.4233 1276.93 524.175
2033 0 32.0518 10.639 341 73.4751 1276.79 523.93
2034 0 33.0477 10.3789 343 74.1953 1276.19 524.041
2035 0 33.1656 10.131 336 73.0893 1276.96 524.247
2036 0 33.0115 9.96622 329 72.696 1275.69 523.915
2037 0 31.0237 10.1213 314 74.9777 1276.1 524.974
2038 0 32.1085 10.9317 351 72.1738 1276.51 522.923
2039 0 32.2264 10.5503 340 76.9471 1276.03 521.441
2040 0 33.0409 10.7443 355 75.0197 1275.81 521.296
2041 0 30.0705 10.4421 314 74.4427 1276.93 523.051
2042 0 32.1444 10.6395 342 73.8246 1277.25 522.102
2043 0 32.1863 10.4392 336 72.9494 1276.92 521.92
2044 0 31.012 11.1247 345 71.6493 1277.33 522.072
2045 0 31.1095 10.8006 336 71.9018 1276.88 520.908
2046 0 31.2067 11.3117 353 69.9745 1276.55 520.467
2047 0 32.0302 10.2403 328 69.5976 1276.06 521.101
2048 0 34.0668 9.12913 311 64.4212 1275.4 521.994
2049 0 34.2122 9.61645 329 64.1246 1276.22 521.733
2050 0 32.2159 9.28114 299 66.7324 1276.23 522.344
2051 0 32.1526 10.1081 325 63.8554 1275.67 521.591
2052 0 33.0736 9.49398 314 65.2006 1276.46 522.067
2053 0 32.1878 9.25817 298 65.3758 1276.3 522.319
2054 0 32.025 9.67995 310 63.2129 1275.86 522.445
2055 0 33.0854 10.1253 335 63.7194 1276.52 522.09
2056 0 33.1349 9.44624 313 62.984 1277.34 522.687
2057 0 31.1737 9.20648 287 61.4843 1276.78 522.69
2058 0 32.181 9.16691 295 62.2983 1276.46 522.003
2059 0 33.0308 8.6283 285 62.1298 1276.49 521.811
2060 0 32.0502 9.14192 293 60.3959 1276.38 521.618
2061 0 31.0942 7.58984 236 61.9195 1276.47 523.275
2062 0 34.0728 8.95141 305 58.5016 1277.33 522.344
2063 0 32.0774 10.4123 334 56.7575 1275.84 520.722
2064 0 32.1486 7.8697 253 58.9407 1276.53 522.19
2065 0 31.0754 8.9138 277 58.0866 1276.66 522.693
2066 0 32.1365 9.8953 318 55.8491 1276.75 521.296
2067 0 31.1146 8.35621 260 57.8038 1276.73 522.7
2068 0 33.1338 8.14878 270 57.9444 1276.6 522.063
2069 0 31.0075 6.6113 205 60.3707 1276.86 524.668
2070 0 32.1725 7.52196 242 57.2975 1276.61 520.86
2071 0 30.0556 7.02032 211 57.9526 1276.79 522.55
2072 0 30.0413 6.89052 207 58.3865 1276.7 522.778
2073 0 31.0893 8.94198 278 56.5899 1276 521.259
2074 0 33.2 8.52411 283 55.8975 1276.03 519.276
2075 0 32.0781 6.42182 206 57.6068 1276.24 521.223
2076 0 31.1215 7.96876 248 56.1573 1276.31 520.335
2077 0 32.0476 7.7385 248 55.7177 1276.62 519.319
2078 0 16.0019 2.62469 42 50.1667 1277.36 523.405
2079 1 120.178 6.88144 827 86.5671 1274.36 447.827
2080 1 147.076 5.47335 805 90.4012 1275.24 437.959
2081 0 147.154 6.52377 960 88.1083 1275.14 435.743
2082 0 148.209 7.64461 1133 84.6487 1274.5 436.935
2083 1 124.17 12.9339 1606 76.8338 1275.39 439.323
2084 0 347.512 13.542 4706 91.7828 1274.71 329.179
2085 0 358.637 14.1424 5072 86.32 1275.14 326.974
2086 0 362.479 13.2394 4799 90.1034 1275.4 317.963
2087 1 135.292 13.992 1893 72.2441 1275.22 435.343
