time division length width area intensity CMx CMy
0 0 55.1503 13.2366 730 106.636 1063.66 495.619
1 0 59.1069 13.1118 775 105.27 1064.13 494.608
2 0 59.1482 13.3901 792 104.476 1064 495.249
3 0 62.0958 13.1088 814 103.576 1063.73 493.678
4 0 64.2099 13.1288 843 101.452 1064.29 492.973
5 0 67.1822 13.0987 880 99.858 1064.15 492.593
6 0 68.1563 13.6891 933 99.0075 1063.92 491.09
7 0 73.201 13.5654 993 97.29 1064.19 489.352
8 1 36.1095 11.7975 426 102.566 1064.48 507.155
9 0 36.1574 12.2243 442 102.667 1064.38 507.05
10 0 38.1109 11.2829 430 93.014 1063.19 503.226
11 0 37.0493 12.4968 463 93.7084 1064.4 506.413
12 0 40.0196 12.169 487 89.5441 1063.94 507.326
13 0 42.0352 12.5133 526 87.5399 1062.96 507.11
14 0 42.048 12.2241 514 88.7821 1063.56 505.121
15 0 43.0247 12.5509 540 87.1019 1063.3 505.783
16 0 44.0547 12.6434 557 87.6768 1063.91 504.819
17 0 47.0245 12.8869 606 85.5363 1063.2 502.781
18 0 47.0309 12.9915 611 85.874 1063.85 504.209
19 0 49.08 13.2233 649 85.2465 1063.08 500.336
20 0 51.0342 13.1088 669 84.8176 1062.92 500.516
21 0 54.0332 12.9365 699 84.5207 1062.13 499.831
22 0 55.0607 12.8767 709 84.7814 1063.02 498.622
23 0 57.0441 14.0768 803 81.533 1062.6 498.1
24 0 59.0442 13.2782 784 84.6173 1062.61 497.633
25 0 62.1025 13.7193 852 83.1197 1062.78 496.313
26 0 63.043 13.9111 877 83.6032 1062.5 496.323
27 0 66.0675 13.8646 916 83.5895 1062.37 494.954
28 0 68.0283 13.4944 918 83.7789 1062.49 494.984
29 0 71.0422 14.414 1024 89.2002 1061.99 494.015
30 0 75.0594 13.4027 1006 90.8698 1062.46 493.076
31 0 76.0787 13.5255 1029 90.5753 1062.29 491.696
32 0 78.0746 13.1285 1025 90.8937 1061.48 490.364
33 0 83.1136 13.656 1135 87.8326 1061.66 488.959
34 0 84.0721 12.6677 1065 89.6883 1061.53 487.824
35 1 41.018 11.3365 465 83.4688 1062.32 509.832
36 0 41.0183 11.3364 465 84.7355 1061.32 507.624
37 0 43.059 11.8442 510 82.2529 1061.68 506.475
38 0 43.1062 11.7616 507 83.0927 1061.23 504.32
39 0 44.0733 11.617 512 84.0176 1061.8 504.367
40 0 48.0128 12.2676 589 81.9491 1061.78 502.418
41 0 49.1218 12.927 635 79.7039 1061.35 501.331
42 0 51.0894 13.1143 670 79.397 1061.49 499.861
43 0 55.1643 13.0519 720 84.25 1061.13 498.353
44 0 55.0956 13.5038 744 83.5739 1061.08 497.849
45 0 57.1748 12.4006 709 84.708 1061.21 497.14
46 0 59.0736 13.4578 795 82.205 1060.94 495.478
47 0 61.1766 12.2432 749 83.7343 1061.18 494.307
48 0 62.0516 13.0859 812 83.266 1061.52 494.065
49 0 64.0346 11.8686 760 84.7211 1061.89 492.551
50 0 66.1635 12.7412 843 83.739 1061.38 490.696
51 0 68.1302 12.9164 880 83.483 1061.75 491.739
52 0 68.1414 12.929 881 123.654 1062.74 491.776
53 0 74.0202 13.4153 993 81.0816 1061.12 490.085
54 0 77.1011 13.5666 1046 79.9293 1061.11 488.728
55 0 77.0739 13.7141 1057 79.9272 1061.5 487.658
56 0 81.0782 13.3575 1083 80.4321 1061.46 485.394
57 0 83.0382 13.4516 1117 79.7538 1061.28 484.072
58 0 84.05 13.5039 1135 79.7665 1061.58 482.392
59 0 88.0729 13.5229 1191 78.4828 1061.68 481.892
60 0 89.1675 12.6504 1128 80.1498 1061.1 479.379
61 0 93.1535 13.4939 1257 78.2283 1061.3 478.101
62 0 97.1016 13.1512 1277 78.6672 1062.04 477.156
63 0 100.142 13.5208 1354 77.8885 1061.55 476.131
64 1 47.1394 11.2645 531 76.6309 1062.27 500.972
65 0 49.1001 11.6089 570 74.1632 1062.04 502.27
66 0 52.1181 11.7426 612 75.6324 1061.96 499.837
67 0 51.1419 11.4192 584 77.8271 1061.49 499.885
68 0 54.0913 12.4604 674 75.181 1060.93 497.435
69 0 54.0424 12.3422 667 75.8816 1060.77 497.463
70 0 56.0448 11.4908 644 70 1061.18 499.023
71 0 57.0674 11.9157 680 69.2471 1061.18 500.203
72 0 60.0317 11.5273 692 69.091 1060.82 497.832
73 0 60.051 11.4736 689 69.5167 1061 495.888
74 0 63.0477 12.0226 758 69.1557 1060.96 495.106
75 0 64.0239 11.3395 726 70.7893 1061.1 495.711
76 0 66.0774 11.9708 791 70.1719 1061.1 493.451
77 0 70.0899 11.9133 835 70.8503 1060.55 492.988
78 0 72.0399 12.6597 912 69.7171 1061 492.53
79 0 74.0927 12.1739 902 71.5288 1060.37 489.919
80 0 76.0551 12.4252 945 71.764 1061.47 488.753
81 0 77.0472 11.8629 914 73.6335 1061.78 486.655
82 0 82.0633 13.0753 1073 71.8863 1061.34 486.098
83 0 85.1267 13.0394 1110 74.309 1061.09 481.809
84 0 89.0828 13.2686 1182 75.6007 1061.25 481.649
85 0 88.0821 12.6019 1110 77.8207 1061.02 479.302
86 0 93.1249 13.1436 1224 76.4338 1060.58 477.785
87 0 96.1106 13.2972 1278 75.3756 1061.2 475.258
88 0 98.1691 12.4173 1219 77.0427 1060.98 473.993
89 0 102.151 12.4815 1275 76.1255 1060.58 471.449
90 1 57.0714 11.8448 676 68.1568 1061.07 498.223
91 0 58.1078 12.1843 708 65.0085 1061.39 496.246
92 0 60.0668 11.9201 716 64.7779 1061.99 496.13
93 0 62.032 11.8971 738 71.7168 1061.16 493.846
94 0 63.0196 11.9804 755 72.7073 1062 493.389
95 0 67.0727 12.2404 821 72 1060.78 491.387
96 0 69.0354 12.5008 863 72.4519 1061.02 490.514
97 0 70.0594 12.2753 860 74.5756 1059.83 489.892
98 0 73.072 11.4818 839 76.2718 1060.9 489.644
99 0 73.1314 10.8025 790 79.057 1060.23 487.38
100 0 74.104 10.9036 808 78.9666 1060.69 484.876
101 0 78.1092 12.1369 948 78.4557 1061.28 485.043
102 0 82.0805 12.5487 1030 77.9243 1060.6 485.304
103 0 84.0739 11.7397 987 79.4326 1060.88 485.249
104 0 87.0817 11.7935 1027 78.7994 1061.34 482.095
105 0 90.1141 12.1624 1096 78.0958 1061.5 479.688
106 0 91.117 11.8748 1082 78.9686 1061.37 479.498
107 0 93.1601 10.9489 1020 81.8088 1060.83 474.351
108 0 97.08 12.0313 1168 79.2603 1061.06 476.854
109 0 101.187 12.393 1254 78.4833 1060.83 473.609
110 0 104.114 12.3327 1284 79.1254 1060.97 472.541
111 0 109.101 12.9421 1412 78.6771 1061.74 470.651
112 0 111.069 12.8299 1425 80.6112 1060.99 468.392
113 0 114.214 13.1245 1499 80.2815 1060.97 467.233
114 0 118.118 12.6484 1494 82.1814 1061.09 465.449
115 0 122.275 12.9135 1579 82.7106 1061.14 462.436
116 0 126.204 12.8364 1620 83.813 1061.4 459.433
117 0 131.191 13.5756 1781 83.0472 1060.93 456.55
118 0 136.133 14.1552 1927 84.8012 1060.82 455.987
119 0 140.091 13.9695 1957 86.0036 1061.62 452.777
120 0 144.2 13.3218 1921 87.7408 1060.61 451.289
121 0 150.271 14.2609 2143 85.2338 1060.16 447.589
122 1 82.0908 11.1584 916 82.8712 1060.87 481.75
123 0 84.1534 11.5028 968 82.4143 1061.17 481.342
124 0 86.1381 11.1333 959 85.3504 1061.05 479.307
125 0 90.0611 11.8586 1068 76.6067 1060.67 482.949
126 0 91.0966 11.3725 1036 78.7423 1060.42 482.136
127 0 94.1182 11.4962 1082 80.085 1060.16 479.433
128 0 100.144 11.6433 1166 79.5249 1060.42 479.254
129 0 101.076 11.6942 1182 81.0753 1059.78 477.773
130 0 106.051 12.4468 1320 81.0121 1059.94 474.897
131 0 108.11 11.7381 1269 82.1584 1059.48 474.033
132 0 111.076 11.7847 1309 82.8663 1059.27 472.707
133 1 63.0672 10.6236 670 80.1567 1060.1 496.401
134 0 65.0458 11.0999 722 86.1759 1060.1 493.668
135 0 68.0716 11.6348 792 83.3232 1060.02 492.288
136 0 68.0794 11.0753 754 74.191 1061.11 492.87
137 0 70.0796 11.33 794 74.1373 1060.81 493.356
138 0 73.1301 11.6778 854 73.534 1060.04 490.828
139 0 76.1713 11.251 857 75.0583 1060.28 490.503
140 0 78.1125 11.0354 862 76.0789 1060.11 489.031
141 0 80.1035 11.3853 912 75.4035 1059.38 488.905
142 0 84.1747 11.8919 1001 75.3876 1059.85 488.462
143 0 86.1515 11.1432 960 76.0979 1059.72 487.162
144 0 89.126 11.1864 997 76.6469 1060.16 484.04
145 0 92.0935 11.1626 1028 76.9066 1059.98 482.983
146 0 96.0953 11.5406 1109 76.1939 1060.44 481.676
147 0 98.125 11.6484 1143 76.0464 1059.72 479.589
148 0 102.121 11.3786 1162 78.2573 1059.3 477.529
149 0 105.17 11.7809 1239 77.18 1060.07 475.251
150 0 109.116 11.8131 1289 77.7882 1059.77 473.073
151 1 58.0163 9.65246 560 75.0446 1060.54 499.88
152 0 58.0972 9.17427 533 76.1557 1058.38 498.4
153 0 63.0401 10.6599 672 73.4405 1058.18 495.969
154 0 63.0271 10.6462 671 73.7168 1059.24 497.574
155 0 64.0394 11.2119 718 73.8217 1060.24 495.84
156 0 67.054 11.5728 776 75.4936 1059.18 493.588
157 0 67.0977 11.0138 739 77.4168 1059.41 494.725
158 0 68.1138 10.0273 683 79.2987 1059.6 495.269
159 0 71.0782 10.7206 762 78.0197 1058.88 492.934
160 0 75.0603 10.7247 805 79.4137 1059.49 491.82
161 0 78.0897 11.4612 895 77.8771 1059.51 489.359
162 0 80.092 10.9624 878 79.7938 1059.53 489.019
163 0 84.1286 11.3992 959 79.3942 1059.69 487.703
164 0 88.1496 11.5372 1017 80.4425 1060.81 486.053
165 0 92.1334 11.9826 1104 79.0933 1060.68 485.916
166 0 92.1042 10.8898 1003 84.2343 1059.86 482.272
167 0 96.0957 12.2274 1175 84.8366 1059.89 478.997
168 1 52.0141 11.4776 597 88.0754 1061.04 500.008
169 0 52.212 11.5299 602 83.2741 1060.65 497.992
170 0 52.008 10.7099 557 78.246 1061.06 495.562
171 0 52.0482 10.6056 552 80.6413 1061.79 494.904
172 0 52.0158 10.8813 566 77.9859 1061.39 492.585
173 0 54.0964 11.2022 606 78.5776 1061.85 491.351
174 0 58.0147 11.8763 689 78.5036 1060.1 498.605
175 0 59.0234 11.7919 696 79.1753 1059.2 498.165
176 0 61.0439 11.6637 712 79.2753 1060.18 498.649
177 0 62.0455 11.7978 732 78.9604 1059.4 497.607
178 0 65.061 12.2654 798 76.0313 1059.66 495.184
179 0 67.0226 12.4286 833 74.9652 1059.98 495.246
180 0 67.0467 11.5591 775 76.8116 1060.5 494.33
181 0 71.0221 11.6161 825 76.5903 1060.24 493.251
182 0 73.043 12.2394 894 76.6823 1060.28 493.56
183 0 75.0139 11.3712 853 78.8324 1059.98 489.474
184 0 76.0507 11.637 885 79.4429 1060.41 489.244
185 0 80.0216 12.2717 982 79.3442 1060 487.824
186 0 83.0553 11.7271 974 79.2012 1060.23 488.315
187 0 86.0309 11.8097 1016 78.5935 1059.47 486.264
188 0 86.0284 11.6706 1004 80.8745 1060.34 484.074
189 0 91.0887 11.7248 1068 80.0824 1060.52 483.361
190 0 94.1458 12.1195 1141 79.2612 1060.74 480.696
191 1 49.0657 11.2095 550 83.6582 1060.49 501.205
192 0 48.0126 11.2471 540 77.0574 1059.86 497.393
193 0 49.0193 11.5261 565 77.4885 1059.57 498.45
194 0 49.0648 11.5358 566 78.0813 1059.82 502.216
195 0 52.0444 11.7592 612 77.3235 1060.18 501.621
196 0 52.0506 12.2189 636 77.1698 1059.84 501.78
197 0 53.0365 12.2557 650 77.2154 1059.8 500.069
198 0 56.1647 12.125 681 75.2819 1060.15 500.463
199 0 58.0646 12.3483 717 75.3752 1059.64 499.396
200 0 61.0885 12.5392 766 74.3877 1059.67 498.119
201 0 62.0788 12.8546 798 74.2093 1059.95 496.492
202 0 64.0993 12.075 774 94.9664 1059.83 496.049
203 0 66.1066 12.4193 821 93.0706 1059.46 496.481
204 0 67.1109 12.3825 831 93.5463 1059.4 494.233
205 0 71.1371 12.7219 905 92.4785 1059.62 493.694
206 0 71.1371 12.7641 908 133.208 1059.6 493.638
207 0 74.0794 12.0141 890 94.5101 1059.39 491.655
208 0 76.0824 12.1973 928 93.1261 1059.97 490.047
209 0 80.075 12.1012 969 93.0093 1058.73 487.246
210 0 80.1265 12.5052 1002 92.7894 1059.39 485.361
211 0 87.0596 12.8992 1123 89.4452 1058.7 484.884
212 0 89.1221 12.7017 1132 89.3578 1058.7 482.176
213 0 92.0525 13.2859 1223 88.4244 1058.68 479.744
214 0 98.0724 13.0618 1281 87.5706 1058.55 479.162
215 0 98.1495 13.6119 1336 86.4925 1058.64 473.669
216 1 46.0863 10.4586 482 84.9357 1059.27 496.614
217 0 46.0492 11.3574 523 82.8757 1059.24 492.709
218 0 51.0333 11.032 563 79.6448 1058.77 501.861
219 0 53.038 11.4446 607 78.6639 1058.83 502.699
220 0 56.0365 10.8858 610 80.5459 1057.78 500.359
221 0 58.0537 11.9545 694 79.9611 1057.6 498.559
222 0 62.0408 11.976 743 79.7012 1057.86 498.028
223 0 65.0716 12.0636 785 79.5261 1058.37 497.269
224 0 66.0708 11.8207 781 81.1319 1058.82 495.955
225 0 69.0359 12.5587 867 81.466 1058.89 493.46
226 0 72.0233 12.6487 911 81.7409 1058.24 490.924
227 0 74.0719 12.4204 920 82.2707 1058.36 489.336
228 0 78.0424 12.7367 994 81.2414 1058.2 489.51
229 0 80.0422 12.256 981 83.6646 1058.06 489.377
230 0 81.071 11.8661 962 85.9636 1058.73 488.316
231 0 85.1025 12.4321 1058 86.7363 1057.68 485.014
232 0 88.1344 12.4923 1101 87.6122 1057.9 484.595
233 0 92.1414 12.1335 1118 89.1887 1057.85 482.136
234 0 94.0425 12.1328 1141 88.6398 1057.74 479.137
235 0 96.1078 12.0178 1155 88.3333 1057.96 478.859
236 0 100.126 12.5243 1254 87.9577 1057.84 476.793
237 0 105.072 12.3725 1300 94.4992 1057.89 474.113
238 0 108.1 12.4237 1343 92.8094 1057.58 471.614
239 0 112.067 12.5639 1408 90.4822 1057.73 470.129
240 0 115.096 12.3636 1423 90.2207 1057.62 467.815
241 0 118.069 11.8913 1404 91.1282 1057.84 466.509
242 0 121.058 11.8786 1438 91.6711 1057.27 462.832
243 0 129.168 12.9056 1667 89.3407 1057.12 463.209
244 1 70.1468 10.7917 757 81.7675 1057.3 493.914
245 0 72.1061 10.859 783 83.1328 1057.82 491.189
246 0 75.146 11.9368 897 82.5964 1057.89 491.868
247 0 75.1407 11.9509 898 143.378 1057.89 491.748
248 0 80.1354 11.8674 951 82.8759 1058 488.245
249 0 83.0991 12.0098 998 84.2395 1057.91 487.373
250 0 87.0992 11.8371 1031 83.323 1058.52 486.896
251 0 89.0539 12.1275 1080 89.0111 1058.68 485.362
252 0 91.0883 12.0542 1098 86.4244 1058.53 483.089
253 0 95.1822 12.1556 1157 82.7744 1057.43 482.748
254 0 97.1189 12.078 1173 83.9668 1058.05 480.158
255 0 100.079 12.2104 1222 83.7169 1058.3 480.316
256 0 102.111 11.3699 1161 86.8906 1057.92 477.116
257 0 104.128 11.505 1198 86.7813 1058.12 476.745
258 0 108.202 11.3861 1232 86.2273 1058.76 473.325
259 0 111.291 11.3576 1264 87.5245 1058.66 471.758
260 0 115.133 11.7343 1351 89.1636 1058.29 469.144
261 0 121.196 12.3106 1492 86.4142 1058.88 468.364
262 0 122.201 11.0228 1347 89.729 1058.88 464.955
263 1 65.1689 11.2323 732 80.3907 1059.16 495.612
264 0 67.0754 11.0622 742 83.9111 1057.75 494.656
265 0 70.074 11.8732 832 79.3858 1058.24 493.84
266 0 68.0666 10.2106 695 84.4086 1057.98 495.75
267 0 70.0884 10.6722 748 83.1711 1057.82 493.638
268 0 73.0893 10.6582 779 83.1078 1058.2 492.775
269 0 76.0464 10.4673 796 85.0992 1057.41 491
270 0 77.1045 10.8165 834 85.1667 1057.6 489.845
271 0 81.0568 11.276 914 84.2921 1057.46 487.445
272 0 84.105 11.343 954 83.0294 1057.75 485.386
273 0 85.2007 11.2793 961 84.9469 1057.84 484.831
274 0 88.1028 11.0553 974 84.7423 1057.97 483.921
275 0 90.14 11.2048 1010 85.6089 1058.05 480.326
276 0 95.0729 12.0224 1143 84.5503 1057.95 482.652
277 0 99.0728 12.6775 1256 84.6457 1058.07 479.438
278 0 102.129 11.9653 1222 86.6187 1058.21 476.569
279 0 104.137 12.013 1251 84.3389 1057.98 475.169
280 0 108.084 12.5735 1359 85.3135 1058.66 472.567
281 0 111.097 12.0075 1334 88.2879 1058.59 470.732
282 0 114.162 12.3683 1412 88.8754 1058.91 469.831
283 0 118.129 11.953 1412 91.4731 1058.6 469.053
284 0 123.279 11.6808 1440 93.6062 1058.36 465.338
285 0 128.064 12.0799 1547 91.0116 1058.69 463.837
286 0 131.127 11.8129 1549 93.009 1058.55 461.088
287 0 135.082 11.6892 1579 96.1799 1058.52 459.678
288 1 76.0467 11.0327 839 92.5101 1058.2 491.066
289 0 77.0949 11.181 862 94.3677 1058.02 487.676
290 0 79.1118 11.4269 904 96.6084 1057.08 486.545
291 0 84.0768 12.8216 1078 92.3822 1057.19 486.12
292 0 86.1873 12.1132 1044 96.2854 1057.23 484.895
293 0 89.2079 12.7455 1137 94.5101 1057.76 483.16
294 0 91.255 12.4267 1134 96.2954 1057.25 481.612
295 0 93.3028 12.4648 1163 96.4471 1056.83 481.496
296 0 97.2896 13.0333 1268 95.1711 1056.86 480.076
297 0 98.3237 13.0792 1286 95.9456 1056.57 477.357
298 0 100.413 12.7076 1276 96.3809 1057.57 476.451
299 0 98.1644 11.6132 1140 93.7851 1056.87 476.281
300 0 102.141 11.9149 1217 92.1537 1056.35 476.225
301 0 104.231 11.9159 1242 93.0539 1056.87 471.786
302 0 108.258 11.722 1269 93.1497 1056.93 473.493
303 0 109.176 11.3761 1242 93.5572 1057.12 471.952
304 0 111.158 11.3442 1261 93.9754 1057.62 467.395
305 0 115.328 11.3936 1314 91.8896 1057.75 468.518
306 0 120.112 11.9971 1441 88.1728 1058.29 468.441
307 0 123.121 11.3059 1392 89.5172 1058.2 466.336
308 0 128.176 11.6636 1495 88.6067 1058.34 464.506
309 0 130.109 11.4058 1484 90.312 1057.9 463.118
310 1 62.0409 10.8316 672 91.9464 1058.83 490.333
311 0 66.1233 11.4181 755 88.5338 1059.62 489.785
312 0 66.0442 11.4317 755 90.9921 1058.41 487.807
313 0 70.0557 11.548 809 90.6996 1058.85 486.693
314 0 72.0418 11.9236 859 90.851 1059.08 485.579
315 0 74.0621 12.125 898 90.3096 1058.83 485.689
316 0 74.0544 12.2883 910 91.2813 1058.98 483.574
317 0 78.0563 12.0682 942 90.2367 1059.01 481.809
318 0 82.2771 12.2877 1011 90.7992 1057.32 483.826
319 0 83.2505 12.9248 1076 89.1125 1057.16 484.009
320 0 85.1688 12.4928 1064 89.4398 1057.48 482.523
321 0 87.1974 12.3513 1077 89.4559 1057.88 479.465
322 0 88.1024 12.0428 1061 88.2959 1058.22 481.578
323 0 86.2285 11.6667 1006 91.3231 1057.66 478.81
324 0 93.1045 12.0402 1121 88.2444 1057.65 479.306
325 0 92.085 11.674 1075 90.253 1057.25 477.687
326 0 96.1246 11.8492 1139 89.3433 1056.53 475.144
327 0 98.1844 12.2626 1204 88.7949 1056.53 472.616
328 0 99.1165 12.0162 1191 88.9656 1056.25 469.461
329 0 101.188 11.622 1176 89.1556 1056.43 469.645
330 0 105.179 12.1127 1274 87.6013 1056.6 469.121
331 0 108.164 11.4271 1236 89.7694 1056.54 466.444
332 0 111.188 10.9724 1220 90.5844 1055.96 461.026
333 1 54.1652 9.61872 521 86.38 1056.86 490.019
334 0 57.1397 10.4831 599 83.596 1056.57 490.666
335 0 59.0891 10.408 615 85.5675 1056.09 487.828
336 0 69.1042 11.6925 808 87.4765 1057.65 493.842
337 0 69.0628 11.8153 816 86.6446 1057.22 496.518
338 0 71.1342 11.8649 844 86.2038 1057.1 495.57
339 0 72.0973 11.4567 826 88.6114 1056.87 495.159
340 0 74.1027 11.8619 879 87.2025 1056.57 493.386
341 0 75.0777 11.0552 830 90.1446 1056.6 491.82
342 0 78.1111 11.6629 911 90.0834 1056.6 490.962
343 0 78.0908 10.872 849 92.9128 1056.05 488.324
344 0 82.1206 11.5075 945 91.3153 1055.6 486.316
345 0 84.1261 11.5898 975 90.0451 1055.09 484.537
346 0 83.0998 10.5054 873 92.5304 1054.96 481.982
347 0 84.0578 10.8973 916 89.9803 1055.03 476.039
348 0 84.1111 11.3897 958 89.4603 1054.11 475.938
349 0 85.1203 10.5733 900 93.1867 1054.06 472.783
350 0 93.2249 11.3274 1056 89.1307 1054.83 472.149
351 0 95.1528 11.4342 1088 89.2077 1054.22 470.366
352 0 101.132 11.5098 1164 87.0498 1053.87 469.733
353 0 104.132 11.4663 1194 87.4087 1054.18 467.312
354 0 105.141 11.3467 1193 88.4082 1053.92 463.657
355 0 115.194 12.0232 1385 84.9971 1053.9 463.744
356 1 62.0681 9.52181 591 75.4467 1054.61 491.134
357 0 64.078 9.55087 612 74.7206 1055.16 491.516
358 0 69.1804 9.85828 682 73.8842 1055.72 489.151
359 0 72.106 9.88822 713 72.7293 1055.41 492.635
360 0 74.1262 10.5766 784 71.514 1055.17 493.08
361 0 76.1713 10.8965 830 72.1169 1054.92 491.386
362 0 80.139 12.366 991 76.5883 1055.06 493.61
363 0 83.1452 11.7986 981 76.0214 1055.65 493.103
364 0 85.1389 11.8042 1005 78.5642 1055.73 492.488
365 0 87.1193 11.8803 1035 78.4029 1055.68 491.619
366 0 90.1417 11.7704 1061 80.1678 1054.69 488.946
367 0 92.1809 12.1826 1123 79.6634 1055.54 488.882
368 0 95.1017 11.7138 1114 80.3321 1055.51 485.18
369 0 98.1529 12.3481 1212 79.5297 1056.24 486.408
370 0 101.229 12.1309 1228 86.0513 1056.32 483.506
371 0 104.203 11.9382 1244 86.1214 1056.46 480.858
372 0 107.158 11.6837 1252 85.9784 1055.92 479.966
373 0 109.131 11.7015 1277 85.5012 1055.14 479.441
374 0 113.223 11.3581 1286 84.7232 1055.89 477.543
375 0 117.174 11.1287 1304 85.5989 1055.95 474.633
376 0 122.146 12.0593 1473 82.8961 1055.74 473.318
377 1 62.0521 10.8941 676 78.682 1057.61 502.953
378 0 64.0688 12.0496 772 78.1554 1056.25 500.008
379 0 67.0907 12.5651 843 77.2325 1057.22 499.219
380 0 68.0434 11.8307 805 88.7516 1057.78 496.768
381 0 71.0654 11.792 838 87.9224 1057.44 496.642
382 0 75.0601 12.3368 926 85.3078 1057.47 495.882
383 0 74.082 12.3782 917 87.7917 1057.13 493.754
384 0 77.0483 12.4597 960 87.4562 1057.15 494.153
385 0 80.0986 12.6344 1012 87.0968 1057.24 492.328
386 0 81.1724 12.0361 977 90.1566 1057.48 491.284
387 0 82.1904 11.8627 975 90.9415 1057.94 490.245
388 0 85.191 12.3722 1054 91.3046 1057.99 488.843
389 0 89.2987 12.6094 1126 91.7602 1057.71 487.909
390 0 90.2479 12.0557 1088 93.7767 1057.26 486.43
391 0 92.1888 12.431 1146 93.8045 1057.07 484.614
392 0 95.2368 12.5897 1199 94.2002 1057.16 482.349
393 0 95.1076 12.2703 1167 96.4576 1057.79 481.633
394 0 100.127 12.2245 1224 94.674 1057.61 481.044
395 0 103.27 12.3463 1275 95.1067 1057.6 478.156
396 0 103.197 12.7329 1314 95.0906 1057.47 475.836
397 0 108.361 12.809 1388 94.1131 1057.44 471.103
398 0 111.449 12.6694 1412 92.8322 1057.58 472.185
399 0 113.375 13.1158 1487 92.959 1057.92 468.702
400 0 118.406 12.6936 1503 93.3706 1057.81 466.61
401 1 61.0961 11.3264 692 92.172 1058.21 494.887
402 0 63.1126 12.2004 770 91.0636 1057.72 495.355
403 0 64.0585 11.7081 750 90.1267 1057.96 494.896
404 0 67.2022 12.3657 831 92.3081 1057.76 496.052
405 0 69.1396 12.2216 845 94.7207 1057.93 497.703
406 0 71.1341 13.1582 936 92.5011 1057.46 496.51
407 0 73.1679 13.2435 969 92.8132 1058.05 496.192
408 0 74.1572 13.2017 979 92.237 1058.18 495.084
409 0 76.1085 12.8501 978 93.0798 1058.12 493.941
410 0 77.1198 12.6686 977 94.0532 1057.61 493.254
411 0 82.1691 12.6812 1042 93.2889 1057.18 490.483
412 0 83.124 12.2708 1020 94.9657 1057.86 490.026
413 0 85.1998 12.6996 1082 92.3401 1057.28 488.268
414 0 90.1166 13.0054 1172 90.1399 1057.14 488.284
415 0 91.115 13.0275 1187 89.8551 1057.03 485.457
416 0 94.1376 12.5561 1182 89.3883 1057.55 484.727
417 0 97.0814 13.0612 1268 86.4929 1057.37 482.982
418 0 97.0505 11.7774 1143 79.8241 1057.44 484.388
419 0 100.242 11.9611 1199 79.0609 1056.96 481.959
420 0 104.068 11.9633 1245 78.7968 1057.13 480.136
421 0 106.062 11.5499 1225 79.72 1057.2 480.447
422 0 112.112 11.1585 1251 81.9153 1056.79 475.406
423 1 61.1399 10.1407 620 79.9274 1057.71 499.447
424 0 63.2406 11.1637 706 77.5184 1056.46 499.3
425 0 67.0501 11.6331 780 77.5526 1057.33 499.315
426 0 68.1845 11.7475 801 78.5605 1057.42 498.194
427 0 71.1032 11.1528 793 78.8638 1057.71 497.874
428 0 72.0469 10.9234 787 80.3443 1057.3 495.591
429 0 76.0336 11.2845 858 79.6492 1056.61 496.455
430 0 78.1137 11.7137 915 79.5672 1057.14 493.183
431 0 80.1005 11.6354 932 79.7564 1056.46 493.369
432 0 84.0877 10.7031 900 80.3233 1056.08 490.26
433 0 86.114 10.9158 940 79.4277 1056.65 490.155
434 0 90.0767 11.2793 1016 80.6033 1056.98 487.94
435 0 93.1138 10.8469 1010 80.9941 1057.04 486.245
436 0 94.0891 11.4572 1078 80.1586 1056.49 485.09
437 0 97.0839 11.2583 1093 80.4886 1056.45 482.876
438 0 100.12 11.1166 1113 79.6379 1056.65 482.022
439 0 104.269 11.0868 1156 79.1557 1056.64 480.082
440 0 108.107 11.7754 1273 78.7855 1055.67 479.668
441 0 112.192 11.3377 1272 78.8153 1056.18 478.793
442 1 61.072 10.4794 640 75.1906 1056.76 503.325
443 0 64.0339 10.6975 685 75.0861 1056.44 502.185
444 0 63.0357 9.93088 626 76.5863 1056.53 503.661
445 0 65.0404 10.9009 709 73.2017 1056.64 498.808
446 0 67.0439 11.4403 767 76.3977 1057.37 498.434
447 0 70.1155 12.3083 863 73.3384 1057.46 497.41
448 0 73.0797 11.8911 869 74.1185 1057.11 497.231
449 0 75.0533 11.7117 879 74.3197 1057.59 494.468
450 0 74.0782 11.5284 854 75.4731 1057.41 496.759
451 0 78.1214 11.2645 880 75.1455 1057.19 495.518
452 0 80.1292 10.7826 864 75.6215 1057.61 495.47
453 0 83.0509 10.608 881 73.6958 1057.01 492.556
454 0 84.0542 10.0649 846 73.1147 1057.57 488.013
455 0 88.1022 10.2949 907 74.6781 1057.05 489.143
456 0 91.0982 10.6698 972 79.1965 1057.66 488.53
457 0 94.1157 10.8909 1025 78.0088 1057.58 486.633
458 1 47.0287 10.8444 510 81.9451 1058.05 509.131
459 0 49.0495 11.152 547 80.1993 1057.59 508.51
460 0 50.0184 12.1355 607 77.7512 1057.84 506.766
461 0 51.0454 12.2832 627 77.9458 1058.24 505.268
462 0 53.0713 12.0404 639 78.5243 1057.91 504.793
463 0 55.0608 11.6962 644 78.9984 1057.56 502.865
464 0 55.0692 11.7489 647 79.7774 1058.2 502.587
465 0 57.1028 12.1185 692 79.0824 1057.25 502.155
466 0 60.1216 12.6909 763 78.7471 1057.19 501.051
467 0 62.0876 12.6595 786 79.0102 1056.93 500.868
468 0 65.1146 13.4532 876 77.2169 1056.19 499.35
469 0 67.0891 13.1914 885 79.0249 1056.69 496.878
470 0 70.1168 12.2082 856 80.6121 1057.42 497.039
471 0 71.1038 13.2623 943 79.7094 1056.8 495.726
472 0 74.087 14.0915 1044 78.3276 1057.05 495.619
473 0 76.0735 13.0926 996 82.4297 1057.3 493.032
474 0 78.0959 12.9712 1013 83.2468 1057.21 492.019
475 0 81.095 13.1081 1063 95.4356 1056.95 490.686
476 0 85.0419 13.3228 1133 94.7405 1056.93 490.767
477 0 89.0295 13.5573 1207 94.3256 1056.33 488.381
478 1 45.0127 12.241 551 97.1706 1057.07 510.397
479 0 48.03 13.0543 627 94.622 1057.12 509.788
480 0 49.0591 13.6774 671 91.5857 1056.48 508.219
481 0 49.0349 14.3163 702 92.1339 1056.59 506.997
482 0 51.0363 14.2644 728 89.5082 1056.85 507.874
483 0 53.0407 14.5737 773 88.9056 1056.03 506.338
484 0 53.0449 14.7045 780 90.6949 1055.77 506.172
485 0 56.1109 14.507 814 90.9521 1056.25 504.625
486 0 56.0728 14.1067 791 93.7788 1056.2 503.984
487 0 63.0838 13.0937 826 89.7228 1056.55 504.672
488 0 62.11 15.07 936 87.1827 1055.91 502.108
489 0 64.0691 14.0785 902 97.7118 1055.94 501.506
490 0 68.1047 14.2281 969 96.324 1055.65 501.736
491 0 69.1097 13.8186 955 98.3508 1056.34 499.388
492 0 71.0703 14.2535 1013 97.9506 1056.45 498.194
493 0 73.2188 13.685 1002 99.8772 1056.76 496.847
494 0 77.1911 14.1856 1095 97.9288 1056.2 495.991
495 0 77.2421 13.9043 1074 100.25 1056.04 493.977
496 0 79.175 14.0701 1114 97.7989 1055.62 493.051
497 0 82.1438 13.4642 1106 99.4539 1055.87 493.033
498 0 86.2758 13.4568 1161 98.9966 1055.62 490.981
499 0 90.2576 13.4615 1215 97.9885 1055.72 489.479
500 0 91.296 13.637 1245 96.8506 1055.55 489.312
501 1 46.0709 12.6978 585 151.241 1055.74 510.783
502 0 49.0502 13.3537 655 98.0763 1055.54 508.544
503 0 52.0686 13.2517 690 95.5986 1055.64 507.332
504 0 51.0404 13.4012 684 93.348 1055.76 505.437
505 0 55.1322 14.3836 793 90.1185 1055.3 504.918
506 0 58.0147 14.1516 821 99.8879 1055.59 503.864
507 0 60.0977 14.4764 870 99.3667 1055.24 503.23
508 0 62.1027 14.7498 916 99.9007 1055.22 502.033
509 0 64.1445 14.8259 951 100.614 1055.35 499.633
510 0 64.1905 15.4852 994 101.492 1055.13 499.029
511 0 67.1646 15.3057 1028 101.928 1055.93 497.964
512 0 68.2006 14.8532 1013 104.619 1055.33 497.776
513 0 70.1888 15.0166 1054 104.494 1055.8 497.147
514 0 72.2399 15.1578 1095 104.685 1055.37 497.079
515 0 76.2003 15.6692 1194 103.208 1055.96 495.052
516 0 78.1733 15.3633 1201 103.729 1055.46 493.817
517 0 79.1327 16.5924 1313 103.142 1055.14 494.343
518 0 82.2489 15.4652 1272 102.782 1054.98 492.285
519 0 86.2088 15.1725 1308 103.476 1055.29 490.719
520 0 88.1442 15.2364 1343 105.297 1055.14 489.871
521 0 90.2413 15.3477 1385 105.529 1054.89 487.35
522 1 45.1457 13.2903 600 113.405 1054.81 510.208
523 0 48.1475 13.4794 649 109.773 1054.99 511.112
524 0 47.0944 14.4815 682 110.152 1054.61 509.913
525 0 52.1013 14.0879 734 108.489 1054.88 508.688
526 0 53.2035 14.5291 773 110.08 1054.46 507.147
527 0 54.1879 14.8557 805 109.389 1054.33 507.85
528 0 56.1428 14.4809 813 109.936 1054.3 506.26
529 0 59.1052 14.6349 865 107.992 1054.94 505.719
530 0 60.1145 15.0712 906 105.749 1053.79 504.714
531 0 62.1478 14.9321 928 104.673 1054.04 504.052
532 0 64.2194 14.7152 945 104.653 1054.49 502.922
533 0 66.1289 15.122 1000 103.931 1054 501.164
534 0 70.1302 14.8438 1041 102.516 1053.25 499.821
535 0 73.1422 15.2853 1118 100.316 1053.86 499.319
536 0 76.1571 15.7963 1203 98.6467 1054.21 498.071
537 0 77.1658 14.9159 1151 102.014 1053.97 496.376
538 0 79.1542 15.4761 1225 101.441 1054.48 494.609
539 0 82.2062 15.3395 1261 99.9413 1054.53 493.041
540 0 84.1275 15.108 1271 101.477 1054.8 492.142
541 0 83.1561 14.5389 1209 103.553 1054.93 492.603
542 0 90.1451 15.0202 1354 99.7784 1053.96 489.652
543 0 95.0983 15.321 1457 99.0508 1053.78 488.165
544 0 99.2014 16.0381 1591 97.1087 1053.54 486.356
545 0 101.085 15.3138 1548 100.399 1053.96 484.101
546 0 103.061 15.0882 1555 101.046 1053.61 483.576
547 0 108.174 14.865 1608 102.927 1054.25 480.834
548 1 52.0495 12.9108 672 110.701 1054.21 506.442
549 0 56.0695 13.6616 766 109.328 1054.47 505.033
550 0 56.06 14.2526 799 109.111 1054.65 504.038
551 0 60.1471 14.8469 893 105.549 1054.72 502.433
552 0 61.071 15.0153 917 107.345 1054.33 500.826
553 0 63.1663 14.913 942 106.97 1053.98 499.812
554 0 66.1347 15.3475 1015 105.153 1053.94 499.828
555 0 64.127 13.8475 888 112.221 1053.89 498.952
556 0 70.1134 14.7475 1034 107.923 1053.98 496.694
557 0 73.0863 14.5992 1067 108.127 1054.05 495.93
558 0 74.066 15.1621 1123 108.114 1053.94 494.478
559 0 76.1198 15.134 1152 108.589 1054.33 493.76
560 0 79.0851 14.9333 1181 109.792 1054.34 491.307
561 0 80.1479 14.9099 1195 110.643 1054.69 489.885
562 0 83.0777 15.1424 1258 112.072 1054.78 489.496
563 0 86.1389 15.2893 1317 111.961 1054.4 488.406
564 0 87.1066 15.4868 1349 112.789 1053.76 486.496
565 0 91.0528 15.1121 1376 113.725 1054.37 486.517
566 0 93.164 15.0487 1402 114.867 1054.34 483.882
567 0 97.0895 15.4806 1503 113.514 1054.52 482.824
568 0 101.096 15.6682 1584 112.343 1055.08 481.626
569 0 102.15 15.2031 1553 115.785 1055.32 478.406
570 0 107.114 14.8814 1594 115.513 1055.4 476.269
571 0 109.086 15.3273 1672 115.068 1054.49 475.38
572 0 114.16 15.3206 1749 113.422 1055.28 473.684
573 0 116.139 15.3178 1779 114.691 1055.45 472.053
574 0 120.227 15.188 1826 115.422 1054.83 467.693
575 0 125.123 15.0092 1878 115.816 1054.65 468.216
576 0 128.184 14.9863 1921 116.806 1054.51 464.378
577 0 134.154 15.1915 2038 115.02 1054.17 462.332
578 0 138.204 15.2601 2109 118.79 1054.26 460.156
579 0 144.196 15.1738 2188 118.713 1053.52 456.33
580 0 149.188 15.2827 2280 118.46 1053.95 453.033
581 0 154.148 15.4526 2382 116.571 1053.96 451.657
582 0 159.207 14.8926 2371 119.456 1054.03 449.49
583 0 165.219 15.0891 2493 115.72 1053.42 445.781
584 0 172.214 15.3995 2652 116.27 1053.99 442.045
585 0 178.158 15.2561 2718 116.06 1053.4 439.145
586 0 182.186 15.0286 2738 117.227 1053.97 436.859
587 0 187.234 14.837 2778 116.64 1053.2 434.642
588 0 196.334 15.3922 3022 113.53 1053.1 429.354
589 1 101.253 12.4144 1257 112.882 1054.42 478.259
590 0 102.353 12.5351 1283 113.525 1054.27 474.035
591 0 106.216 12.644 1343 113.43 1053.2 471.637
592 0 114.263 12.7425 1456 107.351 1053.33 475.005
593 0 116.185 11.8776 1380 108.144 1052.91 475.146
594 0 120.157 12.0676 1450 107.454 1053.64 473.551
595 0 127.157 12.1896 1550 106.365 1053.27 469.788
596 0 130.326 12.1388 1582 105.963 1053.17 467.234
597 0 138.206 12.3439 1706 107.13 1053.66 463.686
598 0 142.155 11.9307 1696 111.621 1053.68 460.326
599 0 146.193 12.3056 1799 110.59 1053 456.744
600 0 151.185 12.3888 1873 109.437 1053.37 454.813
601 0 156.157 12.2313 1910 109.781 1053.43 452.165
602 0 160.216 11.9776 1919 108.921 1053.32 448.915
603 0 166.13 12.129 2015 107.642 1053.33 444.118
604 0 172.217 12.1881 2099 106.757 1053.32 442.391
605 0 179.221 12.1861 2184 105.842 1052.83 441.623
606 0 183.232 11.4773 2103 108.851 1052.79 434.104
607 0 190.296 11.8027 2246 109.041 1053.16 432.813
608 0 198.239 11.8443 2348 110.846 1052.78 430.544
609 0 204.285 12.4385 2541 110.508 1052.6 425.818
610 0 211.281 12.4479 2630 109.834 1052.68 424.849
611 0 216.427 12.2166 2644 112.863 1053.02 417.682
612 0 223.375 11.8679 2651 114.903 1053.37 414.856
613 0 232.392 12.8877 2995 111.721 1053.36 411.292
614 0 241.373 12.1389 2930 114.071 1053.36 405.473
615 0 240.288 8.33166 2002 119.56 1052.43 417.332
616 1 199.262 7.21162 1437 111.327 1052.86 445.651
617 0 200.35 10.9308 2190 108.572 1052.87 426.826
618 0 207.292 11.7371 2433 107.745 1053.2 423.02
619 0 216.292 11.3181 2448 110.094 1053.04 419.686
620 0 226.242 11.8723 2686 111.615 1053.21 414.398
621 0 232.365 11.9037 2766 109.367 1053.76 412.348
622 0 242.423 12.5359 3039 106.65 1053.74 407.888
623 0 249.308 12.647 3153 107.993 1054.05 403.78
624 0 257.296 12.0561 3102 110.183 1054.15 399.615
625 0 263.386 11.9331 3143 110.973 1054.4 397.716
626 0 272.529 12.2923 3350 109.156 1054.09 394.57
627 0 278.524 11.683 3254 112.128 1053.65 386.418
628 0 288.608 12.2554 3537 110.56 1052.77 379.985
629 1 312.424 6.19671 1936 112.745 1053.36 410.341
630 0 314.572 17.9514 5647 94.4971 1054.59 350.163
631 0 317.63 15.1843 4823 105.173 1054.2 356.067
632 0 323.577 12.3124 3984 112.859 1053.42 357.33
633 0 336.691 15.1326 5095 105.79 1053.9 351.222
634 0 337.728 9.9281 3353 115.804 1053.73 371.257
635 1 58.3413 9.83865 574 90.324 1055.21 494.465
636 0 58.1744 10.417 606 89.9538 1055.96 493.271
637 0 59.2442 10.5664 626 91.1741 1055.83 494.267
638 0 60.0173 10.8136 649 91 1052.81 489.646
639 0 63.0526 10.4199 657 93.4581 1052.55 485.839
640 0 62.045 9.09017 564 90.9557 1052.65 494.03
641 0 69.0558 11.3966 787 85.1245 1052.85 488.602
642 0 69.0905 10.4645 723 89.4744 1053.31 489.245
643 0 71.0486 10.6124 754 90.0782 1053.73 493.162
644 0 70.1684 9.862 692 93.6127 1053.82 490.156
645 0 80.0504 12.1548 973 81.4388 1053.34 479.777
646 0 75.0392 12.5268 940 82.967 1053.7 478.773
647 0 79.1183 14.0549 1112 79.464 1054.76 478.674
648 0 78.0936 12.4082 969 86.2993 1054.23 479.059
649 1 98.1137 15.217 1493 70.8681 1055.92 468.549
650 0 100.563 18.5455 1865 64.3046 1055.7 463.702
651 0 97.435 17.0678 1663 69.2832 1055.49 463.756
652 0 99.377 16.6437 1654 70.9891 1055.45 465.024
653 0 97.3884 12.024 1171 85.8284 1055.73 469.776
654 0 101.23 12.0418 1219 85.813 1054.77 466.542
655 0 105.352 12.8901 1358 83.4308 1054.71 470.619
656 0 107.462 12.3671 1329 85.6178 1055.24 468.657
657 0 109.461 11.5018 1259 87.7045 1055.58 470.756
658 0 115.33 12.2779 1416 85.589 1054.75 467.375
659 0 119.34 11.7731 1405 87.1694 1054.87 464.258
660 0 125.441 12.2527 1537 87.9694 1054.27 463.035
661 1 65.1684 12.015 783 89.4508 1055.78 487.001
662 0 69.1698 12.0428 833 88.9628 1055.32 486.861
663 0 69.208 12.3252 853 89.4385 1055.61 486.667
664 0 71.2202 12.2437 872 89.9243 1055.13 485.877
665 0 71.2064 12.85 915 90.0098 1055.36 484.061
666 0 73.1027 12.4756 912 90.6645 1056.28 481.873
667 0 73.0829 11.3159 827 93.1572 1054.41 486.663
668 0 72.0901 11.6243 838 94.0967 1055.1 485.232
669 0 75.1186 11.9811 900 92.6367 1055.13 482.49
670 0 75.0688 12.1888 915 93.1661 1055.09 479.404
671 0 79.1446 12.3445 977 92.7503 1055.46 477.966
672 0 81.2957 11.698 951 94.1998 1055.28 477.285
673 0 85.2194 12.0395 1026 93.3489 1054.75 475.605
674 0 88.1654 12.1136 1068 91.9775 1055.06 474.914
675 0 88.1559 11.7065 1032 93.3973 1055.06 472.087
676 0 90.2816 12.0955 1092 91.9194 1055.11 470.41
677 0 94.1532 12.2779 1156 90.4083 1055.4 468.298
678 0 99.1251 12.2472 1214 88.3987 1054.81 466.476
679 0 100.19 12.4862 1251 88.8441 1055.04 466.078
680 0 106.232 12.3032 1307 87.0444 1055.64 463.993
681 0 108.277 12.6897 1374 86.2715 1055.04 461.647
682 0 111.232 12.4874 1389 86.4176 1055.67 459.778
683 0 113.228 12.0553 1365 87.5516 1055.71 458.124
684 0 120.27 12.1144 1457 84.3027 1055.74 459.097
685 1 59.1375 10.687 632 82.5934 1055.29 485.478
686 0 63.0802 10.7641 679 82.8262 1054.97 483.404
687 0 64.1003 11.716 751 81.9281 1055.58 484.445
688 0 64.1045 11.1069 712 82.0407 1056.21 483.486
689 0 67.1131 11.1305 747 83.1352 1056.11 483.735
690 0 69.1428 11.5558 799 82.1752 1056.44 483.456
691 0 72.117 11.7032 844 81.2334 1055.75 483.184
692 0 73.0876 11.4794 839 81.8355 1055.51 483.199
693 0 78.1279 11.9292 932 80.5848 1056.08 482.211
694 0 84.1169 12.5896 1059 75.9471 1055.26 484.645
695 0 86.146 13.1057 1129 75.8264 1055.02 482.457
696 0 89.0812 13.2127 1177 75.3687 1055.65 480.653
697 0 93.1428 13.5598 1263 74.2067 1055.48 480.439
698 0 97.1054 12.8932 1252 75.7636 1055.3 480.338
699 0 99.1093 12.9049 1279 77.0375 1055.14 479.471
700 0 99.1524 12.859 1275 78.8792 1054.46 477.991
701 0 104.193 13.0143 1356 77.6763 1055.13 477.501
702 0 104.154 12.4239 1294 80.3748 1054.68 475.919
703 0 109.102 13.1619 1436 78.6065 1054.88 474.604
704 0 111.188 12.6183 1403 79.2922 1054.88 471.666
705 1 57.0805 10.1786 581 76.9174 1054.79 495.954
706 0 56.0882 10.2874 577 78.8336 1055.72 490.208
707 0 66.0748 11.2751 745 76.9383 1053.9 498.369
708 0 67.0803 11.3744 763 73.5924 1054.05 500.398
709 0 70.1075 11.5252 808 74.5173 1053.15 496.179
710 0 72.0898 12.096 872 73.3337 1053.86 495.007
711 0 74.1508 11.7329 870 74.2678 1054 495.003
712 0 76.0496 11.8475 901 74.0999 1053.25 493.79
713 0 77.0909 12.1285 935 75.8406 1053.75 492.463
714 0 80.065 11.8279 947 75.1985 1054.24 492.081
715 0 84.096 11.0112 926 68.6091 1054.55 492.586
716 0 85.121 11.7832 1003 67.7727 1053.5 491.275
717 0 89.1629 11.8435 1056 67.9915 1054.08 490.763
718 0 92.1067 11.5735 1066 68.4625 1054.4 488.129
719 0 94.1463 11.2909 1063 69.1101 1054.9 487.504
720 0 97.2034 11.8 1147 67.5519 1054.71 486.144
721 0 100.181 11.6988 1172 66.7108 1054.9 483.956
722 0 102.144 10.9845 1122 67.2709 1055.2 483.935
723 0 107.124 11.9954 1285 66.0327 1054.98 481.864
724 1 55.0768 10.6215 585 65.8239 1054.44 506.239
725 0 57.1121 10.0329 573 65.2914 1054.96 508.932
726 0 56.1303 11.4911 645 64.5287 1055.21 507.468
727 0 58.1122 10.669 620 67.0935 1055.24 506.244
728 0 58.1122 10.7723 626 115.28 1055.24 506.2
729 0 64.0592 11.0835 710 67.5817 1054.86 504.483
730 0 61.0819 10.6578 651 69.0553 1055 503.407
731 0 65.0964 11.337 738 68.5732 1055.33 503.061
732 0 66.0831 11.6974 773 68.5317 1055.24 501.648
733 0 68.0808 11.1926 762 70.4121 1055.59 501.207
734 0 71.0804 12.113 861 69.3775 1055.57 499.681
735 0 71.2063 11.4035 812 72.2044 1054.69 496.324
736 0 74.2642 11.3783 845 71.5325 1055.1 494.883
737 0 74.0906 11.9583 886 71.737 1055.12 494.735
738 0 74.085 10.1505 752 76.6636 1054.52 495.235
739 0 75.1359 10.0751 757 78.6196 1055.51 496.701
740 0 80.1468 11.6786 936 75.9017 1055.79 494.344
741 0 82.1505 10.992 903 78.0842 1054.97 492.718
742 0 85.1487 12.0025 1022 76.2945 1054.73 489.898
743 0 88.1694 12.1584 1072 76.3965 1055.44 491.327
744 0 88.1964 10.9188 963 79.8027 1054.97 489.561
745 0 93.2091 12.2949 1146 76.6117 1055.16 487.058
746 0 97.2036 12.1498 1181 76.6283 1055.32 486.8
747 0 98.0922 11.9276 1170 78.3701 1055.69 483.036
748 0 101.223 12.5466 1270 78.8874 1054.8 481.679
749 0 105.19 12.8624 1353 77.9431 1054.94 481.723
750 0 107.192 12.6689 1358 81.0081 1054.95 478.353
751 0 111.147 13.5047 1501 79.5983 1055.34 476.849
752 0 115.269 13.4034 1545 79.8602 1055.41 474.339
753 0 118.171 13.3704 1580 84.3772 1055.66 474.295
754 1 55.1735 10.4217 575 74.8539 1056.82 506.224
755 0 56.1649 10.0597 565 76.3327 1056.68 503.694
756 0 64.1579 9.81953 630 75.8825 1056.13 501.337
757 0 62.1327 10.5259 654 76.2508 1055.85 501.972
758 0 65.2153 10.0283 654 76.4893 1055.81 499.774
759 0 68.1974 10.6162 724 74.9558 1056.19 500.678
760 0 67.1021 11.4601 769 75.0039 1056.34 499.104
761 0 72.1118 11.607 837 75.2724 1056.53 495.778
762 0 74.083 12.324 913 75.0208 1056.71 494.347
763 0 75.1783 11.8518 891 76.4557 1055.97 495.091
764 0 76.0936 11.9195 907 77.4928 1055.35 491.459
765 0 80.2224 12.216 980 76.2112 1054.98 493.46
766 0 82.1126 12.3976 1018 75.9067 1055.62 491.701
767 0 82.1828 10.7322 882 75.6735 1055.03 491.327
768 0 86.1288 11.239 968 74.0961 1055.26 488.65
769 0 89.072 10.9687 977 74.2364 1055.88 486.257
770 0 94.1502 11.3542 1069 71.5257 1055.74 484.996
771 0 97.2109 11.0996 1079 75.2252 1055.76 482.359
772 0 101.236 10.9941 1113 79.2363 1055.54 479.834
773 1 52.0886 9.21507 480 69.1479 1056.52 506.427
774 0 52.0632 9.02749 470 70.1574 1055.21 504.613
775 0 55.1394 9.84777 543 68.5083 1056.21 506.634
776 0 55.2006 10.1992 563 69.8153 1056.03 504.162
777 0 58.0963 9.8285 571 70.6655 1056.17 503.38
778 0 58.1106 9.8261 571 71.0613 1056.14 504.086
779 0 61.1864 9.74073 596 71.4664 1056.1 504.238
780 0 62.1824 10.0028 622 72.1897 1056.07 500.833
781 0 63.1299 9.94775 628 72.3965 1055.23 499.427
782 0 65.0427 9.37845 610 72.7967 1054.49 497.264
783 0 70.1133 10.3547 726 70.4587 1054.66 495.523
784 0 71.0798 10.3968 739 70.7618 1054.83 495.516
785 0 73.0407 10.9802 802 71.9277 1054.68 494.106
786 0 76.0917 10.7765 820 72.4402 1054.9 493.661
787 0 79.1252 11.1848 885 71.9706 1055.49 493.322
788 0 82.1231 10.74 882 72.788 1055.39 490.463
789 0 84.147 10.553 888 73.9493 1055.3 489.391
790 0 87.1739 10.9551 955 73.1853 1056.15 488.193
791 0 89.1076 10.4368 930 74.1505 1056.46 488.056
792 0 92.101 11.4765 1057 74.878 1056.07 486.014
793 0 96.1369 11.5252 1108 76.0894 1056.11 482.637
794 0 99.2515 10.6195 1054 79.0683 1056.23 483.312
795 1 54.0665 9.71026 525 75.3543 1056.4 506.775
796 0 56.0458 10.4914 588 77.6429 1056.54 504.321
797 0 57.1488 10.9539 626 77.6725 1057.35 503.901
798 0 59.1441 11.1423 659 77.4416 1057.41 502.932
799 0 61.1214 11.649 712 77.3048 1057.72 502.004
800 0 63.0815 11.9845 756 84.2831 1058.13 499.679
801 0 63.1682 12.0947 764 85.5759 1058.14 499.263
802 0 67.2064 12.9303 869 83.6168 1058.14 499.702
803 0 68.2287 12.8538 877 83.065 1057.23 499.576
804 0 69.1724 12.6929 878 84.6891 1057.05 497.305
805 0 72.1531 13.3189 961 82.3746 1057.16 499.105
806 0 74.1339 14.2175 1054 81.3159 1056.83 497.931
807 0 76.1036 13.521 1029 82.0292 1056.7 496.774
808 0 79.1747 13.5523 1073 82.3336 1056.56 495.549
809 0 82.3111 13.9957 1152 80.855 1056.41 494.609
810 0 83.28 13.8929 1157 83.8194 1056.6 491.053
811 0 87.2063 14.1045 1230 82.2504 1056.12 491.867
812 0 89.1295 13.8899 1238 82.6535 1055.89 491
813 0 88.0751 13.0797 1152 81.9575 1055.52 489.942
814 0 93.0772 13.4834 1255 79.498 1053.96 488.851
815 0 94.098 13.3372 1255 79.3052 1054.27 485.802
816 0 97.1421 13.331 1295 78.7544 1054.67 484.816
817 0 102.156 13.7633 1406 76.6337 1053.46 482.941
818 0 104.109 13.7837 1435 77.6509 1054.41 481.207
819 0 105.145 12.6301 1328 80.756 1054.71 482.102
820 0 107.17 12.6995 1361 80.2292 1055.2 482.82
821 0 110.109 12.2606 1350 81.0156 1054.92 479.126
822 0 112.102 12.3192 1381 81.2071 1054.81 473.798
823 0 116.09 12.4731 1448 81.0276 1054.1 471.858
824 0 119.089 12.2765 1462 81.8023 1053.56 469.46
825 0 121.173 12.0407 1459 81.2618 1054.12 466.345
826 0 124.16 12.2664 1523 81.044 1053.48 462.955
827 0 130.242 12.139 1581 79.5971 1053.59 462.207
828 1 74.1042 11.5918 859 78.3341 1054.4 488.225
829 0 77.1141 11.8785 916 78.4967 1054.24 487.19
830 0 80.1002 12.8339 1028 75.5603 1052.95 487.014
831 0 81.1 13.2429 1074 74.1797 1053.83 486.402
832 0 86.1147 13.1453 1132 73.1617 1054.33 485.802
833 0 90.0404 12.6943 1143 73.5416 1054.43 485.962
834 0 93.1133 13.3601 1244 72.3529 1054.64 482.694
835 0 99.0409 11.571 1146 76.0969 1054.63 482.833
836 0 98.22 13.6428 1340 72.6478 1054.63 478.277
837 0 102.191 12.9464 1323 76.0234 1054.17 475.891
838 0 105.137 13.7249 1443 76.3042 1054.2 471.83
839 0 108.156 13.878 1501 76.0027 1052.8 470.119
840 0 114.231 13.6215 1556 75.9332 1052.86 468.855
841 0 115.116 13.873 1597 76.8071 1052.77 465.748
842 0 119.126 13.7837 1642 77.2491 1052.86 463.861
843 0 125.169 13.1582 1647 78.6521 1052.57 460.94
844 0 131.108 13.8512 1816 76.288 1052.67 458.924
845 0 137.101 14.4637 1983 79.9662 1052.89 458.93
846 0 139.135 14.353 1997 76.5979 1052.72 454.993
847 0 144.229 13.9431 2011 78.0353 1052.5 454.626
848 0 147.153 14.0738 2071 77.7885 1052.86 449.952
849 0 152.203 13.2783 2021 80.0713 1053.19 447.723
850 0 156.265 13.2083 2064 80.3246 1053.2 445.972
851 0 161.123 13.1762 2123 80.0697 1053.18 445.262
852 1 72.0874 11.0005 793 77.9874 1053.41 488.595
853 0 72.1031 10.693 771 78.2957 1053.82 488.595
854 0 75.0258 10.9696 823 78.5249 1053.96 485.697
855 0 81.0999 12.3798 1004 76.4363 1053.92 486.133
856 0 84.0953 12.2956 1034 69.176 1054.2 485.77
857 0 86.1113 11.6477 1003 70.9811 1053.95 484.013
858 0 88.1388 11.9471 1053 72.4558 1053.57 482.144
859 0 94.184 12.5074 1178 72.0688 1053.95 480.921
860 0 98.1235 12.9225 1268 71.6877 1053.96 477.953
861 0 100.108 12.7163 1273 75.1972 1053.38 477.335
862 0 106.052 12.7767 1355 75.2465 1053.57 477.12
863 0 108.129 12.9845 1404 76.5 1054.15 474.385
864 0 111.076 12.7121 1412 78.9051 1053.49 473.525
865 0 116.092 12.8949 1497 80.7328 1053.27 471.677
866 0 117.061 12.3269 1443 84.5814 1053.19 467.867
867 0 124.262 12.5461 1559 84.0115 1053.69 464.853
868 0 130.274 13.3872 1744 83.2288 1053.02 463.739
869 0 134.233 12.5007 1678 86.7473 1053.01 461.25
870 1 64.1117 10.3881 666 76.6111 1054.07 497.517
871 0 66.0617 10.9292 722 77.9391 1053.59 497.186
872 0 70.1202 11.3377 795 81.9283 1053.17 499.436
873 0 73.0282 11.2833 824 82.0583 1053.21 497.392
874 0 74.0344 11.3326 839 80.9476 1052.69 496.689
875 0 76.0516 12.3995 943 80.7031 1053.08 496.779
876 0 79.071 12.141 960 81.3354 1054.12 495.18
877 0 85.0977 12.4093 1056 81.2405 1053.9 493.312
878 0 88.0789 12.1141 1067 95.3552 1054.73 490.241
879 0 90.0929 12.6092 1136 94.7245 1054.68 489.049
880 0 94.1448 12.9906 1223 90.713 1054.49 488.643
881 0 96.056 12.6697 1217 92.0156 1054.31 486.993
882 0 98.0478 12.2083 1197 94.6257 1054.67 484.911
883 0 100.078 12.77 1278 94.3654 1054.09 484.199
884 0 104.07 12.6837 1320 95.5106 1054.43 481.589
885 0 107.066 12.6931 1359 92.3216 1054.83 480.357
886 1 56.0611 10.9345 613 85.3295 1055.05 507.047
887 0 58.0384 11.6819 678 81.7581 1053.97 505.484
888 0 60.0402 12.0919 726 80.3361 1055.01 503.249
889 0 60.0183 11.5965 696 81.7802 1054.75 502.47
890 0 63.0657 12.0033 757 80.2444 1054.53 500.251
891 0 66.0401 12.1744 804 79.8371 1054.54 498.5
892 0 68.0424 11.8162 804 80.4764 1054.72 498.948
893 0 70.0471 12.2775 860 80.1535 1054.63 498.927
894 0 74.0724 12.5418 929 79.38 1054.75 496.664
895 0 74.0939 12.0658 894 81.5045 1054.71 496.891
896 0 75.1091 12.2622 921 84.0608 1053.75 494.619
897 0 78.1177 12.5964 984 83.1494 1054.84 492.335
898 0 82.0661 12.6849 1041 82.8588 1055.12 491.525
899 0 83.1528 12.5913 1047 84.2101 1054.56 490.28
900 0 87.0912 12.7338 1109 83.3174 1055.3 489.265
901 0 89.1511 11.688 1042 96.8042 1054.88 487.476
902 0 91.1212 12.434 1133 95.2357 1054.79 484.876
903 0 94.1106 13.1654 1239 92.8886 1055.22 481.946
904 0 97.2541 12.7809 1243 95.2872 1054.65 480.973
905 0 99.2304 12.859 1276 95.232 1055.2 480.037
906 0 102.179 13.2218 1351 93.0637 1055.4 477.745
907 1 54.0391 10.9735 593 92.8853 1055.83 499.486
908 0 57.0412 11.7985 673 89.1932 1055.87 500.529
909 0 58.1161 11.5631 672 89.5179 1056.23 498.933
910 0 58.0914 11.4303 664 80.6114 1055.01 501.047
911 0 62.0706 12.5019 776 76.5941 1056.22 500.358
912 0 63.0604 12.0678 761 78.1091 1055.86 499.289
913 0 64.1132 11.932 765 78.7229 1055.87 497.414
914 0 66.0646 12.2759 811 77.3958 1055.15 496.841
915 0 67.1653 11.7322 788 81.4708 1056.03 499.443
916 0 69.0909 11.6658 806 82.0484 1055.28 495.818
917 0 70.0875 11.3144 793 82.6494 1055.39 497.454
918 0 76.1116 11.9167 907 80.4278 1055.26 496.506
919 0 77.138 11.8878 917 81.1363 1055.19 494.656
920 0 78.1614 11.6298 909 81.0143 1054.33 493.518
921 0 79.111 11.6924 925 82.0908 1054.99 493.025
922 0 84.1313 12.3379 1038 79.9913 1054.99 490.679
923 0 87.1362 12.0616 1051 80.7479 1054.63 490.491
924 0 89.0786 12.2364 1090 82.1532 1054.62 490.45
925 0 89.0716 11.8781 1058 84.6068 1054.75 489.169
926 0 94.1335 11.6005 1092 85.4112 1054.27 488.494
927 0 96.1293 12.1087 1164 85.7491 1054.33 487.808
928 0 99.2715 11.6851 1160 86.3026 1054 485.593
929 0 100.079 11.6808 1169 88.3807 1053.12 485.451
930 0 103.073 11.6228 1198 88.5192 1053.74 483.869
931 0 106.092 11.1695 1185 90.1215 1053.34 482.294
932 0 109.134 11.7929 1287 88.8205 1053.07 481.174
933 0 115.096 12.6242 1453 85.1542 1053.18 480.926
934 0 119.144 11.9855 1428 86.7087 1053.5 480.368
935 1 65.043 11.9459 777 89.2188 1053.95 503.274
936 0 67.0639 11.6903 784 89.5153 1053.32 505.293
937 0 69.0991 12.5617 868 88.6843 1052.63 502.742
938 0 71.0663 12.6783 901 89.0344 1051.77 500.912
939 0 74.0827 13.5119 1001 87.8192 1051.83 500.72
940 0 73.0305 12.9398 945 92.9111 1051.8 500.096
941 0 78.0408 13.557 1058 90.5038 1052.71 500.067
942 0 79.0998 13.3755 1058 92.4839 1052.66 498.468
943 0 79.0871 13.0489 1032 91.4952 1052.38 499.598
944 0 81.0455 12.7706 1035 92.0493 1053.09 499.126
945 0 83.1239 12.8964 1072 89.903 1052.72 496.983
946 0 87.0755 13.0576 1137 87.5418 1052.54 494.887
947 0 90.1284 12.7596 1150 87.8904 1052.11 494.289
948 0 93.1004 12.3952 1154 89.4021 1052.8 493.436
949 0 93.1227 12.65 1178 90.4032 1052.7 491.771
950 0 98.1349 12.9108 1267 89.8635 1053.09 487.917
951 0 101.095 12.7108 1285 97.8335 1052.9 488.882
952 0 103.075 12.7771 1317 99.5535 1053.79 487.458
953 0 107.172 12.5499 1345 100.503 1054.69 485.487
954 0 113.152 13.2212 1496 96.6584 1052.67 484.563
955 0 114.07 13.0534 1489 96.0537 1053.97 482.837
956 1 59.0195 11.4369 675 87.1348 1053.81 505.64
957 0 60.0816 10.8186 650 88.5738 1054.18 501.932
958 0 61.0533 11.7275 716 85.743 1054.27 499.955
959 0 62.1165 11.8809 738 86.874 1054.27 498.73
960 0 67.1045 12.8009 859 86.7602 1054.12 501.494
961 0 69.1604 12.3915 857 86.3431 1054.67 501.019
962 0 71.1931 12.5293 892 84.5762 1054.28 499.137
963 0 73.1588 12.3157 901 84.8069 1054.76 497.867
964 0 73.1924 12.6243 924 83.7933 1054.62 498.331
965 0 73.0857 11.4797 839 76.9726 1054.76 496.983
966 0 76.0686 10.8586 826 77.0969 1054.69 499.3
967 0 79.0866 11.0385 873 76.5796 1054.46 496.652
968 0 82.0326 11.7636 965 76.5005 1054 494.319
969 0 84.1008 11.2127 943 76.2757 1054.55 493.321
970 0 88.149 11.2764 994 75.4447 1055.3 489.661
971 0 91.0848 11.6704 1063 74.0499 1054.76 488.437
972 1 48.0839 9.83698 473 75.8626 1055.63 510.429
973 0 47.0485 9.62836 453 77.3466 1055.76 509.66
974 0 50.0589 10.4876 525 77.1962 1055.84 509.219
975 0 52.0564 11.3531 591 77.0118 1056.32 508.044
976 0 53.0682 11.0801 588 76.8044 1055.97 506.284
977 0 55.0283 12.1755 670 72.4 1055.51 506.239
978 0 56.1119 12.1721 683 73.0366 1056.12 504.457
979 0 58.0648 12.3827 719 81.121 1055.87 505.099
980 0 61.1624 12.3115 753 82.0173 1056.57 505.43
981 0 63.1648 13.0136 822 80.0316 1055.81 504.468
982 0 66.0616 13.5934 898 79.7628 1055.93 504.317
983 0 67.1066 13.1582 883 71.2911 1055.92 503.139
984 0 70.1259 13.5043 947 70.811 1055.14 503.392
985 0 70.0802 13.4703 944 73.7648 1055.05 501.405
986 0 73.1292 14.2077 1039 72.5938 1054.73 500.77
987 0 75.0908 13.6768 1027 75.258 1054.74 498.916
988 0 78.1392 13.4631 1052 75.9183 1055.05 497.639
989 0 81.0788 14.0234 1137 76.1003 1055.32 497.145
990 0 80.0666 13.0516 1045 80.6545 1055.02 496.992
991 0 81.1125 12.3286 1000 83.924 1055.62 496.282
992 0 85.0855 13.1867 1122 83.2576 1055.6 494.496
993 0 87.0868 12.9985 1132 83.9894 1055.72 493.894
994 0 91.1091 13.2478 1207 84.4192 1055.15 490.29
995 0 91.0921 12.5148 1140 87.0877 1054.97 489.268
996 0 96.108 13.2767 1276 83.8017 1054.76 489.34
997 0 100.169 12.6087 1263 85.3618 1055.66 487.453
998 0 103.158 12.224 1261 86.77 1054.85 483.389
999 1 55.0159 12.2692 675 87.2267 1056.06 505.708
1000 0 55.0836 11.7276 646 90.6935 1056.29 503.735
1001 0 56.0677 12.1639 682 90.7947 1056.05 502.438
1002 0 56.0893 12.3018 690 86.1739 1055.18 506.423
1003 0 58.1408 12.7621 742 84.9111 1055.69 504.624
1004 0 61.0455 12.6791 774 87.7494 1055.57 503.623
1005 0 61.0776 12.7543 779 86.4339 1056.7 503.923
1006 0 64.1284 12.0072 770 89.8662 1057.17 504.348
1007 0 66.0531 11.6876 772 91.8199 1056.91 501.79
1008 0 68.1007 12.4815 850 90.9247 1057.02 499.359
1009 0 71.0591 12.8625 914 89.0678 1057.53 500.315
1010 0 72.0593 12.573 906 92.0011 1057.13 497.783
1011 0 74.055 12.6258 935 91.4963 1057.29 497.666
1012 0 77.0624 12.5742 969 91.1785 1056.58 496.486
1013 0 78.0674 12.707 992 91.5302 1056.52 494.127
1014 0 79.0726 11.8878 940 94.516 1056.28 493.914
1015 0 83.0552 13.0275 1082 92.6543 1055.59 491.952
1016 0 85.0825 12.4585 1060 94.5651 1055.85 490.582
1017 0 88.1424 12.3437 1088 95.5643 1055.83 488.728
1018 0 90.1064 12.9736 1169 93.9085 1056.63 489.504
1019 0 94.0625 12.6937 1194 95.1734 1056.51 487.755
1020 0 95.0972 12.9657 1233 94.8086 1056.73 485.068
1021 0 99.1064 12.865 1275 94.378 1056.97 483.67
1022 0 101.083 12.7321 1287 93.7226 1056.9 480.732
1023 0 105.153 13.0001 1367 90.4411 1057.2 479.868
1024 0 109.1 12.594 1374 90.9753 1056.75 478.271
1025 0 111.218 12.2552 1363 91.4446 1055.89 474.131
1026 1 53.0351 11.4075 605 93.5421 1057.29 496.972
1027 0 59.059 11.5139 680 93.6029 1056.44 499.037
1028 0 63.0815 11.6833 737 93.2185 1056.56 496.79
1029 0 64.1537 11.3945 731 94.7332 1055.46 496.718
1030 0 65.0553 11.6516 758 93.9881 1055.57 495.497
1031 0 67.1231 12.0674 810 94.6185 1055.06 493.949
1032 0 70.1049 11.4971 806 96.5732 1055.3 492.047
1033 0 72.1593 11.9596 863 96.2225 1055.62 492.22
1034 0 78.1217 12.4293 971 92.3605 1056.11 492.234
1035 0 78.103 12.2274 955 94.4408 1055.34 491.561
1036 0 80.0756 12.0511 965 96.9585 1054.99 490.33
1037 0 83.0757 12.2057 1014 97.9813 1055.21 488.658
1038 0 84.0967 12.5213 1053 99.585 1055.5 487.696
1039 0 87.1273 12.5678 1095 99.4858 1054.81 486.417
1040 0 91.1161 13.1042 1194 98.66 1055.35 485.559
1041 0 92.1225 12.885 1187 100.068 1054.91 482.659
1042 0 94.1024 13.4853 1269 99.3586 1054.79 482.901
1043 0 96.1084 12.9645 1246 101.652 1054.77 481.291
1044 0 97.0816 13.2569 1287 102.379 1054.89 480.785
1045 0 102.084 13.3517 1363 100.806 1054.59 480.265
1046 0 103.128 12.693 1309 104.172 1054.4 478.438
1047 0 107.151 12.9537 1388 104.625 1054.7 476.085
1048 0 110.162 13.0081 1433 104.294 1054.73 474.917
1049 0 113.058 13.1526 1487 105.027 1055.15 474.839
1050 0 118.121 13.5539 1601 101.849 1055.19 471.782
1051 0 120.201 12.8784 1548 104.469 1055 468.846
1052 0 124.092 13.4094 1664 103.171 1054.48 468.46
1053 0 130.205 13.8935 1809 97.9895 1053.77 466.178
1054 1 65.0983 10.5994 690 99.3116 1054.77 495.328
1055 0 68.126 10.6127 723 102.574 1055.13 493.433
1056 0 71.1137 11.3761 809 93.4438 1055.21 495.389
1057 0 73.0691 11.4412 836 102.061 1054.91 493.626
1058 0 76.0305 11.1271 846 104.095 1056.74 492.712
1059 0 77.0457 11.8371 912 104.156 1056.18 492.049
1060 0 80.0347 11.42 914 106.616 1055.52 491.393
1061 0 82.0641 11.2961 927 107.249 1055.99 489.846
1062 0 84.0601 11.1825 940 109.447 1055.93 491.383
1063 0 85.0276 11.1023 944 110.322 1055.8 490.146
1064 0 86.0429 11.2037 964 111.609 1056.19 488.031
1065 0 90.0487 12.049 1085 109.257 1055.65 486.245
1066 0 92.0541 11.6345 1071 111.563 1055.53 485.101
1067 0 94.0428 11.7606 1106 111.231 1055.94 483.525
1068 0 97.1056 11.6471 1131 112.532 1055.37 481.469
1069 0 99.0409 11.4498 1134 113.602 1055.26 480.899
1070 1 52.0459 9.0497 471 97.7134 1055.54 507.308
1071 0 52.0205 9.1118 474 100.838 1055.92 505.766
1072 0 58.0831 12.0689 701 114.337 1055.7 507.66
1073 0 60.2963 12.4552 751 115.843 1055.85 506.157
1074 0 61.1931 11.9621 732 118.669 1055.65 506.31
1075 0 62.1436 12.0045 746 118.96 1055.84 505.949
1076 0 63.2027 12.2938 777 118.046 1055.45 505.229
1077 0 64.207 12.2416 786 140.807 1054.48 504.999
1078 0 67.2234 12.0048 807 119.885 1056.01 502.084
1079 0 69.2477 12.1304 840 119.765 1055.78 500.86
1080 0 71.1948 11.7143 834 121.078 1056 500.639
1081 0 73.179 11.588 848 118.897 1055.67 499.443
1082 0 77.1738 11.4417 883 117.888 1055.56 499.071
1083 0 78.2515 10.9135 854 121.032 1055.76 496.352
1084 0 81.1507 11.3739 923 119.294 1055.34 495.199
1085 0 85.1623 11.4487 975 117.774 1055.15 493.606
1086 0 84.2448 10.9918 926 121.771 1055.87 492.819
1087 1 44.0866 10.4794 462 116.091 1056.37 512.418
1088 0 46.0879 9.72055 448 115.449 1055.88 512.281
1089 0 47.1037 10.5512 497 128.718 1056.28 511.569
1090 0 48.0606 11.1526 536 122.869 1056.61 510.767
1091 0 51.0377 10.8939 556 116.414 1055.65 509.345
1092 0 51.0346 10.6007 541 105.055 1055.18 510.996
1093 0 49.0234 11.0151 540 105.911 1056.09 510.639
1094 0 53.0361 10.2195 542 106.679 1055.52 509.454
1095 0 54.0081 10.9243 590 106.958 1055.7 508.612
1096 0 56.0114 10.9799 615 104.711 1055.28 507.564
1097 0 57.0314 10.7485 613 104.418 1055.62 506.734
1098 0 58.0204 10.6859 620 105.239 1055.8 504.224
1099 0 60.0399 10.8595 652 106.387 1056.81 508.828
1100 0 61.1653 10.4798 641 107.817 1056.14 506.754
1101 0 62.0368 11.2514 698 110.279 1055.41 504.913
1102 0 62.0273 11.6723 724 108.635 1054.67 503.62
1103 0 66.0622 11.6405 769 107.208 1054.59 502.757
1104 0 69.0367 12.0371 831 105.058 1054.3 500.813
1105 0 68.0513 11.0064 749 109.364 1054.45 501.78
1106 0 71.0627 11.8346 841 106.622 1054.92 500.646
1107 0 72.0438 11.1599 804 108.118 1054.84 498.447
1108 0 75.137 11.5922 871 106.758 1055.16 497.529
1109 0 76.0567 10.5448 802 107.817 1055.04 498.257
1110 0 79.0829 10.7735 852 107.515 1054.94 496.344
1111 0 84.0615 11.3964 958 105.604 1054.97 493.46
1112 0 85.1676 10.0273 854 109.179 1054.98 491.164
1113 0 91.1664 12.4278 1133 100.886 1055.63 493.552
1114 0 92.1297 11.169 1029 99.8251 1054.89 492.679
1115 0 97.1468 11.6113 1128 99.3998 1055.67 492.088
1116 0 99.1385 12.2152 1211 103.673 1056.46 489.598
1117 0 101.16 11.4274 1156 108.623 1055.69 487.817
1118 1 53.0552 11.5728 614 107.642 1054.81 507.156
1119 0 52.1584 11.2734 588 109.772 1056.46 503.48
1120 0 56.0575 11.6844 655 104.624 1054.63 510.499
1121 0 55.0186 11.3961 627 103.992 1055.73 510.062
1122 0 58.0522 11.0935 644 103.365 1055.46 510.421
1123 0 59.0443 11.9571 706 100.263 1054.89 508.494
1124 0 62.0263 11.7047 726 101.118 1055.11 506.967
1125 0 64.0206 12.043 771 102.582 1054.92 505.883
1126 0 66.0455 11.9312 788 105.961 1055.48 504.669
1127 0 67.0518 11.5433 774 106.841 1055.07 503.627
1128 0 70.0642 11.5894 812 106.53 1054.45 502.732
1129 0 72.058 12.1014 872 104.825 1054.5 502.265
1130 0 74.0778 11.6094 860 105.108 1054.31 502.084
1131 0 76.063 12.0821 919 103.704 1054.49 498.476
1132 0 80.0856 11.8249 947 105.059 1054.74 498.948
1133 0 82.1489 11.9661 983 101.266 1054.73 497.504
1134 0 82.066 11.5273 946 103.252 1054.41 495.771
1135 0 85.1112 11.7376 999 105.191 1054.61 494.439
1136 0 87.2002 11.1926 976 107.994 1054.25 495.528
1137 0 89.1401 11.5997 1034 109.046 1054.43 491.289
1138 0 93.1723 12.1817 1135 106.184 1054.96 489.273
1139 0 97.2345 12.3207 1198 107.796 1054.23 487.066
1140 1 50.125 10.5736 530 108.975 1054.72 509.283
1141 0 52.128 11.3758 593 105.073 1055.66 510.664
1142 0 50.1622 10.9246 548 95.969 1055.29 503.715
1143 0 51.0671 10.9072 557 101.043 1055.49 501.174
1144 0 50.1074 10.3577 519 98.4644 1055.29 503.141
1145 0 51.0564 10.5374 538 98.2565 1055.59 502.935
1146 0 56.0871 10.9294 613 94.3883 1054.44 502.408
1147 0 56.0922 10.0014 561 96.7576 1054.75 500.715
1148 0 57.159 11.1618 638 94.268 1054.62 499.944
1149 0 57.1324 10.922 624 95.3846 1054.8 497.562
1150 0 61.1449 11.1211 680 83.1838 1055.04 496.894
1151 0 62.1596 10.5213 654 84.3945 1054.43 495.898
1152 0 65.1793 10.9237 712 83.5407 1054.23 495.219
1153 0 68.0864 10.3398 704 84.4332 1053.84 494.778
1154 0 74.0615 11.0449 818 81.1271 1053.56 495.949
1155 0 75.055 11.3384 851 80.6334 1053.23 493.089
1156 0 80.0802 11.2512 901 80.7669 1053.48 494.437
1157 0 83.0349 12.1033 1005 78.7801 1053.83 492.773
1158 0 86.1174 11.8443 1020 80.2745 1053.75 491.215
1159 0 89.1578 12.4162 1107 78.1274 1053.49 492.393
1160 0 89.0667 12.2268 1089 80.7264 1053.26 490.359
1161 1 46.0119 9.64968 444 81.286 1052.74 514.876
1162 0 48.0316 10.6805 513 80.3197 1053.37 514.051
1163 0 50.0364 10.7522 538 78.7658 1052.73 512.028
1164 0 52.0074 11.1138 578 77.6003 1053.11 511.635
1165 0 53.0286 11.1638 592 77.8514 1052.87 510.919
1166 0 57.0604 12.3553 705 75.6851 1053.54 509.55
1167 0 58.0913 11.6885 679 90.1252 1054.61 507.557
1168 0 62.0625 11.4079 708 90.3305 1054.92 507.02
1169 0 61.1257 11.1737 683 92.53 1053.54 505.543
1170 0 65.1298 11.8532 772 90.8394 1054.03 504.346
1171 0 67.1637 11.8814 798 91.1366 1053.84 504.812
1172 0 67.0716 11.5101 772 93.5324 1054.02 503.437
1173 0 71.1708 12.1258 863 91.438 1054.06 503.766
1174 0 73.175 12.3539 904 91.6781 1053.4 501.472
1175 0 74.162 12.203 905 94.0442 1053.47 500.221
1176 0 75.1639 12.1601 914 95.0908 1053.63 498.781
1177 0 80.1111 12.0707 967 95.0414 1054.1 498.786
1178 0 78.0903 11.7812 920 96.9391 1052.76 496.693
1179 0 80.0918 11.8864 952 97.6218 1053.35 494.418
1180 0 85.1195 12.0536 1026 97.2281 1053.85 494.447
1181 0 87.0908 11.8382 1031 98.9738 1054.28 493.946
1182 0 89.0751 12.2256 1089 96.8797 1054.26 495.135
1183 0 90.0875 12.3991 1117 97.923 1053.59 492.095
1184 0 94.1064 12.0608 1135 99.5137 1053.58 490.029
1185 0 98.1383 11.9933 1177 97.2031 1053.17 488.76
1186 0 98.108 12.3741 1214 96.8814 1054.23 485.061
1187 1 54.0269 11.1426 602 95.1047 1053.59 510.035
1188 0 54.1045 10.757 582 93.9313 1053.64 508.751
1189 0 57.0963 11.4193 652 93.7071 1053.43 508.819
1190 0 58.174 12.4798 726 91.6612 1053.7 507.68
1191 0 56.0935 11.0352 619 86.7981 1054.54 510.708
1192 0 59.1309 11.4661 678 85.6475 1054.5 508.827
1193 0 60.1375 11.2742 678 86.4307 1054.49 507.832
1194 0 62.1202 11.2524 699 86.2747 1054.72 505.9
1195 0 65.1319 11.2387 732 86.1954 1054.48 505.525
1196 0 67.1426 10.932 734 94.6458 1054.57 506.072
1197 0 70.1499 11.9316 837 86.8423 1055.06 503.24
1198 0 71.1081 11.9114 847 89.5537 1054.55 502.018
1199 0 72.1671 11.8336 854 92.9309 1054.44 501.745
1200 0 76.1307 12.2684 934 91.3426 1054.68 500.945
1201 0 78.2135 12.402 970 94.1134 1054.52 498.966
1202 0 80.1078 12.1586 974 96.4836 1054.8 497.948
1203 0 82.196 12.2512 1007 98.0308 1054.62 496.119
1204 0 87.1255 12.9813 1131 98.4014 1054.09 494.743
1205 0 88.1112 12.2232 1077 103.684 1053.81 493.745
1206 0 91.0952 12.2399 1115 103.772 1054.26 492.958
1207 0 94.0765 12.6386 1189 104.812 1054.8 491.236
1208 0 96.1518 12.5323 1205 107.887 1054.04 489.266
1209 0 98.1941 12.8215 1259 108.092 1054.74 488.342
1210 0 99.1781 11.9986 1190 110.216 1053.93 485.429
1211 0 103.201 12.7034 1311 106.452 1053.25 483.737
1212 0 106.149 12.6614 1344 104.304 1053.65 481.353
1213 0 110.171 12.9072 1422 103.497 1053.34 478.077
1214 0 113.211 12.4899 1414 105.979 1053.18 475.649
1215 0 115.095 11.8684 1366 107.086 1054.28 472.502
1216 0 117.221 12.1907 1429 107.269 1054.09 470.695
1217 0 124.153 12.0335 1494 106.971 1053.19 470.817
1218 0 124.123 12.5763 1561 105.778 1053.2 464.972
1219 0 129.172 12.3866 1600 104.699 1053.33 464.218
1220 0 133.087 12.7886 1702 103.203 1053.19 460.512
1221 0 139.167 12.8335 1786 103.702 1053.19 458.353
1222 0 142.212 12.7837 1818 104.651 1053.35 455.242
1223 0 147.111 12.46 1833 104.993 1053.71 455.254
1224 0 153.201 12.9046 1977 104.507 1054.1 452.1
1225 0 158.179 13.0738 2068 106.227 1054.28 448.378
1226 0 163.215 12.701 2073 107.138 1053.31 448.618
1227 0 168.258 13.2772 2234 106.094 1053.52 445.03
1228 0 173.229 13.2714 2299 106.397 1053.33 441.197
1229 0 178.256 13.3852 2386 106.206 1053.26 438.832
1230 0 183.212 13.0177 2385 105.677 1053.28 435.868
1231 0 189.245 13.4851 2552 104.704 1053.02 432.56
1232 0 196.127 13.5473 2657 105.061 1053.34 427.566
1233 0 201.247 13.4611 2709 104.389 1053.34 424.693
1234 0 207.213 12.6536 2622 107.608 1053.49 418.371
1235 0 214.229 12.2859 2632 108.06 1054.81 416.665
1236 0 222.312 12.415 2760 108.041 1053.71 415.424
1237 1 249.223 7.80023 1944 112.165 1053.49 427.654
1238 0 248.276 9.12695 2266 111.996 1053.88 417.803
1239 0 251.278 13.6582 3432 104.806 1053.38 403.487
1240 0 257.408 12.8706 3313 107.642 1054.34 400.661
1241 0 268.363 13.5637 3640 104.536 1053.91 394.901
1242 0 276.32 13.155 3635 107.391 1053.83 389.911
1243 1 220.307 12.6142 2779 106.94 1053.99 419.17
1244 0 229.25 12.9858 2977 103.879 1054.41 413.207
1245 0 236.208 13.0351 3079 104.174 1055.31 409.575
1246 0 247.285 13.8302 3420 102.599 1053.97 409.242
1247 0 253.231 13.0197 3297 106.207 1053.73 402.854
1248 0 263.247 13.7855 3629 104.694 1053.21 400.229
1249 0 269.274 12.66 3409 107.937 1053.3 393.851
1250 0 278.259 12.5135 3482 110.646 1054.06 390.93
1251 0 279.381 10.5769 2955 112.547 1054.36 408.105
1252 1 71.0497 11.1471 792 91.1667 1053.27 500.027
1253 0 72.1516 11.7392 847 90.5041 1055.93 500.933
1254 0 74.2037 11.5762 859 91.8556 1055.23 498.637
1255 0 77.11 12.0866 932 98.3036 1055.38 496.703
1256 0 81.0498 11.6472 944 97.0222 1055.1 494.209
1257 0 83.0341 11.5495 959 96.7091 1055.49 493.425
1258 0 87.1012 12.5371 1092 93.0229 1054.99 491.929
1259 0 89.0282 12.2995 1095 92.232 1053.98 486.479
1260 0 91.1133 12.3034 1121 93.0268 1053.98 487.93
1261 0 96.095 12.4044 1192 91.6619 1055.03 486.724
1262 0 94.2671 10.4172 982 82.7749 1054.92 487.699
1263 0 97.1933 10.2065 992 83.1885 1055.18 489.649
1264 1 52.0858 10.9819 572 86.5664 1055.45 509.341
1265 0 53.0741 10.6078 563 88.9734 1055.45 504.014
1266 0 56.0554 11.3102 634 89.6325 1056.71 504.762
1267 0 57.0406 11.3954 650 90.8354 1056.78 505.246
1268 0 60.0375 12.5255 752 86.4947 1056.78 505.67
1269 0 62.107 12.5268 778 87.2674 1056.04 504.603
1270 0 64.0859 12.5301 803 85.4894 1055.91 505.658
1271 0 65.0616 12.6957 826 84.7107 1055.69 503.844
1272 0 66.1297 12.8233 848 85.4316 1055.15 501.505
1273 0 67.1139 12.1584 816 87.2525 1055.15 501.271
1274 0 67.0972 12.3999 832 86.9916 1055.31 500.492
1275 0 70.0668 12.7307 892 85.6939 1056.11 500.237
1276 0 72.0782 12.3754 892 85.7601 1055.99 499.645
1277 0 75.1026 12.8091 962 84.8451 1055.47 498.069
1278 0 74.1236 12.3308 914 86.3031 1055.49 498.261
1279 0 78.1683 12.4731 975 86.4297 1055.46 495.827
1280 0 79.1167 12.7028 1005 85.3751 1055.24 497.577
1281 0 81.1984 12.8205 1041 87.708 1054.65 493.983
1282 0 84.1479 12.7514 1073 85.8527 1054.78 492.635
1283 0 85.1746 12.5037 1065 86.6075 1055.15 492.571
1284 1 46.1223 10.7974 498 85.0924 1056.02 511.271
1285 0 48.0801 11.0233 530 86.1208 1056.19 510.826
1286 0 48.0841 11.1263 535 89.7346 1055.59 510.716
1287 0 52.1998 12.2223 638 85.5282 1055.97 509.373
1288 0 51.114 11.9341 610 76.1016 1055.96 509.903
1289 0 53.1713 11.8109 628 75.414 1055.92 509.537
1290 0 53.2043 11.578 616 75.5779 1056.14 510.557
1291 0 55.1284 12.1172 668 74.4925 1056.2 509.802
1292 0 57.0489 12.6558 722 73.8837 1056.02 508.616
1293 0 57.1161 11.818 675 76.0074 1055.67 508.862
1294 0 60.0742 12.4346 747 74.6814 1055.11 505.77
1295 0 61.0557 12.5951 769 74.7009 1055.57 504.9
1296 0 63.0948 12.9646 818 74.7469 1055.61 504.841
1297 0 66.0982 12.5419 829 75.4922 1055.55 504.086
1298 0 66.0393 12.2503 809 77.33 1055.6 501.044
1299 0 68.08 12.7056 865 77.6913 1055.61 500.311
1300 0 70.104 13.4657 944 76.4057 1056.04 501.325
1301 0 71.1094 12.1503 864 80.6169 1056.02 500.196
1302 0 73.1005 12.6538 925 80.7146 1056.09 499.661
1303 0 77.0575 13.3407 1028 79.8755 1055.5 497.231
1304 0 79.1035 12.9704 1026 81.7027 1055.7 495.916
1305 0 81.1257 13.5839 1102 80.4746 1055.23 495.329
1306 0 82.1227 12.8101 1052 83.9211 1055.62 494.913
1307 0 84.0817 12.6544 1064 83.5771 1055.47 494.832
1308 0 86.118 13.0402 1123 83.8958 1054.53 493.284
1309 0 90.0735 12.9228 1164 84.0515 1054.49 491.655
1310 0 91.0949 12.734 1160 85.0733 1054.29 491.474
1311 0 93.0316 13.0923 1218 84.9409 1055.05 489.377
1312 0 93.0374 13.328 1240 89.4056 1054.86 489.099
1313 0 99.0632 13.3248 1320 83.2576 1055.22 486.892
1314 0 103.091 12.6491 1304 84.4862 1055.11 485.597
1315 0 105.079 13.133 1380 83.8725 1055 484.908
1316 1 59.1755 12.4038 734 96.8992 1055.13 508.614
1317 0 59.1149 12.9917 768 92.6146 1055.36 507.484
1318 0 61.0946 13.3236 814 88.769 1054.84 506.78
1319 0 63.1078 13.057 824 90.1299 1055.91 506.898
1320 0 64.0942 13.3865 858 90.5035 1055.91 504.692
1321 0 67.1144 13.693 919 89.6529 1055.68 504.543
1322 0 70.0959 13.5814 952 89.3078 1055.51 504.662
1323 0 72.0947 13.1494 948 92.3608 1055.6 502.056
1324 0 74.0672 13.5553 1004 92.5478 1055.98 501.095
1325 0 76.0911 13.957 1062 91.7119 1055.96 500.294
1326 0 78.0518 13.2732 1036 94.2133 1057.29 498.749
1327 0 81.0977 14.1311 1146 91.9546 1056.83 498.378
1328 0 84.1271 14.0264 1180 94.0254 1055.95 496.217
1329 0 85.0838 12.8932 1097 97.3318 1055.86 493.168
1330 0 88.1386 13.5468 1194 95.2102 1055.51 493.36
1331 0 89.0652 13.0691 1164 97.8522 1055.42 491.665
1332 0 92.0955 13.3448 1229 94.4996 1054.84 488.413
1333 0 92.0891 12.6725 1167 96.6332 1054.98 487.92
1334 1 51.0645 9.96778 509 98.2515 1055.37 509.289
1335 0 53.1642 11.4175 607 98.5008 1054.78 507.532
1336 0 52.0256 11.033 574 90.7091 1054.89 502.807
1337 0 52.1054 10.6707 556 92.0701 1054.19 502.275
1338 0 54.1572 10.3587 561 93.2406 1054.1 501.904
1339 0 54.1492 10.3972 563 96.3304 1053.89 499.115
1340 0 65.1196 10.6112 691 91.165 1054.52 501.779
1341 0 64.1046 11.3564 728 91.6662 1054.46 499.19
1342 0 65.125 11.6852 761 91.3982 1054.87 499.699
1343 0 68.195 11.2618 768 92.7018 1054.11 498.156
1344 0 70.0311 11.2236 786 88.084 1052.88 497.749
1345 0 71.0996 11.9832 852 88.6714 1053.05 498.092
1346 0 75.0437 11.953 897 89.9465 1052.59 495.475
1347 0 79.061 10.8777 860 90.807 1053.11 494.903
1348 0 79.0492 10.816 855 93.8433 1053.53 491.875
1349 0 81.0414 11.7101 949 91.6596 1053.9 491.817
1350 0 85.1045 11.151 949 92.726 1054.23 491.874
1351 0 87.0895 11.1839 974 90.9959 1054.7 489.293
1352 0 87.0771 10.5653 920 93.7739 1053.67 487.158
1353 0 90.0579 11.0818 998 93.1653 1053.94 488.764
1354 0 93.0678 11.4648 1067 92.1762 1053.23 488.19
1355 0 97.0781 11.1354 1081 93.0722 1053.9 486.377
1356 0 100.067 11.1125 1112 93.7239 1054.06 485.472
1357 0 103.045 12.4508 1283 92.0179 1053.35 485.296
1358 0 104.075 11.655 1213 94.8392 1053.41 483.359
1359 0 108.126 12.5409 1356 94.2507 1053.57 482.482
1360 0 112.075 11.8403 1327 95.1899 1053.58 483.217
1361 1 61.0225 10.111 617 88.953 1052.33 511.404
1362 0 63.016 10.9496 690 90.8145 1052.33 509.483
1363 0 63.0196 10.1238 638 86.605 1052.78 508.737
1364 0 64.0378 9.72863 623 84.4173 1054.2 507.079
1365 0 65.0665 10.6506 693 84.1674 1053.94 506.504
1366 0 70.0578 12.1186 849 89.861 1053.26 506.734
1367 0 72.0573 12.2125 880 90.442 1052.88 505.639
1368 0 73.0847 12.5608 918 92.5207 1054.64 503.015
1369 0 78.0491 13.0687 1020 88.8412 1054.4 503.302
1370 0 78.0921 12.6389 987 91.9726 1052.96 500.765
1371 0 83.0875 13.1548 1093 90.3422 1053.85 500.845
1372 0 82.1498 13.2441 1088 92.9963 1053.93 498.888
1373 0 86.1432 13.3266 1148 93.5958 1053.89 496.66
1374 0 88.1481 13.2391 1167 96.0403 1053.91 497.636
1375 0 90.3028 13.5322 1222 96.4034 1053.8 495.271
1376 0 94.2184 13.4581 1268 96.4574 1053.28 493.692
1377 0 96.1307 13.6169 1309 91.1658 1054.13 492.986
1378 0 98.0697 14.0818 1381 92.4555 1053.42 490.731
1379 0 97.0952 12.7092 1234 92.0178 1054.08 492.655
1380 0 97.0595 13.3835 1299 98.1424 1054.27 491.266
1381 0 100.112 13.385 1340 100.656 1054.02 491.579
1382 0 100.085 13.5186 1353 100.772 1054.27 491.644
1383 0 103.118 13.8385 1427 98.9839 1054.37 489.35
1384 0 107.069 13.7856 1476 96.3659 1053.4 487.61
1385 0 109.142 13.432 1466 95.075 1053.51 488.42
1386 0 112.197 13.5208 1517 93.3085 1052.88 486.757
1387 0 114.192 13.3635 1526 91.209 1053.27 484.197
1388 0 118.193 13.5964 1607 90.1294 1053.53 482.019
1389 0 122.124 13.9776 1707 87.5624 1053.31 481.955
1390 0 124.154 13.5396 1681 88.3641 1052.6 478.557
1391 0 127.217 13.1822 1677 88.5194 1051.84 477.483
1392 0 131.197 13.5445 1777 87.7608 1052.18 478.177
1393 0 135.279 13.7789 1864 89.9179 1053.16 473.858
1394 0 138.171 14.0623 1943 91.3021 1052.55 472.947
1395 0 141.19 14.3423 2025 92.7916 1052.82 472.132
1396 0 143.166 13.9978 2004 96.7839 1052.43 470.131
1397 0 144.25 12.8943 1860 98.2522 1053.14 470.532
1398 0 147.205 12.88 1896 101.281 1052.94 468.397
1399 0 152.212 13.4943 2054 100.264 1052.6 466.379
1400 0 154.255 12.6543 1952 103.051 1052.35 464.942
1401 0 157.161 12.6494 1988 104.911 1052.15 462.922
1402 0 162.256 12.7946 2076 106.892 1052.05 461.125
1403 0 166.242 12.969 2156 104.63 1052.29 457.573
1404 0 170.208 12.3848 2108 108.794 1052.18 455.074
1405 0 174.253 12.4417 2168 108.956 1052.04 450.276
1406 0 180.261 12.3099 2219 112.084 1052.22 450.095
1407 0 184.339 12.7591 2352 112.898 1052.6 448.829
1408 0 192.248 12.8636 2473 112.358 1052.05 444.48
1409 0 198.265 12.8969 2557 110.269 1051.53 442.435
1410 0 206.26 13.1291 2708 110.073 1052.14 435.392
1411 0 210.244 13.1799 2771 111.677 1051.27 429.342
1412 1 168.349 12.4741 2100 116.922 1052.65 452.466
1413 0 174.328 12.8723 2244 118.444 1052.46 450.086
1414 0 180.275 13.6292 2457 117.401 1052.41 446.214
1415 0 182.347 12.6791 2312 121.912 1052.15 440.149
1416 0 186.202 12.8731 2397 121.816 1052.21 438.639
1417 0 194.246 12.7879 2484 121.227 1053.03 435.751
1418 1 65.069 10.8808 708 109.157 1052.65 502.275
1419 0 65.0416 10.8238 704 108.878 1053.43 499.467
1420 0 71.073 12.4942 888 108.798 1053.05 502.732
1421 0 75.0513 12.9645 973 105.383 1053.32 500.385
1422 0 75.0713 12.3616 928 108.088 1053.54 498.6
1423 0 76.0303 11.5875 881 107.738 1053.24 494.237
1424 0 83.036 13.6086 1130 105.132 1053.59 499.033
1425 0 84.0754 13.3333 1121 106.737 1053.95 496.457
1426 0 87.0756 13.6548 1189 104.108 1053.64 494.927
1427 0 89.0787 13.3477 1189 105.1 1054.08 492.807
1428 0 92.1186 13.6997 1262 102.62 1054.12 491.872
1429 0 94.1068 13.7397 1293 102.845 1052.8 489.34
1430 0 95.0881 13.2719 1262 103.942 1053.03 489.094
1431 0 96.0634 12.2419 1176 106.804 1053.62 491.145
1432 0 100.155 12.221 1224 103.978 1053.48 488.448
1433 0 106.124 14.0213 1488 97.7265 1053.65 483.724
1434 0 110.229 14.2521 1571 96.972 1054.16 484.987
1435 0 112.168 14.086 1580 94.707 1053.76 480.346
1436 0 115.144 13.6959 1577 92.877 1054.06 477.036
1437 0 117.183 13.5685 1590 92.9566 1053.38 474.465
1438 1 65.0347 10.5944 689 92.4035 1053.37 502.292
1439 0 65.1815 11.1688 728 93.603 1053.78 499.945
1440 0 69.0891 11.0003 760 93.8211 1054.82 499.768
1441 0 74.0378 10.7243 794 94.8098 1054.41 495.804
1442 0 74.1131 11.0777 821 94.9939 1053.8 494.581
1443 0 78.0773 12.0393 940 91.9574 1054.58 495.745
1444 0 80.0616 11.6785 935 94.5294 1054.6 495.128
1445 0 82.1176 11.8245 971 95.7333 1054.01 491.924
1446 0 85.0562 12.3213 1048 96.5668 1054.66 491.294
1447 0 88.0579 12.435 1095 95.7279 1054.13 493.107
1448 0 93.172 13.0833 1219 99.6128 1053.96 491.111
1449 0 95.083 12.9676 1233 100.594 1052.97 489.185
1450 0 98.0941 12.2433 1201 99.3905 1053.57 487.114
1451 0 99.1423 12.1341 1203 100.818 1052.78 482.766
1452 0 103.125 12.1115 1249 100.773 1052.41 483.671
1453 1 56.025 10.9237 612 94.5 1053.16 506.593
1454 0 58.1282 11.6295 676 99.9453 1053.32 505.598
1455 0 61.084 12.6383 772 96.7254 1052.98 505.648
1456 0 63.094 13.0282 822 96.7433 1053.37 504.197
1457 0 66.0524 13.8981 918 93.2484 1053.87 504.971
1458 0 66.0833 13.2409 875 96.208 1053.92 503.379
1459 0 69.1307 13.366 924 95.6699 1053.06 503.859
1460 0 70.0507 13.476 944 96.0784 1053.06 502.033
1461 0 73.0596 13.2221 966 96.7743 1053.22 501.917
1462 0 75.0468 13.5649 1018 96.3674 1053.44 499.272
1463 0 77.0383 13.2921 1024 97.2627 1053.78 498.977
1464 0 79.0498 13.7761 1089 96.6814 1052.89 499.028
1465 0 81.0425 13.8199 1120 97.0071 1053.36 496.548
1466 0 83.0566 14.0025 1163 96.3027 1053.62 494.617
1467 0 88.0516 14.0486 1237 100.944 1052.98 491.963
1468 0 89.0496 13.5767 1209 101.758 1052.9 491.226
1469 0 92.1052 13.3869 1233 102.257 1053.38 490.343
1470 0 97.0835 13.6377 1324 100.16 1053.1 488.91
1471 0 100.084 13.9883 1400 98.2357 1052.61 487.053
1472 0 103.059 13.992 1442 99.4632 1053.1 483.366
1473 0 106.101 13.4118 1423 100.959 1052.86 481.424
1474 1 59.0214 12.0634 712 94.4466 1053.38 506.532
1475 0 59.0828 11.7632 695 92.5007 1053.91 504.675
1476 0 61.1303 12.4815 763 93.6356 1054.51 502.252
1477 0 62.1057 12.9135 802 99.1334 1052.71 503.571
1478 0 63.04 12.2145 770 101.097 1053.35 500.981
1479 0 66.1422 12.1405 803 100.885 1053.17 500.44
1480 0 68.1793 12.5551 856 99.5596 1053.44 499.221
1481 0 68.1646 12.1764 830 101.713 1053.11 496.48
1482 0 70.1767 12.7108 892 99.2332 1052.79 495.129
1483 0 71.1541 11.5805 824 100.175 1053.12 494.085
1484 0 76.0945 12.6422 962 95.7141 1053.55 493.502
1485 0 74.0713 11.5564 856 98.0678 1053.24 491.716
1486 0 78.0728 11.707 914 91.2035 1052.93 490.534
1487 0 82.0787 11.5864 951 90.2292 1052.96 489.814
1488 0 85.0176 12.1387 1032 90.2519 1053.16 489.413
1489 0 88.1147 12.9377 1140 88.9447 1053.55 489.846
1490 0 90.0833 12.4218 1119 91.6479 1053.77 488.038
1491 0 92.1326 12.9162 1190 90.5496 1053.78 488.891
1492 0 96.0892 13.1128 1260 91.2127 1053.45 484.587
1493 0 99.1002 12.9768 1286 91.9393 1053.77 483.463
1494 0 102.101 12.8206 1309 92.7479 1054.12 481.289
1495 0 106.193 12.7598 1355 91.8598 1053.56 481.285
1496 0 109.169 12.9891 1418 91.83 1053.61 479.207
1497 1 58.0761 10.7101 622 93.5402 1053.99 504.952
1498 0 60.0858 11.3338 681 95.5536 1054.45 502.93
1499 0 60.0499 10.4913 630 98.273 1054.62 497.592
1500 0 61.0477 11.3354 692 89.724 1053.51 493.764
1501 0 70.1052 13.1945 925 91.3751 1053.8 498.591
1502 0 70.0451 13.063 915 93.5858 1053.76 496.706
1503 0 70.073 12.3443 865 88.0867 1053.38 497.316
1504 0 73.1211 11.9528 874 88.7162 1053.85 497.865
1505 0 76.1121 11.9955 913 89.9277 1054.49 495.958
1506 0 78.0947 12.3952 968 88.7707 1053.96 495.727
1507 0 82.0887 12.9494 1063 88.2023 1053.53 495.924
1508 0 83.1376 12.0403 1001 90.2607 1053.77 493.391
1509 0 88.2228 12.9218 1140 87.5605 1053.57 491.796
1510 0 88.1087 12.4732 1099 88.7789 1054.03 491.947
1511 0 91.1364 11.9711 1091 91.0275 1053.54 489.82
1512 0 94.1282 12.1643 1145 90.7127 1053.19 487.849
1513 0 98.1629 12.6524 1242 90.0709 1053.05 486.196
1514 0 99.0386 11.4905 1138 93.3005 1053.67 485.059
1515 0 102.121 12.3872 1265 92.8743 1053.91 482.737
1516 0 106.276 12.0065 1276 92.0024 1054.22 482.251
1517 0 108.137 11.5224 1246 94.3981 1053.71 479.701
1518 1 59.0917 11.0506 653 94.4992 1053.33 502.084
1519 0 61.1239 11.5012 703 93.5861 1053.3 501.543
1520 0 63.1312 11.9434 754 93.2905 1053.49 499.524
1521 0 62.1151 10.4805 651 89.2488 1054.55 502.289
1522 0 64.0396 11.3524 727 87.6231 1053.77 501.459
1523 0 66.1056 10.8009 714 89.5854 1053.96 498.353
1524 0 67.1082 10.8631 729 89.6145 1054.37 496.776
1525 0 67.1035 11.1321 747 119.123 1054.41 496.91
1526 0 72.0748 10.9747 791 89.0784 1053.93 493.547
1527 0 75.1042 10.1725 764 89.3259 1054.51 494.114
1528 0 80.0609 11.3289 907 86.3032 1053.74 491.982
1529 0 80.0836 11.0884 888 87.08 1054.17 491.731
1530 0 83.1322 9.97207 829 88.1399 1053.93 491.047
1531 0 86.1329 10.716 923 87.4085 1054.1 487.828
1532 1 47.0427 10.4586 492 88.8923 1054.11 505.484
1533 0 47.0937 11.2117 528 87.4167 1054.47 504.523
1534 0 51.1898 11.4671 587 87.2538 1055 503.14
1535 0 49.0849 11.2254 551 88.5372 1053.52 504.791
1536 0 50.1874 10.6999 537 91.3501 1054.55 505.434
1537 0 51.1526 11.7492 601 88.9517 1054.4 503.604
1538 0 50.0499 10.4696 524 91.1985 1053.34 501.632
1539 0 52.0656 10.8133 563 91.325 1053.85 501.659
1540 0 55.0424 11.3549 625 89.3488 1054.17 501.294
1541 0 55.1091 11.5952 639 90.0626 1053.6 499.529
1542 0 57.0907 11.3153 646 91.1053 1053.75 498.415
1543 0 58.093 10.7758 626 93.6294 1054.52 496.343
1544 0 59.0708 11.0545 653 94.562 1054.04 496.271
1545 0 61.0682 11.7082 715 91.6308 1053.8 494.603
1546 0 63.1738 11.3496 717 93.7699 1053.61 491.597
1547 0 66.1668 12.0755 799 93.2603 1054.04 490.482
1548 0 67.0581 11.915 799 96.5207 1054.47 488.035
1549 0 73.2235 12.1273 888 94.3604 1053.95 489.057
1550 0 75.1797 12.7428 958 93.5303 1053.93 486.223
1551 0 78.31 12.3739 969 94.6729 1054.09 485.486
1552 0 77.1715 12.0252 928 97.57 1054.18 483.263
1553 0 82.1444 12.2711 1008 95.9494 1053.85 482.587
1554 0 83.1628 12.4575 1036 94.9556 1053.6 481.325
1555 0 87.1313 12.5672 1095 94.9178 1053.57 479.299
1556 0 90.1089 12.6403 1139 94.2924 1053.76 478.054
1557 0 91.2223 11.9817 1093 96.3669 1053.68 476.596
1558 1 45.0282 10.1048 455 100.092 1054.27 497.11
1559 0 51.0215 9.62339 491 100.511 1054.42 495.191
1560 0 59.1163 11.5535 683 96.9034 1053.58 501.384
1561 0 60.0343 12.4096 745 97.3195 1053.67 501.972
1562 0 62.1236 12.9098 802 97.3217 1054.5 502.69
1563 0 64.116 13.1948 846 96.4846 1054.95 501.453
1564 0 67.1065 12.9943 872 95.6674 1054.1 500.702
1565 0 66.1122 12.7662 844 97.0687 1053.89 496.872
1566 0 70.057 13.0893 917 95.3162 1053.4 495.687
1567 0 73.1612 13.4634 985 93.8822 1052.77 494.907
1568 0 72.1406 13.0717 943 96.492 1053.54 493.696
1569 0 74.1344 12.6662 939 97.3706 1052.99 493.515
1570 0 73.1165 11.9535 874 96.9565 1053.43 487.027
1571 0 74.1884 11.4978 853 97.075 1053.25 485.823
1572 0 73.0441 11.8969 869 95.8677 1053.9 483.971
1573 0 78.0491 12.095 944 93.7193 1053.31 483.614
1574 0 77.1047 11.8929 917 94.9444 1053.38 481.458
1575 0 77.0921 11.9857 924 94.566 1053.76 478.847
1576 0 74.1084 11.6451 863 96.2572 1053.88 474.225
1577 0 78.092 12.6261 986 92.6318 1053.36 474.678
1578 0 78.1526 11.5927 906 95.8079 1053.48 471.498
1579 0 80.1153 12.1575 974 93.4754 1053.45 469.736
1580 0 86.0968 12.1491 1046 92.3709 1053.09 467.998
1581 0 87.1044 10.7802 939 95.0586 1053.53 466.315
1582 0 91.1708 10.2335 933 95.1768 1053.7 463.522
1583 0 96.092 10.7917 1037 94.1842 1052.93 464.024
1584 0 101.046 10.5298 1064 94.0893 1053.36 462.883
1585 1 64.063 10.3024 660 80.7409 1054.63 498.308
1586 0 65.0497 9.53117 620 80.4129 1053.38 497.524
1587 0 69.0482 10.413 719 77.5035 1053.69 497.661
1588 0 71.088 10.5222 748 76.9131 1053.5 496.967
1589 0 75.0669 11.4431 859 74.5925 1053.04 495.304
1590 0 76.0344 11.0871 843 75.9359 1053.59 493.251
1591 0 81.0336 11.4397 927 74.4455 1053.44 492.908
1592 0 81.0369 11.4516 928 75.8685 1052.79 492.625
1593 0 85.0724 10.8848 926 76.8844 1053.2 491.043
1594 0 88.1457 11.5831 1021 75.3692 1052.85 489.773
1595 0 92.0401 12.2121 1124 74.742 1053.09 489.02
1596 0 95.0909 12.4512 1184 74.6943 1053.14 487.784
1597 0 99.1804 12.0286 1193 87.8315 1052.97 484.41
1598 0 101.164 11.3578 1149 89.5535 1052.63 481.125
1599 0 103.146 11.2268 1158 90.6468 1052.82 481.614
1600 1 59.0479 10.3137 609 82.3333 1052.99 503.718
1601 0 61.0473 10.9915 671 80.1595 1053.25 501.677
1602 0 63.1002 11.9968 757 77.9524 1054.03 501.931
1603 0 65.0244 12.2262 795 78.2289 1054.28 501.45
1604 0 66.071 12.2898 812 80.0308 1053.27 500.192
1605 0 67.0694 12.3007 825 79.9261 1053.57 500.575
1606 0 70.0476 12.3059 862 80.3364 1053.28 498.985
1607 0 72.0902 12.3873 893 79.7346 1053.18 496.776
1608 0 74.1293 12.5052 927 79.4315 1053.65 495.243
1609 0 77.0424 12.0583 929 80.0301 1053.65 495.931
1610 0 79.1512 12.2298 968 80.0527 1053.27 493.867
1611 0 80.074 12.476 999 80.5816 1053.48 492.213
1612 0 82.1956 11.9714 984 82.7541 1053.64 491.961
1613 0 85.2184 12.3682 1054 83.1053 1053.75 490.13
1614 0 86.188 12.5308 1080 85.0963 1053.98 487.157
1615 0 89.2331 11.5204 1028 95.1304 1053 485.285
1616 0 93.2304 11.552 1077 95.013 1053.64 483.259
1617 0 96.1598 12.1048 1164 94.0361 1052.98 481.945
1618 0 99.2598 11.8981 1181 94.9915 1053.3 480.313
1619 0 100.207 11.5261 1155 94.5939 1053.23 478.932
1620 0 103.209 11.0455 1140 98.3 1053.72 478.851
1621 0 106.206 11.6377 1236 95.3811 1053.09 479.41
1622 1 60.0875 10.1685 611 96.4124 1053.02 500.09
1623 0 63.0741 10.5273 664 97.872 1052.59 498.37
1624 0 67.1435 11.2744 757 94.4174 1051.58 497.703
1625 0 67.0442 10.4707 702 89.5926 1053.64 497.134
1626 0 71.0486 11.3725 808 85.2302 1053.25 496.929
1627 0 73.0881 10.8636 794 85.6549 1053.18 495.7
1628 0 72.0394 11.3965 821 85.6492 1054 495.043
1629 0 78.1351 11.3009 883 85.0713 1054.02 491.354
1630 0 81.0796 11.6799 947 84.9493 1054.24 492.53
1631 0 83.0842 11.4221 949 83.9684 1053.1 491.005
1632 0 86.2047 11.5423 995 83.7276 1052.98 488.307
1633 0 89.1702 11.1584 995 84.3709 1052.52 487.874
1634 0 89.223 11.6562 1040 84.2635 1052.55 487.737
1635 0 91.1479 11.3991 1039 86.8874 1052.7 485.884
1636 0 92.1191 11.1377 1026 89.3441 1052.36 485.843
1637 0 94.1225 10.3482 974 92.3645 1053.02 486.762
1638 0 99.2364 11.1753 1109 91.6501 1052.79 485.11
1639 0 100.303 10.3686 1040 96.5048 1052.47 483.546
1640 0 107.117 12.2576 1313 92.0396 1052.97 483.152
1641 0 109.136 11.0229 1203 94.8537 1053.1 483.332
1642 0 112.117 12.0231 1348 93.0809 1053.27 480.406
1643 0 115.089 12.2688 1412 93.6799 1053.53 478.302
1644 0 119.229 11.9518 1425 94.9298 1053.01 475.956
1645 1 68.1495 11.4454 780 95.5449 1053.48 499.995
1646 0 70.2131 12.2627 861 94.4297 1053.31 500.217
1647 0 71.1117 12.6421 899 93.0501 1053.36 499.19
1648 0 71.2079 12.5127 891 96.5208 1053.55 497.857
1649 0 74.14 13.2182 980 100.636 1053.67 495.908
1650 0 77.17 12.5178 966 102.819 1053.5 494.33
1651 0 78.1676 13.5734 1061 101.015 1053.2 493.553
1652 0 82.1179 13.5659 1114 99.2774 1053.12 491.259
1653 0 85.0565 12.9561 1102 100.332 1053.51 491.721
1654 0 85.0932 12.1161 1031 92.3424 1053.32 493.638
1655 0 85.0837 11.7296 998 93.9018 1053.49 491.703
1656 0 88.1322 12.5834 1109 92.1975 1053.17 490.329
1657 0 91.1901 12.7865 1166 93.1467 1053.28 488.237
1658 0 93.1843 12.3519 1151 96.1034 1053.22 486.26
1659 0 95.1553 12.5059 1190 92.2471 1052.98 486.631
1660 0 97.1171 12.2224 1187 93.5038 1053.63 484.404
1661 0 100.113 12.7856 1280 92.8734 1053.57 483.129
1662 0 102.186 11.7726 1203 95.1322 1054.04 481.162
1663 0 106.142 12.7565 1354 94.5672 1053.41 474.897
1664 0 109.14 12.1587 1327 95.9721 1053.07 473.966
1665 0 113.176 13.0769 1480 95.1716 1054.24 472.598
1666 0 115.116 13.1606 1515 95.6746 1053.54 471.597
1667 0 119.104 13.0726 1557 94.4104 1053.05 469.586
1668 0 121.129 12.4825 1512 96.6766 1052.88 466.774
1669 0 126.14 13.1441 1658 94.0386 1052.92 465.069
1670 0 130.116 12.7502 1659 95.2978 1053.24 463.377
1671 0 134.112 13.1979 1770 93.2322 1052.73 462.502
1672 0 139.118 13.2765 1847 93.1483 1052.35 460.278
1673 0 142.071 13.7326 1951 92.3121 1052.57 457.543
1674 0 146.116 13.7562 2010 92.3746 1052.04 455.623
1675 0 150.142 13.807 2073 92.7969 1051.91 454.484
1676 0 154.072 13.5067 2081 93.7708 1052.24 450.632
1677 0 158.131 13.7924 2181 93.5218 1052.57 451.003
1678 0 165.22 14.744 2436 90.2512 1052.47 448.788
1679 0 169.281 14.2012 2404 92.2991 1051.79 446.15
1680 0 172.172 14.0499 2419 92.5358 1051.27 444.434
1681 0 175.178 13.3521 2339 94.1398 1051.83 444.445
1682 0 182.236 13.735 2503 93.0815 1051.24 439.744
1683 0 189.217 14.5072 2745 93.2299 1051.65 436.643
1684 1 138.172 12.4193 1716 96.6381 1052.05 458.932
1685 0 142.146 12.2691 1744 96.7454 1051.63 456.619
1686 0 147.076 13.5644 1995 93.8917 1052.1 453.653
1687 0 151.097 13.7329 2075 93.3812 1052.57 452.469
1688 0 154.196 13.645 2104 94.3241 1052.78 446.777
1689 0 161.245 13.8857 2239 93.2282 1052.78 445.69
1690 0 165.185 13.9964 2312 93.7976 1052.55 443.522
1691 0 170.291 13.565 2310 95.2649 1052 439.348
1692 0 174.242 13.6362 2376 95.7618 1052.32 434.672
1693 0 181.317 13.7053 2485 95.897 1052.57 432.034
1694 0 186.29 13.5273 2520 96.9258 1052.01 429.088
1695 0 195.376 13.5789 2653 96.8794 1052.12 425.806
1696 0 202.383 14.0328 2840 97.1092 1052.39 423.134
1697 0 207.293 13.7969 2860 98.5521 1052.58 421.177
1698 0 216.343 14.2782 3089 97.4361 1051.83 416.656
1699 1 158.283 11.7764 1864 98.1663 1052.22 447.141
1700 0 161.345 12.1541 1961 98.716 1051.89 445.616
1701 0 166.257 13.3649 2222 97.1035 1052.84 442.174
1702 0 172.263 13.4968 2325 97.2546 1052.7 437.067
1703 0 175.247 13.6664 2395 98.0434 1052.73 432.882
1704 0 179.259 13.0482 2339 99.87 1052.97 431.487
1705 0 183.336 13.418 2460 101.013 1052.98 428.359
1706 0 190.411 13.224 2518 100.419 1052.97 425.405
1707 0 200.375 13.3849 2682 100.07 1052.87 422.114
1708 0 205.352 13.7666 2827 99.8992 1052.22 416.531
1709 0 212.402 13.7664 2924 101.034 1052.16 413.237
1710 0 221.403 14.101 3122 99.9452 1052.03 409.86
1711 0 228.35 13.4443 3070 102.562 1052.31 406.727
1712 0 233.41 13.6455 3185 103.627 1052.08 399.553
1713 0 239.382 14.0946 3374 101.247 1051.82 399.727
1714 0 246.299 13.1507 3239 107.354 1052.52 394.238
1715 0 253.242 13.493 3417 107.524 1052.64 385.783
1716 0 260.221 13.2618 3451 108.71 1052.44 381.875
1717 1 78.119 7.7446 605 88.5785 1053.2 477.14
1718 0 86.1778 9.37596 808 89.7809 1053.18 479.092
1719 0 92.0566 9.87435 909 93.1859 1052.32 480.572
1720 0 93.093 10.8171 1007 93.5144 1051.85 481.42
1721 0 95.1632 9.73065 926 94.2484 1052.92 479.491
1722 0 100.21 10.2984 1032 92.5862 1053.08 479.787
1723 0 104.104 10.9602 1141 90.9956 1053.13 478.781
1724 0 99.0828 8.39702 832 88.0349 1053.74 480.405
1725 0 103.126 9.13443 942 87.8079 1053.67 477.03
1726 0 108.175 9.78043 1058 86.4565 1052.97 477.512
1727 0 109.2 8.33332 910 89.0945 1053.11 472.808
1728 0 114.191 9.14261 1044 91.433 1052.87 471.94
1729 0 117.142 9.36468 1097 89.9553 1053.29 473.09
1730 0 119.149 9.28253 1106 92.6302 1052.66 467.11
1731 0 124.235 10.464 1300 91.6477 1052.79 466.94
1732 0 130.069 10.4868 1364 91.0975 1052.56 465.467
1733 0 133.174 10.8805 1449 91.4382 1052.9 461.545
1734 0 136.149 10.7162 1459 93.6607 1052.56 457.584
1735 0 139.247 10.6932 1489 95.2257 1052.44 457.302
1736 0 145.124 10.8735 1578 95.7991 1053.01 456.838
1737 0 148.266 11.0612 1640 96.9073 1052.87 454.124
1738 0 152.178 11.9925 1825 97.3825 1052.46 452.083
1739 0 157.119 11.3736 1787 100.841 1053.08 450.271
1740 0 160.262 11.5498 1851 101.668 1053.27 446.823
1741 0 164.264 11.5302 1894 102.474 1053.71 443.341
1742 0 170.334 11.7299 1998 103.876 1053.5 443.271
1743 0 174.229 12.0933 2107 103.295 1053.3 441.535
1744 0 182.354 14.927 2722 98.6525 1053.13 432.731
1745 0 183.338 12.6488 2319 102.819 1052.17 424.922
1746 0 188.219 11.8745 2235 106 1052.41 431.49
1747 0 193.324 11.5712 2237 110.013 1052.61 426.928
1748 0 194.225 10.7916 2096 115.444 1053.5 428.776
1749 0 203.289 12.0223 2444 110.487 1053.16 424.73
1750 0 204.603 13.3429 2730 112.174 1052.46 427.144
1751 0 206.392 12.641 2609 115.877 1052.03 427.185
1752 0 227.476 11.8914 2705 115.733 1052.49 427.034
1753 0 217.476 13.0037 2828 112.942 1052.35 424.137
1754 0 223.479 13.8536 3096 110.92 1051.77 423.238
1755 0 228.41 16.8819 3856 101.915 1052.22 411.434
1756 0 233.649 15.2622 3566 108.29 1052.53 414.544
1757 0 233.584 15.5747 3638 105.737 1052.84 414.782
1758 0 239.519 15.5562 3726 104.754 1052.02 414.032
1759 0 244.622 15.3543 3756 106.327 1052.11 409.347
1760 0 252.513 15.7537 3978 105.336 1052.25 408.048
1761 0 250.512 14.9254 3739 167.592 1052.12 404.67
1762 0 264.35 15.9145 4207 107.345 1052.7 398.438
1763 0 271.386 16.1578 4385 106.706 1052.59 395.482
1764 0 278.224 15.9045 4425 107.872 1052.64 389.648
1765 0 284.548 16.1343 4591 109.125 1052.85 389.191
1766 0 291.561 16.031 4674 111.408 1052.95 388.842
1767 0 298.605 16.567 4947 113.527 1052.61 384.443
