time division length width area intensity CMx CMy
0 0 65.0532 14.1576 921 113.268 1362.62 492.357
1 0 65.0715 14.4456 940 112.654 1363.03 492.338
2 0 69.0336 14.3264 989 111.287 1362.83 491.382
3 0 71.0627 14.0861 1001 111.078 1362.54 490.944
4 0 74.0343 14.4257 1068 107.418 1362.92 490.713
5 0 74.1252 14.1652 1050 107.338 1362.81 489.685
6 0 77.1278 14.0416 1083 106.847 1362.64 488.397
7 0 79.0917 14.8182 1172 104.297 1362.93 487.841
8 0 80.1058 14.2062 1138 104.776 1363.13 487.66
9 0 85.2003 14.0492 1197 104.235 1362.83 485.479
10 0 88.1928 14.559 1284 101.955 1361.71 481.729
11 0 92.282 14.4557 1334 99.8014 1362.62 480.103
12 0 96.2308 13.2598 1276 98.6936 1362.19 475.317
13 1 44.0183 11.3816 501 92.6327 1361.52 501.03
14 0 47.0373 12.1393 571 92.8914 1362.25 499.734
15 0 49.1648 13.5463 666 98.3994 1361.82 500.162
16 0 49.034 13.0318 639 90.2598 1362.4 503.844
17 0 50.0321 12.6719 634 90.8123 1361.91 500.786
18 0 52.0694 13.0211 678 88.4159 1362.28 502.22
19 0 53.0578 13.702 727 86.3205 1361.52 498.893
20 0 55.0138 13.1785 725 87.7959 1361.14 496.974
21 0 57.046 12.8843 735 87.8898 1360.39 497.273
22 0 60.0833 12.8988 775 86.6568 1361.26 495.987
23 0 63.1031 14.0247 885 84.3684 1360.86 494.853
24 0 64.0805 13.9044 891 85.6577 1360.89 495.276
25 0 67.0472 13.9454 935 85.215 1361.14 495.201
26 0 68.0517 13.7689 937 86.841 1360.94 492.957
27 0 71.0596 13.0595 928 87.2511 1360.78 492.681
28 0 74.0583 13.9485 1033 85.8877 1361.04 492.626
29 0 79.0674 14.4687 1144 84.0018 1360.39 492.775
30 0 80.0935 14.2583 1142 85.5806 1360.94 491.644
31 0 81.1416 14.5671 1182 86.7944 1360.77 490.81
32 0 85.0887 14.7376 1254 86.2225 1360.01 490.501
33 0 85.0444 14.0868 1198 89.7195 1360.23 488.052
34 0 90.0411 15.3041 1378 85.9949 1360.19 487.876
35 0 91.2083 15.196 1386 88.9408 1360.59 484.936
36 0 93.1384 14.9133 1389 93.7408 1359.64 482.77
37 0 97.1219 15.5372 1509 93.6296 1360.13 479.466
38 0 100.148 15.7467 1577 93.064 1359.82 479.486
39 0 103.163 15.4512 1594 94.2409 1360.28 477.312
40 0 106.107 15.4279 1637 94.5015 1360.2 476.687
41 0 110.184 14.9478 1647 94.952 1359.75 474.029
42 0 114.18 15.353 1753 92.8043 1359.84 471.949
43 0 118.149 15.4805 1829 91.4593 1359.34 469.517
44 0 120.105 15.4448 1855 91.5553 1359.34 470.036
45 0 126.126 15.8651 2001 89.9815 1359.37 466.002
46 0 130.293 15.8106 2060 89.7194 1359.18 464.66
47 0 135.132 15.3406 2073 90.4988 1359.26 462.475
48 0 140.194 15.771 2211 90.5513 1359.64 460.873
49 0 142.083 15.0897 2144 94.2309 1359.95 457.536
50 0 149.165 15.0102 2239 95.2818 1359.42 455.093
51 0 154.157 16.3535 2521 93.5014 1359.94 454.744
52 0 152.158 15.6285 2378 181.264 1360.9 453.021
53 1 164.219 15.4672 2540 98.5823 1359.59 449.16
54 0 170.193 15.6704 2667 98.3592 1359.49 445.015
55 0 176.192 15.4548 2723 98.2093 1360.09 441.469
56 0 183.229 15.6417 2866 97.7558 1360.04 439.279
57 1 93.088 13.8149 1286 98.4075 1360.07 480.637
58 0 96.0558 14.0335 1348 98.6002 1360.42 477.701
59 0 99.0667 14.4246 1429 96.6536 1360.35 476.686
60 0 103.038 14.8392 1529 94.6828 1359.48 474.761
61 0 108.078 14.9429 1615 94.0762 1359.72 472.616
62 0 111.083 14.5116 1612 95.3741 1360.37 471.341
63 0 115.128 14.9051 1716 94.4825 1359.8 469.04
64 0 119.252 14.8257 1768 94.2873 1360.2 468.42
65 0 120.129 15.3335 1842 92.5418 1359.86 467.652
66 0 126.095 14.9807 1889 91.8031 1359.87 464.721
67 0 129.147 14.7583 1906 92.5719 1359.46 463.633
68 0 136.249 15.1267 2061 90.1106 1358.94 461.579
69 0 136.249 15.1194 2060 171.877 1358.95 461.466
70 0 145.135 15.6131 2266 88.3469 1359.62 456.146
71 0 150.121 14.9679 2247 90.219 1359.61 453.105
72 0 155.139 14.9865 2325 89.0856 1359.23 450.545
73 0 161.184 14.7595 2379 89.6124 1359.44 445.987
74 1 83.1608 11.592 964 87.4461 1359.55 486.104
75 0 84.1194 11.6739 982 84.2362 1359.71 478.929
76 0 87.063 12.646 1101 77.02 1359.58 481.809
77 0 91.0708 12.913 1176 80.3418 1358.8 482.627
78 0 94.0779 12.9042 1214 80.8237 1359.4 482.234
79 0 98.1621 13.3351 1309 81.1436 1358.65 480.042
80 0 101.124 13.5773 1373 81.9905 1359.8 478.618
81 0 102.093 12.1458 1240 85.6677 1360.2 476.186
82 0 108.176 12.8494 1390 82.7209 1360.03 475.487
83 0 110.126 12.867 1417 85.0593 1359.88 472.236
84 0 114.212 13.3174 1521 84.5122 1360.09 470.044
85 1 62.0412 11.3312 703 76.7397 1360.13 498.639
86 0 65.086 11.7998 768 75.0651 1359.53 498.202
87 0 67.0883 12.3121 826 71.8656 1360.43 495.805
88 0 66.1288 11.2205 742 73.0323 1360.17 495.78
89 0 69.1336 11.7309 811 71.8237 1359.57 493.402
90 0 74.2172 12.7194 944 70.2087 1359.71 491.834
91 0 75.0971 12.9832 975 70.7918 1359.56 489.35
92 0 79.066 12.635 999 72.0551 1359.7 488.971
93 0 80.1905 12.3581 991 74.0525 1359.19 486.802
94 0 83.1039 12.6949 1055 76.6408 1359.91 484.773
95 0 86.1205 12.5754 1083 80.2733 1358.87 482.902
96 0 90.2645 13.4494 1214 78.7463 1359.23 482.595
97 0 92.0867 12.8466 1183 81.246 1358.29 482.404
98 0 95.2112 13.0132 1239 81.435 1359.2 481.038
99 0 97.2797 12.9318 1258 83.4285 1358.67 478.833
100 0 101.375 12.3107 1248 84.2476 1359.08 478.049
101 0 105.235 13.37 1407 83.8884 1359.4 475.302
102 0 109.233 12.6885 1386 85.5166 1358.6 473.83
103 1 56.1959 11.104 624 76.5128 1359.09 502.415
104 0 57.0891 11.0003 628 73.8137 1359.3 501.791
105 0 60.0357 11.3599 682 71.3651 1359.39 498.045
106 0 60.0227 10.9459 657 72.6621 1359.6 497.641
107 0 62.0759 11.2604 699 71.9943 1359.65 498.112
108 0 63.0418 11.8175 745 70.9423 1359.82 497.019
109 0 67.0538 11.6026 778 70.6452 1359.61 494.693
110 0 69.0631 11.2795 779 70.656 1359.62 494.456
111 0 69.0631 11.3085 781 121.497 1359.62 494.54
112 0 74.1809 11.3102 839 71.4279 1359.57 490.379
113 0 77.1742 11.4546 884 71.0792 1359.71 489.494
114 0 80.1274 11.6689 935 71.9583 1359.73 488.355
115 0 82.1063 11.4729 942 72.8482 1359.71 487.72
116 0 84.1408 12.3365 1038 72.3709 1359.92 485.362
117 0 89.1205 11.8716 1058 71.242 1359.49 483.845
118 0 91.272 11.778 1075 74.4698 1359.61 482.304
119 0 94.1515 11.354 1069 75.2965 1360.35 481.06
120 0 99.1234 11.5916 1149 77.7232 1359.42 479.022
121 0 100.232 11.8425 1187 77.5038 1359.1 478.159
122 1 50.0095 10.2181 511 71.5362 1360.04 503.521
123 0 53.0386 11.3125 600 71.0517 1360.11 501.138
124 0 54.0339 11.4558 619 72.2423 1360.68 502.257
125 0 57.0434 11.8857 678 72.174 1360.46 500.603
126 0 55.0959 10.999 606 77.83 1358.89 502.894
127 0 57.1325 11.6571 666 79.1396 1358.67 501.339
128 0 60.0896 12.1652 731 77.3707 1359.04 501.561
129 0 60.0944 11.6983 703 78.4993 1358.43 501.747
130 0 63.0714 11.7962 744 79.2984 1358.25 498.306
131 0 65.154 12.033 784 76.5306 1358.11 497.948
132 0 66.1257 11.7806 779 77.3774 1358.3 495.747
133 0 71.1068 12.6711 901 73.1931 1358.53 494.553
134 0 72.1295 12.5746 907 75.1246 1358.9 494.169
135 0 73.0887 13.5041 987 72.1824 1358.87 492.886
136 0 77.1116 13.9149 1073 70.9664 1358.91 490.617
137 0 80.0862 13.4355 1076 71.513 1358.55 490.265
138 0 81.0876 13.3683 1084 72.0701 1358.01 488.362
139 0 82.0804 12.9751 1065 73.7925 1358.31 487.804
140 0 89.1282 12.9476 1154 84.6889 1358.91 485.36
141 0 90.1366 13.302 1199 84.2352 1358.29 485.478
142 0 92.1111 13.6791 1260 84.3119 1358.8 485.586
143 0 95.0892 12.9983 1236 84.5129 1358.58 484.362
144 0 97.134 13.5998 1321 82.6631 1359.04 482.843
145 0 100.213 13.641 1367 82.9978 1358.95 480.633
146 0 100.2 12.7644 1279 84.7146 1359.45 479.218
147 0 105.089 13.6742 1437 82.9603 1358.55 476.566
148 0 107.163 13.3255 1428 84.8004 1358.17 475.522
149 0 110.174 13.1066 1444 82.2888 1358.44 474.72
150 0 115.14 12.8974 1485 80.2384 1358.36 472.444
151 0 116.26 12.6269 1468 78.2078 1358.14 472.653
152 0 119.152 12.1022 1442 77.7164 1357.76 469.277
153 0 124.101 12.5865 1562 76.8105 1357.61 468.767
154 1 73.1313 11.6093 849 70.2403 1357.87 495.611
155 0 75.0853 11.4536 860 70.4919 1358.23 492.012
156 0 77.0505 12.0051 925 72.4681 1358.13 492.258
157 0 77.045 12.2396 943 71.9989 1358.49 489.803
158 0 81.0974 12.0966 981 73.0958 1359.05 489.614
159 0 85.1752 11.717 998 73.6232 1358.26 487.29
160 0 86.0802 11.8726 1022 75.909 1358.81 487.004
161 0 90.1323 12.0933 1090 75.9294 1358.8 484.655
162 0 94.1257 12.9614 1220 81.177 1358.65 483.416
163 0 95.1122 12.1751 1158 82.4698 1358.74 481.883
164 0 100.089 12.7986 1281 80.772 1359.66 481.001
165 0 102.088 12.4697 1273 80.619 1359.13 479.585
166 0 106.113 11.6668 1238 82.7246 1358.98 476.024
167 0 109.144 11.9842 1308 81.8922 1358.92 475.651
168 0 111.084 12.0089 1334 83.494 1359.44 471.98
169 0 114.104 12.217 1394 83.2496 1359.63 469.623
170 0 119.092 11.9823 1427 82.4401 1359.49 469.648
171 1 69.0765 11.8275 817 73.9425 1360.54 496.114
172 0 72.1447 12.5165 903 71.3821 1360.07 493.079
173 0 74.0527 12.3426 914 74.43 1360.47 491.842
174 0 74.1345 12.3424 915 76.2142 1359.73 490.227
175 0 77.0611 12.0813 931 78.9978 1359.11 490.449
176 0 79.0474 12.1573 961 79.2092 1360.04 490.182
177 0 80.0461 12.0431 964 79.2822 1359.5 488.131
178 0 83.0542 12.0885 1004 77.8506 1359.89 485.529
179 0 86.0923 12.4169 1069 77.4724 1360.12 484.161
180 0 88.0569 12.9008 1136 75.5088 1360.75 484.754
181 0 92.0593 12.7852 1177 75.1113 1360.49 482.663
182 0 93.0389 12.5754 1170 77.5983 1360.76 480.357
183 0 96.0495 12.5456 1205 77.9718 1359.97 478.904
184 0 100.093 12.6083 1262 77.4049 1360.09 478.204
185 0 104.05 12.84 1336 77.6063 1360.06 477.841
186 0 105.077 13.2284 1390 77.9827 1360.29 475.168
187 0 107.105 12.4364 1332 79.2357 1359.76 472.893
188 0 112.136 13.0021 1458 78.8258 1360.55 472.338
189 0 114.099 12.7521 1455 80.9443 1360.89 468.061
190 0 115.189 11.772 1356 70.5295 1359.75 469.945
191 1 58.0922 10.7932 627 71.1148 1359.08 498.718
192 0 61.1544 11.7408 718 70.0641 1358.95 499.024
193 0 61.0928 11.9327 729 70.9136 1359.11 497.782
194 0 65.0728 12.2785 799 68.7935 1359.05 495.743
195 0 64.1971 12.1034 777 70.8095 1359.06 495.493
196 0 67.1197 12.1127 813 70.5117 1358.75 496.485
197 0 69.1565 11.9729 828 69.8744 1358.68 494.531
198 0 71.1015 12.3204 876 70.911 1357.59 493.178
199 0 74.0939 11.8363 877 70.9624 1357.23 491.691
200 0 75.0674 13.015 977 69.3326 1357.23 492.339
201 0 77.1591 12.1697 939 71.1054 1357.5 491.81
202 0 81.065 13.372 1084 85.8579 1357.42 489.283
203 0 82.1072 13.0196 1069 85.4958 1357.06 487.717
204 0 83.1717 12.1195 1008 85.2391 1357.18 486.188
205 0 85.1455 12.7899 1089 81.8797 1358.47 486.069
206 0 85.1455 12.8016 1090 120.258 1358.44 486.279
207 0 91.0736 12.8358 1169 81.3499 1358.11 483.476
208 0 93.1098 12.394 1154 80.857 1358.68 482.739
209 0 97.1698 12.9876 1262 79.8027 1357.37 480.655
210 0 99.1054 12.4615 1235 80.4583 1358.14 478.664
211 0 102.125 12.0245 1228 92.0309 1357.47 477.952
212 0 106.195 12.0721 1282 89.9267 1357.53 476.229
213 1 44.046 10.0123 441 77.5465 1358.84 509.522
214 0 45.0234 10.328 465 79.0064 1357.55 508.645
215 0 46.0542 10.8133 498 78.2309 1358.96 507.703
216 0 47.0152 11.0603 520 73.9038 1358.67 507.335
217 0 48.0398 12.0941 581 71.8072 1357.05 507.029
218 0 48.1093 11.6817 562 72.452 1357.07 506.584
219 0 50.0491 11.7485 588 71.8282 1356.98 505.747
220 0 52.09 13.0351 679 68.7437 1356.34 503.812
221 0 53.126 11.821 628 71.3519 1356.27 503.205
222 0 55.0693 12.457 686 70.6968 1356.65 503.038
223 0 57.1086 12.4149 709 70.5726 1356.94 502.159
224 0 58.096 11.6876 679 72.0854 1357.18 501.586
225 0 59.1212 12.2122 722 72.0388 1357.28 499.334
226 0 62.0591 11.8758 737 72.0312 1356.88 498.001
227 0 62.1788 11.8851 739 71.977 1357.1 497.848
228 0 66.0784 12.7576 843 70.1495 1357 496.878
229 0 68.0627 12.562 855 71.8749 1356.89 496.274
230 0 69.1171 12.2401 846 72.9539 1357.61 495.528
231 0 69.1129 11.8212 817 75.4614 1356.55 494.388
232 0 74.0654 12.3269 913 74.5805 1356.66 492.522
233 0 76.0455 12.5057 951 75.0063 1356.75 492.183
234 0 78.124 11.9682 935 75.5209 1356.71 490.499
235 0 82.1071 12.0574 990 75.2808 1356.66 488.828
236 1 42.0201 10.7805 453 78.5695 1356.44 509.318
237 0 40.0334 10.3913 416 71.6442 1356.38 507.882
238 0 41.0896 11.0004 452 75.1217 1356.12 509.754
239 0 43.0392 11.4547 493 72.5497 1356.43 508.28
240 0 44.0168 11.382 501 73.9641 1356.23 507.379
241 0 46.0174 12.4518 573 70.7888 1356.52 506.356
242 0 48.0871 11.5208 554 71.3321 1356.05 505.482
243 0 50.0652 12.224 612 69.5605 1355.83 504.552
244 0 51.018 11.3489 579 71.4767 1356.16 504.941
245 0 51.0336 11.8745 606 71.7558 1357.29 504.648
246 0 53.1751 12.4306 661 72.0333 1357.42 502.778
247 0 53.1751 12.4306 661 114.646 1357.42 502.778
248 0 58.1483 12.1758 708 71.7133 1357.48 501.583
249 0 59.1246 12.6343 747 70.7282 1357.61 502.394
250 0 60.1364 12.9539 779 70.6932 1357.95 499.801
251 0 60.174 12.6134 759 72.5362 1358.28 499.864
252 0 64.1261 12.6937 814 69.7236 1358.07 499.622
253 0 64.1282 13.4574 863 67.657 1356.89 498.571
254 0 66.1155 13.0075 860 69.336 1357.56 496.62
255 0 69.1099 13.4279 928 69.5259 1357.72 496.58
256 0 70.069 13.658 957 71.9174 1357.3 494.893
257 0 74.1635 13.4028 994 72.0885 1357.5 494.351
258 0 78.1295 13.5288 1057 81.9243 1357.93 492.079
259 0 80.1075 13.1698 1055 83.7109 1357.81 491.477
260 0 82.1054 13.0686 1073 86.2088 1357.34 488.281
261 0 84.1291 12.3144 1036 86.7944 1357.63 487.773
262 0 87.1816 12.2274 1066 86.6961 1357.57 485.931
263 0 89.162 12.7184 1134 83.9674 1357.21 484.056
264 1 45.0815 9.98192 450 81.6578 1357.32 507.751
265 0 46.1121 10.9516 505 80.2396 1357.51 506.028
266 0 50.1729 11.5401 579 77.981 1357.02 504.601
267 0 49.166 12.0815 594 74.2508 1357.18 504.498
268 0 52.1884 12.3016 642 84.0187 1357.18 502.111
269 0 52.1277 11.7788 614 85.9055 1356.23 502.456
270 0 52.017 12.3229 641 80.4633 1356 504.02
271 0 51.091 11.9003 608 83.0938 1355.73 503.755
272 0 54.0346 12.1959 659 80.0273 1356.14 503.193
273 0 54.0404 12.0095 649 81.4422 1356.12 503.601
274 0 57.0381 12.6231 720 78.9458 1356.33 501.4
275 0 59.1269 12.6846 750 77.9507 1356.26 500.935
276 0 61.1169 12.9915 794 79.068 1356.19 500.394
277 0 64.0904 12.5916 807 80.7856 1356.35 499.147
278 0 66.0669 12.6841 838 80.5155 1356.57 498.865
279 0 66.039 12.5078 826 79.5884 1356.37 498.099
280 0 69.1017 13.6031 940 80.2447 1357.03 495.303
281 0 71.0991 12.799 910 82.1231 1356.96 495.503
282 0 74.0811 12.8508 952 82.4244 1356.57 494.668
283 0 75.1352 12.8835 968 83.9504 1356.75 491.373
284 0 78.284 12.8634 1007 82.7865 1357.44 490.277
285 0 80.2362 12.8496 1031 83.3754 1357.47 488.438
286 0 82.1592 12.9505 1064 82.1316 1357.14 487.215
287 0 83.1964 12.753 1061 84.3742 1356.93 485.926
288 0 84.083 11.8454 996 81.6285 1356.29 482.63
289 0 88.1098 12.1893 1074 82.6089 1356.2 480.807
290 0 92.1851 11.9434 1101 83.3324 1356.68 478.015
291 0 95.0946 12.3246 1172 83.7133 1356.78 477.722
292 0 97.1034 11.8018 1146 84.8796 1356.48 475.097
293 1 51.1111 10.0957 516 78.0116 1356.98 495.924
294 0 54.1792 10.5945 574 77.9983 1356.54 494.143
295 0 57.1044 11.7329 670 73.6806 1356.47 497.424
296 0 58.0499 12.0414 699 77.3019 1356.55 501.296
297 0 61.078 11.8373 723 77.26 1356.12 500.781
298 0 64.0347 12.4464 797 76.261 1357.12 498.356
299 0 65.0925 12.029 783 77.2746 1356.96 498.831
300 0 67.0602 12.8392 861 75.9652 1356.22 497.882
301 0 69.1641 12.0872 836 78.0108 1356.75 495.13
302 0 71.0643 12.5942 895 76.8548 1356.8 493.306
303 0 74.2292 12.7713 948 75.7511 1356.89 493.68
304 0 76.1019 12.8906 981 74.6748 1357.42 492.864
305 0 79.123 13.2452 1048 73.0391 1357.27 491.125
306 0 83.081 12.9512 1076 72.9703 1356.97 488.553
307 0 82.154 12.4157 1020 75.2049 1356.78 488.379
308 0 87.1266 12.7745 1113 74.0746 1356.67 486.685
309 0 90.0999 12.0644 1087 75.6274 1356.35 485.354
310 0 94.1059 12.9322 1217 76.8981 1356.57 483.862
311 0 95.1438 13.1695 1253 77.672 1357.21 483.571
312 1 49.0281 10.1574 498 73.2892 1356.95 507.809
313 0 50.0454 11.3897 570 72.6298 1356.51 505.768
314 0 51.0331 10.7773 550 72.3982 1356.95 506.302
315 0 55.0598 11.6419 641 70.2839 1356.86 504.949
316 0 56.0245 12.3696 693 69.9076 1357.1 503.905
317 0 58.1741 12.4282 723 69.4232 1357.31 502.376
318 0 59.1081 12.0626 713 70.0813 1357 502.616
319 0 61.0937 11.7524 718 70.9192 1356.83 502.887
320 0 62.1288 12.4902 776 70.7229 1357.12 501.657
321 0 64.0862 12.2647 786 71.327 1357.42 499.94
322 0 66.0534 12.0206 794 72.8413 1356.94 499.776
323 0 69.0902 12.7949 884 73.3971 1356.85 498.13
324 0 69.0902 12.8383 887 117.763 1356.85 498.144
325 0 74.1429 12.6108 935 81.0738 1355.99 495.948
326 0 75.0847 12.4526 935 82.4749 1356 495.008
327 0 77.0748 12.8447 990 83.4172 1356.04 492.95
328 0 80.1018 12.1221 971 85.8393 1355.8 491.795
329 0 85.0695 13.248 1127 82.402 1355.91 489.894
330 0 86.1105 13.1111 1129 84.7228 1356.1 488.507
331 0 87.0919 12.3662 1077 88.3352 1356.13 487.849
332 1 48.0508 11.363 546 82.2472 1356.35 508.738
333 0 48.0907 10.1059 486 84.7346 1356.36 508.58
334 0 51.0689 11.9446 610 80.7885 1356.02 506.297
335 0 51.0123 11.7815 601 83.1414 1355.7 506.138
336 0 53.1137 12.4073 659 84.6995 1356.24 504.63
337 0 51.0615 10.7909 551 80.1779 1355.78 506.673
338 0 56.088 11.6246 652 76.2301 1355.54 505.67
339 0 57.0776 11.4406 653 77.9648 1355.36 504.518
340 0 60.0611 12.7037 763 75.3958 1355.06 503.776
341 0 59.0392 11.4161 674 79.6855 1355.16 503.513
342 0 61.0939 11.2614 688 81.2049 1355.25 502.481
343 0 64.0636 12.3471 791 80.0303 1354.68 500.978
344 0 65.1389 11.8209 770 82.5779 1354.2 500.019
345 0 68.1067 12.0987 824 81.6238 1353.97 500.917
346 0 69.0428 11.6449 804 83.9702 1353.78 498.466
347 0 70.0825 12.0287 843 83.7604 1353.92 497.94
348 0 74.1089 12.1308 899 82.9555 1353.06 495.655
349 0 78.0536 12.043 940 82.5766 1353.63 495.268
350 0 80.0914 12.5357 1004 81.3426 1354.21 493.555
351 0 82.0649 12.4048 1018 83.4145 1353.71 493.319
352 0 84.0903 12.0823 1016 85.0984 1353.22 490.672
353 0 87.1956 13.1199 1144 85.3313 1353.55 491.943
354 0 90.1089 13.184 1188 87.1557 1353.29 487.742
355 0 90.1852 12.6961 1145 88.8751 1353.15 486.486
356 0 93.1326 13.8834 1293 88.365 1352.94 485.872
357 0 97.1519 13.3502 1297 89.6369 1353.41 483.463
358 0 100.247 13.5664 1360 91.0331 1354.38 481.128
359 0 102.096 13.027 1330 91.7143 1353.99 478.038
360 0 104.166 13.5169 1408 90.532 1353.82 476.947
361 0 108.133 13.2059 1428 89.986 1353.51 473.66
362 0 110.107 13.2599 1460 88.1582 1353.4 469.82
363 0 114.211 13.6239 1556 84.0681 1353.98 468.713
364 0 113.205 13.6655 1547 87.2418 1354.1 466.005
365 0 120.184 13.0882 1573 87.6948 1354.17 466.428
366 0 122.145 13.5331 1653 87.386 1353.22 462.073
367 0 125.188 12.9086 1616 88.3088 1354.07 456.812
368 0 131.153 13.6406 1789 85.3281 1353.82 454.381
369 0 132.129 12.7981 1691 88.411 1354.5 454.072
370 0 132.099 13.0357 1722 88.2834 1354.06 446.344
371 0 140.211 13.0446 1829 87.5785 1354.34 445.915
372 0 145.17 12.9022 1873 88.8179 1353.79 445.033
373 0 153.261 13.8065 2116 87.1706 1353.5 445.369
374 0 155.174 13.0241 2021 90.0327 1353.77 439.683
375 0 162.153 13.734 2227 89.0242 1354.16 436.885
376 0 168.226 13.5353 2277 89.3114 1354.22 433.394
377 0 173.396 14.3083 2481 89.5204 1354.6 429.983
378 0 178.333 13.5533 2417 92.7931 1354.47 430.819
379 0 185.301 13.9448 2584 92.6242 1354.86 428.649
380 0 190.286 13.3956 2549 94.6524 1354.86 424.119
381 0 196.387 14.1659 2782 93.5007 1354.43 420.151
382 0 203.342 13.9322 2833 93.946 1354.55 418.122
383 0 209.577 13.7038 2872 96.2925 1354.4 416.186
384 0 216.453 14.1925 3072 95.4092 1354.64 410.703
385 0 222.445 13.5854 3022 94.224 1354.67 411.14
386 0 231.385 13.4451 3111 94.7531 1354.97 408.517
387 0 240.307 13.4786 3239 95.5329 1355.45 401.354
388 1 186.202 11.117 2070 96.7739 1355.87 430.984
389 0 192.262 11.8692 2282 97.5885 1355.55 422.505
390 0 198.261 12.3827 2455 97.0741 1355.27 419.308
391 0 205.2 12.5049 2566 97.5522 1355.03 414.835
392 0 213.336 12.5717 2682 97.2942 1355.04 414.016
393 0 220.213 12.8148 2822 98.2371 1355.55 408.827
394 0 224.311 12.9374 2902 97.6158 1355.37 403.371
395 0 233.298 13.3991 3126 96.1561 1355.47 402.672
396 0 240.226 13.2792 3190 98.2602 1355.53 396.417
397 0 250.265 13.4058 3355 98.0191 1355.53 394.099
398 0 255.384 12.8081 3271 99.7826 1355.7 394.232
399 0 262.356 13.1958 3462 98.1768 1356.11 386.043
400 0 271.382 13.1107 3558 98.7774 1355.93 377.688
401 0 379.479 15.2999 5806 97.5784 1355.66 327.077
402 1 79.2766 11.9203 945 85.0741 1355.07 486.616
403 0 81.1244 11.5009 933 78.5895 1355.31 487.252
404 0 82.1394 11.1761 918 74.4858 1355.72 486.597
405 0 84.0882 10.3344 869 77.5362 1355.45 488.204
406 0 87.1375 10.0416 875 78.0263 1355.02 483.67
407 0 88.115 10.4409 920 78.2402 1355.67 486.25
408 0 92.0689 10.1011 930 76.2817 1355.85 485.188
409 0 96.1276 11.6512 1120 72.8723 1355.92 484.33
410 0 99.071 10.7095 1061 75.1838 1355.54 481.613
411 0 103.099 10.8148 1115 76.1794 1355.13 478.01
412 0 107.135 10.6875 1145 76.4716 1356.51 476.794
413 0 111.154 10.4989 1167 79.2905 1355.42 475.221
414 0 112.249 11.0201 1237 87.0194 1354.98 473.548
415 1 125.359 16.5604 2076 73.0443 1355.2 461.618
416 0 124.478 12.5565 1563 85.3289 1355.98 467.802
417 1 53.1424 9.14524 486 71.0988 1355.44 493.84
418 0 58.3041 9.45045 551 66.1833 1356.39 496.851
419 0 62.2278 11.3454 706 65.3371 1356.46 500.285
420 0 63.1777 11.0957 701 66.2282 1356.52 498.947
421 0 66.2948 11.3734 754 66.317 1356.66 498.716
422 0 69.2145 12.035 833 65.9016 1356.5 498.269
423 0 70.2357 11.5611 812 67.798 1356.59 497.319
424 0 70.2034 11.2958 793 68.8361 1355.54 494.76
425 0 71.125 11.2056 797 70.3388 1356.48 494.563
426 0 74.1958 10.9844 815 70.9632 1356.52 494.935
427 0 76.2488 10.6625 813 71.674 1356.76 493.78
428 0 79.1386 11.2335 889 71.5242 1356.37 492.91
429 0 79.172 11.6582 923 72.0184 1356.38 491.273
430 0 81.1238 11.6365 944 71.268 1356.33 490.032
431 0 84.2455 11.5971 977 70.7697 1355.63 489.941
432 0 86.1816 11.441 986 70.2333 1355.25 487.103
433 0 89.2154 10.9174 974 70.0154 1355.97 486.316
434 1 50.0493 10.11 506 69.3162 1357.3 507.668
435 0 51.0249 9.11321 465 70.9527 1357.54 506.596
436 0 52.1525 10.3351 539 65.974 1356.76 507.184
437 0 55.1414 10.9536 604 63.6209 1356.67 505.609
438 0 55.1526 10.48 578 65.5467 1356.81 504.099
439 0 57.0902 11.3154 646 65.7647 1356.62 502.785
440 0 60.1011 11.8467 712 61.566 1355.73 502.663
441 0 62.0645 11.4881 713 61.3282 1356.27 500.466
442 0 63.2183 10.7247 678 61.7478 1355.94 501.211
443 0 67.0984 10.8497 728 73.1236 1356.5 497.129
444 0 69.0637 11.598 801 70.9725 1355.8 496.973
445 0 73.0964 11.9158 871 68.6854 1356.77 495.061
446 0 73.0729 11.7554 859 69.213 1357.08 494.532
447 0 75.0812 11.1213 835 69.424 1356.76 493.66
448 0 76.0805 11.2907 859 67.6391 1356.33 492.921
449 0 79.1623 11.2175 888 66.6464 1356.87 491.439
450 0 83.2074 11.3692 946 64.4863 1356.61 491.131
451 0 83.1388 11.138 926 65.3985 1356.57 488.924
452 0 85.1365 11.276 960 64.4083 1356.76 486.132
453 0 88.1431 10.2674 905 64.4751 1356.22 486.028
454 0 92.2346 11.2648 1039 62.9057 1356.8 483.205
455 0 94.2901 11.5283 1087 65.0966 1356.14 482.821
456 0 96.2089 11.7869 1134 66.1676 1356.57 481.046
457 1 48.1054 10.2899 495 60.2929 1356.96 505.281
458 0 50.1787 9.7651 490 53.751 1356.08 502.547
459 0 48.3418 9.01912 436 56.0573 1355.52 499.31
460 0 52.2267 9.5545 499 55.3768 1356.74 505.427
461 0 54.2395 10.4721 568 54.4507 1356.97 504.683
462 0 54.2377 10.0299 544 55.4265 1356.57 504.449
463 0 57.1318 10.9221 624 54.9728 1356.44 502.399
464 0 57.0722 10.4254 595 56.0773 1357.68 501.476
465 0 60.0858 11.5002 691 54.7699 1355.99 500.271
466 0 61.253 10.9709 672 56.3586 1356.02 500.051
467 0 61.4308 11.2159 689 57.643 1355.94 497.704
468 0 63.1748 11.1279 703 58.0484 1355.28 494.425
469 0 67.2125 11.724 788 57.9366 1355.56 493.843
470 0 68.1193 11.0541 753 59.32 1356.08 494.523
471 0 71.1568 11.2147 798 60.2381 1355.59 493.689
472 0 72.2161 10.3717 749 61.7984 1355.92 493.413
473 0 74.3101 11.3847 846 62.7849 1356.18 490.041
474 0 80.4564 12.7274 1024 61.0635 1356.26 490.91
475 0 83.2175 12.8699 1071 63.2185 1355.67 490.206
476 0 84.1851 12.6982 1069 66.3022 1355.68 488.892
477 0 89.1687 13.3006 1186 69.3584 1355.18 486.802
478 0 91.2084 13.0799 1193 70.2246 1355.87 485.241
479 0 93.2264 13.4511 1254 70.87 1355.86 483.757
480 0 97.2233 13.4433 1307 71.6519 1355.03 481.906
481 0 98.1731 12.9058 1267 75.0118 1355.35 480.909
482 0 102.121 13.2685 1355 75.093 1355.44 478.834
483 1 53.2432 10.2548 546 72.044 1354.29 502.788
484 0 56.3968 12.0929 682 70.61 1353.9 499.584
485 0 58.3946 12.895 753 69.3546 1354.44 498.875
486 0 57.1468 11.8292 676 72.1553 1354.79 501.905
487 0 58.0482 11.835 687 69.8719 1355.53 502.074
488 0 61.0591 11.972 731 69.6922 1354.88 501.592
489 0 63.1549 11.8281 747 69.3173 1355.08 500.312
490 0 63.0775 11.7633 742 71.5943 1354.77 500.136
491 0 67.2273 12.5396 843 69.809 1355.69 498.712
492 0 69.2179 12.1645 842 71.8064 1355.99 497.499
493 0 71.1599 12.8443 914 72.2352 1356.27 496.952
494 0 72.0534 12.9765 935 74.9102 1355.59 495.634
495 0 75.1215 12.5663 944 77.4121 1355.46 494.571
496 0 76.1267 13.0703 995 77.5588 1354.9 492.082
497 0 79.0745 13.3798 1058 78.9036 1355.09 490.627
498 0 80.1463 12.3774 992 83.4688 1354.98 490.146
499 0 84.1155 12.6136 1061 83.7964 1354.98 489.453
500 0 86.1658 13.0446 1124 83.2473 1354.81 487.827
501 0 86.1658 13.0794 1127 153.605 1353.81 487.838
502 0 92.1587 13.4008 1235 83.5004 1354.83 483.401
503 0 95.225 12.9798 1236 83.4563 1354.92 482.867
504 0 99.2188 13.183 1308 81.8723 1354.99 480.991
505 1 51.1801 10.59 542 72.2731 1354.83 507.19
506 0 54.0864 10.89 589 70.5229 1354.65 504.815
507 0 54.0249 11.8834 642 71.4673 1354 504.597
508 0 55.0842 11.782 649 73.9707 1353.71 504.741
509 0 56.0192 11.6746 654 74.1804 1354.04 503.142
510 0 58.0378 11.5097 668 75.8638 1353.84 501.897
511 0 60.0187 12.6461 759 74.8327 1354.54 500.586
512 0 63.0547 12.7033 801 75.6679 1354.08 500.074
513 0 63.0381 12.4845 787 77.4956 1354.53 498.529
514 0 67.0577 13.2274 887 75.3946 1353.97 499.793
515 0 68.057 12.7981 871 77.8312 1354.58 497.879
516 0 69.0527 12.9611 895 78.6927 1354.47 495.551
517 0 73.0689 13.4804 985 83.3817 1353.9 495.191
518 0 76.0975 13.2067 1005 76.007 1353.93 496.077
519 0 78.0437 13.4796 1052 76.6692 1354.15 494.196
520 0 78.0437 13.5437 1057 155.037 1354.15 494.208
521 0 83.096 14.2967 1188 77.3998 1353.74 491.257
522 0 85.0877 13.8563 1179 79.6896 1353.87 490.394
523 0 89.0454 14.0939 1255 77.1004 1353.98 489.378
524 0 90.0726 13.8777 1250 78.6592 1353.88 488.261
525 0 93.1196 13.7995 1285 78.9782 1353.92 487.233
526 0 96.1258 13.9297 1339 80.8454 1353.58 484.879
527 0 101.019 13.0074 1314 88.758 1353.75 483.616
528 0 101.068 13.6146 1376 88.5349 1353.67 480.729
529 0 105.097 13.673 1437 87.6701 1353.82 479.111
530 0 108.144 13.7871 1491 85.9524 1352.48 476.584
531 0 111.07 13.496 1499 86.0934 1352.85 476.018
532 1 58.0538 11.6961 679 83.6922 1353.12 502.283
533 0 60.068 12.0031 721 82.8932 1352.74 501.65
534 0 61.0271 12.1585 742 79.7358 1352.52 502.365
535 0 63.0907 12.3631 780 77.3 1353.37 502.05
536 0 64.0994 12.5274 803 75.6252 1353.45 502.304
537 0 65.1703 12.1528 792 77.2197 1353.29 501.213
538 0 66.0613 11.7013 773 78.6326 1353.71 499.885
539 0 70.1147 12.0517 845 76.0757 1353.09 499.187
540 0 72.0676 11.961 862 77.9223 1353.43 497.116
541 0 76.1546 12.6059 960 75.749 1354.01 495.754
542 0 78.1183 12.8907 1007 74.1867 1352.69 495.198
543 0 80.0722 13.2131 1058 74.9953 1352.44 494.432
544 0 84.0679 12.8349 1079 75.7377 1352.22 493.053
545 0 85.1508 12.7421 1085 77.1346 1352.72 492.021
546 0 89.0908 13.2 1176 75.7823 1352.41 491.699
547 0 92.0724 12.7508 1174 77.6457 1353.08 489.836
548 0 93.1136 12.1679 1133 79.6214 1353.15 488.099
549 0 95.1549 12.054 1147 79.5362 1353.08 487.96
550 0 99.1005 12.3309 1222 79.7439 1354.08 483.597
551 0 103.134 12.7116 1311 77.5751 1354.09 482.009
552 0 106.195 12.7031 1349 78.8488 1353.74 481.984
553 0 109.142 12.0577 1316 76.9012 1353.53 481.87
554 0 113.289 12.0489 1365 76.5048 1353.4 479.336
555 1 60.1717 11.4173 687 77.1659 1353.92 503.517
556 0 61.1519 12.2972 752 76.1396 1353.85 501.069
557 0 64.169 11.8905 763 76.7077 1353.74 500.699
558 0 63.0373 12.0088 757 73.5733 1353 503.088
559 0 64.071 11.2531 721 75.5187 1354.47 502.831
560 0 65.1334 11.8065 769 75.2315 1354.41 500.514
561 0 68.1107 11.7456 800 75.93 1354.55 497.85
562 0 70.0842 11.9 834 78.0264 1354.68 496.974
563 0 72.1065 11.8852 857 77.5869 1354.25 497.602
564 0 73.1372 11.5126 842 78.5523 1353.59 495.934
565 0 75.0741 11.8683 891 78.8283 1354.14 495.405
566 0 79.1468 11.7377 929 79.479 1353.97 494.017
567 0 82.0643 12.149 997 79.2979 1354.17 491.621
568 0 83.1152 12.0556 1002 79.4062 1354.65 492.034
569 0 87.1232 12.3389 1075 78.6577 1354.83 491.188
570 0 88.1486 12.1953 1075 79.6316 1354.86 487.296
571 0 92.1192 12.2233 1126 79.6989 1353.92 487.752
572 0 93.1528 12.195 1136 80.6523 1354.77 485.595
573 0 97.1306 12.4369 1208 80.5008 1354.81 484.496
574 0 98.1091 11.2324 1102 82.2178 1354.44 484.352
575 0 101.073 12.1793 1231 81.8497 1354.12 482.512
576 0 104.105 12.4682 1298 81.537 1353.88 479.83
577 0 105.129 12.575 1322 81.9365 1353.33 478.219
578 0 108.141 12.0306 1301 86.7856 1353.33 477.243
579 0 113.146 12.3557 1398 85.7868 1351.98 472.561
580 0 114.113 11.6376 1328 87.5429 1352.48 470.236
581 0 121.077 12.1245 1468 84.4707 1352.47 470.01
582 1 67.074 10.4661 702 82.188 1352.12 496.439
583 0 69.1586 11.3363 784 78.8329 1352.25 496.615
584 0 71.1809 11.815 841 80.2901 1352.48 495.174
585 0 76.2272 12.8038 976 83.502 1352.96 493.528
586 0 77.3284 12.0137 929 86.2465 1353.57 492.425
587 0 81.3335 12.3811 1007 84.9364 1352.91 492.318
588 0 83.1402 12.088 1005 83.6706 1353.36 492.084
589 0 86.1173 11.6817 1006 84.7127 1354.27 490.856
590 0 89.1797 11.9422 1065 84.5117 1354.04 489.771
591 0 88.2037 11.6889 1031 86.4918 1352.99 487.423
592 1 47.0932 9.00342 424 84.3962 1353.89 511.842
593 0 46.1511 9.33888 431 81.4872 1353.64 513.691
594 0 49.0812 9.08698 446 82.0336 1354.33 512.704
595 0 51.1094 10.3112 527 81.2789 1353.76 508.467
596 0 53.0953 10.4717 556 81.3651 1353.82 508.124
597 0 55.0951 10.4183 574 79.8031 1354.17 508.875
598 0 58.1669 11.2435 654 78.2538 1354.01 507.419
599 0 58.1305 10.8893 633 75.7899 1353.17 506.404
600 0 60.1318 10.8428 652 75.5982 1353.37 504.155
601 0 61.156 11.5115 704 76.392 1353.57 504.344
602 0 64.2246 12.2694 788 74.1371 1353.39 502.654
603 0 66.0869 11.8329 782 74.0908 1353.28 502.405
604 0 67.1753 12.3855 832 73.53 1353.24 502.089
605 0 69.0753 12.5515 867 73.7901 1352.85 501.875
606 0 70.0578 11.933 836 76.1734 1352.66 499.966
607 0 75.0816 12.7461 957 74.3135 1352.95 498.747
608 0 75.1856 12.5556 944 76.4661 1352.75 496.761
609 0 78.112 13.0838 1022 76.318 1352.4 495.522
610 0 78.1415 12.7461 996 77.1707 1352.35 493.95
611 0 83.0407 12.259 1018 90.7466 1353.32 494.097
612 0 84.2061 13.5501 1141 90.7274 1352.72 491.747
613 0 86.3263 12.8582 1110 91.0964 1352.68 490.561
614 0 88.2227 13.1599 1161 90.3368 1352.75 490.256
615 0 92.1256 13.08 1205 89.2083 1352.42 488.617
616 0 94.3129 13.6461 1287 89.5152 1352.11 486.602
617 0 97.1844 13.0062 1264 89.3283 1352.61 485.456
618 0 100.322 13.6161 1366 88.896 1352.97 483.889
619 0 105.278 13.6306 1435 88.8432 1352.77 482.309
620 0 107.217 13.5613 1454 89.5805 1352.85 479.506
621 0 111.251 13.1324 1461 90.0274 1353.38 478.951
622 0 115.196 13.004 1498 90.1729 1352.98 478.816
623 0 116.292 13.4919 1569 89.3703 1353.44 475.185
624 1 61.195 10.7035 655 88.4321 1353.99 503.82
625 0 63.2438 11.3529 718 85.0265 1354.34 502.407
626 0 66.197 12.5232 829 78.8951 1353.73 501.185
627 0 68.3328 12.0733 825 86.1939 1353.5 499.121
628 0 72.2641 12.5789 909 83.8735 1352.73 499.373
629 0 73.2128 12.0197 880 84.0977 1353.01 496.175
630 0 76.1335 12.3336 939 84.4526 1354.17 495.181
631 0 75.1826 12.1438 913 85.6309 1353.95 493.731
632 0 80.1739 11.9615 959 84.0615 1353.26 493.161
633 0 83.2162 12.822 1067 83.4911 1353.72 492.112
634 0 84.0855 12.4278 1045 83.7062 1353.45 490.777
635 0 86.0754 12.0011 1033 75.2701 1353.33 490.389
636 0 86.1122 11.4386 985 77.8508 1354.11 489.875
637 0 90.1531 11.425 1030 78.1039 1353.9 486.361
638 0 92.116 11.4529 1055 78.0228 1353.85 485.317
639 0 96.1366 11.6813 1123 77.7053 1353.64 481.43
640 0 102.236 11.9136 1218 76.4425 1353.15 480.875
641 0 105.131 12.3655 1300 74.84 1352.81 479.398
642 0 109.17 11.4592 1251 81.709 1353.51 478.151
643 0 113.128 11.4649 1297 80.5991 1353.39 474.823
644 1 59.0495 9.70372 573 75.8482 1354.37 502.733
645 0 62.0888 11.0165 684 75.2632 1354.21 501.637
646 0 62.1297 10.7356 667 72.051 1352.82 498.286
647 0 66.1493 11.3229 749 70.3979 1354.39 497.973
648 0 64.1675 10.5817 679 75.109 1354.09 499.605
649 0 64.0978 9.59472 615 76.5431 1353.95 498.18
650 0 68.0701 11.5028 783 73.8544 1353.86 496.886
651 0 71.1216 10.4469 743 75.1871 1354.66 493.844
652 0 73.1446 10.8005 790 74.8392 1354.98 495.544
653 0 76.1784 12.1163 923 73.2969 1355.12 492.488
654 0 80.1418 11.9039 954 74.4979 1354.36 491.021
655 0 82.1037 11.4611 941 74.6366 1354.57 492.291
656 0 84.0925 11.7014 984 75.8577 1354.95 489.903
657 0 85.112 10.8328 922 78.7462 1355.38 490.671
658 0 88.1441 11.3564 1001 78.4555 1354.62 488.939
659 0 90.0971 10.8994 982 80.332 1355.15 488.117
660 0 95.1447 11.6875 1112 78.5432 1354.51 486.281
661 0 98.0911 12.6107 1237 77.2878 1355.4 483.952
662 1 51.0615 11.2609 575 78.5009 1355.81 505.831
663 0 51.1419 10.5589 540 74.3963 1355.68 504.143
664 0 53.1509 11.6649 620 75.8597 1355.46 504.21
665 0 54.1354 12.0439 652 75.4141 1355.52 503.791
666 0 54.1202 11.9364 646 78.8529 1355.77 503.78
667 0 58.079 12.9479 752 74.5824 1354.43 502.924
668 0 57.0616 12.3551 705 76.8993 1354.89 502.174
669 0 60.1437 12.1044 728 75.7472 1354.99 501.76
670 0 62.1121 12.252 761 75.6583 1354.85 499.607
671 0 64.0848 12.4366 797 76.1581 1355.17 498.744
672 0 67.037 12.6796 850 74.5941 1354.15 498.519
673 0 68.1281 12.8581 876 74.5502 1353.52 495.318
674 0 70.0762 13.3712 937 73.9349 1354.65 495.896
675 0 71.1337 12.5538 893 76.4703 1354.59 495.672
676 0 74.1306 12.7613 946 75.0941 1354.45 494.654
677 0 76.1316 13.6211 1037 72.9932 1354.44 494.165
678 0 80.0899 13.4099 1074 81.2961 1354.91 490.71
679 0 82.1788 13.3976 1101 81.7856 1354.96 490.436
680 0 83.0737 13.3014 1105 81.5023 1355.61 489.374
681 0 88.1057 14.5621 1283 78.491 1354.91 487.515
682 0 90.2674 14.025 1266 79.6556 1355.32 486.876
683 0 93.2298 14.1049 1315 79.8806 1355.63 484.211
684 0 97.1783 14.4785 1407 77.973 1355.62 485.123
685 0 100.207 14.6097 1464 78.2602 1355.76 483.018
686 0 103.21 14.0878 1454 79.6623 1355.48 481.616
687 1 53.1633 11.2107 596 82.2148 1356.35 503.715
688 0 56.146 11.1495 626 80.0655 1356.3 504.195
689 0 56.1388 11.81 663 79.0694 1356.36 504.065
690 0 58.0783 11.8289 687 77.7322 1356.83 504.213
691 0 59.0248 11.8594 700 76.0714 1356.16 503.733
692 0 59.1552 11.698 692 78.6835 1355.9 504.449
693 0 61.1921 12.1094 741 77.8853 1356.33 504.042
694 0 63.072 11.3997 719 78.5243 1356.24 502.498
695 0 63.1065 11.3934 719 80.1321 1355.78 500.314
696 0 66.0908 12.2559 810 78.2704 1356.54 500.531
697 0 69.1072 11.9669 827 78.9855 1356.18 499.345
698 0 70.0985 12.0973 848 79.1403 1355.98 498.274
699 0 72.1898 12.1347 876 80.6552 1355.58 497.583
700 0 76.0728 12.0279 915 81.5847 1354.9 495.338
701 0 78.1171 12.1996 953 80.8405 1355.63 496.157
702 0 80.0885 12.3738 991 81.2624 1355.23 494.263
703 0 82.1139 12.1904 1001 82.2498 1355.3 491.768
704 0 84.0898 12.1061 1018 82.7416 1355.26 489.741
705 0 89.1294 12.1172 1080 81.3222 1355.35 491.011
706 0 91.1699 11.9667 1091 82.4702 1355.37 489.288
707 0 93.1141 11.8135 1100 83.2227 1354.58 487.57
708 0 95.1093 11.839 1126 82.6234 1354.66 486.723
709 0 99.1287 11.5002 1140 83.5395 1353.8 484.2
710 0 103.121 11.6853 1205 81.0365 1354.23 483.187
711 0 106.118 11.0726 1175 81.5319 1354.12 482.136
712 1 55.1067 10.398 573 81.8534 1354.17 499.763
713 0 58.1595 10.6259 618 81.254 1354.34 497.631
714 0 61.0341 11.8294 722 78.3726 1355.12 497.95
715 0 64.2002 11.9626 768 80.8229 1354.45 502.104
716 0 67.2837 12.2466 824 73.1711 1353.42 501.089
717 0 67.1197 12.5001 839 73.7318 1353.98 499.754
718 0 71.1326 12.7227 905 72.1779 1353.53 499.596
719 0 72.361 10.5167 761 70.3798 1353.54 501.012
720 0 75.195 10.2533 771 65.7977 1353.49 500.519
721 0 77.159 11.1069 857 64.4247 1354.4 500.632
722 0 78.111 10.6899 835 64.7784 1354.6 502.668
723 0 82.1935 11.2053 921 64.6211 1353.97 499.558
724 0 84.115 11.199 942 66.4045 1353.52 497.424
725 0 88.2074 11.2349 991 67.894 1352.78 494.899
726 0 91.1248 12.203 1112 67.2734 1353.26 494.711
727 0 92.1505 11.861 1093 70.322 1353.29 490.371
728 0 92.1505 11.8827 1095 130.704 1353.28 490.352
729 0 100.146 11.5432 1156 74.0761 1353.28 487.617
730 0 104.153 12.2896 1280 74.6688 1353.42 486.792
731 0 106.142 12.1629 1291 76.3129 1353.53 484.53
732 0 111.155 12.2531 1362 79.6123 1353.36 481.698
733 1 56.1625 10.6655 599 72.4357 1354.2 511.177
734 0 57.1427 10.885 622 73.1045 1354.2 508.855
735 0 60.0795 11.0187 662 73.6737 1353.61 507
736 0 62.0461 11.9427 741 71.1565 1354.48 505.43
737 0 62.1093 11.4476 711 72.7665 1354.27 504.364
738 0 64.089 11.7025 750 73.2733 1353.88 503.031
739 0 67.1048 11.8322 794 74.3149 1354.8 503.878
740 0 69.1509 11.728 811 75.5512 1354.91 502.838
741 0 68.1083 11.2174 764 78.6754 1354.06 501.381
742 0 73.2338 12.6308 925 76.2022 1353.94 499.334
743 0 74.2331 11.5717 859 80.3679 1354.48 499.499
744 0 76.1372 11.5318 878 82.7403 1353.93 497.856
745 0 79.2615 12.0992 959 82.1794 1354.15 495.636
746 1 41.039 10.1854 418 82.4306 1354.95 515.139
747 0 43.1302 10.8972 470 81.883 1355.17 514.16
748 0 45.1008 10.7537 485 82.6227 1354.15 514.647
749 0 46.1531 10.9852 507 81.641 1354.54 514.124
750 0 49.1383 12.4953 614 78.7476 1354.3 511.52
751 0 50.0887 11.6793 585 80.2274 1355.15 511.48
752 0 51.1167 12.1291 620 79.5758 1354.95 508.369
753 0 51.096 11.6252 594 89.7778 1355.33 508.709
754 0 54.0716 12.8718 696 77.4583 1355.22 506.825
755 0 55.1742 11.7809 650 81.4077 1354.93 507.585
756 0 56.1543 11.9848 673 84.0788 1354.54 506.392
757 0 59.1288 12.6842 750 82.2 1354.19 506.623
758 0 59.1535 12.5267 741 82.5736 1354.06 505.891
759 0 61.0937 12.8327 784 83.0893 1354.4 504.765
760 0 63.0889 12.4428 785 86.3096 1354.77 503.567
761 0 65.1152 12.8849 839 86.7926 1355.02 503.383
762 0 66.1575 12.8028 847 103.259 1355.26 500.566
763 0 69.1153 12.5443 867 110.251 1354.58 500.588
764 0 72.1584 12.9992 938 108.327 1354.31 499.889
765 0 74.1318 13.6783 1014 106.647 1353.83 498.957
766 0 76.0885 12.8929 981 107.738 1354.5 498.839
767 0 77.1442 13.1442 1014 106.221 1354 498.001
768 0 80.1989 12.8306 1029 107.664 1354.09 496.987
769 0 82.3405 13.1891 1086 106.972 1354.78 493.366
770 0 83.2777 13.3889 1115 98.1471 1354.48 492.023
771 0 87.1118 13.7295 1196 98.7784 1354.44 489.765
772 0 88.3312 13.1324 1160 101.267 1354.28 489.663
773 0 91.2774 13.3111 1215 100.582 1354.62 486.591
774 0 95.4139 13.2475 1264 100.556 1353.4 482.857
775 0 95.2772 13.4975 1286 101.142 1354.19 482.68
776 1 51.2569 11.4716 588 100.354 1353.98 504.007
777 0 54.3255 11.9649 650 99.7292 1354.31 502.797
778 0 53.4059 10.9351 584 104.336 1354.14 503.897
779 0 55.2227 11.5713 639 106.191 1354.22 502.189
780 0 55.2348 12.2568 677 105.306 1354.29 501
781 0 57.2274 12.0222 688 104.6 1353.5 500.202
782 0 59.2797 12.8206 760 102.676 1353.8 497.13
783 0 60.1285 12.939 778 101.479 1353.6 498.395
784 0 60.0628 13.1862 792 105.763 1353.9 497.544
785 0 63.1577 12.6984 802 107.99 1353.78 496.562
786 0 65.0742 12.9698 844 105.527 1353.5 497.071
787 0 66.0327 12.7664 843 105.414 1353.86 496.084
788 0 64.1675 12.9037 828 105.752 1353.89 494.353
789 0 70.0268 13.1807 923 101.852 1353.63 492.087
790 0 68.0775 12.8089 872 98.68 1354.78 494.722
791 0 72.2667 12.4539 900 97.0022 1355.18 494.038
792 0 72.2072 12.7688 922 98.7191 1354.75 491.413
793 0 76.1603 13.1039 998 96.8888 1354.64 490.024
794 0 78.133 12.8499 1004 98.6305 1354.78 487.355
795 0 80.2515 12.5481 1007 99.3009 1354.95 484.199
796 0 82.0951 12.583 1033 102.011 1354.9 482.099
797 0 86.1557 12.8024 1103 100.263 1355.7 480.7
798 0 86.32 12.8591 1110 101.004 1355.37 478.317
799 0 88.2528 12.4075 1095 102.506 1355.68 476.328
800 0 95.2302 13.9137 1325 96.2513 1355.55 474.983
801 0 96.1958 13.3686 1286 97.7675 1355.55 474.924
802 0 100.228 12.8308 1286 97.9852 1355.7 474.043
803 0 104.18 13.7646 1434 94.4463 1354.79 474.003
804 0 106.168 13.2243 1404 96.2614 1354.56 471.194
805 0 110.204 13.3571 1472 93.7602 1354.53 470.774
806 0 116.223 13.4311 1561 94.3959 1354.7 466.9
807 0 120.227 13.225 1590 95.9811 1354.61 465.877
808 0 127.133 12.5066 1590 96.4377 1354.55 464.991
809 0 134.16 12.6192 1693 95.762 1354.58 467.157
810 1 69.0986 13.8932 960 92.2125 1355.57 496.324
811 0 70.063 12.9312 906 96.149 1355.2 495.627
812 0 72.0729 12.7094 916 97.5655 1353.76 494.627
813 0 72.0512 13.1157 945 96.436 1353.32 492.941
814 0 75.1175 13.2992 999 96.987 1352.74 491.764
815 0 77.1131 12.9031 995 97.2814 1353.2 489.582
816 0 78.1021 13.1751 1029 97.518 1353.58 488.853
817 0 79.0176 13.2375 1046 98.805 1352.3 490.235
818 0 80.0722 12.9258 1035 101.888 1353.29 488.596
819 0 84.1139 13.8503 1165 100.218 1353.34 485.45
820 0 85.1029 12.9255 1100 104.678 1354.1 484.231
821 0 88.1205 12.5397 1105 105.908 1353.28 484.293
822 0 90.0492 12.6486 1139 106.194 1353.25 481.996
823 0 94.0705 13.0966 1232 105.127 1352.64 481.403
824 0 99.1517 13.5046 1339 103.435 1352.52 478.093
825 0 100.151 13.25 1327 102.423 1352.98 477.295
826 0 103.147 13.1851 1360 102.918 1352.52 474.416
827 1 56.1136 10.55 592 98.4358 1352.69 502.693
828 0 58.1876 12.0816 703 98.7255 1353.33 505.154
829 0 60.066 12.4197 746 84.9839 1353.67 508.649
830 0 64.1029 13.0883 839 84.1359 1352.09 507.514
831 0 65.0364 13.085 851 83.5323 1352.59 507.011
832 0 66.1185 12.6591 837 85.0275 1353.13 505.616
833 0 69.1607 12.6228 873 85.2635 1353.34 505.954
834 0 70.0556 12.3473 865 87.0012 1353.43 503.325
835 0 71.0597 12.7217 904 87.4347 1353.44 503.466
836 0 73.0634 12.6192 922 87.1584 1353.5 501.235
837 0 76.1945 12.5206 954 90.1006 1353.13 498.868
838 0 78.084 12.7683 997 91.4443 1353.08 496.685
839 0 82.0605 12.7467 1046 90.5306 1351.73 495.608
840 0 83.0514 12.9799 1078 90.5028 1351.76 494.456
841 0 86.0681 13.4312 1156 90.4377 1351.72 489.956
842 0 89.1501 13.2361 1180 92.2288 1351.61 488.972
843 0 89.1745 13.2998 1186 93.7125 1351.37 486.664
844 0 92.15 12.2192 1126 93.5515 1351.36 486.824
845 0 93.1902 13.1774 1228 98.0163 1351.58 485.614
846 0 96.1312 13.0863 1258 91.996 1351.49 484.799
847 0 100.144 12.4421 1246 93.4518 1351.22 482.442
848 0 102.091 12.1167 1237 94.0784 1351.66 482.215
849 0 102.082 12.0688 1232 146.651 1352.66 482.339
850 0 110.155 13.2722 1462 91.5752 1352.07 478.828
851 0 111.175 12.9975 1445 91.9785 1352.05 477.174
852 0 115.146 13.2701 1528 91.3999 1351.89 475.631
853 0 119.15 13.7893 1643 89.2027 1352.11 474.688
854 0 122.176 13.2269 1616 90.784 1352.2 474.134
855 0 125.342 13.7703 1726 89.9403 1352.58 470.644
856 1 70.1155 10.8678 762 87.5079 1352.29 499.5
857 0 70.1636 11.2166 787 86.9555 1352.22 498.083
858 0 74.1367 11.8835 881 86.269 1351.81 496.152
859 0 74.1309 11.8979 882 143.966 1350.82 495.967
860 0 75.0961 11.0525 830 88.3217 1352.4 492.417
861 0 78.1346 11.0323 862 89.4339 1351.79 492.129
862 0 78.1348 10.917 853 89.238 1351.63 490.2
863 0 79.0853 11.4054 902 89.0255 1352.45 487.56
864 1 155.254 14.0672 2184 93.4986 1352.53 444.756
865 0 160.179 14.6711 2350 92.1072 1352.53 443.786
866 0 164.183 14.965 2457 92.3171 1352.29 440.406
867 0 169.197 14.2437 2410 93.6349 1352.6 438.959
868 0 173.137 15.1903 2630 91.8612 1352.27 435.112
869 0 177.264 13.9509 2473 96.0182 1352.23 433.309
870 0 183.262 14.6402 2683 94.249 1351.94 427.248
871 1 140.198 12.3397 1730 97.233 1352.82 454.053
872 0 146.21 12.3726 1809 97.9425 1352.42 452.069
873 1 102.126 11.5935 1184 93.8851 1351.73 470.406
874 0 108.105 11.7016 1265 91.5202 1351.45 472.736
875 1 58.1154 10.2383 595 84.605 1351.76 500.84
876 0 64.1286 11.8824 762 85.0787 1352.57 502.365
877 0 62.0719 11.6478 723 77.9502 1353.08 500.578
878 0 64.0665 10.4267 668 82.1272 1353.22 501.618
879 0 65.0186 10.8892 708 78.9562 1352.65 502.379
880 0 69.0381 11.7037 808 75.6498 1352.53 500.809
881 0 70.0593 12.0184 842 76.0629 1352.41 499.124
882 0 74.0897 11.864 879 76.124 1352.76 497.944
883 0 76.0407 11.3755 865 78.904 1352.39 496.776
884 0 76.0475 11.1246 846 83.1241 1352.85 495.578
885 0 80.1122 12.1704 975 79.5395 1353.11 495.738
886 0 84.0373 12.4469 1046 80.6224 1353.25 493.902
887 0 85.1053 12.3024 1047 82.0946 1352.65 491.578
888 0 89.1098 11.267 1004 83.5149 1353.18 491.626
889 0 91.1115 11.9853 1092 81.554 1352.94 489.989
890 0 95.066 11.5393 1097 82.2552 1353.28 486.427
891 0 97.0937 11.8236 1148 82.6864 1353.48 485.31
892 1 50.0616 11.386 570 84.0596 1353.91 508.104
893 0 52.0684 11.4849 598 84.3495 1353.87 507.687
894 0 51.1549 11.5336 590 74.8373 1353.78 508.798
895 0 49.0697 10.801 530 78.3453 1354.02 509.009
896 0 53.0665 10.9674 582 79.2096 1353.11 506.966
897 0 55.1373 11.1358 614 77.7166 1354.34 506.134
898 0 56.0803 11.3944 639 77.6244 1354.43 505.002
899 0 58.1155 10.9437 636 77.1808 1353.91 505.197
900 0 60.0926 11.216 674 77.0504 1354.55 502.153
901 0 63.0847 11.223 708 77.3446 1354.25 501.945
902 0 64.2121 10.9792 705 76.7702 1354.04 502.392
903 0 65.1982 10.7518 701 75.3167 1354.26 501.208
904 0 67.138 9.86029 662 78.3414 1353.97 499.935
905 0 70.1372 10.4652 734 76.9741 1354.51 497.466
906 0 73.1162 10.1072 739 76.0162 1354.69 497.587
907 0 75.1331 9.98228 750 75.8547 1354.35 494.185
908 0 78.1086 10.8183 845 74.3882 1354.21 493.506
909 0 81.1232 10.7244 870 75.0506 1355.37 490.945
910 0 83.0769 9.90648 823 75.661 1354.67 492.01
911 1 46.0441 10.1424 467 76.7709 1353.58 507.218
912 0 50.0217 10.2755 514 76.2354 1354.85 505.325
913 0 52.0326 11.2429 585 74.8 1353.3 505.458
914 0 53.2015 11.635 619 76.6139 1352.93 505.205
915 0 55.0691 11.4583 631 84.9398 1353.2 504.485
916 0 55.1952 11.3235 625 88.1696 1354.46 502.934
917 0 58.0909 12.1361 705 85.366 1354.65 502.67
918 0 61.1711 11.9337 730 84.163 1354.69 503.174
919 0 61.1904 11.6522 713 84.9327 1354.47 501.133
920 0 62.2531 12.3207 767 82.7784 1353.66 500.12
921 0 64.1528 11.8779 762 82.0276 1354.25 499.378
922 0 66.1945 11.5569 765 79.5294 1354.33 498.286
923 0 68.2323 11.8126 806 76.6998 1353.92 498.89
924 0 70.2389 12.1727 855 77.1368 1353.86 499.761
925 0 73.1723 12.0811 884 76.7443 1354.05 498.548
926 0 73.1099 12.2555 896 77.577 1353.6 497.48
927 0 74.0711 10.9219 809 72.0321 1353.07 499.65
928 0 78.0623 11.3243 884 70.9706 1352.31 497.436
929 0 80.0256 11.0964 888 71.7691 1351.28 496.843
930 0 84.1243 11.3285 953 71.7209 1352.97 494.286
931 0 84.0432 11.2323 944 73.3316 1351.47 493.923
932 0 89.0438 11.3989 1015 72.5153 1351.32 493.106
933 0 92.0307 11.6157 1069 71.9149 1351.2 490.718
934 0 94.0637 11.6198 1093 72.5151 1351.86 489.639
935 0 97.1542 11.5487 1122 73.3235 1352.18 487.451
936 0 100.25 10.9626 1099 72.9591 1351.61 489.765
937 1 52.1088 11.8982 620 72.3855 1352.01 509.835
938 0 54.0691 12.1881 659 72.6388 1351.79 510.214
939 0 54.0962 11.6089 628 72.4889 1351.67 509.906
940 0 57.0639 13.1607 751 72.4927 1351.53 508.301
941 0 58.1003 13.0292 757 73.9366 1351.2 509.12
942 0 59.1163 12.7038 751 74.8815 1351.43 508.696
943 0 62.0586 13.0199 808 73.7265 1351.37 506.752
944 0 64.0504 12.74 816 74.0012 1351.79 506.634
945 0 66.0521 12.8838 851 73.0834 1351.42 505.072
946 0 67.095 12.0277 807 76.456 1351.13 505.336
947 0 70.0532 12.8617 901 74.9667 1350.63 503.675
948 0 73.0896 13.3535 976 74.3412 1351.37 501.512
949 0 73.0676 12.7279 930 77.1161 1351.3 503.139
950 0 75.111 11.969 899 79.8432 1351.8 499.544
951 0 78.0731 12.4883 975 86.638 1351.64 500.038
952 0 80.1684 12.4613 999 87.5135 1352.41 499.967
953 0 83.1785 12.4792 1038 88.8545 1353.46 496.834
954 0 87.1718 13.0317 1136 86.993 1351.46 494.879
955 0 89.1003 12.6487 1127 86.6362 1352.76 495.877
956 0 93.0891 13.3528 1243 75.0322 1351.95 490.857
957 0 96.1126 13.0888 1258 77.2003 1352.44 489.23
958 0 101.301 13.0305 1320 76.4659 1352.67 489.172
959 0 104.281 13.0608 1362 76.699 1352.59 485.758
960 0 106.154 12.5855 1336 79.0337 1352.74 483.966
961 0 109.18 12.2001 1332 80.1997 1353.12 480.338
962 0 115.106 12.406 1428 77.9076 1352.63 478.278
963 1 59.1027 12.4021 733 69.8158 1353.58 505.128
964 0 64.0768 12.8127 821 67.1754 1353.36 506.464
965 0 64.0631 12.675 812 67.4163 1353.64 505.95
966 0 65.0505 11.9446 777 69.7259 1353.63 507.021
967 0 67.0572 12.1985 818 68.8215 1353.72 505.867
968 0 68.068 12.4141 845 70.5006 1353.12 503.103
969 0 72.0594 12.226 881 68.8661 1353.76 502.072
970 0 74.119 11.5355 855 68.7696 1354.29 500.615
971 0 77.0847 12.4538 960 67.7885 1353.82 497.93
972 0 79.1617 11.9881 949 70.2097 1353.86 496.742
973 0 82.0793 12.6585 1039 69.5255 1353.98 494.64
974 0 86.1635 12.1861 1050 72.1295 1353.94 493.576
975 0 86.078 12.3841 1066 73.1764 1354.57 490.933
976 0 89.1249 12.23 1090 74.1716 1354.11 488.687
977 0 94.0847 12.1061 1139 74.2344 1353.79 487.411
978 0 98.1392 12.1154 1189 79.3616 1354.42 484.885
979 0 103.248 12.3973 1280 85.4594 1354.22 484.108
980 1 53.1156 10.0724 535 83.4972 1355.34 509.265
981 0 55.1077 11.6499 642 80.9159 1354.35 506.245
982 0 57.1035 11.1377 636 79.3962 1354.52 507.492
983 0 60.0516 11.6899 702 64.7023 1354.7 504.63
984 0 61.1516 11.447 700 67.47 1354.06 505.059
985 0 64.1457 11.318 726 66.7259 1354.07 504.38
986 0 65.037 11.947 777 67.4672 1353.76 502.458
987 0 67.0591 11.6464 781 69.2036 1353.63 500.362
988 0 69.0672 10.9893 759 71.1713 1354.01 499.848
989 0 72.1366 12.4902 901 70.9012 1354.09 498.088
990 0 75.0614 12.5364 941 71.7396 1353.9 497.349
991 0 78.2671 12.2401 958 74.2923 1354.37 496.288
992 0 81.097 13.2557 1075 73.8633 1354.38 494.877
993 0 82.0986 13.2402 1087 75.1555 1354.52 493.309
994 0 86.1735 13.0435 1124 77.1993 1353.89 492.544
995 0 86.1726 12.9159 1113 80.1069 1353.53 490.847
996 0 91.2118 13.2658 1210 79.0992 1353.5 489.458
997 0 93.1809 12.8352 1196 82.8085 1354.49 486.971
998 0 96.2357 12.7707 1229 89.9764 1354.44 486.881
999 0 100.137 13.3518 1337 89.8661 1354.4 483.841
1000 0 102.174 13.3204 1361 91.0698 1354.15 482.424
1001 0 106.156 13.5932 1443 90.6868 1354.34 480.051
1002 0 107.271 13.5544 1454 89.4704 1354.38 480.104
1003 1 55.1245 10.6486 587 82.6916 1354.89 508.394
1004 0 56.1393 11.5605 649 83.9908 1355.63 503.538
1005 0 58.1183 11.2357 653 82.0322 1355.91 503.882
1006 0 60.0264 12.178 731 78.4624 1354.87 504.405
1007 0 61.043 11.7458 717 79.7852 1355.07 503.403
1008 0 63.0612 12.5275 790 78.0139 1355.2 503.197
1009 0 66.1105 12.5699 831 75.9639 1355.43 503.86
1010 0 69.1054 12.575 869 76.5892 1355.3 502.557
1011 0 69.068 12.466 861 76.9338 1355.22 501.242
1012 0 71.0877 11.9993 853 77.8324 1354.67 499.59
1013 0 74.1003 13.5627 1005 75.5343 1354.63 497.648
1014 0 77.0989 13.2168 1019 76.5761 1354.52 497.271
1015 0 80.0654 13.1642 1054 77.4042 1353.98 496.031
1016 0 81.074 13.0621 1059 78.1756 1354.28 493.783
1017 0 84.0266 12.9483 1088 79.2794 1354.34 494.036
1018 0 85.0672 12.2727 1044 81.0785 1355.08 492.995
1019 0 87.0622 12.0259 1047 83.0926 1354.92 491.361
1020 0 91.1063 12.6446 1152 82.079 1355.23 489.464
1021 0 93.0487 12.7353 1185 81.8414 1355.55 488.994
1022 0 97.0716 12.362 1200 81.0725 1355.53 486.161
1023 0 99.16 13.211 1310 79.6634 1355.89 484.563
1024 0 103.187 11.7166 1209 89.3118 1355.5 482.409
1025 0 106.164 12.6879 1347 85.8805 1355.06 482.168
1026 1 56.0421 10.3672 581 81.4802 1356.35 506.639
1027 0 57.0149 10.9796 626 77.9329 1354.99 506.243
1028 0 58.0947 11.86 689 75.8911 1354.43 505.547
1029 0 59.0323 11.6885 690 77.2101 1354.28 503.812
1030 0 62.0264 11.0114 683 78.47 1354.95 504.07
1031 0 65.0566 12.5583 817 76.3904 1354.45 503.083
1032 0 63.0613 12.0201 758 124.761 1353.37 501.97
1033 0 68.0242 11.9663 814 80.355 1354.67 500.14
1034 0 70.0357 12.3508 865 79.9272 1354.76 498.902
1035 0 73.0425 12.4996 913 79.6769 1353.69 498.559
1036 0 75.1256 12.1796 915 81.2251 1353.48 497.291
1037 0 76.0894 12.183 927 82.5469 1353.86 495.96
1038 0 79.0573 12.5605 993 82.2276 1353.67 494.444
1039 0 82.0461 12.3833 1016 81.5551 1352.9 494.005
1040 0 83.0425 12.3672 1027 82.9591 1353.56 491.777
1041 0 85.0933 12.7037 1081 81.7123 1353.2 489.593
1042 0 89.0713 13.2815 1183 80.2713 1353.12 489.417
1043 0 90.1301 12.5041 1127 82.1491 1353.14 488.842
1044 0 94.1279 12.8655 1211 92.4443 1353.4 487.302
1045 0 97.0974 12.9046 1253 90.9465 1352.85 485.254
1046 0 100.134 12.4633 1248 92.1723 1352.65 484.132
1047 0 103.1 13.0359 1344 91.2039 1352.85 481.837
1048 0 106.143 12.1817 1293 94.1609 1352.85 481.935
1049 0 108.159 12.3707 1338 94.0247 1353.51 480.871
1050 0 111.17 12.3954 1378 89.6967 1353.65 478.582
1051 0 115.125 12.8034 1474 87.964 1353.58 477.706
1052 0 118.171 11.8726 1403 88.6693 1353.19 475.415
1053 0 122.072 12.2961 1501 86.4444 1352.33 475.049
1054 0 123.104 10.1703 1252 87.1534 1353.5 468.662
1055 1 66.1842 10.5312 697 80.2195 1354.99 500.614
1056 0 67.0987 10.2237 686 81.086 1355.1 501.448
1057 0 71.1124 11.3201 805 78.1615 1355.35 499.945
1058 0 71.0938 11.5481 821 80.1023 1354.27 498.816
1059 0 74.0171 10.8083 800 81.955 1355.36 497.469
1060 0 78.1173 12.558 981 77.6942 1354.35 497.249
1061 0 79.2107 12.006 951 78.3985 1354.78 495.75
1062 0 80.13 11.3066 906 79.83 1354.53 495.578
1063 0 85.2344 11.8027 1006 77.8241 1354.35 495.194
1064 0 86.1856 11.5913 999 78.1261 1354.82 494.035
1065 0 89.083 11.5959 1033 79.7212 1354.24 491.132
1066 0 90.1247 10.8516 978 81.089 1354.2 489.971
1067 0 95.1632 12.095 1151 78.2997 1354.57 487.611
1068 0 96.1098 11.3412 1090 79.4468 1354.28 486.407
1069 0 101.1 11.8299 1196 78.908 1354 485.9
1070 0 103.118 11.3947 1175 79.2034 1354.04 483.329
1071 0 105.167 12.1521 1278 79.5125 1354.33 482.546
1072 0 110.099 11.853 1305 80.4552 1354.25 479.265
1073 0 113.19 11.9091 1348 81.5119 1354.07 479.556
1074 0 115.162 12.1481 1399 82.7706 1354.02 478.016
1075 0 121.249 12.4042 1504 84.3444 1354.23 475.358
1076 0 126.308 12.1845 1539 92.0643 1353.73 475.501
1077 0 126.318 12.1757 1538 143.235 1353.75 475.363
1078 0 131.311 12.1696 1598 94.0707 1354.36 470.857
1079 1 70.2049 10.74 754 91.2586 1354.82 502.955
1080 0 72.2681 10.7101 774 93.6977 1355.16 502.075
1081 0 73.1467 11.8666 868 90.6394 1354.94 497.437
1082 0 72.2049 11.2458 812 95.053 1355.08 496.829
1083 0 73.125 10.3932 760 88.4658 1355.41 501.521
1084 0 76.1115 11.5751 881 87.16 1354.72 498.629
1085 0 79.1827 10.7094 848 88.9198 1353.09 498.113
1086 0 81.1313 11.7957 957 88.1087 1353.71 497.136
1087 0 82.1561 11.6364 956 89.3588 1353.58 495.561
1088 0 86.1356 11.7837 1015 89.7832 1353.24 495.379
1089 0 88.1145 11.7461 1035 103.128 1353.39 492.93
1090 0 92.3065 11.516 1063 103.951 1354.1 491.556
1091 0 93.1711 11.1623 1040 103.555 1353.11 490.194
1092 0 96.1302 11.2972 1086 97.5064 1352.47 488.295
1093 0 101.147 11.5377 1167 96.4259 1353.39 486.533
1094 0 101.083 11.4955 1162 99.0387 1353.28 483.318
1095 1 56.0503 10.0981 566 100.224 1352.9 506.175
1096 0 59.0694 11.478 678 96.4248 1352.73 505.491
1097 0 62.0834 10.9047 677 101.136 1353.08 505.66
1098 0 60.0331 10.3776 623 89.3082 1353.68 509.379
1099 0 62.1177 9.73957 605 90.8347 1354.95 512.744
1100 0 64.0722 10.6442 682 88.8607 1354.4 511.855
1101 0 65.1255 10.2878 670 90.3119 1353.95 508.537
1102 0 66.1036 10.3171 682 89.739 1353.25 507.688
1103 0 69.1206 10.9085 754 88.0398 1353.45 507.857
1104 0 71.0938 10.9433 778 87.4871 1352.9 503.684
1105 0 73.0689 10.6201 776 86.7216 1353.39 504.43
1106 0 76.1784 10.4098 793 85.86 1354.03 503.352
1107 0 78.0976 10.743 839 84.6162 1354.12 502.747
1108 0 83.1336 11.4996 956 83.5408 1354.35 500.037
1109 0 84.1353 11.3032 951 84.0568 1354.26 498.261
1110 0 89.1548 11.8782 1059 81.8924 1353.93 496.355
1111 0 91.1443 11.3885 1038 83.3285 1353.47 494.874
1112 0 94.1446 11.5673 1089 83.8127 1353.85 492.83
1113 0 98.1435 12.1557 1193 82.4376 1353.96 490.817
1114 1 51.0384 10.3256 527 80.3529 1352.89 514.313
1115 0 53.0164 10.4685 555 78.9514 1353.79 513.634
1116 0 54.0628 11.4496 619 78.7738 1355.14 513.074
1117 0 55.1447 11.4064 629 82.0397 1355.46 510.01
1118 0 58.131 11.0268 641 82.8112 1353.99 512.916
1119 0 58.0906 11.5337 670 83.4851 1355.94 509.121
1120 0 61.038 12.566 767 80.4654 1354.15 509.703
1121 0 60.1452 11.5221 693 79.7229 1355.56 508.987
1122 0 59.0992 10.66 630 81.8873 1355.64 512.867
1123 0 60.1541 10.4565 629 81.4563 1355.35 509.68
1124 0 62.1696 11.356 706 80.8938 1355.52 508.431
1125 0 64.0784 10.6276 681 84.4567 1355.43 508.675
1126 0 67.2686 10.8669 731 86.8824 1355.78 505.49
1127 0 68.0846 10.8982 742 83.0822 1355.12 505.733
1128 0 71.11 11.2361 799 86.015 1354.36 503.857
1129 0 73.1161 11.0099 805 89.9317 1354.43 505.174
1130 0 75.1285 11.2208 843 88.3606 1354.04 504.452
1131 0 79.1142 11.515 911 86.7113 1354.58 500.806
1132 0 81.1431 12.1267 984 89.5468 1354.15 499.295
1133 0 85.0909 12.4573 1060 85.5472 1354.2 499.138
1134 0 87.1112 12.0421 1049 87.062 1353.82 496.05
1135 0 92.1505 12.7834 1178 88.3124 1354.14 496.101
1136 1 47.0906 10.809 509 92.3694 1353.91 519.043
1137 0 49.0579 11.1705 548 91.9599 1354.05 516.038
1138 0 50.1156 12.1719 610 91.5312 1354.89 515.248
1139 0 53.0539 12.0067 637 95.2418 1354.55 513.36
1140 0 53.0512 12.2523 650 96.9785 1354.62 512.622
1141 0 57.0227 13.9593 796 104.294 1353.61 513.392
1142 0 57.0572 12.8643 734 104.203 1353.18 512.064
1143 0 59.1006 12.6902 750 111.957 1353.69 511.763
1144 0 62.0681 13.1468 816 109.904 1353.5 510.114
1145 0 63.0782 13.6814 863 108.368 1353.81 510.214
1146 0 66.0791 13.4384 888 107.519 1352.87 509.596
1147 0 65.1435 13.4933 879 109.531 1353.68 507.628
1148 0 67.1293 13.3474 896 108.642 1353.59 507.172
1149 0 68.1177 13.2565 903 109.432 1353.83 504.94
1150 0 72.1525 13.2913 959 95.7716 1354.24 504.223
1151 0 69.0571 12.3231 851 94.4759 1352.63 506.414
1152 0 73.1168 13.1434 961 93.0229 1352.61 504.238
1153 0 74.0591 12.7466 944 93.9142 1352.02 503.513
1154 0 76.065 12.818 975 92.3826 1352.05 501.906
1155 0 77.0601 12.5227 965 93.2611 1351.68 499.617
1156 0 80.0547 12.8662 1030 92.8592 1351.92 498.589
1157 0 80.1189 13.093 1049 92.5243 1352.25 497.734
1158 0 82.0921 12.3885 1017 96.1534 1351.96 495.946
1159 0 85.0818 12.3058 1047 95.7564 1351.76 494.996
1160 0 87.1176 12.661 1103 95.7561 1351.84 494.795
1161 0 91.0592 13.0245 1186 99.3676 1351.35 493.05
1162 0 92.0995 12.4213 1144 102.684 1351.98 492.754
1163 0 94.1378 12.9916 1223 99.4481 1351.52 491.165
1164 0 97.1402 12.4974 1214 101.655 1351.61 489.286
1165 0 98.1665 12.326 1210 103.777 1351.63 486.519
1166 0 101.242 12.4751 1263 102.207 1352.73 483.833
1167 0 105.149 13.2099 1389 100.891 1352.81 482.699
1168 0 105.136 12.5266 1317 103.674 1352.79 481.932
1169 0 110.228 12.8461 1416 104.505 1352.03 480.338
1170 1 54.1291 10.6782 578 102.194 1351.67 507.476
1171 0 57.1608 10.8641 621 100.992 1351.42 506.91
1172 0 58.1071 11.1002 645 96.8403 1351.95 506.524
1173 0 60.0297 11.5776 695 103.737 1351.85 505.197
1174 0 62.0432 12.2657 761 102.899 1352.14 503.464
1175 0 65.1449 11.5589 753 106.976 1352.23 502.91
1176 0 67.0626 12.4063 832 105.435 1352.28 502.248
1177 0 68.0715 12.575 856 105.541 1352.76 502.598
1178 0 69.1066 12.0104 830 108.967 1351.5 499.794
1179 0 72.1403 12.7391 919 110.554 1351.7 502.312
1180 0 75.2174 12.9491 974 109.695 1351.72 502.72
1181 0 74.1871 12.6976 942 112.294 1352.18 502.962
1182 0 77.1274 12.7322 982 110.506 1352.24 504.487
1183 0 78.155 11.7587 919 116.222 1352.23 503.484
1184 0 81.1696 12.5909 1022 113.286 1352.26 502.155
1185 0 84.2613 12.5799 1060 112.254 1351.85 499.737
1186 0 86.2404 13.0101 1122 112.624 1353 499.299
1187 0 89.3284 12.8403 1147 114.891 1351.94 497.271
1188 1 46.1515 11.7006 540 119.446 1352.41 515.474
1189 0 50.0946 12.0971 606 114.073 1352.12 515.358
1190 0 51.0834 12.7243 650 106.12 1352.13 515.672
1191 0 54.1948 12.7319 690 100.526 1352.55 514.512
1192 0 50.2344 11.6852 587 103.019 1352.4 515.879
1193 0 51.044 12.1856 622 101.762 1352.27 514.449
1194 0 55.1474 12.0767 666 98.5616 1352.48 513.152
1195 0 56.0694 12.1813 683 96.8082 1352.3 513.455
1196 0 58.1012 11.9447 694 108.746 1352.41 511.324
1197 0 59.0565 12.3441 729 96.941 1353.02 510.583
1198 0 60.0469 12.1405 729 98.1975 1352.45 510.239
1199 0 62.0942 12.2717 762 99.3845 1352.34 510.621
1200 0 64.0767 12.844 823 97.8724 1352.68 508.764
1201 0 67.0911 12.7588 856 99.3446 1352.44 507.959
1202 0 69.0538 13.0623 902 98.959 1352.79 506.083
1203 0 72.0579 12.5455 904 101.717 1352.69 504.816
1204 0 74.1191 13.3029 986 101.739 1352.66 503.536
1205 0 75.0621 13.5488 1017 102.703 1352.47 503.606
1206 0 79.1456 13.3046 1053 119.297 1353.65 501.834
1207 0 81.071 13.297 1078 120.755 1353.7 500.53
1208 0 82.1052 12.9468 1063 125.237 1353.42 499.356
1209 0 84.1324 12.932 1088 125.574 1353.91 498.174
1210 0 86.1189 13.3885 1153 123.44 1353.23 497.971
1211 0 90.0901 13.1424 1184 122.69 1352.42 495.666
1212 0 93.0941 13.1265 1222 121.098 1352.88 493.606
1213 0 96.1121 13.5155 1299 120.269 1352.77 493.726
1214 0 96.0502 13.1806 1266 126.15 1352.53 491.059
1215 0 101.198 13.7256 1389 122.47 1353.31 489.582
1216 0 103.085 13.6005 1402 124.603 1353.08 488.332
1217 0 105.058 13.9447 1465 124.008 1352.13 487.117
1218 0 109.098 14.1432 1543 121.447 1352.07 484.881
1219 0 112.101 13.9963 1569 121.627 1352.26 483.892
1220 0 118.174 13.7424 1624 119.802 1352.1 480.399
1221 0 120.146 14.4241 1733 118.245 1352.2 479.922
1222 0 125.163 14.8207 1855 118.282 1352.25 478.181
1223 1 56.1132 12.5461 704 120.355 1352.91 510.83
1224 0 59.0786 13.1858 779 119.349 1353.17 510.045
1225 0 61.0409 13.4008 818 117.826 1353.43 508.125
1226 0 62.1329 13.7286 853 118.957 1352.57 507.991
1227 0 65.0368 13.2848 864 118.868 1352.6 506.793
1228 0 67.1568 13.8333 929 116.559 1352.43 504.115
1229 0 72.2059 14.5833 1053 111.741 1352.5 503.878
1230 0 73.1677 14.2823 1045 112.97 1352.63 500.818
1231 0 75.2135 14.625 1100 112.563 1352.52 499.2
1232 0 77.2511 14.1746 1095 115.722 1352.78 497.771
1233 0 80.3189 14.9529 1201 111.523 1352.78 497.571
1234 0 82.311 14.8461 1222 113.306 1353.08 494.636
1235 0 85.2304 14.7835 1260 113.019 1354.35 493.64
1236 0 88.2387 13.8488 1222 116.692 1353.15 491.016
1237 0 90.2091 14.023 1265 116.978 1352.7 489.953
1238 0 93.2271 14.0303 1308 115.382 1353.12 489.565
1239 0 97.2671 13.8999 1352 116.837 1352.65 487.965
1240 1 49.0306 10.524 516 108.074 1354.98 511.273
1241 0 50.0596 10.6673 534 102.91 1353.98 507.682
1242 0 52.0249 11.5906 603 102.284 1353.99 506.884
1243 0 52.1429 11.2 584 103.721 1353.02 504.671
1244 0 54.0695 11.5962 627 99.9027 1353.35 504.161
1245 0 56.0277 11.3158 634 100.287 1354.28 502.468
1246 0 58.118 11.6315 676 98.5266 1353.13 501.519
1247 0 59.0388 11.1791 660 98.4364 1352.89 499.661
1248 0 62.0622 11.1179 690 99.071 1352.75 499.377
1249 0 64.2022 11.7597 755 98.5576 1352.93 500.07
1250 0 65.0687 11.5417 751 94.8083 1354.18 506.142
1251 0 68.0779 12.3976 844 92.7429 1354.13 503.81
1252 0 71.1407 12.3417 878 91.4989 1353.77 503.3
1253 0 73.0971 11.5873 847 93.0295 1354.58 502.371
1254 0 74.1633 11.8927 882 92.0646 1353.86 502.449
1255 0 74.1633 11.8927 882 132.633 1353.86 502.489
1256 0 82.1565 12.9874 1067 87.687 1355.16 497.488
1257 0 84.2202 12.0636 1016 89.8563 1355.74 495.926
1258 0 85.1281 11.9819 1020 86.7265 1354.83 494.158
1259 0 90.122 11.784 1062 86.0254 1354.08 493.001
1260 0 93.2398 12.7199 1186 84.8794 1353.65 489.748
1261 1 52.0829 11.1937 583 83.4768 1354.02 511.895
1262 0 53.104 11.8635 630 84.454 1354.25 509.905
1263 0 54.1146 12.067 653 85.3859 1354.58 509.219
1264 0 56.3167 12.1989 687 94.508 1354.54 508.975
1265 0 58.2097 12.266 714 94.2269 1354.6 506.352
1266 0 59.2534 12.4719 739 95.2788 1354.41 506.08
1267 0 58.1293 11.2336 653 85.7841 1354.86 506.429
1268 0 60.054 11.0401 663 85.5415 1354.75 506.32
1269 0 62.0599 10.8121 671 87.4292 1354.3 506.156
1270 0 62.0669 10.537 654 87.9236 1354.02 506.122
1271 0 64.0942 10.469 671 87.462 1354.03 503.788
1272 0 66.0284 10.5561 697 82.5638 1353.27 499.562
1273 0 68.0568 10.7998 735 89.317 1352.88 502.871
1274 0 69.0873 10.9282 755 89.1987 1353.34 501.233
1275 0 72.0666 9.81036 707 90.7878 1354.37 499.942
1276 0 74.0419 10.5751 783 90.2235 1354.35 500.816
1277 0 77.0745 10.5612 814 90.3673 1354.5 497.33
1278 0 80.1185 9.8604 790 90.2165 1353.8 498.372
1279 0 82.1156 10.6557 875 88.8126 1353.92 497.624
1280 0 85.1602 10.8501 924 88.2922 1353.54 496.897
1281 0 88.103 11.2368 990 89.5222 1353.13 493.491
1282 0 89.1181 10.6376 948 87.2785 1353.17 493.213
1283 0 94.1574 10.0789 949 88.9473 1353.27 490.307
1284 0 96.1553 10.0774 969 89.903 1353.74 488.107
1285 1 50.0993 10.3993 521 89.3992 1354.01 509.754
1286 0 52.2188 11.2795 589 96.7776 1354.23 508.384
1287 0 52.0863 10.8666 566 89.3816 1354.39 506.002
1288 0 53.1626 10.6466 566 87.3233 1354.48 510.726
1289 0 54.1147 11.3278 613 85.3246 1354.28 511.294
1290 0 56.1144 10.7459 603 85.5423 1354.57 510.915
1291 0 58.1944 10.3446 602 85.7076 1354.56 509.372
1292 0 60.0895 11.3165 680 84.4794 1354.39 509.053
1293 0 62.2088 10.3201 642 86.4284 1354.07 509.29
1294 0 64.1298 11.851 760 83.4303 1353.69 506.45
1295 0 67.0979 11.5652 776 84.1108 1354.18 503.816
1296 0 70.0817 11.772 825 83.6448 1353.69 502.653
1297 0 70.0971 11.8265 829 84.193 1353.4 502.022
1298 0 72.0878 11.3334 817 85.2044 1353.81 499.853
1299 0 76.0925 12.4454 947 82.8944 1353.5 498.177
1300 0 78.1181 11.457 895 84.0022 1354.05 499.542
1301 0 81.0615 11.7195 950 85.2632 1354.08 495.588
1302 0 83.0558 12.1364 1008 85.8165 1354.05 494.849
1303 1 41.0259 9.84743 404 86.2921 1353.66 515.569
1304 0 43.0185 10.4606 450 85.3778 1353.8 514.887
1305 0 46.0611 10.3775 478 83.4142 1353.45 515.322
1306 0 48.0854 10.8765 523 85.608 1354.23 513.533
1307 0 48.2466 11.9594 577 86.1074 1354 510.3
1308 0 51.2312 13.0194 667 87.084 1353.53 508.831
1309 0 51.104 12.7192 650 80.6846 1353.68 514.171
1310 0 53.1153 12.6329 671 81.4158 1353.71 513.396
1311 0 55.0951 12.3968 683 82.429 1354.38 512.151
1312 0 55.1006 13.0126 717 87.7266 1354.15 510.432
1313 0 58.0828 11.7591 683 82.4963 1354.07 510.676
1314 0 61.0668 13.5098 825 79.1576 1353.95 508.893
1315 0 61.0679 12.8218 783 81.567 1353.97 507.543
1316 0 63.117 13.3403 842 80.7352 1353.85 507.328
1317 0 64.0668 11.9407 765 83.0288 1353.97 507.182
1318 0 66.1332 11.0686 732 87.3169 1353.57 503.172
1319 0 69.1561 12.2332 846 84.3865 1353.73 503.603
1320 0 73.0944 12.1624 889 85.3161 1353.87 501.754
1321 0 74.0919 11.7287 869 87.3418 1353.56 501.532
1322 0 76.1276 12.4002 944 86.483 1353.82 501.44
1323 0 78.0657 11.7978 921 88.43 1353.33 499.608
1324 0 80.1074 11.185 896 90.3605 1354.15 499.137
1325 0 85.1143 11.9721 1019 88.2169 1354.02 497.64
1326 1 41.0249 11.4564 470 83.6681 1355.78 517.689
1327 0 44.0261 11.5159 507 83.1972 1355.16 517.611
1328 0 46.0315 11.427 526 85.3232 1354.58 516.336
1329 0 46.1433 11.0308 509 85.3536 1354.43 514.436
1330 0 47.1638 12.0431 568 83.5757 1354.02 516.537
1331 0 49.0902 12.202 599 82.7796 1354.03 514.641
1332 0 51.1433 12.8658 658 79.2158 1353.72 512.918
1333 0 53.0597 12.665 672 79.6176 1353.85 511.719
1334 0 56.053 12.4525 698 80.0659 1353.76 511.865
1335 0 57.0478 11.8146 674 80.503 1353.82 511.356
1336 0 60.0162 12.2134 733 80.7231 1353.6 510.119
1337 0 62.0618 12.9387 803 78.3076 1353.7 508.924
1338 0 64.0677 12.7678 818 80.2555 1353.1 509.166
1339 0 66.0781 13.3176 880 82.0489 1353.24 507.015
1340 0 69.0834 13.5199 934 81.9465 1353.83 506.678
1341 0 69.0382 13.0652 902 83.9645 1353.35 506.216
1342 0 73.068 12.7142 929 85.4069 1354.13 504.592
1343 0 75.0583 12.6435 949 87.2413 1353.38 503.328
1344 0 77.1028 12.9956 1002 86.8772 1352.79 501.768
1345 0 81.0979 13.2802 1077 90.5162 1353 502.064
1346 0 84.1082 13.2211 1112 92.3156 1351.48 496.702
1347 0 86.1725 13.0088 1121 93.1686 1351.83 492.694
1348 0 88.1419 12.9677 1143 95.0201 1351.4 492.64
1349 0 92.2287 13.0111 1200 94.265 1351.79 491.935
1350 0 94.1217 13.0682 1230 95.9049 1352.33 491.308
1351 0 98.1591 13.3559 1311 92.4264 1352.72 488.593
1352 0 100.185 13.1258 1315 92.5574 1351.72 488.121
1353 1 52.0829 12.1921 635 92.7937 1351.93 511.718
1354 0 54.0556 12.8756 696 94.2471 1351.41 511.253
1355 0 56.0496 13.2383 742 96.4771 1352.19 510.019
1356 0 58.0749 13.2932 772 99.3148 1353.42 512.207
1357 0 59.1346 13.2072 781 102.132 1352.91 510.177
1358 0 61.2713 13.2036 809 103.073 1353.12 507.659
1359 0 62.3217 13.8956 866 104.066 1353.37 506.5
1360 0 65.2406 13.6265 889 104.672 1353.49 505.613
1361 0 68.3113 13.6288 931 104.604 1352.73 505.15
1362 0 69.2287 13.896 962 104.534 1352.83 504.724
1363 0 71.3566 13.6357 973 106.31 1353.17 502.127
1364 0 75.2925 13.6933 1031 106.186 1353.08 500.75
1365 0 78.3491 14.1418 1108 106.628 1353.38 500.533
1366 0 81.2499 13.9939 1137 110.244 1353.29 499.171
1367 0 84.218 14.1894 1195 110.587 1352.82 497.444
1368 0 85.2715 14.4011 1228 110.097 1353.2 496.881
1369 0 87.3092 13.7672 1202 110.214 1352.89 495.258
1370 0 92.4107 14.3382 1325 108.491 1351.97 492.389
1371 0 93.277 13.4653 1256 112.269 1352.8 491.396
1372 1 52.2492 12.0002 627 107.502 1353.45 512.743
1373 0 53.1891 12.9162 687 106.617 1353.56 511.454
1374 0 56.1611 12.0368 676 108.991 1353.44 511.219
1375 0 59.1263 13.7333 812 103.815 1353.42 510.494
1376 0 59.1637 13.1838 780 107.135 1353.03 510.217
1377 0 61.0931 12.6528 773 103.15 1353.27 510.495
1378 0 60.0753 12.8006 769 105.256 1352.8 510.231
1379 0 62.0346 12.4447 772 104.192 1353.37 510.43
1380 0 62.0922 12.5297 778 111.654 1353.46 510.118
1381 0 62.1296 12.8441 798 114.629 1353.17 510.367
1382 0 63.1664 12.9183 816 114.864 1353.33 509.738
1383 0 63.1109 13.0089 821 114.619 1353.53 508.725
1384 0 66.1016 12.9498 856 111.158 1352.47 508.741
1385 0 69.0915 12.563 868 107.697 1352.44 507.577
1386 0 70.0706 12.6016 883 103.592 1351.82 508.085
1387 0 72.0864 12.3186 888 101.052 1352.25 506.73
1388 0 74.0896 12.3229 913 98.4589 1352.53 504.984
1389 0 76.2823 12.4013 946 96.2135 1352.63 502.2
1390 0 79.1686 12.6186 999 94.9109 1352.01 500.685
1391 0 82.3099 12.4772 1027 93.8432 1351.29 499.784
1392 0 84.2898 12.0181 1013 95.2626 1351.47 498.554
1393 0 87.2495 11.7708 1027 97.2834 1352.43 497.166
1394 1 46.2241 10.6438 492 91.5346 1352.67 516.638
1395 0 50.2028 10.7364 539 92.6994 1352.73 516.588
1396 0 50.14 11.3881 571 94.8739 1352.42 514.799
1397 0 53.0491 11.6873 620 92.5274 1352.82 516.513
1398 0 52.0988 11.9005 620 96.0581 1352.87 515.194
1399 0 56.0349 11.9211 668 105.493 1352.82 512.138
1400 0 56.0303 12.4219 696 105.618 1352.53 511.619
1401 0 58.0349 12.3546 717 107.322 1352.51 511.066
1402 0 60.0296 11.9608 718 109.118 1352.09 510.266
1403 0 61.0155 12.4231 758 106.31 1352.33 509.819
1404 0 61.0288 12.3876 756 109.653 1352.27 507.997
1405 0 63.0711 12.5414 791 108.312 1352.22 508.909
1406 0 66.1026 12.5714 831 108.84 1352.29 507.349
1407 0 65.0971 12.7809 832 109.337 1352.69 507.721
1408 0 65.1233 12.4533 811 102.326 1352.19 507.514
1409 0 65.1099 11.4268 744 105.281 1351.08 507.933
1410 0 67.1042 11.7429 788 105.921 1351.73 506.716
1411 0 69.0488 11.557 798 107.311 1351.16 505.4
1412 0 70.0988 11.7691 825 108.665 1352.28 504.56
1413 0 72.049 11.6032 836 110.233 1352.16 504.115
1414 0 76.0942 11.5646 880 113.38 1352.32 502.147
1415 0 77.0659 12.2233 942 113.058 1352.12 501.636
1416 0 79.0752 11.7104 926 116.43 1352.06 499.785
1417 0 80.0569 12.0664 966 115.801 1352.72 500.351
1418 0 84.1213 12.7078 1069 111.777 1351.8 498.334
1419 0 87.1099 12.467 1086 112.134 1352.57 498.493
1420 0 87.1458 11.8767 1035 115.07 1352.18 496.299
1421 0 88.0869 12.5217 1103 114.104 1352.29 495.336
1422 0 93.1227 12.8433 1196 112.768 1352.61 494.522
1423 0 95.0862 12.3677 1176 114.742 1352.27 491.37
1424 0 97.1388 12.7344 1237 114.548 1352.23 490.66
1425 0 97.0932 12.2357 1188 118.724 1352.53 489.125
1426 0 101.134 12.6762 1282 116.353 1352.3 486.497
1427 0 103.12 13.0527 1346 117.29 1352.58 484.737
1428 0 107.122 12.7425 1365 118.302 1352.44 481.902
1429 0 108.066 12.77 1380 118.81 1352.28 480.483
1430 0 110.068 12.7648 1405 118.708 1352.28 478.324
1431 0 112.122 13.2623 1487 118.115 1352.66 473.773
1432 0 117.143 13.0439 1528 115.739 1352.48 472.719
1433 0 119.197 13.4399 1602 114.08 1352.62 472.961
1434 0 123.084 13.8361 1703 110.427 1353 469.132
1435 0 122.122 13.0034 1588 114.408 1352.55 467.229
1436 0 129.068 13.0242 1681 112.782 1352.78 464.542
1437 0 134.116 13.2199 1773 110.787 1352.31 463.279
1438 0 136.106 13.4675 1833 111.113 1352.39 460.131
1439 0 138.149 13.2104 1825 112.072 1352.94 457.884
1440 0 145.238 13.2541 1925 111.887 1353.11 456.552
1441 0 148.14 13.6357 2020 111.18 1352.78 451.127
1442 0 153.203 13.6616 2093 110.043 1352.12 451.448
1443 0 157.137 13.7905 2167 110.653 1352.8 447.192
1444 0 162.215 13.9198 2258 110.582 1352.75 444.396
1445 0 168.142 13.5422 2277 111.936 1352.16 441.502
1446 0 173.17 13.4203 2324 113.546 1352.62 439.035
1447 0 179.232 13.9372 2498 111.566 1352.07 435.386
1448 0 183.22 13.7266 2515 110.991 1352.16 433.145
1449 0 191.209 13.6081 2602 111.408 1351.38 431.335
1450 0 198.225 13.7571 2727 111.644 1351.49 425.684
1451 0 203.239 13.093 2661 113.344 1351.21 420.605
1452 0 210.266 13.3973 2817 111.595 1350.81 412.971
1453 0 220.383 14.1708 3123 107.409 1351.61 409.964
1454 0 227.218 13.0844 2973 108.376 1351.77 408.423
1455 0 233.226 12.3485 2880 108.534 1351.14 405.237
1456 0 241.243 12.6968 3063 107.012 1351.75 410.868
1457 0 240.242 10.1689 2443 110.778 1352.25 410.531
1458 1 73.0419 11.1854 817 82.6548 1353.33 499.63
1459 0 73.1206 10.8861 796 84.8995 1352.04 499.492
1460 0 77.0937 11.0126 849 81.3828 1352.17 498.913
1461 0 79.0589 11.055 874 81.3993 1351.54 497.895
1462 0 79.0732 10.6736 844 83.2263 1352.52 497.607
1463 0 84.0816 10.7752 906 82.3731 1351.94 496.132
1464 0 84.0662 10.5036 883 84.974 1351.65 496.493
1465 0 88.1147 10.7587 948 83.1751 1351.42 494.042
1466 0 91.0705 10.2668 935 83.9123 1351.89 493.197
1467 0 94.1091 9.8184 924 84.4004 1351.31 491.282
1468 0 98.1803 10.6946 1050 83.5486 1350.95 487.73
1469 1 52.0734 10.5236 548 82.9197 1351.62 510.361
1470 0 56.0315 11.6542 653 82.3522 1351.48 510.583
1471 0 58.1076 11.2378 653 80.4074 1351.68 509.299
1472 0 59.0961 11.1006 656 80.9832 1352.15 507.62
1473 0 61.1336 11.2213 686 81.621 1352 508.124
1474 0 61.1811 11.8337 724 85.8881 1353.55 507.076
1475 0 63.1665 11.7784 744 87.9194 1353.61 504.938
1476 0 64.0987 11.5759 742 86.5795 1354.12 504.606
1477 0 65.1958 12.194 795 87.1132 1352.97 502.764
1478 0 68.1237 11.8314 806 85.6352 1353.52 502.52
1479 0 68.0826 11.9561 814 86.7224 1353.07 502.011
1480 0 71.1496 12.1013 861 86.5668 1353.66 501.787
1481 0 74.1396 12.7327 944 86.9809 1353.43 500.515
1482 0 73.1304 12.7854 935 87.1946 1353.05 499.271
1483 0 76.2171 12.7137 969 86.1662 1353.34 499.121
1484 0 78.1775 12.9577 1013 84.5173 1353.64 497.019
1485 0 81.2121 12.769 1037 83.2035 1353.09 495.256
1486 0 82.1892 12.6537 1040 83.4692 1352.9 493.714
1487 0 86.2008 12.9349 1115 81.3309 1352.89 494.331
1488 0 89.1624 13.2006 1177 81.4282 1352.92 491.885
1489 0 92.184 12.2147 1126 95.9449 1352.8 491.318
1490 0 95.2287 12.9373 1232 95.073 1353.22 490.08
1491 0 96.1707 12.7482 1226 95.4641 1353.28 488.921
1492 0 99.2863 13.1035 1301 93.6126 1352.95 489.007
1493 0 101.283 13.3093 1348 94.2641 1353.26 485.859
1494 0 104.177 12.8819 1342 95.915 1353.57 484.388
1495 0 108.151 13.8232 1495 93.4542 1353.03 483.825
1496 0 109.106 13.0057 1419 95.9803 1353 483.15
1497 0 110.152 13.0093 1433 97.1417 1353.33 481.217
1498 0 115.158 13.3816 1541 95.6872 1353.64 479.543
1499 0 117.124 13.2936 1557 96.553 1353.81 476.97
1500 0 119.115 13.9529 1662 95.2431 1353.42 475.015
1501 0 123.108 13.9796 1721 93.717 1353.72 473.23
1502 0 124.077 13.1208 1628 96.3022 1353.59 470.708
1503 0 127.071 12.859 1634 95.7638 1353.07 468.633
1504 0 133.094 13.8474 1843 92.3896 1353.58 468.216
1505 1 70.1684 10.8168 759 90.9776 1354.48 498.646
1506 0 72.131 11.6871 843 89.0095 1353.72 497.535
1507 0 73.0903 11.2737 824 90.6966 1353.48 496.061
1508 0 76.1221 11.6523 887 89.5603 1354.1 494.555
1509 0 79.1736 12.6431 1001 80.2198 1353.51 496.571
1510 0 80.2174 11.6932 938 82.3284 1353.8 495.063
1511 0 81.1558 11.8168 959 84.22 1353.18 495.261
1512 0 82.1852 11.1212 914 86.9825 1352.91 492.707
1513 0 85.1706 11.7529 1001 87.7373 1352.78 492.839
1514 0 87.1284 11.638 1014 89.9822 1353.43 491.406
1515 0 89.1146 11.8275 1054 91.6376 1353.46 489.149
1516 0 94.1894 11.9971 1130 90.2487 1353.63 488.617
1517 0 94.2898 11.8146 1114 91.8214 1353.15 486.856
1518 0 97.2231 11.2113 1090 92.2147 1353.12 485.14
1519 0 100.371 11.4574 1150 92.1991 1353.11 483.449
1520 0 104.287 11.8423 1235 91.8389 1353.15 479.763
1521 1 58.1883 10.5176 612 95.0588 1354.41 506.049
1522 0 58.1077 10.1191 588 90.2874 1353.56 505.539
1523 0 59.1292 10.7054 633 90.3302 1353.73 503
1524 0 63.031 10.709 675 80.4904 1352.36 502.735
1525 0 63.0267 10.7573 678 99.6106 1353.37 502.799
1526 0 64.1853 10.5632 678 81.8909 1352.19 500.382
1527 0 68.0772 10.7231 730 80.8849 1352.98 499.105
1528 0 70.1996 11.2679 791 79.9191 1352.4 497.338
1529 0 70.2142 9.65617 678 83.7271 1353.1 499.547
1530 0 73.078 10.4135 761 82.3246 1352.59 498.961
1531 0 76.1367 10.954 834 82.0791 1352.78 497.561
1532 0 77.0489 10.9411 843 83.9537 1352.96 495.031
1533 0 78.0913 10.9103 852 84.277 1353.31 494.534
1534 0 83.0688 10.4251 866 83.7783 1353.44 494.281
1535 0 85.0337 11.1485 948 82.4378 1351.6 493.445
1536 0 90.1572 11.9458 1077 80.6954 1352.66 491.5
1537 0 92.1783 11.4344 1054 81.8805 1352.45 489.01
1538 0 95.1927 11.6606 1110 81.4288 1351.86 488.047
1539 0 95.1404 10.4687 996 84.3795 1351.98 487.326
1540 0 101.202 11.6895 1183 81.5097 1352.18 484.675
1541 1 55.0788 10.494 578 79.2578 1352.27 509.393
1542 0 56.1637 10.9857 617 78.4587 1351.94 508.514
1543 0 56.0581 11.1135 623 80.8523 1352.67 506.79
1544 0 58.0468 10.9394 635 81.189 1352.26 506.798
1545 0 61.0588 12.054 736 77.5639 1352.29 504.696
1546 0 62.0559 11.9086 739 78.4087 1351.93 504.225
1547 0 65.0522 11.5753 753 78.2563 1352.29 502.996
1548 0 65.0781 12.2007 794 78.8136 1352.92 501.338
1549 0 69.0277 12.0386 831 77.1059 1351.88 502.863
1550 0 69.0349 12.0808 834 77.4161 1351.99 499.448
1551 0 72.0391 11.7436 846 77.8901 1352.04 499.41
1552 0 75.1146 11.5424 867 77.1119 1352.12 499.106
1553 0 77.0464 12.2783 946 75.6712 1351.85 497.616
1554 0 79.0681 12.4576 985 75.0051 1351.62 494.592
1555 0 82.034 11.5684 949 73.8514 1351.73 493.192
1556 0 85.048 11.7933 1003 75.8534 1351.86 493.203
1557 0 89.1616 11.8661 1058 74.0728 1351.74 490.172
1558 0 91.1335 12.1909 1111 73.541 1352.78 489.589
1559 0 91.0498 10.9281 995 77.3447 1353.34 486.795
1560 0 96.0831 10.9697 1054 78.2941 1352.74 485.318
1561 0 97.0468 10.7165 1040 79.0981 1352.07 485.62
1562 0 100.046 11.2449 1125 81.7209 1351.96 480.035
1563 0 105.229 11.9549 1258 91.1041 1352.84 486.433
1564 1 55.1332 11.6808 644 93.7842 1352.08 507.543
1565 0 58.1993 11.8902 692 91.7009 1352.17 505.473
1566 0 61.1623 12.1317 742 89.7736 1352.17 505.453
1567 0 62.1791 11.5312 717 91.0683 1351.7 504.646
1568 0 64.2234 12.4098 797 90.4868 1352.66 502.729
1569 0 64.1745 11.6869 750 91.4707 1352.13 502.403
1570 0 68.3054 12.4441 850 89.4118 1352.34 501.602
1571 0 69.1744 12.4613 862 89.2158 1352.16 501.23
1572 0 72.1932 12.522 904 86.0918 1352.62 499.92
1573 0 76.1294 12.5838 958 84.5699 1352.21 499.185
1574 0 79.0957 12.4027 981 84.2273 1352.14 497.49
1575 0 80.2186 12.7526 1023 83.478 1352.45 496.509
1576 0 82.1925 11.7286 964 84.3382 1352.6 494.479
1577 0 85.1257 11.947 1017 79.7158 1352.17 491.718
1578 0 87.1391 10.9136 951 82.6698 1352.22 490.372
1579 0 90.0542 12.1038 1090 80.544 1352.21 488.52
1580 0 93.0766 11.5819 1078 82.6939 1351.94 487.955
1581 0 96.1159 11.8607 1140 83.129 1352.39 487.456
1582 0 96.0437 11.3802 1093 84.7365 1352.68 485.169
1583 0 104.048 10.3798 1080 87.4417 1351.82 484.355
1584 0 102.154 10.8366 1107 88.9955 1351.88 480.997
1585 0 110.269 10.547 1163 87.3723 1351.86 482.304
1586 0 109.205 10.7687 1176 88.591 1352.06 479.393
1587 0 114.26 11.3688 1299 87.0662 1351.98 476.371
1588 0 117.177 11.5295 1351 86.1184 1351.65 475.664
1589 1 57.0797 11.4752 655 80.2366 1351.46 506.582
1590 0 59.0316 11.587 684 79.7822 1351.91 505.525
1591 0 60.0758 12.8171 770 74.3584 1352.56 504.913
1592 0 60.1423 13.1189 789 82.9506 1352.59 503.828
1593 0 64.23 13.2181 849 77.914 1352.06 502.039
1594 0 66.0141 12.7094 839 78.6091 1351.9 502.48
1595 0 69.1116 13.0079 899 78.1012 1352.2 501.516
1596 0 70.1433 12.6598 888 79.3818 1352.81 500.7
1597 0 72.0879 12.6651 913 92.6517 1352.6 498.275
1598 0 75.1031 12.6626 951 91.1083 1352.23 495.896
1599 0 80.1288 12.9417 1037 89.6393 1352.46 495.306
1600 0 82.0493 12.4803 1024 90.4277 1352.73 493.459
1601 0 84.1213 12.9575 1090 89.0569 1352.79 491.544
1602 0 86.1603 12.941 1115 89.6655 1352.82 490.942
1603 0 87.1074 13.1447 1145 89.2148 1353.09 489.511
1604 0 92.1498 12.9355 1192 88.0914 1352.79 489.979
1605 0 93.0978 13.0078 1211 81.7927 1353.16 488.437
1606 0 95.1329 12.8347 1221 82.9787 1352.58 486.188
1607 0 99.1061 13.4805 1336 80.8825 1352.44 485.359
1608 0 100.082 13.0394 1305 82.9441 1352.98 484.08
1609 0 102.114 12.9267 1320 83.472 1352.82 481.402
1610 0 106.223 12.5396 1332 83.2147 1352.52 480.862
1611 0 109.183 12.795 1397 81.6836 1352.66 479.397
1612 0 113.206 13.6918 1550 79.5142 1352.75 479.117
1613 0 116.198 13.1844 1532 80.4256 1352.88 477.907
1614 0 119.203 12.8772 1535 80.6892 1353.02 472.226
1615 0 123.178 13.1436 1619 80.7134 1351.97 470.298
1616 0 127.29 13.1903 1679 78.411 1352.56 467.683
1617 0 132.316 13.755 1820 77.8676 1351.73 465.549
1618 0 135.34 13.5659 1836 77.6993 1351.73 461.425
1619 0 137.381 13.0077 1787 79.155 1351.9 457.427
1620 0 143.523 13.0223 1869 82.4457 1352.3 459.338
1621 0 149.431 13.886 2075 80.947 1351.74 456.221
1622 0 152.394 13.6292 2077 82.0698 1351.68 451.308
1623 0 159.38 13.4521 2144 82.9328 1351.09 448.34
1624 0 165.377 13.5993 2249 83.2081 1350.66 445.162
1625 0 170.59 13.1309 2240 86.0656 1351.37 442.444
1626 1 79.4313 10.9529 870 81.9839 1351.85 491.483
1627 0 82.357 11.5594 952 80.7584 1351.37 489.337
1628 0 86.2945 12.6659 1093 78.2644 1352.13 487.8
1629 0 88.2299 12.0254 1061 80.2413 1352.14 486.994
1630 0 90.1746 12.0988 1091 76.9056 1353.18 488.689
1631 0 93.273 12.2543 1143 74.7865 1351.97 489.088
1632 0 96.2158 12.4304 1196 75.2475 1351.88 486.986
1633 0 100.2 12.0958 1212 75.712 1352.2 487.219
1634 0 104.26 12.6991 1324 75.2704 1352.29 484.928
1635 0 107.168 13.1102 1405 76.0313 1352.4 481.649
1636 0 110.292 12.8024 1412 77.3017 1352.11 480.905
1637 0 114.265 12.6286 1443 79.6507 1352.37 477.194
1638 1 51.0535 11.439 584 78.2603 1353.5 509.25
1639 0 53.0591 11.0066 584 79.2825 1353.16 507.81
1640 0 55.068 12.1123 667 78.075 1353.65 505.165
1641 0 58.0562 11.6783 678 78.6047 1353.83 503.801
1642 0 58.23 11.987 698 76.9642 1353.25 504.772
1643 0 59.0944 11.9808 708 74.4675 1354.04 505.836
1644 0 59.0458 11.9568 706 75.2635 1353.46 504.5
1645 0 62.07 12.3248 765 74.9216 1353.16 502.265
1646 0 62.0752 10.9384 679 78.4138 1352.94 503.92
1647 0 62.1208 10.8659 675 78.1067 1353.14 503.181
1648 0 65.1808 11.4604 747 76.261 1353.37 501.929
1649 0 66.271 11.3473 752 76.7354 1352.85 501.644
1650 0 70.236 11.3475 797 76.7252 1352.92 498.2
1651 0 71.1046 10.3369 735 78.4463 1352.57 500.054
1652 0 74.1128 10.6055 786 76.9377 1352.27 497.966
1653 0 76.2129 10.8249 825 77.2424 1352.31 496.332
1654 0 79.2709 10.7858 855 76.5053 1352.59 496.74
1655 0 80.1389 11.505 922 75.4187 1352.89 495.309
1656 0 83.1914 10.9627 912 75.954 1352.42 492.976
1657 0 83.1735 10.448 869 77.153 1352.51 492.848
1658 0 85.256 10.2632 875 77.6983 1352.48 492.175
1659 0 90.2904 10.7431 970 73.9227 1352 489.693
1660 0 90.1915 10.8769 981 73.5688 1353.26 487.839
1661 0 94.2305 11.0686 1043 73.2627 1352.96 483.901
1662 0 94.1243 9.80618 923 75.7541 1353.59 482.4
1663 1 46.0472 8.64331 398 75.1658 1353.15 501.867
1664 0 42.0081 9.09348 382 74.4136 1353.24 496.919
1665 0 50.0528 9.15034 458 69.0153 1353.83 498.576
1666 0 49.0324 10.7276 526 72.4506 1353.42 497.365
1667 0 53.0362 10.7851 572 71.5018 1350.4 499.206
1668 0 53.0604 10.9875 583 73.6501 1350.36 499.122
1669 0 54.0319 11.012 595 73.9008 1350.33 495.78
1670 0 57.1225 11.2915 645 73.0729 1351.1 496.253
1671 0 56.0372 12.0099 673 73.0416 1350.72 496.309
1672 0 58.0461 11.6976 679 73.732 1350.61 497.585
1673 0 61.0967 11.1135 679 74.9676 1352.42 494.682
1674 0 60.1286 9.81231 590 66.6271 1351.15 498.063
1675 0 61.0283 9.66765 590 67.3153 1351.22 498.649
1676 0 63.0246 10.1706 641 67.8393 1351.6 496.86
1677 0 65.0855 10.5707 688 68.9608 1352.22 496.267
1678 0 66.0401 10.6148 701 69.3381 1352.31 496.854
1679 0 69.0869 11.1743 772 69.9935 1351.52 494.455
1680 0 73.1664 11.9044 871 78.0838 1351.27 498.002
1681 0 75.0764 13.0267 978 76.8282 1351.83 496.441
1682 0 80.1573 13.5484 1086 76.0258 1351.38 493.423
1683 0 81.0826 13.7267 1113 77.3657 1351.81 492.7
1684 0 84.104 13.4952 1135 79.3145 1352.42 492.5
1685 0 87.0639 13.6337 1187 78.8492 1351.89 490.443
1686 0 91.14 14.0882 1284 78.271 1351.96 488.44
1687 0 91.09 13.6788 1246 78.8836 1352.2 488.741
1688 0 95.0546 14.4969 1378 75.5327 1352.5 487.356
1689 0 98.1156 14.6664 1439 75.221 1352.83 486.155
1690 0 99.07 13.5157 1339 78.3174 1352.47 485.758
1691 0 99.0666 13.4253 1330 78.8767 1351.73 481.503
1692 0 101.051 13.9336 1408 75.9758 1352.04 479.085
1693 0 101.054 12.2905 1242 79.6417 1352.13 476.256
1694 0 105.097 12.379 1301 73.1015 1351.05 472.923
1695 0 106.047 10.8065 1146 76.4058 1351.38 471.281
1696 0 109.099 11.1642 1218 78.1519 1351.63 467.802
1697 1 54.1169 10.8284 586 65.2679 1352.05 499.829
1698 0 55.0437 10.3554 570 65.0632 1351.51 499.225
1699 0 56.0689 10.3801 582 66.3505 1351.96 498.387
1700 0 59.0801 10.7481 635 66.2362 1351.53 497.72
1701 0 61.1996 10.9968 673 66.5765 1352.44 495.993
1702 0 60.1163 10.7458 646 67.7647 1352.3 495.395
1703 0 66.0692 11.3215 748 66.992 1352.29 493.901
1704 0 66.0378 11.5994 766 67.7846 1352.36 490.469
1705 0 70.0874 11.6141 814 68.3968 1352.46 491.161
1706 0 69.0371 11.4142 788 68.7843 1352.49 490.586
1707 0 74.0794 11.9871 888 67.8964 1352.32 490.247
1708 0 78.0808 12.1413 948 69.7321 1351.75 490.096
1709 0 83.0522 12.8714 1069 74.6492 1351.38 493.275
1710 0 87.091 12.6879 1105 74.7783 1351.32 490.451
1711 0 89.0166 12.8852 1147 74.6678 1351.79 489.146
1712 0 90.0202 12.4639 1122 76.2005 1351.56 486.5
1713 0 93.0462 13.0688 1216 77.7056 1351.39 486.156
1714 0 97.0844 12.2471 1189 75.2204 1352.18 482.895
1715 0 101.07 13.0207 1316 74.2105 1352.31 482.233
1716 0 103.037 12.4907 1287 75.9099 1352.08 480.305
1717 0 106.121 12.024 1276 74.634 1352.44 478.528
1718 0 111.127 12.2113 1357 81.6662 1352.5 478.658
1719 1 59.0439 10.9071 644 77.4488 1352.89 504.098
1720 0 61.0602 11.4477 699 74.1402 1352.02 502.827
1721 0 62.0747 11.4539 711 74.8453 1352.86 501.557
1722 0 66.1079 11.7686 778 80.3573 1353.16 499.846
1723 0 67.0759 11.0025 738 82.3008 1352.99 498.348
1724 0 69.1653 12.1448 840 80.2429 1353.73 497.89
1725 0 72.0731 11.974 863 79.4925 1353.66 496.581
1726 0 73.1281 11.7739 861 80.2904 1352.41 495.681
1727 0 76.1646 11.0681 843 80.6536 1352.79 494.866
1728 0 77.1827 11.4145 881 83.2134 1352.63 494.132
1729 0 79.1369 11.537 913 83.4042 1352.85 492.42
1730 0 81.1699 11.1741 907 84.5469 1352.24 491.329
1731 0 81.1876 11.1224 903 132.342 1351.25 491.4
1732 0 88.1677 11.2513 992 81.8064 1352.16 489.262
1733 0 91.0964 11.636 1060 81.7424 1352.86 486.171
1734 0 94.1035 11.8168 1112 81.8696 1352.64 486.007
1735 1 48.0116 10.1642 488 79.2746 1351.98 508.168
1736 0 50.036 11.172 559 76.8962 1353.3 506.767
1737 0 51.0277 10.9352 558 74.6792 1352.23 508.701
1738 0 53.0929 10.8866 578 76.6557 1352.35 506.272
1739 0 55.0225 11.3226 623 77.8218 1353.05 507.324
1740 0 56.0645 11.9149 668 77.4446 1353.09 506.211
1741 0 58.1444 12.1766 708 77.0381 1353.72 504.571
1742 0 59.1212 12.0092 710 78.1479 1353.37 504.201
1743 0 58.0613 10.4028 604 82.6374 1353.23 505.268
1744 0 61.1239 10.7814 659 82.2974 1352.88 504.595
1745 0 62.1985 10.6273 661 84.0303 1352.51 503.324
1746 0 63.137 11.4196 721 82.6297 1352.44 502.574
1747 0 67.0785 11.7474 788 82.3325 1352.57 499.872
1748 0 70.1382 12.347 866 81.9446 1353.5 500.903
1749 0 72.2594 12.2891 888 84.5011 1353.15 498.05
1750 0 73.0778 11.9325 872 84.4518 1352.77 498.509
1751 0 75.0872 12.0793 907 84.9912 1352.28 496.762
1752 0 78.1396 12.4521 973 83.5683 1352.69 496.293
1753 0 78.0982 12.2922 960 82.7198 1352.64 495.472
1754 0 80.1184 11.3332 908 83.7764 1352.1 494.107
1755 0 84.1554 11.9303 1004 80.991 1352.31 492.23
1756 0 84.0846 11.1673 939 83.3099 1352.8 491.441
1757 0 88.0871 11.6022 1022 81.3112 1352.82 488.592
1758 1 44.0613 9.01018 397 77.7532 1352.62 506.761
1759 0 43.0265 9.59873 413 68.3947 1351.76 503.605
1760 0 50.0371 11.1717 559 76.8032 1352.75 506.426
1761 0 50.0312 11.233 562 121.206 1353.77 506.464
1762 0 50.0809 10.3433 518 75.4807 1353.24 509.604
1763 0 54.0396 10.9549 592 73.5963 1352.92 508.603
1764 0 54.0606 10.7472 581 73.809 1353.02 505.952
1765 0 55.0322 11.1389 613 72.7553 1353.28 506.948
1766 0 57.061 11.3387 647 72.3756 1353.44 506.402
1767 0 58.0518 11.5759 672 72.0312 1352.94 504.158
1768 0 60.0944 10.7498 646 73.3282 1352.66 503.901
1769 0 63.1382 11.5144 727 73.1169 1352.66 504.263
1770 0 62.0909 10.694 664 75.9036 1352.11 502.387
1771 0 67.1269 11.6794 784 72.3048 1351.66 502.199
1772 0 66.1253 10.7069 708 74.0085 1352.04 502.613
1773 0 68.198 11.1734 762 74.4619 1351.94 500.684
1774 0 72.11 12.2174 881 75.5085 1351.76 498.376
1775 0 74.0392 11.2103 830 76.6639 1351.95 497.078
1776 0 75.0781 11.4015 856 77.0257 1352.17 497.704
1777 0 78.0896 12.0246 939 77.0841 1352.2 494.902
1778 0 80.1474 11.5163 923 80.1365 1352.95 494.51
1779 0 84.0768 11.989 1008 80.1468 1352.62 493.663
1780 0 87.141 12.0609 1051 79.6394 1352.69 492.47
1781 0 89.0905 12.145 1082 80.8743 1352.73 490.339
1782 0 91.104 11.7558 1071 82.267 1352.49 488.81
1783 0 96.1047 11.9453 1148 80.2683 1352.66 488.258
1784 1 52.0392 11.0686 576 79.8559 1353.27 508.432
1785 0 54.0385 12.0655 652 78.8466 1353.59 508.505
1786 0 55.0561 12.6235 695 77.3122 1353.49 508.571
1787 0 57.0474 12.586 718 74.8663 1353.28 508.118
1788 0 60.0474 13.0064 781 72.9974 1353.61 507.268
1789 0 61.0621 12.954 791 72.9734 1353.47 506.81
1790 0 62.0675 12.422 771 72.8353 1353.91 506.039
1791 0 65.097 13.2879 865 73.2347 1353.49 504.313
1792 0 68.1672 13.731 936 74.5566 1353.39 503.019
1793 0 68.1366 12.6657 863 79.0973 1352.74 503.527
1794 0 69.0892 13.5188 934 79.8994 1352.73 502.337
1795 0 71.0848 13.9552 992 81.4617 1352.83 499.759
1796 0 75.1191 13.5385 1017 82.061 1352.15 498.912
1797 0 76.0863 14.063 1070 82.5841 1352.65 497.302
1798 0 79.0926 13.6043 1076 83.276 1351.72 496.319
1799 0 81.1718 13.3051 1080 82.7241 1351.81 496.68
1800 0 81.1227 13.5597 1100 84.8645 1351.57 494.679
1801 0 86.1542 13.9285 1200 81.1083 1351.66 493.858
1802 0 89.2743 14.5059 1295 79.4857 1351.31 492.346
1803 0 90.133 13.8795 1251 81.9536 1351.25 490.732
1804 0 95.2053 13.7177 1306 81.2435 1350.37 490.181
1805 0 96.3184 13.4761 1298 83.4214 1350.37 488.556
1806 0 99.3388 13.157 1307 84.5394 1351.13 487.071
1807 0 97.123 12.3555 1200 86.7592 1352.03 488.271
1808 1 54.0625 11.9306 645 85.9488 1352.35 507.628
1809 0 56.035 11.7784 660 87.3455 1352.75 505.455
1810 0 55.0929 11.7438 647 88.9351 1352.39 504.405
1811 0 58.0748 10.9858 638 80.3715 1351.62 501.665
1812 0 57.0834 10.4934 599 83.394 1351.6 500.491
1813 0 57.0796 10.4766 598 146.893 1351.58 500.714
1814 0 62.0698 11.5676 718 81.0306 1351.3 498.54
1815 0 63.0442 10.2151 644 85.3851 1351.65 494.913
1816 0 67.0368 11.2177 752 82.4282 1351.65 497.154
1817 0 68.0307 10.7598 732 85.7336 1351.06 494.321
1818 0 70.0295 10.8383 759 86.7681 1351.6 494.507
1819 0 72.0468 11.1594 804 86.357 1350.59 494.418
1820 0 76.0389 11.4415 870 85.969 1351.86 492.933
1821 0 78.0865 10.975 857 88.0222 1351.82 490.95
1822 0 80.0682 10.9781 879 88.6382 1351.58 491.068
1823 0 82.0645 11.8565 973 82.7739 1350.67 490.318
1824 0 81.1688 11.741 953 84.4617 1351.46 487.827
1825 0 86.2178 11.5057 992 83.0413 1351.27 486.832
1826 0 87.2207 11.7518 1025 84.402 1351.06 484.813
1827 0 90.1728 11.6332 1049 84.9266 1351.4 483.035
1828 0 92.1778 11.5863 1068 85.5412 1351.05 480.365
1829 0 96.1488 12.1166 1165 84.3888 1350.93 481.654
1830 0 100.136 11.3845 1140 91.1465 1350.97 479.47
1831 0 103.159 10.9346 1128 91.719 1351.28 479.121
1832 0 106.219 11.2033 1190 92.5664 1351.05 476.703
1833 0 110.091 12.0718 1329 90.629 1351.88 476.071
1834 0 112.073 12.2331 1371 90.9482 1351.79 473.421
1835 0 115.116 11.9358 1374 88.4964 1351.83 471.475
1836 0 118.091 12.5581 1483 86.2245 1351.51 466.886
1837 0 123.241 12.8286 1581 88.4984 1350.96 465.429
1838 0 126.243 12.8403 1621 89.5318 1351.74 464.542
1839 0 127.268 12.8784 1639 91.3014 1351.64 461.782
1840 0 132.254 12.8011 1693 97.3609 1351.44 461.041
1841 0 139.324 13.02 1814 93.9024 1351.57 459.382
1842 0 143.241 12.9642 1857 92.4394 1351.53 457.707
1843 0 147.183 13.1062 1929 98.5972 1351.89 456.528
1844 0 152.404 13.2214 2015 98.5002 1352.16 454.919
1845 0 157.222 13.9548 2194 108.456 1352.71 454.088
1846 0 161.246 13.7554 2218 109.67 1352.69 451.152
1847 0 166.301 14.0408 2335 109.701 1352.8 450.139
1848 0 171.238 13.6068 2330 110.662 1352.39 445.076
1849 0 174.335 13.497 2353 109.328 1352.41 441.331
1850 0 180.266 13.9128 2508 107.867 1352.5 440.408
1851 0 184.217 14.0703 2592 108.867 1352.73 435.967
1852 0 187.184 14.9425 2797 109.58 1351.42 437.614
1853 0 195.235 14.6029 2851 105.612 1351.49 428.326
1854 0 200.248 14.4771 2899 105.277 1351.99 425.916
1855 0 206.243 15.0599 3106 103.872 1351.68 423.171
1856 0 211.287 14.9181 3152 104.309 1351.98 422.124
1857 0 217.213 13.5535 2944 109.648 1351.34 416.671
1858 0 226.27 13.148 2975 110.264 1351.21 415.227
1859 1 168.129 12.9425 2176 108.157 1351.86 443.86
1860 0 172.157 13.6329 2347 107.135 1351.57 439.234
1861 0 177.187 13.7821 2442 108.036 1351.75 435.548
1862 0 181.243 13.3412 2418 107.184 1351.62 433.545
1863 0 186.256 13.1861 2456 107.913 1351.28 430.587
1864 0 195.155 14.532 2836 103.682 1351.21 426.573
1865 0 200.111 14.4819 2898 104.027 1351.23 424.877
1866 0 209.238 14.3999 3013 103.255 1351.74 421.833
1867 0 217.231 14.1462 3073 103.193 1351.32 414.702
1868 0 224.197 14.1171 3165 103.065 1350.94 411.258
1869 1 53.0311 9.48499 503 83.4433 1351.11 496.39
1870 0 57.0968 9.75536 557 82.5206 1351.04 495.75
1871 0 57.0339 9.50311 542 74.6882 1351.99 494.417
1872 0 63.087 9.84354 621 74.351 1351.48 496.438
1873 0 64.089 12.389 794 78.306 1352.07 500.361
1874 0 67.1114 11.5629 776 77.4961 1352.69 498.867
1875 0 71.2179 12.539 893 74.2856 1353.13 496.184
1876 0 73.1681 12.2594 897 77.6522 1353 495.419
1877 0 74.1285 12.303 912 78.0855 1352.55 494.77
1878 0 78.1972 13.5299 1058 74.7817 1352.85 492.104
1879 0 79.0723 12.0776 955 78.5958 1352.79 491.834
1880 0 77.1667 10.9114 842 83.2577 1353.24 493.975
1881 0 79.2081 10.8196 857 84.4329 1353.02 493.492
1882 0 82.1912 10.9987 904 84.9502 1353.33 491.374
1883 0 86.1251 10.7286 924 84.4913 1352.98 490.183
1884 0 88.1013 10.7263 945 85.3979 1353.02 490.617
1885 0 91.2002 10.5263 960 88.0656 1353.47 487.135
1886 0 95.2292 10.9735 1045 87.0727 1353.28 485.938
1887 0 98.1773 11.1227 1092 87.2152 1352.35 485.366
1888 0 100.167 11.4109 1143 86.5293 1351.83 484.698
1889 0 102.128 11.1429 1138 87.819 1351.82 480.476
1890 0 104.12 10.8817 1133 89.7961 1351.46 481.533
1891 0 107.159 11.0957 1189 90.0387 1351.76 478.969
1892 0 111.11 11.0881 1232 91.599 1352.03 476.937
1893 0 113.167 11.4344 1294 92.1383 1352.56 475.273
1894 0 115.181 11.6165 1338 91.562 1352.93 474.809
1895 0 118.071 11.9674 1413 91.3779 1352.77 473.413
1896 0 123.103 12.3555 1521 90.9461 1352.89 472.51
1897 0 125.15 12.0655 1510 92.6834 1353.13 470.336
1898 0 131.098 13.0894 1716 92.4423 1352.49 468.001
1899 0 136.191 12.7615 1738 95.6628 1351.9 466.18
1900 0 140.222 11.8954 1668 99.5096 1352.27 463.33
1901 1 79.13 10.2742 813 89.6765 1352.45 495.294
1902 0 81.1514 11.6819 948 88.193 1352.6 493.826
1903 0 81.1824 11.5912 941 90.4878 1351.3 491.898
1904 0 86.0612 12.7932 1101 89.9464 1352.09 490.922
1905 0 88.1234 12.9931 1145 91.2943 1351.55 489.324
1906 0 91.087 12.1422 1106 86.858 1351.81 489.899
1907 0 92.0784 11.5228 1061 87.9199 1350.73 488.047
1908 0 97.0525 12.8178 1244 85.3232 1350.67 486.215
1909 0 99.1006 12.6235 1251 85.9616 1351.39 484.787
1910 0 103.082 12.815 1321 85.5458 1350.78 482.268
1911 0 105.154 12.6195 1327 86.2705 1351.51 481.587
1912 0 107.169 12.6715 1358 86.2062 1349.8 478.482
1913 0 110.149 12.592 1387 86.7455 1349.9 478.523
1914 0 113.107 12.6959 1436 87.1511 1350.15 478.067
1915 0 115.106 12.432 1431 88.9706 1350.42 475.211
1916 0 117.124 12.8155 1501 88.6949 1350.45 474.364
1917 0 121.182 12.9309 1567 89.8003 1349.58 472.576
1918 0 123.158 12.6098 1553 91.2209 1349.79 470.319
1919 1 65.0418 11.3466 738 95.3672 1349.45 499.073
1920 0 65.0582 11.3283 737 98.1669 1349.09 499.114
1921 0 69.0958 11.5492 798 97.9774 1350.7 496.228
1922 0 66.0395 11.2811 745 82.953 1349.61 490.654
1923 0 69.0414 11.4859 793 81.6961 1349.36 491.893
1924 0 72.051 11.7972 850 79.5529 1349.9 490.475
1925 0 72.029 11.2732 812 81.1293 1350.44 489.315
1926 0 76.0214 11.2074 852 80.635 1349.73 488.316
1927 0 82.0416 13.1519 1079 75.5857 1350.66 489.58
1928 0 86.1198 12.4478 1072 75.5065 1350.56 486.572
1929 0 86.0531 12.562 1081 77.0222 1350.01 485.136
1930 0 89.103 13.1982 1176 75.3418 1349.61 484.654
1931 0 93.146 12.6575 1179 76.134 1350.36 482.729
1932 0 95.0442 13.236 1258 76.3728 1349.29 482.887
1933 0 98.1178 13.7895 1353 76.8692 1350.02 479.812
1934 0 101.076 12.5351 1267 78.3094 1350.02 481.48
1935 0 102.125 11.2216 1146 82.5672 1350.35 477.613
1936 1 59.0372 11.4674 677 86.1507 1349.38 505.428
1937 0 61.2637 12.0953 741 85.9676 1350.06 504.505
1938 0 62.0243 12.1404 753 85.5843 1351.2 505.368
1939 0 64.0763 12.4695 799 86.5282 1350.78 504.999
1940 0 65.054 12.7586 830 87.1036 1351.42 503.03
1941 0 65.157 12.8459 837 89.0024 1350.84 503.458
1942 0 69.1562 12.4212 859 93.021 1350.77 500.831
1943 0 70.0864 12.8556 901 92.4861 1350.59 500.053
1944 0 74.1564 12.8782 955 92.5518 1350.89 499.442
1945 0 76.1235 13.0446 993 92.0121 1349.53 498.179
1946 0 76.1625 12.4339 947 95.0929 1350.13 496.035
1947 0 80.2214 13.1137 1052 90.1017 1350.52 496.231
1948 0 81.1621 12.5921 1022 92.8249 1350.57 494.112
1949 0 83.1855 13.0672 1087 92.7746 1350.05 492.646
1950 0 85.1409 13.0607 1112 92.0099 1349.92 491.576
1951 0 87.1019 12.56 1094 93.3903 1349.64 492.559
1952 0 89.0673 12.9565 1154 93.2842 1350.37 490.164
1953 0 93.0754 13.0539 1215 91.9029 1350.69 489.225
1954 0 94.1055 12.7942 1204 93.103 1350.85 487.936
1955 0 96.1111 12.8809 1238 94.0048 1351.44 486.329
1956 0 99.1468 12.9101 1280 92.1711 1351.54 485.102
1957 0 102.191 12.9855 1327 95.052 1350.93 482.804
1958 0 105.131 13.1741 1385 94.1625 1350.16 480.745
1959 0 106.141 12.5681 1334 95.8306 1351.04 479.963
1960 0 110.17 12.9981 1432 94.4337 1350.75 479.066
1961 0 114.226 12.8254 1465 93.6683 1350.74 476.519
1962 0 115.142 12.7756 1471 95.4555 1350.59 473.734
1963 0 119.174 12.3517 1472 96.4001 1350.43 472.077
1964 0 122.156 12.3612 1510 95.1053 1350.81 470.203
1965 0 129.167 13.4167 1733 94.1633 1350.56 466.076
1966 0 132.275 13.0259 1723 96.0017 1350.63 463.936
1967 0 135.262 13.278 1796 97 1350.05 461.93
1968 0 140.272 13.4168 1882 97.526 1349.99 460.214
1969 0 144.263 12.9694 1871 98.4714 1349.43 457.998
1970 0 148.226 13.5671 2011 98.9443 1349.49 456.906
1971 0 152.27 13.1345 2000 101.119 1349.17 452.314
1972 0 158.289 13.6648 2163 101.144 1349.61 450.729
1973 0 163.171 13.6973 2235 101.394 1349.16 449.089
1974 0 168.332 13.3842 2253 102.146 1349.75 447.278
1975 0 175.217 14.1596 2481 99.9738 1348.9 444.39
1976 0 181.269 14.0675 2550 100.375 1349.29 440.521
1977 0 185.331 13.7268 2544 100.989 1348.89 439.096
1978 0 191.202 13.2426 2532 102.083 1349.09 437.423
1979 0 198.261 14.3346 2842 100.052 1348.84 432.392
1980 0 204.166 13.6507 2787 101.39 1348.95 431.623
1981 0 211.274 13.9014 2937 101.84 1348.65 427.221
1982 0 218.291 14.6364 3195 100.33 1349.52 422.448
1983 0 226.175 15.1166 3419 98.389 1349.22 420.68
1984 0 231.176 14.4392 3338 99.9632 1349.36 417.922
1985 0 238.192 13.9048 3312 100.302 1349.79 415.982
1986 0 244.268 13.4729 3291 101.82 1349.19 412.927
1987 0 253.353 13.7436 3482 102.502 1349.18 404.263
1988 0 253.353 13.7871 3493 166.09 1349.18 404.33
1989 1 208.257 13.6754 2848 99.513 1349.75 427.982
1990 0 213.254 13.0455 2782 100.995 1349.6 424.032
1991 0 221.233 13.375 2959 100.48 1349.39 417.306
1992 0 229.149 13.668 3132 99.3739 1349.1 414.736
1993 0 238.207 13.6982 3263 98.4419 1348.73 409.827
1994 0 244.121 13.6326 3328 98.0304 1348.51 406.375
1995 0 252.179 13.3913 3377 99.0586 1348.41 401.106
1996 0 259.246 13.5238 3506 98.8876 1348.19 392.932
1997 1 60.0472 8.94296 537 83.2514 1348.25 496.467
1998 0 62.0593 10.0066 621 82.2319 1348.88 495.646
1999 0 67.0598 10.5279 706 79.102 1348.59 501.433
2000 0 68.0758 9.41598 641 81.4587 1349.44 503.332
2001 0 73.0737 10.811 790 79.4266 1349.48 502.134
2002 0 74.0733 10.3006 763 80.2936 1349.22 499.029
2003 0 78.1276 10.3549 809 80.398 1349.53 498.941
2004 0 77.0674 10.121 780 81.8744 1348.37 497.773
2005 0 81.0382 10.2914 834 81.4317 1348.89 493.761
2006 0 84.0759 10.3954 874 78.4119 1349.36 495.989
2007 0 87.0562 10.9125 950 79.3221 1348.68 490.745
2008 0 92.0667 11.3179 1042 81.9299 1349.34 493.375
2009 0 94.1056 11.0302 1038 84.8882 1349.92 489.25
2010 0 94.2028 10.2545 966 88.3468 1349.37 489.884
2011 1 52.133 10.3389 539 85.8534 1350.61 508.579
2012 0 51.1015 10.5672 540 87.6074 1349.25 509.361
2013 0 55.0179 11.0691 609 84.9425 1348.88 508.782
2014 0 58.0414 11.8881 690 82.3087 1349.37 507.557
2015 0 60.1069 11.5627 695 79.6849 1350.86 507.433
2016 0 61.066 11.6268 710 80.4437 1350.74 505.855
2017 0 63.0409 12.6267 796 78.0641 1350.8 506.211
2018 0 64.0506 12.7555 817 79.0575 1350.94 505.015
2019 0 67.0509 12.7813 857 77.839 1351.25 504.306
2020 0 64.0233 11.449 733 83.2988 1350.61 506.031
2021 0 68.0696 11.356 773 83.2587 1351.52 504.757
2022 0 70.1117 11.4959 806 83.4578 1351.57 503.644
2023 0 70.0497 11.6631 817 84.1236 1350.85 502.996
2024 0 72.0735 11.7935 850 85.3341 1350.54 501.907
2025 0 75.0717 12.1351 911 83.0022 1351.37 500.378
2026 0 77.0618 12.5484 967 81.7849 1351 499.852
2027 0 80.1696 12.6232 1012 81.337 1350.8 497.529
2028 0 80.1382 11.8171 947 85.0475 1350.31 494.898
2029 0 83.0774 11.4472 951 85.6299 1351.34 495.385
2030 0 90.0841 13.8093 1244 79.0241 1350.85 491.771
2031 0 94.0686 13.6284 1282 79.5959 1350.22 491.666
2032 0 94.1354 13.4806 1269 79.7455 1350.05 489.293
2033 0 99.171 13.8246 1371 77.5594 1350.11 489.041
2034 0 102.204 13.3067 1360 80.5426 1350.22 487.966
2035 0 102.131 11.9454 1220 82.8992 1350.71 488.023
2036 0 107.123 12.4436 1333 79.1643 1349.13 485.241
2037 1 58.1212 11.4416 665 78.2436 1348.48 509.259
2038 0 59.0777 11.2733 666 77.461 1348.97 507.727
2039 0 62.0337 12.2675 761 75.293 1348.47 505.912
2040 0 63.075 12.7626 805 74.9565 1349.08 503.963
2041 0 65.101 12.519 815 71.9031 1350.87 504.864
2042 0 66.1247 11.9925 793 72.5977 1351.56 503.595
2043 0 66.1243 11.5237 762 75.1772 1351.15 502.879
2044 0 68.1439 12.4883 851 72.2444 1351.53 500.94
2045 0 71.0642 11.961 850 73.1094 1351.04 498.386
2046 0 74.1501 13.0276 966 70.3064 1350.75 499.634
2047 0 75.1576 12.853 966 71.2195 1349.94 497.739
2048 0 77.1128 12.4493 960 72.3448 1349.92 496.841
2049 0 80.1607 12.6371 1013 81.4788 1350.7 496.571
2050 0 81.1741 12.1098 983 84.1801 1350.34 494.482
2051 0 86.1305 12.1328 1045 83.3876 1350.01 492.686
2052 0 87.1537 12.0362 1049 84.9285 1350.48 492.192
2053 0 91.1109 12.7208 1159 83.2209 1350.07 491.973
2054 0 90.1621 12.533 1130 84.4434 1349.82 491.213
2055 0 93.1543 12.7208 1185 85.2084 1349.76 489.943
2056 0 98.1801 12.5586 1233 85.0049 1350.33 488.163
2057 0 101.174 12.691 1284 84.933 1350.12 486.892
2058 0 103.239 12.8925 1331 84.1871 1349.68 485.714
2059 0 106.305 12.8216 1363 84.562 1349.04 480.955
2060 0 108.08 11.7135 1266 81.5972 1350.39 481.79
2061 0 109.133 11.5639 1262 80.5919 1350.37 479.908
2062 1 58.0833 10.6571 619 72.7044 1351.49 507.651
2063 0 59.0426 10.6533 629 71.9221 1350.39 506.672
2064 0 59.0477 10.1951 602 74.912 1351.16 506.022
2065 0 63.0866 11.7616 742 71.6011 1350.37 504.073
2066 0 67.1496 12.8221 861 73.7828 1349.9 500.941
2067 0 70.0455 12.706 890 78.1326 1350.67 501.501
2068 0 74.0359 12.2643 908 80.3579 1351.42 499.499
2069 0 72.0398 11.0772 798 84.1165 1351.41 498.435
2070 0 76.0323 11.4425 870 83.4782 1351.5 497.22
2071 0 79.0457 11.9172 942 83.431 1351.39 497.274
2072 0 81.0451 12.2648 994 83.6318 1351.08 496.771
2073 0 82.0709 12.1237 995 85.3106 1350.51 494.038
2074 0 85.1492 12.0964 1030 86.0204 1350.54 491.692
2075 0 88.0906 12.5666 1107 85.0714 1350.52 492.182
2076 0 92.2536 12.8667 1187 84.7641 1350.35 490.038
2077 0 93.1547 12.753 1188 87.1069 1350.7 487.647
2078 0 97.1416 12.7855 1242 85.7786 1350.48 488.585
2079 0 100.202 12.3651 1239 87.8184 1349.92 485.586
2080 0 104.22 12.819 1336 87.759 1350.59 483.446
2081 0 107.168 13.1009 1404 87.4943 1350.52 482.389
2082 0 108.18 12.8582 1391 88.601 1349.97 479.966
2083 0 112.219 12.9746 1456 88.8709 1350.31 478.796
2084 0 116.113 13.1682 1529 88.968 1350.83 477.959
2085 1 61.0596 11.2841 689 84.7228 1351.91 504.94
2086 0 60.1024 11.2475 676 82.3979 1351.22 501.618
2087 0 62.0932 10.9191 678 78.5133 1351.12 500.112
2088 0 64.1451 11.5052 738 78.1897 1349.2 499.847
2089 0 68.1784 12.6873 865 83.6844 1349.25 503.161
2090 0 70.1017 12.9954 911 83.9901 1349.15 501.873
2091 0 70.1017 13.0239 913 164.334 1349.14 501.91
2092 0 72.219 12.4759 901 86.8146 1349.04 499.282
2093 0 72.219 12.3929 895 172.358 1349.05 499.312
2094 0 76.0683 13.225 1006 80.9752 1349.04 500.438
2095 0 78.1172 13.1085 1024 82.0537 1349.48 499.489
2096 0 79.1119 12.792 1012 85.2372 1349.09 498.028
2097 0 81.0985 12.9102 1047 86.4298 1349.4 496.942
2098 0 84.2267 12.4426 1048 88.5372 1349.27 496.421
2099 0 88.1156 12.7106 1120 88.8804 1348.69 494.261
2100 0 88.1079 13.0976 1154 89.7955 1348.99 492.728
2101 0 92.1451 13.2074 1217 90.8792 1349.2 490.35
2102 0 94.2109 12.6949 1196 92.7316 1348.83 490.292
2103 0 98.2215 13.1132 1288 91.9068 1349.91 487.367
2104 0 101.245 13.2649 1343 91.6835 1350.34 487.436
2105 0 105.291 13.5245 1424 90.7978 1349.26 484.227
2106 0 107.213 12.9929 1393 92.8887 1349.43 481.698
2107 0 109.291 13.4412 1469 91.6964 1349.35 480.783
2108 1 59.0854 11.6272 687 88.0815 1348.98 502.044
2109 0 58.0682 11.1249 646 87.5619 1349.29 498.65
2110 0 59.1059 10.8957 644 78.1584 1349.85 501.227
2111 0 60.1679 11.1854 673 78.266 1350.1 500.207
2112 0 62.0738 10.7936 670 79.7119 1350.6 497.551
2113 0 64.0549 10.7252 687 79.9622 1350.63 499.118
2114 0 67.0642 11.2131 752 78.0346 1349.61 496.207
2115 0 69.1068 11.2001 774 78.5866 1349.63 493.855
2116 0 70.1633 11.2737 791 78.9823 1349.47 495.101
2117 0 72.0462 11.3955 821 81.7613 1349.94 493.464
2118 0 74.0491 11.7355 869 78.6571 1349.75 493.507
2119 0 75.113 11.4494 860 82.5523 1349.58 492.646
2120 0 76.0408 11.3492 863 84 1349.62 490.161
2121 0 79.0666 11.6105 918 83.0523 1349.63 489.352
2122 0 82.0797 11.635 955 83.0304 1349.84 487.675
2123 0 85.0948 11.8926 1012 79.9456 1350.62 486.496
2124 0 86.0933 11.5921 998 81.0301 1350.52 484.785
2125 0 89.1627 11.608 1035 82.2039 1349.05 484.253
2126 0 92.0553 12.0906 1113 84.6217 1349.48 482.43
2127 0 94.0792 12.2981 1157 83.7632 1350.06 482.098
2128 0 97.1078 11.9043 1156 85.1393 1350.23 480.156
2129 0 99.0532 11.7714 1166 86.0557 1350.26 480.015
2130 0 104.118 12.2266 1273 85.0361 1350.34 477.548
2131 0 106.16 12.2833 1304 84.7607 1350.01 476.254
2132 0 109.17 12.137 1325 87.3019 1350.23 474.238
2133 0 111.087 12.3957 1377 89.4038 1349.66 471.664
2134 0 115.128 12.308 1417 92.3331 1349.91 472.182
2135 0 119.114 12.5091 1490 95.0208 1349.81 469.473
2136 0 122.072 12.378 1511 95.004 1350.02 468.069
2137 0 126.068 12.4139 1565 97.3738 1350.16 466.396
2138 1 66.0415 11.8259 781 94.4277 1350.4 495.269
2139 0 67.1855 11.6543 783 99.0294 1350.86 493.227
2140 0 70.0869 11.5856 812 93.8313 1351.08 493.151
2141 0 72.051 11.131 802 95.7344 1350.9 491.979
2142 0 73.1046 11.764 860 95.0698 1350.5 490.892
2143 0 74.0822 11.5007 852 96.1549 1350.38 487.805
2144 0 76.079 10.4365 794 99.6713 1350.57 485.894
2145 0 81.0724 11.6933 948 96.7774 1350.24 485.406
2146 0 80.1425 10.7434 861 99.2857 1350.39 482.749
2147 0 84.0565 10.8617 913 99.988 1350.2 479.299
2148 0 85.0804 10.8838 926 99.9471 1350.38 478.364
2149 0 88.0888 11.8971 1048 98.0429 1350.62 477.949
2150 0 89.2415 10.9702 979 101.492 1351.3 473.642
2151 0 93.188 10.8383 1010 99.6634 1351.23 471.688
2152 0 95.1949 11.3556 1081 98.3941 1351.01 471.873
2153 0 99.1983 10.9377 1085 98.6535 1351.6 471.541
2154 0 100.144 10.6846 1070 101.911 1351.27 469.776
2155 0 106.216 10.9588 1164 98.8462 1351.16 466.358
2156 0 114.124 11.2947 1289 96.8565 1350.64 469.917
2157 0 113.099 10.1504 1148 99.845 1350.6 462.433
2158 0 118.124 10.0403 1186 99.3845 1350.83 463.847
2159 0 123.131 10.4929 1292 101.351 1350.42 462.768
2160 1 83.0246 9.12982 758 98.7309 1352.48 499.871
2161 0 80.0937 8.7897 704 101.759 1351.89 495.936
2162 0 80.0736 9.80348 785 98.7261 1351.68 493.173
2163 0 79.1468 10.4742 829 97.7684 1351.37 491.912
2164 0 85.0886 12.3401 1050 92.739 1351.57 493.079
2165 0 86.1715 12.9045 1112 92.9775 1351.87 490.186
2166 0 91.0544 13.0362 1187 93.3319 1352.76 488.005
2167 0 94.1201 14.1628 1333 91.5026 1351.32 486.475
2168 0 96.1167 13.6813 1315 93.3498 1351.33 485.562
2169 0 95.1417 12.0242 1144 101.907 1352.24 487.048
2170 0 98.1177 12.0468 1182 100.237 1352.26 485.87
2171 0 101.061 13.1109 1325 96.8136 1352.55 483.444
2172 0 104.093 12.4985 1301 100.823 1351.72 481.715
2173 0 108.114 12.6533 1368 99.9715 1352.52 479.113
2174 0 112.11 12.6662 1420 99.7535 1352.95 477.961
2175 0 113.076 12.3633 1398 101.356 1352.77 475.673
2176 0 117.09 12.8961 1510 99.3715 1352.27 474.171
2177 0 119.098 12.7459 1518 101.241 1352.31 472.399
2178 0 125.091 13.0545 1633 98.6608 1352.45 468.788
2179 0 128.128 13.0261 1669 98.2684 1352.32 466.78
2180 0 131.104 12.2803 1610 100.351 1352.21 466.134
2181 0 134.2 12.7421 1710 100.273 1351.96 460.734
2182 1 149.129 9.15983 1366 103.96 1352.34 468.293
2183 0 148.163 12.79 1895 98.6987 1351.66 456.882
2184 0 153.189 13.2255 2026 98.6056 1351.76 452.177
2185 0 157.232 13.0826 2057 99.6393 1352.09 450.712
2186 0 161.228 13.2421 2135 99.8028 1350.89 450.785
2187 0 167.134 13.2229 2210 98.1941 1351.34 448.631
2188 0 174.185 13.6693 2381 95.5216 1351.35 442.539
2189 0 179.33 13.2549 2377 96.8145 1351.23 440.999
2190 0 187.189 13.3555 2500 94.7368 1351.55 439.327
2191 0 194.157 13.314 2585 96.2085 1351.11 434.392
2192 0 199.113 13.7058 2729 95.1986 1351.18 432.194
2193 0 205.169 13.5352 2777 96.197 1351.29 426.456
2194 0 214.249 13.909 2980 95.3876 1351.27 423.571
2195 0 222.239 13.427 2984 97.7711 1351.65 421.711
2196 0 229.198 13.6607 3131 94.6873 1351.3 416.824
2197 0 234.234 13.6231 3191 98.7057 1351.15 412.993
2198 0 247.414 16.2279 4015 90.6117 1351.16 406.545
2199 0 254.5 15.1513 3856 90.7334 1351.03 402.432
2200 0 261.501 15.2542 3989 89.92 1351.01 397.257
2201 1 61.1013 12.2092 746 85.8472 1351.72 499.717
2202 0 63.0495 12.736 803 88.7472 1352.05 500.736
2203 0 65.1545 12.9845 846 92.4693 1352.29 502.656
2204 0 68.1092 13.3169 907 90.9757 1352.88 500.754
2205 0 70.0311 13.2084 925 90.467 1353.61 500.402
2206 0 71.0251 12.756 906 92.8543 1353.45 497.055
2207 0 76.0763 13.2893 1011 89.7577 1353.55 497.136
2208 0 77.0305 13.1117 1010 90.3554 1353.67 495.581
2209 0 79.1004 13.565 1073 89.6766 1352.73 494.13
2210 0 83.0849 13.2756 1103 90.4433 1352.71 493.381
2211 0 86.0692 13.9423 1200 88.0042 1353.41 492.646
2212 0 89.125 13.1276 1170 89.2658 1352.7 491.548
2213 0 91.0623 13.3096 1212 89.5965 1352.41 488.62
2214 0 91.0635 12.7493 1161 84.4531 1352.35 490.846
2215 0 95.0987 12.7236 1210 85.8901 1352.51 488.815
2216 0 97.0823 12.3709 1201 85.7535 1351.9 489.533
2217 0 101.061 12.4677 1260 85.5794 1351.75 487.515
2218 1 55.0531 11.9884 660 88.5136 1352.29 507.289
2219 0 59.0343 12.5351 740 87.5135 1351.94 507.085
2220 0 59.0581 13.546 800 85.7525 1352.65 505.122
2221 0 58.0273 13.1834 765 89.2209 1352.36 502.519
2222 0 63.1363 14.2232 898 83.284 1352.22 504.216
2223 0 64.1548 14.3871 923 84.3196 1351.68 504.909
2224 0 68.1422 14.323 976 83.4293 1352.31 504.302
2225 0 70.0592 14.502 1016 82.19 1352.5 501.642
2226 0 70.1528 14.3544 1007 83.5839 1351.57 501.387
2227 0 69.0978 13.4447 929 88.1432 1351.08 502.405
2228 0 71.0904 13.7009 974 88.8162 1351.29 501.117
2229 0 74.0824 13.458 997 88.8425 1351.92 499.97
2230 0 75.0873 13.0648 981 90.2304 1351.57 498.706
2231 0 78.1627 13.5359 1058 89.2004 1351.37 497.323
2232 0 80.1034 13.3452 1069 89.2077 1351.8 496.239
2233 0 82.1154 13.822 1135 88.3075 1350.24 494.341
2234 0 84.1597 13.9972 1178 88.4915 1350.08 489.422
2235 0 88.1179 13.4479 1185 91.0414 1350.5 489.666
2236 0 91.1121 14.5425 1325 88.2098 1350.11 488.156
2237 0 93.0883 13.9223 1296 91.7508 1350.16 486.57
2238 1 50.0674 11.6842 585 90.1282 1350.24 508.756
2239 0 53.0334 12.577 667 88.976 1350.38 507.986
2240 0 52.0264 13.0703 680 93.0191 1350.11 510.182
2241 0 55.0596 13.3492 735 92.981 1350.46 508.725
2242 0 58.022 13.3225 773 92.2432 1350.47 509.216
2243 0 57.0196 12.8552 733 95.6999 1350.67 509.214
2244 0 61.082 13.2772 811 92.4994 1350.32 506.227
2245 0 62.0702 13.7103 851 92.7908 1349.83 505.612
2246 0 66.0638 13.8957 918 91.3736 1349.62 504.148
2247 0 66.0495 13.8078 912 91.8772 1349.75 504.095
2248 0 69.0301 13.9215 961 92.307 1350.53 503.264
2249 0 69.0269 13.9511 963 93.3936 1350.35 502.363
2250 0 69.0346 13.2687 916 96.1692 1350.31 502.188
2251 0 74.0229 13.4823 998 95.0812 1350.15 501.437
2252 0 73.0247 13.1736 962 94.0042 1350.5 500.491
2253 0 75.0302 13.2347 993 94.9225 1349.83 498.809
2254 0 78.0225 13.291 1037 94.6548 1350.98 498.12
2255 0 79.0658 12.9006 1020 96.9735 1351.48 497.099
2256 0 84.0935 13.8893 1168 93.8425 1351.13 494.771
2257 0 85.0677 13.5539 1153 95.4111 1350.9 491.882
2258 0 86.1083 13.5527 1167 96.5484 1351.35 489.556
2259 0 89.1726 13.5019 1204 97.2533 1351.3 488.122
2260 0 91.0758 13.8346 1260 97.9349 1350.72 485.441
2261 0 95.2394 13.7128 1306 97.2979 1351.13 483.495
2262 0 98.1518 14.1719 1391 94.6168 1351.38 482.93
2263 0 100.102 13.9657 1398 95.598 1350.72 482.285
2264 0 103.219 13.389 1382 96.877 1351.12 479.863
2265 1 54.0142 12.145 656 93.8156 1351.52 505.198
2266 0 58.0521 12.6955 737 92.574 1351.95 504.688
2267 0 56.1048 13.1183 736 89.6562 1351.56 503.133
2268 0 62.1725 13.3982 833 88.6507 1351.38 501.408
2269 0 63.1582 13.7908 871 79.5109 1351.77 502.536
2270 0 64.1828 12.6514 812 82.8522 1351.62 501.015
2271 0 67.1436 13.7764 925 81.1773 1351.57 500.27
2272 0 69.1541 13.5784 939 82.8722 1351.4 499.135
2273 0 69.16 13.8953 961 83.3028 1351.32 497.975
2274 0 72.1897 13.1736 951 84.0768 1351.45 496.721
2275 0 74.1423 12.6379 937 86.5208 1351.02 495.544
2276 0 75.1144 12.6474 950 87.5379 1351.17 494.42
2277 0 78.1289 13.6697 1068 86.162 1350.59 492.208
2278 0 79.2809 13.1431 1042 88.3541 1350.49 490.855
2279 0 84.1733 13.0326 1097 87.9444 1351.3 489.955
2280 0 85.1551 13.998 1192 86.2919 1351.2 487.286
2281 0 88.1512 13.9306 1228 86.351 1351.21 486.932
2282 0 90.2626 13.6269 1230 87.535 1351.66 487.742
2283 0 93.2253 14.0842 1313 87.0274 1351.66 485.52
2284 0 98.1956 13.3509 1311 88.3699 1351.7 483.709
2285 0 100.143 13.99 1401 87.8308 1351.32 482.138
2286 0 106.084 13.9795 1483 87.9103 1351.2 479.83
2287 0 108.318 14.0789 1525 90.541 1351.12 477.736
2288 0 111.276 13.6957 1524 92.2789 1350.77 477.631
2289 0 116.441 14.5481 1694 91.2408 1350.8 474.89
2290 0 120.297 14.6222 1759 91.1182 1350.6 473.326
2291 0 122.238 13.9237 1702 94.8901 1350.87 472.31
2292 0 127.257 13.6181 1733 95.6619 1350.26 469.189
2293 0 130.37 13.2239 1724 95.6711 1350.51 468.465
2294 0 134.182 13.7276 1842 94.7166 1350.9 465.493
2295 0 139.353 13.821 1926 94.5582 1350.74 463.693
2296 0 145.395 14.1477 2057 93.6694 1351.1 462.42
2297 1 79.1843 12.7677 1011 96.4293 1351.35 495.345
2298 0 81.1155 13.6842 1110 96.2288 1351.03 492.448
2299 0 84.1214 13.8371 1164 96.3419 1351.13 491.61
2300 0 88.2835 14.1476 1249 95.8006 1351.05 490.11
2301 0 89.1106 13.6796 1219 97.4799 1350.63 489.104
2302 0 93.1767 13.8125 1287 96.5058 1350.55 487.886
2303 0 94.3082 13.9755 1318 96.8718 1350.7 485.28
2304 0 98.1805 14.0863 1383 95.6985 1351.46 484.053
2305 0 102.155 14.6347 1495 94.4395 1351.05 481.058
2306 0 105.121 14.0314 1475 97.1464 1350.22 480.542
2307 0 109.124 13.8374 1510 97.2609 1350.35 478.081
2308 0 113.155 13.9278 1576 97.0025 1350.02 475.706
2309 0 118.16 14.0742 1663 95.5857 1350.52 475.218
2310 0 121.158 13.3215 1614 98.3662 1350.62 473.852
2311 0 125.131 14.0413 1757 96.8964 1349.99 470.379
2312 1 67.033 12.2925 824 105.143 1349.9 496.825
2313 0 68.0771 12.8971 878 104.305 1349.72 495.923
2314 0 72.0679 13.3208 960 102.715 1349.46 493.604
2315 0 75.0483 13.3514 1002 101.316 1349.9 492.809
2316 0 77.0475 13.8746 1069 101.276 1350.46 489.295
2317 0 79.064 14.0772 1113 99.1833 1350.17 490.261
2318 0 83.071 13.663 1135 99.3841 1349.86 486.688
2319 0 83.0363 13.7771 1144 99.5367 1350.05 484.05
2320 0 86.0502 13.4456 1157 99.7848 1350.19 484.602
2321 0 88.1103 13.2561 1168 100.277 1350.24 481.783
2322 0 90.0992 12.9968 1171 101.64 1350.43 480.053
2323 0 94.1799 13.1663 1240 101.156 1349.95 477.769
2324 0 98.1835 13.5257 1328 99.5098 1350.24 478.342
2325 0 99.1773 13.1381 1303 102.384 1349.94 475.823
2326 0 102.15 13.1865 1347 101.19 1349.87 473.144
2327 0 107.121 13.5734 1454 99.6816 1350.91 469.97
2328 0 112.225 13.5443 1520 102.544 1350.94 465.271
2329 0 117.15 13.9138 1630 102.545 1350.78 462.072
2330 1 64.2185 10.0438 645 103.904 1350.54 488.391
2331 0 65.2202 10.2422 668 103.841 1351.17 488.165
2332 0 68.1747 12.0866 824 96.7282 1351.46 487.899
2333 0 70.1388 11.9335 837 97.4277 1350.86 486.013
2334 0 75.3079 12.2564 923 95.4735 1351.13 486.319
2335 0 74.2194 11.6412 864 99.059 1351.34 483.684
2336 0 80.2702 11.4364 918 98.6405 1351.58 482.65
2337 0 81.1692 11.4329 928 98.9569 1351.66 481.821
2338 0 84.2081 11.4003 960 98.1042 1351.58 480.158
2339 0 85.2812 11.6673 995 96.7407 1351.57 479.987
2340 0 89.2362 11.9906 1070 96.6355 1352.19 479.048
2341 0 90.1963 11.0758 999 100.518 1352.4 476.506
2342 0 96.1922 12.2047 1174 96.0886 1352.6 477.971
2343 0 100.13 12.2241 1224 96.3742 1351.37 478.432
2344 0 103.168 12.4167 1281 95.815 1351.83 478.707
2345 0 105.124 12.5185 1316 95.5935 1351.74 478.555
2346 0 109.209 12.1327 1325 96.8996 1351.8 478.048
2347 0 112.163 12.0183 1348 96.2315 1351.74 476.702
2348 0 117.165 12.1709 1426 95.3773 1351.14 475.218
2349 1 65.1651 8.60891 561 78.1034 1352.11 504.822
2350 0 69.0696 9.25154 639 80.0423 1351.5 502.459
2351 0 72.1151 10.1643 733 78.2183 1350.93 501.989
2352 0 74.1575 11.3542 842 87.7233 1351.43 498.314
2353 0 74.1377 11.8698 880 88.5614 1351.18 498.978
2354 0 79.2314 11.9145 944 87.9619 1350.73 497.453
2355 0 79.1069 12.4515 985 88.5736 1351.22 495.832
2356 0 82.1458 12.6361 1038 88.1686 1351.66 495.412
2357 0 83.1594 11.9048 990 91.4626 1350.16 494.196
2358 0 87.2047 12.5567 1095 90.3753 1350.33 492.83
2359 0 87.1161 12.3628 1077 92.7224 1350.49 490.862
2360 0 90.2067 12.0279 1085 94.1327 1350.28 489.665
2361 0 91.1952 12.2375 1116 94.897 1350.56 488.542
2362 0 94.1771 12.5083 1178 93.09 1349.69 487.584
2363 0 96.1906 11.9762 1152 94.7865 1349.08 486.445
2364 0 98.1577 12.2252 1200 94.405 1349.16 486.034
2365 0 99.134 12.1553 1205 94.0938 1348.91 481.578
2366 0 102.187 12.3304 1260 93.3841 1348.83 479.917
2367 0 105.177 12.5027 1315 92.689 1347.93 478.575
2368 0 109.197 12.6193 1378 91.1473 1348.15 476.813
2369 1 61.1281 9.39012 574 92.5627 1350.65 504.152
2370 0 60.1956 9.55219 575 92.2174 1349.52 501.362
2371 0 59.2683 10.4272 618 91.7961 1349.45 498.417
2372 0 63.1864 10.8409 685 89.8482 1349.19 497.428
2373 0 67.2363 10.9167 734 88.7003 1348.52 496.409
2374 0 68.2903 10.2943 703 91.8791 1348.32 494.525
2375 0 68.1017 9.5005 647 87.0788 1346.67 495.168
2376 0 75.1639 11.0558 831 84.6799 1346.94 496.575
2377 0 74.1364 10.2109 757 87.1453 1347.12 493.165
2378 0 77.1271 10.3077 795 88.112 1347.87 492.816
2379 0 80.0995 10.2373 820 89.0366 1347.69 490.24
2380 0 79.1304 10.3626 820 91.1037 1347.82 490.341
2381 0 86.1014 11.1845 963 88.9294 1348.04 490.533
2382 0 86.1677 10.5028 905 92.0133 1348.76 485.943
2383 0 92.1917 11.4869 1059 89.933 1349.17 483.916
2384 0 91.1098 10.8221 986 93.3458 1349.29 483.223
2385 0 94.1687 11.3307 1067 92.418 1348.56 485.036
2386 0 95.2577 10.3929 990 95.2202 1348.53 482.217
2387 0 100.152 11.4926 1151 93.4214 1348.69 480.912
2388 0 102.201 11.037 1128 95.0461 1348.76 478.003
2389 0 106.176 11.189 1188 95.0598 1348.59 479.024
2390 0 109.35 11.6141 1270 93.2976 1348.57 477.376
2391 0 111.211 11.8514 1318 92.8574 1349.58 477.071
2392 0 118.344 11.8975 1408 92.2188 1348.84 474.516
2393 0 120.219 11.5788 1392 90.857 1348.04 471.971
2394 0 124.176 11.1776 1388 92.2435 1348.33 470.893
2395 0 126.184 10.9919 1387 93.2812 1348.11 465.731
2396 0 130.168 10.2329 1332 95.0105 1348.38 464.413
2397 0 135.206 10.7465 1453 93.1597 1348.41 459.818
2398 0 145.149 12.9936 1886 81.7184 1349.89 458.215
2399 0 148.164 13.1004 1941 82.7012 1348.85 453.351
2400 0 153.13 13.0282 1995 84.1048 1350.25 453.47
2401 0 155.207 12.6928 1970 86.301 1349.98 451.45
2402 0 160.347 13.3461 2140 85.4519 1350.1 449.621
2403 0 164.195 13.3256 2188 89.8789 1350.1 449.872
2404 0 168.14 12.5074 2103 90.0119 1350.5 445.483
2405 0 169.36 11.6911 1980 92.1737 1350.77 446.342
2406 0 174.164 12.1782 2121 92.5757 1350.23 443.925
2407 0 178.297 12.5914 2245 92.4178 1349.99 442.584
2408 0 182.404 11.4526 2089 98.8277 1350 437.394
2409 0 188.372 12.0241 2265 96.9214 1350.51 433.854
2410 0 193.461 12.8036 2477 95.4122 1350.09 431.046
2411 0 200.539 12.8055 2568 94.8754 1351.44 431.598
2412 0 205.447 12.9815 2667 95.3667 1350.66 428.086
2413 1 162.375 12.1447 1972 94.8119 1350.77 449.424
2414 0 166.392 12.717 2116 94.7155 1351.37 446.262
2415 0 170.351 13.12 2235 93.8676 1352.08 445.914
2416 0 175.55 12.9935 2281 94.0241 1351.38 444.636
2417 0 179.521 13.6419 2449 93.6174 1351.41 441.189
2418 0 184.417 13.8273 2550 94.6733 1351.33 437.03
2419 0 189.479 13.7218 2600 94.9192 1351.16 433.23
2420 0 197.554 13.4748 2662 93.4741 1350.72 430.673
2421 0 203.499 13.9952 2848 91.5909 1350.34 426.741
2422 0 207.441 12.8808 2672 96.0217 1350.32 424.036
2423 1 149.361 9.68796 1447 93.2474 1351.08 458.955
2424 0 155.556 11.2886 1756 92.2978 1351.41 455.107
2425 0 161.601 11.5593 1868 91.5434 1352.05 452.27
2426 0 166.663 11.8443 1974 90.8136 1352.28 450.387
2427 0 170.712 12.2546 2092 90.7079 1352.18 447.147
2428 0 174.544 12.4496 2173 91.7349 1350.77 443.858
2429 0 179.651 12.2126 2194 92.5059 1350.57 440.042
2430 0 184.639 11.3194 2090 94.3239 1350.74 438.678
2431 0 191.661 12.4021 2377 91.8473 1350.7 435.86
2432 0 197.65 12.7852 2527 91.8951 1351.19 430.429
2433 0 203.492 12.8163 2608 92.1377 1350.45 427.082
2434 0 208.589 12.086 2521 94.5752 1350.66 424.047
2435 0 212.688 12.2339 2602 94.1756 1350.86 422.056
2436 0 221.668 12.5773 2788 93.3372 1350.56 418.02
2437 0 223.485 12.4483 2782 94.4486 1350.8 413.704
2438 0 231.583 12.0648 2794 95.0523 1351.12 409.379
2439 0 235.52 12.2877 2894 96.0518 1351 406.61
2440 0 244.441 12.9315 3161 94.6128 1350.91 402.472
2441 0 252.357 12.5259 3161 94.795 1351.07 399.319
2442 0 257.512 12.5043 3220 95.7873 1350.8 390.244
2443 0 262.432 12.3804 3249 96.3044 1350.94 385.269
2444 0 273.368 12.6862 3468 94.0698 1350.73 380.172
2445 0 280.389 11.7123 3284 94.8621 1350.5 378.013
2446 0 289.383 12.2226 3537 91.6404 1350.47 372.64
2447 0 299.428 11.3517 3399 91.679 1350.37 368.312
2448 1 68.3866 11.4789 785 74.8306 1352.86 502.259
2449 0 66.2031 11.0116 729 77.1536 1352.94 504.742
2450 0 70.0831 11.1439 781 77.1626 1353.13 500.609
2451 0 70.1602 11.1744 784 76.2003 1353.02 504.084
2452 0 74.158 10.8417 804 78.2425 1352.42 500.461
2453 0 75.1065 11.3173 850 78.8941 1352.69 500.255
2454 0 76.0424 10.7177 815 79.6663 1352.04 499.32
2455 0 82.0646 13.0872 1074 73.9106 1352.33 493.324
2456 0 82.0643 11.1985 919 78.9652 1352.35 496.193
2457 0 81.0452 12.0673 978 78.0634 1352.17 495.76
2458 0 81.0793 11.5442 936 80.781 1352.65 494.436
2459 1 107.118 17.6815 1894 59.3891 1352.13 481.409
2460 0 97.1181 13.5608 1317 74.735 1352.19 489.926
2461 0 98.0866 12.3768 1214 78.3526 1352.04 488.547
2462 1 55.0318 10.7938 594 79.8367 1352.11 507.825
2463 0 56.1247 11.3319 636 80.2374 1352.21 507.991
2464 0 58.0883 11.9301 693 80.4199 1352.35 507.908
2465 0 60.1568 12.4175 747 79.0214 1350.66 508.22
2466 0 62.0629 12.3907 769 79.3589 1352.01 507.446
2467 0 62.0443 12.4911 775 80.3961 1352.29 506.001
2468 0 64.0407 12.4921 800 80.84 1352.19 506.204
2469 0 66.0669 13.3501 882 78.856 1351.81 507.503
2470 0 66.0525 11.9602 790 79.2038 1351.48 506.056
2471 0 66.034 12.1907 805 79.7255 1351.4 505.593
2472 0 70.1567 12.7857 897 78.214 1351.83 505.647
2473 0 71.081 12.5913 895 80.0134 1352.02 503.62
2474 0 73.0649 12.5916 920 79.3685 1351.77 502.499
2475 0 74.0578 12.5848 932 80.5805 1351.53 501.808
2476 0 75.1028 13.0222 978 79.3129 1352.02 501.319
2477 0 78.1524 13.3585 1044 78.6571 1352.49 500.318
2478 0 79.104 12.7554 1009 79.5025 1351.73 498.206
2479 0 82.1735 13.4837 1108 78.4305 1350.96 498.625
2480 0 83.0981 13.5863 1129 78.8414 1351 497.596
2481 0 82.0966 13.1187 1077 146.27 1350.91 496.774
2482 0 88.1314 13.1508 1159 77.8671 1350.43 496.217
2483 0 91.1447 13.3853 1220 76.4172 1351.12 493.31
2484 0 92.143 13.186 1215 76.4049 1351.22 491.957
2485 0 97.1882 13.6539 1327 75.4665 1350.8 491.582
2486 0 97.1851 12.9547 1259 77.6577 1350.97 488.038
2487 0 100.089 13.2882 1330 76.791 1351.51 486.659
2488 0 105.213 13.3063 1400 75.8757 1350.28 484.539
2489 0 107.121 13.2 1414 77.6924 1350.52 481.727
2490 0 110.147 13.1551 1449 77.5707 1350.42 480.435
2491 1 56.0327 11.2256 629 75.0906 1351.72 505.677
2492 0 58.0291 11.3391 658 72.1489 1351.5 502.919
2493 0 59.044 11.737 693 70.6537 1352.08 502.064
2494 0 61.0966 11.8501 724 68.6934 1351.37 503.845
2495 0 63.0595 12.2741 774 67.3424 1351.32 502.028
2496 0 65.0301 11.0718 720 69.7833 1351.07 501.289
2497 0 69.0857 11.6811 807 71.4957 1351.15 500.999
2498 0 71.0258 11.348 806 70.4119 1351.78 500.063
2499 0 72.0401 11.6185 837 71.0227 1350.74 498.387
2500 0 76.0621 11.977 911 70.6202 1350.89 498.411
2501 0 79.1167 11.7548 930 70.8118 1350.87 498.951
2502 0 80.091 11.7741 943 71.8812 1350.77 496.942
2503 0 83.1986 12.2118 1016 70.9094 1351.17 497.627
2504 0 85.1286 12.0876 1029 72.2255 1351.33 494.195
2505 0 88.1049 12.1787 1073 71.6533 1350.52 493.934
2506 0 90.0985 12.3975 1117 70.8979 1350.25 494.35
2507 0 93.1414 12.2931 1145 71.407 1350.42 492.376
2508 1 51.0984 10.8223 553 66.5099 1350.5 515.604
2509 0 54.061 12.3749 669 67.0807 1351.22 514.587
2510 0 53.0598 12.1938 647 74.1499 1351.62 514.104
2511 0 54.0222 12.8466 694 73.6282 1350.3 512.154
2512 0 57.0837 13.3839 764 71.9555 1350.8 510.092
2513 0 58.0452 12.9382 751 73.9055 1350.86 509.063
2514 0 62.1027 13.8158 858 69.2751 1350.9 508.428
2515 0 64.1163 13.6939 878 70.0774 1350.59 507.806
2516 0 65.0617 13.3873 871 70.8106 1350.35 506.551
2517 0 67.1345 13.823 928 70.1886 1350.7 505.239
2518 0 69.1036 14.471 1000 69.466 1350.09 504.12
2519 0 69.1425 13.7831 953 70.9412 1349.78 502.911
2520 0 72.0406 13.9088 1002 69.5878 1349.42 501.946
2521 0 76.0741 14.315 1089 68.4224 1349.13 501.269
2522 0 76.2128 13.3049 1014 70.0059 1349.78 498.973
2523 0 78.0952 13.0098 1016 69.7175 1349.33 498.515
2524 0 78.0952 12.9457 1011 134 1349.34 498.465
2525 0 85.0949 13.9491 1187 67.6959 1349.15 495.516
2526 0 87.1018 13.9722 1217 68.9162 1348.96 493.193
2527 0 87.0819 13.6079 1185 70.5426 1349.37 491.907
2528 0 90.0572 13.7579 1239 71.594 1350.21 491.601
2529 0 94.1264 12.7701 1202 78.0532 1349.5 489.709
2530 0 96.1036 12.9756 1247 78.5493 1349.32 489.301
2531 0 98.1875 12.853 1262 79.332 1349.41 487.274
2532 0 102.125 12.7099 1298 79.4083 1349.09 484.089
2533 0 107.072 13.5329 1449 77.7778 1348.74 482.811
2534 0 109.181 12.9784 1417 78.2936 1349.36 481.69
2535 0 113.21 13.1261 1486 80.0108 1348.74 479.264
2536 0 117.254 12.6989 1489 81.0806 1349.58 477.66
2537 1 61.0362 12.2714 749 77.7957 1350.61 505.79
2538 0 63.0177 12.8853 812 79.6256 1350.89 503.507
2539 0 66.0879 13.5123 893 78.6215 1350.02 502.209
2540 0 69.0326 13.2546 915 75.1924 1349.81 502.249
2541 0 70.0732 13.3004 932 75.8777 1349.21 500.152
2542 0 73.0852 13.2722 970 76.5392 1349.71 498.181
2543 0 75.0903 13.3306 1001 76.973 1349.95 498.471
2544 0 78.1502 13.2181 1033 78.5402 1349.64 496.718
2545 0 81.1305 13.8542 1124 77.6254 1349.43 495.933
2546 0 84.1281 13.2774 1117 79.6141 1349.7 496.435
2547 0 85.1746 12.6798 1080 81.7028 1350.22 495.344
2548 0 88.0818 13.7032 1207 80.6901 1349.77 494.08
2549 0 89.1027 13.1421 1171 83.1605 1349.22 491.822
2550 0 91.1058 13.8191 1259 83.4559 1349.03 490.947
2551 0 95.0994 14.2798 1358 83.1981 1349.38 489.267
2552 0 97.0746 13.8141 1341 85.5667 1350.13 487.396
2553 0 99.0379 13.3787 1325 86.8574 1351.49 487.435
2554 0 104.165 13.7091 1428 87.1898 1351.96 485.842
2555 0 105.1 13.3112 1399 90.381 1350.65 483.292
2556 0 111.132 13.8394 1538 88.8277 1351.98 480.879
2557 0 116.135 14.5261 1687 88.0717 1351.63 478.547
2558 0 121.244 14.6399 1775 90 1350.74 474.692
2559 1 65.1833 13.4083 874 87.1831 1351.02 499.991
2560 0 65.2101 13.5715 885 89.0633 1350.71 498.527
2561 0 67.215 14.0891 947 92.0348 1349.97 497.428
2562 0 71.3293 14.1316 1008 92.5655 1350.61 495.978
2563 0 73.2926 13.221 969 95.6068 1350.6 493.98
2564 0 75.2377 13.3842 1007 94.7676 1350.89 494.035
2565 0 77.2206 13.455 1039 94.2791 1351.03 492.368
2566 0 81.4653 13.7727 1122 93.2558 1350.74 490.705
2567 0 82.3437 13.2129 1088 94.296 1350.96 489.858
2568 0 85.3454 13.8379 1181 93.1787 1350.26 488.688
2569 0 89.3748 13.8965 1242 92.3156 1350.94 488.243
2570 0 91.4285 14.0219 1282 92.6529 1350.77 487.998
2571 0 92.3461 13.4061 1238 95.6704 1351.01 485.094
2572 0 95.2316 13.8819 1322 95.0113 1350.8 485.136
2573 0 99.3249 13.9643 1387 94.757 1351.62 484.063
2574 0 100.3 14.0179 1406 95.2112 1351.22 483.757
2575 0 102.232 13.6062 1391 97.4745 1351.34 482.507
2576 0 108.238 14.2002 1537 96.0969 1351.47 480.926
2577 0 109.214 14.0549 1535 96.8717 1351.2 478.421
2578 0 115.16 14.3626 1654 96.8428 1351.23 476.198
2579 0 119.148 14.587 1738 96.9586 1350.27 473.685
2580 0 122.171 14.758 1803 96.3722 1350.39 470.508
2581 0 126.178 14.9075 1881 96.6709 1350.81 470.348
2582 0 132.153 14.8161 1958 97.7942 1349.8 468.196
2583 0 135.239 14.1232 1910 101.745 1350.36 465.136
2584 0 138.265 15.0509 2081 100.705 1350.81 462.47
2585 0 144.192 15.306 2207 101.177 1350.27 460.566
2586 1 78.1014 13.3672 1044 102.55 1351.17 493.345
2587 0 79.0941 13.288 1051 101.685 1351.05 493.037
2588 0 83.1717 14.5602 1211 99.9967 1351.66 489.653
2589 0 85.1572 14.5378 1238 99.8481 1351.45 487.737
2590 0 88.1735 15.4015 1358 97.4728 1350.84 487.248
2591 0 91.147 15.0416 1371 98.5835 1350.76 485.038
2592 0 95.167 15.2994 1456 97.9457 1350.58 483.859
2593 0 97.2755 15.4818 1506 97.7311 1350.87 483.359
2594 0 100.225 15.4751 1551 98.0812 1351.97 481.825
2595 0 104.203 15.6905 1635 97.1774 1351.03 480.533
2596 0 105.16 15.3194 1611 98.1651 1351.59 478.626
2597 0 111.196 14.9017 1657 99.2191 1351.35 476.502
2598 0 114.244 15.0905 1724 98.627 1351.36 475.933
2599 0 117.284 15.6884 1840 98.2348 1350.83 472.823
2600 0 121.298 15.8783 1926 97.9522 1351.05 471.245
2601 0 125.187 15.7924 1977 99.5109 1350.77 470.08
2602 0 127.302 14.9722 1906 102.504 1350.61 466.695
2603 0 131.128 15.5573 2040 101.551 1350.81 464.757
2604 0 137.31 15.5851 2140 102.101 1350.93 462.315
2605 0 141.427 15.8951 2248 100.851 1350.47 460.713
2606 0 145.241 15.7049 2281 101.832 1350.7 459.384
2607 0 149.33 15.6232 2333 103.537 1351.25 454.869
2608 0 153.425 15.6754 2405 103.897 1349.88 454.266
2609 0 159.321 16.0996 2565 101.98 1350.23 449.819
2610 0 164.259 15.4877 2544 101.778 1350.7 448.785
2611 0 169.472 15.7843 2675 101.896 1350.42 446.203
2612 0 175.379 15.8514 2780 101.471 1350.39 443.371
2613 0 181.411 15.5007 2812 101.015 1350.27 439.303
2614 1 81.335 12.0858 983 103.531 1350.34 489.315
2615 0 86.3707 13.2916 1148 99.7822 1350.87 486.889
2616 0 88.1415 14.3179 1262 98.5285 1350.89 484.681
2617 0 92.3962 14.2105 1313 97.1934 1350.48 483.552
2618 0 97.3202 14.5088 1412 95.42 1351.11 481.513
2619 0 100.405 14.3021 1436 96.562 1351.65 478.272
2620 0 103.253 14.4209 1489 97.0275 1351.77 476.997
2621 0 106.389 14.4751 1540 96.8766 1351.7 475.606
2622 1 45.1871 11.8839 537 89.0056 1351.51 507.182
2623 0 45.2293 11.9392 540 90.2074 1351.31 506.274
2624 0 48.3484 11.0448 534 90.1348 1351.05 505.97
2625 0 51.208 11.5412 591 88.4433 1350.93 503.354
2626 0 51.2432 11.7089 600 89.535 1350.76 501.372
2627 0 54.1994 12.9891 704 89.1562 1350.85 500.433
2628 0 58.2968 13.2083 770 90.3506 1351.14 500.173
2629 0 59.3092 13.5898 806 90.2444 1350.9 499.247
2630 0 61.1991 13.5296 828 91.686 1350.9 499.865
2631 0 63.3507 13.449 852 93.0587 1351 498.613
2632 0 66.2549 13.8707 919 94.3134 1350.74 498.436
2633 0 65.2909 13.279 867 98.2399 1351.61 498.316
2634 0 69.2874 13.8553 960 96.824 1351.08 498.003
2635 0 72.3032 14.3147 1035 96.6705 1351.24 496.305
2636 0 74.3097 14.4127 1071 97.2456 1351.73 494.075
2637 0 76.2405 14.1132 1076 99.2862 1351.23 493.625
2638 0 79.289 14.5417 1153 100.345 1351.62 491.272
2639 0 80.3658 13.8118 1110 103.448 1350.93 491.893
2640 0 84.2843 14.7477 1243 101.478 1351.26 489.715
2641 0 88.233 14.473 1277 102.825 1350.83 487.371
2642 0 89.2861 14.5375 1298 104.323 1350.32 486.206
2643 0 93.3858 14.681 1371 104.524 1351.08 485.48
2644 0 97.2178 15.0178 1460 104.159 1350.55 484.175
2645 0 98.1486 15.0894 1481 105.195 1350.01 484.275
2646 0 103.248 14.7897 1527 102.885 1350.35 483.542
2647 0 103.248 14.7993 1528 175.283 1350.34 483.599
2648 0 108.097 14.9125 1612 103.708 1351.41 482.243
2649 0 111.089 15.1591 1684 103.583 1351.3 479.078
2650 0 114.196 15.0794 1722 103.901 1350.58 478.725
2651 0 117.152 14.6733 1719 106.237 1350.36 478.767
2652 0 118.085 13.8459 1635 103.84 1350.63 476.66
2653 1 63.0689 14.508 915 106.533 1350.58 503.666
2654 0 64.0468 14.8641 952 106.538 1350.93 502.718
2655 0 66.1797 15.0953 999 109.493 1350.58 500.061
2656 0 68.3152 14.682 1003 112.396 1350.86 498.519
2657 0 71.2183 15.0242 1070 111.246 1351.71 497.95
2658 0 73.2104 14.834 1086 111.077 1352.4 496.097
2659 0 75.2365 14.9927 1128 111.644 1351.28 494.675
2660 0 78.3006 14.9807 1173 115.008 1351.47 493.736
2661 0 80.1946 14.9511 1199 114.626 1350.62 493.781
2662 0 82.1876 15.3186 1259 114.839 1351.58 492.04
2663 0 83.2223 15.1402 1260 116.39 1351.43 491.683
2664 0 88.1382 15.6572 1380 115.616 1351.13 489.508
2665 0 89.1675 15.6335 1394 116.506 1351.08 488.519
2666 0 92.1688 16.1009 1484 115.888 1351.71 488.497
2667 0 95.204 15.6191 1487 116.658 1350.99 483.658
2668 0 99.1802 16.2129 1608 113.804 1350.79 482.414
2669 0 101.252 16.0984 1630 113.347 1350.77 483.324
2670 0 106.208 16.3735 1739 112.656 1350.84 480.948
2671 0 108.178 16.4359 1778 113.125 1351.42 478.908
2672 0 112.217 16.281 1827 112.007 1351.6 477.285
2673 0 118.295 16.7378 1980 108.021 1351.62 476.355
2674 0 121.158 16.2516 1969 110.318 1352.3 474.082
2675 1 64.2017 13.5822 872 115.038 1352.18 501.123
2676 0 66.1085 14.4611 956 114.433 1352.12 499.937
2677 0 69.0606 14.7841 1021 116.274 1351.86 498.931
2678 0 69.054 14.6552 1012 117.168 1351.67 496.828
2679 0 71.0717 15.0693 1071 115.594 1351.84 496.793
2680 0 75.0378 14.8725 1116 116.556 1351.16 495.846
2681 0 77.1356 14.8958 1149 116.875 1351.11 495.829
2682 0 80.0889 14.7711 1183 116.015 1350.74 495.494
2683 0 82.1035 14.8471 1219 117.486 1350.6 494.163
2684 0 85.0629 14.8949 1267 116.223 1350.57 493.447
2685 0 86.1662 14.7854 1274 117.642 1351 492.88
2686 0 90.0651 15.622 1407 115.967 1350.86 490.226
2687 0 94.119 15.0554 1417 118.739 1350.46 488.102
2688 0 96.0768 15.2274 1463 118.972 1350.38 487.592
2689 1 46.0625 13.2863 612 118.109 1350.78 511.351
2690 0 49.0642 13.3498 655 117.429 1350.57 510.337
2691 0 51.1302 13.847 708 115.03 1350.7 509.932
2692 0 51.1084 14.5182 742 121.718 1350.58 508.701
2693 0 54.0552 14.6702 793 120.232 1350.61 508.424
2694 0 54.0448 14.2104 768 122.181 1350.95 507.835
2695 0 59.062 14.8319 876 118.053 1349.78 505.933
2696 0 59.0995 14.6194 864 119.054 1349.48 505.679
2697 0 60.1156 14.9046 896 120.254 1350.22 504.198
2698 0 62.1895 14.8417 923 120.35 1350.42 502.866
2699 0 65.1844 15.5405 1013 118.992 1349.72 500.987
2700 0 67.1008 14.9924 1006 121.431 1349.83 500.119
2701 0 68.1147 14.9454 1018 122.043 1349.43 498.972
2702 0 69.1447 15.2434 1054 122.463 1349.79 497.009
2703 0 73.1949 15.5748 1140 120.317 1349.78 496.835
2704 0 76.334 15.2619 1165 119.468 1349.82 494.55
2705 0 76.415 15.3111 1170 120.059 1349.5 493.95
2706 0 78.0892 15.0341 1174 122.553 1350.04 493.279
2707 0 79.352 15.551 1234 122.21 1350.6 492.764
2708 0 83.1881 15.4349 1284 121.848 1351.04 491.494
2709 0 85.3042 15.9781 1363 121.357 1350.88 490.811
2710 0 88.2051 15.4186 1360 124.867 1350.18 488.947
2711 0 89.1757 15.2732 1362 128.43 1350.71 487.582
2712 0 92.1638 15.722 1449 128.085 1350.1 485.508
2713 0 96.1545 15.6831 1508 127.621 1350.44 483.251
2714 0 99.2084 15.6539 1553 127.84 1350.37 482.436
2715 0 100.13 15.8694 1589 132.32 1349.3 480.408
2716 1 51.1797 13.2279 677 136.962 1349.74 503.775
2717 0 54.2942 13.7768 748 136.267 1350.38 502.432
2718 0 54.2361 14.8056 803 137.514 1349.78 501.961
2719 0 57.224 14.7491 844 140.258 1349.65 500.643
2720 0 58.3314 15.0005 875 142.792 1349.83 499.864
2721 0 59.1987 14.7807 875 147.981 1349.67 498.914
2722 0 62.43 14.8967 930 147.196 1349.79 497.749
2723 0 62.4394 15.1187 944 148.131 1349.51 497.508
2724 0 65.4173 15.1642 992 150.366 1349.52 496.056
2725 0 66.1997 15.9215 1054 149.168 1349.81 496.847
2726 0 69.2928 15.8747 1100 149.7 1350.32 495.216
2727 0 70.2679 15.5121 1090 152.522 1350.45 494
2728 0 71.157 15.782 1123 154.226 1350.98 492.322
2729 0 74.1744 15.1535 1124 155.307 1349.97 492.095
2730 0 77.2603 15.2472 1178 155.578 1349.91 490.677
2731 0 80.2677 15.6352 1255 151.881 1350.38 490.219
2732 0 80.2447 15.6023 1252 178.113 1351.38 490.274
2733 0 84.2839 15.8512 1336 148.826 1350.42 487.282
2734 0 87.3037 15.3373 1339 148.946 1350.27 485.648
2735 0 89.3285 15.874 1418 147.066 1350.51 484.591
2736 0 93.2898 15.9717 1490 145.429 1350.54 483.403
2737 0 96.1782 15.8248 1522 145.065 1350.4 481.861
2738 0 98.3207 16.1309 1586 144.545 1350.5 479.187
2739 0 102.273 16.0257 1639 147.527 1350.5 478.638
2740 0 102.273 16.104 1647 177.369 1350.53 478.664
2741 0 108.098 16.3093 1763 146.097 1350.62 475.259
2742 0 112.089 16.0944 1804 146.633 1350.33 473.688
2743 0 117.163 16.0801 1884 146.609 1350.33 471.273
2744 0 121.202 16.2043 1964 145.331 1350.73 469.956
2745 0 124.214 16.4876 2048 143.028 1350.71 469.586
2746 0 127.313 16.4948 2100 144.761 1351.64 466.881
2747 0 130.09 16.0734 2091 145.249 1351.37 464.696
2748 0 134.24 16.7461 2248 141.805 1351.13 464.418
2749 1 70.1277 15.0582 1056 150.347 1350.95 494.134
2750 0 74.1647 15.3307 1137 147.185 1351.21 492.639
2751 0 75.1198 14.8296 1114 149.244 1351.2 490.754
2752 0 79.0549 15.2679 1207 147.333 1351.32 490.35
2753 0 79.0672 15.1264 1196 149.152 1351.19 489.067
2754 0 84.0669 14.8334 1247 147.464 1351.11 488.562
2755 0 84.1035 14.7913 1244 150.268 1351.15 486.614
2756 0 90.0578 15.0237 1353 146.105 1351.02 485.619
2757 0 90.0851 14.6639 1321 150.266 1351.13 483.58
2758 0 93.0555 15.3349 1427 150.578 1351.01 481.162
2759 0 95.0833 15.397 1464 154.76 1351.44 482.014
2760 0 97.079 15.1835 1474 157.539 1351.21 479.944
2761 0 97.0898 15.2333 1479 176.94 1351.22 480.039
2762 0 102.067 15.098 1541 160.223 1350.54 476.585
2763 0 106.076 15.14 1606 158.974 1350.43 476.588
2764 0 110.1 15.9128 1752 154.62 1350.96 473.845
2765 0 113.11 15.7104 1777 155.092 1350.84 474.064
2766 0 116.074 15.18 1762 156.809 1350.3 470.471
2767 0 121.084 16.1376 1954 152.453 1351 470.307
2768 0 124.143 15.3211 1902 155.825 1350.91 467.336
2769 0 127.124 15.6068 1984 156.155 1351.31 466.241
2770 0 129.186 15.6595 2023 157.771 1351.93 463.359
2771 0 132.276 15.7852 2088 157.465 1350.5 463.58
2772 0 137.171 15.6374 2145 157.937 1350.91 460.815
2773 0 140.305 15.5732 2185 158.817 1350.51 457.577
2774 0 144.2 15.6726 2260 160.748 1350.36 456.568
2775 0 148.207 15.6133 2314 158.365 1350.98 453.937
2776 0 152.145 15.8073 2405 157.758 1350.42 452.293
2777 0 159.225 15.7953 2515 156.433 1350.11 451.274
2778 0 163.245 15.7126 2565 157.1 1350.79 449.261
2779 0 168.312 15.192 2557 160.179 1351.13 445.2
2780 0 175.171 15.6704 2745 158.316 1350.1 443.124
2781 1 104.09 12.9696 1350 153.297 1350.4 479.147
2782 0 107.079 13.2799 1422 152.596 1350.51 476.871
2783 0 111.093 12.7011 1411 157.112 1350.23 474.822
2784 0 114.155 12.2991 1404 158.956 1350.28 471.821
2785 0 118.14 12.9169 1526 156.589 1350.72 469.501
2786 0 121.139 12.9521 1569 155.832 1350.89 468.293
2787 0 126.122 13.0508 1646 156.693 1350.55 466.022
2788 0 129.132 13.041 1684 157.899 1350.87 464.694
2789 0 134.171 13.1847 1769 159.554 1351.17 462.315
2790 0 138.149 13.3045 1838 160.218 1350.53 457.945
2791 0 143.161 13.3975 1918 160.73 1350.17 455.006
2792 0 147.251 13.1884 1942 160.756 1350.78 452.502
2793 0 152.234 13.0457 1986 161.783 1350.31 449.833
2794 0 158.197 13.6286 2156 160.97 1350.56 449.227
2795 0 163.201 13.0207 2125 162.433 1350.16 445.944
2796 1 13.0026 5.61426 73 93.7808 1350.04 526.959
2797 0 12.0018 5.2492 63 95.254 1349.97 527.635
2798 0 14.0007 4.64262 65 96.0462 1350.02 526.508
2799 0 13.0009 5.23039 68 92.1618 1350.44 527.147
2800 0 14.0007 3.92836 55 94.7091 1351.29 527.618
2801 0 16.0013 6.93695 111 89.6486 1351.14 527.387
2802 0 16.0016 5.49945 88 94.1818 1352.26 527.307
2803 0 13.0017 5.38389 70 90.5429 1352.84 528.443
2804 0 15.0185 4.66093 70 91.0143 1352.37 527.186
2805 1 48.1425 5.48372 264 100.818 1351.08 509.216
2806 0 50.1108 4.35036 218 103.55 1351.52 507.408
2807 0 54.1362 6.22505 337 100.496 1352.43 507.421
2808 0 54.1405 6.02137 326 101.267 1352.43 506.699
2809 0 55.1364 4.57048 252 105.556 1352.18 500.984
2810 0 57.1786 5.12429 293 104.474 1352.17 502.382
2811 0 60.1597 7.33048 441 100.696 1351.63 500.771
2812 0 61.1662 5.2153 319 103.536 1351.77 497.423
2813 0 63.1603 5.00314 316 103.225 1352.47 498.057
2814 0 65.1239 6.05 394 101.546 1351.24 497.107
2815 0 67.1538 5.95648 400 102.055 1351.59 497.53
2816 1 44.2071 6.03976 267 104.981 1351.28 490.637
2817 1 160.381 8.64194 1386 122.397 1350.8 443.848
2818 0 163.327 8.03296 1312 123.738 1350.92 441.844
2819 1 122.269 7.72885 945 118.055 1350.58 461.498
2820 0 126.329 9.40402 1188 111.136 1350.95 463.838
2821 0 125.198 7.10076 889 117.556 1350.58 464.057
2822 0 127.377 6.77517 863 120.299 1350.76 459.264
2823 0 127.286 7.02353 894 118.615 1350.4 461.022
2824 0 137.31 6.41615 881 115.728 1349.94 448.805
2825 0 137.331 6.33506 870 115.668 1350.96 449.139
2826 0 137.251 5.53729 760 113.145 1350.97 462.311
2827 0 136.158 4.20835 573 117.998 1350.13 456.222
2828 0 136.204 3.9426 537 116.38 1350.15 461.078
2829 1 114.245 6.25851 715 114.081 1349.9 459.799
2830 1 18.0084 4.88661 88 81.8182 1350.57 527.136
2831 0 19.0177 5.67891 108 80.3426 1351.15 526.241
2832 0 18.0265 6.87877 124 78.1855 1350.23 527.452
2833 0 19.0383 6.61824 126 77.881 1349.99 528.19
2834 0 20.0225 7.74128 155 76.0129 1350.44 526.858
2835 0 21.0667 6.93037 146 74.9589 1350.47 527.685
2836 0 20.0111 6.79624 136 75.3162 1348.39 525.787
2837 0 21.018 7.56494 159 73.7358 1348.53 525.748
2838 0 20.0127 7.34532 147 72.1361 1348.95 527.524
2839 0 18.0175 6.49367 117 75.3761 1349.38 527.812
2840 0 20.0338 7.18786 144 72.7361 1349.46 526.792
2841 0 20.0041 7.54847 151 72.3775 1348.82 526.192
2842 0 21.0173 7.61277 160 71.175 1348.37 526.869
2843 0 23.0159 6.60412 152 70.8421 1348.26 524.408
2844 0 20.016 7.29416 146 71.2055 1348.16 523.342
2845 0 19.0796 7.75698 148 71.9392 1349.25 523.946
2846 0 18.0064 5.88678 106 72.8491 1352.07 527.33
2847 0 20.0037 7.34865 147 70.5238 1351.64 527.238
2848 0 20.0093 7.84636 157 69.879 1351.42 527.994
2849 0 20.0024 8.09903 162 67.9259 1351.66 526.636
2850 0 19.0014 8.15729 155 69.0452 1352.46 524.903
2851 0 21.0038 8.189 172 67.2209 1351.48 527.093
2852 0 20.1208 7.85259 158 65.5 1351.11 525.842
2853 0 22.0615 7.66042 169 63.2367 1351.57 525.414
2854 0 23.0278 7.81664 180 62.5611 1351.21 525.644
2855 0 23.194 8.9247 207 61.285 1350.45 525.295
2856 0 24.2862 8.44101 205 64.5512 1350 522.644
2857 1 117.648 10.4039 1224 83.46 1350.35 468.691
2858 0 120.49 11.0798 1335 82.0861 1350.45 468.043
2859 0 123.661 11.3698 1406 80.574 1351.27 467.31
2860 0 128.505 11.1046 1427 79.6608 1351.56 466.304
2861 1 72.296 7.85659 568 71.0986 1352.1 493.884
2862 0 76.4435 9.47105 724 67.9696 1351.03 493.298
2863 0 79.2911 9.32009 739 68.4411 1351.55 494.018
2864 0 79.1724 9.87718 782 69.8261 1351.02 492.627
2865 0 81.0966 9.84011 798 68.6629 1350.85 492.268
2866 0 83.237 9.67118 805 67.9565 1350.3 490.975
2867 0 85.2522 9.59506 818 69.0061 1350.7 489.17
2868 0 89.2022 10.437 931 68.0537 1351.55 489.574
2869 1 19.0238 7.93743 151 60.9205 1352.46 524.079
2870 0 19.0083 6.94434 132 61.9394 1352.53 525.773
2871 0 18.0094 6.21898 112 63.3214 1352.95 526.214
2872 0 19.0018 6.47309 123 64.626 1352.57 525.463
2873 0 17.0136 6.58296 112 63.5446 1353.7 526.089
2874 0 17.0225 5.63961 96 64.4062 1353.97 525.344
2875 0 18.0115 7.10656 128 62.9844 1353.92 525.375
2876 0 17.0116 7.99455 136 63.0956 1353.05 523.963
2877 0 17.0093 6.64343 113 64.1327 1353.73 524.416
2878 0 17.0128 5.7016 97 64.1443 1353.28 526.103
2879 1 112.37 10.6879 1201 78.5337 1350.13 473.097
2880 0 116.319 11.1418 1296 77.7716 1350.2 473.083
2881 0 117.289 10.6148 1245 78.1446 1350.67 472.569
2882 0 122.381 11.5133 1409 75.6515 1350.23 470.676
2883 0 125.335 11.4094 1430 77.0315 1350.47 468.313
2884 0 127.468 10.3163 1315 80.5954 1350.38 464.226
2885 0 132.584 10.6951 1418 81.5226 1349.88 458.759
2886 1 77.2622 8.20582 634 73.6798 1349.71 493.625
2887 0 81.4244 9.81278 799 73.7059 1350.95 494.109
2888 0 84.4118 9.98675 843 76.7414 1350.59 492.655
2889 0 85.2963 10.2584 875 77.8571 1350.27 487.846
2890 0 88.4882 10.3178 913 78.2322 1350.49 487.545
2891 0 90.4014 10.3206 933 78.671 1350.8 487.466
2892 0 94.3331 10.834 1022 69.8063 1350.3 486.58
2893 0 93.2715 9.97089 930 78.7151 1350.11 484.372
2894 0 94.3607 10.6718 1007 80.3644 1349.9 484.639
2895 0 94.2802 9.6839 913 87.4239 1350.5 482.424
2896 0 96.2464 10.6497 1025 78.5873 1350.24 483.338
2897 0 97.2782 10.5779 1029 81.9252 1350.07 483.249
2898 0 96.2095 10.3212 993 83.8932 1349.94 483.656
2899 0 97.3781 10.7519 1047 83.1939 1350.35 483.483
2900 0 101.242 11.349 1149 80.7041 1350.57 482.017
2901 0 104.182 11.0864 1155 79.3965 1351.16 481.512
2902 0 107.294 10.3827 1114 79.3043 1350.81 478.195
2903 0 108.298 10.5357 1141 79.8484 1350.25 475.601
2904 0 110.296 10.6169 1171 78.5243 1350.26 476.92
2905 0 115.362 10.7401 1239 78.017 1350.56 474.101
2906 0 118.326 10.6317 1258 77.6669 1350.12 472.006
2907 0 119.276 10.1026 1205 78.2631 1350.18 468.571
2908 0 123.266 11.3332 1397 77.6292 1349.89 470.092
2909 0 129.288 11.8417 1531 74.5382 1350.07 470.628
2910 0 130.26 12.3829 1613 76.8549 1351.07 464.104
2911 0 135.267 12.2499 1657 78.697 1349.95 465.477
2912 1 74.1488 9.52139 706 74.6331 1350.76 497.899
2913 0 75.1432 9.96764 749 75.5447 1351.17 499.186
2914 0 78.1298 10.137 792 76.3763 1351.15 497.616
2915 0 79.1086 10.4287 825 77.6206 1350.47 495.672
2916 0 81.1463 10.401 844 78.2358 1350.82 495.845
2917 0 85.1726 11.1538 950 76.101 1350.47 494.763
2918 0 85.0873 10.5069 894 77.5056 1350.43 494.573
2919 0 88.1043 10.6238 936 78.5481 1351.06 492.818
2920 0 89.1059 10.1565 905 81.0122 1351.75 492.314
2921 0 91.0705 10.124 922 79.0922 1351.33 492.121
2922 0 94.0378 10.8999 1025 79.4546 1351.99 490.297
2923 0 97.0931 10.9277 1061 80.4496 1351.25 489.047
2924 0 100.099 11.0091 1102 82.8911 1351.07 488.142
2925 0 101.112 10.6515 1077 88.0232 1352.11 486.753
2926 1 42.0612 10.0568 423 81.617 1352.41 517.175
2927 0 45.0839 10.1588 458 81.786 1351.95 514.854
2928 0 44.1022 11.2013 494 81.3401 1352.09 514.775
2929 0 45.0096 11.442 515 90.4466 1349.99 513.485
2930 0 47.0177 10.9321 514 90.4805 1349.74 513.109
2931 0 44.029 10.6294 468 97.4957 1351.41 513.684
2932 0 44.0403 9.99085 440 100.802 1351.18 514.509
2933 0 45.0947 10.4003 469 101.898 1351.28 514.893
2934 0 49.0414 10.2159 501 101.856 1352.65 513.818
2935 0 48.0651 10.0697 484 105.118 1351.96 513.655
2936 0 49.0946 10.5103 516 106.926 1352.23 512.705
2937 0 51.1117 10.6629 545 107.527 1352.02 513.108
2938 0 52.0671 10.9282 569 107.731 1352.23 512.951
2939 0 54.0771 11.0398 597 108.95 1351.5 511.982
2940 0 55.0836 11.3101 623 109.78 1351.49 510.693
2941 0 56.0474 10.5803 593 111.653 1351.61 510.848
2942 0 57.0795 11.7906 673 108.884 1351.29 509.602
2943 0 57.0646 11.0401 630 111.398 1351.4 509.462
2944 0 58.0913 11.4131 663 112.278 1351 508.284
2945 0 59.1394 11.1939 662 110.16 1350.83 508.323
2946 0 61.054 12.0058 733 106.872 1351.36 508.153
2947 0 63.0872 11.9517 754 106.503 1351.24 506.399
2948 0 64.1287 11.6173 745 107.616 1351.31 506.213
2949 0 65.0732 11.9865 780 106.122 1350.96 505.106
2950 0 66.0993 12.0274 795 106.35 1351.11 505.902
2951 0 69.0844 12.3183 851 104.212 1351.27 503.214
2952 0 70.0888 12.37 867 103.842 1351.61 503.448
2953 0 73.0843 12.3693 904 102.996 1351.76 503.399
2954 0 75.0797 12.9729 974 102.777 1350.91 501.352
2955 0 77.171 11.7661 908 105.694 1351.26 500.588
2956 0 79.0776 12.3929 980 103.07 1350.5 499.783
2957 0 84.1715 12.2488 1031 103.251 1350.89 498.334
2958 0 84.0659 12.3831 1041 104.357 1351.07 498.522
2959 0 86.0447 12.6214 1086 101.487 1351.13 498.69
2960 0 88.1092 12.8817 1135 103.413 1350.2 496.818
2961 0 91.0981 12.7555 1162 103.853 1350.59 496.944
2962 0 94.1546 13.0742 1231 104.146 1351.09 496.036
2963 0 94.0802 13.1909 1241 107.254 1351.7 492.498
2964 0 98.0859 13.2537 1300 107.398 1350.9 493.153
2965 0 99.0944 13.0179 1290 109.355 1350.69 490.192
2966 0 103.191 13.5186 1395 109.267 1351.09 489.707
2967 0 108.134 14.2971 1546 107.704 1350.97 487.074
2968 0 108.123 13.9563 1509 112.204 1350.82 485.019
2970 0 111.063 13.803 1533 112.984 1350.75 484.504
2971 0 114.15 14.2006 1621 113.764 1350.37 481.77
2972 0 117.08 13.9392 1632 115.268 1350.38 481.4
2973 0 121.102 14.0378 1700 115.218 1350.81 479.592
2974 0 124.124 14.2921 1774 114.63 1351.36 478.301
2975 0 128.201 13.549 1737 116.092 1349.97 475.093
2976 0 137.259 14.1849 1947 103.337 1350.42 466.591
2977 0 140.09 14.3194 2006 105.462 1350.64 465.709
2978 0 142.125 13.7625 1956 108.635 1350.9 462.167
2979 0 145.158 13.4061 1946 108.272 1350.71 460.31
2980 0 151.219 13.5697 2052 106.492 1350.09 457.004
2981 0 156.145 13.3593 2086 107.093 1350.4 452.523
2982 0 163.168 14.5984 2382 101.5 1350.44 451.393
2983 0 163.216 13.479 2200 105.435 1350.57 449.325
2984 0 171.184 14.0726 2409 102.552 1350.65 447.784
2985 0 176.184 13.6562 2406 102.834 1350.52 443.929
2986 0 180.164 14.0261 2527 100.756 1350.57 442.466
2987 0 186.195 14.039 2614 99.1859 1350.46 440.782
2988 0 191.156 13.7741 2633 100.859 1350.77 438.294
2989 0 199.134 13.8299 2754 101.385 1350.91 436.225
2990 0 206.26 14.0987 2908 100.145 1350.75 431.766
2991 0 214.25 14.2124 3045 99.7859 1350.69 429.346
2992 0 223.21 14.0809 3143 100.207 1350.75 426.284
2993 0 229.218 13.7249 3146 98.986 1350.53 424.296
2994 0 239.274 14.2849 3418 96.3297 1350.97 420.133
2995 0 245.396 13.9 3411 97.6995 1350.68 417.395
2996 1 191.161 13.125 2509 104.119 1350.91 441.472
2997 0 199.231 13.8382 2757 99.5676 1351.6 438.069
2998 0 204.308 13.6265 2784 97.6836 1350.96 436.42
2999 0 212.276 13.4966 2865 96.6035 1350.33 432.888
3000 0 219.313 13.1775 2890 96.1228 1350.89 427.088
3001 0 226.298 13.6236 3083 94.9098 1350.35 424.794
3002 0 234.351 13.7145 3214 95.2464 1350.52 421.016
3003 0 240.326 13.3568 3210 95.9763 1350.54 415.702
3004 0 248.284 13.5812 3372 97.5193 1351.15 413.318
3005 0 257.36 14.2019 3655 95.9439 1350.05 409.434
3006 0 266.329 13.8513 3689 97.103 1350.5 407.433
3007 0 272.425 16.0521 4373 92.3478 1350.59 394.314
3008 0 281.417 16.0865 4527 90.2032 1350.66 390.382
3009 0 289.427 16.581 4799 89.357 1350.16 386.264
3010 1 218.189 13.6029 2968 93.2113 1350.2 431.662
3011 0 223.227 13.5691 3029 93.8452 1350.23 425.562
3012 0 231.378 13.9901 3237 92.7325 1350.69 424.636
3013 0 236.419 13.9075 3288 92.7634 1352.46 418.825
3014 0 242.382 13.6314 3304 93.1892 1352.3 414.532
3015 0 254.318 13.8016 3510 93.1131 1352.51 410.725
3016 0 264.43 14.155 3743 89.9391 1352.02 404.737
3017 1 179.202 12.9072 2313 89.3956 1352.6 450.748
3018 0 187.274 13.248 2481 85.4647 1351.44 446.507
3019 0 194.296 14.1022 2740 83.5263 1351.09 440.34
3020 0 198.281 13.3144 2640 92.6864 1351.27 437.296
3021 0 204.18 13.7085 2799 91.4612 1350.4 435.567
3022 0 211.274 13.4612 2844 88.4065 1351.07 430.983
3023 0 220.421 13.4788 2971 88.4332 1351.46 427.41
3024 0 225.441 13.4847 3040 90.2043 1351.12 421.007
3025 0 233.363 13.4383 3136 88.6665 1350.58 420.066
3026 0 240.295 13.5958 3267 92.7022 1350.55 417.206
3027 0 250.291 14.8028 3705 94.9439 1350.52 410.423
3028 0 258.268 15.3871 3974 90.6877 1351 402.346
3029 1 189.297 13.6664 2587 96.4608 1351.59 443.801
3030 0 194.349 13.9491 2711 94.2176 1350.99 441.784
3031 0 198.38 13.6102 2700 100.097 1351.47 437.384
3032 0 205.41 13.568 2787 96.2314 1351.42 430.799
3033 0 211.377 13.3979 2832 96.4792 1351.65 428.512
3034 0 217.347 13.4118 2915 95.9997 1351.65 425.382
3035 0 221.307 13.583 3006 97.2678 1350.52 424.755
3036 0 230.334 13.4327 3094 98.5947 1350.55 420.503
3037 0 234.338 13.0367 3055 99.4121 1350.53 415.656
3038 0 243.398 13.9566 3397 97.4207 1350.59 414.537
3039 0 250.309 13.3715 3347 102.638 1350.38 410.884
3040 0 256.405 14.0598 3605 103.4 1350.86 407.022
3041 0 265.244 13.7948 3659 103.295 1350.37 403.331
3042 0 274.332 14.0195 3846 102.217 1350.42 397.473
3043 0 284.427 14.4115 4099 102.383 1350.41 392.922
3044 0 290.373 14.1508 4109 102.906 1350.19 388.574
3045 0 296.457 13.5095 4005 102.692 1350.95 380.875
3046 0 308.394 13.8686 4277 101.823 1350.26 379.895
3047 0 318.579 15.9835 5092 95.0487 1350.73 367.205
3048 0 328.544 15.9096 5227 93.6857 1350.59 361.469
3049 1 40.0283 9.3184 373 70.2493 1350.16 509.74
3050 0 40.1337 9.49326 381 69.8268 1350.48 511.669
3051 0 44.0046 11.2943 497 74.7324 1350.96 513.437
3052 0 45.0282 11.082 499 75.7996 1352.33 513.555
3053 0 45.0187 11.9506 538 75.8587 1352.43 513.441
3054 0 46.0189 12.1472 559 76.9964 1352.68 511.907
3055 0 46.0157 11.4309 526 80.4962 1352 513.43
3056 0 46.0215 11.9944 552 80.8841 1352.31 512.696
3057 0 46.0281 12.2099 562 82.6103 1352.68 511.82
3058 0 48.0707 12.5648 604 80.7417 1352.22 512.513
3059 0 46.0156 12.5392 577 84.0173 1352.25 512.596
3060 0 48.013 12.0384 578 84.5709 1352.2 512.324
3061 0 48.0636 12.213 587 84.6167 1351.68 511.804
3062 0 48.0388 12.4899 600 84.2417 1352.74 511.515
3063 0 50.0294 12.7525 638 82.837 1351.9 512.135
3064 0 55.0224 13.0674 719 68.8053 1350.65 460.929
3065 0 385.257 14.4657 5573 102.251 1350.58 303.755
3066 0 383.512 14.9461 5732 103.817 1350.51 305.046
3067 0 398.952 13.9816 5578 108.416 1351.35 286.296
3068 0 409.525 13.5865 5564 108.534 1350.78 274.158
3069 1 45.01 12.7971 576 69.9566 1351.51 505.564
3070 0 94.0671 6.65483 626 69.8259 1351.72 504.029
3071 0 85.129 7.30656 622 68.1479 1351.36 502.162
3072 0 86.1207 8.05846 694 66.0504 1351.51 501.499
3073 1 49.0406 13.3563 655 69.0137 1351.93 503.811
3074 0 52.0352 15.0091 781 62.8348 1350.82 505.735
3075 0 52.041 14.7576 768 64.0234 1351.34 505.915
3076 0 52.0903 15.07 785 62.3312 1351.81 507.28
3077 0 51.0193 14.5827 744 63.9543 1352.42 507.524
3078 0 52.0118 15.0927 785 62.7503 1351.61 506.529
3079 0 51.0195 14.4259 736 63.913 1351.47 506.418
3080 0 52.0374 14.4319 751 63.1691 1351.46 507.722
3081 0 52.0605 15.117 787 62.859 1351.26 507.083
3082 0 53.119 14.3828 764 63.5393 1351.74 507.563
3083 0 53.0718 15.2435 809 61.1706 1352.48 507.54
3084 0 54.0738 15.0165 812 61.5862 1352.05 504.784
3085 0 52.0259 14.4928 754 63.5451 1351.82 508.077
3086 0 52.0501 14.6782 764 61.1623 1352.6 507.071
3087 0 54.0822 14.515 785 61.0777 1351.01 506.552
3088 0 53.0319 15.6321 829 67.6876 1352.47 511.099
3089 0 53.0767 15.0348 798 74.9987 1351.69 509.61
3090 0 54.032 15.1207 817 73.6781 1351.6 509.968
3091 0 54.0583 15.5018 838 72.1599 1351.79 509.9
3092 0 54.0753 15.1825 821 71.7856 1351.73 508.966
3093 0 54.0116 14.8301 801 71.7378 1352.02 508.769
3094 0 55.0326 15.2273 838 68.994 1352.23 508.407
3095 0 54.053 15.1703 820 69.3476 1351.42 508.026
3096 0 54.1284 15.26 826 68.7216 1352.07 507.897
3097 0 56.0739 15.7292 882 60.2823 1352.6 510.388
3098 0 56.0428 15.274 856 59.1951 1351.19 509.27
3099 0 55.057 15.3659 846 58.8109 1351.27 509.63
3100 0 55.0955 15.4822 853 57.7831 1351.45 509.034
3101 0 54.0423 15.2288 823 59.0267 1350.94 508.226
3102 0 55.0415 15.1885 836 57.4175 1351.17 509.081
3103 0 56.0328 15.4374 865 56.7942 1351.24 509.666
3104 0 56.0919 16.0094 898 54.2695 1351.04 508.135
3105 0 56.0693 15.4987 869 60.6686 1351.06 506.815
3106 0 56.0969 15.1167 848 60.487 1351.06 506.156
3107 0 57.0643 15.7717 900 58.6322 1351.71 506.227
3108 0 58.0925 16.2672 945 56.7767 1351.99 506.543
3109 0 57.0987 15.9373 910 56.8154 1351.48 506.696
3110 0 57.024 15.0814 860 58.2977 1351.96 506.402
3111 0 58.037 15.6107 906 56.0298 1352.51 505.304
3112 0 58.0362 15.6971 911 55.2228 1351.46 505.652
3113 0 58.0403 16.1784 939 53.9074 1352.8 506.089
3114 0 57.0155 15.1362 863 55.1993 1353.1 506.831
3115 0 57.031 16.1667 922 53.1638 1352.75 505.979
3116 0 58.0465 15.0397 873 55.0687 1352.83 505.403
3117 0 57.0202 14.1704 808 57.1894 1353.22 505.174
3118 0 57.0115 15.9091 907 52.9901 1351.63 505.577
3119 0 57.0392 15.8838 906 52.7715 1351.94 506.523
3120 0 58.0432 15.9192 924 51.6991 1351.98 506.04
3121 0 58.0288 15.4406 896 51.7422 1351.93 505.386
3122 0 59.0334 15.0762 890 51.3708 1351.66 506.516
3123 0 57.0375 15.4109 879 50.9272 1351.93 505.639
3124 0 57.1323 15.7879 902 50.0843 1351.69 504.282
3125 0 53.0469 12.1402 644 55.3075 1351.61 504.697
3126 0 53.035 12.4635 661 55.4614 1352.83 505.039
3127 0 54.1147 12.4735 675 54.1393 1351.91 506.299
3128 0 59.0682 15.863 937 47.7652 1351.45 504.495
3129 0 60.0555 15.8187 950 47.36 1351.68 504.663
