time division length width area intensity CMx CMy
0 0 77.0793 12.4547 960 108.724 1375.44 500.504
1 0 78.0969 12.907 1008 107.565 1374.59 499.314
2 0 79.1758 12.0997 958 109.578 1374.73 499.888
3 0 83.0772 12.2657 1019 107.821 1374.48 497.946
4 0 86.1286 12.6787 1092 105.19 1374.55 500.053
5 0 88.1541 12.705 1120 103.152 1374.61 498.642
6 0 89.0968 12.2451 1091 101.852 1375.11 497.926
7 1 49.0608 11.659 572 100.886 1375.18 516.021
8 0 51.0274 12.0719 616 96.8994 1374.75 515.706
9 0 53.1097 12.5024 664 93.3645 1375.67 513.645
10 0 54.0884 12.8493 695 88.8662 1375.44 513.842
11 0 57.0743 13.6138 777 92.5521 1374.95 510.915
12 0 55.0558 12.5691 692 83.7009 1375.71 513.127
13 0 57.0421 12.3944 707 84.0849 1374.74 512.083
14 0 61.1325 12.6283 772 81.3212 1374.24 511.062
15 0 61.0401 12.8768 786 81.3244 1374.17 509.496
16 0 63.0913 12.5532 792 81.1061 1374.61 510.874
17 0 67.042 13.7078 919 78.383 1374.29 505.368
18 0 69.0769 12.9421 894 80.6655 1373.93 505.682
19 0 69.0556 13.1054 905 85.7315 1373.75 504.66
20 0 73.0727 13.5345 989 83.9778 1373.54 503.439
21 0 75.1714 13.9016 1045 83.2488 1373.76 503.401
22 0 78.1777 13.2902 1039 84.7844 1373.73 502.755
23 0 79.1394 13.2551 1049 84.4071 1374.18 501.699
24 0 78.1453 12.8479 1004 140.825 1374.1 501.061
25 0 85.0645 13.625 1159 81.2192 1372.88 496.508
26 0 86.3577 13.6873 1182 77.3841 1372.99 493.559
27 0 89.1386 13.1032 1168 79.8236 1372.98 492.818
28 0 88.1139 13.1648 1160 79.5241 1373.07 491.751
29 0 93.2126 13.7535 1282 80.5413 1372.72 492.343
30 0 98.09 14.2114 1394 78.825 1372.88 492.857
31 0 98.1207 13.7688 1351 80.0748 1373.18 490.563
32 0 105.177 14.5374 1529 77.2845 1373 488.08
33 0 106.148 14.5363 1543 78.8056 1372.61 485.458
34 0 110.25 14.0953 1554 79.7323 1372.39 483.226
35 0 115.318 15.0367 1734 77.1459 1372.22 479.119
36 0 119.193 14.9589 1783 76.2597 1372.85 475.898
37 0 123.21 14.9907 1847 76.5317 1371.76 474.034
38 0 129.284 15.2146 1967 75.0793 1371.7 469.916
39 1 60.1557 10.7222 645 80.6295 1371.38 504.305
40 0 64.1625 12.0787 775 78.3381 1372.63 502.826
41 0 65.0828 12.2459 797 77.9297 1372.27 501.013
42 0 70.0882 13.5401 949 78.7903 1372.34 505.044
43 0 74.1715 14.5474 1079 76.975 1372.21 504.538
44 0 76.143 13.4221 1022 78.9041 1372.01 503.553
45 0 79.0896 14.6416 1158 76.9007 1371.68 502.569
46 0 81.0484 14.8923 1207 76.6529 1371.78 501.043
47 0 83.0886 14.5387 1208 78.1134 1372.33 499.154
48 0 86.0603 14.0948 1213 79.3248 1371.8 498.096
49 0 89.0842 14.6042 1301 76.5726 1371.95 496.376
50 0 91.0635 14.0561 1280 79.1164 1371.69 493.952
51 0 93.0581 14.7865 1376 77.3779 1372.43 494.593
52 0 96.0722 14.104 1355 78.7218 1372.33 491.795
53 0 99.1047 14.3989 1427 78.5319 1372 489.389
54 0 102.098 15.1031 1542 77.5973 1371.79 488.825
55 0 105.173 14.7662 1553 78.4346 1372.03 486.842
56 0 106.091 14.6855 1558 78.7099 1372.24 485.254
57 0 112.121 14.4486 1620 79.2074 1372.4 483.318
58 0 114.075 13.3771 1526 87.7621 1371.87 484.077
59 0 114.18 12.1825 1391 84.6866 1372.62 481.385
60 0 117.135 13.113 1536 83.612 1371.82 479.637
61 0 123.236 13.2834 1637 83.8735 1372.31 478.064
62 0 128.17 13.2714 1701 83.3298 1371.91 475.728
63 0 128.17 13.2948 1704 160.224 1371.92 475.775
64 0 138.235 13.846 1914 82.1055 1371.65 470.067
65 0 141.28 13.321 1882 84.1211 1372 469.556
66 0 148.276 13.9402 2067 82.9458 1371.31 466.145
67 0 155.214 14.2126 2206 84.8762 1371 468.207
68 0 159.265 14.2153 2264 85.9536 1370.81 461.859
69 0 166.563 14.6491 2440 85.0672 1370.46 457.236
70 1 94.4913 12.0752 1141 81.8606 1370.8 494.924
71 0 96.2809 12.7855 1231 82.8123 1371.45 492.091
72 0 97.1028 11.9049 1156 77.0311 1371.53 494.587
73 0 101.059 12.0326 1216 77.3174 1372.06 491.144
74 0 103.093 12.3578 1274 76.2127 1371.64 492.296
75 0 108.068 13.3805 1446 69.545 1371.53 489.828
76 0 112.079 12.3841 1388 79.1571 1371.84 485.88
77 0 118.159 12.2631 1449 78.3057 1371.11 484.159
78 0 123.32 12.7636 1574 76.6233 1371.6 481.968
79 0 126.301 12.7552 1611 77.55 1371.39 477.749
80 0 131.358 13.1321 1725 76.7014 1371.38 475.938
81 1 71.1997 10.913 777 69.8559 1372.54 508.378
82 0 74.0687 11.1113 823 70.1507 1372.44 506.017
83 0 76.0707 11.0161 838 69.3532 1371.64 506.186
84 0 79.0872 12.05 953 69.0063 1372.44 502.899
85 0 81.12 10.9098 885 70.1017 1371.8 502.547
86 0 86.1236 11.6577 1004 68.8875 1372.77 500.515
87 0 89.1064 11.5368 1028 69.8609 1372.1 497.761
88 0 94.068 12.4484 1171 70.5611 1373.22 496.192
89 0 97.1527 12.3929 1204 70.3272 1372.27 493.318
90 1 49.0851 10.5327 517 67.4545 1373.17 519.903
91 0 51.1539 10.2045 522 68.1686 1373.78 516.602
92 0 52.1325 11.3173 590 67.7508 1372.86 515.295
93 0 53.0323 11.9927 636 67.478 1372.51 514.605
94 0 55.0195 12.0866 665 68.2887 1371.81 515.344
95 0 57.0306 11.3273 646 69.7136 1372.18 513.339
96 0 59.0214 11.8262 698 68.1848 1371.86 512.936
97 0 60.0625 12.2706 737 67.3066 1371.58 513.118
98 0 63.0277 11.6933 737 76.8548 1372.65 513.396
99 0 64.0494 12.2406 784 76.0077 1372.71 512.235
100 0 64.0676 12.2995 788 75.2018 1372.98 511.444
101 0 69.1912 12.5594 869 74.8067 1372.7 510.682
102 0 69.2413 12.0015 831 76.8363 1371.88 510.35
103 0 72.2245 13.2503 957 74.6573 1371.64 509.945
104 0 73.1786 12.7086 930 76.414 1371.72 508.823
105 0 76.102 12.7066 967 75.5595 1372.47 506.576
106 0 79.1349 13.2685 1050 74.9162 1372.4 505.386
107 0 79.0654 11.5727 915 72.2503 1372.41 505.449
108 0 83.1154 13.1263 1091 69.319 1372.98 502.522
109 0 85.0486 13.2277 1125 70.7458 1372.53 500.668
110 0 89.1304 13.6205 1214 69.8237 1373.35 500.458
111 1 46.0761 11.1555 514 69.7704 1372.94 519.344
112 0 48.0367 11.741 564 70.2784 1373.21 519.55
113 0 47.0459 12.0308 566 70.0336 1372.68 519.034
114 0 51.0734 12.4331 635 70.1386 1372.17 518.15
115 0 49.111 11.4435 562 72.573 1372.42 519.016
116 0 50.1504 11.4456 574 72.0157 1372.29 519.291
117 0 53.0114 11.5824 614 69.6645 1372.32 518.114
118 0 53.0216 12.1083 642 69.5405 1371.48 518.279
119 0 54.0459 11.7123 633 69.7899 1372.13 516.97
120 0 56.0049 11.0169 617 72.2496 1372.25 514.585
121 0 59.0387 11.4501 676 70.8772 1372.54 514.075
122 0 61.0365 12.3041 751 69.1451 1372.02 513.951
123 0 62.0375 12.1701 755 69.2358 1371.78 514.244
124 0 64.0418 11.9453 765 70.3882 1372.07 511.837
125 0 64.0418 11.9453 765 141.328 1372.06 511.742
126 0 69.0899 11.9699 827 69.0351 1371.92 508.141
127 0 72.047 12.1448 875 69.5611 1371.39 507.114
128 0 74.0265 12.509 926 70.6652 1371.78 505.496
129 0 79.1324 13.4585 1065 68.877 1372.89 504.81
130 0 80.0889 13.922 1115 68.6009 1372.4 503.63
131 0 83.1657 13.3228 1108 70.5208 1372.08 501.237
132 0 85.0673 12.8722 1095 72.8027 1370.92 500.874
133 0 88.1025 13.0984 1154 73.6127 1370.92 500.018
134 0 90.0829 13.6652 1231 74.1462 1371.6 498.594
135 0 90.0829 13.7318 1237 153.513 1372.59 498.506
136 0 98.0491 13.6768 1341 73.1484 1371.29 494.858
137 0 102.117 13.9937 1429 72.5262 1371.89 493.015
138 0 102.124 13.2291 1351 73.7861 1372 491.973
139 0 107.132 13.9455 1494 73.4244 1371.74 489.297
140 0 110.119 13.1857 1452 75.905 1371.72 484.363
141 0 114.274 13.8964 1588 74.2576 1370.99 484.299
142 1 61.0327 11.6823 713 66.2104 1371.37 515.452
143 0 60.065 11.1546 670 68.9403 1372.31 512.664
144 0 63.0519 11.7998 744 70.871 1370.48 511.558
145 0 63.0497 11.261 710 66.2986 1371.41 512.079
146 0 66.0853 11.4246 755 65.4053 1371.14 512.24
147 0 70.0596 13.0603 915 63.235 1371.15 510.757
148 0 71.0856 12.6045 896 64.1071 1371.74 509.975
149 0 73.0169 12.0109 877 66.4299 1370.57 507.03
150 0 76.0728 12.2251 930 65.757 1370.36 508.184
151 0 79.1164 12.45 985 72.2548 1370.36 505.028
152 0 82.1251 12.5784 1033 72.4985 1371.22 503.483
153 0 84.1275 12.7188 1070 74.1187 1371.06 500.769
154 0 86.2206 12.0505 1039 74.1347 1370.83 502.319
155 0 88.0953 12.3276 1086 74.4687 1371.14 501.136
156 0 90.1135 12.8283 1156 74.4343 1371.08 500.467
157 0 92.1037 12.4968 1151 74.6447 1371.72 497.672
158 0 97.0841 12.1235 1177 74.1674 1371.11 496.776
159 0 100.149 13.1205 1314 73.0327 1370.54 492.375
160 0 104.089 12.7583 1328 73.5587 1369.74 493.5
161 1 55.0143 11.8333 651 68.8018 1370.72 517.349
162 0 56.0454 11.5621 648 69.4522 1370.86 516.511
163 0 58.1756 11.6372 677 70.3043 1371.82 514.863
164 0 59.0275 12.384 731 69.6826 1370.51 514.001
165 0 62.0521 11.9738 743 69.8331 1371.4 512.396
166 0 64.0255 12.4638 798 70.3083 1371.34 512.99
167 0 65.0737 12.3245 802 71.1372 1371.89 509.403
168 0 69.1009 13.2994 919 68.2699 1370.8 508.921
169 0 71.106 12.5165 890 70.3258 1371.78 507.796
170 0 73.0751 12.3708 904 71.5476 1371 506.889
171 0 76.0106 13.3271 1013 69.8815 1371.25 504.73
172 0 78.0555 13.247 1034 69.9691 1371.79 504.237
173 0 80.1109 13.5063 1082 70.7791 1371.82 501.379
174 0 81.0656 11.9903 972 74.1193 1372.13 502.266
175 0 83.0727 11.9654 994 74.9638 1372.14 501.11
176 0 87.1142 12.2483 1067 75.4433 1371.16 500.53
177 0 89.0861 12.3813 1103 75.9519 1371.16 498.857
178 0 90.1841 12.3414 1113 76.2929 1371.08 497.958
179 0 93.134 12.0579 1123 77.1986 1370.5 497.669
180 0 97.0795 12.7627 1239 78.3083 1370.6 494.785
181 0 101.176 12.9181 1307 79.7972 1370.45 494.594
182 0 101.201 12.3616 1251 81.4373 1370.4 493.204
183 0 106.202 12.4385 1321 80.9243 1371.29 490.475
184 0 109.211 12.8559 1404 79.7564 1370.61 487.803
185 0 112.112 13.2189 1482 79.4663 1371.43 486.719
186 0 115.177 12.6935 1462 80.1655 1371.13 484.906
187 1 61.1384 10.2391 626 76.0463 1370.59 511.243
188 0 64.1472 11.6763 749 75.4593 1370.76 507.473
189 0 65.2826 11.2894 737 77.3446 1371.5 505.331
190 0 67.2275 12.0189 808 75.974 1371.72 504.455
191 0 74.065 12.111 897 76.0457 1370.12 507.713
192 0 75.0355 12.1143 909 75.868 1369.71 507.404
193 0 79.0311 11.9447 944 76.4968 1369.07 505.789
194 0 79.0703 11.9514 945 77.5291 1369.47 504.259
195 0 83.0835 11.7111 973 79.1244 1369.61 504.096
196 0 83.0759 11.9048 989 80.3054 1369.77 502.762
197 0 88.1111 12.2573 1080 78.9306 1368.46 500.566
198 0 91.0619 11.7393 1069 79.9233 1368.5 498.725
199 0 93.0418 12.3385 1148 78.7666 1368.7 497.232
200 0 96.0417 12.5362 1204 78.8663 1369.04 496.789
201 0 100.061 11.8328 1184 80.125 1368.93 493.909
202 1 53.0393 10.6713 566 98.0813 1369.22 517.357
203 0 55.0445 10.9366 602 96.6528 1369.01 518.262
204 0 55.1347 11.2452 620 99.7403 1369.52 514.756
205 0 57.1395 12.1457 694 95.6081 1370.44 516.209
206 0 59.0301 12.6037 744 83.2312 1370.7 515.059
207 0 60.0498 12.5562 754 83.5663 1371.1 513.984
208 0 59.1145 11.7907 697 84.5509 1370.8 513.964
209 0 62.1006 12.8018 795 80.9648 1370.88 514.156
210 0 64.0348 12.7587 817 80.7564 1370.28 512.739
211 0 64.0932 12.7315 816 84.9056 1369.32 512.45
212 0 69.0347 12.8051 884 85.2613 1370.4 511.964
213 0 70.0862 12.8556 901 86.3696 1370.65 510.523
214 0 70.0307 12.7801 895 86.5788 1370.14 510.131
215 0 74.051 13.6392 1010 83.6703 1367.77 508.673
216 0 73.0715 12.9325 945 87.6476 1368.67 508.803
217 0 78.0357 13.5835 1060 85.1208 1368.02 506.287
218 0 81.0387 12.7347 1032 88.1221 1368.31 505.355
219 0 83.0549 13.5573 1126 86.6412 1369.15 503.814
220 0 82.0517 12.3824 1016 91.6407 1368.75 504.546
221 0 86.0454 12.7375 1096 89.875 1367.96 502.199
222 0 89.1067 12.3784 1103 89.1514 1368.36 500.018
223 0 93.0583 12.5728 1170 87.6538 1368.43 500.01
224 1 52.0196 11.3226 589 89.6333 1368.75 518.795
225 0 54.0509 10.8416 586 89.2594 1368.11 518.108
226 0 52.0298 11.3397 590 87.7695 1370.2 515.654
227 0 57.0186 13.1887 752 77.3364 1370.19 517.422
228 0 53.0752 10.796 573 83.9459 1370.01 520.141
229 0 54.0329 11.2894 610 84.9836 1370.09 519.044
230 0 58.0594 11.9533 694 81.0994 1368.4 517.169
231 0 58.0424 11.4916 667 82.0525 1368.37 515.729
232 0 60.0542 12.139 729 80.3018 1367.49 515.907
233 0 60.11 11.662 701 82.2482 1368.37 515.312
234 0 62.0939 12.1107 752 81.0984 1367.92 513.959
235 0 63.0559 11.9101 751 80.8935 1367.76 513.533
236 0 64.0398 11.8988 762 80.6325 1367.93 512.568
237 0 68.0648 11.9592 814 78.5393 1367.85 510.897
238 0 71.0364 11.6419 827 77.2455 1368.06 512.057
239 0 70.0567 11.3337 794 77.1662 1367.93 510.608
240 0 74.1602 12.001 890 76.2517 1368.49 507.933
241 0 75.0677 12.0425 904 75.0454 1368.17 508.879
242 0 76.0992 12.0501 917 75.8702 1368.71 506.336
243 0 78.1835 12.0102 939 75.0192 1368.56 506.625
244 0 78.065 10.0685 786 77.7494 1368.19 506.118
245 0 82.059 11.0287 905 76.7635 1367.48 503.262
246 0 86.129 11.5176 992 77.126 1367.69 502.342
247 0 88.0998 11.1124 979 76.8989 1367.35 501.148
248 0 88.0998 11.1238 980 129.557 1367.37 501.189
249 1 47.0516 10.6266 500 75.488 1367.47 521.076
250 0 48.1085 10.8297 521 74.6718 1368.2 521.399
251 0 51.0625 12.1616 621 72.9919 1369.34 519.997
252 0 51.0906 11.783 602 72.9269 1369.41 518.312
253 0 54.1021 12.0328 651 73.5069 1369.59 517.722
254 0 57.059 11.8824 678 80.9174 1370.81 515.553
255 0 57.0374 12.0272 686 81.4577 1370.84 515
256 0 58.0266 11.4947 667 83.1424 1371.03 513.784
257 0 61.0621 12.692 775 80.6052 1370.72 512.4
258 0 62.0453 12.4748 774 81.5426 1370.59 513.826
259 0 65.0617 12.2038 794 82.427 1370.89 512.122
260 0 67.0295 12.5766 843 80.847 1370.87 511.04
261 0 68.0986 12.6434 861 82.9361 1369.81 510.813
262 0 68.0986 12.5847 857 146.705 1369.83 510.825
263 0 72.1125 12.5914 908 84.4031 1370.27 508.923
264 0 76.1033 13.0875 996 84.3514 1370.29 508.091
265 0 78.0755 13.282 1037 84.6239 1371.21 506.897
266 0 79.1871 13.0198 1031 87.515 1369.74 504.872
267 0 82.1931 13.1033 1077 87.1773 1369.4 502.275
268 0 83.1311 12.7028 1056 89.7812 1369.12 502.198
269 0 86.16 13.1964 1137 89.7045 1369.48 501.107
270 0 91.1443 13.1659 1200 90.5275 1369.27 500.681
271 0 92.1356 12.677 1168 94.5702 1369.06 498.539
272 1 45.1375 10.5234 475 93.9116 1370.02 523.08
273 0 47.0469 11.2653 530 91.3962 1368.93 521.349
274 0 46.1072 12.1673 561 92.2335 1370.03 520.355
275 0 48.0659 12.2124 587 84.5077 1369.35 521.624
276 0 47.0692 12.4073 584 133.363 1370.36 521.654
277 0 48.0709 12.6272 607 87.5008 1368.66 521.038
278 0 51.0382 13.2646 677 86.1507 1368.99 519.836
279 0 52.0198 12.822 667 83.0525 1368.85 519.805
280 0 55.0314 12.6473 696 83.2198 1369.63 520.947
281 0 56.0347 13.3132 746 78.5027 1369.17 518.582
282 0 58.0441 13.662 793 77.9697 1369.81 518.608
283 0 58.0395 13.3702 776 80.3763 1369.09 516.898
284 0 58.0395 13.4391 780 143.462 1368.07 516.896
285 0 62.1409 13.1153 815 81.0896 1369.31 516.164
286 0 63.0476 12.8792 812 82.6133 1369.43 514.91
287 0 65.061 13.5258 880 81.7273 1369.63 513.855
288 0 67.0735 12.8069 859 83.2026 1368.38 512.308
289 0 67.0735 12.8218 860 135.441 1367.39 512.315
290 0 71.0533 13.511 960 81.6854 1368.53 510.897
291 0 73.0956 13.3387 975 81.0718 1369.02 509.447
292 0 74.0592 12.9896 962 83.5416 1368.01 507.951
293 0 76.1086 13.1654 1002 82.6966 1368.51 507.164
294 0 80.0487 13.2295 1059 82.6355 1368.07 506.197
295 0 83.1148 12.3444 1026 97.2973 1368.58 504.792
296 1 41.0676 11.055 454 92.5815 1368.15 525.588
297 0 41.0082 11.1685 458 90.5131 1367.64 524.382
298 0 44.0234 12.1072 533 85.1745 1368.66 524.694
299 0 43.1569 11.8637 512 87.4355 1369.99 522.527
300 0 46.1631 12.7591 589 84.1834 1369.48 521.587
301 0 47.105 12.1856 574 84.9181 1369.37 520.622
302 0 47.1101 12.0569 568 85.5158 1368.98 520.826
303 0 51.0832 12.7048 649 83.0678 1367.84 521.41
304 0 50.0274 11.8535 593 84.7167 1368.5 519.02
305 0 51.0315 12.6197 644 81.8929 1367.86 518.256
306 0 55.0886 13.1243 723 79.6266 1368.67 518.282
307 0 56.0842 13.3371 748 78.4572 1368.03 517.525
308 0 56.0241 12.8338 719 79.9638 1368.01 518.138
309 0 56.0397 12.9908 728 82.0536 1368.24 519.221
310 0 59.0641 12.9351 764 80.6139 1367.47 517.802
311 0 60.117 11.8602 713 82.6606 1368.1 518.194
312 0 61.0695 12.1337 741 82.1633 1367.59 517.545
313 0 63.0235 12.4081 782 81.9028 1367.84 516.155
314 0 66.0572 12.5497 829 81.2811 1367.48 515.766
315 0 67.0958 12.8622 863 81.1321 1368.15 514.545
316 0 70.1111 12.6371 886 82.2573 1367.65 513.049
317 0 71.1459 11.7224 834 84.3441 1367.9 512.245
318 0 76.1185 12.52 953 82.5005 1367.96 512.236
319 0 78.0789 11.9751 935 83.784 1367.32 511.532
320 0 81.0475 12.6593 1026 81.6647 1367.66 508.907
321 0 82.1467 12.2099 1003 84.8235 1368.42 506.89
322 1 43.0501 10.8246 466 85.1588 1368.22 527.73
323 0 42.0183 10.6382 447 87.0089 1367.72 527.557
324 0 44.0092 10.975 483 84.5507 1366.98 526.915
325 0 44.0229 11.7212 516 82.9283 1367.5 525.682
326 0 46.0251 11.2547 518 85.6641 1366.53 526.353
327 0 48.0302 12.7212 611 81.4288 1367.5 526.362
328 0 49.0199 12.6887 622 79.9646 1367.89 526.268
329 0 48.0414 13.0304 626 79.6853 1368.85 525.941
330 0 51.0838 12.411 634 80.4085 1367.77 525.063
331 0 51.0287 12.7183 649 81.3698 1368.78 523.773
332 0 54.0256 12.8828 696 78.75 1368.57 521.928
333 0 55.0585 12.1689 670 80.891 1368.61 521.27
334 0 54.0645 12.7995 692 80.5535 1368 521.708
335 0 56.0784 12.4825 700 82.0314 1368.36 519.853
336 0 59.0497 12.9382 764 80.161 1368.57 518.869
337 0 59.0557 12.3443 729 82.4801 1368.43 517.342
338 0 62.0391 12.9112 801 80.7591 1367.09 517.482
339 0 64.0939 12.9966 833 81.5054 1367.7 516.223
340 0 65.0473 11.6838 760 85.9474 1366.62 516.828
341 0 67.0755 12.3443 828 87.2826 1367.04 513.919
342 0 70.0551 12.1048 848 88.5106 1366.96 515.598
343 0 72.1519 12.4598 899 88.7564 1367.4 512.123
344 0 74.0613 12.4356 921 91.3724 1366.46 513.473
345 0 77.1558 13.0515 1007 90.3903 1365.92 510.899
346 0 78.1276 12.9148 1009 91.5273 1366.4 510.183
347 0 82.1044 12.4354 1021 92.0313 1365.81 507.432
348 0 84.1048 12.2466 1030 91.6534 1365.71 508.704
349 0 88.1246 12.6752 1117 91.5989 1365.37 504.62
350 0 91.1045 12.4253 1132 91.9912 1366.23 504.158
351 1 49.0128 10.9767 538 96.2361 1366.67 524.649
352 0 50.0484 12.3081 616 94.375 1364.9 524.182
353 0 53.0716 12.3984 658 94.848 1365.85 523.995
354 0 56.0352 12.6885 711 92.0717 1363.91 522.276
355 0 55.0178 12.087 665 95.9534 1364.49 521.462
356 0 59.0188 12.9281 763 92.8231 1363.98 521.254
357 0 61.0196 12.7828 780 92.4756 1364.73 520.75
358 0 60.0721 12.8179 770 94.0104 1364.11 519.331
359 0 64.0885 12.9665 831 93.2178 1364.8 518.004
360 0 64.0885 13.0289 835 156.734 1365.78 517.92
361 0 67.0317 13.0386 874 94.9497 1364.39 515.952
362 0 69.0308 12.5741 868 94.75 1364.53 514.232
363 0 71.0304 12.8396 912 93.8279 1363.93 513.246
364 0 74.0749 12.8114 949 93.9031 1365.1 513.236
365 0 76.0634 12.6211 960 93.8542 1365.09 511.79
366 0 76.0223 12.4174 944 98.5297 1365.18 511.11
367 0 81.0857 12.6903 1029 99.1399 1364.47 509.112
368 0 85.091 12.563 1069 96.8859 1364.16 507.764
369 0 84.032 12.4 1042 98.4645 1364.67 507.456
370 0 88.027 12.2122 1075 99.3842 1364.68 504.869
371 0 92.1242 12.939 1192 98.3364 1365.03 502.962
372 0 96.1214 12.8379 1234 99.4741 1364.82 500.303
373 1 51.0114 11.37 580 97.5 1365.3 524.424
374 0 51.0204 11.466 585 97.7812 1364.94 522.465
375 0 53.0701 11.5508 613 95.3181 1365.98 521.887
376 0 54.2292 11.8571 643 93.9362 1366.56 520.773
377 0 52.0918 11.5373 601 83.9601 1367.46 523.326
378 0 54.1048 11.5147 623 82.9599 1368.36 522.647
379 0 56.0622 11.3802 638 83.9749 1367.58 522.304
380 0 57.0973 12.3298 704 83.2798 1368.03 519.591
381 0 58.0862 11.0181 640 86.7422 1367.6 519.823
382 0 61.081 11.7385 717 85.9303 1367.97 517.036
383 0 62.156 11.7768 732 87.0656 1368.73 516.004
384 0 64.113 10.8246 694 89.8329 1368.63 515.997
385 0 67.1247 11.7244 787 86.2287 1368.03 513.597
386 0 68.1983 11.4079 778 87.3779 1368.27 513.186
387 0 70.0818 11.3581 796 88.8781 1367.76 513.005
388 0 75.2112 11.142 838 87.1098 1368.59 511.729
389 0 76.1178 11.2983 860 85.864 1369.12 511.056
390 0 79.111 11.8315 936 85.1571 1368.82 507.177
391 0 79.112 11.844 937 138 1368.82 507.259
392 0 87.1456 12.2095 1064 84.5103 1368.49 504.599
393 0 89.1162 11.8946 1060 84.5623 1368.38 502.917
394 1 47.2064 11.4391 540 85.9463 1367.54 522.081
395 0 42.1358 9.96778 420 75.669 1367.71 516.514
396 0 45.085 10.8018 487 66.9774 1367.7 514.643
397 0 43.0611 8.24409 355 72.093 1367.02 518.287
398 0 47.0976 10.0854 475 69.2295 1367.53 519.522
399 0 49.0155 11.1393 546 77.0018 1367.03 522.458
400 0 50.0296 12.0728 604 75.8957 1367.11 520.002
401 0 53.0236 11.8438 628 75.5143 1367.41 519.57
402 0 54.0362 11.3998 616 77.5958 1367.07 518.073
403 0 54.016 11.3855 615 77.7041 1367.19 517.192
404 0 56.0509 11.5252 646 77.291 1367.21 516.519
405 0 59.0542 11.0238 651 76.1567 1367.31 519.392
406 0 60.0562 11.2894 678 76.9558 1366.25 518.142
407 0 60.0455 11.4247 686 77.2784 1366.61 518.262
408 0 64.0356 11.3843 729 77.6776 1366.25 517.252
409 0 66.098 11.8007 780 77.4321 1367.18 515.463
410 0 68.0484 12.0502 820 77.7341 1366.92 513.316
411 0 70.0638 11.4467 802 78.6421 1366.92 512.754
412 0 71.0545 12.4552 885 75.8644 1366.62 510.701
413 0 73.0703 12.2211 893 76.7671 1366.94 509.66
414 0 76.0481 12.2554 932 76.4582 1366.26 510.422
415 0 77.0541 12.1473 936 77.609 1366.01 509.331
416 0 81.0474 12.5976 1021 76.6552 1367.61 508.405
417 0 82.1089 12.4225 1020 79.8392 1367.4 506.872
418 0 87.1124 13.3735 1165 77.3021 1368.41 504.722
419 0 90.1187 12.883 1161 78.0103 1366.53 503.934
420 0 91.1049 11.7667 1072 80.6716 1366.65 503.848
421 0 92.1135 10.8127 996 83.1496 1366.85 505.31
422 0 96.0903 11.51 1106 82.2423 1367.25 501.112
423 0 99.1676 10.9713 1088 83.966 1367.73 497.544
424 0 103.089 11.6502 1201 82.8102 1367.53 497.257
425 0 108.19 11.7017 1266 82.718 1367.02 495.175
426 0 113.106 12.1126 1370 81.6058 1366.6 493.142
427 0 113.106 12.1568 1375 136.338 1366.6 493.166
428 0 120.149 12.5261 1505 82.9169 1366.69 485.237
429 1 63.0418 12.7693 805 77.4919 1366.38 515.012
430 0 64.0474 12.522 802 77.1072 1365.56 513.488
431 0 66.1054 12.7524 843 75.5919 1365.79 512.832
432 0 67.103 12.8757 864 75.3044 1365.4 511.628
433 0 68.0457 12.7267 866 76.7125 1365.69 510.808
434 0 70.0395 12.6643 887 75.8794 1365.74 510.328
435 0 75.0431 12.7793 959 74.8321 1365.93 509.873
436 0 75.0571 12.9368 971 73.7745 1366.52 507.706
437 0 78.1044 13.7636 1075 73.0056 1366 507.941
438 0 83.106 14.3913 1196 70.0151 1366.47 506.599
439 0 83.1333 13.34 1109 75.1957 1367.16 506.2
440 0 85.1014 14.1243 1202 75.1131 1367.69 505.513
441 0 89.0988 14.1416 1260 76.4016 1367.46 503.033
442 0 92.1171 14.1125 1300 76.6554 1367.77 502.318
443 0 94.1699 14.1977 1337 77.1698 1366.86 500.203
444 0 97.1249 13.601 1321 78.813 1367.29 499.026
445 0 97.165 11.9693 1163 82.8074 1366.51 500.791
446 0 99.1263 11.9141 1181 81.9653 1366.65 496.396
447 0 104.21 12.2637 1278 80.5493 1368.18 495.819
448 0 106.246 11.8311 1257 82.1973 1367.53 494.148
449 0 110.265 12.9325 1426 80.4516 1367.11 491.14
450 1 57.0469 10.4125 594 75.1448 1367.32 510.581
451 0 58.1272 11.0791 644 78.014 1367.79 509.107
452 0 61.1261 10.7483 657 79.1583 1367.59 507.195
453 0 62.0763 11.212 696 78.5431 1366.07 505.716
454 0 65.0911 10.6005 690 79.5609 1366.2 504.148
455 0 69.0456 11.5865 800 77.1775 1365.84 503.382
456 0 71.0429 11.0919 788 76.9492 1366.71 501.067
457 0 75.0925 11.6123 872 77.7833 1367.13 500.72
458 0 78.0833 11.603 906 78.372 1366.65 499.053
459 0 81.0837 11.445 928 79.4871 1365.96 497.745
460 0 85.1178 11.5957 987 79.3293 1366.91 496.493
461 0 85.1178 11.6662 993 137.927 1367.91 496.435
462 0 82.1716 9.5045 781 82.7682 1367.21 495.86
463 0 89.1684 12.011 1071 138.667 1365.12 491.661
464 0 93.2727 11.7076 1092 81.5934 1367.05 488.907
465 0 96.1891 12.8705 1238 78.9717 1366.85 486.955
466 0 99.2617 12.3713 1228 79.763 1366.96 486.808
467 0 101.277 12.3029 1246 80.6372 1366.59 484.148
468 0 105.272 13.0803 1377 79.655 1366.07 479.901
469 0 106.17 12.6307 1341 82.3565 1366.15 477.248
470 0 108.212 13.1686 1425 80.9726 1366.96 476.806
471 0 112.308 12.9376 1453 81.0571 1366.93 474.866
472 0 114.306 12.9914 1485 80.5811 1366.26 474.422
473 0 119.233 12.8991 1538 81.7243 1366.82 471.202
474 0 122.158 11.8863 1452 81.3003 1366.74 472.747
475 0 127.194 12.0288 1530 81.5771 1366.83 467.375
476 0 134.216 12.7406 1710 77.107 1366.16 467.355
477 0 136.184 12.2849 1673 81.1907 1365.9 459.295
478 1 74.1352 10.6967 793 77.9206 1366.56 490.924
479 0 77.3348 9.71102 751 77.5925 1366.85 490.738
480 0 81.241 10.1427 824 76.0085 1366.05 490.209
481 0 90.1215 10.6301 958 73.4969 1364.54 499.494
482 0 93.0997 11.7401 1093 70.0714 1365.36 497.644
483 0 97.183 11.432 1111 70.8398 1365.42 497.344
484 0 99.2268 10.7229 1064 72.2246 1365.7 494.749
485 0 104.13 11.284 1175 69.5847 1365.65 493.341
486 0 107.163 11.7858 1263 69.9327 1364.68 488.956
487 0 110.076 11.3921 1254 70.8987 1364.1 487.296
488 0 113.126 9.90045 1120 72.0268 1365.11 486.019
489 0 119.137 10.9034 1299 72.5597 1365.34 485.728
490 0 121.182 11.8417 1435 72.8272 1365.31 484.266
491 1 63.0903 10.4454 659 68.9014 1365.59 514.363
492 0 65.0528 10.7144 697 70.3874 1366.83 511.552
493 0 69.1452 11.5843 801 71.6604 1367.51 511.615
494 0 70.0817 12.1572 852 66.0822 1367.36 511.838
495 0 73.1116 12.5014 914 65.3917 1366.91 509.953
496 0 75.1621 11.8145 888 66.4471 1366.9 506.782
497 0 78.1975 12.2638 959 66.0719 1366.4 507.689
498 0 79.1645 12.5182 991 66.5489 1366.94 505.392
499 0 82.1008 13.0693 1073 68.5694 1367.01 507.514
500 0 85.2146 13.155 1121 68.5656 1366.9 504.381
501 0 86.1229 12.8769 1109 69.6826 1366.01 503.297
502 0 91.0823 12.5052 1139 69.4601 1366.23 501.854
503 0 94.1336 13.5446 1275 68.3702 1365.38 501.001
504 0 98.0868 13.2944 1304 67.773 1366.06 500.185
505 0 99.1088 12.6427 1253 70.0439 1366.42 499.797
506 0 101.085 12.5538 1269 71.1103 1366.27 498.176
507 0 106.117 13.3814 1420 69.8725 1365.18 496.386
508 0 110.219 13.8814 1530 69.4719 1365.2 494.845
509 0 111.141 12.7046 1412 73.2904 1364.88 493.012
510 1 60.0466 11.3245 680 71.7397 1365.24 517.413
511 0 63.1166 11.6768 737 73.2388 1365.54 516.708
512 0 64.2022 12.0401 773 74.2316 1365.94 515.316
513 0 67.4043 11.928 804 73.8047 1365.84 512.49
514 0 67.1678 13.2802 892 70.12 1365.91 515.982
515 0 69.1782 13.0243 901 71.0455 1366.07 513.724
516 0 71.2346 12.8589 916 71.2183 1366.18 511.57
517 0 72.1051 12.5789 907 71.7001 1365.52 513.318
518 0 75.168 12.2659 922 71.1269 1365.31 512.218
519 0 78.1155 13.0448 1019 70.7586 1364.97 508.759
520 0 80.1402 12.7277 1020 71.0118 1365.14 509.054
521 0 84.1334 13.0032 1094 70.0841 1364.88 506.365
522 0 87.1386 12.3252 1074 70.8007 1364.84 505.64
523 0 88.1475 12.1955 1075 72.4763 1365.39 503.401
524 0 92.1736 11.7062 1079 73.8471 1365.32 503.315
525 0 95.0943 12.251 1165 74.2901 1365.42 501.407
526 0 98.1416 11.4834 1127 77.7045 1365.77 500.504
527 0 100.19 11.3184 1134 78.7751 1365.06 496.614
528 0 103.195 10.8629 1121 80.2168 1365.66 494.043
529 1 56.2069 9.98097 561 73.877 1366.19 521.303
530 0 58.1163 10.5134 611 72.6334 1366.18 517.671
531 0 60.0324 10.8275 650 72.1631 1364.78 518.905
532 0 63.0218 11.6944 737 77.228 1364.38 516.071
533 0 63.1308 11.2148 708 71.3249 1365.83 515.059
534 0 66.1275 11.7047 774 70.1512 1365.22 514.453
535 0 68.2725 11.3955 778 70.6979 1364.94 513.879
536 0 69.1012 12.1127 837 69.9809 1364.92 513.93
537 0 73.1121 11.9269 872 69.2683 1365.12 510.782
538 0 75.117 11.6219 873 69.7812 1364.74 510.203
539 0 78.149 12.233 956 68.8431 1365.31 506.97
540 0 80.0695 11.6774 935 69.4631 1365.34 507.565
541 0 83.1646 11.7718 979 69.3933 1365.08 505.654
542 0 82.0527 10.8467 890 70.7326 1365.38 504.469
543 0 88.0554 11.7994 1039 70.9654 1364.3 502.387
544 0 92.1586 11.3174 1043 76.5139 1364.34 502.313
545 0 96.1194 12.0787 1161 74.3721 1364.14 499.447
546 0 97.0978 10.8653 1055 76.4531 1364.94 496.355
547 0 101.101 10.7516 1087 74.3008 1363.55 496.596
548 0 103.227 11.1986 1156 73.6047 1364.7 493.645
549 0 108.236 11.8352 1281 73.4606 1364.2 492.145
550 1 53.0724 10.1371 538 70.6022 1365.75 519.79
551 0 55.0619 10.1522 559 72.025 1366.09 519.259
552 0 58.091 11.0688 643 74.5708 1366.77 519.381
553 0 58.0433 11.9566 694 74.5375 1366.19 518.006
554 0 59.0958 10.8299 640 71.2453 1366 518.747
555 0 61.0816 11.6074 709 71.6728 1365.07 518.219
556 0 63.0879 10.8579 685 72.3051 1365.57 517.613
557 0 65.1409 11.2525 733 71.603 1365.01 515.371
558 0 68.088 11.6467 793 70.3064 1365.17 515.637
559 0 71.1598 12.5352 892 68.5863 1365.33 513.961
560 0 73.1138 12.8156 937 68.1569 1365.17 512.02
561 0 76.1266 13.6746 1041 67.6369 1365.32 511.134
562 0 78.1312 12.4918 976 67.9037 1366.22 511.569
563 0 79.1188 12.6392 1000 70.33 1366.22 509.397
564 0 83.0491 12.7635 1060 70.05 1365.55 507.38
565 0 85.0917 12.7744 1087 70.4287 1365.52 507.47
566 0 89.1126 13.4773 1201 70.5953 1365.54 503.136
567 0 92.1737 13.2142 1218 71.014 1366.31 504.25
568 0 94.1499 12.82 1207 71.7341 1365.67 502.823
569 1 52.0964 10.8837 567 73.3598 1366.39 523.444
570 0 53.0572 11.1766 593 70.887 1365.32 524.668
571 0 57.0563 11.4448 653 71.7412 1366.51 523.348
572 0 58.0238 12.4604 723 71.018 1364.74 521.375
573 0 58.0528 12.9709 753 71.2749 1365 521.882
574 0 61.062 12.9704 792 70.9836 1364.15 520.39
575 0 62.0256 13.5428 840 70.9738 1363.6 520.421
576 0 63.0463 13.1332 828 71.6002 1363.36 519.309
577 0 65.0592 13.48 877 71.1881 1363.31 518.054
578 0 67.0741 13.1944 885 74.0768 1364.04 517.128
579 0 69.0495 13.121 906 74.7152 1363.79 516.105
580 0 72.0872 12.8456 926 73.2505 1363.13 514.664
581 0 75.0603 14.4284 1083 70.2031 1363.17 514.548
582 0 75.019 13.6099 1021 73.9148 1363.67 512.468
583 0 78.0671 13.6805 1068 72.9972 1363.72 511.207
584 0 78.0236 13.5728 1059 74.7054 1364.66 509.099
585 0 80.0298 13.8823 1111 75.0693 1363.5 508.575
586 0 82.0378 13.2622 1088 76.8107 1363.7 507.143
587 0 85.0623 13.3432 1135 75.7709 1363.89 505.754
588 0 88.034 13.6765 1204 75.4153 1363.21 505.973
589 0 90.1148 13.9489 1257 76.1352 1363.55 504.317
590 0 92.0425 12.6572 1165 79.5064 1363.65 503.794
591 0 93.0294 13.0066 1210 80.8744 1363.69 502.413
592 0 97.1237 12.8599 1249 80.7302 1363.92 501.986
593 0 99.1503 12.2541 1215 82.5605 1363.6 501.203
594 0 102.214 12.5912 1287 83.0326 1363.04 498.606
595 0 107.191 12.1559 1303 84.3461 1364.12 494.33
596 0 108.098 12.1926 1318 82.698 1363.56 490.985
597 1 56.0198 10.175 570 80.8456 1362.95 516.44
598 0 63.0378 11.4852 724 80.2638 1363.24 517.133
599 0 65.0769 12.2163 795 81.5736 1363.81 517.82
600 0 65.0267 12.2719 798 81.3634 1363.16 515.94
601 0 65.0538 11.7749 766 78.0209 1363.87 518.027
602 0 68.0612 11.6072 790 78.2899 1363.69 517.003
603 0 71.0592 12.173 865 77.904 1363.46 514.577
604 0 72.0424 11.7986 850 77.5941 1363.89 514.995
605 0 76.1488 11.9503 910 77.2154 1363.65 512.345
606 0 77.0482 11.681 900 77.3533 1362.74 511.79
607 0 80.0342 11.5826 927 77.2233 1363.31 509.324
608 0 83.0478 11.7643 977 76.1034 1362.76 508.645
609 0 85.0399 11.1947 952 77.6576 1363.51 506.707
610 0 85.0399 11.2183 954 128.134 1363.52 506.679
611 0 90.0957 11.6987 1054 77.1499 1363.04 503.922
612 0 94.1237 12.4517 1172 75.8089 1362.88 502.078
613 0 97.1421 11.1383 1082 77.6423 1363.06 501.319
614 0 101.106 11.6709 1180 76.222 1363.59 500.114
615 1 53.0334 10.7479 570 79.6018 1363.19 522.144
616 0 54.0811 11.6307 629 76.2226 1363.41 521.052
617 0 58.0743 12.5873 731 73.4637 1362.41 518.94
618 0 60.0196 13.3123 799 69.5194 1363.44 519.202
619 0 59.0192 12.4875 737 71.5034 1364.04 517.858
620 0 62.0738 12.8396 797 70.9498 1363.31 517.053
621 0 66.0782 12.9392 855 71.0164 1362.91 516.113
622 0 68.0541 13.3276 907 69.7685 1363.82 514.708
623 0 68.0488 12.829 873 71.6678 1363.38 514.238
624 0 71.0819 12.9288 919 70.9293 1364.09 512.139
625 0 72.183 12.9532 935 71.8428 1364.27 511.659
626 0 77.1542 13.5054 1042 70.3455 1364.08 510.676
627 0 79.0302 13.691 1082 71.2819 1364.17 509.948
628 0 80.1039 13.3077 1066 73.2373 1363.69 509.194
629 0 82.1135 12.9333 1062 74.774 1363.55 505.336
630 0 86.0925 13.5087 1163 75.5297 1364.37 504.141
631 0 87.1029 13.0535 1137 77.2999 1364.49 503.056
632 0 90.368 13.3344 1205 75.0913 1364.97 500.745
633 0 92.2626 13.8084 1274 74.7072 1364.25 500.21
634 0 96.2524 13.9945 1347 73.8203 1364.83 496.807
635 0 97.2674 13.6428 1327 76.8651 1365.47 495.719
636 0 103.26 13.3933 1383 76.2719 1365.14 495.117
637 0 106.261 13.9844 1486 74.1171 1365.62 494.468
638 1 58.0483 11.4215 663 77.0664 1364 515.591
639 0 57.0492 10.6224 606 72.7046 1363.99 510.281
640 0 59.0277 11.8419 699 63.6495 1364.15 508.927
641 0 59.05 10.4488 617 67.5608 1364.73 508.371
642 0 61.0528 11.7276 716 66.736 1363.94 509.176
643 0 66.0382 11.4631 757 67.4346 1365.39 507.634
644 0 68.0647 11.7388 799 67.1402 1365.14 505.815
645 0 68.1101 12.01 818 68.901 1364.81 503.451
646 0 71.0767 11.8464 842 73.715 1365.22 503.257
647 0 72.1103 11.316 816 75.5711 1365.53 501.194
648 0 74.0912 11.2294 832 75.7007 1365.22 499.268
649 0 79.0509 11.5748 915 74.6929 1365.51 500.374
650 0 82.0704 12.3918 1017 73.9351 1365.12 496.757
651 0 80.0733 11.6643 934 146.3 1365.05 494.809
652 0 83.0421 11.5604 960 77.7135 1365.33 494.656
653 0 88.0599 12.253 1079 76.1872 1365.48 494.225
654 0 92.1156 11.8547 1092 77.1538 1366.15 490.852
655 0 92.0742 11.6102 1069 77.7933 1365.51 488.69
656 0 95.0925 11.5256 1096 77.4562 1365.23 487.641
657 1 51.0673 9.94766 508 69.0413 1366.58 515.051
658 0 54.1375 11.2676 610 78.3295 1367.35 518.356
659 0 55.2025 12.3002 679 76.0412 1366.79 517.499
660 0 58.0803 12.3966 720 74.5167 1365.23 517.6
661 0 57.0414 12.0088 685 73.508 1364.64 517.28
662 0 60.1 12.5457 754 72.6883 1365.04 516.847
663 0 62.0307 13.0742 811 71.725 1364.83 515.534
664 0 64.0627 11.9414 765 74.5359 1365.22 513.305
665 0 65.0651 12.1417 790 75.2025 1365.25 513.627
666 0 68.0737 12.4277 846 73.7801 1365.61 512.014
667 0 68.0737 12.4277 846 128.541 1365.6 512.047
668 0 74.0525 12.5587 930 73.2075 1364.96 509.831
669 0 74.0754 12.7303 943 73.4931 1365.41 508.598
670 0 79.0603 12.4841 987 73.7528 1365.49 507.585
671 0 81.0684 12.9027 1046 72.9426 1365.73 506.539
672 0 83.0727 13.121 1090 72.6725 1366.09 505.586
673 0 84.1459 12.7635 1074 74.2169 1365.28 503.127
674 0 88.0746 12.1715 1072 75.0485 1366.26 502.311
675 0 90.0376 12.8724 1159 74.1579 1365.29 501.305
676 0 94.0664 13.1609 1238 72.126 1366.02 501.469
677 0 96.0851 13.3319 1281 71.8056 1366.09 498.487
678 0 97.0756 12.6499 1228 74.228 1366.2 497.286
679 0 103.084 13.6879 1411 73.3459 1365.83 496.122
680 0 105.239 12.9134 1359 83.3885 1365.98 493.079
681 0 108.153 13.3422 1443 82.0159 1366.01 492.816
682 0 112.17 13.1319 1473 81.6775 1365.56 490.885
683 1 61.0604 10.3504 632 77.856 1365.88 515.85
684 0 62.1139 10.6256 660 76.8985 1365.63 515.544
685 0 64.0459 11.3825 729 76.4252 1366.67 514.588
686 0 67.2932 12.6907 854 75.918 1367.31 512.035
687 0 69.031 12.5016 863 80.5226 1366 510.955
688 0 73.0567 13.2226 966 78.1325 1365.89 511.253
689 0 76.0477 12.8472 977 79.1986 1365.9 509.609
690 0 76.0976 12.6022 959 81.44 1365.53 509.092
691 0 78.0715 12.0146 938 82.5192 1364.83 508.618
692 0 80.0596 12.5531 1005 82.8806 1365.72 506.521
693 0 84.0833 12.773 1074 82.3194 1365.08 507.317
694 0 84.1515 12.2755 1033 84.6108 1365.97 504.048
695 0 86.1304 11.6219 1001 86.4486 1365.14 502.886
696 0 90.165 11.8893 1072 85.445 1365.38 502.024
697 0 91.1252 12.3566 1126 84.9512 1364.73 500.334
698 0 94.055 12.1418 1142 84.9081 1364.48 497.816
699 0 97.1043 11.8635 1152 83.1771 1364.66 498.15
700 0 99.1244 11.5108 1141 84.6661 1364.89 496.872
701 0 102.066 11.424 1166 87.4708 1366.88 497.582
702 0 106.185 11.4517 1216 85.9745 1366.63 495.61
703 1 57.0377 10.5194 600 85.915 1366.48 518.28
704 0 60.0886 11.0836 666 85.0766 1367.1 517.455
705 0 63.0845 11.6669 736 83.4932 1367.09 515.812
706 0 63.0845 11.7145 739 134.912 1367.1 515.801
707 0 56.0891 9.27096 520 73.5769 1365.37 508.938
708 0 62.0843 9.27771 576 73.2153 1365.14 510.24
709 0 62.1751 9.31241 579 72.2021 1364.47 508.105
710 0 69.0779 11.2627 778 82.7416 1363.83 514.422
711 0 72.0195 11.7885 849 82.1578 1363.84 512.529
712 0 75.0239 11.2897 847 83.392 1363.7 512.204
713 0 74.0341 11.5082 852 82.2934 1363.19 509.846
714 0 78.0667 11.6695 911 82.348 1363.6 509.603
715 0 79.052 10.9801 868 84.2085 1363.79 507.264
716 0 82.0554 12.1747 999 82.2422 1364.46 506.394
717 0 83.0642 11.2925 938 83.3614 1363.63 505.655
718 0 86.0935 11.3133 974 85.5308 1363.34 501.408
719 0 87.1574 11.267 982 86.1741 1363.74 503.912
720 0 89.0603 10.9476 975 87.4246 1364.06 499.578
721 0 88.0674 10.9007 960 86.4156 1363.65 497.654
722 0 92.2087 10.7365 990 85.7848 1364.22 494.719
723 0 94.1467 10.9191 1028 86.6527 1364.09 493.791
724 0 101.107 10.8005 1092 86.0495 1364.3 496.212
725 1 56.0369 10.3325 579 81.2539 1363.73 521.275
726 0 59.0158 11.5223 680 80.8132 1363 521.176
727 0 52.0223 9.26525 482 68.9876 1363.82 516.546
728 0 52.0458 8.85759 461 70.5835 1364.11 516.33
729 0 60.0438 10.7588 646 76.8854 1364.41 522.819
730 0 63.0207 11.2661 710 76.5211 1365.01 520.294
731 0 67.0768 11.211 752 80.6902 1363.11 518.988
732 0 69.0551 10.9333 755 80.9113 1363.95 517.261
733 0 69.0362 11.1391 769 81.8895 1363.48 517.493
734 0 72.0476 11.0066 793 81.7453 1364.23 517.008
735 0 75.0362 12.5539 942 78.7718 1364.3 513.237
736 0 77.0537 11.758 906 80.7748 1364.22 510.398
737 0 79.0347 11.0584 874 81.7254 1364 510.156
738 0 84.0734 11.9657 1006 79.7962 1363.76 509.109
739 0 85.1682 11.8824 1012 81.1611 1365.17 509.056
740 0 88.1265 12.7884 1127 81.016 1364.4 504.619
741 0 90.0962 12.0871 1089 83.6823 1364.33 506.061
742 0 92.0498 11.5698 1065 86.0883 1364.38 502.656
743 0 95.1917 11.8603 1129 86.481 1363.83 501.679
744 0 98.0539 11.4529 1123 87.9858 1363.48 501.818
745 1 56.0953 11.0526 620 89.4129 1364.13 518.985
746 0 58.1389 10.8533 631 90.3788 1364.67 516.563
747 0 52.0128 10.0937 525 84.5505 1364.12 512.429
748 0 56.0535 11.3463 636 82.3821 1363.84 512.102
749 0 63.033 12.4855 787 86.9733 1363.7 516.839
750 0 65.0814 12.7072 827 86.7715 1363.86 517.042
751 0 67.0526 11.9458 801 88.814 1364.14 516.105
752 0 67.0202 12.4291 833 82.9628 1364.03 513.719
753 0 67.0604 11.6313 780 85.5423 1364.13 514.708
754 0 71.0484 12.02 854 85.4075 1364.05 513.46
755 0 74.0371 12.2776 909 85.2882 1364.34 511.677
756 0 74.0528 11.2082 830 87.7133 1364.16 512.633
757 0 79.1132 11.3761 900 86.3756 1364.16 509.89
758 0 81.0498 11.5608 937 86.9723 1364.67 508.583
759 0 84.1105 12.1269 1020 86.0118 1364.61 507.739
760 0 90.1421 12.4359 1121 82.8189 1364.66 506.669
761 1 47.0683 10.7291 505 86.5782 1363.57 525.261
762 0 49.0588 11.8837 583 80.9828 1364.61 523.727
763 0 52.0686 12.3491 643 77.4806 1364.77 522.123
764 0 52.0815 11.9236 621 77.0886 1365.16 523.111
765 0 52.0612 12.6006 656 73.9466 1366.83 522.515
766 0 56.0691 12.1457 681 73.138 1366.97 523.28
767 0 56.0618 11.7192 657 74.7047 1367.18 522.53
768 0 56.1266 11.5097 646 76.4536 1366.19 522.443
769 0 60.081 12.067 725 76.0152 1366.04 519.932
770 0 62.0893 11.7411 729 77.0261 1366.48 518.407
771 0 63.0945 12.1564 767 76.1734 1366.2 517.49
772 0 64.0795 12.703 814 71.8366 1366.52 517.373
773 0 64.1105 11.9325 765 76.6392 1366.72 515.205
774 0 69.0971 12.4318 859 75.2782 1366.45 513.079
775 0 71.0614 12.5244 890 74.7315 1366.31 513.236
776 0 71.2064 12.7095 905 74.9215 1365.8 513.219
777 0 74.2039 12.1826 904 75.9204 1365.7 511.017
778 0 76.1616 12.1584 926 76.3089 1365.34 510.036
779 0 79.1295 12.3216 975 75.7005 1365.82 510.025
780 0 80.1394 12.2911 985 76.7746 1365.79 508.988
781 0 79.0723 11.4579 906 86.0475 1364.98 509.709
782 0 82.0608 11.0162 904 86.1681 1364.62 507.446
783 0 85.0829 12.9403 1101 83.7811 1364.9 504.483
784 0 87.0458 11.8903 1035 84.3034 1364.6 506.91
785 0 90.0773 12.9111 1163 85.2949 1363.98 503.609
786 0 97.0896 13.7193 1332 81.5803 1364.92 500.478
787 0 96.0283 12.4651 1197 85.0301 1364.8 502.926
788 0 99.0479 12.3779 1226 85.2439 1365.27 500.577
789 0 102.112 12.8094 1308 85.169 1366.4 500.252
790 0 105.044 12.1187 1273 86.1445 1367.2 499.646
791 1 60.0178 12.313 739 89.2801 1368.62 520.018
792 0 65.0255 12.6412 822 87.9331 1367.85 519.068
793 0 64.0348 12.7275 815 90.0785 1367.49 517.631
794 0 66.0353 12.887 851 88.5593 1368.56 517.764
795 0 63.0304 12.0735 761 85.0276 1367.07 517.742
796 0 65.0605 12.204 794 85.6537 1367.62 518.306
797 0 68.0509 12.2408 833 86.6579 1367.54 516.601
798 0 70.0407 12.5213 877 85.5519 1367.85 516.223
799 0 71.0435 12.2742 872 86.9989 1367.47 515.18
800 0 71.0435 12.246 870 157.057 1366.46 515.257
801 0 76.0796 12.3029 936 87.5321 1367.6 513.895
802 0 77.0627 12.5223 965 85.4715 1367.03 514.322
803 0 79.0566 11.827 935 89.4043 1366.75 512.467
804 0 84.0786 12.6786 1066 87.5704 1366.58 510.209
805 0 84.2523 12.3676 1042 90.5499 1366.18 510.27
806 0 85.059 12.2856 1045 92.9139 1365.56 510.033
807 0 89.0768 12.2142 1088 92.2555 1365.33 508.278
808 0 93.085 12.7625 1188 91.0581 1365.68 505.942
809 0 95.0979 12.3557 1175 93.8919 1365.48 505.001
810 0 99.0999 12.2099 1210 92.1207 1364.69 503.225
811 0 102.065 12.6488 1291 90.9295 1364.53 502.534
812 0 103.149 12.3898 1278 92.2926 1364.26 501.628
813 0 108.15 12.2608 1326 94.0053 1364.94 499.222
814 1 58.0291 11.8216 686 96.4023 1364.63 523.633
815 0 61.1044 12.3232 753 94.251 1364.96 522.53
816 0 62.0553 12.9078 801 94.1236 1364.49 522.466
817 0 63.0453 12.7369 803 94.4259 1365.13 522.847
818 0 66.1092 13.6592 903 92.6689 1365.82 519.853
819 0 67.0574 13.3766 897 93.5641 1364.32 520.819
820 0 70.1428 13.7291 963 91.946 1364.47 519.637
821 0 73.0547 13.6062 994 91.2827 1364.02 516.841
822 0 75.0445 14.2182 1067 88.9644 1364.07 517.413
823 0 76.0332 14.2701 1085 88.0618 1363.38 515.87
824 0 80.1068 14.5056 1162 87.1515 1364.76 513.894
825 0 80.0878 14.3717 1151 88.5178 1364.3 513.13
826 0 83.116 14.2812 1187 88.2081 1364.73 513.424
827 0 83.116 14.2452 1184 160.688 1365.71 513.233
828 0 88.1255 14.3772 1267 90.94 1364.15 509.62
829 0 89.1875 14.2621 1272 89.8664 1364.22 508.748
830 0 88.0905 12.9866 1144 95.4152 1364.7 511.253
831 0 92.0528 13.1555 1211 96.1602 1362.89 508.015
832 0 93.0765 14.1067 1313 96.3915 1363.44 507.583
833 0 96.0449 13.3479 1282 96.8643 1363.7 505.871
834 0 98.0577 13.6858 1342 96.4203 1363.87 506.101
835 0 101.059 13.6356 1378 98.119 1364.27 502.921
836 0 103.066 13.6611 1408 99.4709 1363.54 500.649
837 0 107.043 13.7702 1474 97.4437 1363.53 498.649
838 0 107.044 13.798 1477 165.228 1363.53 498.601
839 0 107.045 13.8913 1487 164.223 1363.52 498.736
840 1 61.102 12.4873 763 86.346 1364.4 519.177
841 0 61.0961 12.554 767 140.052 1364.41 519.005
842 0 63.0615 12.4164 783 77.2708 1363.16 509.46
843 0 63.0399 11.7545 741 80.5614 1363.28 507.96
844 0 66.0489 11.658 770 78.4675 1363.67 506.735
845 0 67.0625 12.3765 830 77.688 1363.44 506.965
846 0 71.0553 11.9344 848 79.8443 1363.92 505.118
847 0 74.0912 11.9582 886 79.9492 1363.36 503.77
848 0 75.1042 12.01 902 79.6131 1364.24 503.288
849 0 76.0912 11.841 901 80.8491 1364.19 499.463
850 0 80.0376 12.3192 986 80.8357 1364.53 497.712
851 0 82.0619 12.1737 999 81.8358 1364.32 496.96
852 0 83.1214 12.6562 1052 82.0646 1364.09 494.745
853 0 84.0966 12.7235 1070 79.072 1363.52 496.812
854 0 88.0707 12.1834 1073 83.1491 1364.16 493.281
855 0 90.0265 12.4741 1123 83.179 1363.75 491.904
856 0 95.1618 12.6521 1204 81.1445 1363.92 492.969
857 0 94.0488 11.8768 1117 85.4064 1363.91 490.269
858 0 97.0716 12.3311 1197 84.5038 1363.81 486.562
859 1 53.112 9.37641 498 88.5562 1363.94 512.739
860 0 54.0388 10.4925 567 89.9418 1364.54 510.222
861 0 54.0691 10.2277 553 88.9855 1363.98 509.712
862 0 58.0855 10.2952 598 83.9833 1363.93 508.821
863 0 59.0618 9.95567 588 76.5986 1363.31 510.296
864 0 61.0418 9.99316 610 77.3852 1364.3 507.503
865 0 62.1342 9.7048 603 78.4478 1363.79 508.685
866 0 65.0392 9.8556 641 79.2761 1363.85 504.931
867 0 69.173 9.81596 679 79.5287 1363.86 504.27
868 0 72.18 9.90579 715 80.2769 1363.53 504.455
869 0 73.1578 9.58203 701 80.9486 1363.51 501.936
870 0 76.1181 10.9435 833 78.7719 1364.12 501.418
871 0 77.1564 9.66867 746 80.9799 1363.86 497.871
872 0 78.0962 10.0517 785 81.7618 1363.57 496.488
873 0 81.1427 9.77291 793 82.8298 1363.87 496.192
874 0 82.2091 9.34203 768 85.4414 1363.93 493.542
875 0 86.1362 9.35727 806 85.5533 1363.48 492.855
876 0 89.1346 9.77174 871 84.7417 1363.48 493.749
877 0 91.0934 8.93589 814 86.6843 1363.93 490.127
878 0 94.1741 9.2913 875 86.8754 1363.72 486.805
879 0 97.1056 10.5452 1024 85.0801 1363.76 486.206
880 0 102.269 9.63148 985 84.5898 1363.79 485.355
881 0 107.203 10.3728 1112 83.0144 1364.14 484.394
882 0 112.261 10.2707 1153 82.1622 1364.22 481.989
883 0 117.164 11.2321 1316 79.6064 1364.36 479.88
884 0 121.298 10.1486 1231 80.069 1363.86 480.176
885 1 62.0701 8.92539 554 76.6408 1364.05 506.507
886 0 62.0677 8.86129 550 114.262 1365.06 506.375
887 0 68.0562 11.0497 752 78.7021 1363.25 503.584
888 0 71.0593 10.2872 731 80.9562 1363.94 500.68
889 0 72.1028 10.5266 759 80.4242 1363.68 501.722
890 0 75.0903 10.9069 819 80.464 1363.94 500.201
891 0 78.2027 10.6902 836 81.189 1363.95 498.304
892 0 81.0554 11.4736 930 80.5613 1363.77 497.437
893 0 84.1164 11.5673 973 80.5838 1363.82 497.192
894 0 87.0428 10.6155 924 82.6688 1363.74 495.029
895 0 90.111 11.7522 1059 81.5524 1363.62 494.512
896 0 90.1215 10.508 947 84.1299 1363.81 489.069
897 0 95.0522 10.4364 992 84.0444 1363.66 488.173
898 0 98.0896 11.2142 1100 82.0836 1364.32 487.358
899 0 104.13 11.6681 1215 80.986 1364.65 488.109
900 0 101.12 10.7694 1089 133.442 1365.53 484.758
901 0 110.134 11.713 1290 81.0457 1364.58 486.099
902 0 113.128 10.9964 1244 83.7661 1364.52 483.543
903 0 116.104 11.705 1359 82.4106 1364.97 484.621
904 0 121.131 12.6887 1537 85.7866 1364.53 484.473
905 0 124.173 12.6033 1565 79.131 1364.85 482.719
906 1 62.0697 8.42601 523 74.9101 1365.65 511.99
907 0 64.0937 9.48612 608 74.051 1366.22 509.238
908 0 67.1178 10.5933 711 73.4796 1365.98 509.104
909 0 71.1038 11.7575 836 79.6304 1366.31 508.006
910 0 74.0887 12.7145 942 76.9936 1366.23 507.142
911 0 75.0898 12.6249 948 74.3154 1366.01 508.851
912 0 77.1442 12.159 938 76.0991 1366.16 508.139
913 0 79.13 11.7655 931 77.4748 1365.8 507.17
914 0 82.1127 12.9943 1067 76.6532 1365.78 504.906
915 0 82.1174 13.1641 1081 75.3256 1365.38 503.626
916 0 86.145 12.8504 1107 77.7687 1365.4 502
917 0 89.147 13.158 1173 78.8525 1365.41 501.727
918 0 90.1794 12.6969 1145 87.4603 1365.51 499.103
919 0 91.3686 12.5645 1148 88.074 1364.77 499.321
920 0 96.1991 13.3577 1285 85.8786 1364.14 498.026
921 0 98.1637 12.5199 1229 88.1408 1364.51 495.491
922 0 101.275 13.1425 1331 86.3028 1364.56 493.706
923 0 99.2021 11.7034 1161 86.2257 1364.22 488.127
924 0 101.26 12.5815 1274 84.7818 1364.02 488.986
925 0 104.191 12.2371 1275 84.9945 1364.48 486.753
926 0 104.159 12.8361 1337 83.012 1363.88 486.01
927 0 110.122 12.9584 1427 81.9243 1364.15 482.908
928 1 54.0651 8.95217 484 76.9194 1364.61 515.837
929 0 62.0648 11.7458 729 81.3539 1363.96 516.743
930 0 63.0936 11.2531 710 72.3296 1363.98 514.142
931 0 66.0203 11.9509 789 74.0025 1363.35 518.01
932 0 63.0864 11.0483 697 73.4419 1363.4 511.514
933 0 67.0418 10.844 727 74.1967 1363.51 513.381
934 0 69.1608 11.2202 776 74.6843 1363.1 512.006
935 0 72.0958 11.6789 842 76.196 1363.46 512.026
936 0 77.0185 11.7894 908 79.3954 1363.64 513.761
937 0 77.0859 11.1304 858 75.8881 1363.07 510.547
938 0 77.0932 10.377 800 81.1287 1362.25 508.756
939 0 82.0531 11.261 924 79.039 1362.23 507.313
940 0 83.0729 11.0987 922 76.6714 1362.37 505.557
941 0 84.0824 10.8346 911 78.7947 1362.12 505.05
942 0 88.127 11.5061 1014 78.5592 1361.6 504.036
943 0 90.1814 11.1442 1005 78.4159 1362.03 504.17
944 0 93.1528 11.1967 1043 78.5072 1362.28 502.686
945 0 95.1097 10.4195 991 79.7709 1362.95 503.48
946 0 95.1016 10.4204 991 140.28 1363.96 503.471
947 0 104.157 12.5387 1306 88.4877 1362.33 502.044
948 0 103.095 10.7958 1113 80.0252 1361.69 494.881
949 0 107.11 10.6712 1143 80.1907 1362.1 494.276
950 0 109.207 10.1734 1111 82.0657 1362.41 491.139
951 0 112.243 11.3504 1274 91.8736 1362.05 488.848
952 1 60.112 10.4305 627 92.7416 1362.2 514.161
953 0 60.112 10.4139 626 144.45 1363.23 513.922
954 0 68.1677 10.4595 713 92.7574 1362.79 513.662
955 0 69.0993 11.0421 763 90.0419 1362.36 512.583
956 0 69.1472 11.6997 809 72.7355 1363.31 511.215
957 0 74.0849 11.2574 834 81.7494 1362.46 509.927
958 0 75.1522 11.3636 854 82.5703 1363.2 507.731
959 0 78.0551 11.5687 903 82.7841 1362.89 505.744
960 0 80.0623 11.7908 944 83.1038 1362.66 503.854
961 0 82.0687 11.4416 939 85.7753 1362.99 503.105
962 0 86.0715 12.4315 1070 84.7084 1362.62 500.463
963 0 91.0681 11.7165 1067 86.2652 1363.3 500.251
964 0 93.0856 12.2898 1144 86.4406 1363.12 499.889
965 0 98.0772 12.1129 1188 87.4579 1363.96 497.058
966 0 99.1345 12.4074 1230 87.5463 1364.06 498.155
967 0 103.063 12.4778 1286 88.0428 1363.95 496.372
968 0 106.094 12.8848 1367 87.714 1363.09 491.94
969 0 110.059 12.9567 1426 86.6115 1363.8 489.92
970 1 61.0646 11.9218 728 78.3736 1364.3 517.97
971 0 65.3151 12.6923 829 80.3341 1365.27 518.024
972 0 67.1097 12.5317 841 78.7491 1364.15 520.162
973 0 69.0899 12.766 882 77.0884 1364.15 518.829
974 0 70.1181 12.3363 865 79.9306 1364.62 517.987
975 0 72.0257 12.6205 909 80.7536 1365.03 515.612
976 0 75.0651 13.2019 991 79.1302 1364.83 513.166
977 0 76.0733 13.2767 1010 79.1505 1364.47 512.549
978 0 79.0384 11.893 940 82.9394 1364.13 507.974
979 0 79.0542 11.7894 932 92.8895 1365.12 506.411
980 0 82.1039 12.4598 1023 94.6667 1364.88 505.258
981 0 86.167 12.7543 1099 94.1338 1365.16 504.78
982 0 86.1154 12.1929 1050 95.8181 1365.01 503.268
983 0 90.0737 12.1567 1095 86.5735 1364.86 501.023
984 0 92.1934 12.6907 1170 85.8 1363.91 501.363
985 0 95.0911 11.8833 1130 88.0027 1364.28 498.958
986 0 100.135 12.7128 1273 85.8233 1364.12 498.234
987 0 100.111 11.7669 1178 89.1205 1364.19 496.914
988 0 106.092 12.6682 1344 87.0335 1364.85 496.899
989 0 108.103 12.9044 1395 88.5642 1364.13 495.485
990 1 59.046 10.8898 643 82.6314 1364.94 521.751
991 0 61.0582 11.6446 711 80.4487 1364.54 521.826
992 0 61.1508 12.2648 750 80.952 1364.71 519.931
993 0 63.0655 12.7962 807 77.3494 1365.31 518.454
994 0 64.0413 10.4464 669 77.8984 1364.93 513.085
995 0 64.0854 11.1726 716 77.926 1364.92 514.578
996 0 67.0346 11.4717 769 78.4317 1364.74 512.641
997 0 71.0576 12.891 916 85.0218 1364.54 515.18
998 0 72.0694 12.4602 898 85.7951 1365.3 514.091
999 0 71.0388 11.1629 793 83.0013 1364.9 508.598
1000 0 75.0988 12.5701 944 85.4513 1364.08 510.82
1001 0 78.093 12.2546 957 86.3866 1364.2 508.925
1002 0 82.139 12.5275 1029 86.9359 1364.47 508.877
1003 0 83.0429 12.8247 1065 87.6582 1364.72 507.717
1004 0 83.1075 12.189 1013 90.8085 1365.14 506.015
1005 0 87.0742 12.0127 1046 83.4159 1366.09 502.664
1006 0 88.2868 11.5419 1019 83.9647 1365.89 501.361
1007 0 90.1862 12.1083 1092 86.0266 1365.87 498.216
1008 0 94.1337 12.1529 1144 86.264 1366.13 498.11
1009 0 95.4284 12.7949 1221 85.3448 1365.29 496.513
1010 0 101.283 12.6971 1286 86.7348 1365.51 499.496
1011 0 105.1 13.0448 1371 87.4712 1365.65 497.762
1012 0 106.181 12.733 1352 90.3728 1366.09 496.726
1013 0 110.131 13.4022 1476 90.7297 1365.34 491.16
1014 0 115.167 13.068 1505 91.6365 1365.6 491.95
1015 0 117.166 13.3485 1564 95.3293 1365.16 491.549
1016 0 122.2 13.2569 1620 94.537 1364.77 490.073
1017 1 68.1403 11.5203 785 88.3096 1365.88 516.019
1018 0 71.2198 11.977 853 91.5123 1366.7 513.451
1019 0 73.1651 12.2326 895 92.4045 1366.35 512.682
1020 0 74.0673 12.1241 898 83.1214 1365.87 514.129
1021 0 78.0435 11.7114 914 83.5678 1367.01 512.505
1022 0 78.0416 11.2889 881 84.5051 1366.68 512.805
1023 0 81.08 11.2852 915 87.9934 1366.94 511.552
1024 0 82.0703 11.7826 967 86.999 1366.57 510.63
1025 0 87.1694 12.8715 1122 85.9456 1366.89 507.352
1026 0 88.0751 12.5915 1109 86.0352 1366.46 505.41
1027 0 90.1423 12.4803 1125 88.3902 1366.92 504.63
1028 0 94.1894 12.2413 1153 88.9887 1366.38 502.586
1029 0 96.3138 12.8331 1236 89.0518 1366.1 500.622
1030 0 99.2023 12.7215 1262 91.0848 1365.44 499.893
1031 0 97.1035 12.4712 1211 90.7176 1365.47 492.342
1032 0 104.217 12.7619 1330 91.9414 1365.53 498.603
1033 0 106.222 12.5303 1331 92.5417 1365.36 496.21
1034 0 109.201 13.4523 1469 94.5725 1364.9 495.391
1035 0 114.24 13.7517 1571 94.6996 1364.55 492.375
1036 0 116.354 13.2698 1544 95.0842 1364.56 490.901
1037 0 121.212 13.1588 1595 92.5843 1364.8 487.547
1038 0 123.284 13.5216 1667 91.2549 1364.83 484.128
1039 0 126.274 12.8688 1625 90.2732 1364.68 479.782
1040 1 71.2612 11.5491 823 88.531 1364.71 511.446
1041 0 73.2269 12.4954 915 87.8142 1365.02 510.943
1042 0 73.1713 11.9446 874 79.8307 1365.47 512.252
1043 0 74.1162 11.7923 874 81.8627 1364.8 512.22
1044 0 76.1038 12.2596 933 79.6195 1365.08 511.516
1045 0 80.0655 11.4531 917 81.9378 1365.34 510.774
1046 0 80.1831 11.6858 937 81.8111 1364.31 508.567
1047 0 84.1648 12.0597 1015 81.8296 1365.5 507.381
1048 0 86.1488 12.2695 1057 83.4749 1365 504.675
1049 0 87.1294 11.7641 1025 84.7278 1364.83 507.284
1050 0 90.1751 12.3759 1116 83.9785 1365.09 505.55
1051 0 92.1342 12.4818 1150 84.0235 1365.44 505.617
1052 0 93.1736 11.9562 1114 85.3106 1365.26 504.154
1053 0 97.1716 12.164 1182 84.0127 1364.92 503.054
1054 0 100.143 12.7319 1275 84.3914 1365.13 499.984
1055 0 103.24 13.0182 1344 84.9874 1366.01 499.721
1056 0 105.143 12.1643 1279 87.1321 1365.82 499.229
1057 0 109.221 12.7906 1397 86.214 1365.25 494.822
1058 0 113.182 12.9526 1466 84.9686 1365.34 492.555
1059 0 116.181 12.5925 1463 84.1456 1365.13 489.603
1060 0 120.223 12.4768 1500 84.1827 1365.42 490.341
1061 0 125.286 12.9225 1619 86.139 1365.3 487.317
1062 1 62.1508 10.3136 641 89.6677 1365.78 521.275
1063 0 65.1688 11.4012 743 77.8291 1365.9 520.205
1064 0 64.1551 11.4722 736 79.0856 1365.5 519.863
1065 0 66.1608 11.1698 739 80.3045 1365.61 519.456
1066 0 68.1554 11.1803 762 82.4291 1365.07 517.487
1067 0 71.0862 12.1683 865 80.1017 1365.64 517.302
1068 0 72.2041 11.7168 846 83.6655 1366.01 516.749
1069 0 75.1465 11.7105 880 85.8943 1364.67 515.816
1070 0 77.1144 12.7084 980 85.1143 1365.06 515.171
1071 0 79.098 12.9207 1022 84.3777 1364.39 512.82
1072 0 79.1672 11.8989 942 81.4554 1365.47 507.427
1073 0 79.1164 11.8939 941 82.0733 1364.74 506.999
1074 0 83.0916 11.361 944 82.1356 1365.39 506.534
1075 0 83.1716 11.6867 972 82.9342 1364.8 505.794
1076 0 87.1303 12.028 1048 81.9971 1364.51 504.129
1077 0 89.0734 12.1248 1080 82.525 1364.38 502.583
1078 0 92.1658 12.1737 1122 81.7683 1364.78 501.75
1079 0 92.1212 12.4293 1145 81.7004 1364.95 499.587
1080 0 95.0932 11.9777 1139 83.417 1365.36 497.919
1081 0 100.161 12.1105 1213 81.4592 1365.19 494.589
1082 0 98.0753 11.2159 1100 84.4191 1365.89 490.972
1083 0 102.144 11.7873 1204 83.9319 1365.19 488.787
1084 0 102.169 10.9426 1118 86.6458 1365.52 486.192
1085 0 103.22 11.1897 1155 91.3593 1364.92 478.515
1086 1 117.108 11.9291 1397 82.01 1365.15 488.904
1087 0 118.171 11.9319 1410 83.8489 1364.68 487.34
1088 0 122.272 11.7444 1436 85.8572 1364.59 484.428
1089 0 128.143 12.1115 1552 97.163 1364.23 480.482
1090 0 132.203 12.5943 1665 98.4066 1365.19 476.431
1091 0 136.288 12.6864 1729 99.9526 1364.77 475.001
1092 0 143.247 12.7611 1828 100.404 1364.78 472.237
1093 1 81.1958 10.9119 886 88.6535 1364.56 506.093
1094 0 83.1742 10.7726 896 86.394 1364.74 504.251
1095 0 88.0429 11.6307 1024 85.8105 1364.47 509.43
1096 0 92.1468 11.6119 1070 85.8019 1364.23 509.394
1097 0 92.0906 11.0326 1016 88.624 1364.21 505.984
1098 0 97.1107 11.1625 1084 88.4742 1364.79 503.633
1099 0 100.073 11.7914 1180 88.328 1366.85 506.998
1100 0 100.068 11.702 1171 131.138 1367.87 506.962
1101 0 108.13 11.3474 1227 91.0831 1366.52 502.925
1102 0 111.134 11.7606 1307 89.2731 1366.34 499.153
1103 0 115.054 11.5511 1329 88.0692 1366.16 498.45
1104 1 64.2032 10.934 702 79.3604 1366.12 522.268
1105 0 66.1939 11.3455 751 78.996 1365.9 518.622
1106 0 66.0628 11.0955 733 79.5266 1364.79 520.757
1107 0 71.1105 12.0235 855 77.1404 1364.35 516.726
1108 0 73.0349 11.9121 870 78.0552 1364.59 516.361
1109 0 73.125 11.5419 844 93.269 1364.72 516.763
1110 0 80.2073 11.1835 897 89.1951 1364.84 514.802
1111 0 80.2073 11.2209 900 133.891 1365.83 514.809
1112 0 87.1198 10.5946 923 92.6631 1364.94 510.829
1113 0 87.1326 11.3964 993 91.5055 1365.15 509.315
1114 0 88.2238 11.8109 1042 91.1583 1365.34 509.889
1115 0 92.1908 11.5738 1067 94.3346 1363.97 507.636
1116 1 47.0224 9.8251 462 90.3442 1365.37 531.556
1117 0 46.0725 10.5052 484 90.3058 1365.3 530.981
1118 0 47.0904 10.9789 517 90.2476 1364.44 529.075
1119 0 49.0555 10.4372 512 85.5273 1366.18 530.262
1120 0 49.1019 10.0403 493 87.3651 1365.51 532.065
1121 0 50.0843 10.2627 514 88.284 1365.19 529.747
1122 0 53.0587 11.1575 592 85.8598 1365.67 529.1
1123 0 52.0559 10.1622 529 87.7713 1365.44 528.811
1124 0 54.0652 11.3382 613 87.4274 1365.09 527.958
1125 0 56.0981 11.2482 631 86.954 1365.39 527.274
1126 0 59.1331 11.3473 671 86.1341 1365.54 526.218
1127 0 61.0612 11.1036 678 86.0398 1364.26 523.142
1128 0 62.0916 10.6778 663 88.8944 1364.66 523.175
1129 0 64.098 10.8272 694 87.9568 1364.38 521.147
1130 0 65.0986 10.9219 711 89.2954 1363.95 519.838
1131 0 68.0774 11.3841 775 88.8232 1364.46 520.222
1132 0 69.0548 11.4112 788 89.3794 1365.07 517.897
1133 0 71.1078 11.6584 829 88.9059 1365.03 518.616
1134 0 76.1458 12.0427 917 87.7863 1365.21 516.755
1135 0 78.1101 12.0343 940 89.117 1364.81 514.032
1136 0 79.0866 12.4168 982 90.3391 1365 515.757
1137 0 83.0533 13.3047 1105 86.6751 1364.42 512.685
1138 0 86.1593 12.709 1095 89.8521 1364.98 512.248
1139 0 89.0724 13.1017 1167 90.1662 1365.01 511.173
1140 0 88.0629 11.2533 991 96.9122 1364.32 505.967
1141 0 93.0983 11.3214 1054 97.3795 1364.32 507.426
1142 0 93.1447 11.5949 1080 99.2046 1364.46 504.717
1143 0 97.1569 12.1968 1185 99.3848 1364.77 502.629
1144 0 98.2566 11.7549 1155 101.815 1364.99 501.35
1145 0 101.166 11.9408 1208 101.213 1364.04 499.327
1146 0 104.198 12.9657 1351 90.4108 1364.57 501.018
1147 0 107.159 12.8221 1374 92.0648 1363.54 499.29
1148 1 54.0289 10.4574 565 88.9398 1363.57 524.857
1149 0 57.0359 11.0457 630 92.2841 1363.74 522.344
1150 0 58.1059 11.2553 654 85.6024 1363.92 521.187
1151 0 61.0296 11.6501 711 79.7356 1363.9 522.913
1152 0 62.0702 11.777 731 78.6375 1363.62 521.075
1153 0 64.0352 11.9778 767 79.5619 1363.59 521.133
1154 0 65.086 11.7998 768 80.918 1364.13 518.918
1155 0 69.0528 11.7446 811 81.2947 1363.98 517.297
1156 0 70.125 11.2799 791 82.5259 1363.95 517.623
1157 0 72.0955 12.0396 868 81.3744 1364.07 516.491
1158 0 75.079 11.681 877 82.1938 1363.64 515.727
1159 0 75.079 11.6144 872 131.172 1362.65 515.588
1160 0 79.0561 11.4096 902 83.4091 1363.51 513.523
1161 0 83.0631 12.1835 1012 81.6117 1363.42 512.013
1162 1 43.0171 11.4373 492 80.8943 1363.63 531.309
1163 0 44.0486 11.9186 525 88.8457 1363.36 532.575
1164 0 47.034 12.9694 610 86.0328 1363.43 531.693
1165 0 47.0348 12.1187 570 90.0211 1363.19 531.035
1166 0 48.0215 13.0566 627 88.4896 1363.85 530.702
1167 0 49.0382 12.6228 619 87.6381 1363.93 530.724
1168 0 49.0359 12.6846 622 88.9695 1363.91 530.01
1169 0 53.0332 13.633 723 85.4066 1363.82 528.617
1170 0 53.0399 12.2549 650 88.4585 1364.08 528.738
1171 0 54.0186 13.4583 727 86.9532 1363.8 527.508
1172 0 53.0721 12.2663 651 90.725 1363.9 528.329
1173 0 55.0831 12.0182 662 90.5695 1363.97 528.369
1174 0 58.092 12.7729 742 88.5189 1363.86 525.472
1175 0 60.1284 12.4733 750 90.1707 1363.13 524.859
1176 0 61.108 12.437 760 90.3711 1363.64 522.528
1177 0 62.1379 11.571 719 93.242 1363.47 522.145
1178 0 65.0709 12.5555 817 92.1689 1364.01 521.235
1179 0 68.0755 12.2511 834 93.9424 1363.3 518.793
1180 0 68.043 12.742 867 94.0115 1363.8 517.572
1181 0 73.083 13.1494 961 92.9209 1363.09 518.299
1182 0 74.0661 12.3673 916 96.2107 1363.67 518.134
1183 0 76.0911 12.1171 922 92.8623 1363.12 513.201
1184 0 76.1465 11.8587 903 96.5891 1363.04 510.267
1185 0 81.155 12.3098 999 96.8779 1363.44 509.629
1186 0 84.1448 12.2883 1034 96.7853 1363.39 509.357
1187 1 44.0526 10.4194 459 91.7974 1364 529.142
1188 0 49.0535 12.0277 590 87.5661 1362.99 529.051
1189 0 50.0411 11.9302 597 93.9615 1364.27 528.149
1190 0 52.0478 12.6422 658 90.152 1362.79 527.146
1191 0 53.0706 12.9073 685 85.454 1362.73 525.026
1192 0 53.0721 12.3417 655 82.1038 1363.27 522.29
1193 0 57.1361 13.1266 750 78.788 1362.82 521.457
1194 0 58.0755 12.4665 724 82.9544 1363.08 521.558
1195 0 58.169 12.1714 708 83.8573 1362.47 520.088
1196 0 63.0521 13.3699 843 82.9858 1363.81 519.668
1197 0 64.1036 12.9478 830 84.5313 1363.92 518.782
1198 0 65.0421 12.8686 837 87.9988 1364.14 519.951
1199 0 68.0652 12.253 834 89.4964 1363.27 517.537
1200 0 69.0325 12.2406 845 92.3917 1362.98 517.761
1201 0 72.0367 12.7574 919 92.543 1363.13 516.803
1202 0 75.1764 12.77 960 93.3531 1363.68 516.926
1203 0 77.0378 12.7859 985 93.9675 1364.08 517.512
1204 0 79.0755 13.6831 1082 93.2375 1363.72 514.303
1205 0 81.0722 12.8527 1042 97.0019 1363.93 513.964
1206 0 84.1179 12.8391 1080 94.525 1363.59 512.168
1207 0 88.0821 13.4647 1186 97.8019 1364.34 511.476
1208 0 89.0938 12.47 1111 98.5599 1363.26 506.981
1209 0 92.1034 12.9746 1195 98.3649 1363.68 504.97
1210 0 94.0365 13.3459 1255 98.7841 1363.89 502.99
1211 0 97.1696 13.1008 1273 100.141 1362.98 503.759
1212 0 101.101 12.3639 1250 102.98 1362.01 501.926
1213 0 105.151 13.8087 1452 101.554 1362.72 501.103
1214 0 104.134 13.4635 1402 105.664 1363.48 499.32
1215 0 109.133 13.9279 1520 104.595 1363.66 499.662
1216 0 113.116 13.4641 1523 107.595 1363.49 498.562
1217 0 116.191 13.736 1596 107.055 1363.52 497.997
1218 0 120.071 13.4671 1617 107.614 1363.46 495.899
1219 0 124.084 13.515 1677 107.267 1363.52 494.501
1220 0 127.076 13.5588 1723 107.518 1363.25 491.466
1221 0 132.133 13.6604 1805 106.953 1362.66 488.645
1222 0 136.214 13.9707 1903 107.399 1363.39 486.16
1223 0 138.12 13.6693 1888 107.564 1363.28 485.785
1224 0 145.267 13.8779 2016 105.755 1363.17 482.649
1225 0 149.167 13.7363 2049 106.599 1363.46 481.396
1226 0 154.212 13.7149 2115 107.746 1363.16 478.344
1227 0 159.143 13.7298 2185 106.608 1363.75 476.559
1228 0 164.203 13.9644 2293 105.858 1363.71 471.497
1229 0 169.2 14.4149 2439 102.253 1363.58 470.979
1230 0 176.324 14.2975 2521 102.532 1363.24 465.746
1231 0 180.21 14.7051 2650 103.154 1363.88 462.905
1232 0 185.278 14.9073 2762 103.547 1363.09 459.795
1233 0 191.232 14.3177 2738 105.973 1363.12 455.26
1234 0 198.29 14.7763 2930 104.265 1362.81 451.623
1235 1 150.16 13.0061 1953 103.801 1363.54 480.518
1236 0 155.2 13.8209 2145 103.279 1363.88 474.151
1237 0 159.308 14.0546 2239 101.519 1363.73 471.169
1238 0 163.268 13.6892 2235 105.279 1364.22 466.485
1239 0 172.322 13.6257 2348 107.495 1363.78 463.39
1240 0 175.39 13.6324 2391 106.922 1363.72 463.363
1241 0 183.395 14.1934 2603 106.259 1363.95 459.837
1242 0 188.451 13.7171 2585 108.046 1363.27 455.123
1243 0 196.357 14.2546 2799 105.471 1363.3 453.671
1244 0 199.288 13.4078 2672 108.868 1363.71 449.332
1245 0 207.477 13.7076 2844 107.293 1364.01 447.172
1246 0 216.43 14.0461 3040 108.068 1364.25 438.46
1247 0 224.405 14.3847 3228 107.461 1363.23 435.21
1248 1 53.1888 12.2206 650 101.848 1365.23 520.263
1249 0 54.1719 12.4234 673 103.749 1363.83 519.471
1250 0 53.1288 11.4627 609 95.133 1364.45 519.987
1251 0 55.0549 11.8972 655 94.3924 1364.57 517.661
1252 0 56.1421 10.8119 607 95.4662 1364.8 517.784
1253 0 61.1314 12.2032 746 95.7654 1365.04 519.017
1254 0 62.1132 11.6722 725 94.331 1364.64 521.851
1255 0 64.1213 12.1177 777 93.7967 1365.59 520.407
1256 0 66.0865 12.181 805 93.0112 1366.03 519.206
1257 0 70.079 12.6857 889 90.7964 1366.53 518.003
1258 0 70.0646 10.3761 727 95.5392 1365.79 518.323
1259 0 74.0504 11.1411 825 93.2679 1364.91 516.488
1260 0 76.0434 10.3099 784 92.6824 1365.02 512.962
1261 0 76.0579 11.11 845 86.8201 1364.73 505.024
1262 0 79.0868 10.7856 853 90.4408 1363.96 507.526
1263 1 44.0499 10.7605 474 93.8755 1364.46 522.135
1264 0 46.0682 11.483 529 92.9357 1364.76 522.425
1265 0 48.0334 10.7217 515 86.7961 1363.74 522.645
1266 0 50.0273 10.6942 535 90.8 1364.54 526.849
1267 0 52.0102 11.2862 587 90.1601 1365.2 524.7
1268 0 52.0444 10.6063 552 91.4801 1364.83 526.098
1269 0 55.0213 11.0321 607 93.5255 1364.41 523.98
1270 0 57.0269 11.0474 630 93.8302 1364.11 523.933
1271 0 60.0308 11.2942 678 91.674 1364.53 523.463
1272 0 58.0432 11.4053 662 94.426 1364.23 521.884
1273 0 62.1323 11.1697 694 89.3746 1364.29 514.937
1274 0 62.0661 10.7788 669 91.3169 1363.97 515.013
1275 0 62.0353 11.4451 710 92.6042 1364.32 513.608
1276 0 67.0951 12.296 825 89.9079 1364.11 514.811
1277 0 70.0572 12.2186 856 88.8201 1364.18 514.713
1278 0 71.022 12.7848 908 89.1322 1364.44 517.546
1279 0 73.0728 12.2891 898 91.0334 1363.96 516.06
1280 0 76.0566 11.9648 910 88.6681 1365 512.545
1281 0 78.0988 12.3177 962 95.157 1364.51 513.801
1282 0 81.0623 12.6569 1026 95.2466 1364.4 512.612
1283 0 83.1003 13.0926 1088 95.4485 1364.26 510.46
1284 0 84.0548 12.6465 1063 98.4327 1364 507.388
1285 0 89.1016 12.8729 1147 96.1857 1364.41 506.162
1286 0 91.1196 12.961 1181 97.1541 1363.9 504.867
1287 0 95.264 13.7618 1311 95.8024 1363.86 502.161
1288 0 99.1694 13.4215 1331 97.2179 1363.83 499.027
1289 0 100.214 12.9922 1302 98.7227 1364.49 497.644
1290 0 102.201 12.6319 1291 99.062 1364.53 498.09
1291 0 108.177 13.3207 1441 95.7592 1364.11 497.755
1292 1 54.0991 11.1832 605 84.5107 1364.24 525.587
1293 0 56.1341 10.7956 606 83.9142 1364.17 524.05
1294 0 55.0945 8.87566 489 83.589 1365.11 520.02
1295 0 52.0435 9.45363 492 86.7724 1364.11 512.575
1296 0 56.1387 9.52998 535 79.815 1364.65 518.288
1297 0 59.1108 10.3534 612 77.9608 1363.62 518.892
1298 0 61.0913 9.60857 587 78.1806 1363.83 516.341
1299 0 63.0639 10.5607 666 78.8979 1364.14 513.908
1300 0 65.0447 10.0393 653 80.6049 1365.06 512.925
1301 0 68.0505 10.1542 691 80.0362 1364.72 511.227
1302 0 70.0763 10.0034 701 79.6434 1364.95 509.358
1303 0 72.0923 9.66816 697 79.3501 1365.26 506.98
1304 0 75.111 9.9719 749 78.1829 1364.46 504.27
1305 0 80.0658 10.9535 877 75.5895 1364.72 506.597
1306 0 82.0841 9.64864 792 81.75 1364.16 505.169
1307 0 84.1379 9.47255 797 80.9511 1364.44 506.681
1308 0 87.0904 10.1159 881 79.8661 1363.98 504.731
1309 0 89.0767 9.80054 873 79.2554 1364.58 503.984
1310 0 94.0873 10.0226 943 79.7582 1364.36 502.516
1311 1 54.0551 9.13883 494 72.4656 1364.72 527.034
1312 0 55.0762 9.65935 532 72.0714 1364.62 526.137
1313 0 57.0936 10.8594 620 75.2613 1364.11 522.731
1314 0 58.1171 11.8898 691 75.8582 1364.45 521.473
1315 0 63.2073 12.1821 770 79.0117 1365.02 521.549
1316 0 62.137 11.5229 716 85.3101 1365.36 519.616
1317 0 66.1914 11.8898 787 84.1169 1365.05 519.753
1318 0 69.1681 11.5371 798 83.6328 1365.28 519.65
1319 0 69.1998 11.6619 807 84.0991 1364.61 518.976
1320 0 69.1809 11.7084 810 85.6123 1364.67 517.127
1321 0 74.1461 12.0033 890 85.0393 1364.78 517.467
1322 0 76.1022 11.7605 895 85.3944 1363.54 514.025
1323 0 78.1821 11.8186 924 85.2424 1363.93 513.123
1324 0 82.1762 11.524 947 84.0961 1363.78 511.636
1325 0 83.1783 11.3611 945 85.1894 1364.59 511.137
1326 0 86.1515 11.236 968 83.9907 1365.51 510.362
1327 0 90.1921 11.7527 1060 81.1764 1363.81 507.882
1328 1 45.1165 9.3314 421 79.7197 1367.3 530.406
1329 0 46.1007 9.76125 450 79.1867 1364.53 530.056
1330 0 48.1835 10.8336 522 74.5096 1364.49 530.142
1331 0 47.0741 10.4729 493 72.1542 1364.23 529.761
1332 0 48.1899 10.6661 514 75.0156 1363.2 528.035
1333 0 50.0552 10.4684 524 72.8817 1363.8 528.676
1334 0 49.0597 9.33556 458 74.1201 1363.35 527.828
1335 0 53.0291 10.9185 579 69.5112 1363.56 527.853
1336 0 55.0406 10.2651 565 69.4265 1362.43 526.462
1337 0 55.0592 10.3888 572 70.4336 1363.2 526.35
1338 0 57.078 9.74106 556 70.6079 1363.37 526.29
1339 0 58.0372 9.47669 550 72.0218 1363.06 525.991
1340 0 60.0941 10.1175 608 71.8701 1362.99 525.344
1341 0 63.0389 10.4856 661 69.7867 1363.13 524.005
1342 0 63.084 10.0501 634 71.9006 1363.8 522.175
1343 0 67.0518 10.4844 703 72.1323 1363.27 519.101
1344 0 69.0508 10.8326 748 72.7848 1363.48 519.89
1345 0 71.0964 10.4365 742 73.7022 1363.13 518.493
1346 0 73.0802 10.4132 761 72.9422 1363.23 516.043
1347 0 75.0777 11.0286 828 73.3454 1362.49 515.301
1348 0 78.0447 11.0706 864 75.2685 1363.19 515.711
1349 0 77.0452 10.5133 810 77.8025 1362.54 516.564
1350 0 83.0667 11.7616 977 77.4248 1363.22 512.607
1351 0 82.1274 10.9829 902 79.6197 1363.16 512.822
1352 0 86.1273 10.7515 926 80.1523 1363.05 505.874
1353 0 87.1415 11.2805 983 80.5483 1362.99 504.725
1354 0 89.1102 11.5251 1027 81.0438 1363.03 503.289
1355 0 92.1391 11.1136 1024 82.3467 1363.69 507.538
1356 0 95.1966 11.2189 1068 82.5131 1363.64 506.449
1357 0 98.1214 11.4858 1127 83.1242 1364.31 506.693
1358 0 102.103 11.9291 1218 82.4154 1363.91 501.64
1359 0 101.224 11.5684 1171 86.047 1363.69 498.417
1360 0 107.163 11.2259 1203 86.6151 1363.58 497.465
1361 0 107.163 11.3005 1211 133.002 1363.59 497.483
1362 0 116.248 12.0088 1396 86.5802 1363.29 494.343
1363 0 120.216 11.9202 1433 87.1717 1363.18 491.943
1364 0 123.23 12.0587 1486 87.8082 1363.34 490.361
1365 0 127.224 11.9867 1525 89.9908 1362.56 488.772
1366 1 58.086 10.4672 608 86.1217 1363.27 524.082
1367 0 59.1064 11.1325 658 84.3298 1362.69 523.606
1368 0 63.1604 12.1754 769 84.3498 1363.5 519.368
1369 0 63.1503 11.7497 742 86.7817 1362.96 518.612
1370 0 63.1986 11.6775 738 79.664 1362.8 515.093
1371 0 62.186 11.2566 700 136.537 1361.78 514.316
1372 0 66.0586 11.5806 765 84.2379 1363.29 515.149
1373 0 68.0788 11.4426 779 87.3761 1363.38 514.345
1374 0 72.0932 12.8029 923 95.5352 1363.36 516.797
1375 0 72.0732 12.0988 872 94.6537 1361.54 511.101
1376 0 75.0466 11.766 883 96.7067 1361.55 510.04
1377 0 73.0782 11.2893 825 79.857 1363.12 511.781
1378 0 72.0908 10.9168 787 84.23 1362.56 510.792
1379 0 74.0505 11.0195 816 83.0025 1362.43 513.705
1380 0 75.054 11.9114 894 90.8345 1362.8 515.045
1381 0 76.0318 11.5873 881 95.3076 1362.5 515.547
1382 0 79.0251 11.8696 938 94.5171 1362.76 514.159
1383 0 80.0378 11.1198 890 89.0674 1362.63 510.83
1384 0 85.065 12.0966 1029 91.0622 1362.59 515.193
1385 0 87.1478 12.1403 1058 88.7836 1362.04 513.897
1386 0 89.148 11.0827 988 82.3765 1362.32 508.768
1387 0 92.0468 11.9613 1101 86.4369 1362.51 513.287
1388 0 96.0382 11.7453 1128 85.18 1362.13 512.466
1389 0 97.0907 11.7725 1143 84.5573 1362.09 508.398
1390 0 98.1681 11.3683 1116 85.4749 1362.11 509.771
1391 0 102.114 12.4273 1269 82.7455 1362.05 507.884
1392 0 105.093 12.1797 1280 82.7789 1362.37 506.854
1393 0 106.122 12.3631 1312 82.8605 1362.77 503.482
1394 0 110.199 11.8422 1305 83.6958 1362.56 504.522
1395 0 114.164 12.5609 1434 83.2441 1362.47 504.166
1396 0 119.172 12.3351 1470 85.0014 1362.49 500.328
1397 0 121.154 12.5212 1517 86.9776 1362.01 497.972
1398 0 125.137 12.9538 1621 87.9753 1361.96 496.983
1399 1 69.0567 11.4254 789 93.7288 1362.23 521.926
1400 0 70.0455 11.9494 837 99.3895 1362.96 520.737
1401 0 70.0455 11.9922 840 170.165 1363.96 520.569
1402 0 73.1306 12.1974 892 103.813 1362.27 518.628
1403 0 76.2099 12.4 945 105.957 1362.56 517.733
1404 0 74.082 11.0958 822 96.5973 1363.11 519.365
1405 0 75.043 11.0736 831 98.2623 1363.02 518.946
1406 0 76.1053 11.2607 857 100.919 1362.46 516.142
1407 0 79.0473 10.9555 866 102.846 1362.18 515.898
1408 0 81.1389 9.9952 811 100.98 1363.13 513.686
1409 0 84.1885 11.106 935 99.8663 1363.48 512.618
1410 0 86.147 10.1106 871 103.409 1362.89 510.722
1411 0 89.0716 10.4298 929 106.859 1362.87 510.323
1412 0 91.1008 11.0427 1006 104.9 1362.43 507.967
1413 0 94.0678 10.8326 1019 106.346 1363.09 507.163
1414 0 96.046 10.8594 1043 103.477 1363.22 506.912
1415 0 99.0806 10.1735 1008 104.353 1363.08 505.647
1416 1 43.0327 9.99241 430 95.107 1363.97 533.172
1417 0 42.0202 9.92379 417 94.7026 1364.49 534.228
1418 0 44.0551 9.8967 436 95.5138 1365.05 532.034
1419 0 45.0214 11.128 501 95.006 1362.84 531.469
1420 0 42.0577 9.15409 385 91.5922 1363.91 534.262
1421 0 44.0198 9.42757 415 89.7446 1363.36 533.311
1422 0 42.0382 8.51606 358 95.3911 1363.53 532.528
1423 0 46.0559 8.98908 414 90.1957 1363.82 532.379
1424 0 48.0957 8.89892 428 91.4416 1364.83 529.098
1425 0 48.0109 9.06045 435 92.2046 1364.55 528.103
1426 0 50.1597 8.99128 451 89.8847 1364.5 526.244
1427 0 51.2405 9.5042 487 90.4209 1365.07 525.971
1428 0 52.2329 9.9937 522 90.0364 1364.95 524.697
1429 0 53.0835 10.1727 540 89.4796 1364.52 525.002
1430 0 52.1575 8.20591 428 83.757 1364.47 519.1
1431 0 54.2068 9.53755 517 90.7698 1364.27 523.838
1432 0 56.0706 9.16702 514 89.1128 1364.53 524.562
1433 0 57.1192 10.2242 584 86.9589 1363.91 522.163
1434 0 60.0619 9.7899 588 86.6003 1364.8 522.371
1435 0 55.1162 8.87216 489 81.6871 1364.56 510.059
1436 0 57.1061 8.7031 497 81.3481 1364.1 509.537
1437 0 57.1128 8.82464 504 79.9524 1364.11 511.208
1438 0 64.1123 9.53015 611 80.7741 1363.36 515.628
1439 0 67.0701 10.4219 699 82.3748 1362.91 516.648
1440 0 70.0418 9.59428 672 84.1354 1363.09 516.847
1441 0 70.0436 9.75107 683 85.5974 1362.59 515.966
1442 0 70.0471 9.53643 668 84.3099 1361.96 514.551
1443 0 70.0311 9.5529 669 114.463 1360.96 514.52
1444 0 77.0505 11.0187 849 83.0035 1362.97 511.384
1445 0 76.0587 9.78192 744 79.6263 1362.23 502.527
1446 0 78.0585 8.82671 689 81.3498 1362.76 500.927
1447 0 82.0504 9.67698 794 80.0214 1362.37 501.068
1448 0 84.0867 9.68048 814 80.5639 1363.32 498.45
1449 0 88.0404 10.6088 934 79.6467 1362.4 498.895
1450 1 41.016 8.67953 356 74.5421 1362.95 517.615
1451 0 51.1186 11.307 578 91.3131 1363.23 524.811
1452 0 49.0894 10.7152 526 71.4487 1362.49 517.131
1453 0 48.0159 9.35107 449 77.8641 1363.88 515.575
1454 0 50.0829 10.2231 512 78.0938 1363.99 516.156
1455 0 53.0452 10.4816 556 78.8273 1364.29 516.874
1456 0 54.0341 9.93816 537 93.3203 1361.78 513.823
1457 0 54.0258 10.4024 562 91.2046 1362.16 514.536
1458 0 57.0849 10.6158 606 90.0759 1362.75 515.007
1459 0 55.0354 9.64833 531 93.2712 1362.79 512.872
1460 0 58.0699 9.98796 580 93.5207 1362.42 511.469
1461 0 57.0208 9.69822 553 95.4304 1362.73 510.664
1462 0 68.0755 11.7957 803 101.672 1363.58 517.452
1463 0 70.0827 11.7575 824 101.84 1363.43 517.993
1464 0 70.1858 11.8685 833 102.4 1363.35 515.965
1465 0 72.181 12.0946 873 102.056 1362.75 514.378
1466 0 69.0151 11.6641 805 83.0497 1362.6 509.589
1467 0 71.0711 11.6081 825 84.84 1362.32 509.096
1468 0 72.0718 11.6689 841 88.3508 1361.78 505.391
1469 0 73.0838 10.8779 795 97.8465 1362.04 503.56
1470 0 76.0307 11.2455 855 100.181 1362.34 506.113
1471 0 80.0566 11.954 957 98.4535 1362.71 503.797
1472 0 80.0425 11.4564 917 103.501 1362.2 501.007
1473 0 82.0372 11.3851 934 103.828 1362.71 500.715
1474 0 85.0714 11.7313 998 104.411 1362.13 499.828
1475 0 88.0337 11.7341 1033 104.669 1362.41 498.144
1476 0 90.1141 12.1069 1091 104.927 1362.28 496.891
1477 0 90.083 11.6226 1047 108.588 1362.59 494.904
1478 0 93.0956 11.7299 1092 109.064 1361.93 493.379
1479 0 96.0689 12.1059 1163 107.319 1362.62 493.645
1480 0 102.12 12.7008 1297 106.252 1361.87 494.477
1481 0 103.07 13.1173 1352 104.434 1362.9 490.937
1482 0 105.102 12.7496 1340 104.414 1362.43 487.681
1483 0 111.173 13.4026 1490 107.134 1363.04 493.168
1484 0 115.08 13.4081 1543 104.816 1362.73 489.103
1485 0 118.195 12.6994 1501 105.165 1363.25 487.033
1486 1 59.0497 10.5166 621 98.6715 1362.65 521.182
1487 0 60.0514 10.1746 611 94.743 1362.86 518.511
1488 0 61.094 10.8685 664 98.738 1362.9 518.321
1489 0 66.042 11.9924 792 93.6326 1362.73 518.794
1490 0 66.0313 12.282 811 94.4686 1362.56 517.888
1491 0 69.046 12.6148 871 93.9541 1362.58 517.38
1492 0 72.0946 12.8581 927 93.2179 1363.31 516.55
1493 0 74.0612 13.1783 976 93.4139 1363.11 515.727
1494 0 75.0592 12.6167 947 96.8321 1363.65 515.094
1495 0 76.0882 12.9586 986 95.1034 1362.87 513.252
1496 0 80.0941 13.197 1057 95.3103 1363.08 511.65
1497 0 81.076 12.5191 1015 97.3734 1363.49 511.647
1498 0 82.1504 12.185 1001 99.994 1363.46 509.094
1499 0 85.1043 13.3131 1133 97.1836 1363.34 509.14
1500 0 85.1164 12.0658 1027 101.081 1363.22 507.24
1501 0 87.1114 13.3392 1162 98.673 1363.13 505.475
1502 0 91.0592 12.5193 1140 99.5211 1363.5 503.93
1503 0 94.0731 12.9049 1214 98.8295 1363.23 503.254
1504 0 97.1368 12.4361 1208 103.533 1363.18 501.208
1505 0 99.1294 11.2177 1112 105.775 1363.18 499.121
1506 0 103.086 11.6796 1204 104.372 1363.1 498.134
1507 0 104.072 10.781 1122 106.766 1363.14 496.694
1508 0 108.058 10.7627 1163 105.975 1363.01 495.456
1509 1 59.0304 10.2998 608 92.9424 1363.71 519.969
1510 0 62.0533 10.8294 672 92.2991 1363.48 518.58
1511 0 64.0534 11.2562 721 94.6685 1364.16 518.741
1512 0 62.0929 11.0158 684 96.8275 1363.15 519.212
1513 0 65.1167 10.9342 712 97.236 1362.9 517.817
1514 0 67.0482 9.9928 670 98.691 1362.79 515.254
1515 0 70.1015 11.7259 822 95.8017 1362.96 514.614
1516 0 72.0983 11.3595 819 95.6313 1364.02 513.926
1517 0 73.0768 10.7832 788 96.4949 1363.62 512.957
1518 0 77.0863 11.0396 851 98.5605 1363.44 511.025
1519 0 78.0462 10.891 850 93.6365 1363.33 511.827
1520 0 82.0824 11.6347 955 91.7864 1363.32 509.806
1521 0 84.1835 11.4274 962 91.817 1364.26 509.711
1522 0 83.0919 11.1322 925 92.4778 1364.3 505.844
1523 0 89.1633 11.0359 984 90.4654 1363.36 507.248
1524 0 91.1241 11.1167 1013 90.7374 1363.8 503.808
1525 0 93.1712 11.6452 1085 91.906 1363.93 503.155
1526 0 95.1424 10.6157 1010 93.5248 1363.8 500.378
1527 0 99.1281 11.0665 1097 90.4667 1364 501.223
1528 0 102.128 12.1515 1241 88.2611 1363.64 500.126
1529 0 103.161 11.6613 1203 94.7116 1363.28 497.301
1530 0 107.167 12.4758 1337 92.6687 1363.48 496.869
1531 0 110.128 11.3686 1252 95.5487 1363.49 495.9
1532 0 115.222 11.9335 1375 93.5833 1363.7 492.677
1533 0 119.272 11.8804 1417 90.096 1363.87 490.057
1534 0 123.185 11.6654 1437 89.6541 1363.81 490.145
1535 0 125.223 11.4915 1439 91.9333 1364.41 486.853
1536 0 129.244 11.6446 1505 92.1654 1363.31 485.484
1537 0 132.274 11.9146 1576 93.1548 1363.91 482.85
1538 0 138.245 12.5357 1733 92.2037 1363.26 480.85
1539 0 144.22 11.9609 1725 94.2284 1363.37 480.579
1540 0 148.238 12.3518 1831 95.154 1363.66 477.543
1541 0 150.306 12.1086 1820 97.1967 1363.32 476.551
1542 0 155.288 13.0081 2020 96.4842 1363.22 473.628
1543 0 161.322 12.7757 2061 97.673 1363.13 470.915
1544 0 166.328 12.9563 2155 98.2385 1363.11 469.062
1545 0 173.32 14.7473 2556 94.3721 1363.46 460.208
1546 0 175.378 12.8522 2254 101.454 1363.22 462.669
1547 0 180.317 13.2655 2392 102.739 1362.99 458.986
1548 0 184.425 13.5827 2505 103.651 1363.38 456.661
1549 0 190.319 12.9782 2470 104.662 1363.15 458.289
1550 0 194.361 12.8318 2494 107.268 1363.66 456.073
1551 1 149.219 12.3777 1847 107.58 1363.69 477.877
1552 0 155.163 12.3999 1924 109.259 1363.04 473.675
1553 0 160.23 13.2809 2128 109.906 1363.14 470.388
1554 0 161.199 12.5435 2022 111.954 1362.83 465.552
1555 0 167.179 13.0399 2180 109.24 1362.58 463.552
1556 0 172.195 13.2292 2278 108.962 1362.67 461.276
1557 0 176.138 13.5121 2380 107.514 1362.18 460.613
1558 0 181.203 13.0848 2371 109.657 1362.78 458.587
1559 0 185.33 12.9769 2405 110.271 1362.42 456.301
1560 0 193.354 13.5399 2618 108.131 1362.89 453.316
1561 0 198.249 13.4225 2661 107.501 1362.27 452.107
1562 0 205.215 13.6247 2796 108.852 1362.81 448.627
1563 0 209.223 13.8083 2889 109.547 1362.72 444.139
1564 0 216.269 13.5248 2925 109.839 1362.22 441.898
1565 0 225.34 13.9611 3146 106.499 1362.58 438.474
1566 0 233.358 14.2057 3315 106.372 1362.46 434.064
1567 0 239.329 14.0059 3352 107.264 1362.49 432.104
1568 0 248.466 14.6861 3649 105.138 1362.56 428.618
1569 0 256.438 14.1984 3641 106.592 1362.77 422.637
1570 1 54.0185 9.79295 529 88.6711 1362.95 526.019
1571 0 54.0449 10.5468 570 87.4421 1362.53 524.196
1572 0 56.0138 11.0152 617 84.8784 1362.46 525.506
1573 0 57.0674 11.5127 657 85.2648 1363.73 525.154
1574 0 57.1048 11.9955 685 84.9518 1363.71 523.956
1575 0 58.2002 10.6357 619 92.9208 1363.47 519.69
1576 0 62.1924 10.6926 665 89.7699 1363.07 520.042
1577 0 64.3221 10.5563 679 91.9941 1362.09 516.362
1578 0 65.2753 10.4327 681 93.185 1362.88 517.188
1579 0 66.2968 10.7848 715 93.2252 1362.6 513.674
1580 0 67.178 10.6136 713 94.4362 1361.63 514.666
1581 0 69.1225 10.8648 751 93.9068 1361.89 511.558
1582 0 71.1685 11.0864 789 94.2459 1362.03 509.835
1583 0 74.2564 11.0563 821 94.4287 1362.94 509.457
1584 0 74.2258 11.0474 820 130.798 1363.93 509.418
1585 0 76.2749 10.9603 836 96.5873 1362.42 509.19
1586 0 82.2564 10.7955 888 97.1464 1362.81 507.82
1587 0 84.3777 11.6381 982 96.278 1363.19 506.563
1588 0 85.2527 11.5773 987 96.0436 1363.35 506.057
1589 0 91.4685 12.0697 1104 95.8741 1362.98 505.109
1590 0 91.4603 12.0161 1099 144.512 1362.96 505.089
1591 0 96.5168 12.0704 1165 97.9871 1362.75 505.919
1592 0 98.6481 12.1847 1202 96.3744 1363.27 507.292
1593 1 187.929 12.1003 2274 99.9807 1362.11 465.075
1594 0 193.823 13.0686 2533 98.2377 1362.96 461.996
1595 0 194.651 12.1397 2363 99.5895 1362.59 457.088
1596 0 198.555 11.7449 2332 98.422 1362.97 457.799
1597 0 203.638 12.424 2530 98.4261 1362.69 452.508
1598 0 207.624 12.9946 2698 96.1913 1362.57 453.308
1599 0 211.588 13.0773 2767 96.2121 1362.57 450.919
1600 0 212.442 12.0739 2565 100.221 1362.02 447.431
1601 0 217.539 12.954 2818 97.329 1362.62 446.352
1602 0 222.582 13.1996 2938 96.7253 1362.11 443.432
1603 0 224.483 12.139 2725 98.665 1362.83 441.3
1604 0 224.483 12.139 2725 154.591 1362.84 441.573
1605 0 233.56 12.7162 2970 96.9646 1363.34 439.304
1606 0 238.552 12.6262 3012 95.674 1362.96 437.934
1607 0 242.556 12.6115 3059 94.8287 1363.19 433.934
1608 0 248.521 13.355 3319 92.6915 1363.34 430.785
1609 0 250.601 12.5897 3155 93.5325 1362.47 427.627
1610 0 256.584 13.3952 3437 89.277 1362.4 430.444
1611 0 261.816 12.9595 3393 90.7849 1362.45 422.732
1612 0 267.422 13.1066 3505 92.6163 1362.37 423.799
1613 0 273.45 13.1542 3597 92.035 1362.93 421.053
1614 0 275.602 12.1189 3340 93.4192 1362.93 417.386
1615 0 283.503 13.2521 3757 89.3705 1362.62 411.764
1616 1 113.359 12.4207 1408 79.0078 1362.66 496.475
1617 0 112.22 12.1102 1359 78.7778 1363.53 495.302
1618 0 113.271 12.0861 1369 78.3776 1362.71 494.552
1619 0 112.239 11.1904 1256 80.3989 1362.79 494.467
1620 0 111.206 10.584 1177 80.3339 1362.93 495.331
1621 0 112.357 11.8105 1327 77.4913 1362.47 495.634
1622 0 112.266 10.8225 1215 78.5062 1363.03 496.165
1623 0 112.274 10.7238 1204 78.6902 1363.37 494.915
1624 0 112.418 11.0481 1242 76.8438 1363.29 496.757
1625 0 113.197 11.0339 1249 77.3667 1363.96 493.916
1626 0 114.358 10.3097 1179 76.9457 1363.65 495.543
1627 0 112.244 10.0139 1124 77.8843 1363.75 493.509
1628 0 115.182 9.84532 1134 76.5811 1362.36 493.92
1629 0 115.134 10.1708 1171 75.6191 1362.97 494.33
1630 0 115.174 10.6881 1231 74.9285 1363.12 494.243
1631 0 113.206 9.14259 1035 76.686 1363.47 495.349
1632 0 114.181 9.72145 1110 75.9297 1362.98 492.613
1633 0 112.253 8.08888 908 77.9504 1363.09 489.579
1634 0 113.312 8.86936 1005 75.5761 1362.71 491.625
1635 0 114.261 9.27699 1060 74.4726 1363.6 490.78
1636 0 112.16 8.17581 917 74.5431 1363.07 491.315
1637 0 113.202 9.31081 1054 72.7343 1362.53 490.591
1638 0 115.241 9.29353 1071 71.5182 1362.96 489.782
1639 0 112.269 8.38167 941 72.3528 1362.39 487.834
1640 0 113.158 9.20839 1042 70.4309 1362.43 486.529
1641 0 113.152 8.8023 996 69.9267 1362.35 487.687
1642 0 111.133 5.53392 615 75.0358 1362.98 474.816
1643 0 113.229 5.79357 656 72.6387 1362.55 476.252
1644 0 114.234 7.5547 863 67.7555 1363.24 490.093
1645 0 112.148 7.20478 808 69.3738 1362.56 482.061
1646 0 115.163 7.18978 828 67.756 1363.64 487.715
1647 0 115.125 7.85234 904 67.2323 1363.12 486.67
1648 0 116.219 8.5786 997 66.1013 1363.02 487.114
1649 0 116.192 8.83882 1027 64.6524 1362.99 488.53
1650 0 117.161 7.92926 929 65.1722 1362.81 486.586
1651 0 114.316 5.90469 675 67.5867 1363.33 483.938
1652 0 115.204 6.42336 740 67.0189 1363.19 477.722
1653 0 114.229 3.97446 454 70.2181 1363.62 476.22
1654 0 117.21 7.03013 824 64.7973 1363.22 490.512
1655 0 116.197 6.59226 766 67.5091 1363.63 487.221
1656 0 114.175 5.29014 604 68.7765 1363.4 489.515
1657 0 114.105 4.78507 546 69.2473 1364.07 483.229
1658 0 111.129 2.51959 280 71.8821 1362.91 481.425
1659 0 113.128 4.37559 495 68.5394 1363.76 479.028
1660 1 44.0012 0.88634 39 56.0769 1364.82 539.692
1661 0 47.0093 1.95706 92 54.2174 1364.62 537.967
1662 1 26.06 4.56639 119 53.521 1363.61 512.479
1663 1 44.1716 3.32793 147 52.9252 1363.83 526.306
1664 0 44.1873 1.83311 81 87.7901 1363.41 523.58
1665 0 43.1001 1.50812 65 52.7231 1364.57 521.677
1666 1 22.1265 4.70024 104 50.9615 1363.86 510.202
1667 0 15.0003 1.26664 19 53.3684 1363.74 508.053
1668 1 44.035 2.2255 98 46.5816 1364.1 530.235
1669 0 35.0265 2.74078 96 51.8125 1363.43 530.427
1670 1 116.158 4.19255 487 61.8049 1363.68 481.014
1671 0 114.067 3.33138 380 63.3053 1363.01 478.674
1672 0 111.279 4.24159 472 63.0254 1361.48 478.502
1673 0 112.205 4.56308 512 62.9824 1360.93 473.795
1674 0 114.218 6.67147 762 58.3819 1362.11 487.978
1675 0 114.116 2.81293 321 64.0436 1361.58 472.237
1676 0 111.152 3.85057 428 62.0911 1361.52 472.544
1677 1 79.2127 6.37524 505 61.4455 1361.34 462.089
1678 1 112.18 2.85256 320 64.1969 1361.75 466.366
1679 0 110.203 2.84022 313 64.9105 1362.06 460.201
1680 1 157.395 10.2417 1612 83.9529 1361.59 408.937
1681 1 169.342 8.65702 1466 87.7722 1361.94 404.821
1682 0 158.278 9.26849 1467 88.6271 1361.3 399.202
1683 0 168.367 11.5403 1943 82.8893 1361.7 408.217
1684 0 158.356 10.4448 1654 150.571 1361.67 401.933
1685 0 160.234 2.65237 425 88.6706 1362.32 413.308
1686 0 159.058 2.79144 444 92.5653 1361.3 404.91
1687 0 155.021 3.30278 512 98.293 1362.26 403.928
1688 0 164.165 3.43558 564 100.378 1362.87 407.924
1689 0 274.518 15.3578 4216 83.1919 1361.41 345.656
1690 1 181.111 5.72024 1036 106.251 1361.88 382.649
1691 1 230.558 6.33248 1460 100.188 1361.92 378.506
1692 1 177.464 11.8841 2109 92.229 1362.04 380.094
1693 0 185.42 12.9166 2395 89.6234 1362.11 381.795
1694 0 194.546 12.5729 2446 90.6145 1361.84 379.612
1695 1 67.1077 10.5353 707 102.827 1361.85 392.294
1696 1 127.227 7.92286 1008 94.0843 1361.89 402.751
1697 0 125.298 10.8382 1358 86.2938 1361.26 410.659
1698 0 125.269 9.25211 1159 92.8654 1362.1 402.241
1699 0 124.27 9.84149 1223 152.588 1362.14 404.618
1700 0 123.194 9.59462 1182 95.9272 1361.8 397.297
1701 0 129.247 9.16848 1185 98.0042 1361.41 395.436
1702 0 129.406 10.4787 1356 93.8001 1361.77 399.854
1703 0 129.243 10.6389 1375 94.0509 1361.89 396.895
1704 0 132.226 10.6484 1408 94.723 1362.22 390.087
1705 0 138.146 10.945 1512 92.75 1361.84 392.546
1706 0 137.379 12.3235 1693 89.5688 1362.44 395.738
1707 0 142.277 11.4776 1633 91.4036 1362.3 393.967
1708 0 140.243 11.5442 1619 90.517 1362.62 393.18
1709 0 144.289 10.174 1468 96.1485 1361.95 382.879
1710 0 146.247 10.9746 1605 94.8536 1361.57 383.257
1711 1 94.1002 7.03505 662 94.1405 1362.86 404.011
1712 0 99.1221 7.45545 739 90.9323 1362.39 401.088
1713 0 99.2527 8.24159 818 88.5037 1362.97 405.076
1714 0 99.1308 8.53418 846 98.5567 1362.72 399.479
1715 0 104.311 8.70475 908 96.5947 1362.95 398.243
1716 0 100.204 8.72218 874 100.026 1362.19 392.983
1717 0 102.096 8.8054 899 102.654 1363.04 392.581
1718 0 105.183 9.07937 955 101.742 1363.19 393.399
1719 0 100.133 9.49737 951 103.502 1363.58 389.656
1720 1 90.1323 9.87437 890 104.983 1362.76 390.744
1721 0 89.1654 11.6076 1035 102.388 1363.66 388.28
1722 1 107.214 10.4464 1120 100.322 1362.58 385.643
1723 0 87.1692 12.86 1121 100.409 1362.75 381.817
1724 0 91.0921 13.2064 1203 98.7564 1362.79 382.096
1725 0 96.1122 12.8184 1232 100.914 1363.03 380.249
1726 0 95.0906 12.8299 1220 102.102 1363.04 378.67
1727 0 98.0681 12.6035 1236 101.57 1362.26 377.201
1728 0 99.0641 12.608 1249 101.151 1362.24 375.166
1729 0 107.072 13.7944 1477 99.0873 1362.88 374.135
1730 1 60.058 9.92374 596 98.7232 1362.66 397.136
1731 0 59.0281 10.4357 616 97.7808 1362.88 396.593
1732 0 64.0237 11.3864 729 94.5144 1362.58 396.894
1733 0 64.0952 11.6857 749 92.283 1361.34 396.407
1734 0 68.0472 11.0805 754 92.8846 1361.83 396.041
1735 0 67.0637 11.5264 773 93.4153 1361.71 393.449
1736 0 68.0661 11.5623 787 94.0839 1361.27 392.441
1737 0 73.065 11.8114 863 92.2283 1361.17 392.56
1738 0 71.0626 12.2709 872 93.1089 1361.09 389.359
1739 0 75.0825 11.6405 874 92.992 1361.1 389.581
1740 0 74.0826 11.7436 870 156.808 1361.1 389.494
1741 0 81.0618 12.435 1008 91.1052 1362.22 387.81
1742 0 79.0897 12.745 1008 92.4058 1361.58 386.676
1743 0 83.0747 12.6753 1053 92.5081 1362.55 385.826
1744 0 85.1104 12.2899 1046 93.6501 1362.97 384.51
1745 0 86.0821 13.0573 1124 93.1744 1362.27 382.216
1746 0 89.109 12.0639 1075 94.3033 1361.97 381.14
1747 0 91.0636 12.7274 1159 92.333 1361.25 378.612
1748 0 95.1359 12.3718 1177 91.6899 1361.74 377.861
1749 0 96.1172 11.9958 1153 91.4493 1361.95 376.558
1750 0 98.1038 12.1606 1193 89.7703 1362.09 374.256
1751 0 98.1048 12.2012 1197 151.104 1362.09 374.415
1752 1 53.0673 10.628 564 80.9894 1361.7 395.837
1753 0 61.1179 10.4061 636 84.2783 1361.52 396.376
1754 0 59.0885 11.2374 664 83.4111 1361.5 396.128
1755 0 59.0653 11.0048 650 85.6292 1360.9 393.594
1756 0 62.0913 10.3879 645 84.8527 1361.13 393.876
1757 0 64.0756 10.5344 675 84.4637 1360.86 393.015
1758 0 64.1213 11.4627 735 84.0544 1361.05 389.997
1759 0 66.0475 11.416 754 84.3077 1360.86 389.298
1760 0 70.0411 11.8502 830 82.9422 1361.42 388.864
1761 0 68.0618 11.5336 785 85.5146 1361.23 386.732
1762 0 71.0953 11.6463 828 86.0157 1361.6 385.829
1763 0 72.0741 11.6408 839 87.5435 1361.28 384.055
1764 0 74.1246 11.3188 839 87.5888 1361.23 383.168
1765 0 79.1192 12.3611 978 84.637 1360.97 383.259
1766 0 78.1069 11.4715 896 87.6429 1361.56 380.136
1767 0 84.0838 12.0713 1015 84.9576 1361.65 378.662
1768 0 85.0872 12.1287 1032 87.249 1361.59 377.673
1769 0 90.0797 12.5444 1130 86.3301 1362.25 377.845
1770 0 92.0808 12.3044 1133 88.1801 1361.65 376.691
1771 0 99.079 12.7676 1265 85.3723 1361.35 377.25
1772 0 100.134 12.8528 1287 84.972 1360.79 375.956
1773 0 102.153 12.5791 1285 87.1089 1361.44 373.23
1774 1 57.0645 9.35784 534 81.1742 1361.85 399.44
1775 0 57.0668 10.111 577 82.7227 1361.57 396.194
1776 0 60.1074 10.265 617 84.9465 1361.59 395.624
1777 0 60.056 10.9564 658 84.6884 1362.22 394.245
1778 0 63.0832 11.0647 698 84.7393 1362.24 394.536
1779 0 66.1008 11.2404 743 84.1736 1362.45 393.876
1780 0 66.1041 11.3457 750 84.7293 1362.08 392.663
1781 0 69.0888 11.8833 821 82.9878 1362.9 391.396
1782 0 73.0684 12.3993 906 81.0066 1362.18 391.488
1783 0 73.0929 12.7919 935 81.938 1362.92 392.001
1784 0 77.0734 13.2212 1019 80.9912 1363.04 390.618
1785 0 77.0682 12.21 941 84.4825 1362.33 387.639
1786 0 79.1218 12.5376 992 85.8528 1362.14 388.167
1787 0 79.1206 12.5252 991 87.7033 1362.3 386.935
1788 0 83.08 12.9393 1075 87.9833 1362.31 387.01
1789 0 84.0785 12.2267 1028 90.0545 1362.5 385.573
1790 0 86.0661 12.7228 1095 89.5836 1361.93 384.586
1791 0 91.1327 13.2773 1210 88.3322 1362.75 383.926
1792 0 91.0669 12.3865 1128 82.7801 1362.06 384.36
1793 0 93.0982 12.4063 1155 84.8658 1362.8 381.018
1794 0 98.1035 12.497 1226 83.9119 1362.53 381.711
1795 0 100.07 12.1515 1216 84.5395 1362.01 379.535
1796 0 103.12 12.7328 1313 86.3031 1361.07 377.35
1797 1 55.0497 10.6631 587 80.2726 1361.48 401.549
1798 0 57.0648 10.3216 589 81.8115 1361.15 400.531
1799 0 59.0351 11.2814 666 77.2838 1360.55 399.446
1800 0 60.111 11.3623 683 85.3206 1361.83 400.397
1801 0 62.1153 11.4142 709 84.2764 1360.94 400.458
1802 0 62.1111 11.5599 718 84.3844 1361.36 400.579
1803 0 62.1024 10.9336 679 86.7688 1360.64 399.221
1804 0 65.0965 11.1988 729 85.9959 1361.02 397.627
1805 0 67.0916 11.2235 753 85.1182 1360.59 396.799
1806 0 68.0716 11.4144 777 84.7246 1360.5 394.784
1807 0 72.0783 10.5163 758 85.3549 1360.54 395.471
1808 0 73.0566 11.2789 824 84.1092 1361.14 390.829
1809 0 75.0953 10.9195 820 82.6024 1360.34 388.113
1810 0 77.1133 11.4896 886 83.1388 1360.98 387.99
1811 0 77.1133 11.5025 887 122.356 1361.99 387.94
1812 0 85.1425 11.2987 962 82.211 1361.28 383.556
1813 0 87.1189 11.6852 1018 81.4244 1360.9 382.683
1814 0 87.0489 11.1087 967 82.6815 1361.9 378.75
1815 0 91.041 10.7314 977 82.8649 1361.23 377.994
1816 1 45.0478 9.78961 441 76.2381 1361.12 403.485
1817 0 50.2304 10.4718 526 73.2966 1361.04 403.629
1818 0 49.0891 9.90037 486 73.177 1360.42 403.208
1819 0 53.2063 10.5627 562 79.8256 1360.09 404.254
1820 0 57.0225 12.1005 690 75.6739 1361.3 405.971
1821 0 57.0738 10.6003 605 80.0628 1361.75 403.63
1822 0 59.0407 11.6191 686 78.7551 1361.78 401.579
1823 0 63.0329 12.1207 764 77.0995 1362.53 400.228
1824 0 64.077 12.407 795 77.7623 1362.22 400.692
1825 0 65.0303 12.3327 802 78.3541 1362.4 400.116
1826 0 67.0159 12.9223 866 77.4492 1363.08 398.7
1827 0 69.0471 12.6146 871 78.473 1362.37 397.691
1828 0 72.0461 13.4358 968 76.9649 1362.4 396.191
1829 0 72.0412 12.6594 912 79.5691 1361.44 395.37
1830 0 73.0173 13.1887 963 80.3541 1362.25 392.81
1831 0 76.0719 13.3952 1019 80.3621 1361.02 393.692
1832 0 81.1297 13.4229 1089 79.9302 1361.26 391.844
1833 0 81.091 13.2567 1075 82.9256 1361.05 390.752
1834 0 85.111 14.064 1197 80.7652 1361.37 390.037
1835 0 87.0839 13.286 1157 86.7701 1361.12 387.942
1836 0 88.1205 13.6631 1204 86.9136 1362.04 385.885
1837 0 91.043 13.6199 1240 88.9371 1362.35 385.364
1838 0 94.0524 13.5244 1272 85.452 1362.62 383.458
1839 1 50.0375 10.4122 521 89.9251 1362.94 406.862
1840 0 49.0148 10.6294 521 90.1843 1363.31 406.896
1841 0 52.0462 11.5282 600 87.155 1361.64 408.128
1842 0 52.0521 11.5461 601 85.5358 1362.31 407.599
1843 0 55.0116 11.1431 613 89.398 1362.54 408.192
1844 0 56.0284 12.7078 712 84.5562 1362.15 404.51
1845 0 60.0066 12.8153 769 87.1144 1362.18 403.325
1846 0 63.0466 13.1014 826 84.4407 1362.86 402.132
1847 0 63.0911 13.2507 836 81.6017 1362.98 402.071
1848 0 66.0763 13.0758 864 82.7419 1361.62 400.372
1849 0 66.1013 12.9649 857 83.5881 1361.32 399.771
1850 0 69.0669 12.7847 883 86.0374 1361.68 397.357
1851 0 72.1224 14.1981 1024 82.9736 1361.03 397.404
1852 0 72.0733 13.3059 959 85.367 1361.44 397.068
1853 0 74.1616 13.2548 983 87.4273 1361.4 395.632
1854 0 77.0661 13.4041 1033 86.7812 1362.23 393.748
1855 0 78.1005 13.8155 1079 86.3262 1361.35 394.487
1856 0 82.1054 13.2513 1088 85.3208 1361.73 392.591
1857 0 82.0952 12.656 1039 81.8614 1361.62 393.831
1858 0 84.0604 12.4791 1049 79.6949 1361.22 391.779
1859 0 85.0359 12.1596 1034 81.9545 1361.8 390.922
1860 0 89.0372 12.579 1120 81.9402 1361.57 388.558
1861 0 93.072 13.3015 1238 81.2472 1362.16 388.054
1862 0 98.1582 14.0182 1376 80.0531 1361.75 386.872
1863 0 96.1678 12.2598 1179 85.5878 1361.75 386.074
1864 1 51.0055 10.2734 524 79.8779 1362.02 407.55
1865 0 56.0637 11.8794 666 73.8844 1362.23 407.333
1866 0 55.0368 10.9563 603 71.8706 1362.3 409.139
1867 0 55.0366 10.5748 582 134.77 1362.31 409.488
1868 0 55.0217 10.5231 579 134.39 1362.31 409.541
1869 0 55.0217 10.5231 579 134.038 1362.31 409.541
1870 0 62.0376 10.0423 623 72.9197 1362.22 406.745
1871 0 63.087 11.4762 724 71.0249 1362.33 405.224
1872 0 63.0546 11.0856 699 71.8555 1362 403.961
1873 0 68.0462 11.5216 784 70.6467 1361.7 403.342
1874 0 71.0686 11.1582 793 71.6646 1361.2 401.011
1875 0 72.056 11.7686 848 70.4151 1361.74 401.147
1876 0 74.0273 11.847 877 70.7742 1361.67 400.331
1877 0 75.0696 11.163 838 71.9105 1361.1 397.895
1878 0 78.0485 12.1079 945 71.7206 1361.73 396.362
1879 0 80.0977 11.5859 928 72.3481 1361.51 394.954
1880 0 83.0532 11.7395 975 69.0954 1361.86 393.673
1881 0 86.0498 12.0279 1035 68.7324 1361.86 391.493
1882 0 88.1044 11.6793 1029 71.2828 1362.41 390.7
1883 0 92.0625 12.2417 1127 70.5537 1361.64 387.981
1884 0 93.0813 11.5705 1077 70.1616 1362.21 387.133
1885 0 98.042 12.2499 1201 69.1973 1362.53 387.387
1886 0 101.154 12.8023 1295 68.8193 1361.95 385.143
1887 0 105.123 12.2428 1287 70.4507 1361.88 383.471
1888 0 109.153 13.1651 1437 77.0341 1362.25 382.217
1889 1 61.1058 11.2264 686 75.4344 1362.52 405.173
1890 0 63.096 11.5697 730 69.6329 1361.91 401.159
1891 0 65.0489 12.7289 828 71.1014 1361.97 404.345
1892 0 67.1151 12.4562 836 72.4737 1362.34 403.56
1893 0 70.0654 12.2314 857 73.5963 1362.3 402.848
1894 0 73.0465 12.6495 924 72.7522 1362.9 401.79
1895 0 73.0465 12.7179 929 146.348 1362.9 401.724
1896 0 78.1087 12.4314 971 74.828 1362.18 399.481
1897 0 79.1273 12.701 1005 74.6249 1362.67 399.376
1898 0 80.1659 12.5365 1005 76.0687 1362.66 398.164
1899 0 82.0365 12.9455 1062 76.129 1361.97 397.564
1900 0 85.0738 12.3657 1052 77.3584 1361.94 393.96
1901 0 88.196 12.5743 1109 76.0298 1362.11 393.127
1902 0 91.0672 12.4743 1136 77.2104 1362.46 392.457
1903 0 94.1258 13.2907 1251 76.0472 1362.69 389.49
1904 0 98.1499 12.7254 1249 76.3547 1361.73 389.93
1905 0 98.1363 11.4535 1124 79.8657 1362.01 387.63
1906 0 101.18 12.4629 1261 79.1039 1361.44 387.036
1907 0 105.239 13.5026 1421 77.2203 1361.43 384.764
1908 0 107.052 13.4981 1445 78.874 1361.36 382.143
1909 0 109.119 13.2699 1448 79.7493 1360.67 379.876
1910 0 115.183 13.5263 1558 78.577 1361 379.911
1911 0 117.187 12.6976 1488 79.1284 1360.63 381.254
1912 0 125.171 15.363 1923 73.1518 1360.5 377.786
1913 0 128.162 15.0356 1927 76.069 1360.67 375.815
1914 0 132.162 14.4671 1912 78.7657 1360.46 376.581
1915 0 137.154 15.4425 2118 75.3683 1360.41 371.675
1916 0 140.167 13.6908 1919 80.7243 1360.58 371.987
1917 0 145.119 14.6018 2119 76.9882 1360.32 369.685
1918 0 149.2 15.0335 2243 76.774 1360.26 368.317
1919 0 154.187 15.4293 2379 76.1009 1360.41 367.008
1920 0 160.32 15.3568 2462 78.7283 1360.04 359.473
1921 1 86.1073 13.0419 1123 82.0365 1360.31 392.96
1922 0 90.0675 13.0236 1173 83.624 1359.73 390.396
1923 0 90.199 12.7829 1153 83.0902 1360.71 395.837
1924 0 94.109 12.7405 1199 82.2744 1360.14 394.807
1925 0 98.0925 13.0591 1281 82.0242 1360.74 393.784
1926 0 100.209 12.913 1294 82.5062 1360.57 393.122
1927 0 102.079 13.421 1370 82.4555 1360.02 392.098
1928 0 105.153 13.4661 1416 81.7027 1360.54 389.263
1929 0 111.086 14.2233 1580 79.6854 1359.54 387.062
1930 0 114.201 13.8702 1584 82.6376 1360.21 385.994
1931 0 117.101 14.005 1640 81.4445 1360.57 384.891
1932 0 122.085 14.58 1780 80.8725 1360.54 378.958
1933 0 127.143 13.1584 1673 81.0143 1360.01 378.29
1934 1 69.0585 11.7147 809 79.1384 1359.55 407.625
1935 0 69.0585 11.7581 812 155.256 1359.56 407.597
1936 0 74.1576 13.0398 967 82.8397 1360.8 406.707
1937 0 76.0659 12.1737 926 78.865 1359.08 409.441
1938 0 79.0445 12.9547 1024 77.9141 1358.87 407.602
1939 0 80.0582 12.3785 991 80.0878 1359.3 407.346
1940 0 81.0549 12.0165 974 81.8747 1358.7 406.347
1941 0 85.068 12.4606 1060 82.4896 1359.71 403.967
1942 0 89.0654 13.361 1190 80.3227 1359.43 404.428
1943 0 91.0906 12.5699 1145 82.7415 1359.98 401.892
1944 0 95.097 12.6292 1201 82.1032 1359.97 401.012
1945 0 96.0833 12.791 1229 82.7648 1360.08 398.631
1946 0 101.153 13.2571 1341 83.7964 1359.94 398.657
1947 0 103.08 12.9705 1337 81.5333 1359.94 395.634
1948 1 53.0519 10.4991 557 77.061 1359.16 422.499
1949 0 54.1116 12.1601 658 77.0091 1360.05 420.005
1950 0 58.097 12.548 729 77.3594 1359.95 417.187
1951 0 58.0578 12.6598 735 77.7088 1360.4 420.657
1952 0 59.0218 12.9783 766 78.3747 1359.78 421.379
1953 0 62.0262 12.7849 793 78.599 1361.01 421.402
1954 0 62.0765 13.1129 814 78.5835 1359.99 420.961
1955 0 63.0543 13.1315 828 79.7681 1361.83 420.772
1956 0 65.0133 12.4436 809 83.5229 1361.75 421.632
1957 0 66.057 12.9282 854 81.7869 1360.99 419.379
1958 0 68.0244 13.4657 916 81.3493 1360.48 418.284
1959 0 72.0629 13.5715 978 81.3088 1361.18 420.279
1960 0 73.0723 13.3703 977 82.7646 1360.97 418.99
1961 0 76.0993 14.3365 1091 82.5151 1361.25 416.599
1962 0 80.0972 14.1703 1135 83.7982 1360.58 416.015
1963 0 80.1353 12.6037 1010 78.6564 1360.82 416.565
1964 0 80.1006 12.4593 998 82.3236 1360.51 416.693
1965 0 85.0551 13.5559 1153 82.6618 1360.38 415.824
1966 0 88.0754 13.2046 1163 83.4729 1360.69 414.721
1967 0 89.0902 13.0991 1167 84.8346 1360.9 414.143
1968 0 93.0622 13.0235 1212 87.6823 1360.27 414.558
1969 0 97.0844 14.3174 1390 85.7986 1359.88 413.849
1970 0 100.143 14.5792 1460 85.2096 1360.43 412.675
1971 0 105.074 14.7991 1555 83.692 1359.93 411.032
1972 1 56.0726 12.894 723 86.5436 1360.54 432.332
1973 0 57.0885 13.1375 750 83.5227 1359.44 430.001
1974 0 61.1007 13.8133 844 82.1908 1359.83 430.07
1975 0 59.0844 12.9137 763 79.7942 1359.78 431.706
1976 0 60.0655 12.7194 764 80.4346 1359.18 431.062
1977 0 62.1179 13.2329 822 79.9197 1359.65 429.035
1978 0 65.0946 12.9965 846 80.1785 1360.16 427.669
1979 0 68.1037 13.2739 904 78.2522 1359.4 427.803
1980 0 69.0562 13.0184 899 80.1335 1359.87 424.645
1981 0 72.0928 13.4133 967 79.272 1358.97 423.808
1982 0 72.0928 13.3162 960 146.9 1359 423.804
1983 0 79.1306 13.0796 1035 79.0164 1359.32 424.04
1984 0 82.1951 13.614 1119 78.6023 1359.22 423.164
1985 0 85.0733 13.5413 1152 78.1944 1359.73 422.085
1986 0 88.0926 13.4972 1189 78.0538 1359.11 418.211
1987 0 90.0602 13.6242 1227 77.7131 1359.26 418.236
1988 1 47.1517 12.2371 577 76.13 1359.02 439.872
1989 0 48.056 12.2773 590 77.4576 1359.44 439.153
1990 0 49.0464 13.3955 657 74.7641 1359.66 439.808
1991 0 51.0682 14.0205 716 73.5587 1359.88 438.694
1992 0 53.038 13.8391 734 80.8243 1359.08 437.421
1993 0 54.0483 14.0615 760 80.25 1359.19 436.566
1994 0 54.0766 12.3713 669 77.7459 1359.51 437.326
1995 0 54.0312 13.1591 711 78.038 1359.84 436.81
1996 0 56.052 12.5955 706 79.7266 1359.2 437.531
1997 0 59.0703 13.0861 773 78.599 1359.21 436.177
1998 0 61.097 12.8157 783 78.8314 1358.86 435.055
1999 0 61.0703 13.1815 805 79.436 1359.49 433.702
2000 0 61.0703 13.1488 803 150.636 1359.49 433.702
2001 0 61.0683 13.1492 803 150.169 1359.49 433.702
2002 0 69.1618 14.054 972 78.3745 1359.91 429.398
2003 0 69.1373 13.9433 964 79.9813 1360.36 428.84
2004 0 72.2067 14.417 1041 79.1969 1360.25 426.488
2005 0 74.1563 13.7817 1022 80.7593 1359.82 425.752
2006 0 78.1744 14.3525 1122 80.0303 1360.33 424.37
2007 0 80.0725 13.8749 1111 82.3222 1360.08 421.997
2008 0 83.0956 13.659 1135 82.7119 1360.7 420.749
2009 0 85.1765 13.5953 1158 84.2798 1360.61 419.491
2010 0 89.1178 14.4864 1291 82.5554 1360.18 417.689
2011 0 91.19 14.234 1298 85.2704 1359.92 415.891
2012 0 91.19 14.2669 1301 154.839 1358.9 415.952
2013 0 90.1873 14.3812 1297 154.436 1357.89 416.062
2014 1 54.056 13.5045 730 86.3137 1359.95 433.393
2015 0 56.0468 13.8277 775 75.9768 1360 432.893
2016 0 55.025 13.5938 748 80.0468 1360.7 430.449
2017 0 59.0602 14.2058 839 79.9333 1359.93 431.458
2018 0 61.0589 13.8882 848 80.0979 1360.39 429.725
2019 0 60.1033 12.9111 776 84.2345 1360.08 431.009
2020 0 63.1113 13.6267 860 84.6314 1360.22 429.445
2021 0 66.0328 13.357 882 84.9762 1360.39 428.696
2022 0 67.0802 13.1186 880 85.983 1360.34 427.225
2023 0 69.0281 12.8498 887 86.8861 1360.08 426.813
2024 0 71.0612 13.8894 987 84.772 1359.82 427.998
2025 0 72.1807 12.8012 924 88.0206 1359.68 427.19
2026 0 77.1036 13.618 1050 86.0419 1359.98 424.222
2027 0 78.1119 13.4551 1051 86.5385 1359.4 424.498
2028 0 82.0862 12.9011 1059 86.6837 1359.28 423.451
2029 0 85.0882 12.7515 1085 86.0857 1359.45 422.688
2030 1 44.0874 12.5206 552 89.442 1359.14 440.998
2031 0 47.0659 12.7056 598 88.9331 1359.16 439.88
2032 0 47.0406 13.0738 615 87.3512 1359.3 439.912
2033 0 50.0981 12.9147 647 85.5487 1359.68 438.879
2034 0 49.0874 12.6305 620 86.3226 1359.78 440.615
2035 0 50.0777 12.5605 629 86.337 1359.69 439.296
2036 0 51.0518 12.5755 642 86.8287 1360.07 438.724
2037 0 53.1762 12.2423 651 86.278 1359.87 438.834
2038 0 56.0324 12.7248 713 83.5764 1359.36 438.028
2039 0 57.1318 13.3901 765 82.5438 1360.05 436.107
2040 0 59.1765 12.9443 766 83.7559 1359.73 435.41
2041 0 62.0952 13.1733 818 83.8973 1359.67 433.709
2042 0 63.1226 13.0223 822 85.4976 1359.36 432.944
2043 0 66.0866 13.331 881 84.9342 1359.63 430.607
2044 0 66.128 12.7783 845 86.3574 1359.93 429.876
2045 0 72.0901 12.8173 924 84.8442 1360.12 428.724
2046 0 74.1154 13.1552 975 84.7282 1359.59 425.671
2047 0 76.109 13.0339 992 84.2571 1359.15 423.381
2048 0 80.1613 13.8596 1111 81.4977 1359.81 421.445
2049 0 83.0889 14.2979 1188 79.0741 1359.72 420.802
2050 0 86.1885 13.6561 1177 79.0799 1360.06 419.03
2051 0 89.2739 14.1811 1266 78.2038 1359.5 418.009
2052 0 92.1557 13.4338 1238 79.6761 1359.39 416.957
2053 0 93.0505 13.2831 1236 80.9587 1359.52 413.566
2054 1 46.0254 12.1238 558 83.9391 1359.57 436.964
2055 0 47.1231 12.1384 572 84.1993 1359.33 436.493
2056 0 50.037 12.5707 629 82.4452 1360.03 436.657
2057 0 52.0487 12.9494 674 81.4139 1360.4 435.705
2058 0 53.0241 12.7678 677 83.4594 1360.5 434.679
2059 0 51.02 12.5833 642 157.763 1360.47 435.162
2060 0 57.0915 13.2244 755 83.4517 1359.93 433.527
2061 0 59.0301 12.7732 754 84.8966 1360.08 433.089
2062 0 60.1152 12.9086 776 84.9549 1359.75 432.854
2063 0 62.0659 12.8573 798 86.183 1360.26 430.941
2064 0 65.0757 12.8466 836 86.2763 1359.46 429.946
2065 0 67.0948 12.922 867 86.8627 1359.78 428.954
2066 0 71.0812 13.0696 929 86.9203 1359.51 429.158
2067 0 71.1046 13.4169 954 88.0325 1359.85 426.552
2068 0 74.0705 13.3116 986 87.0669 1359.71 426.829
2069 0 77.134 13.5997 1049 87.3699 1360.19 424.084
2070 0 79.0742 13.3798 1058 88.3781 1360.14 423.65
2071 0 83.0526 13.4373 1116 87.5654 1360.11 423.673
2072 0 90.0425 11.1725 1006 91.2087 1360 422.315
2073 0 87.061 13.8868 1209 87.7122 1360.18 415.893
2074 0 91.0728 13.6265 1241 87.9525 1359.5 414.195
2075 0 94.0528 14.1304 1329 87.2122 1359.67 412.303
2076 0 99.063 14.5362 1440 85.4174 1359.57 411.033
2077 0 102.161 14.6925 1501 85.7788 1359.93 409.694
2078 0 104.101 14.3899 1498 86.0848 1359.08 408.907
2079 0 108.173 13.9406 1508 87.1863 1358.9 406.317
2080 1 57.0252 10.1008 576 87.4635 1358.78 430.705
2081 0 61.0623 11.5128 703 85.7368 1359.32 429.351
2082 0 62.0918 11.0159 684 87.5307 1359.09 428.386
2083 0 64.1017 11.981 768 85.3411 1359.52 426.727
2084 0 65.0791 12.0008 781 86.347 1359.07 426.241
2085 0 68.0944 12.4974 851 85.282 1360.07 425.512
2086 0 69.093 12.1431 839 83.5542 1359.37 424.555
2087 0 72.0946 12.3865 893 84.7189 1359.69 423.146
2088 0 73.0859 11.5344 843 86.2977 1359.12 421.377
2089 0 74.2036 12.0075 891 86.2548 1359.18 420.08
2090 0 79.0978 12.7564 1009 84.8553 1359.06 419.629
2091 0 82.1453 12.5631 1032 89.8488 1360.2 417.899
2092 0 86.2228 12.8504 1108 96.667 1359.36 415.028
2093 0 88.1116 12.8587 1133 98.5569 1359.5 414.397
2094 0 91.0993 13.1176 1195 95.6301 1359.53 413.893
2095 0 93.1643 13.0737 1218 97.0476 1359.35 412.62
2096 0 97.153 13.2986 1292 98.2624 1359.22 410.83
2097 0 99.1189 13.6301 1351 97.6018 1358.95 409.535
2098 0 105.255 13.9851 1472 93.8037 1358.52 408.707
2099 0 107.104 14.2291 1524 93.729 1359.6 404.931
2100 0 110.125 14.4291 1589 93.9855 1359.28 402.804
2101 0 112.103 14.1744 1589 95.4493 1359.6 402.172
2102 0 119.097 14.0306 1671 96.5577 1359.58 399.466
2103 0 121.064 12.9519 1568 99.4923 1359.4 395.658
2104 0 127.145 13.7087 1743 98.2593 1359.83 393.176
2105 0 132.208 13.5695 1794 97.8021 1359.41 391.47
2106 0 138.146 14.2748 1972 97.4528 1359.27 390.062
2107 1 63.0675 10.9724 692 94.2312 1359.97 428.815
2108 0 64.1081 10.3263 662 83.9864 1359.76 426.089
2109 0 67.1404 11.394 765 83.0889 1359.29 424.925
2110 0 67.1198 11.2634 756 84.0053 1359.38 424.458
2111 0 72.0867 11.1532 804 83.9739 1359.32 423.56
2112 0 72.1029 11.331 817 83.8188 1359.82 423.554
2113 0 76.0831 11.3297 862 83.9606 1359.25 422.37
2114 0 77.0766 10.6907 824 88.6238 1360.18 421.601
2115 0 79.1019 11.0364 873 88.4937 1359.49 418.261
2116 0 80.1207 10.6964 857 89.6604 1359.99 420.735
2117 0 83.1353 10.9941 914 90.1291 1359.7 419.493
2118 0 85.096 11.1521 949 89.8124 1360.19 417.44
2119 0 89.1796 11.5161 1027 88.296 1360.6 416.32
2120 0 92.1214 11.1049 1023 90.4125 1360.58 414.57
2121 0 92.1696 9.8948 912 93.2829 1359.94 413.211
2122 0 98.1572 11.0945 1089 89.6226 1359.86 410.837
2123 0 103.112 11.4245 1178 88.2037 1360.2 406.718
2124 0 107.201 11.5484 1238 88.6357 1360.23 405.767
2125 1 55.0575 10.0259 552 84.6033 1360.19 429.364
2126 0 56.0886 10.3764 582 78.2629 1359.42 429.139
2127 0 59.0692 9.92056 586 77.9795 1359.71 427.531
2128 0 60.0888 10.0684 605 77.4893 1359.27 426.279
2129 0 62.0815 10.2124 634 77.0268 1360.73 426.254
2130 0 62.1097 10.0467 624 77.2837 1360.7 425.933
2131 0 64.0552 10.5222 674 77.2136 1361.24 423.436
2132 0 68.0338 10.3331 703 78.0057 1360.66 424.286
2133 0 69.0251 10.3441 714 79.1961 1361.14 421.671
2134 0 70.1524 10.7908 757 79.1612 1361.02 421.822
2135 0 71.0812 10.7342 763 80.4548 1361.48 422.366
2136 0 74.1696 10.4221 773 81.6326 1361.33 421.555
2137 0 79.2248 11.196 887 79.717 1361.08 418.778
2138 0 79.1942 11.4529 907 80.6384 1360.88 416.643
2139 0 83.1534 11.6772 971 79.4799 1361.11 415.25
2140 0 84.175 11.678 983 81.3204 1360.63 413.832
2141 0 85.1423 11.2987 962 82.8545 1361.2 414.596
2142 0 88.1476 11.5261 1016 83.3238 1361 412.301
2143 0 91.1521 11.4753 1046 83.3576 1361.25 409.808
2144 0 94.1395 11.5892 1091 83.901 1361.05 408.749
2145 0 98.1623 12.3062 1208 85.3783 1361.08 407.211
2146 0 100.156 11.5719 1159 86.9292 1359.92 405.464
2147 0 103.187 11.6003 1197 86.4361 1360.57 404.503
2148 0 107.133 11.4997 1232 85.7817 1360.11 404.244
2149 1 54.0202 10.3665 560 87.2768 1362.02 426.414
2150 0 54.0202 10.385 561 141.617 1363.02 426.371
2151 0 60.0169 11.1302 668 88.1677 1361.45 423.793
2152 0 63.1159 11.8829 750 85.6813 1360.87 423.12
2153 0 62.0614 10.8441 673 81.9851 1361.2 424.199
2154 0 64.0564 11.4118 731 82.1642 1360.8 424.454
2155 0 67.0744 11.0027 738 84.4295 1361.39 421.885
2156 0 69.0631 11.294 780 84.5987 1360.84 421.286
2157 0 71.0803 11.5503 821 85.2509 1360.77 419.028
2158 0 73.1231 11.6653 853 88.7808 1361.02 417.886
2159 0 75.1466 11.5641 869 90.2198 1360.83 415.392
2160 0 77.1312 12.0574 930 89.6075 1360.73 414.328
2161 0 80.1436 11.704 938 92.1748 1361.64 415.724
2162 0 82.178 12.7041 1044 90.4023 1361.21 412.645
2163 0 85.2765 12.8992 1100 90.2473 1361.11 409.964
2164 0 86.1792 11.6849 1007 94.3287 1361.53 409.294
2165 0 90.1407 12.07 1088 94.7031 1361.48 407.773
2166 0 90.1563 12.0014 1082 95.6534 1362.6 404.272
2167 0 95.1318 12.0149 1143 95.1085 1362.03 403.183
2168 0 98.1606 13.1621 1292 91.8553 1361.57 402.979
2169 0 101.163 13.1174 1327 91.3271 1361.9 403.24
2170 0 105.151 13.628 1433 89.3217 1361.96 401.659
2171 0 106.216 12.9358 1374 91.4374 1362.03 401.431
2172 1 56.0543 10.6147 595 81.6353 1362.31 428.232
2173 0 58.0834 10.3816 603 83.2852 1361.37 426.673
2174 0 60.0262 10.9785 659 84.7891 1362.13 423.096
2175 0 63.0521 11.435 721 87.6269 1362.3 423.936
2176 0 64.0323 11.8222 757 86.8177 1362.83 423.53
2177 0 65.0366 11.7934 767 88.1447 1362.41 422.574
2178 0 67.0406 11.7541 788 88.3223 1362.59 419.513
2179 0 68.0406 11.6107 790 89.1127 1362.2 420.4
2180 0 72.0722 12.1822 878 87.3337 1362.41 419.125
2181 0 73.0427 11.6781 853 88.3458 1361.95 417.884
2182 0 78.0381 12.8399 1002 85.7226 1362.52 418.185
2183 0 77.1006 12.2048 941 89.4485 1362.49 415.269
2184 0 82.1341 12.1265 996 88.9799 1362.94 415.925
2185 0 85.2118 12.9794 1106 87.8571 1362.59 414.31
2186 0 86.2049 12.1107 1044 91.7395 1362.54 413.313
2187 0 91.2132 13.145 1199 88.945 1361.33 410.943
2188 0 92.165 12.8791 1187 89.9655 1362.1 410.703
2189 0 97.2982 13.4638 1310 88.1137 1361.69 409.633
2190 0 101.283 13.6054 1378 87.754 1362.33 407.902
2191 1 53.1553 11.1748 594 83.3923 1362.56 430.928
2192 0 55.1834 12.0688 666 86.0405 1362.52 430.344
2193 0 56.1402 12.7538 716 85.3617 1362.33 429.489
2194 0 58.1789 13.1319 764 83.2448 1362.45 429.857
2195 0 57.1052 12.8009 731 85.8591 1362.57 430.854
2196 0 60.0908 12.3313 741 86.3846 1362.83 431.099
2197 0 64.1236 12.2732 787 84.8094 1363.89 435.651
2198 0 65.1511 12.0182 783 87.871 1363.44 434.976
2199 0 67.1277 12.3496 829 89.3088 1363.07 432.106
2200 0 68.1363 12.6364 861 89.0337 1362.91 430.443
2201 0 72.0903 13.4276 968 87.2448 1363.11 428.716
2202 0 73.1006 13.0915 957 89.3302 1363.32 427.247
2203 0 77.0826 13.0639 1007 88.9801 1362.95 428.099
2204 0 79.1012 12.7937 1012 91.8498 1363.02 426.39
2205 0 81.1229 13.2392 1074 91.5764 1362.63 424.827
2206 0 83.1222 12.7523 1060 94.9189 1362.27 422.916
2207 0 86.1021 12.9033 1111 96.1053 1362.76 421.279
2208 0 92.1353 13.3716 1232 92.9002 1362.15 421.278
2209 0 93.1902 13.0808 1219 95.7137 1362.92 417.174
2210 1 52.0342 11.7231 610 97.6016 1363.08 438.272
2211 0 53.0173 12.1093 642 95.8738 1362.6 437.235
2212 0 55.064 12.6398 696 94.8736 1361.21 436.787
2213 0 56.0875 13.158 738 92.2033 1360.61 434.863
2214 0 56.1422 12.3971 696 95.9641 1361.96 436.345
2215 0 57.0489 12.5156 714 96.1737 1362.33 434.952
2216 0 58.0761 12.5353 728 96.0742 1361.84 434.402
2217 0 60.0758 12.9337 777 94.4196 1361.46 434.089
2218 0 63.0827 12.5867 794 93.0479 1361.82 431.623
2219 0 65.0795 12.7229 828 89.1498 1361.64 430.22
2220 0 66.0764 13.0455 862 89.7633 1362.02 429.249
2221 0 67.06 13.048 875 89.9234 1361.79 428.675
2222 0 71.0946 12.6451 899 89.9232 1361.43 426.868
2223 0 72.0711 12.446 897 91.9465 1362.03 427.142
2224 0 75.089 12.9846 975 87.7415 1362 425.271
2225 0 77.1118 12.7737 985 87.4447 1361.69 423.737
2226 0 79.1001 12.9583 1025 85.122 1361.39 423.076
2227 0 83.1524 13.1205 1091 84.3327 1360.98 421.57
2228 0 85.066 12.8959 1097 86.3273 1360.88 419.217
2229 0 87.0876 12.5506 1093 86.0769 1361.44 419.264
2230 0 91.0791 13.2742 1209 84.2845 1360.91 417.542
2231 0 91.079 13.2522 1207 146.441 1360.92 417.475
2232 0 94.1536 12.299 1158 88.0449 1360.7 412.104
2233 0 96.205 12.6605 1218 85.2865 1360.55 409.291
2234 1 52.0869 10.7129 558 83.4642 1360.22 432.145
2235 0 54.071 11.0226 596 81.3305 1360.93 438.805
2236 0 55.0706 10.9677 604 84.5778 1360 436.735
2237 0 58.0831 11.363 660 80.4167 1361.17 431.959
2238 0 61.0574 11.4974 702 82.5413 1360.52 431.987
2239 0 60.0469 11.3411 681 83.0852 1361.32 431.219
2240 0 67.0687 12.4499 835 78.2024 1361.35 432.356
2241 0 71.154 10.1751 724 82.4599 1361.3 432.539
2242 0 68.0931 12.292 837 80.5866 1360.79 429.059
2243 0 70.0835 12.1855 854 83.1651 1361.34 428.088
2244 0 73.0386 12.4865 912 82.2851 1361.17 427.135
2245 0 77.0565 12.6531 975 82.9385 1361.73 425.105
2246 0 79.0975 12.807 1013 83.4857 1361.28 424.234
2247 0 84.066 13.1325 1104 82.3723 1360.7 423.883
2248 0 84.041 12.1131 1018 87.1552 1360.72 420.864
2249 0 86.0583 12.631 1087 87.9825 1360.76 420.733
2250 0 90.0351 13.0171 1172 88.0247 1361.24 418.218
2251 0 92.0456 13.1783 1213 89.0272 1360.99 417.217
2252 0 93.0786 12.8494 1196 91.1371 1360.43 418.697
2253 0 97.0758 13.1135 1273 90.828 1359.74 412.442
2254 0 100.076 12.7304 1274 91.8611 1359.68 413.247
2255 0 103.068 13.0691 1347 90.5375 1360.79 411.183
2256 0 108.124 13.7527 1487 88.0101 1360.78 407.648
2257 0 110.122 13.4396 1480 87.5385 1360.53 408.239
2258 0 114.135 13.6593 1559 85.7511 1360.53 406.916
2259 0 118.13 13.9169 1644 83.649 1360.68 403.591
2260 0 123.132 14.2205 1751 82.3284 1360.76 400.441
2261 0 127.182 13.9171 1770 82.4051 1360.92 398.655
2262 1 69.1826 12.9657 897 83.2809 1361.02 425.756
2263 0 73.1449 13.3434 976 85.7674 1360.94 425.306
2264 0 76.1679 13.8378 1054 83.7732 1361.42 425.451
2265 0 74.143 13.0828 970 85.001 1360.77 425.918
2266 0 79.1211 13.2076 1045 84.8852 1361.6 424.418
2267 0 82.2127 14.2922 1175 83.1438 1360.9 424.236
2268 0 83.1248 13.7023 1139 87.1826 1360.69 420.362
2269 0 87.2238 14.0902 1229 86.3718 1360.81 420.004
2270 0 88.1409 13.9096 1226 88.137 1361.36 419.316
2271 0 94.4192 14.3615 1356 90.3119 1361.43 416.332
2272 0 97.2486 13.9334 1355 92.9771 1361.93 414.908
2273 0 98.1452 13.857 1360 92.2037 1360.29 413.634
2274 0 104.212 14.5761 1519 91.3443 1360.67 412.316
2275 0 106.234 14.2233 1511 92.2389 1359.81 410.471
2276 0 107.196 13.5266 1450 89.4386 1360.26 409.544
2277 0 110.173 14.1323 1557 92.1207 1360.5 407.809
2278 0 115.244 14.8988 1717 90.4665 1360.01 405.653
2279 0 119.26 13.8185 1648 91.2822 1360.04 401.984
2280 0 124.143 14.2497 1769 88.0305 1360.33 398.736
2281 1 67.1369 11.2457 755 82.7046 1360.62 427.903
2282 0 71.0987 12.785 909 81.8174 1360.95 430.3
2283 0 73.1084 13.0081 951 83.3375 1361.9 427.964
2284 0 74.2176 13.4335 997 92.2487 1361.44 425.757
2285 0 78.1389 13.7448 1074 89.3808 1361.26 425.05
2286 0 80.205 12.7673 1024 85.873 1361.13 424.957
2287 0 82.2658 13.6023 1119 81.7158 1360.92 423.725
2288 0 85.2714 13.3339 1137 84.1566 1360.53 421.5
2289 0 87.2351 13.2172 1153 84.2238 1360.7 420.422
2290 0 90.3383 13.1838 1191 84.1746 1360.51 418.666
2291 0 93.3318 13.5109 1261 84.5884 1360.42 418.046
2292 0 94.2479 13.2523 1249 86.3635 1360.77 415.884
2293 0 99.2382 13.7951 1369 84.6567 1359.66 415.113
2294 0 99.1742 13.1083 1300 85.3792 1360.39 414.016
2295 0 105.273 13.5932 1431 82.8106 1360.23 413.167
2296 0 108.215 14.0184 1517 83.0152 1360.41 411.158
2297 0 110.223 13.2458 1460 88.2459 1360.49 409.742
2298 0 114.099 13.6811 1561 87.7726 1361 406.017
2299 0 118.177 14.2075 1679 86.3752 1360.43 406.806
2300 1 63.1461 11.3863 719 85.1488 1360.36 433.508
2301 0 66.1907 11.8143 782 82.2455 1360.96 432.161
2302 0 68.143 13.2369 902 78.5721 1360.36 429.957
2303 0 70.1377 13.1883 925 77.9351 1360.83 427.147
2304 0 74.1247 13.194 978 76.3456 1361.22 427.863
2305 0 74.2132 13.9867 1038 74.7091 1360.57 425.948
2306 0 78.203 12.9535 1013 73.3544 1361.03 424.752
2307 0 79.1527 12.8233 1015 73.8384 1360.04 421.986
2308 0 82.1935 12.7504 1048 74.604 1360.01 423.084
2309 0 84.2112 12.9318 1089 75.1047 1360.29 421.992
2310 0 88.1084 13.3018 1172 74.3302 1360.54 421.695
2311 0 88.2035 12.0857 1066 74.4512 1360.71 421.479
2312 0 93.2048 12.3277 1149 73.5387 1360.78 418.82
2313 0 96.1247 12.0989 1163 74.7128 1360.77 417.796
2314 0 99.1169 11.885 1178 75.1825 1360.36 417.345
2315 0 101.203 12.4206 1257 77.0589 1359.88 411.259
2316 0 104.162 12.1254 1263 77.6223 1360.9 410.737
2317 0 111.133 12.7775 1420 76.5289 1360.5 410.538
2318 0 114.119 13.2932 1517 77.9934 1360.41 407.239
2319 1 62.04 11.2347 697 74.8178 1359.88 432.693
2320 0 62.1069 11.9954 745 74.9839 1359.99 432.597
2321 0 65.1521 13.1385 856 74.9042 1359.99 435.611
2322 0 68.1567 12.1338 827 84.9021 1360.51 432.192
2323 0 70.0953 12.9253 906 77.5684 1360.16 429.359
2324 0 71.1478 13.2119 940 78.0553 1360.26 425.769
2325 0 74.0799 12.23 906 81.2384 1359.73 424.425
2326 0 76.0894 12.7744 972 79.7695 1359.97 422.645
2327 0 78.0897 12.857 1004 79.3825 1360.7 422.016
2328 0 80.0884 13.0481 1045 81.4153 1360.13 417.563
2329 0 85.0724 13.6237 1159 79.5876 1360.78 416.073
2330 0 86.1232 13.0395 1123 82.7382 1360.49 415.115
2331 0 89.082 12.7186 1133 80.9356 1360.85 414.664
2332 0 92.1052 12.8223 1181 79.6799 1360.88 415.814
2333 0 97.1772 13.7687 1338 77.7915 1360.91 413.392
2334 0 99.1327 13.4668 1335 79.2315 1360.25 411.236
2335 0 103.166 14.5009 1496 77.2928 1360.62 410.094
2336 0 105.106 13.8336 1454 79.3232 1360.92 408.255
2337 0 109.092 13.7682 1502 82.7956 1361.06 406.584
2338 0 111.182 13.8692 1542 82.5538 1362.02 404.442
2339 0 115.141 14.3042 1647 80.8682 1361.67 403.434
2340 0 118.16 13.6933 1618 83.0785 1361.37 399.611
2341 0 123.215 14.2352 1754 81.7782 1361.73 399.39
2342 1 69.1066 12.6037 871 82.4145 1363.52 427.425
2343 0 71.0307 13.6279 968 81.7293 1363.61 424.736
2344 0 73.0422 13.102 957 83.7513 1361.15 422.708
2345 0 74.0799 12.6485 937 84.3725 1361.51 423.013
2346 0 74.0776 12.6084 934 167.536 1361.52 423.113
2347 0 75.0408 12.6465 949 84.3867 1362.82 419.433
2348 0 79.0875 13.0109 1029 83.5335 1361.75 418.435
2349 0 80.1398 12.6529 1014 74.0897 1361.06 419.208
2350 0 85.0646 12.4846 1062 77.6431 1360.32 417.472
2351 0 87.0934 12.5497 1093 77.2049 1360.09 418.058
2352 0 90.183 12.264 1106 76.6899 1359.86 415.705
2353 0 93.1245 13.2511 1234 76.4579 1360.41 414.386
2354 0 96.1317 12.3685 1189 81.1278 1359.6 412.153
2355 0 97.0895 12.1125 1176 81.3699 1359.33 417.031
2356 0 101.131 12.024 1216 82.361 1359.84 420.931
2357 0 104.111 11.7951 1228 82.2932 1360.15 420.818
2358 0 110.141 12.5294 1380 79.2449 1359.68 419.007
2359 0 112.186 12.1584 1364 81.1686 1359.5 414.106
2360 1 60.1416 11.6558 701 80.9301 1359.67 437.745
2361 0 62.15 11.7941 733 83.0614 1359.46 435.557
2362 0 65.124 12.9599 844 81.7192 1359.38 434.534
2363 0 66.1176 12.1148 801 76.5069 1359.09 434.213
2364 0 66.0307 11.9641 790 78.0038 1358.29 433.897
2365 0 69.0441 12.1372 838 78.5477 1358.39 432.545
2366 0 70.0844 12.3137 863 78.7034 1358.22 431.36
2367 0 71.0512 11.8225 840 80.7976 1358.47 431.026
2368 0 74.0872 12.7552 945 81.0243 1357.02 430.108
2369 0 78.0672 12.4252 970 80.9113 1359.16 434.432
2370 0 78.0766 12.4493 972 82.8138 1358.89 431.773
2371 0 82.1975 13.1634 1082 82.4372 1358.45 429.362
2372 0 85.1119 14.0403 1195 80.9205 1358.67 427.196
2373 0 86.0894 13.7648 1185 82.6397 1358.68 426.227
2374 0 88.0751 13.5793 1196 84.9607 1359.09 425.761
2375 0 92.0705 13.935 1283 85.8769 1358.67 424.511
2376 0 96.0433 14.1707 1361 86.7502 1358.24 421.537
2377 0 99.1428 14.3732 1425 87.3684 1358 420.296
2378 0 102.165 14.5842 1490 88.8866 1358.51 419.331
2379 0 102.13 14.3347 1464 92.2247 1358.07 418.533
2380 0 104.221 13.222 1378 96.307 1358.55 417.012
2381 0 110.193 13.7305 1513 95.1064 1357.8 414.303
2382 0 112.24 13.4622 1511 96.4798 1358.4 411.3
2383 0 116.256 13.7025 1593 95.7068 1358.22 410.489
2384 0 123.18 14.2556 1756 94.3713 1358.87 407.063
2385 1 70.1771 11.7417 824 94.432 1358.43 435.109
2386 0 70.0751 12.1726 853 96.2696 1358.53 432.517
2387 0 72.0981 12.7188 917 96.2214 1359.54 430.358
2388 0 74.1182 13.411 994 95.7555 1359.87 427.327
2389 0 77.039 13.8371 1066 94.6426 1359.53 427.569
2390 0 80.1516 13.724 1100 94.9609 1359.4 427.788
2391 0 82.086 13.2666 1089 94.9991 1359.41 425.801
2392 0 85.0773 13.9638 1188 93.4217 1359.86 424.125
2393 0 86.0747 13.9065 1197 93.8688 1359.8 422.074
2394 0 88.1122 14.1978 1251 94.0624 1359.13 421.588
2395 0 91.1056 14.1484 1289 94.2475 1358.87 420.378
2396 0 94.1517 14.3704 1353 93.7058 1358.96 419.095
2397 0 99.1238 14.2751 1415 97.1357 1359.01 418.608
2398 0 97.1699 13.5536 1317 97.8337 1359.15 415.005
2399 0 102.175 14.2892 1460 94.9363 1358.93 413.138
2400 0 104.207 14.0874 1468 95.3338 1358.73 411.721
2401 0 109.28 14.0191 1532 94.0868 1359.8 409.957
2402 0 112.247 14.1295 1586 93.7226 1359.4 408.629
2403 0 113.24 14.4825 1640 156.342 1358.41 407.259
2404 1 60.229 11.7551 708 96.2684 1359.13 434.709
2405 0 62.1886 12.4139 772 94.4067 1359.63 433.188
2406 0 64.1099 13.2429 849 91.5206 1360.31 432.806
2407 0 67.1717 13.3836 899 90.4516 1359.75 430.261
2408 0 69.0872 12.3467 853 91.6096 1360.59 430.619
2409 0 69.0982 12.6342 873 91.3299 1359.63 429.69
2410 0 72.1786 12.7323 919 91.7987 1360.47 429.229
2411 0 74.1999 13.0054 965 90.6611 1360.98 427.395
2412 0 78.1019 13.3159 1040 90.974 1360.98 423.662
2413 0 80.1762 13.1336 1053 91.8613 1359.85 422.852
2414 0 82.1685 13.1802 1083 92.5466 1359.71 420.803
2415 0 84.1547 13.0712 1100 93.43 1360.6 421.286
2416 0 87.2233 12.6113 1100 93.5127 1361.1 422.395
2417 0 90.1893 12.7842 1153 92.9384 1360.79 419.003
2418 0 92.1911 12.8429 1184 91.8193 1360.87 418.668
2419 0 95.2483 13.1446 1252 89.8179 1360.83 416.386
2420 0 99.2549 12.6341 1254 89.874 1361.48 415.915
2421 0 102.113 13.0933 1337 89.644 1360.93 414.506
2422 1 56.1818 11.3738 639 90.8717 1361.11 436.786
2423 0 57.2007 11.9754 685 88.2774 1360.77 435.553
2424 0 57.1811 12.4342 711 88.4177 1360.88 435.644
2425 0 60.1561 12.5174 753 87.9973 1360.94 437.36
2426 0 63.1924 12.4066 784 90.0242 1361.12 436.756
2427 0 62.2725 12.076 752 83.8391 1361.29 434.71
2428 0 65.2101 12.0687 787 84.8361 1361.28 432.729
2429 0 67.1928 12.5906 846 84.8605 1361.04 431.652
2430 0 67.1387 12.8242 861 87.5122 1360.76 430.58
2431 0 70.148 12.8585 902 88.0721 1361.13 429.651
2432 0 70.1791 12.4254 872 91.7901 1360.7 427.617
2433 0 73.1104 13.295 972 89.5072 1361.02 426.628
2434 0 76.1649 12.7224 969 93.9453 1360.99 425.445
2435 0 78.1537 13.1408 1027 94.2756 1360.93 423.644
2436 0 79.0848 13.0493 1032 97.8343 1360.13 423.047
2437 0 84.1416 13.4773 1134 97.0362 1360.61 421.188
2438 0 85.1534 12.73 1084 99.69 1360.45 420.798
2439 0 88.1437 13.5347 1193 97.4091 1361.13 419.174
2440 0 91.1425 13.1113 1195 97.7414 1360.77 418.879
2441 0 93.1431 12.4862 1163 98.1969 1360.93 418.45
2442 0 98.156 13.4989 1325 95.6196 1360.83 415.979
2443 1 53.0939 11.5644 614 86.7899 1360.93 438.651
2444 0 55.1667 11.855 654 84.3991 1361.97 437.992
2445 0 58.0631 11.3669 660 86.65 1361.25 436.958
2446 0 59.0815 13.0159 769 87.8479 1361.72 436.052
2447 0 60.0713 12.069 725 86.3145 1360.81 434.932
2448 0 61.0619 12.6593 773 86.5369 1360.89 434.118
2449 0 64.0453 12.944 829 86.7262 1361.04 433.281
2450 0 66.0821 13.1503 869 91.3487 1361.94 431.896
2451 0 66.0152 13.4969 891 90.6498 1361.04 430.891
2452 0 69.0808 12.8111 885 90.7514 1360.87 430.446
2453 0 71.0313 12.8535 913 93.7623 1360.36 429.231
2454 0 73.0506 13.3469 975 92.7877 1360.86 427.155
2455 0 76.1072 13.4547 1024 91.3096 1361.09 426.668
2456 0 78.0546 13.593 1061 90.7436 1361.54 426.525
2457 0 81.0465 13.4614 1091 91.3245 1360.27 424.312
2458 0 83.1034 13.417 1115 92.4448 1360.42 422.253
2459 0 87.0381 15.0164 1307 88.4797 1360.66 420.282
2460 0 87.1012 14.2708 1243 93.5857 1360.56 419.079
2461 0 89.0815 13.2575 1181 96.5089 1360.66 419.735
2462 0 91.0692 13.4184 1222 98.0614 1360.31 417.526
2463 0 94.1001 13.7194 1291 97.3478 1360.65 416.194
2464 0 97.0617 13.785 1338 96.3333 1360.86 415.587
2465 0 101.094 13.7495 1390 95.6878 1360.55 413.676
2466 0 101.137 13.5163 1367 96.7213 1359.93 412.504
2467 0 107.11 14.0697 1507 94.3743 1360.36 410.731
2468 1 52.036 10.3006 536 87.1791 1360.55 437.877
2469 0 55.129 10.9198 602 84.9302 1361.13 437.274
2470 0 56.0736 11.3601 637 84.3987 1360.48 436.268
2471 0 60.0786 13.1661 791 86.7155 1360.96 435.056
2472 0 61.0583 12.2506 748 85.8329 1361.32 433.701
2473 0 63.098 13.1383 829 88.4198 1361.08 433.373
2474 0 65.0433 13.0375 848 89.9316 1360.34 431.271
2475 0 66.0587 12.6554 836 91.4593 1360.56 430.517
2476 0 70.0876 13.0551 915 90.2437 1360.09 429.313
2477 0 71.0822 12.985 923 92.5547 1360.76 428.156
2478 0 74.0815 13.4312 995 91.7598 1360.45 427.701
2479 0 75.1033 13.4215 1008 93.3413 1360.23 426.202
2480 0 79.1079 13.5764 1074 92.7896 1360.52 425.857
2481 0 80.0915 13.8841 1112 93.8094 1360.04 423.431
2482 0 86.041 12.6684 1090 96.9734 1360.84 423.567
2483 0 86.1049 13.8087 1189 95.5433 1360.58 421.554
2484 0 87.0882 14.1236 1230 93.4919 1360.47 422.316
2485 0 86.1745 13.7976 1189 99.1724 1360.39 421.469
2486 0 92.0864 14.2149 1309 98.1612 1360.26 418.989
2487 0 95.1129 14.4986 1379 98.6824 1360.37 415.434
2488 0 97.0571 14.3215 1390 98.2971 1360.1 414.415
2489 0 101.043 14.4888 1464 97.2787 1359.32 411.825
2490 0 104.12 14.637 1524 96.9685 1360.19 410.817
2491 0 103.115 14.3335 1478 99.3024 1360.03 410.15
2492 0 110.061 14.5829 1605 97.5121 1360.85 407.75
2493 0 113.163 14.5454 1646 99.2649 1359.77 408.005
2494 0 118.18 14.9349 1765 99.6062 1360.23 406.36
2495 0 121.173 14.2441 1726 98.7885 1359.73 402.525
2496 0 127.181 14.6877 1868 96.3699 1360.27 400.973
2497 1 68.0423 11.8015 803 93.9826 1359.17 430.965
2498 0 69.0576 12.5547 867 92.7866 1360.49 429.773
2499 0 72.0955 12.7886 922 94.6518 1361.1 431.075
2500 0 75.1428 13.2415 995 94.4814 1361 429.875
2501 0 76.1616 13.2875 1012 95.0435 1361.05 428.802
2502 0 80.1908 13.8545 1111 92.6382 1361.42 428.532
2503 0 82.1252 13.7595 1130 92.615 1361.3 426.968
2504 0 82.168 13.3142 1094 94.1728 1361.62 425.146
2505 0 85.1845 13.371 1139 93.3398 1361.18 424.009
2506 0 90.1331 13.4135 1209 93.3284 1361.1 422.297
2507 0 92.1481 13.7388 1266 94.8981 1360.25 421.667
2508 0 96.1814 14.3583 1381 96.5923 1359.92 419.65
2509 0 98.1535 14.7626 1449 96.4251 1360.14 417.622
2510 0 103.188 13.9455 1439 96.2432 1360 416.559
2511 1 54.1126 12.3077 666 90.7492 1361 441.477
2512 0 55.1355 12.1519 670 92.1493 1360.28 440.552
2513 0 57.1026 12.7665 729 90.1125 1360.4 438.58
2514 0 60.1128 13.7242 825 89.1927 1360.86 436.949
2515 0 60.0954 13.4286 807 91.1326 1360.49 438.212
2516 0 61.1057 12.8793 787 93.1474 1360.1 437.351
2517 0 62.1174 13.2169 821 94.7954 1360.45 434.47
2518 0 66.1182 13.8842 918 94.1939 1360.29 432.01
2519 0 68.1568 13.2929 906 95.8565 1360.16 431.258
2520 0 70.1911 13.8052 969 95.1465 1360.63 430.729
2521 0 72.1152 13.2982 959 97.6882 1359.6 428.135
2522 0 73.1053 14.0619 1028 98.5944 1359.18 426.605
2523 0 75.1569 14.1304 1062 98.9802 1360.18 425.01
2524 0 79.1193 14.1306 1118 97.8444 1359.69 424.979
2525 0 81.0943 14.8223 1202 96.1323 1359.73 423.264
2526 0 83.1024 14.1512 1176 99.6607 1358.99 421.215
2527 0 85.0825 13.8219 1176 99.9575 1359.26 422.499
2528 0 88.0868 13.9181 1226 99.0946 1360.15 420.626
2529 0 90.1348 14.1233 1273 98.3661 1360.48 419.159
2530 0 92.1057 14.1902 1307 99.0918 1360.1 416.959
2531 0 95.0962 13.7545 1308 100.913 1360.07 415.15
2532 1 50.091 11.9582 599 98.8915 1359.53 438.209
2533 0 52.0431 12.8163 667 98.5487 1359.93 436.813
2534 0 54.0597 12.8192 693 98.0029 1359.51 436.491
2535 0 56.0284 13.6359 764 95.5209 1360.1 435.169
2536 0 55.1005 13.0489 719 97.2364 1359.29 434.38
2537 0 57.0389 13.5171 771 95.8431 1360.07 434.857
2538 0 59.0423 13.3633 789 97.3739 1360.36 432.593
2539 0 61.0561 13.4303 820 97.5744 1360.79 431.994
2540 0 61.0423 13.0893 799 99.2854 1359.93 431.502
2541 0 65.0777 13.553 882 96.924 1360.13 429.707
2542 0 66.0989 13.2377 875 97.9166 1359.62 428.317
2543 0 69.0462 13.281 917 97.1243 1360.49 428.745
2544 0 69.0552 13.482 931 99.2299 1360.22 427.032
2545 0 73.0536 13.1274 959 99.001 1359.87 426.245
2546 0 75.1073 13.1013 984 100.06 1360.48 425.591
2547 0 79.0961 13.4899 1067 98.3749 1360.06 424.076
2548 0 82.0423 14.139 1160 96.6647 1359.66 421.575
2549 0 83.0758 13.5298 1124 99.9235 1360 420.629
2550 0 86.0867 13.2657 1142 98.1629 1358.66 418.672
2551 0 88.1105 12.8702 1134 99.3333 1359.44 417.532
2552 0 92.0854 13.5635 1249 97.9552 1358.53 415.086
2553 1 48.0148 12.1004 581 98.3907 1360.39 435.761
2554 0 48.0148 11.9963 576 162.293 1362.4 435.83
2555 0 54.0758 13.0742 707 95.6139 1360.65 435.273
2556 0 53.0622 12.8152 680 94.5912 1361.8 434.176
2557 0 54.0532 12.5987 681 94.2349 1361.41 433.64
2558 0 55.0279 12.0121 661 97.1286 1360.88 433.365
2559 0 59.0455 12.8545 759 92.6996 1361.15 432.173
2560 0 59.041 12.6353 746 94.2493 1360.75 430.928
2561 0 61.0622 12.7411 778 94.0694 1360.56 429.487
2562 0 63.0616 13.2886 838 93.5919 1361.09 428.475
2563 0 65.0445 13.2986 865 94.5249 1360.79 426.692
2564 0 67.0335 13.5156 906 95.5132 1360.27 425.519
2565 0 69.0953 13.3584 923 96.1181 1360.6 424.109
2566 0 71.0599 13.6364 969 97.7575 1360.21 423.356
2567 0 72.0919 14.0238 1011 98.6083 1360.3 421.496
2568 0 74.1044 13.3325 988 100.59 1359.82 421.763
2569 0 79.0973 14.1851 1122 99.3066 1360.14 420.605
2570 0 80.1553 13.923 1116 104.693 1360.21 418.749
2571 0 82.2204 13.8773 1141 105.475 1360.09 419.835
2572 0 84.0909 13.5687 1141 105.493 1359.76 417.766
2573 0 86.0678 13.5823 1169 106.908 1359.62 415.864
2574 0 87.1568 14.1469 1233 105.207 1360.29 415.897
2575 0 89.1238 14.205 1266 105.97 1360.09 415.885
2576 0 94.1071 14.1222 1329 105.656 1360.15 414.416
2577 0 96.0515 13.8884 1334 106.356 1359.85 412.217
2578 0 96.1502 13.4477 1293 109.019 1360.11 409.073
2579 0 100.058 13.7521 1376 107.346 1359.46 408.049
2580 0 103.038 13.9076 1433 106.075 1359.48 406.135
2581 0 105.107 13.7098 1441 106.931 1360.57 405.406
2582 0 108.094 13.5993 1470 106.431 1360.09 404.335
2583 0 112.073 13.5626 1520 106.724 1361.12 401.584
2584 0 116.121 13.5893 1578 105.37 1360.6 401.632
2585 1 59.0705 12.4936 738 100.882 1361.17 430.809
2586 0 59.1037 12.6388 747 110.586 1360.61 428.617
2587 0 60.0735 12.6179 758 107.774 1361.12 426.749
2588 0 63.1846 13.1994 834 104.335 1360.64 426.664
2589 0 66.098 13.0261 861 108.215 1360.5 424.678
2590 0 68.1857 13.4486 917 105.19 1359.9 424.918
2591 0 70.292 13.1736 926 106.219 1360.98 422.436
2592 0 72.2347 13.4838 974 104.169 1360.12 422.975
2593 0 76.2322 13.2884 1013 102.24 1360.9 421.489
2594 0 76.2293 13.4594 1026 103.095 1361.72 421.451
2595 0 80.2476 13.9693 1121 101.093 1361.68 420.767
2596 0 83.132 13.1959 1097 101.829 1360.83 421.108
2597 0 83.2612 13.1274 1093 104.15 1360.81 419.064
2598 0 84.1687 13.3066 1120 104.088 1360.83 418.943
2599 0 90.3314 13.6055 1229 100.914 1360.58 418.027
2600 0 92.2533 13.5605 1251 102.353 1360.57 417.52
2601 0 94.2627 14.0034 1320 100.268 1360.22 416.535
2602 0 100.193 14.4422 1447 98.9751 1360.52 412.641
2603 0 104.178 14.4273 1503 97.5476 1360.27 411.633
2604 1 55.0526 12.6788 698 92.8295 1360.99 435.265
2605 0 54.0554 12.6352 683 94.7731 1360.64 433.937
2606 0 59.0349 13.7715 813 91.1144 1360.85 432.755
2607 0 60.0726 12.7013 763 93.118 1361.33 432.438
2608 0 60.0646 13.2524 796 93.4523 1361.36 430.587
2609 0 64.0415 13.6318 873 92.0435 1361.01 430.452
2610 0 64.0612 12.9408 829 94.2232 1361.07 429.058
2611 0 67.0913 13.9511 936 92.3184 1360.36 427.311
2612 0 70.0635 13.7019 960 92.2552 1361.02 426.37
2613 0 74.1752 14.3444 1064 91.469 1360.5 424.51
2614 0 76.0544 14.1872 1079 93.8499 1360.89 423.209
2615 0 78.0785 13.6657 1067 94.7676 1360.8 422.007
2616 0 80.0254 13.2833 1063 94.9407 1361.07 421.208
2617 0 83.2094 13.7124 1141 93.8861 1360.3 420.438
2618 0 85.1945 13.3342 1136 95.0977 1361 419.614
2619 0 88.1444 13.5006 1190 94.8655 1361.36 417.631
2620 1 46.0598 11.1811 515 93.7087 1361.68 440.363
2621 0 46.0672 11.7003 539 93.4954 1361.89 438.757
2622 0 50.093 12.5367 628 91.5796 1362.33 437.771
2623 0 52.0387 12.4907 650 92.14 1361.28 437.523
2624 0 53.13 13.1188 697 92.8766 1361.65 435.151
2625 0 56.1337 13.5035 758 93.3799 1361.31 432.698
2626 0 56.0937 13.0674 733 99.1173 1361.25 430.199
2627 0 58.1124 13.3706 777 99.7941 1360.63 429.646
2628 0 61.1367 13.5107 826 98.4407 1361.06 429.465
2629 0 62.1398 13.3731 831 99.142 1360.96 427.805
2630 0 64.2138 13.019 836 99.4892 1361.4 428.06
2631 0 67.2692 12.725 856 99.1612 1360.45 427.848
2632 0 69.2434 13.2865 920 99.9033 1361.12 426.02
2633 0 70.2297 13.3277 936 100.198 1360.71 424.814
2634 0 75.1461 13.3207 1001 100.049 1361.17 423.056
2635 0 78.205 13.8226 1081 99.0259 1361.74 422.558
2636 0 80.2259 13.9606 1120 98.5571 1361.82 421.443
2637 0 83.2162 13.6151 1133 99.639 1361.5 419.688
2638 0 84.1938 13.6352 1148 101.214 1361.84 418.021
2639 0 87.1532 14.6638 1278 97.8685 1361.17 416.275
2640 0 91.1386 13.9348 1270 98.7402 1360.84 415.532
2641 0 93.2819 13.9577 1302 99.1375 1360.98 414.058
2642 0 96.1767 13.3504 1284 99.4665 1360.42 412.578
2643 0 99.2361 13.352 1325 98.3502 1360.71 410.155
2644 0 103.389 13.0285 1347 98.3467 1360.94 409.447
2645 0 105.368 12.9072 1360 97.9228 1360.72 409.421
2646 1 58.1014 13.0978 761 96.0591 1360.11 430.583
2647 0 61.1224 13.3012 813 98.1993 1360.38 427.984
2648 0 63.1885 13.2461 837 98.5341 1361.14 427.689
2649 0 67.1222 14.0639 944 92.643 1361.67 424.932
2650 0 68.1299 13.9733 952 92.354 1361.33 424.443
2651 0 71.1614 13.8277 984 92.2785 1361.37 422.5
2652 0 75.1541 14.7564 1109 88.1876 1361.24 421.75
2653 0 75.151 12.9207 971 93.4799 1361.39 420.892
2654 0 78.2023 13.0559 1021 91.5455 1361.48 419.09
2655 0 80.1668 13.8087 1107 90.8193 1361.22 417.886
2656 0 82.12 12.6887 1042 91.9117 1360.29 417.111
2657 0 86.1341 13.3513 1150 89.6617 1360.13 414.177
2658 0 89.2219 13.3936 1195 89.4268 1360.75 411.7
2659 0 92.1756 13.6804 1261 88.1808 1361.46 410.86
2660 0 96.1188 13.5561 1303 88.4643 1361.14 409.684
2661 0 100.125 13.8227 1384 88.1358 1361.28 407.863
2662 1 51.0636 13.023 665 94.2241 1360.64 430.138
2663 0 54.1138 12.9172 699 94.6981 1361.59 428.847
2664 0 57.3114 13.3481 765 93.4824 1360.9 427.995
2665 0 57.2121 14.3501 821 92.1705 1360.61 427.844
2666 0 59.1737 12.8436 760 96.6605 1360.49 425.843
2667 0 59.1876 13.094 775 96.6 1360.54 425.306
2668 0 63.1227 13.545 855 93.924 1360.44 423.804
2669 0 64.1442 13.2514 850 94.9671 1360.67 426.336
2670 0 66.2315 13.9964 927 93.7238 1360.7 425.341
2671 0 70.179 14.1068 990 93.6838 1360.97 423.838
2672 0 73.1562 13.8608 1014 93.5986 1361.1 423.458
2673 0 73.1451 13.6578 999 95.025 1361.24 422.555
2674 0 77.1063 14.0974 1087 95.0138 1361.65 420.665
2675 0 80.2005 14.2393 1142 95.4299 1361.47 420.37
2676 0 81.1353 14.2232 1154 96.9315 1361.82 418.72
2677 0 85.1789 14.7102 1253 95.8986 1361.37 418.526
2678 0 86.2157 14.6145 1260 96.9413 1361.77 418.438
2679 0 90.0909 14.6963 1324 97.8331 1362.01 415.961
2680 0 93.2116 14.7192 1372 97.2004 1361.82 416.58
2681 0 96.0657 15.9162 1529 96.588 1360.95 416.566
2682 0 98.1856 14.6457 1438 99.6474 1361.27 415.88
2684 0 100.196 14.9207 1495 99.701 1360.45 415.004
2685 0 105.177 15.5357 1634 97.5777 1361 413.601
2686 0 109.108 15.4068 1681 98.6544 1360.62 411.62
2687 0 112.274 14.9099 1674 100.167 1361.12 410.843
2688 0 114.192 14.9398 1706 101.4 1360.5 408.689
2689 0 119.256 14.5821 1739 101.042 1360.19 406.354
2690 0 128.213 14.7567 1892 101.127 1360.36 401.385
2691 1 67.1028 12.4883 838 104.936 1359.21 427.432
2692 0 70.2466 12.4134 872 105.055 1359.76 426.218
2693 0 72.1106 13.3684 964 104.301 1359.14 424.293
2694 0 74.1012 13.3466 989 104.294 1360.29 422.978
2695 0 78.0973 13.4832 1053 102.691 1359.56 421.746
2696 0 81.136 13.3726 1085 102.835 1359.68 420.126
2697 0 83.197 13.5101 1124 103.433 1359.95 419.7
2698 0 85.1123 14.2635 1214 102.474 1360.12 418.637
2699 0 88.1202 13.7993 1216 104.418 1359.32 416.612
2700 0 92.0721 14.0868 1297 104.089 1359.45 415.048
2701 0 93.2317 13.9223 1298 104.807 1359.42 412.679
2702 0 94.1049 13.8675 1305 107.105 1359.52 411.143
2703 0 98.1767 13.9035 1365 106.505 1359.21 409.703
2704 0 103.161 13.794 1423 105.975 1359.71 406.55
2705 0 105.134 14.2105 1494 106.277 1359.67 403.395
2706 0 110.207 14.128 1557 107.554 1359.23 403.224
2707 0 111.193 13.8948 1545 110.785 1359.56 401.049
2708 0 115.18 14.1865 1634 111.168 1360.36 399.263
2709 0 120.133 13.8763 1667 112.518 1360.23 400.876
2710 0 124.223 14.6349 1818 111.999 1360.12 401.832
2711 0 128.341 14.6563 1881 112.629 1360.23 399.185
2712 0 134.213 14.5068 1947 113.716 1359.78 396.956
2713 1 77.1914 11.2707 870 106.544 1359.97 428.352
2714 0 78.126 11.0207 861 108.334 1360.9 428.517
2715 0 80.1916 11.5349 925 110.139 1360.32 425.179
2716 0 83.1687 12.637 1051 107.976 1360 423.262
2717 0 85.1335 12.4863 1063 107.989 1360.11 420.689
2718 0 87.1478 12.2321 1066 109.096 1359.88 420.993
2719 0 90.1507 11.9578 1078 111.618 1360.26 419.09
2720 0 93.1492 12.2062 1137 111.186 1359.67 418.218
2721 0 95.1618 12.2213 1163 111.058 1359.83 416.661
2722 0 99.2694 12.2193 1213 110.382 1359.14 414.829
2723 0 100.235 11.9319 1196 111.135 1359.4 412.605
2724 0 103.315 11.6634 1205 111.456 1359.1 410.826
2725 0 108.193 12.7273 1377 107.472 1359.61 410.359
2726 0 109.207 12.1238 1324 108.642 1359.57 407.359
2727 0 112.209 11.8618 1331 109.461 1359.87 404.621
2728 0 115.193 12.0494 1388 108.548 1360.34 403.1
2729 0 119.149 11.4646 1366 109.52 1360.3 402.231
2730 0 122.108 11.1704 1364 101.741 1360.09 399.935
2731 0 130.17 10.978 1429 99.1001 1360.12 397.946
2732 0 133.193 10.7363 1430 97.4035 1359.57 399.198
2733 0 138.342 11.9269 1650 104.367 1359.63 398.149
2734 0 142.33 11.6139 1653 103.546 1359.9 392.82
2735 0 144.216 10.9211 1575 101.28 1360.26 391.873
2736 0 150.219 12.0557 1811 99.1022 1360.25 391.833
2737 1 83.0739 10.268 853 88.6565 1359.61 426.353
2738 0 85.127 9.9146 844 88.7346 1359.33 422.55
2739 0 89.0868 10.3831 925 88.0919 1360.35 414.392
2740 0 93.1119 10.4498 973 88.2549 1360.28 415.419
2741 0 95.101 10.8516 1032 87.782 1359.92 412.36
2742 0 98.115 11.2521 1104 87.1476 1359.78 413.546
2743 0 102.114 11.7222 1197 86.3492 1360.63 410.923
2744 0 105.072 11.5159 1210 85.5744 1359.69 410.038
2745 0 106.136 11.5889 1230 85.9049 1360.56 406.88
2746 0 109.112 10.6863 1166 87.9957 1361.02 407.957
2747 0 115.228 11.2993 1302 87.0691 1360.77 405.432
2748 1 64.1188 10.9172 700 79.0029 1360.4 432.324
2749 0 66.1668 11.0327 730 78.3164 1360.65 430.471
2750 0 68.1429 10.9769 748 78.4586 1360.65 430.445
2751 0 69.1417 11.7151 810 77.6321 1361.38 428.512
2752 0 70.1172 11.0814 777 79.7928 1360.4 429.99
2753 0 72.1159 10.6079 765 80.9163 1360.71 429.297
2754 0 73.0861 10.8639 794 81.8753 1359.9 426.544
2755 0 74.077 10.5566 782 83.5013 1360.4 427.616
2756 0 76.0986 10.8806 828 83.4239 1360.8 425.048
2757 0 80.0734 10.7901 864 83.6042 1360.69 424.403
2758 0 83.1375 11.3908 947 82.7075 1359.92 423.22
2759 0 85.1814 11.047 941 85.5728 1359.89 422.035
2760 0 86.089 11.279 971 86.7518 1359.44 421.804
2761 0 90.0839 11.2562 1014 87.5927 1359.85 419.459
2762 0 91.0902 11.1757 1018 89.3409 1359.54 417.627
2763 0 95.0534 12.0985 1150 87.5443 1359.73 417.656
2764 0 99.1028 12.2398 1213 87.8261 1361.37 416.899
2765 0 100.098 11.7485 1176 90.767 1362.02 416.058
2766 0 104.136 11.7443 1223 90.9109 1361.31 414.982
2767 0 108.125 11.9954 1297 91.9884 1361.48 413.124
2768 1 63.1208 11.6127 733 93 1362.1 434.153
2769 0 62.0902 11.2739 700 93.9343 1362.27 431.343
2770 0 61.1003 11.1292 680 89.5632 1361.99 426.524
2771 0 66.1038 11.724 775 84.5987 1362.67 433.803
2772 0 66.1041 11.2398 743 86.7914 1362.48 433.349
2773 0 69.097 11.3464 784 86.1798 1362.63 432.99
2774 0 71.0831 10.748 764 89.394 1362.32 432.182
2775 0 71.1269 10.9663 780 88.0859 1362.9 431.45
2776 0 74.1392 11.2086 831 88.2984 1362.29 430.895
2777 0 78.1164 11.7517 918 87.9597 1362.19 428.243
2778 0 79.1129 11.9829 948 88.673 1361.43 425.942
2779 0 80.1149 11.4086 914 89.6718 1361.6 424.943
2780 0 85.1898 11.5389 983 87.0549 1361.24 426.628
2781 0 87.1862 11.9056 1038 85.8401 1360.39 424.23
2782 0 90.1605 11.8566 1069 86.3948 1360.19 422.872
2783 0 93.2113 11.7797 1098 86.5173 1359.98 422.23
2784 1 52.1804 10.7703 562 85.831 1359.96 440.811
2785 0 54.1031 11.6075 628 86.8503 1360.07 438.803
2786 0 55.1038 11.8322 652 87.4632 1360.14 439.212
2787 0 57.1565 11.6347 665 86.2135 1359.74 438.03
2788 0 58.1223 12.5941 732 84.3648 1360.05 437.108
2789 0 61.0771 12.2304 747 85.4605 1359.68 435.652
2790 0 61.0732 11.8382 723 86.9101 1359.73 436.328
2791 0 61.1108 11.7001 715 88.2881 1359.39 435.787
2792 0 63.1319 11.9432 754 87.7759 1359.85 434.357
2793 0 64.0988 11.9347 765 89.3542 1358.88 433.175
2794 0 65.0427 11.9768 779 89.1489 1360.09 433.772
2795 0 69.0682 12.9148 892 84.4339 1359.54 432.286
2796 0 69.051 11.7884 814 87.6192 1359.71 431.787
2797 0 71.0736 11.6358 827 88.4438 1359.58 431.356
2798 0 75.0766 12.6271 948 85.2553 1360.19 430.239
2799 0 76.0761 12.172 926 87.1339 1360.02 429.584
2800 0 78.0746 12.1422 948 86.0665 1360.74 429.372
2801 0 78.031 12.1106 945 86.3862 1360.71 427.54
2802 0 81.0421 12.8082 1038 87.7938 1360.39 426.759
2803 0 85.0669 13.2954 1131 86.2723 1359.96 425.196
2804 0 89.0366 14.1178 1257 83.8433 1360.31 422.909
2805 0 92.05 13.3297 1227 84.511 1360.13 421.932
2806 0 95.059 13.6652 1299 85.7475 1360.64 420.417
2807 0 96.0566 13.846 1330 87.0188 1360.85 419.924
2808 0 99.0895 13.4727 1335 89.1865 1362.04 418.103
2809 1 52.1039 12.2256 637 90.0597 1362.63 441.132
2810 0 52.0497 12.027 626 91.5016 1362.39 438.224
2811 0 54.078 12.2786 664 89.4759 1361.82 435.548
2812 0 56.0824 12.8739 722 90.5 1360.9 437.011
2813 0 54.0268 10.902 589 86.438 1360.43 439.139
2814 0 58.0566 12.4361 722 81.9307 1359.96 436.939
2815 0 58.1908 12.2872 715 84.151 1361.35 438.778
2816 0 61.128 12.1712 744 84.4879 1361.79 437.802
2817 0 63.0937 12.2358 772 83.3718 1361.71 438.996
2818 0 64.2948 12.5982 810 84.0037 1362.2 436.631
2819 0 64.127 12.3193 790 87.1038 1360.96 435.763
2820 0 68.1501 12.7072 866 86.9734 1360.86 435.423
2821 0 69.1667 13.1422 909 86.7074 1360.51 433.948
2822 0 72.1485 13.4583 971 87.068 1360.45 432.317
2823 0 73.1382 12.8797 942 89.9183 1360.72 430.362
2824 0 75.1337 13.07 982 89.9888 1360.27 428.977
2825 0 77.1271 13.588 1048 89.3578 1360.57 429.219
2826 0 80.1702 13.2343 1061 90.9321 1361.25 428.461
2827 0 81.0955 12.7134 1031 93.999 1361.31 426.676
2828 0 84.141 13.4655 1133 92.985 1360.87 424.959
2829 0 87.1832 13.5003 1177 92.87 1360.42 422.473
2830 0 89.1337 13.62 1214 92.0717 1360.93 422.469
2831 0 93.1186 13.7996 1285 90.4739 1360.91 420.302
2832 0 96.0813 13.0619 1255 91.7498 1361.45 421.269
2833 0 98.1248 13.544 1329 90.4236 1361.19 420.014
2834 0 102.18 13.7991 1410 90.8844 1360.96 416.704
2835 1 52.1209 11.2431 586 88.5068 1361.58 441.727
2836 0 55.1499 12.1668 671 86.2578 1361.41 440.955
2837 0 57.0952 11.6822 667 86.6282 1361.27 440.444
2838 0 59.1256 12.1098 716 85.324 1361.73 438.881
2839 0 59.0908 11.9477 706 86.1133 1360.83 439.069
2840 0 60.0551 12.2054 733 87.6726 1360.48 436.439
2841 0 64.0704 11.9088 763 86.6566 1361.01 437.172
2842 0 65.0971 12.2893 800 86.7837 1360.35 435.789
2843 0 68.141 12.1953 831 86.3357 1360.3 434.892
2844 0 71.1084 12.502 889 85.6704 1360.13 433.438
2845 0 72.1395 11.4639 827 87.2031 1360.09 432.313
2846 0 75.1036 12.4628 936 85.8344 1360.47 430.64
2847 0 77.123 12.2402 944 85.6208 1360.64 429.238
2848 0 79.1099 11.642 921 86.7709 1360.08 427.56
2849 0 83.1652 11.7477 977 86.1003 1360.59 428.187
2850 0 86.1359 12.3061 1060 85.4434 1360.43 424.355
2851 0 89.0972 12.1104 1079 87.0019 1361.26 423.358
2852 1 49.057 11.6191 570 87.0579 1361.22 441.398
2853 0 50.0758 11.5225 577 87.0641 1361.19 438.542
2854 0 52.0547 11.6032 604 84.2235 1360.08 436.513
2855 0 53.065 11.2127 595 83.9866 1360.95 441.412
2856 0 54.1827 10.9998 596 84.5302 1360.73 441.831
2857 0 55.0879 11.0551 609 83.5369 1361.5 441.335
2858 0 57.1378 11.481 656 82.6753 1361.28 440.25
2859 0 58.1257 11.9052 692 81.7659 1362.49 438.204
2860 0 58.0914 11.2753 655 84.174 1362.73 436.889
2861 0 63.0967 11.3952 719 83.2629 1362.67 436.893
2862 0 63.1027 12.1389 766 83.094 1362.05 434.022
2863 0 66.1212 11.9931 793 82.4994 1362.88 434.999
2864 0 68.1087 11.9221 812 83.9421 1361.83 432.542
2865 0 70.0942 11.3133 793 85.5864 1361.43 431.897
2866 0 72.0877 11.2502 811 86.1529 1361.12 430.882
2867 0 76.1264 11.9013 906 84.8687 1361.69 429.368
2868 0 78.2203 11.4548 896 85.3683 1361.7 428.975
2869 0 82.1394 12.357 1015 84.0207 1361.18 427.352
2870 1 42.1157 10.6611 449 88.4187 1361.65 445.367
2871 0 45.1214 11.3915 514 87.8774 1361.35 443.121
2872 0 47.0708 12.0032 565 86.1752 1361.22 442.651
2873 0 47.0543 12.6237 594 83.8838 1361.92 442.406
2874 0 52.0597 12.7354 663 82.5852 1361.07 442.033
2875 0 51.1348 12.3986 634 87.2114 1361.59 441.577
2876 0 52.1393 11.9871 625 90.6672 1360.96 441.142
2877 0 53.1271 11.4254 607 91.9671 1361.79 440.84
2878 0 53.0741 11.2861 599 91.8331 1361.08 440.768
2879 0 56.1397 12.4333 698 89.5014 1361.41 439.771
2880 0 59.133 12.1928 721 89.9182 1360.99 438.117
2881 0 60.1058 12.4946 751 88.8988 1360.85 437.473
2882 0 62.127 13.0217 809 88.7417 1360.62 436.388
2883 0 64.1445 12.0821 775 90.9923 1361.22 437.054
2884 0 65.1786 12.1819 794 91.6902 1360.57 435.524
2885 0 68.152 12.5748 857 90.4866 1360.61 434.363
2886 0 69.1011 11.8522 819 93.4127 1360.85 433.915
2887 0 71.0929 12.3782 880 92.8648 1360.22 432.773
2888 0 74.1206 12.9519 960 92.2781 1361.09 430.949
2889 0 78.1594 12.321 963 92.7103 1360.88 429.337
2890 0 80.124 12.256 982 92.7556 1360.52 429.237
2891 0 83.1408 12.6051 1048 91.0649 1360.69 428.814
2892 0 87.168 12.757 1112 83.2509 1360.81 424.729
2893 0 88.1174 12.6876 1118 92.1163 1361.27 424.563
2894 1 46.1056 11.1266 513 100.097 1361.19 442.548
2895 0 48.1778 11.6859 563 100.892 1361.59 442.449
2896 0 49.184 12.4228 611 92.455 1361.25 442.957
2897 0 48.1046 12.3481 594 96.8316 1361.4 442.012
2898 0 47.1548 11.5365 544 99.7574 1361.33 443.357
2899 0 49.0809 11.8172 580 98.6069 1361.6 442.914
2900 0 50.0663 11.5647 579 96.5389 1361.31 442.458
2901 0 52.1324 11.9887 625 93.1424 1360.94 442.045
2902 0 53.092 11.6778 620 92.5903 1361.67 440.576
2903 0 54.0892 11.5365 624 90.4984 1361.43 440.444
2904 0 58.105 12.1504 706 86.4972 1361.16 439.153
2905 0 58.1858 11.9273 694 86.4654 1361.53 438.22
2906 0 60.1122 11.6948 703 86.3599 1360.88 436.633
2907 0 59.0811 11.5942 685 85.5358 1361.91 437.22
2908 0 62.0915 11.8213 734 84.7602 1361.02 435.73
2909 0 67.056 12.1988 818 79.4902 1361.47 434.663
2910 0 68.0922 12.1306 826 82.7785 1361.77 433.077
2911 0 69.1056 12.0251 831 85.9699 1361.67 431.99
2912 0 70.0971 12.1118 849 87.1343 1360.89 431.547
2913 0 72.0942 12.1924 879 86.992 1361.29 431.747
2914 0 74.0772 11.92 883 87.9287 1361.67 430.794
2915 0 76.1056 11.5892 882 88.3957 1361.59 430.325
2916 0 77.0997 11.8288 912 89.2105 1361.33 429.234
2917 0 79.0891 11.2658 891 89.7003 1361.56 429.304
2918 1 42.1471 10.8193 456 93.1491 1361.66 445.406
2919 0 45.1894 11.6399 526 88.5475 1361.48 444.823
2920 0 44.0773 11.8882 524 89.7156 1361.52 443.658
2921 0 44.0562 11.0541 487 88.4517 1361.55 444.296
2922 0 44.0621 11.62 512 89.5352 1361.84 444.211
2923 0 45.0882 11.5551 521 89.4914 1361.92 443.791
2924 0 46.0843 11.3488 523 91.7801 1361.5 443.91
2925 0 47.1257 10.4614 493 97.1034 1361.75 443.219
2926 0 46.0988 11.215 517 96.6344 1362.11 442.954
2927 0 48.1024 11.33 545 96.2294 1362.22 442.05
2928 0 49.0342 11.0127 540 97.7204 1362.44 442.819
2929 0 49.0888 10.9394 537 98.7635 1362.36 442.333
2930 0 51.082 11.0606 565 99.6814 1361.47 441.642
2931 0 52.0468 11.7586 612 98.8856 1360.97 441.085
2932 0 53.0697 11.6828 620 99.1306 1360.76 440.498
2933 0 53.0852 11.2272 596 101.904 1361.29 438.846
2934 0 54.0597 11.4873 621 99.649 1360.79 439.457
2935 0 55.0389 11.937 657 99.7763 1361.23 437.685
2936 0 57.059 11.269 643 100.538 1360.55 437.177
2937 0 57.0274 11.9066 679 99.2106 1361.36 437.583
2938 0 60.1335 11.9734 720 97.3903 1360.19 436.301
2939 0 60.1085 12.2112 734 99.6798 1360.06 435.136
2940 0 63.0741 11.9383 753 99.7729 1359.61 433.424
2941 0 64.1227 11.0881 711 102.868 1360.16 434.415
2942 0 65.1561 12.002 782 102.721 1359.85 432.889
2943 0 68.1818 11.6013 791 103.747 1359.65 431.814
2944 0 70.0805 11.5867 812 106.164 1359.78 431.164
2945 0 72.1592 12.0567 870 103.859 1360.29 428.701
2946 0 75.1709 12.1057 910 102.884 1359.79 428.312
2947 0 77.1778 12.0112 927 104.506 1361.01 426.666
2948 0 79.237 12.2165 968 106.373 1360.63 425.105
2949 1 44.166 11.3209 500 102.838 1361.19 443.75
2950 0 45.0972 11.5972 523 96.1797 1360.13 443.444
2951 0 47.0837 11.8725 559 90.8444 1360.11 442.34
2952 0 47.0698 12.0672 568 91.6989 1361.77 442.368
2953 0 47.024 11.3559 534 93.661 1361.32 443.32
2954 0 49.1146 11.6259 571 93.5254 1360.19 442.662
2955 0 48.138 10.1583 489 97.8998 1360.01 442.38
2956 0 52.1181 11.4164 595 93.0471 1359.94 441.637
2957 0 53.1344 11.3298 602 95.2342 1359.7 440.213
2958 0 56.1009 11.4971 645 94.0791 1360.05 439.104
2959 0 56.0988 11.8363 664 93.0738 1359.96 439.092
2960 0 57.0833 11.965 683 94.2753 1360.08 437.991
2961 0 59.1064 11.5385 682 95.0528 1358.77 438.107
2962 0 62.1362 12.3439 767 93.3742 1359.71 436.824
2963 0 65.1973 12.6999 828 92.5906 1359.84 435.826
2964 0 66.0698 12.1689 804 93.398 1360.19 436.009
2965 0 67.089 12.2524 822 95.4781 1359.82 431.984
2966 0 69.1197 12.1239 838 95.9212 1360.42 431.037
2967 0 72.1052 12.9672 935 93.1048 1360.01 430.492
2968 0 76.1077 12.7451 970 94.6546 1360.54 429.393
2969 0 76.0565 12.7405 969 95.1878 1360.16 428.634
2970 0 80.1177 13.4302 1076 94.3922 1360.79 426.185
2971 0 83.1173 12.7049 1056 96.7263 1360.43 424.447
2972 0 86.1179 12.8429 1106 97.5145 1361.09 423.927
2973 1 45.0995 11.0422 498 96.243 1360.08 444.297
2974 0 48.0678 11.4006 548 96.0839 1360.46 443.268
2975 0 51.0168 12.4077 633 92.1343 1360.68 442.656
2976 0 51.0709 13.0211 665 93.3549 1360.7 440.432
2977 0 52.0444 12.8736 670 89.9164 1359.91 441.569
2978 0 53.104 12.5414 666 90.1366 1362.02 441.015
2979 0 55.0873 12.9975 716 88.3156 1361.27 440.616
2980 0 56.0712 13.0548 732 88.9481 1361.57 439.54
2981 0 58.0974 12.8061 744 89.3737 1361.45 439.535
2982 0 60.1044 13.4765 810 85.958 1360.71 437.662
2983 0 62.1332 13.5193 840 85.0583 1361.43 436.93
2984 0 61.0415 12.1884 744 91.1344 1361.33 437.402
2985 0 64.1212 12.0865 775 90.0232 1362.11 436.782
2986 0 65.0725 12.1557 791 89.9747 1362.08 436.378
2987 0 67.1008 12.6973 852 89.2383 1361.87 433.255
2988 0 70.1034 12.5957 883 88.3409 1361.36 433.416
2989 0 72.2034 12.2709 886 90.3962 1361.78 431.779
2990 0 76.096 13.1807 1003 86.9143 1361.84 430.637
2991 0 78.1087 12.6874 991 88.3098 1362.54 428.589
2992 0 80.0986 12.5345 1004 88.4064 1361.74 427.706
2993 0 84.1209 12.9694 1091 86.7855 1361.29 425.516
2994 0 85.1087 12.6309 1075 88.6577 1361 426.198
2995 0 89.1151 13.0281 1161 86.137 1361.06 423.205
2996 0 91.1655 12.6583 1154 88.0026 1360.9 421.597
2997 0 95.1613 12.1793 1159 89.2476 1361.29 418.916
2998 1 50.0695 11.9035 596 87.0235 1361.79 440.893
2999 0 51.0663 12.3369 630 86.9032 1361.2 440.14
3000 0 54.089 12.2021 660 84.4348 1361.24 438.803
3001 0 55.0813 12.6177 695 82.6777 1361.58 439.004
3002 0 56.087 12.5341 703 82.3784 1361.47 439.098
3003 0 57.0507 12.5502 716 81.9595 1361.02 437.183
3004 0 57.0391 12.5353 715 84.7301 1361.18 436.299
3005 0 58.0408 12.7152 738 84.0285 1360.84 436.06
3006 0 59.1433 12.7656 755 84.8649 1361.13 435.96
3007 0 62.1455 12.5995 783 84.6973 1360.91 436.42
3008 0 63.0623 11.9247 752 86.3271 1361.4 434.295
3009 0 64.084 12.6397 810 86.3543 1360.61 433.504
3010 0 67.0505 12.7665 856 86.3002 1361.22 431.862
3011 0 68.1161 12.7136 866 87.3164 1361.17 431.977
3012 0 70.0583 12.5039 876 89.1301 1361.03 430.345
3013 0 74.0916 13.1054 971 86.2255 1361.9 428.667
3014 0 78.1016 14.3659 1122 84.5258 1361.42 427.5
3015 0 79.0956 12.5924 996 88.8072 1361.77 426.942
3016 0 81.1059 13.205 1071 88.3922 1361.89 423.219
3017 0 81.0925 13.0222 1056 91.4688 1361.65 422.594
3018 0 86.134 13.6996 1180 88.3186 1361.97 422.503
3019 0 88.1162 13.119 1156 90.9697 1361.82 422.24
3020 0 91.1148 13.4117 1222 92.0295 1361.09 420.4
3021 0 95.2078 14.1375 1346 96.7749 1361.48 418.557
3022 0 97.1342 13.0129 1264 97.8078 1360.53 417.396
3023 0 98.1202 12.6376 1240 98.9927 1360.82 416.14
3024 0 102.128 13.4244 1371 96.5974 1360.57 412.64
3025 1 55.0439 10.6642 587 97.3424 1361.37 437.46
3026 0 56.055 11.7385 658 98.541 1361.11 436.359
3027 0 59.0534 11.9383 705 98.0213 1361.08 436.193
3028 0 59.0863 12.3717 731 97.3953 1361.02 435.482
3029 0 62.0934 13.0932 813 97.5843 1361.53 433.154
3030 0 60.0895 12.2817 738 99.0461 1360.9 434.233
3031 0 64.1103 12.6189 809 96.6972 1361.2 433.368
3032 0 66.2132 12.2634 812 99.1921 1360.36 431.967
3033 0 67.1725 11.9394 802 103.19 1360.69 430.918
3034 0 70.1956 12.2657 861 100.154 1361.19 429.789
3035 0 70.1484 12.6161 885 100.554 1361.48 428.296
3036 0 74.1168 12.1565 901 102.471 1360.09 425.479
3037 0 77.1876 12.6963 980 99.7918 1361.02 424.778
3038 0 78.2246 12.055 943 102.014 1360.98 424.287
3039 0 82.2007 11.9585 983 103.443 1361.65 422.127
3040 0 84.2025 12.0543 1015 103.04 1361.19 421.691
3041 0 87.1933 12.4207 1083 102.575 1361.24 419.776
3042 0 91.3996 12.1445 1110 103.997 1361.8 418.101
3043 1 47.0952 10.999 518 104.326 1361.45 438.983
3044 0 49.0579 11.0482 542 109.45 1361.85 436.48
3045 0 49.1656 11.5935 570 98.2333 1361.05 437.572
3046 0 52.1561 11.9066 621 98.1562 1361.32 435.776
3047 0 51.142 10.3437 529 100.824 1361.05 438.079
3048 0 51.0425 11.128 568 97.5211 1362.28 437.813
3049 0 53.1525 10.9496 582 98.2491 1361.02 436.476
3050 0 55.1351 10.9005 601 97.5075 1360.9 435.626
3051 0 56.1079 10.9076 612 99.5507 1361.79 433.544
3052 0 60.2209 11.1589 672 98.3378 1361.34 433.777
3053 0 63.19 12.3754 782 93.7046 1362.24 432.211
3054 0 67.1561 12.4933 839 93.0203 1361.55 431.421
3055 0 67.1497 12.1668 817 96.1457 1361.97 431.132
3056 0 68.1541 12.2223 833 98.8523 1361.47 429.663
3057 0 73.1857 12.6937 929 96.5382 1361.72 429.411
3058 0 75.1736 12.5709 945 96.6392 1361.63 427.927
3059 0 77.1451 12.3922 956 98.9895 1361.74 426.733
3060 0 80.1375 12.6283 1012 97.1314 1361.77 425.734
3061 0 84.2136 13.2283 1114 96.5467 1361.43 424.403
3062 1 45.1456 11.4297 516 98.4729 1360.96 442.349
3063 0 46.1248 11.5556 533 98.2289 1361.22 442.062
3064 0 48.1398 12.6091 607 96.8204 1361.15 440.219
3065 0 50.1608 12.7988 642 94.7757 1360.89 440.231
3066 0 49.1332 11.4587 563 100.439 1360.28 439.964
3067 0 49.0705 11.7993 579 102.632 1360.63 439.28
3068 0 51.0963 11.4294 584 102.336 1360.52 439.204
3069 0 52.1136 11.6284 606 101.201 1360.62 437.584
3070 0 55.1023 11.5785 638 101.074 1360.74 437.658
3071 0 54.0299 12.271 663 98.6154 1361.48 437.965
3072 0 55.0382 12.0098 661 98.9546 1362.24 435.926
3073 0 59.0716 12.4256 734 96.5327 1361.75 435.77
3074 0 60.047 12.0239 722 96.9169 1361.9 434.994
3075 0 61.0512 12.121 740 96.7797 1361.57 434.507
3076 0 64.0489 12.4124 795 94.9635 1361.62 434.745
3077 0 66.076 12.5462 829 94.9554 1362.32 432.823
3078 0 68.0393 11.8167 804 97.8109 1361.99 432.137
3079 0 69.1029 11.9098 823 99.1555 1361.46 429.735
3080 0 71.0653 12.2986 874 97.0343 1361.57 429.941
3081 0 74.1426 12.5973 934 96.3737 1361.31 429.61
3082 0 77.0708 12.7675 984 96.9736 1360.98 426.965
3083 0 79.0878 12.2901 972 96.5514 1360.94 426.108
3084 0 82.1389 12.3936 1018 97.278 1361.3 426.619
3085 0 84.1454 12.93 1088 95.8539 1361.42 424.112
3086 0 86.118 12.4248 1070 97.2262 1361.48 423.109
3087 0 92.1924 13.2657 1223 94.1145 1361.57 421.563
3088 1 50.0979 11.3777 570 98.3439 1361.64 441.191
3089 0 49.1207 11.7466 577 100.797 1361.48 440.79
3090 0 52.1323 13.0245 679 100.125 1361.52 438.96
3091 0 56.0256 12.7442 714 98.1541 1362.34 438.437
3092 0 56.0147 13.4965 756 94.75 1362.05 437.237
3093 0 58.0596 12.8833 748 89.9131 1361.66 436.836
3094 0 56.066 12.8955 723 91.4689 1360.47 435.831
3095 0 57.0983 13.433 767 91.7497 1360.92 434.536
3096 0 60.0695 14.067 845 89.9231 1361.07 435.012
3097 0 61.0493 13.53 826 92.5327 1361.16 434.255
3098 0 64.0764 13.7492 881 91.1464 1360.98 433.486
3099 0 64.043 13.8345 886 91.8014 1360.13 432.644
3100 0 67.0523 13.9145 933 91.2722 1360.47 432.061
3101 0 71.1228 14.3273 1019 89.4298 1360.68 429.821
3102 0 72.0456 13.9217 1003 92.2193 1360.58 429.564
3103 0 73.0459 14.2787 1043 92.2742 1360.54 428.138
3104 0 76.0429 14.7285 1120 91.3518 1360.53 428.038
3105 0 78.0903 14.304 1117 92.1952 1360.81 426.614
3106 0 79.0295 14.5009 1146 94.2234 1360.94 425.413
3107 0 84.062 14.7986 1244 92.2613 1361.39 423.383
3108 0 83.0623 14.2182 1181 95.9373 1361.48 423.587
3109 0 87.0572 14.2895 1244 96.3545 1361.63 421.988
3110 0 88.061 14.365 1265 97.8514 1361.4 420.667
3111 0 92.0604 14.7946 1362 96.7577 1361.07 418.471
3112 0 94.1035 15.1535 1426 96.1802 1360.98 417.903
3113 0 96.1283 15.4689 1487 99.7236 1361.23 415.933
3114 0 100.126 15.2108 1523 101.207 1361.34 414.456
3115 0 103.128 15.534 1602 100.366 1361.57 412.438
3116 0 104.106 15.4073 1604 102.956 1360.89 410.141
3117 0 108.148 15.3955 1665 102.577 1361.52 409.604
3118 0 112.139 15.5165 1740 101.682 1360.53 407.579
3119 0 116.18 16.1216 1873 100.215 1360.72 406.515
3120 0 118.219 15.9281 1883 101.471 1360.62 404.238
3121 0 120.218 15.8046 1900 103.618 1360.6 401.083
3122 0 126.139 16.0537 2025 101.819 1360.78 398.874
3123 0 130.147 16.0588 2090 99.3766 1360.95 397.814
3124 0 136.217 15.7396 2144 101.677 1361.1 394.177
3125 0 136.199 15.7857 2150 160.386 1362.09 394.378
3126 1 71.0463 13.076 929 98.9462 1361.42 428.977
3127 0 72.0614 13.2803 957 99.744 1361.5 427.668
3128 0 76.0596 13.8181 1051 100.051 1361.26 426.202
3129 0 79.1119 13.5504 1072 101.579 1361.28 425.557
3130 0 80.1278 13.3162 1067 103.136 1361.52 425.853
3131 0 82.1134 13.7006 1125 103.973 1361.14 424.179
3132 0 84.1619 14.2582 1200 102.848 1361.6 422.475
3133 0 84.1619 14.2345 1198 161.103 1362.59 422.321
3134 0 92.2352 13.6933 1263 106.325 1360.89 418.792
3135 0 93.0694 13.635 1269 107.698 1360.59 416.982
3136 0 97.1057 14.3349 1392 105.343 1360.78 416.018
3137 0 101.126 14.1902 1435 105.038 1360.9 414.079
3138 0 104.188 13.6772 1425 106.863 1361.07 412.371
3139 0 107.096 14.1742 1518 105.491 1360.4 411.295
3140 0 110.159 13.6349 1502 107.775 1360.64 408.872
3141 0 113.11 14.1632 1602 107.441 1360.52 407.102
3142 0 118.104 14.4111 1702 108.246 1360.87 405.028
3143 0 122.151 14.9732 1829 107.551 1360.08 402.225
3144 0 130.244 17.7206 2308 97.7244 1360.37 395.361
3145 0 131.292 15.317 2011 107.769 1360.04 396.445
3146 1 69.1728 12.3603 855 105.346 1360.21 429.049
3147 0 72.1517 12.4183 896 104.635 1359.91 427.075
3148 0 74.164 12.9308 959 104.765 1360.13 426.932
3149 0 76.1043 12.8376 977 107.744 1360.26 423.892
3150 0 81.2682 13.7569 1118 110.686 1360.38 423.004
3151 0 83.1958 13.3901 1114 112.141 1360.69 422.059
3152 0 84.1495 12.8937 1085 114.809 1360.41 421.895
3153 0 86.1643 13.7644 1186 112.665 1360.71 420.134
3154 0 89.1604 12.9766 1157 114.361 1360.21 419.987
3155 0 91.1202 13.1914 1202 115.049 1361 417.785
3156 0 94.1112 12.6552 1191 116.314 1360.85 416.337
3157 0 98.1119 13.6986 1344 112.148 1361.49 415.67
3158 0 98.105 13.3021 1305 115.013 1360.52 414.027
3159 0 102.102 13.516 1380 112.595 1361.64 412.283
3160 0 106.108 12.8454 1363 115.792 1361.01 410.413
3161 0 108.116 13.2357 1431 116.344 1361.02 408.07
3162 0 113.236 13.5469 1534 114.151 1360.53 407.729
3163 0 117.107 13.6542 1599 114.45 1360.72 405.609
3164 0 121.187 14.1764 1718 115.001 1360.85 402.885
3165 1 64.0561 11.3806 729 112.75 1360.76 431.374
3166 0 69.1326 12.3675 855 107.006 1360.11 429.849
3167 0 71.1224 12.4715 887 110.611 1361.52 428.469
3168 0 70.0819 11.5436 809 107.557 1361.56 429.198
3169 0 71.1243 12.1618 865 104.573 1361.16 428.455
3170 0 75.1433 12.23 919 104.716 1361.21 428.119
3171 0 76.0889 12.1963 928 105.214 1361.66 426.167
3172 0 79.1556 12.5196 991 103.663 1361.19 425.183
3173 0 82.178 12.3999 1019 104.865 1361.03 423.521
3174 0 84.0814 12.583 1058 105.482 1360.95 422.267
3175 0 87.0678 12.9899 1131 102.981 1361.01 421.007
3176 0 90.1837 12.663 1142 104.708 1360.65 419.513
3177 0 90.3377 12.7743 1154 105.131 1360.87 418.075
3178 0 93.1737 12.8899 1201 105.694 1361.05 415.768
3179 0 96.2487 13.1742 1268 105.972 1361.05 415.136
3180 0 100.217 14.5883 1462 100.454 1360.46 411.215
3181 0 101.143 13.466 1362 106.993 1360.86 411.93
3182 0 105.226 12.9816 1366 105.367 1360.11 411.296
3183 0 106.208 12.7862 1358 107.962 1361.12 409.616
3184 0 112.225 13.5442 1520 106.687 1360.42 404.336
3185 1 60.1974 11.2962 680 99.2206 1360.65 434.231
3186 0 62.1156 11.1083 690 99.0899 1360.62 433.438
3187 0 63.1335 12.0222 759 96.6047 1360.67 433.049
3188 0 64.1037 11.497 737 99.1859 1360.5 432.86
3189 0 67.1062 11.9512 802 98.404 1360.5 431.423
3190 0 68.147 11.9448 814 99.817 1360.44 430.638
3191 0 71.1061 12.2634 872 98.3234 1360.29 428.124
3192 0 71.1512 11.8199 841 100.18 1360.59 429.031
3193 0 75.2322 11.8832 894 98.8971 1361.25 428.375
3194 0 77.1843 12.062 931 99.0387 1360.99 427.303
3195 0 81.2548 11.8885 966 98.2981 1360.93 427.006
3196 0 83.3091 12.3156 1026 97.4795 1360.35 425.339
3197 0 81.2501 12.2215 993 160.478 1360.36 424.605
3198 0 87.1939 12.5238 1092 99.3938 1360.9 421.129
3199 0 90.186 12.2968 1109 99.7069 1360.9 418.556
3200 0 93.2224 12.4755 1163 96.1238 1360.94 419.275
3201 0 95.1562 12.3376 1174 98.3424 1360.98 416.564
3202 0 99.1768 11.9887 1189 96.4424 1360.62 416.735
3203 1 51.0928 11.254 575 96.047 1360.17 439.447
3204 0 53.1326 11.2172 596 94.4295 1361.29 438.218
3205 0 55.1555 12.2744 677 91.384 1361 436.284
3206 0 55.1001 11.9056 656 93.2287 1361.45 435.535
3207 0 58.1199 12.9904 755 91.5894 1359.79 435.31
3208 0 59.0927 12.6919 750 88.1427 1360.63 432.856
3209 0 61.1076 12.8626 786 85.6819 1359.74 432.766
3210 0 60.0645 11.7207 704 89.6179 1360.95 433.331
3211 0 63.2272 12.5104 791 86.3944 1360.69 433.205
3212 0 63.1268 12.5462 792 87.7437 1360.41 431.181
3213 0 64.1032 12.2771 787 87.8043 1360.53 432.844
3214 0 66.2021 11.7368 777 88.5122 1361.17 432.281
3215 0 67.1952 11.7865 792 88.5884 1360.65 430.681
3216 0 69.1753 11.6949 809 90.115 1361.2 429.325
3217 0 72.1543 12.3347 890 88.9955 1360.46 427.263
3218 0 72.1658 12.1664 878 89.4055 1360.92 426.107
3219 0 75.101 12.5697 944 88.107 1361.51 425.744
3220 0 79.1502 12.4321 984 88.5173 1360.64 424.449
3221 0 80.1588 12.3754 992 89.7177 1360.71 422.84
3222 0 83.2657 12.9465 1078 88.461 1360.5 422.25
3223 0 84.1661 12.4516 1048 90.4218 1361.18 421.042
3224 0 87.1991 13.0162 1135 88.6943 1360.67 419.412
3225 0 91.1733 13.1069 1195 87.5791 1360.76 416.737
3226 0 92.1255 12.8955 1188 89.8603 1361.04 415.692
3227 0 95.2321 13.4618 1282 88.3487 1361.38 415.609
3228 0 98.2126 13.3384 1310 90.158 1361.55 414.128
3229 0 101.281 13.823 1400 88.6379 1361.62 411.934
3230 0 103.137 13.5257 1395 91.6358 1361.84 409.151
3231 0 106.11 14.0892 1495 90.1385 1361.89 409.651
3232 0 108.091 13.609 1471 95.9871 1361.42 405.35
3233 0 114.145 13.5442 1546 94.8693 1361.7 404.179
3234 1 58.1028 11.8927 691 92.4067 1361.35 432.946
3235 0 61.239 12.737 780 91.7154 1360.83 433.332
3236 0 63.1467 13.4607 850 90.6988 1361.85 431.811
3237 0 65.1727 12.9042 841 94.0809 1361.59 429.735
3238 0 68.1887 13.8 941 92.1881 1361.56 429.441
3239 0 69.1386 13.4512 930 93.5892 1361.46 427.502
3240 0 72.126 13.5042 974 94.8573 1362.02 426.022
3241 0 74.1763 13.1578 976 94.4252 1361.61 425.325
3242 0 77.1267 13.99 1079 91.4736 1361.53 424.894
3243 0 79.1096 13.4623 1065 93.0103 1361.11 423.804
3244 0 82.1696 13.8372 1137 93.2647 1361.34 423.349
3245 0 84.2169 13.4177 1130 94.5726 1360.61 421.816
3246 0 85.2109 13.801 1176 96.6913 1361.36 420.173
3247 0 87.2332 13.3436 1164 97.9923 1360.66 418.826
3248 0 90.3041 13.8753 1253 96.9465 1361.23 418.896
3249 0 93.2522 13.426 1252 98.1214 1360.88 416.76
3250 0 96.1954 13.9092 1338 96.8842 1360.66 415.566
3251 0 99.2028 13.8 1369 97.7224 1360.25 413.405
3252 0 103.263 14.0805 1454 96.3824 1360.54 410.827
3253 0 106.188 14.1164 1499 96.8292 1360.58 409.933
3254 1 54.0656 11.893 643 94.2208 1359.9 435.023
3255 0 57.083 12.3329 704 93.9446 1360.98 432.939
3256 0 59.1203 13.1258 776 89.509 1361.52 431.597
3257 0 62.0982 13.1405 816 95.6409 1361.42 430.765
3258 0 64.1034 13.2598 850 96.1047 1361.11 429.604
3259 0 67.1368 13.1225 881 94.1146 1360.64 427.789
3260 0 68.1333 13.2241 901 95.9212 1361.6 427.174
3261 0 70.153 12.8291 900 97.9856 1360.92 425.567
3262 0 72.0988 13.1625 949 95.8599 1361.74 425.354
3263 0 76.069 13.422 1021 94.8364 1361.37 424.445
3264 0 75.0786 13.053 980 95.348 1361.97 423.892
3265 0 79.1626 12.6196 999 94.8228 1361.77 423.426
3266 0 82.0819 12.7799 1049 97.0887 1362.42 421.875
3267 0 83.1238 12.8122 1065 95.7624 1362.05 419.764
3268 0 86.078 12.5932 1084 93.9815 1362.21 417.599
3269 0 88.063 13.1497 1158 92.7919 1361.01 416.357
3270 0 92.1077 13.4408 1238 92.0468 1361.08 413.599
3271 0 93.1697 13.3198 1241 92.4327 1360.81 413.156
3272 0 96.1325 13.679 1315 91.3414 1360.91 411.849
3273 0 98.1969 12.7601 1253 93.174 1360.41 408.247
3274 1 54.0818 10.5211 569 88.8014 1361.07 432.594
3275 0 57.098 11.4715 655 87.4015 1359.97 430.771
3276 0 57.1265 12.096 691 86.6223 1360.49 428.023
3277 0 57.0971 11.9621 683 85.8477 1360.22 428.868
3278 0 61.0804 11.9842 732 85.6448 1360.48 428.1
3279 0 61.1096 11.7003 715 85.2741 1360.34 430.401
3280 0 65.1407 13.0333 849 83.5948 1360.49 426.763
3281 0 67.082 12.4922 838 84.9773 1360.4 425.654
3282 0 68.0849 12.7047 865 85.9919 1360.59 425.444
3283 0 70.1012 12.4819 875 86.1863 1360.48 424.481
3284 0 72.1336 13.073 943 85.07 1361.09 422.028
3285 0 75.0751 12.7739 959 85.8989 1360.31 422.501
3286 0 77.1178 12.7986 987 86.7254 1360.17 419.685
3287 0 77.1218 13.0313 1005 87.6945 1360.86 418.096
3288 0 81.0981 13.6131 1104 88.1929 1360.74 416.37
3289 0 85.1279 13.6031 1158 88.0527 1361.34 416.668
3290 0 86.0742 13.6278 1173 90.0247 1361.88 416.614
3291 0 90.172 13.1194 1183 90.7371 1361.24 414.519
3292 0 93.0757 13.2043 1229 89.8926 1361.12 411.844
3293 0 96.1545 13.8943 1336 87.5546 1360.55 410.942
3294 0 99.1607 14.2698 1415 87.5943 1361.07 409.766
3295 0 101.112 14.0834 1424 88.3792 1361.7 406.716
3296 0 103.082 13.4068 1382 88.7062 1361.56 405.127
3297 1 58.08 11.4669 666 81.2342 1362.05 430.401
3298 0 58.0626 11.2809 655 81.458 1360.53 429.221
3299 0 62.0957 12.1425 754 80.6472 1361.17 427.773
3300 0 61.0813 11.8039 721 80.1137 1361.25 427.268
3301 0 63.0983 11.9654 755 79.9881 1362.09 426.445
3302 0 66.0559 12.6408 835 77.6838 1361.17 424.57
3303 0 68.0681 11.5326 785 79.2217 1361.15 424.707
3304 0 71.1458 12.7063 904 77.2179 1361.15 421.921
3305 0 73.203 12.9093 945 77.2847 1361.13 423.705
3306 0 73.2113 11.938 874 79.4085 1361.1 421.634
3307 0 77.1786 12.4128 958 77.595 1360.99 421.633
3308 0 81.0423 12.6107 1022 76.0108 1360.73 417.728
3309 0 84.1417 12.7523 1073 80.466 1361.33 417.669
3310 0 87.2394 12.288 1072 82.695 1360.96 417.434
3311 0 88.1015 12.7694 1125 82.4267 1361.47 415.562
3312 0 92.1619 12.6408 1165 82.7923 1361.61 413.668
3313 1 48.114 10.5375 507 75.572 1361.45 435.243
3314 0 50.1645 11.3228 568 74.7658 1361.43 434.917
3315 0 50.1057 11.835 593 72.4469 1360.53 435.438
3316 0 52.0959 11.498 599 72.8614 1360.5 431.147
3317 0 53.0775 11.9636 635 71.6016 1360.12 433.515
3318 0 56.0784 11.9654 671 70.8286 1360.5 434.607
3319 0 58.0815 12.052 700 71.24 1360.78 432.794
3320 0 58.0871 12.0853 702 71.0613 1359.88 431.933
3321 0 57.024 11.6267 663 73.1931 1360.81 431.528
3322 0 62.0856 12.2251 759 70.9209 1360.65 429.949
3323 0 65.0775 12.7079 827 70.3845 1360.21 428.744
3324 0 65.0654 12.5259 815 71.7914 1360.53 425.975
3325 0 65.0342 11.9014 774 75.0943 1359.88 424.647
3326 0 67.0743 12.0911 811 75.7361 1360.64 423.94
3327 0 72.064 13.4186 967 73.9514 1360.8 422.535
3328 0 73.0533 12.3335 901 76.9734 1361 422.788
3329 0 75.062 12.7228 955 77.2346 1361.03 423.734
3330 0 79.0908 12.7701 1010 78.3416 1360.95 422.123
3331 0 81.0674 12.5945 1021 87.5583 1361.04 419.656
3332 0 84.0811 13.2848 1117 78.8245 1360.52 418.846
3333 0 87.0669 12.6569 1102 90.0145 1361.17 417.886
3334 0 89.0384 13.0842 1165 81.6464 1361.65 417.838
3335 0 92.0552 13.2638 1221 81.4439 1361.27 414.4
3336 0 94.0781 13.3187 1253 82.9753 1361.34 412.682
3337 0 97.1088 13.3253 1294 82.7543 1361.37 412.43
3338 0 100.077 13.5296 1354 83.0694 1361.33 411.194
3339 0 104.155 13.8832 1446 83.2607 1361.54 411.272
3340 0 106.188 13.2877 1411 88.9575 1361.32 409.902
3341 0 108.083 13.3323 1441 89.0187 1361.22 407.768
3342 1 60.085 11.2174 674 84.635 1362.11 433.283
3343 0 62.0956 11.7239 728 84.3956 1361.88 431.216
3344 0 64.1507 13.0474 837 83.5066 1362.01 431.654
3345 0 65.084 13.0754 851 85.7532 1361.94 429.647
3346 0 65.0992 11.951 778 86.7995 1362.37 428.83
3347 0 67.1142 11.92 800 86.9525 1362.29 428.871
3348 0 71.0558 12.3283 876 85.1884 1362.16 426.863
3349 0 72.0553 11.9214 859 85.61 1362.49 426.076
3350 0 76.0701 12.4753 949 83.8778 1361.63 425.439
3351 0 77.1077 11.8017 910 87.1264 1361.52 423.357
3352 0 79.1249 12.6256 999 85.3954 1361.39 424.008
3353 0 82.1262 12.9191 1061 85.5966 1361.73 421.192
3354 0 84.134 12.4682 1049 86.2059 1361.61 421.554
3355 0 90.1278 12.0939 1090 87.056 1362.2 420.031
3356 0 90.1451 11.9363 1076 89.4963 1361.64 414.945
3357 0 96.1898 12.4857 1201 87.9675 1362.3 414.565
3358 0 97.1113 12.8821 1251 88.9976 1361.87 413.512
3359 0 101.136 12.1915 1233 90.146 1361.82 411.095
3360 1 52.1089 10.9194 569 84.2355 1362.9 437.745
3361 0 55.0561 11.8425 652 80.931 1363.19 436.923
3362 0 58.1129 12.3725 719 81.0125 1362.24 435.281
3363 0 60.106 12.1452 730 81.8123 1361.79 433.826
3364 0 59.0934 12.4549 736 84.3397 1362.77 432.74
3365 0 61.0804 12.7864 781 84.5608 1362.37 431.012
3366 0 62.0742 12.4206 771 83.1958 1362.53 430.704
3367 0 64.0635 12.3159 789 83.365 1362.07 431.617
3368 0 66.0991 12.3754 818 84.132 1362.25 430.356
3369 0 68.1263 11.8163 805 84.5205 1361.75 428.749
3370 0 71.0685 12.7201 904 83.5177 1361.92 428.36
3371 0 71.1032 11.9826 852 87.2277 1362.04 426.762
3372 0 74.0614 12.3951 918 85.6732 1361.88 426.998
3373 0 77.04 12.6558 975 86.0174 1361.76 424.298
3374 0 81.0648 12.9773 1052 85.4705 1361.25 422.955
3375 0 81.0622 12.1635 986 89.2596 1361.6 421.458
3376 0 81.0661 12.1259 983 141.18 1362.59 421.395
3377 0 87.1352 13.3585 1164 87.0876 1361.35 419.354
3378 0 91.0917 13.4041 1221 87.0934 1361.21 417.718
3379 0 91.1157 13.1591 1199 88.613 1361.39 416.551
3380 0 95.091 13.1032 1246 88.2022 1361.39 415.211
3381 0 99.0842 13.7257 1360 87.1544 1361.5 410.97
3382 0 101.136 12.9924 1314 93.9353 1361.24 410.447
3383 0 105.121 13.2323 1391 92.1991 1362.03 408.382
3384 0 107.143 13.6733 1465 92.8771 1361.18 406.648
3385 0 112.128 13.9573 1565 88.0243 1361.19 404.665
3386 0 116.151 13.7407 1596 87.9398 1362.54 405.154
3387 0 119.255 13.6347 1626 88.5258 1361.94 401.163
3388 1 65.1099 12.1026 788 83.7398 1361.7 429.636
3389 0 67.0887 11.9841 804 83.0522 1360.75 428.371
3390 0 69.117 12.5729 869 82.5305 1360.89 427.586
3391 0 71.1516 11.7917 839 85.18 1361.56 427.907
3392 0 75.1038 12.6492 950 83.6895 1361.57 426.059
3393 0 76.0907 13.1028 997 83.7111 1361.31 425.252
3394 0 79.105 12.4265 983 85.4669 1361.64 424.482
3395 0 81.103 13.1684 1068 86.0037 1361.13 421.671
3396 0 82.0978 12.814 1052 87.7871 1361.42 421.646
3397 0 86.125 13.0276 1122 87.6578 1361.34 420.242
3398 0 89.1077 13.3883 1193 88.8877 1361.51 418.314
3399 0 90.1185 13.8817 1251 89.9936 1360.56 416.743
3400 0 94.1319 14.1504 1332 91.5443 1360.93 415.846
3401 0 97.1931 13.715 1333 97.3466 1360.29 414.907
3402 0 100.213 13.8006 1383 96.3507 1360.95 412.338
3403 0 103.281 14.1943 1466 93.6214 1360.32 411.809
3404 0 106.149 13.5282 1436 95.2618 1360.67 409.618
3405 0 108.186 13.4491 1455 95.4419 1360.48 409.557
3406 1 58.1286 11.5606 672 88.5372 1361.23 436.571
3407 0 61.0463 11.6141 709 87.2327 1361.29 435.952
3408 0 61.0786 12.9342 790 85.6519 1360.41 434.468
3409 0 63.0879 11.9357 753 87.2922 1359.85 434.726
3410 0 65.0467 12.2681 798 87.5902 1360.08 433.376
3411 0 67.0788 12.3586 829 86.3727 1360 433.014
3412 0 67.0863 11.7163 786 87.9288 1359.49 434.324
3413 0 70.1054 12.1674 853 87.0305 1359.66 430.611
3414 0 72.0609 12.1286 874 86.7082 1359.71 429.842
3415 0 75.0499 12.1253 910 86.2956 1359.31 428.607
3416 0 78.1463 12.3358 964 85.7272 1359.61 428.009
3417 0 82.0714 12.4769 1024 84.7227 1359.42 426.127
3418 0 85.1868 13.5467 1154 82.7062 1359.48 423.653
3419 0 88.1341 12.81 1129 84.3924 1359.93 422.014
3420 0 91.0875 12.4935 1138 85.5808 1359.64 421.308
3421 0 94.1146 12.7292 1198 85.3272 1358.99 419.498
3422 1 49.0913 10.7351 527 84.2087 1358.92 442.639
3423 0 50.0816 11.1218 557 84.9497 1358.51 441.899
3424 0 54.1012 12.1254 656 87.3369 1360.48 440.078
3425 0 55.1483 12.4936 689 85.4427 1359.86 438.988
3426 0 54.1954 11.6615 632 86.5601 1359.76 440.408
3427 0 55.2395 10.7713 595 87.6454 1359.31 440.741
3428 0 58.1603 11.4683 667 84.3553 1359.62 438.817
3429 0 59.1049 11.8434 700 83.8829 1359.08 436.661
3430 0 62.082 11.5815 719 82.3658 1360.35 436.068
3431 0 64.0877 11.9056 763 82.3539 1359.75 433.481
3432 0 66.1205 12.2655 811 81.254 1359.82 432.332
3433 0 68.1303 12.0504 821 81.4044 1360.17 429.981
3434 0 69.1464 11.7432 812 81.5111 1360.53 432.952
3435 0 72.1096 11.7321 846 81.0154 1359.68 431.283
3436 0 73.1392 11.6217 850 82.5612 1359.91 427.988
3437 0 78.2719 12.546 982 79.8676 1359.14 427.963
3438 0 80.1664 12.2246 980 80.6847 1359.18 424.936
3439 0 82.0995 11.5957 952 81.7836 1359.11 422.806
3440 0 86.1939 12.1238 1045 81.7062 1359.1 422.349
3441 1 45.0525 11.0316 497 80.2978 1358.98 441.503
3442 0 46.1473 11.6583 538 81.2937 1359.49 440.883
3443 0 49.1502 12.4516 612 84.2059 1359.03 439.67
3444 0 49.1187 11.9303 586 82.1928 1359.09 439.041
3445 0 50.0516 11.7878 590 82.9085 1359.01 438.675
3446 0 51.0985 12.3683 632 82.0316 1358.96 436.717
3447 0 53.1147 11.3904 605 84.324 1359.42 436.436
3448 0 55.1538 12.2929 678 82.9366 1359.56 435.292
3449 0 56.167 11.9643 672 85.6786 1359.58 435.42
3450 0 58.1648 12.3786 720 84.4458 1359.96 433.932
3451 0 58.1525 12.4156 722 84.6593 1359.82 433.548
3452 0 60.1174 12.7916 769 85.0013 1360.01 432.057
3453 0 63.1244 12.5942 795 86.4868 1359.69 431.538
3454 0 65.1427 12.2807 800 88.0162 1358.78 429.993
3455 0 67.2151 12.3782 832 87.5805 1359.68 428.492
3456 0 68.0597 12.2099 831 89.0193 1359.68 425.856
3457 0 72.165 12.804 924 87.5357 1359.15 425.246
3458 0 75.1783 12.8628 967 87.1437 1359.16 424.543
3459 0 76.1245 11.8884 905 90.579 1359.05 424.52
3460 0 79.1741 12.6683 1003 88.343 1359.27 423.048
3461 0 80.1688 12.5111 1003 89.8584 1358.59 421.73
3462 0 84.1369 12.2776 1033 90.0707 1358.71 420.236
3463 0 87.1486 12.6106 1099 89.9445 1358.66 418.369
3464 1 48.1091 11.1829 538 85.9033 1359.48 438.056
3465 0 47.1399 10.4582 493 88.4381 1358.92 436.651
3466 0 50.217 11.3507 570 87.5912 1359.2 436.098
3467 0 53.234 11.9097 634 89.3659 1358.95 433.161
3468 0 53.1368 11.7809 626 87.0591 1359.08 434.105
3469 0 54.2501 11.2811 612 88.6356 1359 432.822
3470 0 56.1348 11.9712 672 87.8973 1358.56 431.749
3471 0 57.15 11.776 673 89.0208 1359.16 431.639
3472 0 59.2458 11.427 677 89.2068 1359.41 430.789
3473 0 62.1957 11.8015 734 88.5027 1359.13 427.815
3474 0 63.1785 12.6784 801 87.2047 1359.31 429.211
3475 0 68.2459 12.9385 883 86.7395 1359.41 427.335
3476 0 70.0928 12.5691 881 87.2804 1359.14 426.673
3477 0 72.2013 13.1854 952 87.9286 1359.51 425.682
3478 0 73.1189 13.0062 951 88.0137 1358.66 422.201
3479 0 74.0465 13.1404 973 86.2703 1359.7 421.766
3480 0 77.0351 12.3061 948 86.6466 1359.87 421.59
3481 0 80.0711 12.4015 993 86.1984 1360.51 419.444
3482 0 82.1075 12.0939 993 87.3897 1360.58 417.219
3483 0 86.0699 12.5944 1084 86.2057 1360.98 417.423
3484 0 87.2552 13.1224 1145 86.4585 1361.9 416.446
3485 0 90.2379 12.0016 1083 88.7027 1361.82 414.958
3486 0 93.2166 12.7767 1191 88.0672 1361.03 412.73
3487 0 96.2303 12.0025 1155 89.1126 1361.43 413.765
3488 0 98.3026 12.3598 1215 89.5103 1361.7 412.136
3489 0 101.233 12.0612 1221 90.7052 1361.86 409.643
3490 1 54.1566 10.8759 589 84.0441 1361.77 433.521
3491 0 56.1113 11.7445 659 84.4203 1361.42 431.847
3492 0 59.1641 12.3893 733 84.4502 1361.77 429.255
3493 0 61.1266 12.4987 764 81.551 1362 429.287
3494 0 61.1481 12.1345 742 84.5836 1362.26 428.593
3495 0 63.1346 12.0219 759 87.0092 1362.07 427.924
3496 0 64.1 12.1061 776 88.174 1361.99 426.631
3497 0 67.1551 12.4935 839 88.4124 1361.64 424.812
3498 0 70.1531 12.9004 905 86.3039 1361.41 424.591
3499 0 71.2255 12.4534 887 87.5423 1361.43 423.718
3500 0 73.2383 12.2067 894 86.7796 1361.48 422.729
3501 0 76.1635 13.1165 999 85.1742 1360.68 423.033
3502 0 79.1495 13.1144 1038 86.7929 1361.44 421.286
3503 0 81.1071 12.5143 1015 90.4315 1360.54 420.665
3504 0 83.1048 12.8994 1072 87.4506 1361.04 418.346
3505 0 86.1703 13.3573 1151 87.4648 1361.15 418.561
3506 0 90.1741 13.1745 1188 88.2929 1361.62 418.087
3507 0 91.1589 12.9773 1183 89.0549 1361.58 417.7
3508 0 92.1183 13.081 1205 91.0581 1361.03 416.273
3509 0 95.18 13.3431 1270 91.722 1361.27 413.434
3510 0 98.1077 12.9653 1272 93.4858 1360.5 413.414
3511 0 103.163 12.9892 1340 99.8828 1360.65 412.128
3512 0 106.186 13.0337 1384 99.2052 1360.96 409.083
3513 1 57.1575 10.7073 612 96.1977 1360.66 435.108
3514 0 59.2003 10.9797 650 98.4954 1361.19 432.968
3515 0 61.1502 12.1668 744 93.6694 1361.08 432.129
3516 0 63.0549 12.5763 793 90.6545 1361.57 431.356
3517 0 66.1414 13.1234 868 88.1118 1360.5 431.358
3518 0 65.1241 12.7603 831 88.3815 1361.13 431.818
3519 0 67.0889 11.522 773 91.9612 1361.09 431.802
3520 0 70.0755 12.2582 859 89.7602 1361.25 431.992
3521 0 71.1089 12.9238 919 88.6072 1360.21 429.868
3522 0 72.0961 12.4417 897 90.6589 1360.31 428.535
3523 0 75.0896 12.8513 965 90.4808 1360.39 427.258
3524 0 78.1875 12.6619 990 90.8919 1359.91 425.006
3525 0 79.0878 12.8465 1016 91.7726 1360.38 425.188
3526 0 80.0944 12.7724 1023 91.8123 1360 422.554
3527 0 85.0886 14.1029 1200 89.3458 1359.95 421.174
3528 0 86.0533 13.3871 1152 91.5556 1359.5 420.602
3529 0 88.117 13.414 1182 91.253 1359.14 418.079
3530 0 92.1006 13.9739 1287 89.2339 1359.88 417.567
3531 0 93.1401 13.1737 1227 91.6121 1359.87 415.2
3532 0 95.1071 13.2903 1264 92.3774 1360.04 414.368
3533 0 96.1567 13.322 1281 94.4418 1359.69 412.544
3534 0 101.201 13.7647 1393 91.5578 1360.32 410.04
3535 0 104.156 14.0847 1467 91.0259 1360.31 408.885
3536 0 107.165 14.361 1539 89.8876 1360.61 407.419
3537 0 109.186 14.3791 1570 91.6688 1360.11 404.729
3538 0 110.127 14.229 1567 94.6305 1360.47 403.283
3539 0 116.154 15.0835 1752 93.4503 1360.41 400.66
3540 0 118.176 14.3769 1699 94.2348 1359.94 397.971
3541 0 122.136 14.181 1732 94.2731 1360.19 396.07
3542 0 126.223 14.0624 1775 93.667 1359.72 392.935
3543 0 129.141 13.7602 1777 92.5318 1360.32 391.475
3544 0 134.155 14.2894 1917 90.5483 1360.31 391.65
3545 0 137.171 13.6399 1871 92.2293 1361.2 390.835
3546 0 143.136 14.1195 2021 90.4038 1361.51 389.182
3547 0 148.152 16.0983 2385 87.7082 1361.6 381.593
3548 0 150.114 14.4024 2162 92.9806 1361.14 382.054
3549 0 154.154 14.3947 2219 94.2078 1361.28 379.014
3550 0 159.134 14.2773 2272 94.4195 1361.46 374.507
3551 0 165.218 13.9694 2308 94.4558 1362.27 373.942
3552 1 93.0874 11.9458 1112 89.321 1362.88 411.692
3553 0 96.0851 13.3736 1285 86.6459 1362.01 407.366
3554 0 99.1166 12.0565 1195 89.2619 1362.35 407.725
3555 0 102.111 12.6039 1287 88.1608 1362.08 404.816
3556 0 105.088 12.5324 1317 88.7563 1362.05 403.012
3557 0 108.098 13.2657 1434 90.1583 1362.91 400.842
3558 0 111.132 12.8586 1429 91.4451 1362.82 399.337
3559 0 113.07 12.762 1443 92.3714 1363.11 395.654
3560 0 116.163 13.0334 1514 90.8976 1362.43 395.686
3561 0 122.165 14.0874 1721 88.1191 1362.54 392.619
3562 0 124.117 13.31 1652 90.5363 1362.54 391.581
3563 0 130.142 13.6159 1772 89.469 1362.8 388.042
3564 0 132.106 13.4816 1781 91.5823 1362.4 386.404
3565 0 136.111 13.6948 1864 90.6744 1362.73 382.799
3566 0 141.102 13.4087 1892 91.1068 1362.3 383.233
3567 0 145.204 13.7531 1997 92.5553 1362.32 381.648
3568 0 152.122 13.5155 2056 92.5418 1362.61 378.918
3569 0 154.15 12.7019 1958 93.0608 1362.6 375.759
3570 1 88.0941 10.8974 960 84.7729 1363.03 411.469
3571 0 91.1707 11.3523 1035 82.6454 1363.77 409.077
3572 0 92.1328 10.9082 1005 82.5035 1363.33 409.558
3573 0 95.1219 11.2697 1072 81.5065 1363.59 409.219
3574 0 99.1524 10.9831 1089 83.0854 1363.63 408.191
3575 0 103.144 11.1397 1149 81.886 1364.21 408.123
3576 0 105.206 11.1306 1171 82.0649 1364.06 404.499
3577 0 109.21 11.0979 1212 82.4917 1364.52 402.029
3578 0 114.18 11.6133 1326 81.2255 1364.21 401.78
3579 0 116.236 11.7348 1364 80.9531 1364.47 399.012
3580 0 121.267 12.3859 1502 80.2097 1363.56 396.222
3581 1 68.184 11.1463 760 76.1329 1364.29 423.114
3582 0 71.1754 11.563 823 74.034 1364.81 422.007
3583 0 72.1607 11.2527 812 75.8522 1364.36 422.034
3584 0 75.18 11.9314 897 72.8317 1364.27 420.735
3585 0 73.2048 10.4365 764 77.8089 1364.97 423.898
3586 0 76.1474 10.9393 833 78.2389 1364.61 419.564
3587 0 80.1892 11.4354 917 77.1439 1365.36 419.176
3588 0 83.285 11.1545 929 77.0086 1364.93 418.896
3589 0 86.2902 10.8703 938 76.9371 1364.47 418.47
3590 0 86.2257 10.3797 895 77.7832 1364.52 417.328
3591 0 90.2912 10.9756 991 78.11 1364.29 415.649
3592 0 95.2799 12.4895 1190 77.8319 1364.99 413.634
3593 0 98.3055 12.217 1201 81.0483 1364.89 411.595
3594 0 101.317 12.3375 1250 83.8264 1364.78 409.034
3595 0 105.221 12.4119 1306 84.8721 1364.24 407.606
3596 0 106.223 11.6735 1240 87.2637 1364.32 406.272
3597 0 111.153 11.9744 1331 86.8392 1364.72 402.962
3598 0 112.22 11.9676 1343 88.1437 1365.25 401.893
3599 0 117.167 12.145 1423 87.9775 1364.7 400.085
3600 1 60.1573 10.7884 649 81.2573 1365.22 429.937
3601 0 62.0589 11.2474 698 86.9097 1365.25 427.454
3602 0 64.1209 11.1352 714 82.8151 1365.06 429.468
3603 0 64.0992 11.0298 707 84.5813 1365.25 427.805
3604 0 66.109 11.118 735 84.9252 1364.11 425.752
3605 0 70.2694 11.1713 785 83.7185 1363.92 426.104
3606 0 72.1652 11.8201 853 83.5533 1364.33 425.252
3607 0 73.1722 11.9854 877 85.1015 1364.12 425.701
3608 0 76.1681 12.4855 951 85.265 1364.07 423.469
3609 0 77.144 12.6128 973 87.1963 1363.8 421.049
3610 0 81.2304 12.8523 1044 87.6715 1363.35 420.782
3611 0 82.158 12.6707 1041 90.9981 1363.2 419.893
3612 0 85.1774 13.5717 1156 90.9282 1362.91 418.588
3613 0 89.1481 13.5841 1211 91.3295 1363.35 418.068
3614 0 91.1288 13.6949 1248 92.8221 1363.28 417.025
3615 0 92.2929 12.7637 1178 97.6774 1363.25 414.239
3616 0 95.1159 13.4888 1283 96.5238 1363.41 414.659
3617 0 98.1063 13.2713 1302 97.6989 1363.21 412.204
3618 0 101.096 13.5712 1372 97.5204 1362.94 413.04
3619 0 103.152 13.1456 1356 101.055 1362.57 410.344
3620 0 107.105 13.1833 1412 100.49 1362.32 411.147
3621 0 110.195 12.8137 1412 103.827 1361.5 408.093
3622 0 112.173 13.4703 1511 104.784 1361.59 406.784
3623 0 114.143 13.4218 1532 105.528 1361.19 405.55
3624 1 65.1244 12.4992 814 105.618 1360.97 430.441
3625 0 68.1072 13.2145 900 109.923 1360.89 429.091
3626 0 69.0509 13.2221 913 110.732 1361.4 425.604
3627 0 70.1617 13.6969 961 109.984 1361.58 427.659
3628 0 70.0782 13.2424 928 109.214 1360.34 428.32
3629 0 73.1098 13.3088 973 106.688 1360.32 427.051
3630 0 75.1131 13.9656 1049 109.827 1360.48 425.529
3631 0 77.0885 13.2575 1022 111.53 1360.76 424.164
3632 0 81.0511 13.7568 1115 107.911 1360.29 423.735
3633 0 84.0859 14.1403 1189 107.622 1360.52 422.663
3634 0 86.1151 13.9465 1201 107.848 1360.09 421.376
3635 0 91.1034 13.8743 1264 106.919 1360.36 420.6
3636 0 92.094 13.7577 1267 110.224 1359.83 417.631
3637 0 96.0966 13.8402 1330 112.188 1359.77 415.619
3638 0 98.0642 14.1744 1390 110.967 1359.51 414.092
3639 0 101.072 13.9109 1406 112.471 1360.48 412.55
3640 0 105.152 13.3712 1406 113.1 1359.57 411.371
3641 0 108.112 14.263 1542 111.484 1359.84 409.838
3642 1 58.04 11.0958 644 113.438 1360.58 434.526
3643 0 60.0325 12.4099 745 104.451 1361.23 434.085
3644 0 61.029 12.4039 757 101.18 1360.38 433.081
3645 0 62.055 12.36 767 101.731 1359.9 432.103
3646 0 64.0505 12.2403 784 102.224 1359.97 430.978
3647 0 63.0458 12.2133 770 103.795 1361.01 431.068
3648 0 64.0206 12.4491 797 102.529 1361.72 429.153
3649 0 68.1062 12.4805 850 102.019 1360.92 427.009
3650 0 70.0707 13.1581 922 99.9664 1360.59 428.243
3651 0 71.0753 13.1269 933 100.644 1361.37 428.137
3652 0 75.0852 13.0252 978 100.948 1361.31 426.125
3653 0 75.0969 13.0764 982 102.517 1361.07 425.774
3654 0 77.0984 12.6462 975 103.804 1361.56 423.027
3655 0 79.0789 13.379 1058 101.782 1361.07 421.867
3656 0 82.0783 13.414 1101 102.657 1361.17 419.7
3657 0 85.0994 13.1963 1123 103.675 1361.98 419.112
3658 0 88.1064 14.4371 1272 101.061 1361.69 416.345
3659 0 89.0511 13.1048 1167 105.506 1361.58 416.361
3660 0 91.1154 13.642 1243 105.774 1361.84 414.212
3661 0 95.0983 13.4282 1277 105.636 1361.79 415.051
3662 0 97.1307 13.8473 1345 105.618 1362.21 411.635
3663 0 99.0743 13.1719 1305 108.063 1362.02 410.576
3664 0 104.114 14.2248 1481 104.888 1362.13 408.847
3665 0 107.144 14.3452 1537 104.664 1361.93 407.837
3666 0 111.166 14.4468 1606 104.806 1362.07 405.907
3667 0 113.102 14.5356 1644 104.999 1361.78 403.245
3668 0 117.244 14.3717 1685 105.296 1361.73 401.255
3669 0 121.268 14.6122 1772 104.708 1361.9 396.292
3670 1 69.0859 11.9272 824 97.4357 1362.14 419.578
3671 0 71.0676 11.8057 839 97.2133 1362.08 416.743
3672 0 72.1341 12.4213 896 96.7522 1361.93 416.2
3673 0 74.146 13.2307 981 96.2732 1362.38 420.472
3674 0 77.1077 12.8911 994 99.1569 1361.86 419.665
3675 0 79.1017 13.2614 1049 97.8179 1362.32 418.292
3676 0 83.0708 13.8557 1151 95.9957 1362.53 417.725
3677 0 85.153 13.4934 1149 97.6258 1362.26 416.479
3678 0 87.218 13.3 1160 96.3578 1363.06 415.365
3679 0 91.2153 12.9584 1182 96.0863 1362.91 416.443
3680 0 94.2054 14.0013 1319 94.9409 1362.53 415.704
3681 0 95.1472 13.2321 1259 97.1136 1362.33 414.724
3682 0 99.1473 14.07 1395 94.8358 1361.87 413.774
3683 0 102.262 13.6512 1396 96.5201 1362.17 411.518
3684 0 105.311 13.5029 1422 97.1962 1361.98 411.936
3685 0 107.254 13.5473 1453 99.4515 1361.83 410.242
3686 0 113.339 14.0199 1589 97.8024 1361.98 405.504
3687 0 117.377 13.6653 1604 100.622 1362.42 402.297
3688 0 122.318 13.8327 1692 100.028 1362.26 400.356
3689 0 126.35 14.08 1779 98.1641 1361.94 397.885
3690 0 128.12 13.8542 1775 96.3054 1361.29 390.36
3691 0 135.351 14.4291 1953 97.8249 1361.02 395.892
3692 1 74.1516 13.0274 966 98.1429 1361 425.866
3693 0 76.194 13.5313 1031 98.9641 1361.16 423.711
3694 0 77.2851 12.7709 987 101.026 1361.71 422.875
3695 0 80.1999 13.1546 1055 99.8445 1361.46 421.086
3696 0 84.232 13.8546 1167 97.8312 1361.6 419.182
3697 0 87.2659 13.5792 1185 98.1139 1360.91 418.248
3698 0 89.2374 14.0972 1258 97.558 1361.46 415.878
3699 0 91.2654 13.5648 1238 98.933 1360.98 415.469
3700 0 94.1431 13.9044 1309 98.0283 1360.95 413.892
3701 0 97.1229 13.6013 1321 99.3187 1360.56 411.74
3702 0 101.148 13.2974 1345 98.7041 1359.94 410.306
3703 0 103.087 13.1927 1360 98.7838 1360.29 409.383
3704 0 107.089 13.7082 1468 97.3958 1360.87 408.232
3705 0 108.105 13.6163 1472 97.0673 1360.4 406.056
3706 0 112.157 13.5524 1520 96.223 1361.29 404.712
3707 1 49.0161 10.8536 532 82.032 1360.24 439.65
3708 0 51.0306 10.7582 549 86.7778 1359.05 437.77
3709 0 49.2109 10.0384 494 82.5911 1361.86 438.672
3710 0 51.0926 10.6473 544 80.3824 1362.02 439.502
3711 0 52.1306 11.0492 576 80.342 1362.07 438.002
3712 0 53.0855 11.2837 599 80.5292 1361.38 436.467
3713 0 56.1176 10.8344 608 79.4655 1361.42 435.97
3714 0 57.1251 11.4135 652 79.7853 1361.29 436.063
3715 0 57.1542 10.323 590 82.2508 1361.97 435.431
3716 0 61.1015 11.4727 701 79.4765 1361.04 433.649
3717 0 59.1579 10.903 645 80.8977 1360.75 432.833
3718 0 63.0971 11.5219 727 79.6162 1361.01 431.641
3719 0 65.1077 11.673 760 79.7934 1361.1 430.241
3720 0 66.1523 11.4886 760 79.95 1361.18 430.241
3721 0 69.112 12.6317 873 77.8202 1361.57 428.609
3722 0 69.1314 13.3659 924 77.0974 1360.58 425.071
3723 0 70.1408 11.8619 832 81.3966 1360.66 426.129
3724 0 71.1515 11.609 826 80.0593 1360.77 426.061
3725 0 73.1361 11.882 869 80.1784 1360.59 424.507
3726 0 75.1096 12.1689 914 80.5919 1360.89 422.776
3727 0 78.0654 12.2077 953 81.0808 1360.33 421.576
3728 0 80.0851 12.3119 986 80.2901 1360.66 421.065
3729 0 81.1789 12.7127 1032 80.0388 1360.09 418.717
3730 0 83.0874 12.3725 1028 81.2763 1360.14 417.519
3731 0 87.1771 13.398 1168 78.6413 1359.96 415.88
3732 0 90.126 12.9263 1165 87.794 1360.8 412.921
3733 0 95.2764 13.4346 1280 85.4297 1360.72 413.052
3734 0 98.1556 13.3258 1308 85.857 1361 413.466
3735 0 100.075 13.0403 1305 88.1241 1360.78 411.694
3736 0 101.131 13.0029 1315 88.784 1360.75 409.779
3737 0 108.209 16.8286 1821 76.8199 1360.06 402.898
3738 0 108.148 14.212 1537 86.8874 1360.63 406.351
3739 0 112.152 13.8116 1549 85.9923 1360.42 404.715
3740 0 113.143 13.5404 1532 89.9458 1360.97 402.578
3741 0 117.179 13.9957 1640 87.7835 1360.6 399.07
3742 0 120.205 14.0427 1688 87.4242 1361.31 398.566
3743 0 122.272 14.1733 1733 87.8477 1361.19 396.932
3744 0 128.199 13.908 1783 87.9187 1361.56 394.344
3745 0 130.177 14.0117 1824 88.7571 1361.99 392.505
3746 0 135.236 14.0347 1898 88.5743 1361.92 392.004
3747 0 139.239 14.6798 2044 87.4628 1362.03 389.559
3748 0 144.23 14.3937 2076 88.04 1360.81 385.194
3749 0 148.179 13.7064 2031 90.6268 1361.38 384.709
3750 0 155.198 14.9616 2322 88.2739 1361.21 379.008
3751 1 90.0864 11.6666 1051 87.3254 1360.89 419.004
3752 0 89.1241 12.5219 1116 89.3925 1361.19 415.611
3753 0 91.0829 13.0211 1186 93.0396 1361.73 413.623
3754 0 95.1252 13.3508 1270 91.8795 1361.51 413.017
3755 0 97.1083 13.0988 1272 92.1824 1361.75 412.39
3756 0 101.129 13.4877 1364 90.6342 1361.55 409.789
3757 0 102.135 12.4345 1270 82.2205 1361 410.035
3758 0 104.129 12.2637 1277 83.3383 1360.62 409.888
3759 0 106.075 12.4817 1324 83.5989 1360.31 407.628
3760 0 111.096 12.8178 1424 82.7388 1360.61 407.107
3761 0 115.144 14.3211 1649 81.1237 1360.84 401.591
3762 0 116.104 13.8496 1608 83.8085 1361.35 401.823
3763 0 119.155 13.0586 1556 85.7879 1360.19 401.274
3764 0 123.118 13.1662 1621 86.6379 1360.4 399.512
3765 0 125.069 12.5691 1572 87.979 1360.62 399.193
3766 0 128.083 13.0306 1669 88.9479 1360.35 396.185
3767 0 135.14 13.8153 1867 87.7702 1360.53 393.537
3768 0 137.112 14.2074 1948 90.5939 1360.46 390.417
3769 0 141.132 13.8381 1953 92.5172 1360.95 391.356
3770 0 144.197 13.3776 1929 94.9559 1361.38 389.809
3771 0 148.194 13.6105 2017 96.706 1361.34 386.65
3772 0 156.172 14.1383 2208 98.7278 1362.04 384.389
3773 0 158.136 14.4685 2288 100.328 1361.6 380.226
3774 0 163.293 14.3179 2338 100.574 1361.54 377.134
3775 0 167.319 13.9613 2336 103.101 1361.44 376.779
3776 0 172.261 13.7465 2368 103.285 1361.72 370.24
3777 0 177.228 13.4065 2376 101.123 1361.48 363.359
3778 0 189.172 18.6074 3520 86.3577 1361.12 348.482
3779 0 193.175 16.85 3255 91.7407 1361.08 346.709
3780 0 194.225 14.4471 2806 100.321 1360.52 349.16
3781 0 200.359 14.2894 2863 101.505 1360.38 346.905
3782 0 202.212 12.7737 2583 106.094 1360.13 344.053
3783 0 209.351 15.486 3242 97.0046 1360.35 338.424
3784 1 42.1023 9.02563 380 79.0184 1360.95 427.826
3785 0 48.0374 10.2837 494 82.2247 1360.46 429.316
3786 0 49.1563 11.3312 557 83.8618 1362.15 435.463
3787 0 51.0603 11.6333 594 83.7727 1361.74 436.875
3788 0 51.1184 11.4832 587 85.5537 1362.19 435.179
3789 0 52.0549 11.7376 611 84.91 1362.13 432.895
3790 0 54.0307 11.8636 641 85.5086 1362.25 431.755
3791 0 55.0741 11.9112 656 86.8476 1361.89 431.907
3792 0 57.0534 11.7259 669 86.8296 1362.13 430.87
3793 0 63.0921 14.0113 884 78.1968 1361.8 427.248
3794 0 63.1101 12.708 802 82.9813 1361.83 427.07
3795 0 64.0837 11.7191 751 84.8655 1361.61 427.296
3796 0 64.1253 11.883 762 86.2428 1362.31 427.656
3797 0 63.1571 10.9885 694 90.0548 1361.04 427.32
3798 0 66.1647 10.625 703 89.9488 1361.97 427.858
3799 0 68.3911 11.1857 765 89.3843 1361.47 424.535
3800 0 68.1425 11.0063 750 91.2533 1360.99 420.987
3801 0 70.1647 11.4587 804 91.3769 1360.54 418.234
3802 0 71.2246 10.867 774 91.2881 1361.81 421.008
3803 0 71.2302 11.0206 785 91.6752 1361.15 419.704
3804 0 74.1266 11.2375 833 94.8788 1363.18 418.366
3805 0 78.0998 11.2548 879 93.8862 1362.47 416.697
3806 0 77.0575 11.1475 859 95.2969 1363.35 414.183
3807 0 80.0826 12.0001 961 94.3132 1364.09 412.959
3808 0 83.0747 11.6522 968 94.5888 1363.54 412.232
3809 0 87.1063 11.9624 1042 93.1228 1364.2 410.345
3810 0 89.0972 11.6502 1038 93.7524 1364.1 408.487
3811 0 90.1963 11.985 1081 93.9593 1364.21 407.691
3812 0 93.1887 11.7718 1097 94.433 1363.92 406.63
3813 0 95.2087 11.4695 1092 95.7592 1364.26 403.513
3814 1 53.0427 9.04932 480 89.0146 1364.47 424.229
3815 0 54.0473 9.49168 513 87.2846 1364.25 424.809
3816 0 57.0802 10.1086 577 83.9844 1364.02 423.797
3817 0 57.0456 10.7107 611 84.5892 1363.3 423.619
3818 0 59.0659 11.0216 651 87.2873 1365.01 429.951
3819 0 60.0842 10.7849 648 88.7809 1365.13 429.358
3820 0 62.0585 11.2636 699 87.9242 1364.61 428.582
3821 0 64.0823 11.6413 746 86.8338 1363.92 427.773
3822 0 64.0471 11.4291 732 87.2104 1363.98 427.738
3823 0 66.0644 11.0347 729 88.6036 1363.62 425.757
3824 0 66.0339 10.5552 697 89.9053 1363.93 425.075
3825 0 68.0849 11.2653 767 88.3729 1363.9 425.383
3826 0 72.1071 11.3165 816 87.5735 1363.44 425.042
3827 0 70.0674 10.9323 766 88.9047 1362.96 423.774
3828 0 73.0518 12.1421 887 87.2897 1363.68 422.23
3829 0 76.0782 11.8299 900 87.3133 1363.68 422.948
3830 0 76.0656 12.3578 940 87.9011 1362.73 420.165
3831 0 78.0401 12.6089 984 86.3801 1363.09 419.869
3832 0 79.0554 12.8897 1019 86.2022 1363.02 420.131
3833 0 80.1237 12.3809 992 87.3276 1362.95 419.784
3834 0 82.0908 13.1318 1078 86.3822 1362.77 418.613
3835 0 83.0417 12.3793 1028 87.7364 1362.35 417.467
3836 0 86.1278 13.2478 1141 84.7897 1362.39 418.948
3837 0 86.1181 13.1215 1130 86.8867 1362.51 417.571
3838 0 88.1574 13.4078 1182 86.4992 1361.69 416.134
3839 0 88.1251 13.1177 1156 87.0095 1362.45 416.476
3840 0 90.0863 13.92 1254 86.2974 1362.22 414.564
3841 0 90.1437 13.2344 1193 88.9053 1362.35 414.35
3842 0 93.1857 13.7897 1285 86.5564 1361.58 414.953
3843 0 92.1952 14.1005 1300 88.1877 1361.95 413.823
3844 0 93.1882 13.9288 1298 88.0154 1362.22 413.962
3845 0 94.1914 14.1202 1330 87.8165 1362.01 412.068
3846 0 93.1675 13.9856 1303 88.921 1361.85 412.269
3847 0 96.1374 13.8032 1327 88.2442 1361.63 411.048
3848 0 96.2032 14.2199 1368 87.7405 1361.1 410.224
3849 0 98.1646 14.9035 1463 86.6487 1361.23 411.053
3850 0 97.3242 14.2719 1389 88.6616 1361.87 411.72
3851 0 96.2262 14.1022 1357 88.3073 1362.03 411.643
3852 0 100.23 13.5389 1357 86.8055 1362.26 410.509
3853 0 101.163 14.7584 1493 83.4869 1361.47 410.642
