time division length width area intensity CMx CMy
0 0 36.0237 12.1031 436 133.665 178.826 524.541
1 0 38.0235 12.0452 458 132.074 177.858 523.253
2 0 39.0316 12.1184 473 130.112 178.156 524.383
3 0 40.0528 12.8081 513 127.019 177.846 523.366
4 0 43.0065 12.1842 524 127.017 177.8 523.908
5 0 42.0244 12.1358 510 125.298 177.845 523.29
6 0 44.0245 12.4249 547 121.863 178.192 522.669
7 0 45.0462 12.6981 572 119.584 177.97 521.876
8 0 48.0349 12.7199 611 117.614 177.622 520.99
9 0 50.0461 12.5285 627 117.15 178.124 521.368
10 0 52.0247 12.9746 675 114.563 177.544 520.759
11 0 52.0583 13.2544 690 114.026 177.323 518.732
12 0 54.0374 13.028 704 112.291 177.815 517.959
13 0 55.0895 13.4145 739 111.172 176.823 517.352
14 0 59.0287 13.6544 806 107.261 176.416 515.855
15 0 61.0358 12.9105 788 108.708 176.425 515.626
16 0 62.064 13.051 810 107.862 176.781 515.258
17 0 65.0356 12.7776 831 106.526 176.526 511.307
18 0 66.1123 13.9913 925 102.608 176.01 512.034
19 0 70.0604 13.8595 971 101.735 176.205 508.637
20 0 72.1668 13.5519 978 101.936 175.862 508.742
21 0 73.0784 13.4239 981 102.751 175.894 508.531
22 0 76.0853 13.5637 1032 109.47 175.788 506.177
23 0 78.0763 13.0257 1017 109.195 176.112 505.836
24 0 81.1388 12.7066 1031 109.241 175.886 505.65
25 0 83.0744 13.1448 1092 106.555 175.647 503.856
26 0 88.1321 12.9919 1145 103.935 175.509 503.638
27 0 89.1543 12.5849 1122 105.439 175.463 502.089
28 1 44.0498 11.487 506 101.458 176.095 524.972
29 0 47.0137 11.0181 518 99.1699 175.782 524.255
30 0 48.0282 11.9929 576 96.8906 175.778 523.411
31 0 48.0688 12.3989 596 96.2836 176.309 522.55
32 0 51.0608 12.1228 619 95.2843 176.262 521.745
33 0 53.0646 12.7957 679 92.676 175.854 520.984
34 0 53.0638 12.2871 652 105.733 175.23 519.003
35 0 56.035 12.635 708 102.982 175.131 518.36
36 0 60.0477 12.4901 750 100.761 175.749 517.485
37 0 61.0492 12.4654 761 102.068 174.683 514.639
38 0 61.0671 12.7892 781 101.036 174.739 512.991
39 0 65.0425 12.9608 843 98.7592 174.148 511.766
40 0 66.057 12.1259 801 100.91 175.307 511.199
41 0 69.0728 13.3917 925 94.3903 175.339 509.909
42 0 68.0524 12.652 861 97.3298 175.542 508.97
43 0 73.1349 12.4838 913 95.9901 174.865 508.762
44 0 74.1105 12.7377 944 97.3559 174.889 506.839
45 0 76.1647 12.3285 939 97.9723 174.456 505.127
46 0 79.0934 12.0111 950 97.8663 174.844 504.998
47 0 82.0679 12.5506 1030 97.1049 175.308 503.618
48 0 85.0442 12.9345 1100 98.3755 174.359 501.541
49 0 86.0866 12.4526 1072 97.7789 174.542 501.57
50 1 46.0238 11.342 522 92.364 174.467 522.163
51 0 47.0657 11.792 555 90.9459 175.548 522.232
52 0 48.0113 11.893 571 90.5972 175.457 520.956
53 0 50.0165 12.4159 621 89.285 175.258 520.147
54 0 48.0472 12.1963 586 95.0102 175.449 520.541
55 0 52.1461 12.5225 653 91.5482 175.599 519.867
56 0 54.0844 12.4065 671 92.8629 175.697 517.885
57 0 57.0763 12.3344 704 92.5256 175.672 516.456
58 0 57.0877 11.9465 682 97.8974 175.199 516.843
59 0 59.0631 12.2412 723 92.5823 176.102 516.882
60 0 61.0981 12.5208 765 93.0039 175.224 513.958
61 0 63.0597 12.7815 806 93.5707 175.736 513.504
62 0 63.0255 12.1062 763 96.3879 175.619 513.035
63 0 66.0504 12.5813 831 96.4116 176.099 510.508
64 0 69.0817 12.8978 891 96.1897 175.222 509.819
65 0 71.1159 13.2319 941 96.4942 175.599 510.09
66 0 74.1373 13.3806 992 95.9355 174.894 507.811
67 0 75.1219 13.0721 982 99.1589 174.444 508.3
68 0 77.0929 13.3216 1027 99.7848 174.278 505.113
69 0 79.137 13.028 1031 100.114 174.246 505.815
70 0 82.1005 12.6552 1039 101.668 174.129 503.383
71 0 85.077 12.7884 1088 100.569 174.863 503.546
72 0 89.0939 13.2894 1184 99.0532 174.38 499.9
73 0 91.1192 12.9281 1178 99.6528 175.04 499.181
74 0 92.0612 13.3064 1225 99.5143 174.56 498.02
75 0 97.1838 13.706 1332 89.9077 174.476 496.557
76 1 52.0341 11.012 573 95.8325 175.183 520.063
77 0 53.0236 11.0328 585 96.9248 174.643 518.304
78 0 53.0138 10.8651 576 97.8993 174.797 517.571
79 0 55.0766 11.8744 654 94.3838 174.346 516.182
80 0 58.0405 12.1467 705 93.7844 174.444 515.797
81 0 59.0962 12.4204 734 93.0981 174.68 515.323
82 0 58.0538 11.7822 684 92.883 174.213 517.535
83 0 61.151 12.5918 770 91.2558 173.681 515.379
84 0 64.1149 12.7116 815 91.2687 173.92 514.55
85 0 64.0827 12.1406 778 94.8072 173.652 513.548
86 0 66.2304 12.3659 819 94.2295 174.559 514.07
87 0 68.2568 12.116 827 95.0387 173.988 512.635
88 0 72.1728 12.2207 882 95.4637 174.771 510.141
89 0 74.2319 12.5014 928 95.6444 174.304 508.352
90 0 75.2393 12.4004 933 98.1222 174.99 508.234
91 0 77.1938 12.9415 999 97.7407 174.829 505.405
92 0 79.1818 12.5029 990 99.3768 174.034 504.572
93 0 82.214 12.9418 1064 98.7585 174.104 502.325
94 0 84.2085 13.0034 1095 99.4776 173.7 502.231
95 0 86.2754 13.2483 1143 99.2861 174.277 501.133
96 0 90.235 13.3097 1201 97.3239 173.824 498.991
97 0 91.2149 13.2215 1206 97.1003 173.51 498.187
98 0 95.1763 13.2491 1261 96.4266 173.806 496.925
99 0 97.2751 13.0455 1269 96.7991 174.035 496.259
100 0 101.277 13.5173 1369 93.8159 174.166 493.462
101 0 104.265 12.7367 1328 95.4789 174.407 491.761
102 0 106.215 11.9569 1270 97.9118 173.676 490.287
103 0 108.235 11.8446 1282 97.7379 173.367 486.847
104 0 110.295 11.977 1321 97.9379 173.46 485.094
105 0 113.314 11.3402 1285 97.6623 174.286 481.016
106 0 117.226 12.0621 1414 97.0481 174.26 479.725
107 0 121.31 11.994 1455 97.5258 174.23 476.939
108 0 127.15 11.5847 1473 98.4311 174.306 475.512
109 1 64.085 10.2832 659 88.1184 174.197 510.636
110 0 64.186 10.1112 649 86.8891 175.331 507.416
111 0 70.0725 11.5024 806 95.7891 174.153 509.747
112 0 70.1374 10.7218 752 88.5253 175.988 512.767
113 0 71.1394 11.2736 802 89.8566 174.96 512.421
114 0 73.1003 11.3679 831 90.7593 174.664 511.19
115 0 76.1203 11.0614 842 91.962 174.967 510.353
116 0 79.1685 11.4566 907 91.5799 174.561 509.071
117 0 81.1696 11.8271 960 91.0438 174.572 507.412
118 0 81.1377 11.2278 911 94.674 174.172 506.37
119 0 87.1203 12.1556 1059 94.389 174.044 503.297
120 0 89.2257 11.6783 1042 108.159 174.562 502.649
121 0 93.1483 12.3566 1151 106.042 174.663 500.793
122 0 94.1761 12.2112 1150 106.806 174.229 498.792
123 0 97.117 12.1709 1182 104.215 174.091 499.501
124 0 99.1644 12.2625 1216 104.27 174.15 499.203
125 0 102.226 12.0029 1227 103.496 174.474 495.444
126 0 106.144 12.2758 1303 102.785 174.038 494.312
127 0 107.146 12.5063 1340 103.014 173.548 492.456
128 0 111.12 12.545 1394 103.681 173.826 491.409
129 0 114.209 12.9499 1479 103.532 174.912 489.199
130 0 117.108 13.0905 1533 103.288 174.334 488.157
131 0 122.178 12.4817 1525 102.635 173.609 486.691
132 0 125.152 12.9123 1616 103.663 173.12 485.366
133 0 129.253 13.4929 1744 101.868 172.92 482.121
134 1 81.077 11.3226 918 97.9237 174.387 508.332
135 0 83.0703 11.8574 985 96.2822 174.24 504.692
136 0 87.06 12.0262 1047 95.5912 173.736 504.376
137 0 89.0917 12.7846 1139 100.165 174.637 500.833
138 0 93.119 13.2089 1230 97.3106 174.681 501.977
139 0 94.071 13.2559 1247 98.7017 174.164 500.591
140 0 96.0927 13.4974 1297 97.3454 174.023 499.064
141 0 98.104 13.2105 1296 100.823 173.323 499.583
142 0 101.156 13.1876 1334 101.545 173.305 497.504
143 0 104.11 12.4964 1301 101.136 173.786 494.586
144 0 109.143 12.7081 1387 99.336 173.308 493.909
145 0 111.166 12.2519 1362 99.4721 174.048 491.592
146 0 113.207 12.4285 1407 97.4797 173.81 491.476
147 1 60.0477 11.5075 691 91.7583 173.984 518.077
148 0 61.0421 11.2873 689 93.9419 174.598 517.267
149 0 64.0731 12.1268 777 93.1866 173.525 515.29
150 0 64.0717 12.6265 809 95.3424 172.433 514.841
151 0 68.0146 12.4973 850 95.5612 172.698 513.582
152 0 67.046 12.2155 819 96.6947 172.744 512.928
153 0 71.0588 13.327 947 93.6895 172.767 511.402
154 0 73.0238 13.0368 952 93.6439 172.532 510.283
155 0 75.0466 12.8454 964 93.0083 173.046 509.804
156 0 76.0997 12.6807 965 93.2508 173.123 508.724
157 0 80.0997 12.7966 1025 91.2566 173.941 507.296
158 0 83.0825 12.9028 1072 90.3088 173.593 506.482
159 0 84.0853 12.3922 1042 92.0403 173.627 503.615
160 0 85.103 12.8315 1092 91.9249 173.012 503.803
161 0 89.1249 12.9481 1154 90.6932 173.925 500.631
162 0 90.1099 12.8732 1160 90.4698 173.439 501.001
163 0 94.0626 13.3315 1254 89.9952 173.121 498.319
164 0 98.0634 13.114 1286 89.028 173.052 498.12
165 0 97.0882 12.6586 1229 90.7502 173.652 496.455
166 0 102.181 13.2999 1359 88.9536 173.66 495.214
167 0 105.097 13.5018 1419 87.9852 174.362 493.982
168 0 104.116 12.0827 1258 87.5127 174.187 492.739
169 0 105.158 12.543 1319 88.2388 174.723 492.214
170 1 54.0465 10.3615 560 89.3839 174.386 517.943
171 0 56.0379 12.1168 679 85.2445 174.161 517.679
172 0 58.1048 12.3226 716 84.3701 175.01 515.514
173 0 59.0125 11.7602 694 86.353 175.346 513.334
174 0 62.0542 11.8928 738 86.8388 174.874 514.504
175 0 64.0502 11.9906 768 86.9427 174.895 514.615
176 0 61.0293 10.88 664 80.7982 173.253 516.351
177 0 64.0505 11.0382 707 80.4738 172.603 515.048
178 0 66.012 11.2404 742 80.0027 172.736 512.795
179 0 68.0378 10.8616 739 80.8119 172.146 513.52
180 0 70.0771 11.0022 771 81.1232 172.492 511.444
181 0 74.068 11.0574 819 80.8156 172.432 511.3
182 0 75.0876 11.44 859 81.1118 172.248 510.795
183 0 77.0509 11.6936 901 81.3441 173.174 508.293
184 0 79.0292 11.7931 932 80.5118 172.399 507.193
185 0 82.1125 11.947 981 80.4709 173.36 506.64
186 0 84.0317 10.9245 918 82.817 172.991 506.927
187 0 88.0563 11.4359 1007 81.7557 172.344 505.577
188 0 90.0908 11.0222 993 83.1984 172.478 502.016
189 0 94.0551 11.2275 1056 82.5189 172.803 501.27
190 1 51.0224 11.152 569 80.355 172.912 521.142
191 0 52.0161 10.9774 571 80.4256 172.849 521.299
192 0 54.0567 11.6174 628 78.6592 173.938 520.498
193 0 50.0184 9.75641 488 82.4836 173.008 522.842
194 0 54.0571 9.91544 536 80.8601 172.851 521.164
195 0 55.0809 9.56774 527 81.7116 172.452 520.417
196 0 57.0217 10.3119 588 80.7177 172.607 518.527
197 0 57.0942 9.93095 567 81.4621 171.455 518.351
198 0 62.0961 10.4354 648 79.8426 171.696 516.106
199 0 62.0407 10.0418 623 80.496 171.836 516.323
200 0 66.0994 10.4993 694 79.1671 172.203 516.68
201 0 67.0743 11.286 757 78.1612 172.336 513.918
202 0 70.068 11.0464 774 100.152 172.322 512.496
203 0 71.1045 11.5886 824 99.676 172.26 511.524
204 0 75.0698 11.123 835 100.425 171.992 509.532
205 0 75.0488 11.326 850 100.455 172.498 509.744
206 0 80.0953 12.0232 963 97.9377 172.02 507.755
207 0 82.0625 11.7472 964 98.6525 172.219 506.146
208 0 86.1133 11.6939 1007 96.7805 171.992 505.078
209 0 89.0724 12.3271 1098 95.0628 172.52 502.4
210 0 91.0339 11.4243 1040 100.065 172.195 502.615
211 0 93.0499 11.7894 1097 99.2625 172.212 499.295
212 0 96.0872 11.4167 1097 100.735 172.126 498.925
213 1 48.0223 9.1624 440 97.8023 173.948 524.384
214 0 52.0678 10.4095 542 93.8524 173.836 522.867
215 0 54.0681 10.6162 574 92.9303 173.061 521.672
216 0 55.0217 11.3773 626 93.222 172.989 521.069
217 0 57.0522 11.5158 657 91.3729 172.37 520.565
218 0 59.0816 11.8819 702 102.04 173.255 518.239
219 0 60.0148 11.9137 715 101.881 174.018 518.112
220 0 61.0455 12.0238 734 101.673 173.443 516.149
221 0 62.1032 11.5292 716 102.314 172.737 515.818
222 0 66.0259 12.1467 802 98.712 172.557 515.91
223 0 66.0557 12.1867 805 98.8547 173.128 515.476
224 0 69.0541 12.7436 880 97.7159 173.548 513.016
225 0 72.0695 12.4463 897 98.641 172.774 512.815
226 0 71.0461 12.8508 913 99.4315 173.077 510.206
227 0 74.0542 12.2613 908 101.151 172.71 510.975
228 0 76.033 12.8365 976 101.5 172.882 509.393
229 0 78.0796 13.0892 1022 102.037 172.973 508.242
230 0 79.0493 12.8021 1012 102.742 172.744 506.702
231 0 80.0836 12.899 1033 102.134 172.656 506.718
232 0 83.0767 13.2769 1103 101.068 171.567 504.387
233 0 86.042 12.4125 1068 102.864 172.191 504.007
234 0 88.0455 13.2886 1170 99.9829 171.879 503.156
235 0 89.0743 12.9218 1151 101.129 171.659 501.063
236 0 92.0715 13.2071 1216 101.081 170.988 500.545
237 0 93.0887 12.762 1188 90.0446 170.838 500.217
238 0 96.0509 11.5043 1105 91.6471 170.771 500.248
239 0 98.1362 11.6573 1144 91.5848 171.037 498.451
240 0 100.037 11.8856 1189 90.4836 170.818 495.637
241 0 104.05 11.0812 1153 89.8187 170.559 494.632
242 0 107.045 12.2659 1313 86.658 171.091 494.308
243 0 109.064 11.6171 1267 88.9684 171.945 492.552
244 0 112.105 11.5874 1299 89.0685 171.457 488.936
245 0 115.066 11.576 1332 89.7192 170.763 488.795
246 1 61.0317 10.4044 635 89.2331 171.698 517.318
247 0 64.1014 10.4366 669 90.3408 170.082 514.188
248 0 67.1063 11.3551 762 89.4633 170.469 511.15
249 0 71.1478 11.5815 824 88.9733 170.606 510.569
250 0 71.0503 12.6249 897 89.078 171.749 511.012
251 0 72.044 11.2292 809 90.1298 172.912 511.192
252 0 76.0875 11.9599 910 87.4319 171.826 509.786
253 0 79.0553 12.0801 955 98.9581 172.925 508.197
254 0 86.0504 12.7948 1101 95.6921 172.975 508.004
255 0 85.0662 12.6607 1077 99.3148 173.309 506.166
256 0 88.0265 12.9506 1140 98.9465 172.679 504.978
257 0 91.0458 12.7518 1161 98.9897 172.817 504.488
258 0 95.0885 13.03 1239 99.8176 172.491 503.074
259 0 97.1176 13.4373 1305 100.094 172.6 501.926
260 0 100.124 13.4034 1342 101.288 172.619 498.536
261 0 103.112 13.7617 1419 101.286 172.104 498.07
262 0 105.183 13.6999 1441 102.264 172.494 497.217
263 0 108.279 13.1973 1429 104.468 171.703 496.555
264 0 110.318 13.6786 1509 104.349 171.465 493.243
265 0 114.403 13.6971 1567 103.986 172.219 490.419
266 0 116.407 13.7878 1605 105.155 171.394 489.459
267 0 118.191 12.4713 1474 101.95 171.98 483.261
268 1 58.0343 9.32207 541 94.4122 172.551 511.425
269 0 62.1588 11.2615 700 98.1243 172.106 512.951
270 0 66.0338 12.3725 817 102.487 170.603 516.502
271 0 68.0294 12.1418 826 105.621 170.168 513.74
272 0 69.0113 12.4472 859 105.839 169.916 513.716
273 0 71.0396 12.486 887 106.063 170.457 512.651
274 0 76.0311 11.8504 901 106.416 170.234 511.642
275 0 77.0367 12.4876 962 104.719 171.238 511.086
276 0 79.05 11.5749 915 108.064 170.883 510.616
277 0 82.0626 12.527 1028 106.87 170.696 507.502
278 0 84.0384 11.9112 1001 108.753 170.875 506.801
279 0 88.0765 12.2053 1075 107.585 170.464 505.271
280 0 91.0443 12.5214 1140 106.546 171.296 505.73
281 0 94.0956 12.2004 1148 103.876 170.821 502.754
282 0 97.0687 12.3212 1196 103.284 171.289 503.671
283 0 98.0315 11.9349 1170 106.573 170.659 500.374
284 1 50.0374 10.5321 527 101.725 170.753 524.192
285 0 52.0747 10.1201 527 102.457 171.797 523.778
286 0 53.0973 11.413 606 99.4125 172.003 521.503
287 0 55.0556 11.2069 617 102.128 171.953 521.802
288 0 57.1073 11.8724 678 93.7522 170.979 520.979
289 0 56.1443 11.8623 666 87.8904 173.078 519.73
290 0 57.0878 11.7188 669 88.2601 172.498 519.658
291 0 58.1244 11.7163 681 86.4038 173.035 518.438
292 0 61.1384 12.1855 745 84.6268 171.952 517.87
293 0 65.1632 11.8779 774 83.4897 172.335 517.275
294 0 66.206 11.0111 729 84.8834 172.034 515.894
295 0 66.2269 11.5512 765 84.8405 172.055 515.8
296 0 69.1466 12.4229 859 83.1024 172.135 513.969
297 0 72.1476 11.6982 844 85.2168 171.936 513.155
298 0 73.2296 11.8804 870 84.5103 172.29 513.001
299 0 72.2087 10.5251 760 91.9513 172.057 511.775
300 0 74.2 10.7547 798 90.9975 171.568 510.307
301 0 76.1429 9.98123 760 89.9145 171.439 510.455
302 0 78.1559 9.26353 724 89.4171 170.49 510.345
303 0 80.1265 10.4335 836 87.6615 171.165 505.499
304 0 83.1082 10.1073 840 87.3988 172.344 504.748
305 0 84.1612 9.49369 799 87.6984 171.844 503.304
306 0 87.2033 9.44918 824 86.8507 171.811 503.086
307 0 88.1408 9.42809 831 87.3658 171.599 501.193
308 0 92.1353 9.89848 912 86.4232 171.361 501.783
309 0 97.0727 10.6827 1037 84.1668 171.291 499.505
310 0 97.0729 9.79676 951 86.1293 170.629 498.31
311 0 101.142 9.87718 999 85.3203 171.398 500.001
312 0 103.118 9.23214 952 87.6229 171.47 496.8
313 1 57.0725 9.6719 552 85.5815 172.534 521.274
314 0 58.091 9.65727 561 86.6399 172.057 521.615
315 0 60.0525 10.4908 630 86.0175 171.729 520.524
316 0 61.0779 10.6421 650 88.0415 172.014 519.835
317 0 63.0626 10.8939 687 87.4716 172.09 517.984
318 0 66.0607 11.7922 779 87.0886 171.982 518.054
319 0 65.0863 11.3542 739 85.207 169.783 519.15
320 0 68.1902 11.3359 773 84.8784 169.974 517.625
321 0 66.1031 10.7559 711 89.9395 170.363 519.79
322 0 69.0817 11.1317 769 90.0221 170.202 517.653
323 0 69.1468 11.0634 765 91.3935 169.818 515.477
324 0 73.1295 10.9805 803 91.3014 169.788 516.477
325 0 75.0855 10.9742 824 92.0886 170.436 513.718
326 0 79.0784 11.4064 902 91.1829 169.707 514.404
327 0 80.1308 11.344 909 91.5116 169.887 513.2
328 0 81.1036 11.2942 916 92.0371 169.491 512.981
329 0 85.1384 11.4754 977 91.7953 169.927 510.116
330 0 87.0934 11.746 1023 91.651 168.87 510.792
331 0 90.0807 11.7783 1061 92.6164 169.881 509.925
332 0 92.109 11.3561 1046 93.1453 169.733 508.114
333 0 97.1964 11.3893 1107 93.2981 169.653 506.173
334 0 98.1544 11.8792 1166 93.337 169.154 503.379
335 0 99.1171 11.1182 1102 95.4147 169.322 503.899
336 0 104.156 12.366 1288 91.6017 169.723 501.055
337 0 107.225 11.8722 1273 91.2412 169.419 498.532
338 0 111.222 11.9401 1328 90.3404 168.923 496.995
339 0 114.122 12.1011 1381 89.525 168.921 496.255
340 1 60.0918 10.667 641 90.0328 168.154 524
341 0 63.1908 11.6631 737 89.0339 167.788 521.229
342 0 64.1924 11.7615 755 90.347 168.464 520.097
343 0 66.2125 11.3574 752 94.742 168.259 518.686
344 0 65.0666 10.0205 652 91.6933 167.847 520.443
345 0 66.1012 10.1511 671 91.9463 167.578 520.615
346 0 68.0864 10.942 745 92.0792 167.683 519.607
347 0 71.1064 10.857 772 92.149 167.117 517.188
348 0 70.1608 10.6327 746 93.3981 166.966 516.803
349 0 75.0934 10.7599 808 93.052 166.637 516.276
350 0 77.0576 10.6933 824 91.5522 167.585 516.053
351 0 78.0987 9.7953 765 91.6588 167.523 514.197
352 0 83.0689 10.401 864 90.2963 167.225 511.98
353 0 85.0643 10.0042 851 92.9765 167.906 511.262
354 0 88.0502 10.812 952 92.1082 166.987 508.335
355 0 92.0863 11.3372 1044 92.183 168.01 506.032
356 0 95.0643 11.1188 1057 92.7796 167.399 504.758
357 0 97.1396 11.571 1124 93.5712 168.549 501.41
358 0 101.194 11.5323 1167 99.114 167.546 499.375
359 0 104.123 11.7841 1227 97.9878 168.347 498.023
360 0 104.124 11.832 1232 127.522 170.358 498.151
361 0 110.173 11.2278 1237 101.465 168.16 495.618
362 0 115.268 11.4516 1320 99.5674 168.039 488.448
363 0 119.288 11.7027 1396 98.7471 167.375 487.073
364 1 63.1421 9.99333 631 92.6688 168.277 517.78
365 0 64.1359 10.01 642 91.6153 168.344 517.403
366 0 68.1471 10.2719 700 91.6757 168.326 515.609
367 0 70.0541 10.8059 757 91.2457 167.247 514.309
368 0 72.0727 10.6143 765 90.4131 167.925 514.612
369 0 74.0593 11.0317 817 88.9927 168.452 514.048
370 0 75.25 11.4817 864 90.7998 169.024 510.175
371 0 78.1428 11.5174 900 90.5433 169.489 510.734
372 0 79.1783 11.1142 880 92.0659 169.098 509.751
373 0 83.1471 10.9445 910 92.2363 169.81 509.026
374 0 86.1681 11.9534 1030 89.5641 169.123 508.682
375 0 88.2127 11.903 1050 88.2629 169.476 504.906
376 0 93.1592 11.6575 1086 88.3591 169.27 503.96
377 0 97.1601 12.114 1177 87.0238 169.003 502.62
378 0 98.1568 11.7975 1158 88.456 170.034 500.614
379 0 100.196 12.0464 1207 87.9105 169.152 500.651
380 0 103.212 12.4404 1284 87.3614 169.7 498.327
381 0 106.183 11.6308 1235 97.9158 168.998 496.747
382 0 108.267 11.9058 1289 96.9372 169.429 496.883
383 0 110.186 11.6258 1281 97.5199 169.98 495.787
384 0 113.274 11.3795 1289 99.5803 169.753 492.897
385 0 118.22 11.817 1397 97.3286 169.485 491.598
386 0 118.228 11.4017 1348 98.9636 170.345 489.957
387 0 121.091 11.6111 1406 98.0206 169.793 488.767
388 0 125.174 12.2789 1537 96.2655 170.74 487.196
389 0 128.111 12.6296 1618 90.4623 171.083 486.925
390 0 131.133 12.6666 1661 91.2402 170.981 483.689
391 0 134.132 12.4877 1675 92.9767 170.951 481.41
392 0 138.25 12.6438 1748 95.1745 170.749 478.858
393 0 144.178 12.0614 1739 95.5837 170.482 478.3
394 0 149.23 12.4438 1857 95.0237 170.821 477.694
395 0 153.256 11.9473 1831 96.1742 170.688 475.748
396 0 158.218 12.4701 1973 97.9873 170.665 471.269
397 0 162.237 12.5927 2043 98.093 170.159 470.161
398 0 167.165 12.3351 2062 99.4661 170.41 468.137
399 0 171.181 12.7818 2188 101.402 170.453 465.085
400 0 177.243 13.1119 2324 101.035 170.416 461.692
401 0 180.3 12.6179 2275 102.825 170.64 457.44
402 0 187.217 13.2307 2477 103.497 170.33 454.871
403 0 190.309 13.2837 2528 103.592 170.56 453.866
404 0 198.225 13.4292 2662 104.883 170.667 450.077
405 0 199.222 13.2214 2634 105.077 170.711 451.87
406 0 209.223 13.3302 2789 105.689 169.505 447.147
407 0 214.339 12.7602 2735 107.696 169.853 447.033
408 0 221.309 13.1762 2916 107.359 169.368 442.403
409 1 165.251 12.5809 2079 109.171 170.226 468.31
410 0 168.142 12.4359 2091 110.345 169.941 464.98
411 0 174.211 13.4147 2337 107.494 169.495 461.893
412 0 181.253 13.1253 2379 110.603 169.227 457.663
413 0 187.247 12.625 2364 110.94 169.613 452.517
414 0 193.291 13.2236 2556 109.484 168.922 451.546
415 0 197.279 12.9512 2555 112.831 168.806 450.55
416 0 202.29 13.4312 2717 112.798 169.031 447.785
417 0 207.154 13.3089 2757 116.239 168.638 446.255
418 0 212.194 13.2096 2803 117.959 169.558 442.703
419 0 220.268 13.2157 2911 119.031 168.982 441.885
420 0 226.188 13.5241 3059 119.76 168.871 437.189
421 0 229.376 13.1356 3013 123.768 167.79 433.876
422 0 236.268 13.3662 3158 124.599 168.376 430.589
423 0 239.406 13.4124 3211 127.374 168.912 425.995
424 0 247.308 13.651 3376 127.413 168.621 420.999
425 0 252.366 13.5161 3411 130.002 168.322 418.837
426 0 261.352 13.7784 3601 130.085 168.035 413.919
427 0 268.478 13.6398 3662 131.8 168.367 408.864
428 0 274.434 13.6135 3736 128.869 168.799 403.424
429 1 302.592 21.3059 6447 95.193 168.753 369.227
430 0 302.42 19.4465 5881 102.029 168.38 372.213
431 0 306.521 17.9107 5490 107.949 168.464 372.675
432 1 222.459 12.0876 2689 128.022 167.951 423.151
433 0 230.486 12.5083 2883 127.342 168.22 422.144
434 0 240.505 12.8687 3095 122.784 168.341 414.572
435 0 246.356 12.2384 3015 124.625 168.706 418.481
436 0 257.322 12.9565 3334 117.553 169.475 415.857
437 0 262.314 12.485 3275 117.743 168.937 412.618
438 0 273.36 13.0085 3556 116.669 169.05 410.024
439 0 283.457 13.4342 3808 114.752 168.53 403.109
440 0 291.434 14.0787 4103 113.274 169.116 397.399
441 0 298.419 13.5983 4058 116.321 168.73 397.146
442 1 87.047 10.4541 910 111.276 170.102 505.92
443 0 84.1749 10.8108 910 113.61 168.838 504.032
444 0 85.0907 11.2468 957 114.734 169.101 502.651
445 0 88.0554 11.0385 972 113.773 170.499 501.624
446 0 89.131 11.8477 1056 115.875 169.72 503.595
447 0 91.1701 11.7692 1073 115.538 170.615 502.705
448 0 94.1331 11.7068 1102 115.603 170.173 499.854
449 0 97.1683 12.4526 1210 112.924 169.915 500.045
450 0 101.214 12.1129 1226 114.228 170.158 498.478
451 0 102.302 12.1992 1248 113.897 170.547 496.35
452 0 105.31 12.2591 1291 114.105 170.234 493.259
453 0 105.115 10.8643 1142 111.723 170.532 497.939
454 0 107.19 11.1671 1197 112.409 170.666 495.811
455 0 111.176 11.0096 1224 111.418 170.309 494.861
456 0 116.108 11.9544 1388 105.248 170.787 489.479
457 0 122.178 10.5092 1284 113.876 170.681 488.498
458 1 69.029 10.1117 698 101.523 170.95 514.385
459 0 70.0342 10.4663 733 97.2947 170.131 514.06
460 0 71.042 10.8105 768 96.6341 170.475 510.766
461 0 75.1168 11.116 835 92.4311 168.763 506.655
462 0 79.1654 12.0633 955 90.289 168.834 505.677
463 0 82.0716 12.0261 987 79.0851 169.519 503.063
464 0 82.1135 10.7291 881 84.4767 170.301 499.297
465 0 85.1198 10.9375 931 82.7433 169.985 499.452
466 0 87.1065 11.044 962 83.396 170.048 497.813
467 0 90.1012 10.2995 928 85.2457 169.877 494.337
468 0 93.0809 11.5706 1077 81.5924 169.525 495.509
469 0 95.0747 11.5593 1099 83.4049 169.074 492.903
470 0 99.0333 11.8142 1170 82.7829 169.415 492.898
471 0 100.113 11.3672 1138 85.4631 169.475 490.939
472 0 105.044 11.9283 1253 83.2586 168.582 489.8
473 0 105.125 10.4066 1094 90.4223 169.161 490.582
474 0 109.107 11.1176 1213 87.3471 168.708 487.026
475 1 60.0466 9.34275 561 81.9251 169.431 514.367
476 0 60.0892 10.2015 613 81.2724 168.53 510.79
477 0 60.0908 9.86841 593 86.3744 168.342 509.221
478 0 62.0895 10.1627 631 89.9525 168.062 509.661
479 0 68.1122 11.716 798 98.0376 168.736 513.643
480 0 70.0584 12.1327 850 98.3106 167.969 512.839
481 0 72.0256 11.371 819 100.74 169.022 510.549
482 0 74.0475 11.7897 873 97.7766 169.745 511.778
483 0 76.0532 12.2283 930 96.828 169.854 509.982
484 0 78.0135 11.921 930 96.7118 170.276 510.358
485 0 80.0722 12.4638 998 94.3707 169.492 508.768
486 0 81.0629 11.8797 963 96.6397 168.849 507.775
487 0 83.0599 11.5579 960 98.6469 167.744 505.299
488 0 86.087 11.6742 1005 97.2607 168.804 504.648
489 0 87.0761 11.8172 1029 97.7707 168.862 503.59
490 0 92.0816 12.2717 1130 97.0204 168.525 503.599
491 1 51.059 10.5172 537 94.5251 167.618 523.715
492 0 50.0298 10.6537 533 96.531 167.974 523.206
493 0 54.0236 11.3839 615 94.5724 169.92 523.005
494 0 56.0347 12.2424 686 91.6283 170.759 521.262
495 0 58.0483 11.9728 695 92.7122 169.299 519.565
496 0 60.0468 11.2745 677 93.6248 169.174 518.295
497 0 61.1156 11.3719 695 93.9252 169.081 517.462
498 0 63.0671 12.1458 766 91.3394 169.416 517.655
499 0 64.0584 11.552 740 94.6581 169.649 516.912
500 0 67.0376 12.2319 820 91.3049 169.507 515.812
501 0 67.159 12.3289 828 91.6582 168.802 514.674
502 0 68.06 12.0776 822 91.2871 168.938 514.561
503 0 70.0767 11.9726 839 91.6389 168.371 512.615
504 0 71.1744 11.9987 854 90.1499 169.77 511.951
505 0 74.0379 12.264 908 88.7247 169.446 511.185
506 0 75.0747 11.8415 889 90.2936 169.43 509.429
507 0 78.0863 11.7306 916 90.2424 168.481 508.632
508 0 80.0482 12.0428 964 90.4357 168.716 507.195
509 0 84.0832 13.2131 1111 87.3726 168.266 506.69
510 0 84.0555 12.4561 1047 90.7459 168.446 505.545
511 0 87.1349 12.9799 1131 90.3492 168.124 504.737
512 0 92.2011 12.8415 1184 89.625 168.406 504.997
513 0 95.1655 12.9774 1235 90.3142 167.799 503.055
514 1 51.1277 11.4811 587 89.7376 167.642 524.063
515 0 53.1891 11.7317 624 91.5128 167.827 523.481
516 0 54.1265 11.7687 637 92.9011 167.882 521.397
517 0 55.0696 12.2209 673 92.9004 167.131 522.529
518 0 53.1671 10.6833 568 90.7993 167.07 517.511
519 0 56.0644 10.595 594 88.1667 167.552 523.399
520 0 58.0799 11.5703 672 86.8036 167.241 523.262
521 0 59.0704 11.9011 703 87.0683 167.088 520.858
522 0 61.1084 10.9478 669 89.423 167.091 520.377
523 0 63.0397 11.5641 729 89.0933 167.689 519.538
524 0 64.1015 12.0122 770 88.3558 167.682 520.187
525 0 66.1188 12.0541 797 88.6913 168.077 519.01
526 0 68.0432 11.7131 797 92.0753 167.994 518.518
527 0 71.0632 11.722 833 91.91 167.541 517.299
528 0 72.0675 11.6419 839 93.0524 168.122 515.856
529 0 77.0932 12.2579 945 91.7841 168.21 516.204
530 0 79.0374 12.5131 989 91.8362 168.542 514.536
531 0 80.0597 12.5781 1007 92.3754 167.999 514.191
532 0 83.0764 12.1334 1008 94.7034 168.092 512.603
533 0 84.1227 12.3035 1035 95.8338 167.897 510.071
534 0 88.0798 12.2389 1078 95.4221 167.459 509.063
535 0 92.1307 12.8296 1182 95.1929 167.209 508.253
536 0 95.1044 13.3117 1266 95.6374 166.996 507.209
537 0 95.1548 13.4202 1277 97.9695 166.81 503.854
538 0 98.1369 12.9003 1266 100.336 166.491 502.515
539 0 100.102 12.9068 1292 100.957 167.24 501.721
540 0 104.162 12.3173 1283 102.77 167.214 501.178
541 1 60.0807 11.7675 707 100.915 167.327 522.431
542 0 63.031 12.121 764 99.6021 168.119 521.329
543 0 63.0363 12.358 779 101.953 166.847 520.34
544 0 66.0856 12.8167 847 100.183 167.106 520.626
545 0 65.1012 11.5666 753 93.5963 166.086 520.206
546 0 68.143 11.8574 808 92.5025 166.657 520.42
547 0 70.1654 12.214 857 92.0268 166.265 519.312
548 0 71.1259 11.5851 824 92.2949 166.936 518.294
549 0 73.0604 11.949 873 93.7915 166.214 516.157
550 0 76.1465 12.1608 926 95.6361 167.092 515.119
551 0 77.1022 12.1397 936 97.9786 166.993 514.217
552 0 82.1478 12.3923 1018 97.0373 167.479 514.15
553 0 83.1136 11.6948 972 100.288 166.917 512.55
554 0 85.1895 11.8324 1008 97.9296 167.278 511.582
555 0 88.1864 11.3963 1005 100.829 166.36 509.601
556 0 92.2096 11.9185 1099 98.4886 166.832 506.537
557 1 49.1132 10.5878 520 98.35 166.494 529.16
558 0 50.0929 10.8998 546 94.8278 166.542 528.965
559 0 50.1578 10.4869 526 94.8384 166.705 527.637
560 0 52.0867 11.1737 582 89.6495 166.596 526.565
561 0 54.1073 11.2369 608 91.1036 166.72 524.613
562 0 57.106 12.0478 688 84.7922 167.807 523.458
563 0 58.0507 11.2488 653 88.3078 167.501 524.605
564 0 58.0551 10.6795 620 89.3452 166.95 523.494
565 0 62.0779 11.5661 718 85.149 167.049 523.467
566 0 64.0459 12.1788 780 84.6487 166.932 521.014
567 0 66.0657 11.6097 767 85.03 167.475 520.076
568 0 68.0385 11.6699 794 84.6977 166.999 518.967
569 0 69.0643 12.0612 833 84.1801 167.15 519.046
570 0 72.036 11.7025 843 83.656 167.335 516.673
571 0 74.0505 11.9783 887 82.8782 167.269 517.499
572 0 77.0632 12.4314 958 81.928 167.31 516.815
573 0 79.1107 11.92 943 94.965 166.837 514.402
574 0 81.0888 12.3445 1001 96.999 166.528 513.449
575 0 83.0961 12.5517 1043 97.3202 166.058 513.048
576 0 85.1192 12.2182 1040 97.9567 165.723 511.331
577 0 87.073 12.0129 1046 98.3021 165.824 511.348
578 0 90.1305 12.0381 1085 100.773 166.512 509.775
579 0 91.0452 11.5547 1052 102.453 166.224 507.922
580 0 96.1523 11.8458 1139 94.1027 166.32 506.787
581 0 98.1773 11.9274 1171 99.5594 165.643 505.264
582 0 99.1595 12.1723 1207 100.078 166.161 504.386
583 0 104.14 12.8577 1339 95.0471 166.798 503.751
584 0 105.132 12.061 1268 95.6175 166.988 501.238
585 0 108.157 13.0459 1411 95.7838 166.554 499.236
586 0 110.123 11.8322 1303 96.0023 166.835 498.259
587 0 114.139 11.7226 1338 95.3146 167.001 497.274
588 0 118.089 12.3212 1455 93.8117 166.329 496.14
589 0 122.125 12.1842 1488 94.9328 166.784 492.831
590 0 124.143 11.9137 1479 96.4097 166.869 491.896
591 0 128.164 12.1017 1551 96.833 166.992 489.288
592 0 131.225 11.9033 1562 98.8636 166.865 487.273
593 0 137.248 12.5831 1727 97.392 166.363 484.964
594 0 143.228 12.6302 1809 97.8242 165.59 484.751
595 0 145.233 12.5041 1816 100.095 166.604 480.693
596 0 149.245 12.6437 1887 100.344 166.467 479.675
597 0 154.347 12.3683 1909 101.377 166.399 476.829
598 0 161.165 13.0239 2099 100.028 166.533 475.774
599 0 165.344 12.5979 2083 99.6438 166.128 469.143
600 0 170.305 12.8828 2194 102.375 166.257 468.872
601 0 177.172 13.4728 2387 100.58 166.185 468.109
602 0 181.276 13.2616 2404 101.891 165.867 466.278
603 0 185.301 14.0096 2596 102.337 165.515 462.843
604 0 189.322 14.647 2773 99.3505 166.136 460.507
605 0 193.202 14.9998 2898 98.6756 166.284 456.27
606 0 198.334 15.5445 3083 96.9789 165.56 454.654
607 0 203.225 14.5651 2960 98.9875 166.098 454.489
608 0 209.293 14.095 2950 99.8146 165.477 451.36
609 0 213.243 13.562 2892 101.439 166.298 448.635
610 0 220.146 13.8544 3050 100.363 165.965 447.273
611 0 227.252 13.9317 3166 100.962 165.478 441.585
612 0 233.338 13.6197 3178 102.308 165.067 436.987
613 0 243.37 14.1554 3445 99.8711 165.257 432.711
614 0 248.325 13.736 3411 100.982 165.649 428.736
615 0 258.386 14.2616 3685 100.151 165.361 424.164
616 0 267.396 14.1625 3787 99.9791 165.528 422.691
617 0 274.306 14.3343 3932 100.102 165.334 417.956
618 0 283.446 14.8847 4219 98.5878 166.161 413.177
619 0 294.671 14.5416 4285 99.025 166.679 407.174
620 0 302.493 16.3442 4944 94.4909 165.936 396.322
621 0 312.545 16.0489 5016 96.3357 165.332 391.741
622 0 323.568 16.281 5268 93.5833 165.98 388.527
623 0 332.526 16.0709 5344 94.6254 165.446 383.818
624 0 341.45 16.2659 5554 94.6151 166.072 376.407
625 0 351.417 16.2912 5725 95.4896 166.226 370.096
626 0 360.379 16.2662 5862 96.1909 165.951 363.349
627 0 371.289 15.9525 5923 97.7091 165.85 356.612
628 0 381.558 16.0919 6140 98.1827 165.235 351.836
629 0 392.564 16.1604 6344 97.8186 165.036 345.079
630 0 405.743 16.3798 6646 98.9669 165.839 340.782
631 0 418.921 17.2014 7206 95.4055 166.423 330.221
632 0 61.0843 9.80611 599 81.7763 168.376 515.444
633 0 63.032 10.9151 688 80.9084 167.528 521.353
634 0 69.1625 12.6369 874 85.8593 167.923 491.934
635 0 71.0984 13.854 985 85.5838 166.635 496.291
636 0 71.1611 12.7879 910 87.5055 167.476 498.427
637 0 65.1156 10.0283 653 89.8147 167.475 496.836
638 0 72.1078 13.5214 975 78.359 167.678 500.763
639 0 76.1615 15.9792 1217 73.9532 167.196 502.242
640 0 79.1036 14.9677 1184 83.625 165.563 505.106
641 0 83.0601 15.3142 1272 81.9458 166.851 507.436
642 0 85.1643 15.1002 1286 83.2395 166.191 507.501
643 0 88.2406 15.1858 1340 83.206 167.5 506.531
644 0 90.1076 15.7034 1415 81.7618 167.71 505.303
645 0 92.1479 15.041 1386 84.2237 167.059 503.029
646 0 95.199 15.83 1507 82.2754 167.324 502.112
647 0 98.1179 16.1744 1587 81.7417 167.749 501.824
648 0 101.245 16.544 1675 81.4442 167.64 499.974
649 0 103.147 16.1033 1661 83.9163 167.64 498.955
650 0 105.275 15.7587 1659 86.6721 167.272 495.865
651 0 109.307 15.7904 1726 87.5041 166.64 493.719
652 0 111.214 16.1311 1794 88.752 167.537 491.568
653 0 114.348 15.7676 1803 89.7216 167.428 490.551
654 0 116.215 15.3852 1788 93.538 168.059 487.033
655 0 120.236 15.2117 1829 94.4489 167.45 484.406
656 0 125.349 15.8836 1991 91.2366 167.163 481.449
657 1 66.2685 10.7894 715 99.8783 167.401 511.18
658 0 68.1872 11.9817 817 98.4969 167.83 513.34
659 0 70.2826 12.4497 875 99.672 167.409 513.139
660 0 72.1852 13.4515 971 95.8723 167.886 511.062
661 0 75.1944 14.0702 1058 102.838 167.124 514.314
662 0 77.1193 13.9135 1073 103.868 167.605 513.122
663 0 76.1578 14.0498 1070 105.824 167.441 511.293
664 0 80.1081 13.307 1066 104.081 167.919 511.464
665 0 80.2332 13.1492 1055 105.557 167.849 510.419
666 0 83.0772 13.8546 1151 105.791 168.012 508.425
667 0 86.088 13.8231 1190 101.269 168.849 507.682
668 0 89.0974 14.4224 1285 99.8615 168.37 507.65
669 0 89.1728 13.5131 1205 103.647 167.97 505.729
670 0 94.0603 13.4488 1265 104.407 168.336 504.892
671 0 96.0602 14.0016 1345 101.519 168.419 503.004
672 0 97.1701 14.0167 1362 101.06 168.495 502.536
673 0 100.151 13.5495 1357 102.341 167.463 499.668
674 0 103.191 13.7609 1420 99.4345 168.349 499.437
675 0 105.11 13.2052 1388 99.5915 167.45 495.656
676 0 108.163 13.6276 1474 95.3725 167.861 496.549
677 0 109.115 12.8305 1400 96.215 168.039 489.863
678 0 113.13 12.2867 1390 96.5928 168.062 488.226
679 0 119.179 12.6197 1504 94.1695 167.912 485.54
680 1 65.0562 11.4055 742 89.3868 167.827 511.596
681 0 69.0761 12.4211 858 88.2716 167.864 512.828
682 0 70.0443 12.6634 887 87.0947 167.763 512.33
683 0 74.1286 12.9235 958 91.7777 169.279 512.96
684 0 76.0969 13.4697 1025 89.6117 169.246 512.16
685 0 78.1891 12.6232 987 90.5826 169.69 510.15
686 0 81.0603 13.0767 1060 87.6953 170.458 509.093
687 0 84.104 13.6022 1144 87.4397 170.06 506.993
688 0 87.1053 12.3299 1074 89.2374 169.446 506.655
689 0 88.0913 13.4292 1183 87.3872 169.303 505.702
690 0 92.1065 13.3324 1228 87.2484 169.036 503.879
691 0 93.1755 12.3101 1147 89.5754 167.575 503.166
692 0 94.1144 12.963 1220 88.5156 168.51 501.532
693 0 99.2577 12.7748 1268 88.6893 168.168 500.507
694 0 102.168 12.9982 1328 88.6408 168.864 498.276
695 0 104.175 13.3814 1394 88.0933 167.798 496.825
696 0 107.138 12.8526 1377 89.4503 168.01 493.885
697 0 110.21 13.0751 1441 89.3602 167.237 494.57
698 0 111.242 13.5291 1505 87.6724 167.401 492.744
699 0 118.153 14.2273 1681 82.1338 168.064 492.6
700 0 120.229 14.4641 1739 81.682 167.91 489.58
701 0 122.116 13.2006 1612 85.4194 168.628 489.739
702 0 126.214 13.5643 1712 84.2903 168.04 486.822
703 0 129.261 12.7649 1650 87.3885 167.72 482.619
704 0 133.321 13.7938 1839 85.509 167.917 479.438
705 0 141.158 14.3244 2022 84.8427 168.142 479.603
706 0 144.289 14.3323 2068 87.2118 167.998 476.864
707 0 150.328 14.4817 2177 87.8057 167.785 474.937
708 0 154.175 13.9971 2158 90.8207 167.439 471.477
709 0 155.193 12.8163 1989 94.4208 166.918 472.6
710 1 74.1769 12.3084 913 92.4535 167.219 511.418
711 0 77.1611 12.0268 928 92.7004 167.71 511.612
712 0 79.0964 13.5531 1072 92.6446 167.83 510.614
713 0 80.1048 13.37 1071 92.1998 167.316 511.65
714 0 84.1031 12.9722 1091 93.8643 167.524 510.561
715 0 87.113 13.603 1185 92.3755 167.942 509.872
716 0 90.1046 13.4954 1216 94.1645 167.986 507.26
717 0 91.0827 13.603 1239 95.1316 167.447 506.457
718 0 94.1384 13.5333 1274 98.9474 166.852 506.987
719 0 95.1565 13.0312 1240 102.388 167.003 504.905
720 0 100.251 13.2967 1333 102.647 167.289 506.321
721 0 103.169 13.3955 1382 102.561 166.962 504.931
722 0 106.13 13.5117 1434 102.176 167.213 501.627
723 0 107.207 12.7697 1369 107.156 167.244 499.477
724 0 111.17 12.7553 1418 106.953 167.469 497.307
725 0 115.157 13.4772 1552 103.51 167.669 496.001
726 0 121.337 13.2358 1606 106.027 166.883 491.024
727 0 126.392 13.5452 1712 106.342 166.843 489.512
728 0 130.433 14.6665 1913 104.711 166.895 487.436
729 0 133.398 13.7033 1828 108.841 166.65 486.318
730 0 138.444 14.0201 1941 107.248 167.241 484.449
731 0 143.55 13.5145 1940 109.61 166.797 483.224
732 0 146.277 13.3719 1956 105.57 167.781 483.389
733 0 154.238 13.5699 2093 104.358 167.004 482.522
734 0 157.188 13.0544 2052 105.762 167.703 476.128
735 0 160.174 13.4603 2156 104.571 167.819 477.106
736 0 165.119 13.9899 2310 106.299 167.354 471.798
737 0 172.11 14.1537 2436 104.443 167.116 469.25
738 0 175.152 13.1543 2304 107.356 166.675 465.53
739 0 184.136 13.6203 2508 106.469 166.927 462.683
740 0 189.156 13.5708 2567 107.22 167.182 459.619
741 1 109.157 11.5888 1265 104.574 168.034 503.504
742 0 112.142 12.288 1378 104.749 168.135 499.005
743 0 117.12 13.0038 1523 103.886 167.358 499.465
744 0 120.118 12.9123 1551 105.993 167.048 496.265
745 0 122.139 12.4039 1515 105.632 167.411 495.154
746 0 125.109 12.5891 1575 106.26 167.753 493.073
747 0 132.113 13.2841 1755 105.722 167.832 489.619
748 0 138.136 13.1682 1819 104.838 167.6 489.053
749 0 140.229 12.9859 1821 105.47 167.169 484.896
750 0 146.184 13.2504 1937 106.132 167.234 482.665
751 1 77.0859 12.1682 938 102.007 168.271 516.253
752 0 80.0709 12.1392 972 102.691 167.792 513.343
753 0 83.1709 12.817 1066 101.832 167.314 509.617
754 0 86.1376 13.2462 1141 102.944 167.259 506.37
755 0 86.1147 12.5763 1083 104.614 167.926 509.456
756 0 88.1522 12.1835 1074 106.966 168.192 508.77
757 0 94.2385 13.4977 1272 101.869 168.126 507.583
758 0 96.1993 12.6924 1221 104.124 168.559 507.559
759 0 97.1153 11.9755 1163 106.809 168.104 506.103
760 0 100.09 12.6486 1266 105.273 168.344 503.795
761 0 106.065 13.3503 1416 101.745 167.677 502.525
762 0 107.094 11.896 1274 104.514 168.373 498.376
763 0 113.233 12.7172 1440 102.026 168.296 498.562
764 0 115.133 12.82 1476 102.568 168.404 495.429
765 0 118.108 12.2007 1441 103.49 168.509 494.622
766 0 124.267 12.8192 1593 102.07 167.945 494.694
767 0 128.214 12.6117 1617 102.848 168.279 491.933
768 0 130.197 12.243 1594 101.095 168.208 488.852
769 1 77.1472 11.4586 884 105.298 166.997 516.329
770 0 78.1719 12.2806 960 103.147 168.023 513.8
771 0 81.2072 12.0679 980 100.61 167.628 513.108
772 0 83.163 12.4454 1035 92.9884 168.382 511.797
773 0 86.1387 12.0852 1041 96.2968 168.538 512.225
774 0 87.1592 12.024 1048 98.0525 168.415 509.878
775 0 92.1225 12.7005 1170 95.2137 168.614 510.1
776 0 93.1433 12.5506 1169 96.6313 167.958 507.633
777 0 94.1254 12.409 1168 97.1695 168.26 506.94
778 0 98.2076 12.3717 1215 96.3202 167.866 505.072
779 0 101.09 12.2564 1239 95.4939 168.106 504.769
780 0 105.149 13.1052 1378 93.492 168.179 503.42
781 0 109.166 13.31 1453 92.0496 168.605 500.134
782 0 112.212 13.0289 1462 93.4487 168.438 496.012
783 0 117.193 13.3541 1565 102.514 168.192 493.242
784 1 60.1181 11.5772 696 93.3218 169.056 522.484
785 0 63.1567 11.7485 742 92.4313 168.629 521.478
786 0 66.1182 12.7499 843 88.446 169.421 520.562
787 0 66.1976 12.7346 843 89.9763 169.196 519.865
788 0 70.1494 12.6444 887 89.0879 169.053 518.094
789 0 71.0683 12.9875 923 92.9935 168.026 518.076
790 0 73.0587 12.2504 895 96.4592 169.426 516.98
791 0 76.1146 12.6126 960 93.925 169.893 517.546
792 0 77.0694 12.8975 994 93.839 169.818 515.927
793 0 80.0551 12.3665 990 95.196 169.263 512.802
794 0 82.0653 12.6607 1039 94.8354 170.149 512.391
795 0 84.0568 12.4797 1049 95.2755 169.361 510.522
796 0 87.0735 12.9431 1127 93.4117 169.575 511.24
797 0 90.1023 13.3071 1199 92.4362 169.511 508.251
798 0 92.1017 12.3668 1139 94.6822 169.903 506.73
799 0 95.1738 12.4404 1184 94.7635 169.617 506.56
800 0 98.1704 12.5394 1231 94.29 169.522 504.275
801 0 100.151 12.4912 1251 94.6787 169.815 503.932
802 0 103.184 12.2015 1259 94.7093 169.597 502.314
803 0 105.117 12.3862 1302 97.7051 169.256 500.996
804 0 108.087 12.5825 1360 96.6066 169.069 498.584
805 0 111.141 11.9308 1326 98.037 168.765 500.953
806 0 117.083 12.7346 1491 96.3146 168.905 498.412
807 0 121.156 12.4138 1504 95.8185 168.665 497.462
808 1 67.0418 12.2312 820 97.8171 169.059 521.885
809 0 69.1097 11.7928 815 99.9706 168.07 517.248
810 0 71.0482 13.146 934 85.3715 168.096 519.468
811 0 72.0538 12.7682 920 84.162 167.948 518.351
812 0 76.0463 13.1104 997 82.7633 167.832 517.529
813 0 78.0701 12.6553 988 84.3178 168.437 516.88
814 0 81.1228 12.7215 1032 84.9884 168.086 515.147
815 0 84.135 13.1693 1108 85.4883 168.491 514.407
816 0 87.1348 13.3471 1163 87.3027 167.955 512.727
817 0 90.0664 13.3235 1200 97.1583 168.566 513.075
818 0 91.1108 12.7098 1158 99.7522 167.44 511.099
819 0 95.0609 12.9391 1230 99.1203 167.678 509.163
820 0 98.1507 13.5608 1331 97.7791 167.697 507.884
821 0 100.121 13.174 1319 99.3017 167.397 507.343
822 0 103.113 13.3349 1375 99.6945 167.253 504.361
823 0 107.216 13.4308 1440 99.6812 166.719 502.444
824 0 110.137 13.2834 1463 100.339 167.8 501.791
825 0 113.135 13.559 1534 100.999 167.491 500.372
826 0 116.349 13.2962 1547 102.052 167.772 497.694
827 0 121.235 13.5357 1641 103.507 166.926 497.393
828 0 126.178 13.9644 1762 101.279 167.258 495.787
829 0 128.231 13.4991 1731 101.983 167.394 493.683
830 0 135.216 13.7632 1861 101.345 166.962 491.701
831 0 138.301 14.8517 2054 98.3885 165.799 489.462
832 1 75.1915 12.5546 944 99.2786 166.142 522.123
833 0 77.1992 12.7722 986 100.063 166.325 517.879
834 0 79.2696 13.8389 1097 98.4695 166.387 514.611
835 0 81.1837 13.3278 1082 101.509 166.89 513.896
836 0 84.1824 13.8034 1162 101.127 166.159 513.656
837 0 87.2205 13.4143 1170 100.209 166.161 509.521
838 0 91.2613 13.6093 1242 98.8704 166.33 506.882
839 0 93.1979 13.5196 1260 98.6754 166.401 505.764
840 0 95.2924 13.4113 1278 98.856 165.318 504.218
841 0 99.2384 14.0571 1395 97.3039 166.072 501.401
842 0 101.293 13.7325 1391 98.2006 165.226 499.236
843 0 106.234 13.9127 1478 98.253 165.401 496.491
844 0 109.389 14.2976 1564 94.087 165.707 494.907
845 0 110.208 13.5562 1494 96.9103 165.562 493.357
846 0 115.254 13.7869 1589 96.5387 166.135 490.702
847 0 119.191 14.0363 1673 95.3485 165.392 490.145
848 0 125.23 14.4773 1813 90.8571 166.487 488.182
849 1 65.2172 12.2667 800 92.6862 166.78 517.784
850 0 66.1442 12.7298 842 92.4608 167.083 517.806
851 0 69.0533 12.8162 885 93.6859 167.627 517.288
852 0 71.0527 12.92 918 94.5501 167.635 517.022
853 0 75.0378 13.7131 1029 89.76 167.291 516.759
854 0 77.0598 13.6777 1054 92.3947 167.789 516.317
855 0 79.0661 13.2674 1049 95.4805 167.495 513.504
856 0 80.0516 13.3789 1071 95.2418 167.627 513.373
857 0 83.1352 13.7126 1140 95.5605 167.706 510.705
858 0 85.1023 13.7482 1170 97.1906 167.415 509.352
859 0 90.2669 13.2718 1198 98.8848 167.619 507.245
860 0 92.166 14.029 1293 99.2568 167.359 504.466
861 0 94.2792 13.81 1302 99.2826 166.581 502.677
862 0 96.3891 14.1613 1365 100.307 166.418 500.71
863 0 99.285 13.7181 1362 102.918 166.087 498.261
864 0 102.176 14.201 1451 103.242 167.035 497.804
865 0 105.202 14.0682 1480 105.661 166.712 494.714
866 0 108.328 14.7884 1602 105.566 166.692 493.605
867 0 112.233 14.6927 1649 105.954 166.668 492.874
868 0 114.283 14.1491 1617 110.286 166.201 490.213
869 0 119.246 14.3568 1712 110.555 166.097 486.511
870 0 121.426 14.7167 1787 111.271 166.533 486.077
871 0 124.305 14.2714 1774 113.8 166.387 483.403
872 0 129.265 15.0312 1943 112.161 166.012 482.226
873 0 132.323 14.4117 1907 115.053 166.379 481.666
874 0 138.226 15.1926 2100 112.765 166.479 479.86
875 0 140.262 14.6369 2053 115.501 166.001 476.962
876 0 145.261 14.5049 2107 115.295 165.962 474.407
877 0 150.278 14.766 2219 113.697 166.246 470.83
878 0 154.346 14.785 2282 113.72 166.465 468.78
879 1 84.2158 12.088 1018 114.153 167.033 508.684
880 0 87.2533 12.9737 1132 113.086 166.948 506.033
881 0 89.0274 13.0746 1164 109.579 166.135 508.208
882 0 93.0556 13.5725 1263 107.789 166.124 507.087
883 0 92.0528 13.1338 1209 109.281 166.514 506.334
884 0 95.0517 12.8877 1225 109.328 165.882 503.924
885 0 97.042 13.5611 1316 107.014 166.113 503.327
886 0 101.074 13.2675 1341 107.274 166.122 500.737
887 0 103.042 13.4993 1391 106.323 166.298 496.925
888 0 106.102 13.8358 1468 104.574 166.245 496.009
889 0 110.098 13.4244 1478 104.084 166.227 494.94
890 0 116.094 13.4029 1556 103.262 166.267 492.961
891 1 64.0763 11.736 752 105.455 166.432 516.37
892 0 68.0787 12.7059 865 101.929 166.458 516.822
893 0 70.0413 12.564 880 102.282 166.738 510.938
894 0 73.1782 12.9683 949 104.347 167.568 513.326
895 0 73.079 12.0007 877 100.789 166.472 514.666
896 0 76.0829 12.8413 977 98.045 166.877 512.432
897 0 79.1333 12.6369 1000 97.885 166.705 511.587
898 0 83.1918 12.5493 1044 97.0441 167.132 510.244
899 0 83.0841 12.4693 1036 97.8649 167.29 508.704
900 0 88.1416 12.9678 1143 95.9895 167.479 507.13
901 0 90.1101 12.7511 1149 97.0905 167.311 506.889
902 0 91.0731 12.2868 1119 100.309 167.188 505.249
903 0 94.0745 13.0216 1225 99.422 167.627 504.282
904 0 97.1411 13.1561 1278 99.9906 167.567 501.502
905 0 101.161 12.752 1290 101.084 167.079 499.674
906 0 106.119 13.1644 1397 100.341 167.158 497.339
907 0 108.174 13.3674 1446 103.434 167.744 495.578
908 1 56.0406 12.2947 689 105.135 167.65 519.739
909 0 59.1001 13.0626 772 102.803 168.9 518.381
910 0 61.1191 14.1036 862 101.703 168.592 516.705
911 0 63.0317 13.3425 841 110.125 168.144 516.42
912 0 65.0421 12.8686 837 110.924 168.375 516.315
913 0 66.0555 13.7309 907 109.807 168.108 515.37
914 0 68.081 13.2196 900 111.457 168.083 514.998
915 0 71.0245 14.1219 1003 105.14 167.72 513.831
916 0 73.0283 14.0493 1026 105.671 167.647 512.288
917 0 74.0413 13.8436 1025 105.454 167.747 511.883
918 0 76.0264 13.7847 1048 106.968 167.982 510.99
919 0 79.0757 14.0372 1110 104.902 167.227 510.55
920 0 82.0422 14.2731 1171 106.354 166.792 509.132
921 0 85.0474 14.2274 1210 104.925 166.913 507.788
922 0 87.105 13.8798 1209 104.653 167.404 505.009
923 0 88.101 13.5299 1192 108.183 167.035 506.192
924 0 91.1069 12.7652 1163 109.442 166.882 508.255
925 0 94.1327 12.323 1160 110.116 167.211 503.921
926 0 98.1139 13.0359 1279 105.815 166.685 502.063
927 1 52.0419 12.9895 676 110.861 167.138 518.899
928 0 55.0752 13.6541 752 104.875 167.67 518.979
929 0 57.0431 13.5512 773 103.992 166.921 519.25
930 0 59.1074 13.8561 819 101.457 166.679 519.05
931 0 57.0651 13.3882 764 102.304 166.071 517.454
932 0 58.0508 13.781 800 94.55 165.9 517.251
933 0 58.0554 13.6249 791 88.8622 166.113 515.449
934 0 58.0615 12.969 753 89.3679 165.607 515.847
935 0 57.0465 12.6563 722 85.4695 166.028 514.935
936 0 55.0279 12.9207 711 81.211 166.084 515.283
937 0 55.0467 11.681 643 80.9222 165.365 515.537
938 0 52.088 10.943 570 82.8754 164.921 518.007
939 0 53.1275 11.143 592 78.9561 164.747 517.691
940 0 49.038 10.4409 512 76.6172 165.225 518.447
941 0 47.0599 10.4548 492 75.5488 164.846 518.445
942 0 48.0413 8.92983 429 74.9814 164.592 518.259
943 1 126.115 8.77771 1107 105.414 163.937 467.556
944 0 129.114 9.33282 1205 103.08 164.193 469.436
945 1 83.0844 12.3248 1024 110.399 164.456 452.519
946 0 80.0432 11.981 959 113.318 163.931 452.557
947 1 132.193 8.89607 1176 106.122 164.047 464.948
948 1 93.0632 12.9374 1204 107.9 163.605 450.921
949 0 92.0763 12.9784 1195 110.27 163.981 447.833
950 0 95.0294 13.2801 1262 110.628 164.139 445.967
951 0 98.0764 13.0918 1284 116.746 163.636 446.585
952 0 102.069 13.3831 1366 116.788 164.111 444.486
953 1 54.0418 11.8982 643 119.196 165.482 467.745
954 0 57.0651 12.2667 700 116.627 164.836 468.96
