time division length width area intensity CMx CMy
0 0 63.1425 14.1268 892 143.154 103.733 509.284
1 0 66.0668 14.4248 953 138.421 102.906 508.804
2 0 67.0407 14.5583 976 137.327 103.027 508.155
3 0 69.0413 14.3103 988 134.692 102.73 507.872
4 0 72.1024 14.3962 1038 132.439 102.807 507.852
5 0 72.0502 15.0034 1081 128.587 102.836 506.273
6 0 75.0707 14.3998 1081 130.153 103.206 505.853
7 0 77.0542 14.4963 1117 126.355 103.064 504.707
8 0 80.0529 14.0782 1127 125.626 102.512 503.832
9 0 80.142 14.2123 1139 124.608 103.128 502.91
10 0 84.0801 13.9748 1175 122.206 102.776 502.184
11 0 86.1414 14.0234 1208 120.642 102.401 500.214
12 0 87.1572 14.3304 1249 117.452 103.13 497.183
13 0 89.1363 13.6308 1215 118.165 102.106 497.844
14 0 91.14 13.9017 1267 114.886 101.511 493.625
15 0 93.175 13.6088 1268 114.447 101.579 493.838
16 0 96.2121 13.491 1298 113.571 101.888 492.166
17 1 48.1651 11.6267 560 113.68 101.707 513.707
18 0 51.1059 11.4664 586 111.585 101.391 515.841
19 0 52.143 12.2739 640 108.384 101.47 512.953
20 0 54.1652 12.9234 700 107.914 101.143 511.399
21 0 53.1542 13.0375 693 106.587 101.297 509.911
22 0 57.1119 13.4823 770 105.866 101.406 514.438
23 0 57.1056 13.3612 763 106.634 101.794 513.202
24 0 61.1347 13.9364 852 104.603 101.396 513.624
25 0 63.0732 14.285 901 102.661 101.181 512.846
26 0 65.123 13.8661 903 103.85 101.001 511.246
27 0 66.1219 13.7171 907 104.449 100.981 510.305
28 0 66.2091 13.7594 911 104.937 100.953 512.199
29 0 71.1262 13.8486 985 102.611 100.704 510.724
30 0 73.2419 13.8582 1015 103.063 100.668 509.501
31 0 73.0614 13.8103 1009 104.007 100.868 507.218
32 0 77.1066 13.4489 1037 102.872 100.885 507.089
33 0 77.1648 13.3221 1028 104.532 100.486 503.732
34 0 80.1554 13.137 1053 104.097 100.257 502.88
35 0 83.211 13.3516 1111 102.668 100.248 502.63
36 0 84.3006 13.179 1111 102.866 100.825 500.456
37 0 88.1683 13.3268 1175 100.88 99.7574 497.677
38 0 93.2768 13.3688 1247 99.1828 99.664 493.59
39 0 95.106 13.2484 1260 98.4627 98.9817 492.243
40 1 53.1289 11.9332 634 93.1672 100.628 513.975
41 0 56.0557 12.6481 709 92.6643 100.381 514.64
42 0 60.0903 13.8957 835 98.4467 100.492 515.246
43 0 60.1199 13.3733 804 93.4216 99.8968 515.418
44 0 62.0754 13.1775 818 94.9792 99.9719 514.161
45 0 64.0442 13.3033 852 95.757 99.4754 513.151
46 0 66.018 13.0722 863 97.3557 99.8563 513.316
47 0 70.0932 13.5962 953 96.7754 100.297 511.896
48 0 72.0658 13.0853 943 99.4157 99.7041 510.279
49 0 73.1008 13.3925 979 97.9775 99.8876 508.946
50 0 76.0707 13.5663 1032 98.6289 99.7432 508.211
51 0 77.0537 13.4452 1036 99.6236 100.292 507.729
52 0 81.0594 13.3482 1082 99.9104 100.25 505.296
53 0 82.06 13.2098 1084 101.525 100.052 504.233
54 0 85.0462 14.0159 1192 99.1485 99.932 505.063
55 0 86.0165 13.0789 1125 101.723 99.8844 503.22
56 0 88.0392 13.812 1216 100.946 99.926 501.072
57 0 91.0486 13.2676 1208 101.95 100.016 499.173
58 0 95.1053 14.2158 1352 104.712 99.4963 498.09
59 0 97.0383 14.1697 1375 98.5644 100.369 496.735
60 0 100.047 13.7836 1379 99.8818 99.4728 495.276
61 0 104.055 14.3002 1488 98.7258 99.8474 492.7
62 0 108.087 14.6641 1585 98.7066 99.4845 491.22
63 0 112.085 14.4177 1616 100.419 100.207 490.127
64 0 117.067 14.6326 1713 105.431 99.3911 486.528
65 0 120.101 14.5044 1742 107.635 99.6435 485.54
66 0 124.14 14.2259 1766 107.587 98.863 482.222
67 0 128.102 13.6922 1754 107.544 98.3974 481.734
68 1 68.0758 11.6635 794 101.523 98.728 514.678
69 0 68.0613 12.0774 822 102.085 98.4769 512.759
70 0 72.0484 13.0329 939 101.438 98.1576 510.957
71 0 73.0925 13.1614 962 108.549 99.2651 509.167
72 0 75.1005 12.9027 969 112.733 98.999 508.621
73 0 79.1883 13.2848 1052 110.714 99.4544 505.981
74 0 82.1376 13.4774 1107 109.519 99.0696 506.241
75 0 85.2123 13.2375 1128 99.6392 98.6339 504.404
76 0 88.1186 13.618 1200 106.279 99.0417 504.557
77 0 87.1442 13.2424 1154 106.871 98.4003 502.7
78 0 92.1602 13.4114 1236 105.028 98.9418 501.227
79 0 94.1878 13.4519 1267 104.512 98.2541 499.255
80 0 96.1159 12.7971 1230 106.589 98.5748 498.371
81 0 100.144 12.9613 1298 104.255 99.0994 496.963
82 0 102.198 13.0629 1335 102.909 99.4846 495.346
83 0 104.075 12.9042 1343 102.914 98.7305 494.208
84 0 109.262 13.1702 1439 98.4851 99.7116 490.846
85 1 59.2526 11.4257 677 94.5022 100.456 514.334
86 0 62.1821 12.1739 757 93.07 101.05 514.168
87 0 63.1159 12.1839 769 93.2575 99.6476 514.731
88 0 63.0969 12.1242 765 93.7464 100.328 513.639
89 0 68.0252 12.6424 860 89.0651 100.097 512.893
90 0 69.0576 12.743 880 89.1307 100.758 511.884
91 0 72.0481 12.6443 911 89.045 100.423 510.1
92 0 74.0213 12.5099 926 89.622 99.5994 507.244
93 0 77.0372 12.8639 991 89.3098 99.6176 505.479
94 0 78.0827 12.5892 983 90.6521 99.3622 505.437
95 0 80.0501 13.1293 1051 91.1142 99.7821 503.442
96 0 83.0381 12.9218 1073 90.4623 99.1678 503.568
97 0 84.0304 12.674 1065 91.1718 98.7146 503.811
98 0 87.0474 12.9699 1129 90.3614 99.2117 503.784
99 0 89.085 13.1784 1174 89.2802 99.3748 502.961
100 0 89.0711 12.316 1097 92.6654 99.5788 502.529
101 0 94.0348 12.6655 1191 91.8741 99.7154 499.086
102 0 96.0429 12.4007 1191 93 99.0579 499.002
103 0 99.0737 12.7683 1265 91.8743 98.6372 497.028
104 0 102.071 13.471 1375 90.7636 98.9447 495.686
105 0 106.127 13.2671 1408 90.0163 99.647 493.565
106 0 109.118 13.1785 1438 90.6683 99.6871 491.567
107 0 112.136 13.6441 1530 91.6307 99.4876 489.586
108 0 117.174 13.4074 1571 100.041 99.6435 486.021
109 0 122.205 13.9192 1701 97.2951 99.5356 483.877
110 1 66.106 11.0883 733 98.3424 101.576 513.067
111 0 68.022 12.0696 821 93.4653 100.648 510.59
112 0 68.1073 11.8636 808 89.9517 100.978 510.052
113 0 72.0391 12.2017 879 85.5677 99.9226 509.181
114 0 73.0799 12.3153 900 86.5622 98.9433 508.262
115 0 75.0671 11.7895 885 86.6158 99.3232 508.435
116 0 78.0493 12.1974 952 86.813 98.8487 508.873
117 0 77.0377 11.7215 903 89.2614 99.6545 507.815
118 0 81.1074 12.1937 989 88.8898 99.27 506.42
119 0 83.0918 11.2647 936 90.6378 99.813 504.026
120 0 85.1489 11.8851 1012 91.1976 99.7915 503.595
121 0 88.037 11.8927 1047 90.9341 99.9026 502.929
122 0 90.0947 12.1983 1099 90.364 99.3612 501.627
123 0 93.0465 12.4024 1154 90.2452 99.188 500.228
124 0 94.0795 12.5001 1176 90.2662 99.2415 499.785
125 0 99.0766 12.4853 1237 87.8197 99.5982 495.796
126 0 102.043 12.5143 1277 87.3814 99.1237 494.961
127 0 104.057 12.0895 1258 88.4165 98.6025 493.302
128 0 107.078 12.1968 1306 89.843 98.9487 491.924
129 0 111.139 12.2819 1365 89.0689 100.204 489.615
130 1 63.0706 10.6072 669 84.6532 100.904 515.75
131 0 67.0644 11.5262 773 83.7115 100.145 513.731
132 0 69.073 12.798 884 87.655 99.4898 511.33
133 0 70.0609 12.589 882 80.8084 99.3503 512.969
134 0 69.1138 11.0398 763 84.4246 98.2451 511.448
135 0 69.041 11.008 760 82.846 97.8908 510.913
136 0 72.052 10.5757 762 82.8084 97.7703 510.416
137 0 73.046 11.6228 849 81.2945 98.477 507.958
138 0 76.0832 11.2771 858 81.3601 98.7482 508.646
139 0 78.0944 11.1532 871 82.442 98.2801 506.644
140 0 81.1117 11.0465 896 82.6562 98.4464 504.224
141 0 86.0532 11.0745 953 80.5467 98.6474 504.289
142 0 87.0876 11.0119 959 81.2888 97.8029 503.572
143 0 89.0494 10.5447 939 81.6582 98.3248 501.399
144 0 92.0414 10.354 953 81.511 98.0462 499.785
145 0 96.0487 11.0465 1061 80.0697 98.9123 498.442
146 0 98.1494 10.4738 1028 80.5165 98.6926 495.197
147 0 100.147 10.6543 1067 79.6514 99.0647 493.583
148 0 106.096 11.2917 1198 77.5518 99.2229 493.492
149 0 108.098 11.0641 1196 79.4122 98.0752 489.095
150 1 57.0155 10.5761 603 76.9917 98.0647 516.983
151 0 60.0769 10.6197 638 76.8025 98.9154 514.998
152 0 63.0852 11.0961 700 76.2614 98.55 513.753
153 0 64.2338 12.003 771 80.1971 98.1829 510.22
154 0 67.0308 11.532 773 75.533 98.1734 511.348
155 0 68.0329 11.6708 794 76.4647 98.1134 510.884
156 0 70.0576 11.8759 832 76.5276 98.1695 509.502
157 0 73.0322 12.2138 892 74.8868 99.1637 508.748
158 0 76.0695 12.0679 918 75.9444 98.0436 508.014
159 0 76.0691 11.4238 869 80.3222 98.4787 507.632
160 0 80.1738 12.2609 983 79.7274 97.469 507.837
161 0 83.0309 12.7061 1055 77.9896 99.0597 506.869
162 0 84.1125 12.2812 1033 80.4453 98.4995 505.942
163 0 85.0727 12.2954 1046 83.0488 98.2706 503.777
164 0 90.0493 12.3266 1110 81.964 98.3541 503.022
165 0 93.0841 12.3115 1146 82.411 98.8246 501.468
166 0 96.0698 12.4701 1198 84.8815 98.7312 499.658
167 0 97.0728 12.4752 1211 86.4781 99.3542 498.82
168 0 100.042 12.7746 1278 86.043 98.6964 497.082
169 0 105.108 13.3197 1400 85.8471 98.9671 494.946
170 0 108.092 13.063 1412 87.8924 97.5567 492.944
171 0 111.106 13.0416 1449 88.9572 98.3313 491.088
172 0 115.102 13.1883 1518 90.303 98.865 489.717
173 1 61.0429 11.0742 676 86.9541 99.824 515.463
174 0 63.198 10.57 668 88.3353 99.8638 513.964
175 0 64.1676 10.8933 699 87.8512 100.093 514.269
176 0 68.1967 11.5841 790 86.7165 99.0608 512.546
177 0 68.071 10.5625 719 85.0932 98.4395 507.484
178 0 70.0856 10.4016 729 86.3704 98.6145 504.975
179 0 74.0297 10.1716 753 89.2789 98.2125 504.471
180 0 74.0495 10.1824 754 89.1459 98.5557 504.776
181 0 79.0566 10.5874 837 87.7168 98.5221 504.372
182 0 81.0684 11.5335 935 86.0342 98.3048 502.141
183 0 84.0697 10.7173 901 86.3585 99.101 500.715
184 0 85.038 11.1127 945 85.71 98.29 500.511
185 0 87.0776 10.8754 947 87.9546 98.6906 498.468
186 0 90.1038 11.2648 1015 87.0887 98.2335 499.086
187 0 93.0815 11.5383 1074 86.1881 97.6974 499.028
188 0 94.076 11.4376 1076 88.171 97.723 496.856
189 0 96.1346 11.4735 1103 88.8123 97.9619 494.424
190 0 101.19 12.017 1216 87.6053 98.2377 492.79
191 0 103.11 11.7739 1214 88.7372 97.9876 492.218
192 0 108.117 12.3478 1335 86.5895 98.2652 493.69
193 0 110.143 11.6666 1285 88.449 97.6086 492.972
194 0 113.239 11.7893 1335 88.0659 98.0629 488.933
195 1 62.1058 11.094 689 81.3774 97.7475 518.078
196 0 64.084 12.1559 779 78.9936 98.2195 515.864
197 0 66.0605 11.9285 788 78.3287 96.7995 515.043
198 0 67.069 11.6149 779 89.7124 96.1065 514.065
199 0 69.0799 11.9427 825 88.5176 96.3261 512.673
200 0 71.0486 12.1325 862 88.7378 96.7239 510.969
201 0 72.0621 11.7121 844 89.8495 96.8045 511.512
202 0 77.1364 12.1214 935 112.787 98.0781 509.956
203 0 77.1375 12.2508 945 112.631 98.0995 507.892
204 0 81.1464 12.3357 1001 111.041 97.7562 508.471
205 0 82.1633 12.6577 1040 111.654 98.2942 506.47
206 0 83.1726 11.927 992 113.037 97.7692 505.635
207 0 87.1463 11.8422 1032 113.398 97.8837 504.017
208 0 88.1112 12.0189 1059 111.246 97.339 504.612
209 0 93.1407 12.7334 1186 107.131 97.6779 503.111
210 0 94.0845 11.7979 1110 108.286 97.0504 500.537
211 0 97.0895 12.061 1171 106.437 97.1067 500.163
212 0 99.1029 12.0885 1198 108.051 97.0417 497.998
213 1 54.0457 11.0832 599 101.494 97.7696 523.087
214 0 55.0835 10.8018 595 99.9765 97.7832 522.961
215 0 55.0514 10.245 564 102.186 96.9184 521.917
216 0 57.04 10.9572 625 101.803 96.7136 520.739
217 0 61.072 11.7239 716 99.3506 96.3087 519.644
218 0 62.0582 12.3271 765 101.641 96.8431 518.697
219 0 65.1006 12.7341 829 97.0229 97.7708 517.759
220 0 67.1115 12.9486 869 96.4338 97.4396 516.408
221 0 68.1404 12.4596 849 97.4075 96.715 514.842
222 0 71.1706 12.0415 857 96.4749 96.8716 514.051
223 0 72.1348 12.241 883 112.871 96.9932 512.236
224 0 76.193 13.2952 1013 109.207 97.7601 510.924
225 0 78.1714 12.5238 979 111.622 97.141 508.901
226 0 80.1528 12.052 966 109.208 97.325 508.74
227 0 81.0857 11.9873 972 108.591 97.9763 507.612
228 0 84.0781 12.3457 1038 107.764 97.8314 504.59
229 0 88.1304 12.3907 1092 107.083 97.1355 505.466
230 0 89.1247 11.5793 1032 106.911 97.4264 503.575
231 0 92.0905 12.0751 1112 104.087 97.2644 501.644
232 0 93.1936 12.0502 1123 105.429 96.4408 499.837
233 0 96.2285 11.639 1120 106.169 97.317 497.506
234 0 101.32 12.12 1228 104.037 97.101 495.466
235 0 104.296 11.9084 1242 103.851 97.0354 494.771
236 0 107.314 11.9369 1281 104.327 96.9532 493.037
237 1 56.1905 10.767 605 96.2793 97.6876 518.679
238 0 57.1266 11.0456 631 95.5483 97.8415 518.393
239 0 60.1584 12.2344 736 95.6196 97.3587 516.918
240 0 63.1751 12.0459 761 97.8594 97.6097 514.866
241 0 64.1171 12.3368 791 93.8963 96.507 515.752
242 0 66.0671 13.0474 862 93.3016 96.9942 514.487
243 0 67.0896 12.4162 833 96.4934 97.06 512.687
244 0 71.0562 12.9334 919 95.8205 96.8694 513.38
245 0 74.044 13.1003 970 97.1289 96.1856 512.972
246 0 75.0451 12.6457 949 105.628 96.5163 511.474
247 0 77.0719 12.8711 992 103.552 95.9294 509.099
248 0 80.0447 12.8678 1030 105.992 96.4447 508.765
249 0 82.0342 12.8849 1057 104.833 96.4778 508.052
250 0 83.1212 12.7525 1060 106.238 97.0689 506.292
251 0 87.1024 12.4107 1081 107.273 97.8844 505.26
252 0 89.1229 12.5333 1117 105.58 98.291 504.862
253 0 92.1843 12.974 1196 104.054 98.3972 501.204
254 0 91.1578 12.5058 1140 106.589 97.8105 500.417
255 0 95.184 12.4391 1184 106.62 97.8142 499.932
256 0 96.117 12.4536 1197 106.659 97.7686 497.884
257 0 100.123 11.8255 1184 107.157 97.5 497.747
258 0 102.05 11.7883 1203 106.853 97.0574 498.111
259 0 106.093 11.5936 1230 106.85 96.9854 495.52
260 1 57.0715 9.82978 561 101.273 96.2032 519.672
261 0 58.0554 10.335 600 102.495 95.8583 517.23
262 0 58.0438 10.337 600 105.472 96.5433 515.768
263 0 61.037 11.108 678 105.543 96.0487 516.652
264 0 64.054 12.2865 787 103.942 96.1169 514.731
265 0 66.043 12.6584 836 104.178 98.1639 514.274
266 0 69.0556 12.5841 869 105.53 96.4039 513.501
267 0 66.0506 11.4458 756 101.029 96.1971 514.504
268 0 69.0978 11.6646 806 99.3623 96.4007 513.093
269 0 71.0962 11.6884 831 99.5114 96.4657 512.83
270 0 74.1191 11.4141 846 100.888 96.5118 511.768
271 0 76.1217 11.9151 907 102.509 96.2867 510.119
272 0 77.1664 11.391 879 105.042 95.9147 510.196
273 0 80.105 12.2714 983 101.768 96.3276 508.439
274 0 83.1539 11.9537 994 102.327 96.3561 507.954
275 0 86.1868 12.0204 1036 101.558 97.3446 507.404
276 0 86.1083 11.2765 971 104.493 96.9629 507.366
277 0 88.139 11.9017 1049 103.5 96.695 505.631
278 0 92.1406 11.7972 1087 102.881 97.1389 503.877
279 0 96.0953 11.6967 1124 103.114 96.5961 501.076
280 0 97.162 11.5889 1126 103.237 97.5453 501.877
281 0 99.097 11.8873 1178 97.9329 97.011 500.489
282 0 102.144 12.0026 1226 99.9576 97.5294 497.884
283 0 107.153 12.6641 1357 97.8091 96.9978 496.696
284 0 110.175 12.7796 1408 98.6804 96.7791 492.979
285 0 113.215 12.8958 1460 98.839 97.2479 492.382
286 0 118.181 13.0562 1543 98.0324 97.4504 488.528
287 0 123.176 13.3224 1641 98.2986 97.5009 486.823
288 0 126.166 13.0384 1645 99.3921 96.4231 485.318
289 0 132.191 13.7453 1817 103.113 96.689 481.349
290 0 136.157 13.5432 1844 102.625 96.3487 480.373
291 0 139.205 13.2323 1842 99.4902 96.8746 476.771
292 0 144.199 13.3427 1924 99.6835 95.8831 475.275
293 0 147.212 12.6417 1861 101.57 96.324 473.315
294 0 154.227 13.7719 2124 98.6266 96.0005 470.708
295 0 157.224 12.8479 2020 101.847 95.9337 467.874
296 0 163.197 13.3826 2184 101.651 96.1969 466.337
297 0 168.183 13.1642 2214 101.776 96.0099 463.813
298 0 171.19 13.447 2302 102.141 96.3493 460.131
299 0 177.18 13.2916 2355 105.526 96.341 459.301
300 0 184.245 13.2975 2450 104.656 95.9922 456.082
301 0 187.229 13.1924 2470 106.751 95.764 450.738
302 1 48.0896 10.0022 481 100.948 96.973 523.029
303 0 50.0729 10.0054 501 101.818 97.4591 521.667
304 0 48.0167 10.5797 508 100.344 98.0591 518.047
305 0 48.024 10.6197 510 98.6765 97.4078 516.063
306 0 49.0292 10.973 538 101.699 98.0706 517.704
307 0 54.2353 11.9111 646 99.9644 97.322 520.387
308 0 51.0294 10.0922 515 94.035 96.5456 522.262
309 0 53.0553 10.4419 554 92.926 96.6534 522.791
310 0 56.0475 10.4376 585 92.3128 96.0701 521.858
311 0 56.0671 10.6658 598 92.4097 96.8144 522.5
312 0 57.0325 10.5028 599 92.8614 96.8681 522.108
313 0 61.0685 10.8239 661 92.3646 96.8775 519.581
314 0 61.1026 10.3924 635 95.0173 96.5512 519.465
315 0 64.1161 10.8865 698 96.0544 95.3195 518.701
316 0 65.1453 10.7145 698 96.6146 94.9842 518.693
317 0 68.0776 10.6056 722 97.7382 95.1759 517.902
318 0 71.072 11.2421 799 97.005 95.1427 518.539
319 0 74.1589 11.5698 858 97.9615 94.5536 517.161
320 0 74.1252 11.5076 853 97.4338 94.7878 515.505
321 0 75.2343 11.2183 844 98.5036 95.3448 515.71
322 0 78.1694 11.5518 903 99.1805 95.1384 512.107
323 0 80.1739 11.0759 888 101.307 94.7534 512.922
324 0 84.1542 11.3245 953 100.79 94.6558 510.498
325 0 87.0553 10.8322 943 95.2216 95.913 508.142
326 0 89.0577 11.3073 1007 96.5799 95.4608 507.496
327 0 92.0956 11.4012 1050 98.4229 94.7924 506.878
328 0 94.0815 11.7876 1109 98.4094 94.4779 506.876
329 0 96.0957 11.1035 1067 103.329 94.8913 504.244
330 0 97.2396 10.7055 1041 97.3045 94.781 499.213
331 1 58.0289 10.9428 635 103.178 96.1638 525.068
332 0 58.0374 10.3382 600 98.565 95.7983 520.92
333 0 61.0612 11.3984 696 105.447 96.0675 521.052
334 0 61.1268 11.3862 696 93.3865 94.2184 521.066
335 0 61.0477 11.2699 688 94.2849 94.5581 520.711
336 0 64.2175 11.4766 737 91.5346 96.4098 519.072
337 0 66.1627 11.3659 752 90.2593 95.984 517.116
338 0 68.2391 12.0019 819 90.2735 95.4286 517.178
339 0 69.1532 11.1781 773 90.0634 95.2717 514.952
340 0 71.1218 11.3186 805 90.3155 95.0335 514.901
341 0 74.1288 11.8847 881 88.3644 94.7673 515.667
342 0 77.1578 12.7401 983 84.8464 95.4395 514.811
343 0 80.1577 13.3612 1071 82.1793 94.7348 515.217
344 0 79.0843 9.91347 784 94.1582 94.2806 507.911
345 0 80.0547 10.293 824 92.3604 93.8568 506.363
346 0 82.0694 10.6252 872 92.7076 94 502.972
347 0 83.1587 10.4258 867 91.301 93.5294 503.046
348 0 89.0872 11.3148 1008 87.6062 93.3502 503.993
349 0 91.0924 10.7364 978 87.5358 92.8937 502.743
350 0 94.0598 11.1525 1049 87.0105 93.7874 502.67
351 0 95.1123 9.47301 901 90.6226 93.5061 499.976
352 0 98.0701 10.6353 1043 89.6836 93.0623 497.739
353 0 101.122 11.4812 1161 93.0577 93.8286 500.124
354 0 105.048 11.5091 1209 91.0372 92.6328 497.519
355 0 108.152 10.3188 1116 90.9955 93.5421 497.571
356 0 110.166 10.3117 1136 91.9181 92.8838 495.236
357 0 115.181 10.2968 1186 91.2538 93.8322 493.782
358 0 117.297 10.418 1222 92.1849 92.8339 490.359
359 0 118.291 11.328 1340 92.1582 93.5276 490.016
360 0 118.291 11.3618 1344 129.513 93.5402 490.092
361 0 127.403 11.0359 1406 93.7084 93.5683 487.191
362 0 129.286 10.5347 1362 94.0147 93.6968 484.085
363 0 132.281 10.4399 1381 93.8994 92.9906 482.835
364 0 137.273 11.5172 1581 93.4105 94.043 480.794
365 0 140.215 11.1472 1563 94.4606 94.0659 479.562
366 0 143.263 10.8891 1560 97.1397 94.0487 478.31
367 0 147.217 11.9279 1756 97.5273 93.1982 473.418
368 0 155.438 11.8826 1847 96.6156 93.039 472.598
369 0 159.387 12.2344 1950 96.7544 93.4774 471.338
370 0 163.529 12.2241 1999 99.7879 93.3552 465.62
371 0 169.387 12.746 2159 100.423 93.6531 462.954
372 1 81.2472 11.2127 911 101.088 94.3491 507.989
373 0 85.2639 11.2122 956 102.824 94.7333 506.765
374 0 90.282 11.4419 1033 100.386 93.9961 504.692
375 0 91.1691 11.9777 1092 102.807 94.468 502.472
376 0 91.2101 11.9395 1089 100.079 93.9697 500.265
377 0 93.1497 11.8304 1102 93.0626 94.6334 504.183
378 0 95.2108 10.8811 1036 92.139 95.3205 503.155
379 0 99.1861 11.2919 1120 91.2036 94.5393 501.954
380 0 101.164 10.7449 1087 94.0322 95.0092 500.304
381 0 104.124 10.6795 1112 95.688 94.3615 498.511
382 0 110.136 11.5222 1269 94.2837 94.8424 496.638
383 0 114.16 11.2298 1282 96.0562 95.3495 494.315
384 0 117.155 11.7281 1374 96.9061 95.1725 491.357
385 0 121.183 12.0231 1457 96.5573 94.9314 489.352
386 0 125.286 11.789 1477 98.956 95.0535 488.435
387 0 129.087 11.3024 1459 98.6278 93.852 486.842
388 0 134.149 11.204 1503 91.8929 94.8576 484.062
389 0 137.129 10.1511 1392 94.1099 94.8865 480.854
390 0 138.074 11.5011 1588 96.8772 95.1039 479.528
391 0 144.208 11.7262 1691 96.3862 94.8788 474.659
392 1 70.0428 10.0082 701 92.3138 94.5078 512.337
393 0 72.0825 10.155 732 89.4945 95.0287 510.903
394 0 76.069 10.3459 787 88.5337 95.4333 510.226
395 0 79.1042 10.6695 844 87.9953 95.1351 508.697
396 0 78.0254 10.2018 796 90.152 95.4585 507.607
397 0 83.0603 10.6429 884 88.8835 95.1765 505.6
398 0 84.0572 10.1716 855 90.4222 95.6924 504.822
399 0 86.0573 10.6789 919 90.8585 94.9369 503.535
400 0 89.0413 10.2761 915 91.3016 95.2087 501.973
401 0 93.0669 10.8417 1009 90.3181 96.0178 499.725
402 0 95.0662 10.6242 1010 92.0347 95.604 499.963
403 1 48.0225 9.84955 473 88.241 96.148 522.309
404 0 51.0096 9.58644 489 87.3865 96.2843 523.055
405 0 51.0367 10.6982 546 84.8535 96.6172 524.2
406 0 52.0379 11.1073 578 86.2215 95.2941 522.085
407 0 52.0083 10.556 549 88.7177 95.7723 522.199
408 0 53.0378 10.9544 581 89.8589 95.6575 521.814
409 0 54.0876 10.3166 558 92.9086 96.9212 520.98
410 0 54.0406 10.6772 577 93.234 96.714 520.627
411 0 55.0578 10.153 559 95.1216 96.3399 521.268
412 0 55.0227 10.7047 589 93.0781 96.0187 518.846
413 0 58.024 10.4784 608 93.227 96.3931 519.536
414 0 60.0341 11.3935 684 91.383 95.6579 519.959
415 0 62.1213 11.2039 696 92.4756 95.7284 519.157
416 0 64.0665 11.2071 718 93.5487 95.6212 517.51
417 0 66.1194 11.8725 785 94.1631 95.5745 516.275
418 0 67.123 11.2778 757 96.4399 96.3487 514.908
419 0 68.0744 10.9733 747 99.4337 95.9237 515.265
420 0 72.0999 11.6228 838 100.543 95.6945 513.005
421 0 74.0614 12.2061 904 100.247 94.4978 513.426
422 0 76.0224 12.4832 949 100.23 94.8356 511.877
423 0 78.0335 12.4177 969 102.115 94.9825 509.754
424 0 81.049 12.4986 1013 102.335 94.7009 507.121
425 0 83.0941 12.4196 1032 103.25 94.3217 507.414
426 0 86.1289 13.0967 1128 102.812 94.0168 506.221
427 0 87.0808 13.1372 1144 103.316 94.0691 504.098
428 0 90.0751 13.6553 1230 100.728 94.3675 502.194
429 0 94.1504 13.2448 1247 99.8116 94.1315 502.006
430 0 98.0472 12.596 1235 108.457 93.179 499.046
431 0 99.1391 12.5379 1243 107.792 93.8584 497.464
432 0 104.069 12.8088 1333 106.533 93.4741 496.134
433 0 105.089 12.4752 1311 108.367 93.8833 494.288
434 0 107.079 12.729 1363 107.764 93.4263 492.5
435 0 110.084 12.7176 1400 107.636 93.5293 491.784
436 1 61.0715 10.5123 642 100.681 94.4143 517.702
437 0 58.0285 10.064 584 92.4452 93.7877 512.483
438 0 65.0362 12.0702 785 88.5032 94.0866 516.606
439 0 64.0445 11.3203 725 88.7228 94.12 516.952
440 0 66.1213 11.6301 769 89.5072 94.857 515.668
441 0 67.099 11.6246 780 90.9192 94.6359 513.915
442 0 69.0423 11.4567 791 92.5752 95.0847 513.177
443 0 72.0427 11.9512 861 91.5981 94.3206 511.85
444 0 74.046 11.1147 823 94.6853 94.6136 511.369
445 0 77.0832 11.7146 903 94.8128 94.4961 511.152
446 0 77.0869 10.819 834 99.7086 95.2986 510.269
447 0 79.1035 11.4407 905 99.2564 95.9238 508.652
448 0 83.0753 11.0141 915 100.27 95.3705 506.761
449 0 84.0909 11.4995 967 100.598 95.0372 505.939
450 0 89.0945 12.1444 1082 98.6885 94.4325 504.784
451 0 90.1774 11.311 1020 100.831 94.8863 503.545
452 0 93.1084 11.3846 1060 101.639 94.717 501.724
453 0 96.1087 11.6119 1116 99.7608 94.4265 501.85
454 0 99.0647 11.5985 1149 100.341 94.6205 499.985
455 0 102.104 11.4883 1173 100.483 94.0068 497.652
456 0 107.053 11.5831 1240 105.165 94.0879 494.877
457 0 109.032 10.9326 1192 108.756 94.3322 493.888
458 0 112.08 10.7155 1201 109.099 94.1682 490.975
459 0 117.085 11.4105 1336 106.412 93.2912 489.632
460 0 120.062 11.3108 1358 106.853 93.8616 485.335
461 0 126.123 11.9883 1512 102.351 93.3624 483.91
462 1 69.0593 10.4693 723 101.557 94.5422 512.476
463 0 71.0929 11.5483 821 97.1583 94.0158 512.747
464 0 72.097 11.3181 816 96.8529 94.7414 510.055
465 0 74.1639 12.1218 899 93.8865 94.5462 510.553
466 0 76.0434 12.2693 933 97.8982 94.3451 508.593
467 0 79.0334 12.2733 970 96.9186 95.9711 508.197
468 0 82.0368 12.3847 1016 95.3199 95.2736 506.038
469 0 86.0775 12.5352 1079 94.507 95.076 503.661
470 0 88.0478 12.5614 1106 95.3861 95.4494 502.726
471 0 89.0607 12.9013 1149 96.2585 95.6519 501.023
472 0 94.0675 13.2352 1245 94.4056 94.796 501.378
473 0 97.1198 12.881 1251 98.048 95.2566 500.72
474 0 99.0781 12.6264 1251 96.7826 95.1838 499.134
475 0 102.141 13.217 1350 97.4111 95.4222 496.509
476 0 102.095 12.2043 1246 100.327 94.8852 497.059
477 0 106.117 12.1941 1294 102.529 94.6538 495.54
478 0 109.152 11.6352 1270 103.908 94.3417 495.798
479 0 112.159 12.0364 1350 103.655 94.6015 493.449
480 0 114.103 11.9717 1366 105.141 94.0447 491.376
481 0 119.135 12.3389 1470 103.918 93.5823 487.805
482 0 121.181 12.4772 1512 102.263 94.1396 485.245
483 1 66.173 11.1224 736 107.861 93.9171 512.704
484 0 67.0802 11.3148 759 102.196 95.1858 509.705
485 0 67.1138 10.7876 724 100.416 94.9351 506.377
486 0 71.0682 10.3422 735 98.5946 94.019 505.546
487 0 74.0321 10.3874 769 97.5592 93.2978 505.072
488 0 75.1138 10.7171 805 98.8497 94.1217 504.471
489 0 78.1265 10.6878 835 101.087 94.115 502.704
490 0 80.1603 10.4416 837 103.104 94.1983 503.382
491 0 82.1615 10.9419 899 103.201 93.4305 500.77
492 0 85.0669 11.2029 953 100.248 93.8646 500.839
493 0 89.1529 11.3064 1008 101.332 94.5188 499.129
494 0 90.1958 11.9629 1079 98.6302 94.9101 497.196
495 0 93.1619 11.3458 1057 99.6556 93.9016 496.167
496 0 94.1462 11.5246 1085 99.8737 94.0129 494.954
497 0 98.1402 11.5345 1132 102.837 93.7164 494.763
498 0 102.179 12.1747 1244 101.399 93.9711 492.969
499 0 104.146 12.0312 1253 105.434 94.0144 492.869
500 0 108.136 12.6138 1364 103.28 94.0345 490.65
501 0 111.172 13.2857 1477 113.061 93.5904 493.183
502 0 115.123 13.0295 1500 112.087 93.832 490.419
503 0 117.238 13.0248 1527 111.277 93.1474 490.366
504 0 119.195 13.3478 1591 108.713 94.6317 487.98
505 0 122.092 13.0967 1599 98.1026 94.1564 486.181
506 0 125.1 12.8058 1602 99.0362 94.0493 484.177
507 0 131.219 12.8107 1681 102.146 93.2558 481.074
508 0 137.174 12.5242 1718 101.733 93.4907 479.027
509 0 140.167 13.5552 1900 96.2295 92.9553 477.563
510 0 146.101 13.5249 1976 96.7348 93.1012 475.059
511 0 150.226 13.0204 1956 99.4003 92.8384 472.218
512 0 154.171 12.9661 1999 102.227 92.9515 470.98
513 1 84.1204 10.5087 884 104.575 91.9355 507.553
514 0 87.1304 11.5344 1005 102.096 91.9194 505.611
515 0 89.1599 12.0794 1077 96.6713 92.4002 505.547
516 0 92.1083 12.3767 1140 94.7175 93.486 505.537
517 0 93.1258 11.0281 1027 98.3447 92.887 506.503
518 0 96.1951 11.4767 1104 95.4828 92.6703 503.725
519 0 100.154 11.9916 1201 94.0866 92.4596 502.307
520 0 103.112 11.9191 1229 93.69 92.5134 500.804
521 0 108.116 12.3756 1338 90.7003 92.3782 498.972
522 0 109.133 11.7105 1278 92.0916 92.2418 497.009
523 0 113.112 11.8732 1343 91.5629 92.7818 495.971
524 0 116.116 12.4272 1443 89.7713 92.9723 496.069
525 1 63.0333 10.5976 668 89.6572 93.5509 523.097
526 0 63.0133 10.712 675 92.1511 93.5807 521.997
527 0 65.027 11.5183 749 90.1949 92.996 520.346
528 0 67.0707 11.7488 788 89.2551 93.5102 518.085
529 0 71.1218 12.5137 890 84.1966 93.2191 517.515
530 0 71.0623 11.694 831 86.5054 93.941 516.114
531 0 75.118 11.7548 883 85.8743 93.3398 515.841
532 0 78.0892 12.8699 1005 84.7333 93.4 513.639
533 0 79.0673 12.0024 949 88.1391 93.4236 511.399
534 0 81.0649 11.9781 971 87.6694 92.931 513.64
535 0 85.0979 11.9627 1018 89.4735 92.7947 511.246
536 0 87.0694 13.2193 1151 87.6568 92.5456 509.419
537 0 90.0311 12.7845 1151 89.0582 92.6716 508.551
538 0 91.0455 12.2356 1114 93.5826 92.4704 506.712
539 0 91.0909 11.8892 1083 100.139 92.9197 507.855
540 0 93.0621 11.6374 1083 103.193 92.6334 508.465
541 0 97.063 11.6625 1132 104.693 92.8684 506.694
542 0 98.1107 12.0272 1180 106.277 93.5017 504.515
543 0 101.083 12.7321 1287 106.411 92.4289 504.594
544 0 105.122 12.4617 1310 109.094 91.5519 502.487
545 0 108.124 12.7909 1383 109.584 91.4165 500.139
546 0 110.064 13.1196 1444 111.203 91.6607 499.993
547 0 112.133 12.5209 1404 110.287 90.864 500.193
548 0 114.192 12.7592 1457 113.165 91.8524 499.399
549 0 118.185 13.6227 1610 113.529 90.8776 497.734
550 0 122.121 13.8223 1688 114.655 91.702 496.088
551 0 126.188 13.2738 1675 118.113 91.7904 492.9
552 0 131.146 13.443 1763 117.205 92.3636 491.805
553 0 132.192 12.8828 1703 118.513 91.9542 489.039
554 0 137.183 13.2378 1816 117.249 92.2181 487.795
555 0 140.217 13.0798 1834 120.827 91.4013 486.93
556 0 147.2 13.9199 2049 116.592 91.9317 483.84
557 0 150.228 13.4462 2020 117.951 91.846 480.967
558 0 155.082 13.5606 2103 116.694 91.9377 479.17
559 0 159.166 13.5708 2160 116.456 92.0787 475.899
560 0 166.244 14.7615 2454 110.88 91.9254 471.281
561 0 171.276 14.7014 2518 114.568 92.0342 469.664
562 0 177.289 15.0545 2669 112.82 93.0285 465.453
563 0 181.247 14.8472 2691 122.291 92.7938 462.177
564 0 186.352 14.8482 2767 122.719 92.198 459.638
565 0 193.314 14.5256 2808 121.726 92.3907 457.861
566 0 199.311 14.9013 2970 121.645 92.4535 451.339
567 1 149.261 12.1934 1820 123.516 93.4374 482.354
568 0 153.178 12.4626 1909 123.862 92.8491 480.399
569 0 157.206 12.7985 2012 125.106 92.829 475.569
570 0 162.191 13.3546 2166 122.93 93.1838 472.531
571 0 167.223 12.8451 2148 123.456 93.0363 471.162
572 0 172.241 12.9121 2224 123.456 92.8952 466.205
573 0 178.273 12.8679 2294 122.781 93.034 463.839
574 0 182.176 13.0698 2381 124.937 92.7299 459.842
575 0 189.183 12.665 2396 126.452 92.2095 458.458
576 0 195.183 13.1415 2565 125.117 91.8955 455.257
577 0 199.268 13.2986 2650 124.853 91.7253 452.287
578 0 205.218 12.9959 2667 129.462 92.4106 450.066
579 0 212.2 13.2281 2807 128.914 92.031 444.844
580 0 219.232 13.1048 2873 127.75 91.4288 439.071
581 1 48.0106 10.0811 484 118.448 93.0434 524.901
582 0 50.0162 10.3766 519 113.459 93.368 521.324
583 0 54.0686 11.023 596 116.069 90.7534 527.087
584 0 55.0916 11.3084 623 113.501 91.1364 525.639
585 0 53.1029 10.2254 543 105.68 90.9797 526.123
586 0 54.2642 9.82231 533 108.63 91.1445 526.972
587 0 57.1491 10.3589 592 103.098 91.549 524.845
588 0 57.232 9.97694 571 108.012 90.8021 525.499
589 0 59.1815 10.6114 628 103.879 91.1736 525.374
590 0 62.2327 10.2036 635 104.397 91.2488 523.461
591 0 63.178 10.415 658 107.353 91.2796 524.346
592 0 65.1979 10.4911 684 106.946 91.231 523.547
593 0 67.0782 10.9872 737 104.289 90.7639 520.041
594 0 71.1228 11.3466 807 101.209 90.1301 519.776
595 0 70.2202 10.4244 732 106.141 90.9495 520.59
596 0 73.1243 10.53 770 105.548 90.9039 518.671
597 0 73.1454 10.3082 754 111.093 90.5889 518.277
598 0 77.206 11.1002 857 110.03 90.8646 517.14
599 0 78.1226 10.1507 793 112.129 90.7037 516.32
600 0 81.1454 10.6969 868 111.371 90.7177 514.765
601 0 87.1165 11.9266 1039 111.612 90.3763 510.126
602 0 86.0738 11.3043 973 115.781 90.1706 511.897
603 0 90.0993 11.3208 1020 117.667 89.7382 509.805
604 0 94.1272 11.5376 1086 117.311 90.407 507.843
605 0 98.0558 12.2583 1202 116.38 90.5191 507.631
606 0 100.048 12.564 1257 116.671 89.6333 504.521
607 0 103.061 12.5945 1298 117.341 90.3197 503.2
608 0 106.06 12.8984 1368 117.442 89.7113 499.549
609 0 111.074 13.6305 1514 116.037 90.4425 495.546
610 1 59.0235 10.6229 627 119.986 90.0542 524.145
611 0 61.0402 10.9927 671 117.283 89.7884 522.292
612 0 60.0145 10.7641 646 108.711 89.9598 519.828
613 0 59.0692 9.49733 561 99.1301 91.7718 521.23
614 0 59.0468 9.09447 537 98.6127 91.7672 520.944
615 0 61.1497 9.50127 581 98.6747 91.642 518.941
616 0 62.0498 9.84694 611 97.892 91.743 518.907
617 0 65.0379 9.25614 602 97.5498 90.9568 519.248
618 0 65.1107 9.89085 644 96.2733 91.8509 516.781
619 0 67.1384 10.0688 676 96.5547 92.2441 513.864
620 0 70.1087 10.0986 708 97.0847 91.9788 514.494
621 0 72.1061 10.1378 731 96.9398 91.3612 512.503
622 0 75.1061 10.4652 786 95.1743 92.084 512.08
623 0 74.0736 10.1926 755 98.2199 91.698 510.293
624 0 78.0576 11.0175 860 95.6744 91.9779 508.214
625 0 79.1291 10.4892 830 97.4494 92.2843 506.97
626 0 81.1016 11.3315 919 97.1153 91.6562 504.645
627 0 85.1151 11.5138 980 98.5031 91.5622 503.171
628 0 90.2707 12.0305 1086 107.211 91.1906 506.558
629 0 93.1256 12.3919 1154 108.473 91.7426 501.515
630 0 93.0875 11.7739 1096 111.209 92.7819 501.61
631 0 95.1409 10.9732 1044 113.67 92.8228 501.246
632 0 98.1562 11.2983 1109 109.698 92.6826 500.487
633 0 99.1046 10.3123 1022 113.147 92.0665 497.58
634 0 105.123 11.32 1190 108.792 92.6899 495.687
635 1 56.0379 9.45789 530 112.517 93.7113 517.664
636 0 60.0478 10.5083 631 109.937 93.5658 518.669
637 0 59.0281 10.4696 618 106.552 94.0793 515.076
638 0 59.0208 10.5387 622 104.971 93.6238 519.69
639 0 62.0445 10.4119 646 106.492 92.757 518.833
640 0 64.0142 10.6851 684 106.439 91.807 517.167
641 0 68.015 10.9535 745 105.393 92.6295 517.681
642 0 70.068 11.3318 794 106.305 91.9584 516.36
643 0 73.0503 10.8145 790 106.601 93.3418 515.848
644 0 74.1023 11.4302 847 106.641 92.9422 513.619
645 0 76.0477 11.0588 841 109.486 93.5077 512.749
646 0 79.0509 11.5369 912 107.277 93.6557 510.537
647 0 81.0515 11.4865 931 107.144 93.754 511.591
648 0 86.0867 12.2551 1055 105.443 93.6104 508.746
649 0 90.0406 12.661 1140 103.667 93.3482 507.703
650 0 92.0655 12.7952 1178 102.969 92.7776 506.508
651 0 95.0288 12.3752 1176 103.87 92.2483 504.806
652 0 96.0472 11.7859 1132 105.281 93.235 503.648
653 1 54.0458 11.1572 603 104.363 94.461 523.362
654 0 56.0259 11.1199 623 101.191 94.947 522.864
655 0 56.0841 11.5363 647 102.116 94.0572 522.136
656 0 59.0687 11.0888 655 108.234 91.945 521.684
657 0 60.0921 11.316 680 107.987 92.5529 520.597
658 0 62.0803 11.9362 741 106.367 93.0351 520.517
659 0 63.0963 12.3779 781 105.589 92.7273 520.75
660 0 64.076 11.3459 727 109.243 93.0082 519.231
661 0 67.12 11.7998 792 107.693 92.2891 517.888
662 0 67.1728 11.7012 786 108.057 92.8868 517.23
663 0 69.0892 11.8108 816 106.967 92.7292 515.982
664 0 70.1688 11.8856 834 107.752 93.0815 514.122
665 0 72.0859 11.847 854 107.937 93.1194 512.513
666 0 73.122 12.3766 905 106.018 93.5934 512.266
667 0 77.0897 11.5709 892 106.697 93.8756 512.041
668 0 78.1038 11.7152 915 107.739 93.1322 511.41
669 0 82.1405 11.9308 980 106.312 93.4439 509.388
670 0 83.11 11.7675 978 108.268 93.1452 508.081
671 0 86.1043 11.6603 1004 107.781 93.4173 508.313
672 0 86.1291 11.8891 1024 109.337 93.9561 507.199
673 0 88.1219 12.2217 1077 110.709 93.0994 505.135
674 0 93.1047 12.3087 1146 111.042 93.9974 503.323
675 0 95.1106 12.1858 1159 112.762 93.2097 502.434
676 0 98.1989 11.5378 1133 114.271 93.7211 502.567
677 0 99.1146 12.2585 1215 113.566 93.7893 500.498
678 0 105.13 12.3276 1296 112.774 93.7253 498.748
679 0 108.148 12.261 1326 114.59 93.2127 497.864
680 0 110.107 12.3153 1356 114.327 93.073 496.121
681 1 57.0428 11.8683 677 103.024 93.61 522.09
682 0 58.032 11.5798 672 102.939 93.5729 522.424
683 0 59.0342 12.3826 731 103.408 94.3735 521.414
684 0 63.1173 12.0569 761 113.675 94.8686 519.817
685 0 64.0704 12.2678 786 112.382 95.402 518.81
686 0 65.0659 12.0801 786 111.665 95.1031 518.914
687 0 68.0487 12.5645 855 111.794 94.5661 516.91
688 0 70.1714 12.3127 864 111.512 94.6262 516.091
689 0 72.1081 12.4951 901 110.919 94.7536 515.663
690 0 75.0522 12.3781 929 110.588 94.4575 515.375
691 0 77.063 12.7298 981 110.179 93.7217 513.825
692 0 79.0642 12.2179 966 110.734 94.4389 514.378
693 0 80.056 12.129 971 111.732 94.069 512.546
694 0 84.1397 12.194 1026 110.288 94.6179 511.473
695 0 84.0989 12.0691 1015 111.93 93.5074 508.935
696 0 88.095 12.2822 1082 110.886 93.9797 508.274
697 0 90.1214 12.3833 1116 110.356 93.4212 506.238
698 0 92.1062 11.4976 1059 111.254 93.3636 507.224
699 0 96.153 12.2825 1181 105.967 93.7189 506.837
700 0 97.1121 13.2836 1290 103.517 93.3457 504.985
701 0 100.174 13.2669 1329 103.415 93.9985 505.545
702 0 102.12 12.8672 1314 102.846 93.6119 502.61
703 0 107.146 12.9916 1392 100.994 92.7234 500.151
704 1 54.0817 10.5581 571 97.3222 93.5254 527.2
705 0 54.0673 10.6534 576 97.2847 93.1771 526.543
706 0 58.0748 11.6918 679 93.8218 93.7747 525.707
707 0 58.1063 10.825 629 97.1542 94.0048 523.82
708 0 61.0657 11.9216 728 95.4011 93.3324 524.588
709 0 62.0375 11.5737 718 97.0279 93.0515 523.73
710 0 64.0544 12.3957 794 96.7217 92.9509 521.95
711 0 67.0498 12.4534 835 97.2431 92.4707 521.852
712 0 70.1639 11.8722 833 110.277 93.2785 520.557
713 0 71.1159 12.3179 876 109.163 92.8276 519.372
714 0 74.1224 13.0865 970 107.173 92.7113 518.92
715 0 77.129 11.967 923 110.939 93.2015 517.764
716 0 78.1395 13.0536 1020 107.541 93.201 518.56
717 0 80.0236 12.7088 1017 110.149 93.0315 517.354
718 0 82.0524 13.2598 1088 112.592 92.6728 514.899
719 0 81.0862 12.6902 1029 118.569 92.69 515.738
720 0 85.1034 12.7492 1085 119.41 92.7613 515.245
721 0 87.0978 12.951 1128 119.074 92.5771 514.199
722 0 89.0671 12.6197 1124 120.951 92.9101 512.599
723 0 91.0582 12.9368 1178 121.581 93.0569 512.82
724 0 93.1424 12.2286 1139 124.292 91.8666 510.352
725 0 95.1567 12.4321 1183 123.216 92.1141 509.088
726 0 99.238 12.8479 1275 122.547 91.8737 507.064
727 0 102.195 12.8284 1311 122.18 91.8589 505.236
728 0 105.343 12.578 1325 123.698 91.9464 503.78
729 0 108.24 12.7309 1378 125.779 91.7003 503.097
730 0 112.316 12.5627 1411 125.519 92.1538 502.479
731 0 116.323 12.3965 1442 125.997 91.5083 499.471
732 1 63.1512 10.9103 689 117.312 93.2409 526.073
733 0 65.1889 11.321 738 114.579 93.0637 525.226
734 0 67.0635 11.4966 771 102.864 94.0493 521.87
735 0 68.0596 11.7838 802 103.344 94.2032 521.682
736 0 71.0558 11.8217 840 104.269 93.9833 519.739
737 0 73.0863 12.3279 901 103.493 93.8302 517.355
738 0 74.1081 12.4683 924 103.969 93.4156 515.763
739 0 78.1132 12.149 949 104.144 93.7998 516.305
740 0 79.1087 12.6029 997 103.73 93.3671 514.405
741 0 81.1034 12.4039 1006 105.122 93.6302 513.12
742 0 84.0745 12.4295 1045 106.26 93.8689 512.1
743 0 84.1685 12.57 1058 106.714 92.6739 510.189
744 0 87.1049 12.7318 1109 105.962 92.4743 509.693
745 0 89.1439 12.7098 1133 107.258 93.0768 508.102
746 0 93.1033 12.3304 1148 107.354 93.1672 506.975
747 0 95.1881 12.4805 1188 107.25 93.3476 505.687
748 0 95.1853 12.3759 1178 107.75 92.9703 504.486
749 0 99.1633 13.1198 1301 103.939 92.6641 503.013
750 0 102.201 12.0449 1231 106.982 92.6694 501.135
751 0 104.144 12.2523 1276 107.817 93.0321 501.212
752 0 106.082 12.0944 1283 108.794 92.6773 498.864
753 0 110.153 12.2648 1351 109.55 92.7668 496.677
754 1 58.2027 10.1885 593 105.614 93.0219 523.713
755 0 61.1749 11.4099 698 106.874 92.9685 520.736
756 0 63.1738 12.2361 773 109.603 92.8978 519.69
757 0 66.1924 12.6903 840 107.02 92.9631 518.929
758 0 66.0981 12.8294 848 112.849 93.5389 518.685
759 0 70.0437 12.2495 858 118.59 93.9289 519.188
760 0 72.1807 12.2748 886 118.358 93.7528 517.497
761 0 73.1275 12.1569 889 120.902 92.8425 516.004
762 0 75.1618 12.2669 922 119.267 93.7278 514.343
763 0 78.2683 12.2272 957 119.633 93.5246 513.649
764 0 80.1964 12.1951 978 120.499 93.6217 512.518
765 0 82.1115 12.6292 1037 119.351 93.3404 511.939
766 0 85.2326 12.6243 1076 120.432 93.1989 511.281
767 0 87.1676 12.3326 1075 120.867 93.6409 510.994
768 0 90.1302 12.9368 1166 119.801 93.2787 509.787
769 0 92.231 11.7856 1087 125.736 92.4388 507.171
770 0 93.1462 12.1207 1129 126.376 92.8716 505.787
771 0 98.124 12.3823 1215 124.04 92.7235 504.881
772 0 98.0994 12.6097 1237 122.295 93.2587 502.053
773 0 103.116 12.1223 1250 124.34 93.06 501.542
774 0 107.161 12.5885 1349 122.054 92.702 499.767
775 1 60.0403 11.3257 680 118.375 93.1941 522.394
776 0 61.0667 11.4629 700 119.193 92.49 521.283
777 0 63.1174 11.7717 743 120.472 92.5074 517.97
778 0 64.0743 11.9549 766 107.965 92.2428 520.683
779 0 68.0488 12.6527 861 103.942 92.676 519.952
780 0 69.0253 12.5896 869 104.021 92.641 519.169
781 0 71.0158 12.3071 874 104.455 93.0481 516.515
782 0 74.0135 12.4977 925 102.809 92.9373 513.681
783 0 76.0681 12.6597 963 103.234 93.1516 511.751
784 0 79.0942 12.2259 967 102.419 93.1013 511.842
785 0 83.0849 12.2405 1017 119.564 92.7119 510.775
786 0 86.0768 12.7793 1100 116.833 94.0064 508.647
787 0 89.1814 12.6708 1130 117.727 93.5681 510.072
788 0 92.0794 12.9779 1195 117.342 94.1439 506.309
789 0 94.2149 12.5989 1187 118.924 93.7911 505.84
790 0 97.2109 12.8998 1254 120.546 94.6882 503.759
791 0 99.1753 13.1787 1307 118.616 94.974 503.461
792 0 103.215 12.7792 1319 118.526 94.7961 501.366
793 0 104.116 11.9194 1241 119.166 94.2514 500.309
794 0 108.078 12.1671 1315 115.202 93.9498 497.982
795 0 112.096 12.7837 1433 106.139 93.5394 495.542
796 0 114.066 12.4314 1418 108.085 93.6876 493.786
797 0 118.077 11.9245 1408 115.545 93.6335 494.592
798 0 119.127 12.0124 1431 109.395 94.1733 490.836
799 0 121.067 12.175 1474 109.261 93.7788 491.916
800 0 124.087 12.4912 1550 107.896 93.7116 489.914
801 0 129.071 11.3736 1468 106.781 94.4046 485.106
802 0 133.083 11.5943 1543 107.075 93.9844 484.489
803 0 138.068 11.4509 1581 111.577 93.6774 485.187
804 0 143.123 11.3818 1629 110.775 94.6047 481.296
805 0 146.202 11.4157 1669 112.631 94.2121 478.244
806 0 152.167 11.5399 1756 111.851 94.4459 478.421
807 0 155.155 11.8785 1843 112.123 94.1205 473.813
808 0 161.168 12.1798 1963 111.768 94.245 473.013
809 0 165.193 11.8165 1952 114.812 93.6757 471.675
810 0 171.141 11.9258 2041 113.266 93.2528 468.512
811 0 177.233 12.4751 2211 111.686 93.0136 467.339
812 0 181.299 12.5594 2277 112.895 92.6109 465.999
813 0 188.294 12.6398 2380 114.324 93.2286 463.22
814 0 193.276 12.3192 2381 118.841 93.008 461.574
815 0 201.362 13.1505 2648 117.092 93.4162 458.76
816 0 208.368 12.9338 2695 118.573 92.8712 456.28
817 0 213.42 12.5012 2668 120.47 93.1458 454.265
818 0 219.334 12.7067 2787 120.118 92.0111 453.214
819 1 166.363 12.5328 2085 119.008 92.0154 473.976
820 0 172.342 13.1367 2264 112.919 92.2098 471.157
821 0 176.385 12.8469 2266 122.022 91.8976 466.658
822 0 180.6 13.2226 2388 117.717 91.7571 464.452
823 0 187.518 12.9107 2421 117.699 91.2404 458.516
824 0 192.227 12.4488 2393 115.024 92.7848 454.867
825 0 200.433 12.0689 2419 114.25 92.2257 452.51
826 0 203.262 12.3141 2503 114.519 92.7934 449.394
827 0 212.237 12.7923 2715 114.402 91.9724 447.148
828 0 217.267 12.6756 2754 112.422 92.0835 440.65
829 0 225.216 12.8499 2894 108.944 92.1748 438.979
830 0 231.165 11.7622 2719 111.029 91.8658 434.305
831 0 237.256 12.6488 3001 109.057 90.7191 431.1
832 0 242.252 12.0907 2929 112.043 91.2171 424.987
833 0 251.415 12.5649 3159 111.904 90.4704 422.999
834 1 186.195 10.5749 1969 105.061 90.9314 458.34
835 0 190.313 11.0975 2112 104.084 91.2344 457.257
836 0 195.357 11.8194 2309 105.537 90.3486 451.425
837 0 200.442 11.5694 2319 102.486 90.7214 449.367
838 0 207.321 11.9235 2472 101.051 90.7504 443.043
839 0 212.522 11.1471 2369 101.415 90.7446 437.858
840 0 218.512 11.7614 2570 101.002 89.7778 433.779
841 0 225.347 11.5067 2593 101.728 90.5368 430.682
842 0 230.443 11.6211 2678 101.209 89.6729 426.773
843 0 236.532 11.4107 2699 101.819 89.688 422.863
844 0 246.471 12.1313 2990 96.5545 90.0371 418.786
845 0 251.449 11.9189 2997 96.3674 90.0137 415.473
846 0 369.795 14.9218 5518 97.8594 90.4291 346.638
847 1 206.564 10.8876 2249 92.5385 90.2579 447.169
848 0 215.506 11.8326 2550 90.2384 91.329 439.412
849 0 221.529 12.4092 2749 89.1797 91.3063 434.976
850 0 227.563 11.5396 2626 91.1078 91.508 432.148
851 0 236.582 12.1395 2872 89.0801 91.2845 429.112
852 0 243.643 12.0751 2942 89.5357 91.1601 424.748
853 0 250.556 12.0532 3020 86.6589 90.8315 420.864
854 0 260.642 12.1354 3163 87.7151 91.3487 417.902
855 0 269.699 13.0294 3514 87.2038 90.9627 410.818
856 1 196.428 10.5739 2077 88.1608 91.3303 451.65
857 0 203.594 11.6605 2374 87.1752 91.4431 445.084
858 0 210.6 12.0181 2531 87.0427 91.4113 444.154
859 0 220.555 12.9627 2859 85.2609 91.6943 437.993
860 0 227.645 12.4317 2830 87.2424 91.5823 436.258
861 0 231.697 11.5107 2667 87.7728 90.9453 434.3
862 0 238.587 11.5053 2745 89.1279 90.8087 427.217
863 0 246.538 12.2496 3020 87.9715 90.4762 421.828
864 0 253.592 11.7512 2980 89.3034 91.4312 424.196
865 1 72.3098 9.76355 706 86.7295 91.2748 510.35
866 0 73.251 10.0067 733 85.7353 91.1678 507.086
867 0 79.3283 11.4083 905 82.1823 91.3171 506.888
868 0 79.2386 11.0426 875 84.168 90.5097 505.083
869 0 82.0745 11.0266 905 79.8641 92.3746 509.445
870 0 83.1285 12.1258 1008 89.3621 93.2907 511.169
871 0 87.1087 13.2363 1153 83.9324 92.9358 510.69
872 0 90.1995 11.6852 1054 83.7903 92.1537 503.827
873 0 89.1054 11.0543 985 87.4579 92.8112 504.64
874 0 92.1294 11.3753 1048 89.3788 92.6813 504.395
875 0 93.1165 11.2655 1049 89.8932 92.1106 502.296
876 0 98.1759 11.7035 1149 88.0714 91.8372 498.3
877 0 102.14 11.9934 1225 87.3167 92.2482 495.932
878 0 105.173 11.8567 1247 88.4451 92.0978 489.188
879 1 59.0625 9.70158 573 83.5672 91.4276 516.914
880 0 61.1425 9.81314 600 82.9633 91.475 518.432
881 0 64.0542 11.0844 710 82.2169 92.1099 514.57
882 0 63.2242 11.1982 708 78.3051 92.2754 516.575
883 0 66.085 11.1069 734 78.0395 92.6962 517.512
884 0 68.1139 12.7287 867 84.9423 91.5606 519.824
885 0 70.1406 12.9027 905 84.6829 91.5801 519.666
886 0 69.1606 9.87557 683 84.4231 92.6925 516.98
887 0 74.2031 12.2502 909 78.1991 92.6425 514.205
888 0 74.1847 11.1209 825 82.8097 92.8085 515.57
889 0 75.1718 10.8019 812 83.6712 92.4434 513.677
890 0 78.1104 11.4069 891 85.9517 92.6689 514.034
891 0 80.1311 11.5186 923 84.7627 92.6847 513.042
892 0 83.2459 11.6762 972 87.6358 92.6842 512.993
893 0 83.1694 11.4345 951 90.2513 92.8034 512.533
894 0 90.1532 11.547 1041 90.6561 92.7099 508.671
895 0 91.1528 11.8812 1083 91.5402 92.59 508.615
896 0 96.1668 12.9774 1248 90.4263 92.7516 505.678
897 1 52.1095 11.5718 603 91.3748 93.3151 526.234
898 0 56.1788 12.1042 680 89.6397 93.7603 525.552
899 0 57.2253 11.9178 682 91.0674 93.7273 524.669
900 0 58.1538 12.4154 722 90.2618 93.6427 523.144
901 0 59.1626 12.0853 715 90.9385 93.1776 522.308
902 0 63.0875 12.3162 777 103.257 94.0721 521.951
903 0 64.0963 12.1848 781 105.037 94.507 520.766
904 0 66.1153 12.5085 827 104.704 94.1765 519.826
905 0 68.0955 12.9524 882 102.661 93.8526 518.867
906 0 69.1347 12.7288 880 104.99 93.8375 516.448
907 0 70.16 12.4002 870 105.871 94.3897 516.028
908 0 72.1141 12.8546 927 105.122 94.2632 514.884
909 0 76.1776 12.9959 990 105.006 94.6717 513.927
910 0 78.1816 13.0977 1024 105.303 94.4062 513.015
911 0 79.2092 12.6879 1005 107.135 94.0726 512.296
912 0 80.2743 13.404 1076 106.181 94.0902 511.942
913 0 83.2401 13.0466 1086 107.293 94.1022 510.203
914 0 85.2208 13.0954 1116 108.035 94.2142 510.865
915 0 89.1312 12.8575 1146 106.522 93.5489 509.035
916 0 92.17 13.1062 1208 105.911 93.202 506.91
917 0 93.1479 13.2692 1236 105.548 93.4264 507.206
918 0 96.2488 13.8703 1335 106.167 93.7828 505.918
919 1 48.0694 11.6082 558 106.622 93.8477 527.995
920 0 50.1455 12.4837 626 103.875 92.7252 526.973
921 0 50.1682 12.0794 606 102.191 92.9455 524.472
922 0 52.2004 13.18 688 99.0974 92.9331 524.185
923 0 53.0477 12.3851 657 95.0472 93.1035 526.653
924 0 56.0283 12.4937 700 94.8943 92.8614 528.889
925 0 57.0603 12.1626 694 95.8415 93.1513 527.699
926 0 57.0449 12.3938 707 95.232 92.5276 527.214
927 0 58.0608 12.8831 748 94.6324 92.5922 526.754
928 0 60.0288 12.6606 760 94.346 92.9184 525.65
929 0 64.0793 13.296 852 91.1925 92.1174 524.093
930 0 65.0456 13.3906 871 91.527 91.9782 524.325
931 0 67.0387 12.7389 854 94.1991 91.3993 523.465
932 0 70.0946 12.8541 901 92.9933 91.3418 522.078
933 0 72.0254 12.7872 921 94.0543 91.582 522.655
934 0 73.0451 12.3485 902 95.5455 91.2073 520.714
935 0 75.0743 12.6142 947 96.2334 91.5037 519.797
936 0 77.067 12.0415 928 97.2338 91.7209 517.236
937 0 82.0717 12.6962 1042 94.9021 91.0758 516.81
938 0 83.0536 11.9802 995 98.8251 90.2553 515.872
939 0 86.0259 12.1591 1046 98.2925 89.9206 513.847
940 1 45.0095 11.1976 504 94.4504 90.2956 535.472
941 0 46.0237 11.0812 510 93.2784 90.8941 533.41
942 0 46.0206 11.3645 523 96.3289 90.0325 534.128
943 0 49.0598 11.9446 586 95.6126 89.9659 532.944
944 0 50.1769 12.4759 626 99.6454 89.9521 529.904
945 0 52.0819 13.1908 687 97.4527 91.4512 529.786
946 0 53.0433 13.1779 699 98.7196 90.7425 528.213
947 0 53.0646 11.9666 635 103.534 90.7181 528.975
948 0 53.0474 12.1589 645 104.747 90.5643 527.499
949 0 56.0888 12.3554 693 104.47 90.7056 526.221
950 0 56.0803 12.3929 695 106.206 90.9065 524.083
951 0 60.0542 12.7052 763 111.186 90.0118 524.751
952 0 60.0247 12.1783 731 114.607 90.3529 523.583
953 0 63.0345 12.5804 793 114.079 91.8714 523.177
954 0 65.0229 12.5187 814 115.022 91.2248 521.545
955 0 68.0717 13.1479 895 109.946 91.4514 520.25
956 0 69.0696 12.7553 881 103.235 91.8411 518.064
957 0 69.0941 12.7362 880 105.423 91.3261 515.883
958 0 73.154 13.082 957 104.53 91.442 514.411
959 0 74.1292 13.2067 979 104.174 91.1961 513.102
960 0 77.1957 13.0836 1010 103.705 90.8059 511.597
961 0 79.2781 13.4463 1066 104.559 91.2589 507.886
962 0 81.2673 12.908 1049 105.917 90.4318 506.251
963 0 83.2142 13.2309 1101 106.074 91.1653 504.447
964 0 87.3149 12.7355 1112 105.918 91.277 504.058
965 0 92.2286 13.3039 1227 103.364 92.0872 502.585
966 0 93.2964 13.0337 1216 103.538 92.31 503.089
967 0 96.2286 12.6262 1215 103.771 91.9728 501.9
968 0 101.391 13.1866 1337 102.289 91.2842 498.792
969 0 105.24 13.5405 1425 100.571 92.1635 495.034
970 0 109.257 13.1617 1438 100.192 91.8651 495.138
971 1 57.1822 12.0142 687 103.463 92.1456 518.416
972 0 57.2111 12.515 716 103.535 91.5489 516.712
973 0 62.2049 12.9893 808 98.6795 91.2636 516.36
974 0 63.1238 12.8478 811 99.7275 91.693 516.71
975 0 68.1132 12.7729 870 99.4655 92.1448 517.074
976 0 67.1203 13.3492 896 99.7154 91.9353 515.01
977 0 71.1124 13.556 964 98.2614 91.6826 513.518
978 0 73.1601 13.614 996 98.9458 91.7118 511.876
979 0 76.1752 12.9832 989 109.468 92.5369 511.393
980 0 77.1237 13.1607 1015 113.184 92.2089 509.073
981 0 79.1052 13.2735 1050 113.317 92.4505 507.962
982 0 80.0699 13.1135 1050 116.029 92.3448 507.361
983 0 82.1705 13.2529 1089 107.174 92.2994 506.601
984 0 85.2013 13.6383 1162 106.383 91.3563 505.954
985 0 87.1012 13.6278 1187 107.202 91.893 503.078
986 0 91.1204 13.784 1256 106.623 91.6282 500.562
987 0 92.1537 13.3581 1231 110.017 91.736 497.788
988 0 95.1193 13.1204 1248 109.981 92.246 498.969
989 0 97.1144 13.273 1289 110.763 91.4306 497.44
990 0 102.15 13.0788 1336 110.32 92.1198 494.765
991 0 105.071 13.1911 1386 110.895 91.4856 494.665
992 0 110.038 14.0588 1547 109.57 91.5016 492.111
993 0 112.09 13.5694 1521 109.809 92.1953 489.466
994 0 118.141 13.9326 1646 110.224 92.192 486.383
995 0 123.084 13.8523 1705 111.615 91.7402 486.063
996 0 127.169 14.2094 1807 110.201 91.5783 483.765
997 0 130.088 14.1519 1841 112.661 91.711 482.354
998 0 136.135 14.8308 2019 110.427 92.4294 478.721
999 0 135.102 12.4203 1678 118.93 92.2545 480.288
1000 0 138.209 12.9948 1796 115.995 91.5696 474.688
1001 0 146.199 13.2901 1943 114.371 91.9295 471.933
1002 1 75.1118 10.5975 796 109.584 92.1206 504.379
1003 0 79.1059 10.8968 862 107.901 92.551 503.499
1004 0 82.191 11.6558 958 107.927 93.1774 501.428
1005 0 83.1944 11.9599 995 114.758 94.6794 503.411
1006 0 86.1566 11.688 1007 116.836 94.4578 501.463
1007 0 90.1557 11.5023 1037 108.963 93.5227 500.296
1008 0 92.0498 11.4395 1053 109.628 93.7142 499.242
1009 0 94.1081 11.2636 1060 107.619 92.8651 498.62
1010 0 97.1014 11.7403 1140 108.146 93.1667 498.102
1011 0 100.09 11.8194 1183 110.057 93.1099 495.214
1012 0 104.097 11.8063 1229 109.243 93.6168 495.254
1013 0 107.146 11.7316 1257 108.632 92.9181 492.682
1014 0 110.103 12.2612 1350 107.134 93.5022 491.565
1015 0 114.245 11.9217 1362 107.06 93.1542 489.641
1016 0 115.149 11.8369 1363 108.999 92.4505 486.175
1017 0 122.162 12.0905 1477 106.27 92.8436 486.661
1018 0 125.294 11.8761 1488 106.781 93.7964 484.19
1019 0 129.105 11.8275 1527 107.587 93.632 481.779
1020 0 132.15 12.0318 1590 108.524 92.9245 478.848
1021 0 137.181 12.8225 1759 108.649 94.3064 480.238
1022 0 141.233 12.7803 1805 108.252 94.1008 476.655
1023 0 147.203 14.2253 2094 113.616 94.2946 476.836
1024 0 152.248 14.0232 2135 115.748 93.9827 472.616
1025 0 154.175 13.7636 2122 117.008 94.7479 473.005
1026 0 159.245 14.192 2260 114.085 94.1358 470.768
1027 0 164.231 14.1142 2318 114.466 94.6031 470.343
1028 0 168.128 13.3292 2241 116.432 93.8942 462.862
1029 0 169.232 13.1477 2225 115.037 93.56 453.753
1030 0 173.257 13.4136 2324 113.361 92.83 449.664
1031 0 179.205 14.0286 2514 111.327 92.825 449.839
1032 0 183.306 13.0819 2398 114.136 92.975 448.19
1033 0 188.208 13.602 2560 113.084 92.9562 445.315
1034 0 193.249 13.7543 2658 114.714 92.4819 441.646
1035 0 199.196 14.0465 2798 114.973 92.1476 438.16
1036 0 203.208 13.3656 2716 117.792 92.0512 435.267
1037 0 211.26 13.7792 2911 115.403 92.1852 432.378
1038 0 217.405 13.9555 3034 115.144 92.1361 427.177
1039 0 226.305 14.1004 3191 114.775 92.1235 426.66
1040 0 230.404 13.7671 3172 117.243 91.9748 421.306
1041 0 237.342 13.7776 3270 118.184 92.2483 418.845
1042 0 244.304 13.8802 3391 118.918 92.5034 413.784
1043 0 254.244 14.6238 3718 117.46 91.8798 410.265
1044 0 376.707 9.73171 3666 124.869 92.0439 388.616
1045 0 376.673 9.62904 3627 127.932 92.3173 387.388
1046 0 375.571 9.1088 3421 128.6 91.1713 393.833
1047 1 64.1493 8.82317 566 105.708 92.4329 509.564
1048 0 70.174 10.8017 758 109.955 91.4815 515.248
1049 0 72.1507 10.4503 754 105.887 91.4536 517.903
1050 0 69.0838 8.9746 620 96.7613 93.2984 519.615
1051 0 74.1367 9.09131 674 96.4288 93.9288 518.194
1052 0 75.1592 9.12729 686 96.7682 94.1297 517.232
1053 0 77.127 9.5038 733 96.1992 93.4857 516.285
1054 0 81.2667 9.86874 802 96.8953 94.0037 514.272
1055 0 83.2061 9.42239 784 99.4898 94.8202 513.353
1056 0 84.2538 9.77998 824 100.484 94.7172 511.039
1057 0 87.2125 9.19593 802 100.175 94.182 511.566
1058 0 85.0749 7.96945 678 96.1386 94.1578 498.459
1059 0 93.1849 10.946 1020 106.108 91.3912 506.102
1060 0 93.3509 9.98383 932 103.251 92.1996 506.512
1061 0 97.1288 10.0382 975 100.829 92.319 502.692
1062 0 100.173 9.70322 972 100.956 92.3436 503.266
1063 1 116.111 12.4536 1446 81.3651 92.8693 489.621
1064 0 108.15 9.38507 1015 92.9192 92.3695 490.156
1065 0 109.273 9.69133 1059 92.7233 92.3862 486.339
1066 0 113.309 9.44319 1070 94.4383 91.8766 486
1067 1 61.3129 9.54123 585 103.749 94.3949 522.297
1068 0 64.0374 9.18213 588 102.782 93.1037 522.957
1069 0 67.0226 10.8918 730 99.4767 90.6726 521.682
1070 0 66.168 9.59679 635 93.178 91.937 517.101
1071 0 67.134 8.96714 602 95.9967 91.3106 516.078
1072 0 68.1909 9.18012 626 97.6406 92.4505 513.605
1073 0 71.2279 9.37835 668 96.1527 92.5509 514.502
1074 0 74.2164 9.58009 711 94.9269 93.3291 513.415
1075 0 74.2663 9.14278 679 97.9293 92.7305 512.47
1076 0 78.2292 9.83009 769 95.6229 92.5319 512.901
1077 0 79.2146 8.77363 695 100.032 92.2978 511.748
1078 0 84.2143 9.54707 804 98.7177 92.6629 510.128
1079 0 84.2258 9.3558 788 99.2944 92.7157 510.734
1080 0 84.2472 9.38904 791 100.105 93.1669 511.546
1081 0 89.2313 9.72753 868 100.441 92.674 509.444
1082 0 90.2328 9.96312 899 100.911 93.3571 508.987
1083 0 94.1868 10.2775 968 103.022 92.9669 509.929
1084 0 94.1667 10.5345 992 103.913 93.3518 507.269
1085 0 93.2368 9.53486 889 105.171 92.9573 508.708
1086 0 94.1746 8.45239 796 106.178 93.0867 510.786
1087 1 53.1652 9.72441 517 93.0716 93.9014 531.002
1088 0 55.1091 9.27252 511 92.773 92.8611 526.464
1089 0 57.0363 9.18713 524 106.748 93.1183 525.252
1090 0 58.2627 10.9847 640 114.103 92.7656 527.573
1091 0 58.0713 10.0222 582 110.555 93.5808 526.306
1092 0 60.1075 11.18 672 107.887 93.4286 526.01
1093 0 61.0803 10.7072 654 110.226 92.7538 524.476
1094 0 65.068 10.7426 699 105.807 92.8741 523.011
1095 0 67.13 10.785 724 108.159 92.9116 524.258
1096 0 69.143 11.4111 789 107.877 92.6743 522.038
1097 0 69.1538 11.3949 788 108.544 92.5685 520.118
1098 0 72.1265 11.3412 818 108.366 93.0892 519.693
1099 0 73.1156 10.9553 801 109.861 94.7391 523.266
1100 0 74.1717 10.8936 808 119.658 94.37 521.35
1101 0 76.132 11.0203 839 118.392 94.4291 519.162
1102 0 78.1695 10.9506 856 116.532 94.1869 517.661
1103 0 79.1848 11.189 886 115.236 93.9684 514.984
1104 0 83.1076 11.2023 931 113.814 93.7411 515.042
1105 0 85.1339 11.0062 937 113.911 93.428 513.212
1106 0 87.1632 11.4842 1001 112.327 92.7682 512.512
1107 0 87.1258 10.9152 951 113.927 92.3701 510.889
1108 0 89.1273 11.4331 1019 112.478 92.6448 510.025
1109 0 91.1599 11.1014 1012 114.987 92.5978 506.924
1110 0 96.1646 10.9812 1056 110.711 92.8778 505.604
1111 0 98.2872 11.446 1125 108.159 92.104 502.123
1112 1 53.2482 10.2914 548 103.956 91.9617 525.144
1113 0 53.1461 10.0478 534 104.431 92.236 526.549
1114 0 55.1654 10.4776 578 104.083 92.5536 524.955
1115 0 55.1502 10.97 605 103.213 91.3438 523.547
1116 0 57.1449 10.6921 611 103.892 92.1522 522.697
1117 0 58.0886 11.4825 667 101.985 92.5592 522.964
1118 0 58.064 12.4345 722 104.109 92.0194 524.978
1119 0 60.051 12.0564 724 105.141 92.0608 524.286
1120 0 63.045 12.8004 807 102.048 91.8563 523.357
1121 0 66.059 12.7008 839 101.92 91.528 522.949
1122 0 66.0849 12.2418 809 104.184 92.2855 522.281
1123 0 66.044 12.2797 811 104.529 91.8681 521.313
1124 0 68.0494 12.8142 872 105.106 91.7718 520.858
1125 0 71.0667 12.8189 911 105.706 92.0066 519.72
1126 0 72.0634 12.3364 889 108.317 92.4893 518.062
1127 0 75.0517 12.8045 961 107.18 91.8346 518.484
1128 0 76.0449 12.8214 975 109.021 91.642 516.903
1129 0 79.0736 14.1387 1118 106.01 91.7388 515.836
1130 0 82.0988 13.8857 1140 107.481 91.4623 515.824
1131 0 83.1227 13.9072 1156 108.694 92.0432 515.114
1132 0 84.0539 13.8245 1162 110.681 92.4888 513.022
1133 0 86.0584 14.0486 1209 110.505 92.359 512.438
1134 0 87.0462 14.1994 1236 111.115 92.373 511.336
1135 0 90.0501 13.5924 1224 113.105 92.0049 508.966
1136 0 91.1163 13.6529 1244 113.982 92.1166 509.042
1137 0 93.1295 13.4973 1257 113.537 92.1305 506.282
1138 0 96.1042 13.8287 1329 111.653 92.3732 505.871
1139 0 97.0683 13.8356 1343 112.531 92.3574 503.862
1140 0 101.108 14.45 1461 110.333 91.8706 503.894
1141 0 104.177 14.3314 1493 111.832 91.8171 505.326
1142 0 109.192 14.5981 1594 114.715 92.1531 503.402
1143 0 111.243 14.6886 1634 115.406 92.1781 500.91
1144 0 113.134 14.0099 1585 119.179 92.4404 498.941
1145 0 116.218 14.361 1669 118.592 91.7322 498.471
1146 0 117.127 14.574 1707 119.499 91.8717 496.272
1147 0 120.207 14.3585 1726 120.25 90.9044 495.475
1148 0 119.144 12.8751 1534 126.826 90.5874 493.673
1149 0 125.233 13.5907 1702 124.279 90.9501 491.774
1150 0 127.207 12.7745 1625 110.893 91.6025 487.473
1151 0 129.313 12.8293 1659 109.816 91.2399 482.12
1152 0 131.256 13.1498 1726 108.242 91.0075 480.705
1153 0 133.236 12.444 1658 112.808 90.5724 476.769
1154 0 137.227 13.0149 1786 112.577 91.3438 474.331
1155 0 141.379 12.5266 1771 114.487 91.38 475.058
1156 0 144.21 12.3848 1786 116.056 91.1613 471.015
1157 0 148.296 12.6437 1875 115.562 91.1328 469.919
1158 0 151.304 12.3857 1874 116.723 90.6217 466.298
1159 0 158.311 12.886 2040 114.308 91.1279 467.612
1160 0 159.294 12.5178 1994 117.748 90.7763 464.551
1161 0 163.279 12.445 2032 118.408 90.3538 462.014
1162 0 169.276 12.6598 2143 119.341 90.2566 459.508
1163 0 174.292 12.4676 2173 121.178 90.2761 457.978
1164 0 180.328 12.5937 2271 121.544 90.4813 457.579
1165 0 185.242 13.064 2420 121.567 90.0888 455.58
1166 0 193.351 12.9816 2510 122.907 90.506 455.676
1167 0 200.271 15.4491 3094 115.099 90.6354 449.409
1168 0 201.252 13.416 2700 124.7 90.5756 451.314
1169 0 206.201 13.0213 2685 127.372 90.543 449.934
1170 0 213.209 13.3906 2855 127.996 90.6746 446.295
1171 0 219.251 13.09 2870 129.954 90.4777 444.517
1172 0 225.272 13.1752 2968 131.157 90.5997 441.187
1173 0 233.217 13.4939 3147 130.154 90.62 443.045
1174 0 238.191 13.1449 3131 135.312 90.1587 433.173
1175 0 246.234 14.4456 3557 132.717 89.5595 429.01
1176 0 253.296 13.3875 3391 138.122 89.9027 426.856
1177 0 261.332 13.7411 3591 140.124 89.6338 419.442
1178 1 198.277 10.9594 2173 142.274 90.2168 453.606
1179 0 205.272 12.0133 2466 138.779 89.4964 453.005
1180 0 210.339 12.3182 2591 137.78 89.9174 447.538
1181 0 214.255 11.827 2534 139.75 89.4957 445.949
1182 0 220.21 11.6662 2569 141.112 90.2581 447.098
1183 0 225.345 11.9506 2693 141.909 89.8062 441.035
1184 0 233.238 12.0135 2802 141.414 89.6588 438.104
1185 0 237.303 12.8739 3055 140.4 89.8638 433.171
1186 1 55.0179 10.2512 564 121.218 90.4308 530.021
1187 0 57.0322 10.6957 610 118.046 90.8279 528.536
1188 0 58.0314 10.9768 637 117.05 90.1727 528.028
1189 0 58.0853 10.7084 622 132.043 90.2412 527.117
1190 0 61.103 10.8669 664 129.988 89.2846 525.988
1191 0 64.1108 11.4333 733 124.806 89.5552 524.735
1192 0 65.0828 11.6928 761 125.953 90.1498 523.815
1193 0 65.0702 11.7719 766 125.543 89.7402 523.406
1194 0 66.0724 12.1231 801 126.536 91.4045 521.313
1195 0 69.0635 11.96 826 126.144 90.9722 521.103
1196 0 68.0771 10.8406 738 119.163 91.0501 522.924
1197 0 68.1682 10.4741 714 120.056 91.0434 524.055
1198 0 70.0428 10.4222 730 120.616 91.3342 523.673
1199 0 73.0986 10.9852 803 120.037 90.5579 521.623
1200 0 75.0928 10.4537 785 120.196 90.3248 521.271
1201 0 78.1004 10.6017 828 120.285 90.5447 518.551
1202 0 81.1171 10.8855 883 119.489 90.188 517.139
1203 0 83.1546 10.246 852 116.952 90.757 516.184
1204 0 83.135 10.092 839 116.371 90.2968 514.996
1205 0 87.1082 9.9761 869 118.49 90.7077 513.461
1206 0 92.1165 11.0187 1015 119.831 90.3251 512.141
1207 0 91.2192 9.59228 875 113.807 91.1577 506.066
1208 1 52.0948 10.4617 545 126.688 90.2569 529.288
1209 0 55.1692 11.7094 646 124.96 90.6176 529.636
1210 0 51.1472 8.62217 441 108.63 92.3424 528.964
1211 0 53.0487 9.2745 492 116.555 91.2683 531.787
1212 0 55.1059 9.3275 514 115.665 91.644 531.879
1213 0 57.0604 10.1471 579 114.383 91.9896 529.75
1214 0 59.1364 10.9746 649 112.123 92.6918 529.943
1215 0 60.0725 10.6039 637 114.802 92.5589 529.62
1216 0 62.0629 10.3927 645 115.8 92.2357 530.395
1217 0 65.0676 10.8502 706 115.392 92.0892 528.062
1218 0 67.0767 11.9117 799 111.787 91.8398 527.805
1219 0 67.1075 10.9079 732 111.534 91.7882 524.596
1220 0 70.1177 11.0528 775 115.605 91.7006 524.329
1221 0 74.0631 12.0168 890 111.464 91.1596 522.874
1222 0 76.1142 11.3908 867 115.157 91.8166 521.895
1223 0 78.0946 11.947 933 112.635 91.5659 522.578
1224 0 80.1091 11.8713 951 112.655 91.4059 520.89
1225 0 83.0756 12.3622 1027 112.736 91.7468 518.714
1226 1 43.0095 10.7651 463 114.838 92.0562 538.795
1227 0 43.0156 10.3451 445 117.409 92.8876 538.202
1228 0 45.023 11.8828 535 112.413 92.5794 536.864
1229 0 46.0444 11.9667 551 111.802 92.323 535.77
1230 0 48.0806 12.2087 587 110.526 91.9847 534.342
1231 0 49.1127 12.4408 611 110.265 92.8609 532.303
1232 0 51.1144 12.5601 642 110.612 91.7523 531.536
1233 0 51.1194 13.0283 666 109.545 91.4895 531.827
1234 0 53.0364 12.7083 674 110.777 91.3012 530.605
1235 0 55.038 12.4641 686 111.759 91.9154 529.598
1236 0 57.0158 12.821 731 110.508 92.3502 527.955
1237 0 58.0215 13.271 770 109.523 92.2468 529.03
1238 0 57.0591 13.2144 754 111.589 92.6326 528.523
1239 0 61.0572 12.8077 782 114.46 92.6202 528.514
1240 0 61.0213 13.0938 799 114.499 92.4668 527.757
1241 0 66.0283 12.8884 851 111.543 92.765 526.717
1242 0 64.0977 11.9661 767 117.622 91.8918 523.14
1243 0 69.0571 12.6417 873 116.727 91.9668 524.21
1244 0 71.0989 12.8694 915 116.742 92.1508 522.037
1245 0 72.0694 13.1262 946 115.092 92.4852 520.003
1246 0 75.0837 12.586 945 114.68 93.2815 519.986
1247 0 76.0352 12.5074 951 114.637 92.3155 518.618
1248 0 75.1096 11.7162 880 119.198 92.8841 515.592
1249 0 78.0904 11.4867 897 120.217 91.5786 514.153
1250 0 84.1416 12.3958 1043 116.015 92.8274 516.127
1251 0 86.1146 12.5298 1079 116.808 92.7943 515.194
1252 1 42.0355 11.2048 471 107.703 93.9766 536.628
1253 0 44.0822 11.3878 502 112.532 94.1116 535.016
1254 0 44.0658 11.0743 488 114.223 93.4467 532.578
1255 0 45.0802 11.8899 536 112.356 93.7724 532.578
1256 0 47.0414 12.7335 599 109.279 93.5927 531.72
1257 0 49.0649 12.1879 598 110.201 94.2993 531.776
1258 0 51.0665 12.5131 639 109.161 93.5039 530.894
1259 0 51.0626 12.4553 636 109.241 92.9827 530.434
1260 0 54.0747 12.8526 695 107.482 93.1252 529.091
1261 0 55.0713 12.9832 715 106.915 92.649 527.85
1262 0 57.0433 13.218 754 105.363 92.4443 527.284
1263 0 57.0785 13.0872 747 107.651 92.4016 527.161
1264 0 60.1182 13.7895 829 104.747 92.8854 527.702
1265 0 61.1221 13.3831 818 119.878 92.1381 524.385
1266 0 62.057 13.4715 836 120.702 92.1148 522.976
1267 0 64.1083 13.3368 855 120.695 92.4269 523.113
1268 0 68.065 12.9729 883 120.536 92.0623 522.475
1269 0 69.0499 13.7292 948 120.783 91.8154 521.085
1270 0 71.0584 13.2708 943 122.912 91.3595 521.414
1271 0 73.0269 13.1321 959 121.775 91.5892 520.093
1272 0 76.0471 13.9387 1060 119.219 91.5698 517.866
1273 0 76.0789 13.1574 1001 121.13 91.6553 518.526
1274 0 79.0888 13.3394 1055 119.791 91.6303 516.177
1275 0 81.1161 12.9691 1052 119.018 92.0304 516.086
1276 0 84.1197 12.9815 1092 117.611 92.0293 515.022
1277 0 88.1849 13.5738 1197 112.734 92.0911 513.516
1278 0 89.1559 13.2465 1181 112.03 92.3658 510.592
1279 0 91.0608 12.7497 1161 113.067 91.7485 509.166
1280 1 50.0236 12.0943 605 106.825 93.2066 531.426
1281 0 49.0562 11.7416 576 110.066 92.6736 530.318
1282 0 51.0382 12.5396 640 109.277 91.8141 527.936
1283 0 53.0438 13.2909 705 108.35 92.0312 527.279
1284 0 56.1213 13.1857 740 113.858 92.4757 527.066
1285 0 56.0248 12.7979 717 116.194 92.463 527.537
1286 0 58.0248 13.5459 786 112.747 92.3079 526.364
1287 0 59.0207 12.8599 759 114.47 92.4862 524.798
1288 0 61.0134 12.9316 789 114.35 92.4994 524.148
1289 0 63.0242 13.7407 866 110.903 93.1005 524.015
1290 0 65.0119 13.8282 899 110.284 93.2614 523.08
1291 0 67.0436 13.26 889 111.88 92.6243 522.142
1292 0 70.0392 13.3354 934 109.776 92.9165 522.204
1293 0 70.0091 13.2269 926 110.585 92.6728 521.308
1294 0 70.0759 12.3152 863 106.333 92.8355 520.465
1295 0 74.0579 12.6388 936 103.317 92.7414 517.865
1296 0 75.0195 12.3968 930 105.158 92.9032 517.805
1297 0 80.0461 12.5928 1008 104.894 91.8819 515.716
1298 0 82.1412 13.075 1074 107.966 91.8482 513.479
1299 0 84.0831 13.1418 1105 107.061 92.0941 511.434
1300 1 44.0489 10.4202 459 106.068 92.1656 531.283
1301 0 46.0591 11.4635 528 105.686 92.2311 531.913
1302 0 48.0972 12.0797 581 105.065 93.9673 530.718
1303 0 49.0483 11.3765 558 108.328 94.1434 528.478
1304 0 49.0326 12.2164 599 106.329 92.4858 527.307
1305 0 52.036 12.6259 657 104.982 92.3044 526.883
1306 0 52.0481 12.1426 632 111.25 91.5696 525.669
1307 0 55.0198 12.2865 676 109.348 91.9423 526.22
1308 0 57.0713 12.0201 686 110.958 91.8528 525.068
1309 0 61.0509 12.3831 756 108.862 91.8267 524.209
1310 0 62.1344 12.6822 788 109.26 91.7386 523.244
1311 0 65.0194 12.5655 817 107.98 91.6524 523.316
1312 0 65.0299 12.2867 799 110.964 91.5957 523.768
1313 0 70.0428 12.835 899 107.502 91.9355 521.762
1314 0 71.0425 12.95 920 109.46 92.137 520.316
1315 0 73.0289 13.077 955 107.27 92.2649 519.836
1316 0 74.0703 12.7446 944 114.933 92.7256 519.494
1317 0 77.088 12.9203 996 114.004 91.5803 518.214
1318 0 80.0796 13.7113 1098 111.138 91.9536 518.128
1319 0 82.0525 13.8935 1140 112.151 91.2342 517.763
1320 0 85.1312 14.0254 1194 113.26 92.3283 516.361
1321 0 87.1151 13.8438 1206 115.707 92.539 514.598
1322 0 90.1064 13.928 1255 115.066 92.1912 514.593
1323 0 91.107 13.4567 1226 118.301 91.9454 512.338
1324 0 93.1344 13.4751 1255 118.249 91.9163 510.155
1325 0 96.1537 13.8112 1328 115.953 92.6694 508.794
1326 0 98.0735 12.9291 1268 118.581 93.5875 507.76
1327 0 103.153 13.0389 1345 110.097 91.6617 504.953
1328 0 104.119 12.7642 1329 114.163 94.0376 503.254
1329 0 108.154 13.2682 1435 113.909 92.4244 502.142
1330 0 111.179 13.1499 1462 116.082 91.9576 499.454
1331 0 113.226 13.5217 1531 115.929 92.0163 497.993
1332 0 119.229 14.3254 1708 112.357 91.3899 494.444
1333 0 121.306 13.8823 1684 111.531 91.3996 491.618
1334 0 125.341 13.1801 1652 112.658 91.2948 491.142
1335 0 129.222 13.3336 1723 112.352 91.4945 487.854
1336 0 131.261 13.3398 1751 113.187 90.2998 486.496
1337 0 137.357 13.8326 1900 111.815 90.92 482.672
1338 0 141.288 13.561 1916 112.285 90.8288 481.989
1339 0 146.308 14.1004 2063 111.697 90.7213 478.869
1340 0 149.279 13.2771 1982 114.035 90.4334 480.329
1341 0 155.27 13.9564 2167 110.498 90.5104 477.955
1342 0 161.316 14.1709 2286 111.538 91.164 474.618
1343 0 167.275 14.4852 2423 110.577 90.7297 472.552
1344 0 171.27 14.1064 2416 112.371 90.606 471.273
1345 0 174.275 13.7714 2400 114.288 90.6633 470.667
1346 0 180.28 14.239 2567 111.425 90.5575 467.4
1347 0 185.204 14.3301 2654 111.139 89.9341 464.7
1348 0 191.209 13.9847 2674 113.133 90.2681 462.76
1349 0 199.311 14.3394 2858 111.404 90.0976 460.819
1350 0 204.211 14.4605 2953 112.52 90.4595 457.614
1351 0 215.294 14.4732 3116 110.371 90.4727 453.124
1352 1 161.191 13.3506 2152 111.956 90.539 481.897
1353 0 165.265 13.5056 2232 111.823 90.6541 478.164
1354 0 169.3 12.3567 2092 115.563 90.5043 475.083
1355 0 174.237 13.0225 2269 114.18 90.8065 474.08
1356 0 181.291 13.0508 2366 113.188 90.6826 472.145
1357 0 188.387 13.037 2456 114.165 91.2032 466.818
1358 0 195.364 13.1191 2563 114.452 90.5884 461.265
1359 0 202.456 13.188 2670 114.948 90.2296 458.646
1360 0 208.511 13.2175 2756 114.989 90.037 457.053
1361 0 214.551 12.6124 2706 116.8 90.408 453.163
1362 0 222.444 12.7313 2832 117.286 90.1088 448.01
1363 1 50.2316 11.4868 577 111.033 90.4073 529.719
1364 0 54.1382 12.4127 672 108.347 90.5729 530.086
1365 0 55.0898 12.5976 694 109.947 90.3761 530.615
1366 0 56.0729 12.3767 694 112.37 91.0158 530.49
1367 0 57.1129 12.2389 699 112.677 90.5637 530.147
1368 0 59.083 12.7786 755 110.457 91.3735 529.041
1369 0 61.0917 12.8986 788 111.661 90.6751 528.117
1370 0 66.14 14.4542 956 103.014 91.727 522.183
1371 0 65.2305 12.7088 829 110.786 91.2051 523.989
1372 0 66.0894 12.7857 845 112.144 91.2888 525.168
1373 0 66.1036 12.3291 815 114.362 91.308 525.795
1374 0 67.0545 11.9455 801 115.553 90.9388 524.176
1375 0 73.0604 12.9208 944 110.197 90.3379 523.661
1376 0 74.1067 12.509 927 113.036 90.3711 521.306
1377 0 77.1518 12.7282 982 104.226 90.945 521.393
1378 0 78.2063 12.1857 953 107.782 90.2308 520.572
1379 0 79.1622 12.1396 961 106.284 90.0271 520.151
1380 0 78.2066 12.2752 960 114.157 90.5458 520.45
1381 1 43.1223 9.69336 418 113.407 90.0407 536.065
1382 0 45.1288 10.3703 468 113.1 90.1239 534.902
1383 0 43.0104 10.6718 459 105.906 91.5708 538.604
1384 0 45.0448 10.9447 493 101.142 91.5112 537.018
1385 0 45.0942 10.4226 470 99.8936 90.9106 536.613
1386 0 48.0857 11.2923 543 97.6262 91.011 536.287
1387 0 49.1102 10.8939 535 95.7383 90.6991 536.222
1388 0 50.1546 10.6072 532 93.8158 90.9568 536.12
1389 0 51.0568 10.5764 540 93.1111 90.4018 535.367
1390 0 51.0647 10.7511 549 92.4863 90.3206 534.678
1391 0 54.1184 10.514 569 91.6274 90.7715 533.158
1392 0 54.1258 10.9929 595 89.9193 91.079 533.476
1393 0 58.1352 11.0604 643 88.7201 91.3219 532.608
1394 0 57.1207 11.1343 636 90.6541 90.9906 532.561
1395 0 58.0764 10.6928 621 93.1159 91.0564 531.053
1396 0 61.1957 10.8831 666 94.482 91.1081 529.919
1397 0 61.0907 10.3944 635 98.7874 90.5339 529.701
1398 0 63.106 11.2826 712 98.9171 90.3792 527.612
1399 0 65.0956 11.1528 726 101.653 90.2245 526.731
1400 0 68.1132 11.3341 772 102.785 90.9689 525.675
1401 0 68.0556 10.8294 737 108.955 90.7151 525.227
1402 0 71.113 11.6434 828 109.496 90.7766 523.396
1403 0 71.0981 12.096 860 111.888 90.9128 522.994
1404 0 75.0877 12.1858 915 112.803 91.2863 520.782
1405 0 77.0716 12.0148 926 116.295 91.094 519.359
1406 0 80.1478 11.7782 944 127.825 90.215 517.544
1407 0 80.1037 11.8222 947 130.05 90.5343 518.342
1408 0 84.1337 12.2424 1030 129.228 90.6388 517.63
1409 1 41.0086 10.3637 425 121.708 90.9153 539.052
1410 0 40.0392 10.19 408 124.615 90.7721 538.179
1411 0 42.0267 10.3506 435 123.867 90.5103 537.49
1412 0 41.0505 10.2313 420 125.924 89.2595 536.588
1413 0 43.0254 10.2498 441 125.395 90.3401 536.921
1414 0 45.108 10.9737 495 124.943 89.1939 534.129
1415 0 44.0432 10.2854 453 127.576 89.3753 533.883
1416 0 46.0694 10.7664 496 126.351 89.5564 533.103
1417 0 46.1076 9.7164 448 129.627 89.846 534.518
1418 0 49.0748 10.3108 506 127.377 90.4012 532.866
1419 0 50.0816 10.4629 524 126.981 88.9466 532.256
1420 0 49.0561 10.3759 509 127.947 89.5206 532.304
1421 1 117.244 12.1456 1424 133.268 89.4277 499.771
1422 0 120.273 12.4966 1503 135.023 89.6893 497.082
1423 0 122.456 12.3963 1518 133.132 89.915 495.964
1424 0 125.323 12.36 1549 134.28 90.4061 494.287
1425 0 130.227 12.5013 1628 136.961 90.6302 489.921
1426 1 72.1622 12.3472 891 127.883 90.3614 519.891
1427 0 74.0509 13.0451 966 123.994 91.8302 522.482
1428 0 74.0553 11.694 866 125.262 90.6363 523.267
1429 0 77.1233 11.9289 920 124.875 90.6739 521.145
1430 0 77.0444 12.1618 937 125.088 90.7033 520.634
1431 0 79.0675 11.8127 934 124.733 90.5439 519.423
1432 0 82.0718 12.1235 995 121.009 90.99 518.442
1433 0 84.0883 11.6901 983 121.085 90.4802 516.934
1434 0 89.0752 12.5736 1120 115.373 91.3679 514.646
1435 0 91.0657 12.0572 1098 118.28 91.4408 513.138
1436 0 93.0394 12.5753 1170 114.282 91.0137 511.502
1437 0 95.0586 11.9295 1134 114.564 91.4594 510.063
1438 0 99.1317 12.6297 1252 111.666 91.8291 510.227
1439 0 101.138 12.3297 1247 112.728 91.3769 508.357
1440 1 50.0375 10.8319 542 115.531 92.2491 532.19
1441 0 53.0337 10.729 569 114.028 91.3726 530.327
1442 0 57.0553 10.9893 627 111.049 90.3684 529.708
1443 0 56.0306 10.637 596 114.513 90.0587 526.737
1444 0 58.1841 11.5496 672 127.394 91.4256 523.746
1445 0 61.0157 12.6033 769 109.3 90.5891 526.347
1446 0 63.0571 12.2746 774 110.177 91.1046 524.382
1447 0 66.0196 12.5266 827 108.045 90.6457 524.892
1448 0 67.0301 12.4571 835 108.176 91.5269 522.054
1449 0 70.069 12.5162 877 107.527 90.6728 521.252
1450 0 72.0322 12.7027 915 107.683 90.7475 521.097
1451 0 73.0183 12.8324 937 108.282 91.1964 519.37
1452 0 75.0147 12.6642 950 110.118 90.5579 517.846
1453 0 78.0824 13.3833 1045 107.686 91.2699 516.438
1454 0 79.0457 12.6636 1001 112.421 91.2657 514.926
1455 0 81.0653 12.6811 1028 112.399 91.1304 515.621
1456 0 84.0349 13.0184 1094 111.794 90.3172 513.599
1457 0 85.0563 12.8856 1096 113.338 90.6204 513.597
1458 0 87.0783 13.1376 1144 112.772 91.2124 512.278
1459 0 91.0806 13.3398 1215 113.067 91.1309 510.615
1460 0 92.0934 12.8131 1180 119.363 90.6339 510.135
1461 0 95.1208 12.9835 1235 119.369 91.4113 508.829
1462 0 98.1006 13.2619 1301 117.636 91.0177 507.549
1463 0 100.179 12.6074 1263 120.025 91.1235 505.622
1464 0 103.167 13.5605 1399 117.309 91.4103 504.748
1465 0 106.18 13.9292 1479 116.135 91.1089 503.83
1466 0 109.269 13.1144 1433 118.118 90.7565 500.681
1467 0 111.233 13.4312 1494 117.996 90.3614 499.93
1468 0 115.183 13.0749 1506 118.928 90.2397 496.664
1469 0 117.263 13.7128 1608 117.455 90.6356 496.448
1470 0 121.14 13.7196 1662 120.271 91.0241 496.421
1471 0 125.174 13.7089 1716 120.762 91.2925 493.723
1472 0 128.164 14.3644 1841 120.854 90.6687 491.358
1473 0 131.174 14.1263 1853 122.481 91.095 489.889
1474 0 135.155 14.8126 2002 122.679 90.2812 487.273
1475 0 139.131 14.648 2038 123.836 90.7031 486.215
1476 0 141.205 14.872 2100 125.315 90.371 483.835
1477 0 145.129 15.1589 2200 126.261 90.6927 480.644
1478 0 151.192 14.928 2257 126.879 89.7931 478.689
1479 0 155.212 15.3919 2389 125.564 90.4491 475.988
1480 0 159.217 15.0675 2399 126.299 89.8641 474.056
1481 0 164.229 15.3871 2527 124.54 90.5698 471.554
1482 0 167.2 15.3888 2573 124.468 90.1524 470.132
1483 0 173.126 15.353 2658 124.295 90.3431 468.054
1484 0 178.237 15.1933 2708 124.142 90.1599 466.486
1485 0 182.306 14.8212 2702 126.32 90.4264 463.447
1486 0 184.233 14.7585 2719 126.071 89.815 461.098
1487 0 190.374 14.5188 2764 125.769 90.3752 459.623
1488 0 196.259 14.9344 2931 125.619 90.2385 459.059
1489 0 203.388 15.109 3073 125.753 90.4933 453.479
1490 0 209.368 14.6107 3059 125.745 90.068 450.959
1491 0 217.368 14.7031 3196 124.88 90.1026 446.988
1492 0 224.488 15.003 3368 124.596 90.6018 443.847
1493 1 172.271 12.9389 2229 131.319 90.5455 469.095
1494 0 177.392 13.9578 2476 129.851 90.8582 464.931
1495 0 184.295 14.1729 2612 128.159 89.6933 460.187
1496 0 188.36 13.867 2612 130.301 89.6872 457.07
1497 0 197.341 14.5332 2868 127.525 90.1342 454.329
1498 0 201.324 14.1612 2851 130.229 90.0337 450.642
1499 0 207.422 14.2126 2948 130.877 89.9271 447.859
1500 0 213.274 14.1367 3015 131.758 89.9128 443.434
1501 0 218.279 14.0004 3056 132.656 89.8334 441.29
1502 0 224.269 13.9743 3134 133.478 90.3931 437.085
1503 0 231.336 14.252 3297 133.369 89.842 433.923
1504 0 238.3 14.4272 3438 133.78 89.8322 430.821
1505 0 244.311 13.888 3393 137.622 89.3563 428.545
1506 0 251.468 14.2523 3584 136.972 89.2037 421.54
1507 1 57.1019 11.891 679 133.219 89.7511 516.246
1508 0 58.0764 11.9842 696 132.332 89.6595 514.866
1509 0 59.1007 12.2841 726 130.175 90.23 513.756
1510 0 62.0972 12.5932 782 128.684 90.1087 514.344
1511 0 64.0848 13.4041 859 127.485 90.8335 513.854
1512 0 66.1333 13.2309 875 127.455 90.528 513.441
1513 0 67.052 13.2584 889 128.205 90.1991 511.625
1514 0 70.0409 13.2208 926 126.369 90.0248 509.386
1515 0 71.0752 13.3943 952 126.305 90.2426 508.34
1516 0 73.1407 13.0023 951 125.966 90.796 507.461
1517 0 78.0807 13.0506 1019 123.029 90.3327 505.268
1518 0 77.1243 12.4345 959 131.35 90.1658 501.852
1519 0 82.0945 12.6196 1036 123.094 89.7973 501.04
1520 0 86.1701 12.4173 1070 122.45 89.9561 498.978
1521 0 87.1461 11.9799 1044 124.615 90.749 497.835
1522 0 91.1406 12.0693 1100 122.533 90.9209 495.635
1523 1 47.0595 8.28738 390 102.528 90.3795 521.3
1524 0 52.0332 9.91674 516 100.729 90.8837 523.401
1525 0 54.2219 11.0103 597 99.6482 92.8141 524.484
1526 0 57.137 11.0961 634 99.1956 92.8107 524.044
1527 0 56.0495 10.3837 582 101.524 92.4742 525.385
1528 0 59.0878 10.899 644 100.003 92.1599 523.814
1529 0 57.0382 10.7121 611 109.997 89.9705 524.278
1530 0 61.1061 11.2591 688 106.413 90.4055 523.733
1531 0 62.0414 11.1055 689 107.766 90.5835 523.893
1532 0 64.0612 11.6919 749 106.422 90.757 522.932
1533 0 63.1183 11.5022 726 106.147 90.8733 522.34
1534 0 66.0472 11.7037 773 105.604 90.8396 520.995
1535 0 65.077 11.0331 718 109.242 91.3774 520.914
1536 0 68.107 11.2911 769 109.098 90.1742 518.746
1537 0 69.1406 11.5272 797 108.822 90.7277 518.029
1538 0 73.1456 11.812 864 107.491 90.066 517.103
1539 0 74.1404 11.6805 866 108.458 90.0912 516.505
1540 0 75.1782 11.3198 851 109.361 90.4383 514.885
1541 0 79.1906 11.7943 934 106.632 90.2206 513.531
1542 0 81.1406 11.9792 972 105.322 89.9897 511.644
1543 0 84.1252 11.6493 980 105.047 89.9745 510.973
1544 0 86.2257 12.015 1036 104.275 90.0454 509.728
1545 0 88.1593 11.9216 1051 104.714 90.334 508.302
1546 0 90.1005 11.5871 1044 106.337 90.0833 505.429
1547 0 93.1174 11.5875 1079 106.631 89.8814 503.613
1548 0 95.2057 11.1023 1057 108.12 90.1353 502.271
1549 0 99.14 11.0954 1100 107.014 90.0427 502.48
1550 1 55.0264 10.4677 576 101.543 90.3663 526.524
1551 0 59.0687 10.6994 632 97.3592 91.0443 525.038
1552 0 61.0427 11.238 686 99.1487 91.0904 524.396
1553 0 58.0781 9.53887 554 96.0253 91.5469 525.087
1554 0 60.0481 9.99199 600 93.7117 91.15 523.462
1555 0 63.0685 10.5599 666 92.0045 90.7808 522.922
1556 0 65.031 10.6718 694 92.4553 90.745 522.075
1557 0 66.0666 9.88396 653 94.1746 90.1164 523.436
1558 0 68.0383 10.6852 727 93.3246 90.7043 521.897
1559 0 69.039 10.5448 728 95.2363 90.2898 519.191
1560 0 69.0676 9.57033 661 97.5356 90.9334 519.058
1561 0 71.0446 10.2471 728 95.3008 90.3984 517.964
1562 0 73.0235 10.0242 732 96.7404 90.8115 517.548
1563 0 76.0664 9.74149 741 96.2928 90.78 517.059
1564 0 77.0481 9.65631 744 96.9624 90.3642 516.577
1565 0 78.0395 9.93087 775 95.031 90.5006 513.898
1566 0 83.0979 10.614 882 93.8254 90.5522 512.765
1567 0 84.1172 9.70075 816 95.1838 90.6238 512.371
1568 0 84.0794 9.52671 801 94.7853 90.804 508.576
1569 0 87.0904 10.2537 893 93.2419 91.0302 509.757
1570 0 90.0918 10.0786 908 93.7841 90.0253 507.418
1571 0 92.1305 9.41056 867 94.0623 89.3645 508.156
1572 0 97.1007 9.92784 964 90.1307 89.9315 506.614
1573 0 100.188 9.25257 927 90.1543 90.561 505.52
1574 1 50.0727 9.04685 453 90.1214 91.1258 527.777
1575 0 52.0777 9.08259 473 89.7061 90.6554 526.442
1576 0 56.0808 10.1104 567 90.2822 90.7496 525.372
1577 0 57.1482 10.3415 591 97.7445 89.3689 521.902
1578 0 53.054 8.55732 454 94.8634 91.9339 525.758
1579 0 57.0251 9.50458 542 92.238 91.3708 522.411
1580 0 61.0318 9.56879 584 91.7637 90.4469 522.426
1581 0 64.093 10.6564 683 89.7189 90.694 522.164
1582 0 66.0539 10.6731 705 89.5248 90.556 521.682
1583 0 67.077 10.4209 699 91.2804 91.4635 521.67
1584 0 70.1682 10.2326 718 92.6866 90.7632 521.04
1585 0 71.0796 10.9595 779 91.8049 91.1451 520.18
1586 0 73.0499 10.9104 797 92.936 91.3563 518.491
1587 0 76.0553 10.6764 812 93.4951 91.4581 518.755
1588 0 77.1512 11.3284 874 91.627 91.5515 519.182
1589 0 79.2063 10.6936 847 94.2597 91.0165 517.632
1590 0 82.0889 12.2306 1004 94.0608 90.8944 516.681
1591 0 84.1274 11.8035 993 95.9577 90.8882 515.509
1592 0 85.146 11.5919 987 97.1732 91.306 515.319
1593 0 89.1526 12.6861 1131 95.6348 90.748 513.615
1594 0 89.1998 11.9507 1066 98.5272 91.4766 511.084
1595 0 92.1576 12.6522 1166 101.875 91.0798 510.061
1596 0 94.2352 12.8827 1214 101.052 91.4044 507.158
1597 0 97.2264 13.052 1269 102.026 91.2136 504.006
1598 0 101.171 13.0077 1316 96.3176 90.5114 503.369
1599 0 105.197 12.5289 1318 97.9287 90.2223 501.266
1600 1 52.0554 11.0843 577 97.4315 89.766 526.036
1601 0 53.1788 11.5648 615 97.9171 90.9512 521.782
1602 0 54.204 12.0655 654 97.6284 90.1835 521.258
1603 0 56.255 12.6033 709 91.9788 90.6826 520.214
1604 0 59.0583 11.5649 683 89.0307 89.9971 524.782
1605 0 61.0904 12.6206 771 86.8612 90.869 524.342
1606 0 64.0438 12.8818 825 85.5503 90.7139 523.497
1607 0 63.1005 12.805 808 87.4072 91.0842 520.475
1608 0 64.1254 12.2728 787 88.7751 90.9848 521.473
1609 0 67.0823 12.5368 841 87.9572 90.3853 519.848
1610 0 68.1538 12.3104 839 88.0465 90.3898 519.337
1611 0 72.0561 12.4903 900 87.6667 90.4256 516.826
1612 0 75.115 12.4343 934 89.2302 90.0557 518.253
1613 0 75.0946 12.0914 908 91.2665 90.5529 516.413
1614 0 78.1233 11.5203 900 93.9778 90.44 512.219
1615 0 79.1974 11.3514 899 94.0389 90.3459 509.684
1616 0 82.0856 11.7073 961 97.6233 89.3486 511.16
1617 0 83.1484 11.4133 949 94.1486 90.3825 507.76
1618 0 88.1563 11.3548 1001 94.1618 89.6953 504.029
1619 0 89.0875 11.4831 1023 94.8641 89.6892 503.673
1620 0 94.1621 11.374 1071 94.3436 89.761 503.592
1621 0 97.1512 11.0755 1076 96.0706 89.1329 503.868
1622 0 100.093 11.3494 1136 95.5792 89.721 503.477
1623 1 54.0837 11.4452 619 90.1389 90.2488 526.477
1624 0 56.0904 11.6598 654 90.3058 90.2263 524.998
1625 0 59.0219 12.0464 711 89.4037 90.9719 523.886
1626 0 60.0689 12.1028 727 90.8872 91.1761 523.194
1627 0 61.0633 11.529 704 89.1889 90.9943 521.092
1628 0 65.0898 12.4597 811 86.5018 89.4772 520.51
1629 0 67.022 11.6827 783 89.7037 90.0192 520.004
1630 0 67.0645 12.1823 817 91.8078 90.2387 519.278
1631 0 69.0437 12.369 854 92.7763 90.6511 517.954
1632 0 73.0637 12.1948 891 93.9125 90.0404 516.332
1633 0 74.0438 12.8302 950 94.1095 90.26 515.841
1634 0 78.0451 12.5184 977 94.4718 89.6479 514.632
1635 0 81.0641 12.4469 1009 95.4599 90.5629 512.869
1636 0 82.0429 11.9328 979 98.0827 89.9622 511.902
1637 0 84.1286 12.5284 1054 97.907 89.4099 510.048
1638 0 87.1401 12.4397 1084 98.1006 89.9253 508.681
1639 0 87.0547 12.2337 1065 107.051 89.493 506.89
1640 0 93.0846 12.6337 1176 104.854 89.4753 505.916
1641 0 95.1784 12.2087 1162 103.876 89.6592 502.494
1642 0 98.057 12.299 1206 103.9 90.2886 501.114
1643 1 49.0513 10.8866 534 97.7566 90.1142 524.981
1644 0 53.1195 12.5001 664 107.982 90.003 526.709
1645 0 56.1414 13.0029 730 108.777 89.6822 523.451
1646 0 59.0274 12.4349 734 96.0559 90.8828 526.914
1647 0 59.0097 12.8284 757 96.1836 90.6724 525.613
1648 0 60.0394 12.7583 766 98.3655 90.94 525.119
1649 0 62.0485 12.5547 779 97.8716 90.4262 524.308
1650 0 63.0403 12.8013 807 98.0855 89.9108 522.295
1651 0 66.0556 12.8074 846 98.5035 90.3463 521.974
1652 0 68.0786 12.794 871 98.4925 90.6602 520.434
1653 0 70.0354 13.7074 960 96.9823 90.6125 520.097
1654 0 73.055 13.1545 961 98.0135 90.0416 521.401
1655 0 74.0415 13.0467 966 100.946 90.6128 518.998
1656 0 77.0328 12.7738 984 102.548 90.2429 517.682
1657 0 77.0156 12.7766 984 103.92 90.8039 517.164
1658 0 82.0772 12.7928 1050 104.228 89.9486 515.988
1659 0 82.159 12.4515 1023 107.92 90.7077 513.985
1660 0 86.0937 12.0915 1041 107.232 91.0173 512.477
1661 0 89.1314 12.5994 1123 105.92 90.6634 511.636
1662 0 92.2019 12.8088 1181 106.023 90.4479 510.903
1663 0 94.1917 12.7718 1203 105.613 90.0042 507.15
1664 1 48.0317 10.9303 525 98.96 90.8571 531.674
1665 0 50.1977 11.5543 580 99.0862 90.8138 526.183
1666 0 51.0525 11.9485 610 96.6836 91.7197 529.434
1667 0 52.0089 12.5555 653 96.0337 90.6616 528.952
1668 0 54.0288 12.845 694 84.9755 91.1225 528.52
1669 0 55.1653 12.2541 676 99.5044 90.6391 526.022
1670 0 59.14 12.5803 744 97.6425 91.3239 526.354
1671 0 59.1603 12.3563 731 98.7469 90.4268 525.636
1672 0 61.0764 12.3779 756 101.939 90.2619 524.597
1673 0 63.1003 12.5831 794 102.281 89.8287 523.433
1674 0 64.1065 11.7461 753 104.989 90.4714 522.934
1675 0 68.1489 12.5754 857 102.083 90.7036 521.358
1676 0 68.0931 12.5123 852 103.047 90.3627 520.883
1677 0 71.1725 12.7296 906 103.685 90.6589 520.687
1678 0 73.1721 12.2178 894 105.724 90.8512 520.282
1679 0 76.076 12.4087 944 106.432 91.4364 519.118
1680 0 78.022 12.6887 990 104.447 90.4172 517.255
1681 0 80.0195 12.447 996 106.377 90.6687 515.951
1682 0 83.0656 12.4841 1037 105.267 90.2314 515.32
1683 0 85.0594 12.6265 1074 107.011 90.743 514.517
1684 0 86.0497 12.6322 1087 108.404 90.3615 514.736
1685 0 89.0694 12.5296 1116 109.605 90.7366 511.555
1686 0 91.0648 12.7931 1165 109.367 89.8773 511.208
1687 0 93.1344 12.992 1210 107.722 90.524 509.198
1688 0 97.0525 13.1269 1274 106.751 91.0652 509.821
1689 0 99.1433 12.5677 1246 108.013 90.8395 507.795
1690 0 104.158 13.1916 1374 104.902 90.5611 507.367
1691 0 106.088 13.1211 1392 106.267 90.6537 504.453
1692 0 111.153 13.207 1468 107.832 90.7807 501.394
1693 0 113.128 12.6935 1436 110.559 90.8935 497.929
1694 0 117.112 12.7399 1492 109.933 90.5811 495.606
1695 1 61.0836 11.4761 701 108.351 89.7418 521.65
1696 0 64.0947 11.3738 729 111.08 90.3813 522.08
1697 0 65.168 12.0458 785 116.079 89.9911 519.892
1698 0 68.1739 12.5268 854 107.703 90.4496 518.205
1699 0 69.1182 11.8203 817 112.743 89.9082 519.752
1700 0 71.0817 11.747 835 113.466 90.1964 518.896
1701 0 70.11 11.7957 827 115.651 89.5381 518.253
1702 0 75.1695 11.667 877 114.945 90.2155 515.493
1703 0 76.0863 11.8418 901 114.781 90.3951 513.865
1704 0 79.1015 12.4397 984 111.835 90.5254 512.061
1705 0 81.1327 12.5227 1016 111.959 90.0482 512.448
1706 0 82.166 11.6593 958 116.641 90.6691 510.359
1707 0 87.1222 12.8325 1118 115.492 90.4517 510.325
1708 0 88.2042 12.1309 1070 120.499 90.872 508.02
1709 0 90.1255 12.5825 1134 119.661 90.0661 506.447
1710 0 94.1784 13.5169 1273 114.914 89.6779 505.364
1711 0 94.1599 11.9902 1129 119.066 90.5988 503.629
1712 0 97.258 12.1841 1185 117.205 89.9485 502.469
1713 0 103.216 11.9749 1236 116.058 90.7727 500.639
1714 0 105.142 12.3547 1299 114.755 90.3795 499.7
1715 0 108.186 11.8685 1284 116.01 90.9065 497.34
1716 1 56.074 11.3243 635 108.047 90.1874 524.586
1717 0 58.0654 10.9704 637 112.746 90.8053 524.133
1718 0 58.0691 11.538 670 116.999 91.0239 522.596
1719 0 63.0855 12.1898 769 112.386 91.5956 521.893
1720 0 63.1277 12.0708 762 109.23 90.7559 522.608
1721 0 65.1533 11.7108 763 111.767 91.8545 521.524
1722 0 66.103 12.178 805 110.325 90.887 520.748
1723 0 70.0813 12.7138 891 107.909 91.1156 519.23
1724 0 69.0915 12.1723 841 111.114 91.2533 518.25
1725 0 72.1039 12.274 885 115.808 91.4373 516.176
1726 0 76.0812 12.6181 960 116.103 91.4958 515.499
1727 0 78.1551 12.1809 952 117.075 90.771 514.689
1728 0 79.1894 12.6153 999 117.377 90.6887 513.804
1729 0 81.1347 12.8675 1044 119.643 91.3372 513.943
1730 0 83.1018 12.1417 1009 121.071 91.0396 512.94
1731 0 86.2286 13.0583 1126 117.574 91.4574 513.562
1732 0 88.2286 12.8983 1138 118.519 91.1468 512.688
1733 0 90.1992 12.9935 1172 116.724 90.9036 511.619
1734 0 93.137 13.507 1258 116.113 91.1439 510.09
1735 0 95.1947 13.236 1260 123.89 91.3611 508.035
1736 0 98.2742 12.343 1213 127.094 90.8244 507.338
1737 0 101.194 13.1727 1333 123.527 90.5589 505.11
1738 0 103.279 13.4683 1391 123.275 90.3968 504.661
1739 0 106.239 13.4037 1424 124.387 90.3343 504.162
1740 0 108.355 13.105 1420 127.453 90.7831 500.599
1741 0 111.235 13.8266 1538 126.826 91.3752 499.75
1742 0 116.352 14.1123 1642 125.423 90.6072 498.756
1743 0 119.256 13.6597 1629 128.192 91.2996 495.319
1744 0 123.395 14.093 1739 126.301 91.5043 496.195
1745 0 125.379 13.7902 1729 131.068 90.3262 491.585
1746 0 126.284 13.533 1709 134.772 90.086 489.022
1747 0 132.431 14.045 1860 133.152 89.2887 487.946
1748 0 134.317 14.1308 1898 134.217 89.9716 486.902
1749 0 138.417 14.1168 1954 133.135 90.0051 483.786
1750 0 140.352 14.257 2001 133.126 90.1084 482.461
1751 0 142.304 13.9279 1982 136.161 89.7942 481.432
1752 0 148.354 13.9194 2065 136.436 90.2915 479.519
1753 0 151.284 14.324 2167 136.953 90.2127 477.427
1754 0 154.36 14.1552 2185 137.24 90.3044 475.009
1755 0 157.297 14.0816 2215 138.323 89.6898 474.994
1756 0 162.288 14.3633 2331 138.098 89.9867 472.871
1757 0 165.299 14.3981 2380 140.637 89.6945 470.739
1758 0 169.342 14.3851 2436 142.426 89.9869 467.428
1759 0 171.319 14.7794 2532 141.801 89.5628 466.982
1760 0 177.345 13.8938 2464 145.068 90.2415 466.995
1761 0 181.347 14.1773 2571 144.575 90.0786 463.105
1762 0 183.346 14.6008 2677 145.908 90.4983 461.811
1763 0 188.374 14.6676 2763 148.231 90.1415 457.884
1764 0 192.333 14.7505 2837 149.145 90.2626 456.392
1765 0 194.295 14.5449 2826 151.659 89.8556 454.979
1766 0 198.405 14.3797 2853 153.586 90.5405 454.806
1767 0 203.363 14.7372 2997 153.304 90.5055 450.38
1768 0 207.327 15.1258 3136 154.075 90.2286 448.764
1769 0 212.453 15.1892 3227 155.764 90.8398 446.093
1770 0 217.475 14.8845 3237 160.007 90.203 443.774
1771 0 221.409 14.8007 3277 161.913 89.7513 440.801
1772 0 230.363 15.0979 3478 160.351 89.207 437.314
1773 0 235.483 14.8419 3495 162.929 89.61 430.969
1774 0 242.491 15.1387 3671 165.851 89.5178 427.767
1775 0 245.441 15.1564 3720 168.154 89.6108 425.112
1776 0 253.518 14.5197 3681 171.805 89.009 422.401
1777 0 258.421 15.0259 3883 170.106 89.788 421.274
1778 0 264.544 15.0183 3973 171.854 90.3514 417.835
1779 0 271.466 14.7496 4004 173.637 90.5614 413.521
1780 0 277.584 15.2566 4235 171.957 90.1133 410.604
1781 1 61.1143 11.9448 730 167.088 92.0877 521.658
1782 0 62.1588 11.5671 719 167.658 90.9889 519.267
1783 0 64.1944 12.2752 788 163.298 91.9074 518.164
1784 0 65.152 11.972 780 159.219 91.4808 516.646
1785 0 67.1198 12.1574 816 159.353 91.2206 520.505
1786 0 68.0764 12.5447 854 161.66 90.877 522.26
1787 0 70.1438 12.1037 849 161.925 91.0565 520.958
1788 0 71.2332 12.5784 896 160.007 91.1239 520.771
1789 0 71.1154 12.1493 864 158.638 91.265 519.605
1790 0 71.077 10.9037 775 148.17 90.5419 520.992
1791 0 80.1685 13.8833 1113 132.975 91.2561 513.718
1792 0 79.1512 12.6593 1002 134.793 90.026 510.432
1793 0 78.0794 11.7316 916 140.171 91.036 513.17
1794 0 79.1636 11.1541 883 145.311 91.0192 517.706
1795 0 81.2036 10.7138 870 144.805 90.7161 517.94
1796 0 84.0606 11.2419 945 145.953 89.7746 515.102
1797 0 86.1988 11.4039 983 142.698 89.8016 512.166
1798 0 88.2064 10.7589 949 146.788 89.6027 511.773
1799 0 91.1999 11.4364 1043 140.946 89.1611 511.441
1800 0 94.1157 12.3146 1159 137.877 89.4504 507.096
1801 0 96.1513 11.7523 1130 141.924 89.8894 507.49
1802 0 99.1707 11.9088 1181 137.695 90.1262 509.259
1803 1 116.191 15.6036 1813 113.035 89.2885 496.749
1804 0 109.273 16.0789 1757 119.933 89.8202 495.34
1805 0 115.241 15.1595 1747 120.509 89.2948 495.794
1806 0 111.276 14.837 1651 126.377 89.3852 498.081
1807 0 112.277 12.5226 1406 138.742 89.436 501.129
1808 0 120.319 15.8495 1907 120.954 89.9523 493.972
1809 0 119.345 12.6105 1505 134.605 89.6013 497.095
1810 0 128.384 15.4692 1986 118.659 89.7014 488.581
1811 1 62.1935 11.3034 703 128.723 90.1351 526.117
1812 0 65.2832 11.856 774 128.87 91.0026 524.061
1813 0 66.2362 11.7911 781 132.862 90.1434 522.202
1814 0 67.0989 11.9972 805 126.8 89.8298 523.234
1815 0 69.2276 11.715 811 139.901 90.0937 521.503
1816 0 70.171 11.7998 828 139.659 89.7283 519.591
1817 0 72.1424 11.9902 865 136.42 90.2867 520.423
1818 0 73.1845 11.8194 865 135.651 89.8543 521.391
1819 0 75.2335 11.9628 900 133.823 89.6456 520.062
1820 0 77.1685 12.5569 969 129.865 89.2291 519.56
1821 0 77.1102 12.5794 970 134.04 89.8361 518.44
1822 0 82.1184 12.9813 1066 129.596 89.5947 517.003
1823 0 84.1409 13.5962 1144 127.584 90.2832 516.231
1824 0 85.1916 13.9098 1185 124.339 90.1865 515.323
1825 0 87.1407 13.2085 1151 130.363 90.1156 514.156
1826 0 88.1717 13.2469 1168 130.508 90.8664 512.151
1827 0 92.0741 13.1633 1212 123.964 90.9984 512.133
1828 0 95.1074 13.9737 1329 120.129 90.7705 510.54
1829 0 96.1083 13.4328 1291 122.631 89.7839 509.178
1830 0 100.177 13.8056 1383 119.612 90.7035 507.953
1831 0 102.196 13.8362 1414 120.723 90.0594 507.838
1832 0 103.206 13.6038 1404 119.722 90.5292 506.718
1833 0 106.138 13.8782 1473 120.095 90.3055 505.31
1834 0 107.232 13.7085 1470 120.746 90.5347 504.518
1835 0 111.238 13.8622 1542 123.231 90.3048 502.901
1836 0 111.195 13.6427 1517 125.859 91.2268 501.456
1837 0 116.304 14.2299 1655 125.965 91.0943 497.664
1838 0 116.257 13.5819 1579 129.048 90.7872 495.842
1839 0 121.307 13.6184 1652 128.255 90.4213 492.886
1840 0 125.33 14.1067 1768 127.415 90.815 489.207
1841 0 128.251 14.3703 1843 126.329 89.5171 487.324
1842 0 132.166 14.2397 1882 120.636 90.4904 485.973
1843 0 133.134 15.6084 2078 119.89 89.8701 487.369
1844 0 139.208 14.525 2022 122.29 89.9149 481.494
1845 0 142.163 15.018 2135 126.743 89.6028 479.859
1846 0 146.202 15.0819 2205 123.632 90.3891 479.598
1847 0 150.255 15.314 2301 119.462 90.4872 476.439
1848 0 155.201 15.8698 2463 119.293 90.5416 475.861
1849 0 157.211 15.4442 2428 121.364 90.2648 473.829
1850 0 163.216 16.0768 2624 120.532 90.5964 473.122
1851 0 167.137 16.304 2725 119.623 89.8994 472.039
1852 0 169.183 15.6812 2653 121.938 90.5579 470.281
1853 0 175.191 16.1938 2837 121.371 90.1918 467.714
1854 0 181.187 16.265 2947 121.648 91.035 465.735
1855 0 185.188 16.351 3028 122.236 90.1991 463.191
1856 0 189.248 16.3278 3090 120.377 90.3693 460.283
1857 0 194.221 16.2753 3161 120.814 89.9642 459.27
1858 0 200.214 16.2626 3256 118.678 89.5857 454.601
1859 0 205.222 16.0265 3289 120.58 89.9206 450.934
1860 0 213.318 16.6184 3545 118.281 89.9013 448.669
1861 0 217.144 16.2058 3519 118.019 90.534 442.124
1862 1 46.0791 11.4586 528 112.239 90.5417 526.955
1863 0 48.0833 12.2912 591 109.948 90.3655 527.612
1864 0 51.0502 13.4377 686 115.595 89.9825 528.778
1865 0 52.1213 13.1232 684 119.74 90.8611 527.278
1866 0 52.0879 13.4004 698 120.223 91.1748 527.708
1867 0 54.0829 13.2389 716 120.666 91.3911 527.105
1868 0 56.121 14.0411 788 118.404 90.8909 525.798
1869 0 58.1086 13.5608 788 120.278 90.7221 524.444
1870 0 59.1065 13.7717 814 120.633 90.9152 522.967
1871 0 61.0735 13.8849 848 120.414 91.171 521.896
1872 0 62.0759 14.45 897 120.212 90.8161 521.545
1873 0 63.027 14.2161 896 122.587 90.3917 520.305
1874 0 65.0558 13.8496 901 123.484 89.9156 519.467
1875 0 67.037 13.9923 938 123.048 90.5373 517.412
1876 0 69.0523 13.7866 952 124.016 90.3887 517.143
1877 0 71.0742 13.7743 979 123.401 90.1992 515.557
1878 0 72.0932 14.1484 1020 123.567 90.5069 514.779
1879 0 75.0385 14.3526 1077 121.615 90.4206 513.641
1880 0 76.0794 14.4717 1101 120.275 90.8038 513.448
1881 0 77.0749 14.0513 1083 121.591 90.7664 511.69
1882 0 78.0422 13.1467 1026 114.785 91.3129 510.657
1883 0 81.085 12.9617 1051 114.653 90.5205 508.668
1884 0 105.081 14.3984 1513 95.9048 91.1666 500.572
1885 0 100.051 15.3822 1539 96.9942 90.9695 498.817
1886 0 96.1275 15.8852 1527 98.6981 91.0066 496.414
1887 0 94.0374 13.4415 1264 110.025 90.9272 500.87
1888 0 95.048 12.9829 1234 113.166 90.9895 503.912
1889 0 100.098 13.9963 1401 115.45 90.3783 500.403
1890 0 106.065 15.2171 1614 103.015 89.9752 493.296
1891 1 55.0434 12.2994 677 113.869 90.3648 519.007
1892 0 56.0273 11.8157 662 118.541 90.3822 519.873
1893 0 58.0246 11.9777 695 116.696 90.5827 517.934
1894 0 58.0314 11.7006 679 124.446 91.0398 518.716
1895 0 59.0687 12.6802 749 117.924 90.7944 517.64
1896 0 65.0514 13.497 878 113.682 90.9989 518.88
1897 0 64.1743 13.9464 895 114.518 91.3821 518.228
1898 0 66.0695 14.3485 948 117.815 91.4884 515.949
1899 0 69.0875 14.431 997 113.621 91.0762 515.586
1900 0 71.0928 14.8116 1053 108.595 90.8585 513.478
1901 0 70.0814 13.9552 978 112.44 91.0317 513.1
1902 0 73.1512 14.7503 1079 110.31 91.4977 511.834
1903 0 75.1517 13.7455 1033 113.153 91.455 511.163
1904 0 77.1809 13.8117 1066 114.906 90.1529 511.057
1905 0 78.0477 13.9274 1087 116.214 90.5032 508.656
1906 0 81.2201 13.6296 1107 115.961 90.1147 509.498
1907 0 85.2929 13.9167 1187 115.418 90.0859 506.707
1908 0 86.2172 13.7096 1182 117.551 89.912 505.494
1909 0 91.1151 14.2457 1298 114.21 89.3544 504.41
1910 0 94.1788 14.4725 1363 111.976 89.3353 503.158
1911 0 96.0716 14.458 1389 112.289 88.995 501.325
1912 0 100.222 14.3082 1434 110.35 89.1834 500.082
1913 0 104.077 14.7872 1539 109.419 89.191 497.325
1914 0 107.159 14.3619 1539 112.265 88.8882 499.149
1915 0 110.191 14.3841 1585 110.97 89.0025 495.703
1916 1 56.0914 12.6936 712 115.246 89.6039 520.761
1917 0 60.1633 13.0811 787 111.562 89.2351 519.945
1918 0 60.0898 13.6296 819 113.177 89.0562 518.67
1919 0 64.2158 14.1554 909 110.366 89.506 517.826
1920 0 64.1127 13.2891 852 115.82 89.0317 517.316
1921 0 66.108 13.13 868 115.635 89.5484 516.597
1922 0 70.0793 13.6274 955 113.705 88.8503 515.674
1923 0 70.1094 13.6644 958 114.534 89.334 514.862
1924 0 75.1118 13.9259 1046 111.318 88.8805 514.383
1925 0 76.2119 13.8561 1056 111.419 89.3561 513.322
1926 0 79.1615 14.1862 1123 110.858 89.2671 510.919
1927 0 82.0727 13.5855 1115 112.473 88.8637 510.469
1928 0 84.1168 13.6834 1151 112.418 89.3501 508.559
1929 0 88.1662 14.121 1245 110.984 88.2635 506.892
1930 0 91.1622 14.4248 1315 109.909 89.0776 506.975
1931 0 93.132 13.9909 1303 111.903 89.2709 505.625
1932 0 97.1169 14.0861 1368 111.056 89.6075 503.549
1933 0 101.122 14.4874 1465 108.857 89.1515 502.081
1934 0 102.101 13.9665 1426 111.923 88.6606 501.15
1935 0 106.116 14.4181 1530 109.971 87.781 499.192
1936 0 109.088 13.9978 1527 110.117 88.5232 495.771
1937 0 113.147 13.5929 1538 110.289 87.8966 494.698
1938 0 118.103 13.4883 1593 109.974 87.7891 492.055
1939 1 64.0701 13.017 834 110.76 88.5624 518.916
1940 0 67.087 13.3409 895 110.887 87.9687 517.159
1941 0 69.0756 13.5359 935 110.456 88.9251 517.554
1942 0 71.1129 13.7387 977 111.226 88.609 515.586
1943 0 75.1393 13.2022 992 111.535 89.0544 515.167
1944 0 76.0261 13.8373 1052 110.883 88.7376 513.008
1945 0 79.1029 13.0969 1036 113.582 88.749 510.902
1946 0 79.1392 13.4447 1064 113.772 88.4304 509.675
1947 0 83.2033 13.2567 1103 112.685 88.3237 507.946
1948 0 86.2768 13.4451 1160 112.516 87.4276 506.577
1949 0 87.2304 13.6764 1193 111.889 88.3764 505.575
1950 0 90.1419 13.4898 1216 112.27 88.1456 502.275
1951 0 93.1857 13.3282 1242 111.466 88.6095 503.645
1952 0 97.1528 13.8545 1346 109.865 87.7273 500.707
1953 0 101.22 14.0782 1425 108.81 88.9782 499.841
1954 0 104.156 13.4701 1403 110.608 87.8589 499.036
1955 0 106.219 13.378 1421 111.008 89.594 496.591
1956 0 109.142 13.597 1484 114.387 89.473 493.069
1957 0 115.239 13.3114 1534 112.354 89.2314 493.055
1958 0 118.177 13.6067 1608 113.072 88.5896 489.313
1959 0 120.175 12.8729 1547 116.321 89.488 489.274
1960 0 125.371 13.48 1690 115.805 89.3012 485.989
1961 0 131.272 13.6054 1786 116.241 89.7811 485.603
1962 0 137.222 13.6858 1878 117.884 88.9191 481.918
1963 0 141.194 13.3292 1882 119.522 88.8757 479.978
1964 0 147.468 13.6369 2011 120.2 88.643 478.922
1965 1 81.1487 11.4728 931 120.159 88.681 510.92
1966 0 83.1428 12.6289 1050 122.505 88.9324 510.178
1967 0 85.1811 12.9841 1106 122.661 88.9964 509.11
1968 0 89.1555 13.1456 1172 128.285 88.256 509.104
1969 0 92.1341 13.2416 1220 129.099 87.768 507.625
1970 0 95.0924 14.0285 1334 127.032 88.2279 506.776
1971 0 97.141 13.0738 1270 129.268 87.8472 505.638
1972 0 99.1981 13.468 1336 129.43 88.0786 504.073
1973 0 103.105 13.5783 1400 128.536 87.1814 502.329
1974 0 107.125 13.0688 1400 129.683 87.5057 500.376
1975 0 111.119 13.3911 1488 129.792 87.4382 496.044
1976 0 115.152 12.9655 1493 126.678 87.2318 492.578
1977 0 118.104 13.2595 1566 128.202 87.6941 490.965
1978 1 73.0963 11.3275 828 123.109 88.1594 518.697
1979 0 74.0958 11.863 879 122.352 87.4334 517.927
1980 0 77.1004 12.3735 954 122.302 87.9235 515.675
1981 0 82.1353 12.6012 1035 123.878 87.7517 515.023
1982 0 84.1111 12.1506 1022 128.339 88.3924 514.261
1983 0 87.106 11.9395 1040 128.331 88.2596 514.08
1984 0 87.2068 11.8683 1035 130.001 88.0792 512.144
1985 0 91.1587 12.6592 1154 126.134 88.6005 509.835
1986 0 92.1584 12.5111 1153 127.029 88.0781 508.235
1987 0 95.1353 12.2562 1166 126.972 88.1381 504.936
1988 0 98.1532 12.5009 1227 125.262 87.9079 505.574
1989 0 100.138 12.3529 1237 126.777 88.3888 504.002
1990 0 103.154 12.8255 1323 123.568 88.6432 504.714
1991 0 106.204 12.4101 1318 124.623 88.8642 501.165
1992 0 108.198 12.7267 1377 124.957 88.2004 499.373
1993 0 112.2 12.647 1419 124.56 88.4292 497.836
1994 0 116.131 12.9853 1508 124.563 88.2493 493.534
1995 0 118.173 12.4986 1477 125.762 88.6107 492.865
1996 0 122.109 12.5216 1529 125.71 87.6861 491.366
1997 0 127.167 11.5754 1472 125.371 87.3295 488.739
1998 0 130.146 11.9481 1555 122.396 87.2334 487.026
1999 0 134.212 11.1018 1490 124.576 87.8114 484.476
2000 0 137.234 10.8063 1483 124.336 87.8031 483.053
2001 0 142.316 11.1934 1593 122.932 88.0465 480.002
2002 0 148.208 11.2477 1667 121.634 88.0966 476.379
2003 0 153.267 10.2501 1571 121.986 88.4749 472.879
2004 1 84.1192 9.75996 821 108.985 88.7759 509.732
2005 0 85.1454 9.74803 830 109.719 88.259 507.181
2006 0 90.1526 10.4933 946 109.457 88.7791 507.15
2007 0 90.1066 9.30009 838 113.957 88.6981 507.074
2008 0 92.1178 8.95592 825 114.398 89.3333 506.001
2009 0 96.1347 9.90277 952 112.13 89.2794 506.967
2010 0 101.117 10.4731 1059 111.753 88.7602 502.032
2011 0 102.117 10.0179 1023 110.755 88.7292 503.682
2012 0 105.125 9.96905 1048 112.052 88.3406 500.228
2013 0 109.16 10.1502 1108 112.639 88.5469 498.52
2014 0 109.104 9.49555 1036 115.056 88.7915 496.857
2015 0 118.126 11.9195 1408 109.871 88.6392 493.71
2016 0 123.216 12.1412 1496 111.262 89.109 492.157
2017 0 128.256 12.9507 1661 113.011 88.5978 489.542
2018 0 129.352 12.7173 1645 115.342 88.6754 486.311
2019 0 135.213 12.6542 1711 114.3 88.3799 484.333
2020 0 140.207 12.7882 1793 115.6 88.3921 482.732
2021 0 143.274 12.1724 1744 117.56 88.1124 476.182
2022 0 150.447 12.8949 1940 114.643 88.049 475.34
2023 0 154.306 12.9418 1997 115.618 87.8858 472.323
2024 0 159.338 13.2297 2108 114.913 87.6822 471.85
2025 0 162.293 13.2908 2157 116.809 87.7024 469.388
2026 0 169.262 13.8956 2352 115.997 87.7492 466.524
2027 0 173.298 13.8432 2399 116.562 87.1938 466.751
2028 0 177.391 13.3096 2361 119.012 86.9729 463.763
2029 0 181.384 13.5624 2460 120.177 87.1902 458.758
2030 0 186.312 13.4881 2513 121.964 86.9654 457.175
2031 0 191.286 13.6916 2619 122.509 86.8125 455.907
2032 0 196.232 13.6777 2684 123.168 86.6837 452.909
2033 0 202.312 14.4183 2917 121.35 87.1471 450.689
2034 0 206.27 14.4325 2977 122.894 87.2707 448.592
2035 0 210.24 14.4692 3042 123.443 87.2807 445.058
2036 0 214.277 13.6039 2915 127.401 87.7262 440.821
2037 0 221.311 14.1972 3142 124.54 87.3873 437.681
2038 0 227.271 13.9085 3161 124.705 86.6463 431.993
2039 1 52.0708 9.79435 510 101.178 86.6843 524.529
2040 0 50.1027 8.56241 429 105.389 86.8578 521.874
2041 0 56.115 10.6032 595 104.792 89.795 523.627
2042 0 55.1854 9.24158 510 99.4412 88.7961 527.629
2043 0 56.0668 10.4697 587 96.2794 89.1039 527.753
2044 0 58.1095 9.53373 554 99.1336 88.9747 525.262
2045 0 58.0615 9.64495 560 100.414 89.5107 524.036
2046 0 60.0666 9.90568 595 99.7815 88.9815 524.766
2047 0 62.0843 10.3086 640 99.7797 88.4312 522.602
2048 0 62.0601 10.6832 663 100.719 89.1674 521.837
2049 0 65.0686 10.8194 704 98.0469 88.9148 520.803
2050 0 66.0702 9.88342 653 98.4288 89.3338 521.011
2051 0 70.0541 11.3341 794 94.0453 88.6776 519.079
2052 0 72.0894 11.4719 827 93.3918 88.5091 518.253
2053 0 76.0839 11.4742 873 106.6 88.7514 517.085
2054 0 73.04 9.89868 723 98.195 88.2172 519.172
2055 0 75.0488 9.54046 716 100.36 88.2109 518.628
2056 0 76.0686 10.1487 772 99.022 89.1762 517.512
2057 0 80.203 11.6455 934 107.549 89.6702 512.32
2058 0 80.0776 10.2151 818 99.1565 89.2983 514.715
2059 0 86.0805 11.3963 981 100.93 89.6024 512.126
2060 0 87.1062 12.2265 1065 107.162 89.0958 509.244
2061 0 89.2117 11.9715 1068 106.624 89.0318 507.997
2062 0 93.06 11.3045 1052 107.875 87.115 507.027
2063 0 94.1024 12.157 1144 105.175 88.3199 506.125
2064 0 96.0633 11.9088 1144 106.872 87.7832 504.739
2065 0 99.0565 12.7099 1259 104.873 88.0254 504.257
2066 0 100.062 12.0326 1204 108.162 87.6337 501.802
2067 0 103.092 11.8729 1224 109.208 88.5572 501.205
2068 0 106.065 11.889 1261 109.891 87.6455 500.963
2069 0 109.108 11.7681 1284 109.384 88.486 500.864
2070 0 113.161 12.5397 1419 107.765 88.6864 497.162
2071 1 66.0465 9.73557 643 100.504 89.2862 522.816
2072 0 69.1166 10.7065 740 93.8919 87.75 517.697
2073 0 70.1339 10.8792 763 94.9214 88.0026 513.97
2074 0 70.0689 11.0891 777 95.0862 88.7658 517.866
2075 0 74.0104 11.647 862 104.104 89.0394 515.771
2076 0 76.0328 11.2978 859 104.268 89.0559 515.04
2077 0 78.0515 10.7621 840 105.693 89.5786 512.662
2078 0 80.0937 11.0496 885 105.245 88.8678 511.629
2079 0 82.0781 11.5378 947 104.194 88.7687 508.646
2080 0 84.0423 11.8036 992 105.13 88.1462 509.335
2081 0 87.0525 11.9238 1038 103.741 88.079 508.384
2082 0 89.067 12.1257 1080 103.594 87.812 505.58
2083 0 93.101 12.0514 1122 104.416 86.9492 503.392
2084 0 96.0461 12.0151 1154 104.05 87.1291 504.96
2085 0 99.0963 13.1993 1308 100.606 88.6101 503.03
2086 0 100.075 11.8611 1187 100.929 87.508 501.55
2087 0 103.08 12.1944 1257 101.533 88.039 499.944
2088 1 61.0554 10.5314 643 92.4012 87.9456 524.387
2089 0 60.0489 10.4581 628 93.9697 87.0701 521.627
2090 0 62.0301 10.1886 632 91.3354 86.8766 522.839
2091 0 65.0475 12.0066 781 86.8041 87.6082 522.296
2092 0 66.0823 11.2133 741 94.8556 86.3212 520.76
2093 0 67.0281 11.6369 780 93.5872 86.6218 520.924
2094 0 68.0425 11.2871 768 93.4596 86.8385 519.116
2095 0 71.0679 11.5805 823 91.9927 87.2527 518.236
2096 0 72.0416 12.2846 885 90.7164 87.0565 515.859
2097 0 76.1403 12.3982 944 90.1843 87.2797 516.497
2098 0 75.0816 12.5464 942 91.5032 86.4533 515.606
2099 0 78.13 12.2104 954 91.4308 87.6478 513.264
2100 0 79.1122 12.2484 969 92.1259 86.7926 512.47
2101 0 82.0711 12.1115 994 91.6992 87.3622 513.157
2102 0 83.081 12.6022 1047 91.425 87.1366 511.113
2103 0 87.0526 12.6246 1099 91.4258 87.0009 509.434
2104 0 90.0784 12.3226 1110 93.7541 87.373 507.655
2105 0 89.0906 12.2235 1089 95.5152 87.1598 507.871
2106 0 91.062 12.3103 1121 96 86.8368 505.368
2107 0 94.0991 12.0724 1136 96.75 87.6347 506.194
2108 0 96.1395 12.2426 1177 97.085 88.2133 503.692
2109 0 101.135 12.8145 1296 94.2778 87.7994 502.909
2110 0 103.098 12.0467 1242 95.0636 87.9283 501.368
2111 0 103.085 11.8058 1217 96.1002 87.7026 499.918
2112 0 108.212 11.7178 1268 94.9125 87.8809 497.379
2113 0 110.049 11.9855 1319 94.903 87.5519 494.984
2114 1 64.0822 11.1576 715 90.2266 88.4294 519.849
2115 0 65.0626 10.5129 684 86.5599 87.5263 518.801
2116 0 69.0444 11.384 786 95.0229 88.2201 517.864
2117 0 73.0389 12.9794 948 96.1466 88.5696 517.366
2118 0 71.0774 11.2975 803 90.2964 88.8543 511.178
2119 0 74.0828 12.3915 918 100.229 89.2462 515.309
2120 0 78.1111 13.3784 1045 97.7646 89.1914 514.327
2121 0 79.1202 13.1193 1038 100.313 88.5694 511.718
2122 0 83.1087 13.3921 1113 98.6837 88.3172 510.642
2123 0 86.235 13.3704 1153 99.6713 88.6583 510.373
2124 0 87.1264 13.8994 1211 100.845 88.7209 508.799
2125 0 90.1487 13.6885 1234 102.955 88.7091 507.242
2126 0 91.1787 14.0274 1279 103.098 88.1157 506.877
2127 0 94.1248 13.7902 1298 104.042 88.3182 505.812
2128 0 95.2724 13.6451 1300 104.509 87.7469 504.252
2129 0 98.1909 13.6876 1344 102.804 89.1942 503.962
2130 0 99.1418 12.9814 1287 104.29 88.9914 501.403
2131 0 104.167 13.2767 1383 101.566 89.2032 500.218
2132 0 108.186 14.6045 1580 99.8449 88.6475 499.768
2133 0 111.164 13.5026 1501 100.814 89.3571 496.414
2134 0 114.112 13.031 1487 99.0451 89.2206 494.681
2135 0 117.12 12.9696 1519 100.23 90.0632 493.549
2136 0 120.118 13.6449 1639 98.9555 89.8749 492.514
2137 0 122.202 12.7739 1561 100.685 89.72 491.078
2138 0 127.143 13.0012 1653 99.8736 89.3878 489.064
2139 0 132.185 12.8986 1705 97.0293 89.4815 484.95
2140 1 69.0569 10.9909 759 92.7549 89.3742 514.54
2141 0 73.0988 11.8743 868 92.4885 89.9712 512.068
2142 0 73.0788 11.0292 806 97.103 89.6551 510.895
2143 0 77.0814 12.5452 967 93.3144 89.9721 511.155
2144 0 78.0915 12.7287 994 97.497 90.1509 513.685
2145 0 78.0757 11.5273 900 102.712 90.0633 512.038
2146 0 81.0877 12.061 978 101.662 88.9959 511.893
2147 0 82.1026 12.253 1006 103.53 89.5328 509.401
2148 0 85.0664 11.8731 1010 104.493 89.0465 508.415
2149 0 87.0566 11.9003 1036 102.982 90.055 509.524
2150 0 89.0985 12.2673 1093 102.753 89.3083 507.784
2151 0 91.0889 12.5043 1139 102.879 89.5645 505.794
2152 0 94.1435 12.3429 1162 102.465 89.5577 505.539
2153 0 97.1301 12.4678 1211 103.988 89.8803 504.262
2154 0 101.108 13.2235 1337 102.162 89.4645 504.284
2155 0 105.182 13.3484 1404 104.934 89.8526 499.165
2156 0 105.157 13.0471 1372 103.979 89.3134 495.601
2157 0 109.147 13.2574 1447 104.143 89.2502 493.616
2158 0 112.122 13.7262 1539 103.25 89.2781 493.675
2159 0 116.206 14.1903 1649 102.292 89.2826 491.161
2160 0 118.138 13.789 1629 106.064 89.186 491.742
2161 0 121.139 13.9096 1685 105.78 90.0125 490.108
2162 0 125.172 13.014 1629 108.793 89.6225 487.924
2163 0 129.226 12.9463 1673 105.441 89.41 487.223
2164 0 133.182 12.9747 1728 108.964 89.9554 483.19
2165 0 138.234 13.2746 1835 107.256 89.7575 482.366
2166 1 77.0921 11.6484 898 99.2929 90.7751 510.34
2167 0 82.1102 12.5685 1032 95.9012 89.875 505.18
2168 0 81.11 12.1687 987 99.7761 89.6738 506.373
2169 0 87.0774 14.2402 1240 96.6105 89.975 509.498
2170 0 88.1018 13.2687 1169 101.095 90.296 507.843
2171 0 91.1056 13.7423 1252 99.4896 90.1326 506.764
2172 0 93.1442 13.055 1216 103.155 90.4276 504.15
2173 0 95.1132 13.5838 1292 106.898 89.6625 502.367
2174 0 98.1428 13.6434 1339 106.315 90.0986 500.845
2175 0 101.094 13.8189 1397 106.253 90.1933 500.039
2176 0 102.071 14.1177 1441 106.528 90.4976 498.003
2177 0 107.111 13.9949 1499 106.987 90.2969 494.787
2178 0 109.143 14.0733 1536 107.097 90.2767 492.973
2179 0 115.164 13.4156 1545 108.316 89.4311 493.288
2180 0 118.142 13.1959 1559 108.627 89.8242 491.349
2181 0 120.173 13.0811 1572 108.848 89.3798 488.396
2182 0 126.192 12.7425 1608 109.784 89.9882 485.813
2183 0 128.159 13.1477 1685 106.281 90.4 479.577
2184 1 72.0491 11.3256 816 101.77 90.7316 513.65
2185 0 72.0495 11.4227 823 100.654 90.6306 510.346
2186 0 78.0372 13.1732 1028 100.089 91.4465 511.943
2187 0 80.0956 13.6712 1095 100.227 89.6658 511.259
2188 0 81.0641 13.2981 1078 101.673 90.2839 511.575
2189 0 84.0788 13.4517 1131 101.63 89.9806 508.664
2190 0 86.1085 13.2507 1141 101.572 90.5635 507.801
2191 0 89.0599 13.8671 1235 99.2405 90.7279 505.858
2192 0 90.1017 13.7511 1239 99.9855 90.5214 505.231
2193 0 94.1378 14.0751 1325 99.7955 90.354 505.419
2194 0 95.1999 14.1912 1351 100.115 90.5381 502.047
2195 0 98.1329 14.5211 1425 99.8196 90.499 501.788
2196 0 100.088 14.0476 1406 102.049 90.8947 501.457
2197 0 103.086 14.1727 1461 102.283 91.4846 501.205
2198 0 105.094 14.2635 1499 103.625 90.9266 500.547
2199 0 109.141 14.0918 1538 104.28 90.5722 497.24
2200 0 112.124 14.7783 1657 102.145 90.4677 497.284
2201 0 116.164 14.316 1663 101.17 90.6999 494.158
2202 0 120.135 14.3838 1728 101.078 91.202 491.394
2203 0 124.084 14.3774 1784 101.182 90.542 491.643
2204 1 69.0938 12.2876 849 101.828 91.2156 519.602
2205 0 71.0437 13.1046 931 100.924 90.8152 517.005
2206 0 74.0626 12.5705 931 98.391 90.2739 513.199
2207 0 75.1159 13.3926 1006 102.866 90.7416 511.003
2208 0 78.0992 13.0347 1018 104.147 90.0638 510.906
2209 0 82.1113 13.2016 1084 104.434 90.7629 509.441
2210 0 81.0803 12.2841 996 100.524 90.3554 509.892
2211 0 84.1315 12.9321 1088 98.898 90.4752 509.283
2212 0 86.142 13.0482 1124 100.026 90.331 507.606
2213 0 88.075 12.5007 1101 102.408 89.7856 504.289
2214 0 91.0998 12.404 1130 103.438 89.7726 503.383
2215 0 95.1037 13.3749 1272 101.664 89.7924 500.144
2216 0 99.1043 13.0973 1298 102.643 89.4091 500.199
2217 0 101.191 13.8846 1405 101.834 89.1908 498.505
2218 0 103.085 14.1048 1454 100.815 89.5041 496
2219 0 105.066 13.9341 1464 100.149 89.4795 494.15
2220 0 108.084 13.8319 1495 102.524 89.8268 493.81
2221 0 113.133 14.2399 1611 102.901 89.8138 491.215
2222 0 114.115 14.0472 1603 105.988 89.4523 489.62
2223 0 120.076 14.1327 1697 108.296 89.9051 487.7
2224 0 123.159 14.2011 1749 104.355 89.7118 485.381
2225 0 129.088 14.5792 1882 102.396 89.5 483.776
2226 1 67.0648 12.5252 840 104.05 89.8619 513.274
2227 0 68.0981 12.8344 874 102.955 89.3066 512.459
2228 0 72.1508 12.8342 926 103.781 89.2192 511.648
2229 0 73.0694 12.6318 923 106.515 89.3619 510.972
2230 0 75.1286 13.4835 1013 105.746 89.1204 509.745
2231 0 78.1075 13.3534 1043 105.053 88.9655 508.232
2232 0 81.1798 13.2299 1074 105.802 89.271 507.803
2233 0 81.0861 13.6398 1106 105.816 89.2758 506.59
2234 0 86.0578 13.735 1182 106.046 88.9416 505.186
2235 0 86.1207 12.6567 1090 108.534 89.6725 505.583
2236 0 91.1566 13.4165 1223 108.394 88.8929 504.033
2237 0 93.184 13.9294 1298 104.553 88.9938 503.233
2238 0 96.0999 13.7253 1319 105.78 88.0136 501.368
2239 0 99.1725 14.0362 1392 105.726 88.7658 500.083
2240 0 103.096 13.5893 1401 106.121 88.8237 498.324
2241 0 107.164 13.8945 1489 105.781 88.7764 495.158
2242 0 112.173 14.2904 1603 103.578 88.3986 494.336
2243 0 114.207 13.9045 1588 107.232 88.7368 493.429
2244 0 119.17 14.1478 1686 106.145 88.4994 489.896
2245 0 123.153 13.9339 1716 107.523 89.2552 487.859
2246 1 45.087 11.2893 509 114.124 89.1945 521.794
2247 0 49.1056 12.2186 600 109.085 88.69 522.107
2248 0 53.0478 12.7998 679 107.01 88.9617 520.996
2249 0 55.1193 12.6272 696 109.398 89.3003 522.277
2250 0 56.0557 12.1665 682 113.471 89.2845 521.474
2251 0 59.0392 11.7718 695 115.273 89.1309 521.001
2252 0 63.0698 13.3344 841 113.69 88.7253 520.937
2253 0 61.0924 11.8673 725 117.647 88.3655 519.041
2254 0 64.0881 12.1239 777 117.375 88.2471 518.951
2255 0 65.1146 12.4089 808 117.967 89.3663 516.965
2256 0 67.0483 12.4388 834 117.915 89.4424 516.948
2257 0 67.0463 12.5137 839 120.505 89.3278 516.126
2258 0 72.0804 12.4861 900 120.151 89.2489 514.788
2259 0 73.0899 13.2029 965 116.502 89.5814 512.632
2260 0 75.1336 12.7107 955 118.191 89.7037 512.063
2261 0 79.1755 12.4786 988 118.136 89.7105 511.147
2262 0 81.2067 13.0531 1060 120.41 89.4434 508.899
2263 0 82.2046 13.3326 1096 118.603 89.437 509.539
2264 0 87.129 13.8989 1211 117.352 89.867 509.124
2265 0 90.342 12.9729 1172 121.634 88.8567 507.245
2266 0 93.0952 13.3519 1243 121.537 89.7104 505.532
2267 0 96.1453 13.23 1272 124.182 89.048 503.866
2268 0 99.1092 13.6617 1354 125.302 89.0022 500.771
2269 0 104.073 14.115 1469 123.613 89.0504 499.944
2270 0 108.08 13.7121 1482 126.394 89.5938 496.418
2271 0 113.17 14.2441 1612 124.231 89.7717 494.816
2272 1 64.0421 11.2894 723 134.086 90.3513 518.877
2273 0 65.0687 11.4802 747 136.273 88.7644 517.339
2274 0 68.0615 12.3565 841 133.105 89.2735 516.339
2275 0 69.0676 12.2199 844 132.488 88.6457 516.078
2276 0 73.1065 12.0236 879 133.951 89.0296 514.585
2277 0 74.0782 12.8918 955 129.632 89.3361 513.066
2278 0 78.1663 12.6525 989 128.507 88.91 513.199
2279 0 81.1157 12.0815 980 132.151 88.998 511.783
2280 0 83.2273 13.0846 1089 128.179 89.3884 511.607
2281 0 84.2177 12.5864 1060 130.547 89.4028 510.379
2282 0 88.154 12.7618 1125 129.928 89.4667 509.465
2283 0 91.1865 12.4909 1139 129.687 90.5075 508.352
2284 0 94.1578 12.7446 1200 128.472 90.3742 507.04
2285 0 97.0969 13.1312 1275 128.744 89.9843 504.811
2286 0 99.115 12.6822 1257 131.263 90.113 503.255
2287 0 101.201 12.8061 1296 127.38 89.8048 500.261
2288 0 105.157 13.0091 1368 126.993 89.5819 499.08
2289 0 108.129 12.7533 1379 128.097 89.5954 499.469
2290 0 113.137 12.9666 1467 127.399 89.3708 496.847
2291 0 116.095 13.1271 1524 127.997 89.1975 494.612
2292 0 117.098 13.0574 1529 129.336 89.4958 491.96
2293 0 122.074 13.3608 1631 127.134 88.3464 490.631
2294 0 124.1 13.1023 1626 128.796 88.9508 488.833
2295 0 128.177 13.2473 1698 128.724 88.8127 488.195
2296 0 132.118 13.2911 1756 128.173 88.7756 486.428
2297 0 139.185 13.5359 1884 126.67 88.5849 482.275
2298 0 141.124 13.4492 1898 127.957 89.1138 480.488
2299 0 146.123 13.5365 1978 126.449 88.6951 477.893
2300 0 151.227 14.4022 2178 123.281 88.815 475.383
2301 0 155.113 13.964 2166 124.877 89.1487 471.544
2302 0 158.114 13.5977 2150 125.871 88.5912 468.642
2303 0 164.142 14.1036 2315 123.774 89.0156 465.938
2304 0 169.125 13.8773 2347 123.694 89.3622 464.203
2305 0 175.109 15.5674 2726 117.759 88.7087 459.359
2306 0 178.136 14.1465 2520 120.747 89.2841 458.098
2307 0 185.196 14.1688 2624 120.093 88.282 455.699
2308 0 191.24 14.1916 2714 121.133 88.3681 453.377
2309 0 198.175 15.0524 2983 118.96 88.5629 449.155
2310 0 205.152 14.7013 3016 120.585 88.7666 446.171
2311 1 216.287 15.7615 3409 115.385 88.8918 440.525
2312 0 219.229 14.5008 3179 121.724 88.9934 439.466
2313 0 226.239 14.6526 3315 123.795 89.0012 436.56
2314 0 233.209 15.4797 3610 122.493 88.3701 428.86
2315 0 241.161 15.3176 3694 125.759 87.8541 427.943
2316 1 181.125 11.804 2138 135.091 89.3045 459.393
2317 0 187.143 12.5359 2346 136.543 88.9105 454.416
2318 0 191.179 12.7786 2443 137.905 88.6279 449.502
2319 0 200.149 13.7997 2762 132.961 88.4468 445.251
2320 0 207.277 14.9076 3090 129.739 88.3337 441.273
2321 0 214.243 14.2175 3046 133.743 88.1632 438.846
2322 0 219.34 13.682 3001 137.207 88.2796 431.903
2323 0 227.293 13.806 3138 137.171 88.3365 428.327
2324 0 232.244 13.9121 3231 138.145 88.3101 425.434
2325 0 238.261 13.7832 3284 139.551 87.7409 420.179
2326 0 245.279 14.3877 3529 137.731 87.9096 416.898
2327 0 254.253 14.4856 3683 136.516 88.7472 411.623
2328 0 261.232 13.9608 3647 139.324 88.2199 403.134
2329 0 269.209 13.9 3742 140.108 88.8191 400.359
2330 0 277.174 14.1897 3933 140.212 88.6217 393.601
2331 0 280.251 11.6646 3269 145.247 89.2199 399.52
2332 0 279.268 9.2241 2576 149.805 89.1786 398.888
2333 0 279.229 8.8816 2480 149.294 88.8875 398.685
2334 0 278.427 8.14577 2268 147.757 88.0362 402.586
2335 1 33.0509 5.2646 174 86.4942 91.6724 535.81
2336 0 31.0414 5.54099 172 87.3895 92.0523 535.046
2337 0 32.0504 6.80178 218 88.4312 92.0963 533.381
2338 0 30.039 6.12537 184 92.4185 92.1033 534.212
2339 0 33.0422 6.20419 205 92.3073 91.439 533.39
2340 0 24.0637 5.40233 130 94.3769 89.9538 537.762
