time division length width area intensity CMx CMy
0 0 75.0809 14.6509 1100 118.004 926.736 498.944
1 0 75.1579 14.7689 1110 117.919 925.874 497.127
2 0 77.1525 14.8537 1146 117.581 926.072 496.629
3 0 81.1036 14.389 1167 116.798 925.762 495.282
4 0 85.1896 15.0136 1279 114.64 925.843 498.16
5 0 86.1952 14.734 1270 112.884 925.875 497.375
6 0 89.109 14.5552 1297 111.524 926.184 494.88
7 0 93.0962 14.1681 1319 109.285 925.967 494.133
8 0 95.0686 14.074 1338 107.96 925.484 492.496
9 1 48.0893 12.4352 598 103.328 926.328 516.018
10 0 48.0425 12.0727 580 103.967 926.095 515.816
11 0 50.0455 13.0481 653 101.07 925.815 514.345
12 0 52.0197 13.1489 684 97.3333 926.273 513.637
13 0 52.0167 12.8997 671 97.5022 925.289 516.234
14 0 53.0338 13.2745 704 95.5852 924.811 513.857
15 0 56.0794 12.8746 722 95.5817 924.801 512.247
16 0 59.0446 13.566 801 93.0749 925.198 512.939
17 0 60.026 13.7107 823 92.373 924.854 510.034
18 0 63.0564 13.7972 870 91.508 924.607 510.105
19 0 64.0461 13.8182 885 91.5571 924.758 507.612
20 0 65.0713 13.3546 869 92.9896 924.483 506.959
21 0 67.0442 13.4836 904 92.0642 924.73 507.632
22 0 68.0519 13.5779 924 92.7392 924.723 506.525
23 0 72.0549 13.2399 954 91.6887 925.139 504.528
24 0 72.0549 13.2121 952 137.162 925.14 504.526
25 0 77.1033 13.3457 1029 90.5326 924.612 503.827
26 0 79.0976 13.5655 1073 89.2815 924.511 501.555
27 0 80.1738 13.4333 1077 89.7521 924.434 500.388
28 0 84.1798 13.0435 1098 89.0911 924.491 498.671
29 0 86.0898 13.3581 1150 87.3617 924.095 498.217
30 0 90.1412 13.3679 1205 86.8954 923.965 496.838
31 0 93.1116 13.0703 1217 86.8422 924.22 493.488
32 0 95.1414 13.0227 1239 86.7417 924.18 493.532
33 0 97.1729 13.1209 1275 87.7874 923.721 490.587
34 0 102.136 13.0708 1335 87.6884 923.441 489.121
35 0 105.124 12.9752 1364 87.4707 923.279 487.672
36 0 108.154 13.2403 1432 86.9756 923.926 482.537
37 0 111.112 13.0229 1447 88.0138 922.867 481.625
38 0 119.137 13.6062 1621 85.8865 922.793 480.375
39 0 123.075 12.724 1566 87.067 922.028 476.557
40 0 128.116 13.6751 1752 86.3636 923.083 476.795
41 0 134.175 13.6613 1833 85.5674 923.019 474.781
42 0 140.222 13.9564 1957 86.2698 923.265 473.676
43 0 144.215 13.6393 1967 87.9176 922.602 469.496
44 1 73.1598 12.0148 879 84.1888 922.846 504.761
45 0 77.1066 12.0353 928 83.944 922.518 503.231
46 0 80.1207 12.7058 1018 86.775 922.886 499.859
47 0 83.0691 12.6762 1053 87.0171 923.34 500.064
48 0 84.0862 12.5585 1056 88.0284 922.747 497.989
49 0 87.0611 12.5774 1095 84.7616 922.875 497.248
50 0 90.0951 11.954 1077 87.9322 922.785 494.184
51 0 92.0801 12.5217 1153 87.6713 923.434 493.256
52 0 98.053 12.3403 1210 87.8198 923.358 491.305
53 0 102.058 12.5713 1283 86.9657 922.832 488.007
54 0 106.125 13.2768 1409 85.2349 922.764 487.762
55 0 112.09 13.4892 1512 83.9702 923.05 486.657
56 0 115.119 12.9432 1490 85.1866 922.768 483.799
57 0 120.248 12.8069 1540 86.824 923.041 478.123
58 0 124.149 13.3388 1656 90.5205 922.62 477.609
59 1 68.1755 10.6783 728 77.3352 923.794 508.815
60 0 69.0589 11.0775 765 77.1817 923.438 507.285
61 0 71.0803 11.2127 797 76.1782 924.01 507.045
62 0 74.0613 11.774 872 73.3601 923.046 506.771
63 0 77.0554 11.5372 889 74.0945 923.751 505.849
64 0 77.0399 11.9419 920 74.7424 922.909 504.079
65 0 80.0437 11.4313 915 76.7322 923.182 502.078
66 0 84.0803 12.3691 1040 74.3817 922.514 502.295
67 0 86.037 11.774 1013 76.9408 922.05 500.681
68 0 88.0929 11.1473 982 79.8299 922.273 498.483
69 0 93.1088 11.9108 1109 80.3526 922.189 497.841
70 0 97.129 12.1385 1179 79.1781 921.956 495.258
71 0 98.1187 11.5269 1131 80.9443 922.722 494.56
72 0 101.083 12.0594 1219 78.2609 922.34 492.079
73 0 105.114 11.6635 1226 78.8524 922.789 489.395
74 0 109.11 11.4747 1252 78.2979 922.564 487.739
75 1 56.1033 10.2846 577 61.5719 922.78 517.133
76 0 58.075 10.6414 618 67.0712 923.249 515.832
77 0 59.0812 10.9172 645 67.1612 923.036 513.426
78 0 62.0644 11.8425 735 65.5034 923.165 513.193
79 0 63.2141 12.6079 797 76.1581 922.806 512.035
80 0 67.2193 12.1542 817 75.3978 922.952 511.459
81 0 68.124 11.9928 817 75.9437 923.59 510.77
82 0 70.1919 11.9245 837 76.2246 923.951 510.308
83 0 73.1102 11.9546 874 75.9314 923.223 507.654
84 0 74.1538 12.3797 918 75.451 923.422 507.207
85 0 77.2288 12.7673 986 73.9118 923.169 505.817
86 0 77.1598 12.1436 937 74.7663 924.014 504.828
87 0 81.1627 12.0745 980 73.7337 923.233 502.378
88 0 84.1745 12.2602 1032 73.6793 924.077 501.654
89 0 87.1715 12.4926 1089 70.9734 923.528 500.629
90 0 89.1494 12.1481 1083 71.675 924.089 499.957
91 0 89.1162 11.3223 1009 74.2805 923.856 497.741
92 0 91.0222 11.5906 1055 73.7005 923.315 494.516
93 0 94.0738 11.9268 1122 72.2513 923.33 494.028
94 0 99.0619 11.6998 1159 72.7731 923.006 492.399
95 0 101.165 12.2078 1235 72.7061 923.353 491.242
96 0 102.127 12.2298 1249 72.711 923.21 489.92
97 0 105.153 11.7448 1235 72.6097 922.757 490.029
98 0 107.203 11.8001 1265 73.7866 922.996 489.255
99 0 111.197 12.2665 1364 73.393 923.138 485.494
100 0 114.125 12.7842 1459 72.8403 923.388 484.472
101 0 119.169 12.134 1446 75.1888 923.631 481.145
102 0 124.248 12.6682 1574 74.3926 922.921 482.044
103 0 126.174 11.9597 1509 75.9854 922.463 479.482
104 0 130.149 12.7469 1659 74.8216 922.555 475.999
105 0 134.163 12.4178 1666 74.8806 923.234 475.115
106 0 139.184 12.6667 1763 74.6103 923.21 473.817
107 0 143.273 13.5336 1939 72.9618 922.99 470.575
108 0 147.19 13.2753 1954 73.4463 923.32 468.576
109 0 152.179 13.7339 2090 73.7306 922.862 463.639
110 0 159.243 13.6646 2176 74.8263 923.204 459.292
111 0 164.191 13.5695 2228 74.8972 922.483 457.325
112 0 169.259 14.0377 2376 75.7912 922.744 454.111
113 0 176.234 13.7487 2423 76.9872 922.013 450.339
114 0 183.25 13.3697 2450 78.7339 921.921 449.086
115 0 187.223 14.0848 2637 79.6007 922.104 441.747
116 0 194.346 14.361 2791 79.4317 921.764 442.387
117 0 199.215 14.1355 2816 81.1161 921.918 437.401
118 0 205.261 13.7045 2813 82.8926 921.535 437.507
119 0 213.32 13.9649 2979 82.2833 922.156 431.922
120 0 219.279 14.4336 3165 82.8243 922.251 427.884
121 1 163.227 11.5912 1892 85.2849 922.83 460.122
122 0 168.329 12.5587 2114 83.2053 922.391 455.334
123 0 171.354 12.6172 2162 84.6471 922.014 450.647
124 0 179.277 12.846 2303 83.0578 922.214 448.352
125 0 179.277 12.8851 2310 157.003 922.221 448.351
126 1 190.17 13.0094 2474 82.1148 922.046 441.057
127 0 198.411 13.2352 2626 81.6272 921.834 439.814
128 0 203.317 12.5715 2556 85.0121 922.272 438.226
129 0 210.347 12.9785 2730 84.7919 923.182 424.803
130 0 218.342 13.1262 2866 84.0789 922.682 422.37
131 0 225.308 13.5281 3048 84.0003 921.977 418.284
132 0 231.292 12.9793 3002 86.6399 921.215 411.849
133 0 239.247 13.6971 3277 85.0519 921.517 409.49
134 0 250.28 13.8285 3461 85.1124 921.921 409.498
135 0 248.282 12.9208 3208 166.857 922.864 404.833
136 1 287.246 8.74859 2513 91.4357 920.999 413.619
137 0 290.462 10.1941 2961 90.5778 921.45 403.586
138 1 64.1932 10.6398 683 66.7174 922.117 507.038
139 0 68.2439 11.2244 766 70.1462 921.926 507.33
140 0 68.2484 11.2823 770 69.1714 921.51 507.165
141 0 69.0998 10.9696 758 70.3602 920.574 506.901
142 0 69.1365 11.7015 809 70.6279 920.602 506.26
143 0 75.0842 11.84 889 69.7852 921.282 506.173
144 0 76.0947 11.8537 902 70.3891 920.65 503.381
145 0 78.1523 11.4904 898 71.8708 921.415 501.274
146 0 80.1255 12.1934 977 71.2323 921.132 500.389
147 0 83.1787 11.3731 946 73.5021 921.255 500.128
148 0 84.2557 11.5957 977 74.0706 921.844 498.297
149 1 46.1228 10.1251 467 74.5803 920.717 515.687
150 0 47.1568 10.8574 512 72.7871 920.85 513.049
151 0 50.2191 11.7087 588 76.7772 922.77 519.9
152 0 49.1093 11.2402 552 75.712 922.893 521.4
153 0 50.1086 10.9362 548 77.7883 922.704 520.995
154 0 51.1633 11.0822 567 78.1146 922.573 520.995
155 0 54.0895 11.9062 644 77.2516 923.017 519.123
156 0 55.2402 11.5496 638 78.8354 923.105 518.086
157 0 56.1408 11.9699 672 78.0997 923.618 517.269
158 0 57.094 11.3847 650 79.2585 923.188 516.64
159 0 59.181 11.4564 678 79.556 923.358 514.13
160 0 61.1019 13.3875 818 75.4034 922.37 513.001
161 0 66.1085 13.2207 874 74.5664 923.255 511.645
162 0 66.0736 13.152 869 74.7825 923.182 509.321
163 0 67.2347 12.4638 838 78.4594 922.749 511.945
164 0 69.1376 12.4679 862 78.1775 922.736 510.451
165 0 70.1065 12.3241 864 79.2697 923.207 508.426
166 0 72.0983 12.5523 905 79.453 922.93 507.442
167 0 74.0826 12.3241 913 80.0646 923.407 503.537
168 0 77.2745 12.1644 940 79.7085 922.703 501.954
169 0 81.1049 11.5529 937 80.8388 923.298 501.299
170 1 40.0288 9.84292 394 76.3756 923.008 515.2
171 0 40.0522 10.6611 427 74.534 922.991 512.424
172 0 43.1835 10.8375 468 72.5897 923.393 511.97
173 0 44.0487 11.3965 502 75.763 921.536 521.41
174 0 46.0701 11.2003 516 76.4457 921.275 520.632
175 0 45.0454 11.3663 512 78.5644 921.658 521.004
176 0 47.014 11.7624 553 78.4702 920.664 519.913
177 0 51.0452 11.911 608 76.579 921.599 519.38
178 0 52.0614 12.6389 658 74.8997 921.827 517.746
179 0 54.0876 12.2394 662 72.997 921.609 517.417
180 0 55.1431 11.7875 650 71.8954 921.791 517.56
181 0 59.0936 12.7594 754 69.6605 921.61 517.057
182 0 58.0756 12.3115 715 71.3874 921.648 515.966
183 0 61.0346 12.7633 779 70.4223 922.213 513.575
184 0 61.0568 12.2345 747 71.996 921.685 513.661
185 0 63.0588 12.4328 784 72.6594 922.562 512.216
186 0 67.0278 13.4869 904 70.3838 922.246 512.827
187 0 68.0474 12.4913 850 73.3224 921.678 510.889
188 0 69.0572 12.772 882 74.0374 921.782 509.151
189 0 72.0268 12.2593 883 74.8029 922.111 507.545
190 0 73.0929 12.4362 909 74.6282 922.292 506.847
191 0 75.058 12.9367 971 75.3666 922.208 506.807
192 0 78.0821 12.9607 1012 80.4802 922.359 505.175
193 0 78.0721 12.2963 960 82.6 921.814 505.591
194 0 80.0822 12.4123 994 83.1932 921.686 502.971
195 0 84.0921 12.2723 1032 81.1134 921.506 500.991
196 0 85.0677 12.4136 1056 81.5928 921.693 499.552
197 0 88.0769 12.6026 1110 81.2099 920.667 497.91
198 0 91.0908 11.9551 1089 81.696 920.86 498.376
199 0 94.0407 11.9523 1124 81.0632 920.937 497.557
200 0 96.0774 12.594 1210 80.5521 921.135 493.498
201 0 100.206 11.9554 1198 81.3088 921.102 492.43
202 0 104.153 13.2785 1383 98.5235 921.14 492.469
203 1 53.0748 10.57 561 100.804 920.988 516.763
204 0 57.0673 11.4251 652 99.385 920.423 515.138
205 0 58.1122 12.0801 702 99.2009 921.533 513.996
206 0 60.0409 12.1417 729 98.7517 921.128 514.628
207 0 61.0824 12.6059 770 97.0234 921.199 513.351
208 0 64.1215 12.4607 799 96.2578 920.617 511.971
209 0 66.131 12.6718 838 95.1444 921.007 510.505
210 0 68.1569 12.75 869 93.8021 920.498 509.586
211 0 70.102 12.4961 876 93.4749 920.527 508.688
212 0 73.1493 12.7547 933 94.3784 920.579 508.516
213 0 74.1014 13.2656 983 93.5921 920.637 506.9
214 0 77.095 12.7894 986 93.0649 920.664 506.479
215 0 77.14 12.3153 950 94.2232 919.913 504.066
216 0 81.0773 12.8149 1039 92.5746 920.732 504.276
217 0 84.0657 12.9779 1091 92.1549 920.19 503.173
218 0 84.1167 12.8393 1080 94.2454 920.492 502.986
219 0 84.047 12.148 1021 91.4946 921.148 503.112
220 0 87.0404 12.3621 1076 89.7928 920.504 502.27
221 0 92.0535 12.8838 1186 87.9983 919.798 499.976
222 0 94.1104 12.6766 1193 86.9371 919.963 498.588
223 0 97.0293 12.9136 1253 86.8915 920.251 497.203
224 0 100.069 12.5014 1251 89.996 920.874 493.654
225 0 104.069 12.2034 1270 90.437 920.243 493.548
226 0 110.119 12.8315 1413 87.4996 920.884 490.183
227 0 114.116 12.7677 1457 88.4207 920.135 488.454
228 0 119.184 14.163 1688 94.872 920.004 484.134
229 0 121.049 13.0773 1583 93.8225 920.234 483.449
230 1 65.1038 12.2113 795 97.1082 920.874 512.465
231 0 69.1349 12.8445 888 92.723 920.777 509.136
232 0 71.0779 13.0139 925 96.5849 919.799 509.154
233 0 74.0679 13.5416 1003 97.2074 919.895 508.144
234 0 79.0271 14.1217 1116 95.0735 919.452 506.059
235 0 81.0146 14.0468 1138 96.5879 919.453 505.537
236 0 84.0232 14.258 1198 96.8948 919.659 503.917
237 0 88.1445 14.0451 1238 95.9491 919.545 502.532
238 0 88.0505 14.1396 1245 97.3558 919.904 501.301
239 0 92.0486 13.9166 1281 91.5972 919.856 500.016
240 0 95.0717 13.7686 1309 93.3552 920.043 497.072
241 0 97.151 14.1944 1379 92.4213 919.869 497.2
242 0 102.192 13.6508 1395 97.8151 920.409 495.368
243 1 51.0223 12.1515 620 96.0064 920.931 517.837
244 0 53.0728 12.53 665 94.1068 920.26 515.71
245 0 55.0466 13.425 739 94.4777 919.514 516.13
246 0 56.0259 12.0301 674 89.6751 919.369 518.731
247 0 56.0926 12.3902 695 89.5698 919.078 519.987
248 0 57.0423 11.9911 684 91.462 919.496 517.811
249 0 59.0332 12.2135 721 90.4938 919.402 518.286
250 0 61.0531 13.0214 795 89.3711 920.122 516.303
251 0 63.052 12.5611 792 91.2689 920.889 514.497
252 0 66.0862 12.6199 834 91.2374 920.649 513.288
253 0 70.0738 13.2717 930 87.9409 920.38 510.906
254 0 72.1384 12.6701 914 92.4125 920.185 510.918
255 0 74.0901 13.0247 965 92.7171 920.312 509.336
256 0 75.0434 12.4061 931 94.565 920.259 507.933
257 0 77.1026 12.9697 1000 92.682 920.219 507.305
258 0 81.0337 13.6857 1109 91.6952 919.929 504.573
259 1 41.0642 11.3968 468 89.3312 919.731 526.43
260 0 40.0509 11.1858 448 91.7679 919.891 525.58
261 0 42.0208 12.2082 513 95.8207 919.314 525.004
262 0 41.0204 12.5303 514 138.547 919.323 524.819
263 0 43.0668 11.9814 516 96.9574 920.442 524.233
264 0 45.0932 13.1505 593 93.747 920.533 522.853
265 0 45.0784 12.5115 564 95.9982 921.631 521.959
266 0 49.0744 13.1433 645 93.355 920.829 520.969
267 0 50.1248 12.9277 648 93.517 920.698 520.16
268 0 51.0326 13.7167 700 91.5143 920.256 519.831
269 0 50.0734 12.6614 634 95.3391 920.58 519.107
270 0 53.044 12.9704 688 93.3052 920.561 518.164
271 0 55.0462 13.3706 736 93.3016 920.312 517.196
272 0 56.0584 12.701 712 93.9494 919.952 516.733
273 0 59.0331 12.637 746 93.3526 920.418 515.489
274 0 59.0321 13.0438 770 92.9377 920.299 515.191
275 0 60.0312 12.7267 764 92.8482 921.275 513.656
276 0 62.0754 12.1626 755 92.9987 920.699 512.951
277 0 64.0191 13.1211 840 91.8119 920.506 509.625
278 0 66.0354 12.7205 840 92.4976 920.81 509.815
279 0 69.0329 13.0807 903 91.8815 920.305 508.297
280 0 71.0494 12.7939 909 92.5534 921 508.138
281 0 72.087 12.1797 878 90.1287 920.308 504.188
282 0 76.0668 13.0017 989 88.8756 921.024 504.821
283 0 78.0544 13.0422 1018 89.7839 920.344 504.439
284 0 78.0544 13.0166 1016 115.53 920.344 504.516
285 0 81.0307 12.304 997 90.7111 920.621 502.011
286 0 84.0341 12.9233 1086 89.9604 920.701 498.97
287 0 87.087 12.654 1102 91.9673 920.818 498.497
288 1 41.0146 12.2883 504 92.3214 919.472 519.873
289 0 45.0298 13.7687 620 87.0419 919.956 519.011
290 0 46.0117 13.8443 637 88.741 919.484 518.939
291 0 48.0478 14.7561 709 85.4189 920.107 518.357
292 0 50.0719 14.1197 707 87.6577 919.197 517.983
293 0 51.0929 14.4051 736 85.928 919.558 516.978
294 0 52.0771 14.1905 739 87.5318 919.223 515.468
295 0 52.0457 14.5449 757 89.2999 919.263 515.942
296 0 55.0426 14.3888 792 90.7121 919.49 516.018
297 0 57.0754 14.2794 815 92.0736 919.261 514.428
298 0 58.066 14.9313 867 91.3564 919.631 514.573
299 0 60.1148 14.2893 859 96.9395 919.605 512.788
300 0 62.0694 14.4516 897 97.097 919.248 511.99
301 0 63.0765 14.4428 911 99.2854 919.045 510.618
302 0 65.1037 14.4846 943 99.3213 918.515 510.364
303 0 67.0376 14.4844 971 98.1308 918.92 509.426
304 0 70.0754 13.9564 978 100.005 919.791 508.571
305 0 72.0945 15.0497 1085 96.7641 919.198 505.908
306 0 73.1107 14.8268 1084 98.155 919.611 506.108
307 0 77.1104 14.3171 1104 98.9601 919.289 506.111
308 0 81.126 14.6932 1192 98.4631 919.091 504.472
309 0 82.0347 14.0063 1149 101.921 919.104 503.941
310 1 37.0577 13.6544 506 106.731 918.379 524.312
311 0 40.0333 13.7136 549 105.654 918.933 524.098
312 0 41.0343 13.9639 573 107.328 918.996 523.611
313 0 42.0633 14.6446 616 107.583 919.205 522.188
314 0 44.035 14.3976 634 109.491 918.746 521.948
315 0 47.0521 15.1109 711 106.8 919.267 520.982
316 0 48.0701 14.9781 720 108.746 918.965 520.526
317 0 48.0791 15.2457 733 109.603 919.126 520.267
318 0 51.0477 14.7509 753 111.094 919.154 519.843
319 0 54.124 15.5938 844 107.441 918.472 519.045
320 0 56.0539 15.0569 844 108.864 918.661 517.267
321 0 59.0847 14.7585 872 110.322 919.251 516.005
322 0 61.0702 15.0155 917 110.686 918.963 515.266
323 0 62.0534 15.3416 952 112.128 918.592 514.769
324 0 65.0687 15.0149 977 113.356 918.494 514.006
325 0 65.0636 14.847 966 115.76 919.063 513.358
326 0 67.0809 14.7434 989 118.033 918.308 512.275
327 0 70.1099 14.9622 1049 116.869 918.5 511.887
328 0 70.0765 14.5698 1021 120.412 918.097 509.667
329 0 72.0757 14.5264 1047 120.017 918.546 509.704
330 0 74.1135 14.7611 1094 119.558 917.494 509.217
331 0 75.087 14.623 1098 122.117 918.431 507.289
332 0 80.1352 14.8749 1192 118.937 918.366 505.18
333 0 83.0938 14.4535 1201 120.62 918.296 503.112
334 0 86.1009 13.9952 1205 121.741 917.684 502.034
335 0 90.1113 13.9716 1259 122.683 918.025 500.072
336 1 38.0639 12.2951 468 130.269 918.162 523.699
337 0 38.0655 12.9514 493 127.481 917.75 523.245
338 0 41.0593 14.3938 591 120.55 917.249 523.115
339 0 45.0635 14.8901 671 118.325 917.376 522.581
340 0 46.0373 15.053 693 118.02 916.76 522.54
341 0 46.0571 14.9814 690 122.336 916.42 520.535
342 0 49.0494 15.148 743 119.68 917.14 520.763
343 0 49.0434 15.211 746 121.294 916.879 519.517
344 0 51.0609 14.8254 757 124.622 916.353 518.081
345 0 53.0325 14.5005 769 124.281 915.968 518.748
346 0 55.0595 14.675 808 124.776 916.214 516.358
347 0 57.0883 14.9593 854 122.923 915.73 515.089
348 0 57.0471 14.8649 848 124.112 915.597 514.671
349 0 61.0652 14.853 907 123.714 915.166 514.598
350 0 63.0524 14.8606 937 122.869 916.047 513.851
351 0 65.1278 15.7229 1024 119.309 915.879 512.881
352 0 68.0854 15.128 1030 119.692 915.605 511.558
353 0 68.1494 15.2019 1036 122.836 916.194 511.114
354 0 68.1612 15.5074 1057 162.889 917.181 510.695
355 0 75.1507 15.103 1135 121.546 916.032 508.369
356 0 77.0672 15.3762 1185 121.926 915.52 506.712
357 0 80.1243 15.451 1238 121.48 916.414 505.75
358 0 84.1248 15.9049 1338 119.82 915.439 503.413
359 0 85.0951 15.1948 1293 124.142 916.116 502.737
360 0 85.1149 15.1325 1288 168.04 917.096 502.735
361 0 90.1402 15.1874 1369 126.889 916.191 499.489
362 0 95.0959 15.6053 1484 122.658 916.29 496.78
363 0 100.174 15.533 1556 122.264 915.706 494.151
364 1 43.0089 12.2068 525 128.57 916.497 521.011
365 0 45.0215 12.4829 562 126.568 916.496 520.797
366 0 45.0197 13.1276 591 129.932 916.531 519.983
367 0 47.0045 13.5519 637 128.961 915.821 519.348
368 0 48.0388 13.2185 635 130.474 915.567 516.696
369 0 52.0886 13.7266 715 126.414 916.122 517.036
370 0 50.0373 13.6898 685 132.305 916.101 513.928
371 0 55.0695 13.6918 754 131.143 916.526 513.402
372 0 54.0478 14.1912 767 132.173 916.326 512.351
373 0 57.0787 13.9281 795 133.244 916.996 512.623
374 0 60.1258 14.0372 844 130.925 916.335 511.327
375 0 60.0821 14.2139 854 130.485 916.821 509.149
376 0 62.1452 14.1282 878 131.132 916.551 509.334
377 0 66.1754 13.4642 891 131.415 916.438 507.743
378 0 65.1985 13.85 903 132.159 917.37 507.3
379 0 71.2833 13.9444 994 128.301 916.688 506.846
380 0 71.3112 13.981 997 130.053 917.271 505.625
381 0 77.2714 14.0932 1089 128.799 916.788 504.462
382 0 78.4366 13.8456 1086 130.861 917.339 504.789
383 0 81.3995 14.0787 1146 130.325 917.755 502.906
384 0 82.4891 14.1837 1170 132.416 917.611 502.438
385 0 83.409 14.279 1191 133.484 917.392 501.941
386 0 88.5012 14.4066 1275 133.468 917.611 500.764
387 0 88.3986 14.3441 1268 135.868 916.916 498.239
388 0 91.5813 14.0968 1291 136.538 917.816 497.569
389 0 93.4448 13.7835 1288 138.228 918.373 494.915
390 0 97.3767 14.829 1444 134.734 918.181 492.902
391 0 99.478 14.3248 1425 138.677 918.21 491.484
392 0 102.47 14.3944 1475 139.65 918.06 489.6
393 0 104.407 14.0795 1470 138.573 917.766 488.693
394 0 107.434 14.2506 1531 136.605 918.096 486.531
395 0 112.62 14.0827 1586 136.327 918.062 483.159
396 0 115.404 14.7742 1705 134.554 918.099 484.516
397 0 118.563 14.1022 1672 136.401 917.693 479.18
398 0 125.557 15.3715 1930 129.894 918.175 483.447
399 0 128.508 14.9018 1915 132.277 918.131 478.638
400 0 130.493 14.9893 1956 131.848 918.186 477.706
401 0 135.418 14.998 2031 132.352 918.489 473.463
402 0 137.609 15.1153 2080 132.777 918.109 471.638
403 0 143.571 15.2816 2194 131.077 918.253 469.155
404 0 148.528 15.5728 2313 130.118 918.39 467.263
405 0 154.459 15.3439 2370 128.167 918.494 467.473
406 0 157.584 15.2045 2396 131.073 917.363 463.616
407 0 162.572 15.6423 2543 129.801 917.614 462.47
408 1 92.4646 11.4638 1060 132.442 917.335 496.003
409 0 95.3561 11.6615 1112 131.661 918.292 494.26
410 0 96.5026 11.7095 1130 134.244 918.061 490.732
411 0 98.4409 12.4847 1229 132.361 918.072 491.41
412 0 102.605 12.1631 1248 132.16 917.608 487.256
413 0 105.596 12.4153 1311 132.84 918.034 485.443
414 0 108.575 12.268 1332 133.224 917.228 485.351
415 0 112.641 12.5709 1416 132.598 917.22 484.523
416 0 114.624 12.493 1432 135.249 917.307 479.557
417 0 118.467 12.8559 1523 135.381 917.203 479.802
418 0 120.574 12.5483 1513 138.046 917.97 475.892
419 0 127.689 13.5329 1728 134.579 917.576 475.387
420 0 129.517 12.9172 1673 138.51 917.457 472.791
421 0 133.542 12.7825 1707 139.309 916.416 471.233
422 0 135.537 12.8821 1746 140.486 916.956 467.266
423 0 140.557 13.29 1868 140.086 917.516 465.468
424 0 143.478 13.1867 1892 140.832 917.245 462.993
425 0 146.525 13.2606 1943 141.541 916.899 461.023
426 0 150.472 13.0855 1969 143.712 916.569 457.275
427 0 150.472 13.0257 1960 169.104 916.554 456.977
428 0 159.604 12.8255 2047 144.003 917.021 451.276
429 0 167.687 13.4417 2254 140.369 916.969 447.941
430 1 134.118 14.2263 1908 148.708 916.155 443.526
431 1 173.198 12.9274 2239 142.774 916.51 439.903
432 0 179.347 13.4823 2418 140.389 916.052 443.089
433 0 184.418 14.2285 2624 139.025 916.439 443.299
434 0 190.54 14.8368 2827 136.035 916.456 439.358
435 1 140.629 11.477 1614 141.257 916.455 465.92
436 0 140.562 11.2548 1582 143.156 917.17 461.714
437 0 144.762 13.0559 1890 137.123 916.702 465.233
438 0 147.782 13.953 2062 135.391 916.854 461.893
439 0 150.877 13.6535 2060 138.031 916.572 462.447
440 0 154.662 14.0047 2166 138.736 917.254 461.479
441 0 157.846 14.2101 2243 140.783 916.823 460.523
442 0 157.703 13.8932 2191 144.84 917.265 458.612
443 0 161.953 14.5042 2349 143.931 916.456 457.032
444 0 166.983 14.6841 2452 144.209 916.917 456.857
445 0 170.974 14.7975 2530 145.47 916.625 454.268
446 0 175.901 14.6901 2584 147.415 917.287 450.543
447 0 181.991 14.9733 2725 146.307 917.995 448.21
448 0 185.831 14.8791 2765 148.033 917.633 446.465
449 0 190.805 14.79 2822 149.471 917.332 444.889
450 0 197.016 16.0697 3166 145.312 916.944 439.379
451 0 204.143 15.9496 3256 145.916 917.225 436.932
452 0 210.139 15.918 3345 147.359 917.16 434.351
453 0 213.036 14.8989 3174 150.645 917.008 431.211
454 1 148.057 10.2866 1523 146.739 917.47 468.659
455 0 151.957 10.6478 1618 145.845 916.985 464.521
456 0 155.119 11.0302 1711 143.649 917.736 460.628
457 0 156.89 11.3583 1782 146.595 917.984 461.189
458 0 159.908 11.9569 1912 145.802 917.37 457.821
459 0 166.265 11.9749 1991 145.636 916.784 455.183
460 0 171.102 12.5714 2151 143.978 917.21 452.514
461 0 171.102 12.5714 2151 142.253 917.201 452.279
462 1 181.753 11.9668 2175 144.124 917.544 447.853
463 0 181.762 12.0542 2191 143.817 918.55 447.96
464 0 191.932 12.9681 2489 143.294 917.467 444.981
465 0 195.843 12.8215 2511 143.248 917.304 442.699
466 0 199.837 13.1808 2634 143.365 917.356 440.559
467 0 204.776 13.566 2778 142.974 916.964 438.251
468 0 208.847 13.8092 2884 142.66 916.34 437.213
469 0 214.726 13.9713 3000 143.991 916.353 435.747
470 0 219.932 13.9043 3058 143.606 916.768 434.86
471 0 224.88 13.7807 3099 145.373 916.827 430.033
472 0 229.837 14.1404 3250 144.128 916.063 429.716
473 0 233.89 13.8355 3236 148.908 916.722 426.081
474 0 238.754 13.5076 3225 147.779 916.579 424.032
475 0 245.797 14.1906 3488 147.694 916.855 422.357
476 1 117.684 13.7402 1617 129.043 917.05 487.621
477 0 119.659 13.5385 1620 132.294 916.914 487.24
478 0 120.978 13.5727 1642 133.459 916.74 486.18
479 0 123.198 14.148 1743 131.818 917.124 485.298
480 0 127.148 13.7871 1753 133.764 916.617 484.841
481 0 130.028 13.151 1710 136.357 915.896 483.92
482 0 141.411 13.7613 1946 128.586 916.65 481.941
483 0 142.443 14.2302 2027 130.631 916.663 481.735
484 0 143.435 13.2534 1901 134.922 917.004 480.822
485 0 142.298 13.6544 1943 134.855 916.983 480.742
486 0 144.394 13.2969 1920 137.944 916.213 479.96
487 0 149.048 14.029 2091 136.266 915.526 477.776
488 0 150.168 13.3983 2012 138.909 916.443 478.743
489 0 152.024 13.9452 2120 139.33 916.685 477.391
490 0 154.182 12.9133 1991 144.684 916.528 477.325
491 0 157.148 13.4459 2113 143.419 915.937 474.394
492 0 161.051 13.4367 2164 144.486 916.197 473.742
493 0 163.905 13.5506 2221 145.21 916.989 472.444
494 0 166.884 13.6203 2273 145.296 917.675 471.574
495 0 171.414 14.5263 2490 141.641 916.754 469.126
496 0 174.061 13.2655 2309 145.727 916.878 468.212
497 1 232.132 14.8106 3438 142.671 915.969 439.748
498 0 237.428 14.6192 3471 144.105 916.389 439.182
499 0 246.129 14.9637 3683 146.913 916.464 434.051
500 0 245.26 14.662 3596 150.335 916.471 433.947
501 0 251.033 15.4083 3868 149.063 915.821 431.438
502 0 253.973 15.3441 3897 150.711 916.031 428.04
503 0 257.346 14.6068 3759 154.6 915.452 428.177
504 0 265.014 14.7464 3908 151.697 916.861 425.364
505 1 109.299 15.1145 1652 129.931 918.578 495.301
506 0 111.322 15.0824 1679 131.962 918.627 494.636
507 0 114.359 15.0578 1722 131.948 917.666 493.595
508 0 116.406 15.1969 1769 132.081 917.846 494.401
509 0 117.363 14.9025 1749 135.473 917.56 492.475
510 0 118.329 14.6709 1736 140.087 917.693 491.385
511 0 120.272 14.9911 1803 140.976 917.579 490.88
512 0 123.313 14.8646 1833 141.676 918.007 491.773
513 0 266.304 16.1432 4299 138.459 915.802 422.12
514 0 266.263 8.37141 2229 76.9273 914.947 382.475
515 0 265.223 6.39839 1697 92.6924 915.346 404.797
516 0 263.159 8.36755 2202 80.1285 915.346 384.156
517 0 253.332 7.48424 1896 92.855 914.657 405.925
518 0 254.265 6.81572 1733 97.3751 914.476 409.426
519 0 252.229 6.22846 1571 103.992 914.523 416.936
520 1 31.018 8.67239 269 88.5353 915.033 535.613
521 0 32.0228 9.64939 309 83.9547 915.175 534.65
522 0 33.008 9.17958 303 83.9604 915 534.033
523 0 35.0988 9.91486 348 80.9224 915.672 533.851
524 0 35.0758 10.178 357 82.3641 915.655 532.992
525 0 36.0529 10.4014 375 81.5573 915.784 532.288
526 0 38.051 10.3545 394 84.7589 915.754 532.355
527 0 39.0192 11.0459 431 87.6984 915.374 530.678
528 0 39.0228 11.1473 435 88.3058 915.738 530.402
529 0 42.0207 11.3278 476 86.8971 915.933 529.546
530 0 42.038 11.5848 487 86.4497 916.158 530.189
531 0 43.0137 11.2057 482 86.9398 915.689 529.228
532 0 45.0696 10.8721 490 91.1612 915.794 527.992
533 0 46.046 11.1845 515 92.7146 915.852 527.526
534 0 47.09 11.0852 522 92.2644 915.475 527.19
535 0 48.0764 11.5233 554 91.7238 915.399 526.17
536 0 47.0326 11.8216 556 93.2968 915.21 526.279
537 0 48.0416 12.0729 580 92.4552 915.493 525.597
538 0 50.0403 11.3109 566 94.1855 915.129 523.788
539 0 52.0556 11.3148 589 93.7368 915.93 523.508
540 0 53.0498 11.3478 602 95.1478 916.005 522.822
541 0 58.0341 13.1647 764 85.784 915.804 521.281
542 0 66.0236 15.3127 1011 73.3561 916.371 518.215
543 0 71.149 15.0107 1068 72.2322 915.693 518.792
544 0 71.1186 15.7765 1122 70.8752 915.116 518.298
545 0 75.071 14.5462 1092 72.968 914.884 517.872
546 0 75.1109 17.3477 1303 65.7038 915.27 513.15
547 0 76.0746 15.4059 1172 70.7167 914.881 515.489
548 0 80.0713 14.4247 1155 71.9792 915.698 515.397
549 0 82.0977 16.0175 1315 68.6205 914.889 511.052
550 0 77.063 15.7014 1210 74.1711 915.731 511.14
551 0 81.1192 16.0011 1298 72.5593 915.75 508.911
552 0 81.1151 15.3362 1244 76.3834 916.47 509.203
553 0 84.1622 16.8128 1415 73.5774 916.199 506.096
554 0 80.236 16.626 1334 77.3658 916.528 506.917
555 0 86.2654 17.6432 1522 74.1951 915.689 505.549
556 0 86.3771 16.8216 1453 77.2932 916.185 505.45
557 0 85.2605 15.998 1364 79.6459 915.988 506.707
558 0 85.2349 16.0146 1365 80.326 915.978 506.258
559 0 89.2193 14.8286 1323 82.5828 916.067 504.618
560 0 92.32 14.2006 1311 82.9146 916.034 504.46
561 0 94.2806 13.2477 1249 87.7254 916.174 502.276
562 0 94.2586 13.3144 1255 85.5689 916.957 502.187
563 0 99.3487 13.5281 1344 86.244 917.045 500.158
564 0 101.252 13.9257 1410 85.3553 916.451 499.193
565 0 104.304 13.7962 1439 85.6685 916.332 498.303
566 0 106.257 13.7685 1463 86.7259 916.404 496.549
567 0 110.28 13.7831 1520 86.7118 917.097 494.141
568 1 59.2154 10.656 631 84.9144 917.323 521.615
569 0 63.1627 11.3358 716 84.5307 917.454 519.332
570 0 63.0704 11.8598 748 83.5615 917.467 518.112
571 0 67.115 11.8006 792 86.0303 916.917 516.476
572 0 68.0719 12.4133 845 91.3101 916.58 514.883
573 0 71.1218 12.2607 872 90.7007 916.601 513.351
574 0 74.1284 12.5593 931 90.7712 916.319 511.472
575 0 77.1199 12.4741 962 90.6164 915.767 511.851
576 0 76.1451 11.964 911 92.9265 915.534 509.722
577 0 80.1174 12.7812 1024 89.8486 915.393 509.564
578 0 83.1035 12.2979 1022 93.6272 916.108 508.363
579 0 85.1492 12.2021 1039 93.4341 915.71 507.385
580 0 89.2296 12.3614 1103 90.6682 915.271 507.885
581 0 92.2279 11.9703 1104 90.5589 914.577 505.163
582 0 94.2693 12.7401 1201 89.6944 915.064 503.217
583 0 98.294 12.9408 1272 87.2115 915.633 501.356
584 0 101.521 12.1551 1234 88.3079 916 498.931
585 1 54.2211 10.3096 559 87.1199 915.834 520.336
586 0 58.1875 11.0849 645 82.6046 916.195 522.039
587 0 59.144 11.8355 700 79.9429 916.401 520.307
588 0 59.1147 11.1478 659 80.525 915.801 521.612
589 0 61.0735 11.4289 698 84.7751 915.288 520.006
590 0 63.0949 11.3004 713 93.5554 915.762 517.903
591 0 63.1007 11.648 735 92.5592 915.765 517.411
592 0 67.0597 12.2279 820 91.8329 915.545 514.796
593 0 68.0363 12.1994 830 92.1253 915.207 513.772
594 0 71.0577 12.0747 858 90.472 914.459 515.22
595 0 74.0187 12.5509 929 90.9311 915.364 510.102
596 0 75.0508 11.8986 893 93.3729 915.264 508.301
597 0 76.0515 12.5047 951 91.7771 915.168 507.423
598 0 79.0553 12.0801 955 92.3487 915.395 507.137
599 0 80.0808 12.4125 994 91.174 915.254 505.274
600 0 84.2119 12.5873 1060 91.0123 915.058 504.371
601 0 88.2096 12.5383 1106 90.5461 915.173 502.652
602 0 88.1966 11.7918 1040 93.7346 914.857 499.926
603 0 89.272 12.0531 1076 94.2407 914.57 496.857
604 0 95.2931 12.5403 1195 91.6661 915.141 496.706
605 0 97.2662 11.8335 1151 92.5665 915.44 492.047
606 1 48.1024 9.10558 438 89.6712 915.281 512.927
607 0 51.0773 10.3764 530 86.1208 915.872 512.089
608 0 53.056 11.0261 585 86.5521 914.872 514.128
609 0 59.0156 11.5563 682 87.1965 915.39 517.61
610 0 59.0156 11.5563 682 142.71 915.408 517.62
611 0 60.0266 12.2946 738 87.8848 914.924 521.061
612 0 62.0437 12.8297 796 86.9812 914.531 519.198
613 0 65.0418 13.4068 872 83.961 914.79 519.102
614 0 65.0427 12.6225 821 85.7259 915.251 519.005
615 0 68.0291 12.671 862 84.2274 914.841 516.459
616 0 69.07 12.6104 871 83.3513 915.185 513.106
617 0 70.071 12.1734 853 84.4443 914.311 512.341
618 0 74.0623 12.8945 955 82.6063 915.35 510.005
619 0 76.0564 13.4111 1020 83.0157 916.008 508.518
620 0 79.0638 12.9895 1027 83.1587 915.205 507.501
621 0 79.0538 12.89 1019 84.3366 914.748 506.635
622 0 82.0485 12.9801 1065 82.5446 915.411 504.64
623 0 85.033 12.6069 1072 82.959 915.012 503.336
624 0 89.1101 12.8044 1141 82.1762 915.523 501.149
625 0 92.0598 13.2414 1219 81.3913 915.682 500.11
626 0 95.1119 12.8796 1225 83.2588 915.55 497.753
627 0 96.1566 12.8124 1232 86.5593 916.052 501.132
628 0 99.0964 12.4727 1236 88.39 915.304 499.4
629 1 52.0933 10.0973 526 78.365 915.283 518.768
630 0 52.1593 10.2954 537 79.6778 916.035 516.419
631 0 57.0513 12.0418 687 79.1092 916.194 519.91
632 0 59.0338 11.6882 690 81.8391 916.009 520.101
633 0 57.0198 12.0309 686 77.8338 915.181 521.445
634 0 61.0491 12.4326 759 81.7154 915.946 517.206
635 0 60.0161 12.0468 723 84.6321 916.462 516.448
636 0 64.0193 11.8246 757 83.8494 916.103 515.126
637 0 66.0491 12.4604 823 82.0717 916.368 514.339
638 0 68.0343 12.2144 831 82.1588 916.077 514.029
639 0 69.0258 12.5605 867 83.098 915.685 512.224
640 0 72.0642 12.919 931 82.5306 915.284 510.936
641 0 73.0938 12.696 928 84.0948 915.922 510.552
642 0 75.0521 12.1382 911 86.4424 915.261 510.023
643 0 79.0654 11.7498 929 87.4026 916.436 508.65
644 0 81.0566 12.2014 989 86.7189 916.161 506.549
645 0 84.1054 12.6032 1060 85.4755 916.267 505.85
646 0 87.1597 11.9551 1042 85.2658 916.202 505.014
647 1 45.0195 10.24 461 82.5813 916.594 525.176
648 0 45.0428 10.6343 479 80.4823 916.689 525.188
649 0 46.0203 11.7991 543 78.6077 916.541 523.473
650 0 50.015 11.9364 597 82.9146 916.204 521.692
651 0 51.0383 11.8734 606 83.863 915.408 521.437
652 0 49.0284 11.0548 542 82.7565 916.507 522.511
653 0 51.0474 10.6959 546 80.522 916.639 523.092
654 0 52.0156 11.5927 603 80.7098 917.239 521.27
655 0 53.0377 11.1807 593 81 916.804 521.595
656 0 54.0656 11.3011 611 81.8527 916.426 520.085
657 0 59.0691 11.8336 699 83.206 916.73 517.469
658 0 59.0591 11.0059 650 83.1277 917.205 518.451
659 0 61.0662 11.4302 698 82.616 916.675 516.739
660 0 62.1124 11.5597 718 80.6741 917.113 517.948
661 0 64.0154 11.7628 753 83.5724 916.32 513.347
662 0 67.0668 10.989 737 83.5142 916.896 513.502
663 0 69.0853 11.2325 776 82.232 916.615 512.545
664 0 72.0613 11.8649 855 83.6281 916.742 508.623
665 0 74.0344 12.5482 929 82.5877 916.815 507.409
666 0 75.0468 11.7527 882 84.6587 917.258 507.506
667 0 77.1366 11.0324 851 85.1704 917.479 505.656
668 1 40.0219 9.79463 392 82.5128 916.773 525.865
669 0 43.0261 10.7842 464 79.0862 916.89 523.235
670 0 43.0485 10.4998 452 78.865 916.867 522.062
671 0 44.0122 11.4968 506 77.2964 917.46 521.377
672 0 45.0163 11.1737 503 77.2843 917.614 523.666
673 0 47.0294 10.9293 514 82.6459 916.623 520.416
674 0 49.0575 11.619 570 80.9807 917.405 520.265
675 0 50.0392 11.6709 584 80.9127 916.627 519.827
676 0 51.0376 11.3446 579 77.4111 916.95 522.121
677 0 51.0849 11.706 598 74.6054 917.269 521.013
678 0 52.0252 11.7635 612 76.6928 917.384 519.913
679 0 57.0232 11.9951 684 80.0526 917.263 518.282
680 0 57.0234 12.3283 703 79.8933 917.245 516.43
681 0 60.0717 12.7181 764 78.1846 917.22 514.467
682 0 61.0359 12.763 779 79.1566 916.869 514.933
683 0 62.0376 12.847 797 79.3551 917.607 513.374
684 0 67.0159 12.5642 842 78.1627 917.714 513.608
685 0 67.0876 13.1321 881 77.8808 918.159 510.768
686 0 71.028 12.6992 902 76.7716 917.865 510.812
687 0 74.0286 13.1571 974 77.3429 917.665 509.328
688 0 77.0474 13.0958 1009 76.4519 917.631 508.313
689 0 79.0338 12.6781 1002 77.9361 917.738 507.848
690 0 84.0951 11.9864 1008 80.4564 917.41 507.415
691 1 45.0404 10.7459 484 78.281 916.948 526.494
692 0 44.0211 11.4036 502 77.5 918.022 525.155
693 0 45.0376 11.124 501 73.3054 917.651 526.567
694 0 43.0473 10.4768 451 76.8138 917.922 527.993
695 0 46.0189 10.7782 496 77.1673 916.849 525.611
696 0 50.0303 12.1127 606 80.528 917.172 520.924
697 0 51.0469 11.4013 582 80.8436 916.558 522.065
698 0 53.0548 11.686 620 79.3936 916.631 522.047
699 0 53.063 11.4015 605 76.0248 916.993 523.281
700 0 53.0459 10.3872 551 75.98 916.753 524.056
701 0 56.027 11.5302 646 75.1687 917.517 522.731
702 0 55.0453 9.79193 539 77.2597 917.291 523.187
703 0 57.0281 10.1354 578 76.5121 917.235 521.419
704 0 64.0402 12.133 777 77.121 916.819 515.241
705 0 64.0592 12.0045 769 77.7347 917.092 515.459
706 0 64.0629 12.0663 773 121.948 917.074 515.424
707 0 66.0162 10.1945 673 77.7474 916.785 516.844
708 0 71.0392 12.1201 861 79.3589 916.37 511.682
709 0 73.0611 11.6615 852 78.9683 915.806 511.691
710 0 76.0577 11.9778 911 78.2975 915.749 510.723
711 0 77.0759 11.7028 902 79.3858 916.12 508.354
712 0 82.1329 12.2728 1008 78.2748 916.075 508.507
713 0 84.1088 12.6265 1062 76.8531 915.522 508.478
714 0 85.1284 12.0054 1022 78.366 915.654 505.131
715 0 87.0764 12.5637 1094 77.6691 916.274 505.074
716 0 89.0764 12.9103 1150 77.8078 916.427 504.073
717 0 93.0208 12.3306 1147 77.8396 915.929 502.566
718 0 96.0295 12.1733 1169 81.3713 915.678 500.804
719 0 97.0489 12.5298 1216 82.4704 915.69 497.464
720 0 100.061 12.5124 1252 83.0511 915.864 499.375
721 0 105.052 12.6224 1326 81.7096 915.474 495.859
722 0 107.06 12.4883 1337 81.5909 915.68 494.494
723 1 53.0176 10.0533 533 80.409 916.056 521.614
724 0 54.0421 10.5103 568 80.8116 916.192 520.565
725 0 55.0281 10.7581 592 79.7331 916.341 518.828
726 0 61.018 12.1603 742 80.2601 915.652 520.873
727 0 60.0211 11.346 681 79.9618 915.659 520.765
728 0 60.0301 10.9778 659 81.4522 915.728 519.552
729 0 66.0623 11.8827 785 83.4102 915.387 519.535
730 0 65.0209 10.8119 703 81.1494 916.222 519.949
731 0 67.0225 11.1604 748 82.1765 915.834 519.624
732 0 70.0748 11.7589 824 83.4248 916.374 515.945
733 0 72.053 11.7414 846 85.6371 915.909 515.81
734 0 76.0514 12.268 933 83.6474 916.608 513.077
735 0 78.0773 11.7704 919 83.7269 916.641 512.086
736 0 82.0517 12.3337 1012 86.2757 916.415 508.188
737 0 84.0542 12.9797 1091 85.6737 916.336 505.121
738 0 87.092 11.861 1033 86.4763 916.183 505.623
739 0 91.0646 13.0237 1186 84.6315 916.439 504.54
740 0 93.043 12.8973 1200 84.3067 916.512 503.015
741 0 96.116 12.6618 1217 87.1832 916.2 498.197
742 0 97.1456 11.8894 1155 87.8753 916.556 498.621
743 0 101.081 12.4256 1256 87.9084 915.598 495.348
744 0 103.143 12.4003 1279 88.8405 915.391 492.516
745 0 105.104 12.7968 1345 88.3056 915.829 492.9
746 0 107.124 11.8834 1273 89.0597 916.263 490.121
747 0 110.256 12.2715 1353 89.9653 916.259 488.486
748 0 113.089 12.5387 1418 88.3568 916.24 488.051
749 0 114.235 11.5901 1324 89.0174 915.176 483.71
750 0 119.297 11.4337 1364 91.7177 915.089 473.676
751 0 121.19 11.9565 1449 91.1746 915.606 477.629
752 0 126.163 11.8973 1501 91.2545 915.222 475.159
753 0 131.27 12.1429 1594 91.5759 915.525 473.907
754 0 122.173 10.4851 1281 100.294 914.924 458.03
755 1 138.283 12.0912 1672 95.3774 915.392 466.569
756 1 76.0667 9.87292 751 92.5007 916.181 495.969
757 0 79.1878 10.7214 849 92.225 916.073 496.159
758 0 82.266 11.7302 965 91.0383 916.575 497.375
759 0 86.1746 11.7204 1010 91.398 916.519 499.217
760 0 88.2126 12.1751 1074 90.1182 916.327 498.867
761 0 88.048 12.3115 1084 88.8635 915.852 495.482
762 0 93.1938 13.1661 1227 84.9152 916.749 494.457
763 0 96.1454 12.7931 1230 85.322 916.672 493.19
764 0 99.1581 12.0918 1199 86.829 916.787 492.42
765 0 101.1 12.2552 1239 86.7086 916.592 490.49
766 0 104.183 12.6413 1317 85.9727 916.531 490.118
767 0 109.298 13.0103 1422 84.9093 917.011 488.371
768 0 111.34 12.5292 1395 87.2323 916.525 484.213
769 0 116.193 12.8665 1495 88.1666 915.801 483.922
770 0 122.255 12.9974 1589 88.6148 916.142 479.938
771 1 52.0405 9.03143 470 76.9383 916.5 519.94
772 0 56.0445 11.4909 644 83.337 916.7 519.983
773 0 59.0343 11.2816 666 86.6907 916.749 518.47
774 0 59.0471 11.1944 661 88.3828 916.708 517.041
775 0 61.0392 11.7466 717 87.7755 916.781 517.898
776 0 64.0441 11.4609 734 88.0899 916.154 516.828
777 0 65.016 11.5356 750 89.8667 916.441 515.457
778 0 67.031 12.2182 819 89.2528 916.11 514.833
779 0 70.04 11.936 836 89.5694 916.365 513.728
780 0 73.0522 11.9504 873 90.1672 916.454 513.139
781 0 72.0855 11.1812 806 86.4417 916.506 513.28
782 0 76.0652 11.2798 858 92.6061 916.615 508.874
783 0 79.041 12.4998 988 91.7571 916.956 507.038
784 0 80.0223 12.1341 971 93.1771 916.826 504.998
785 0 83.0327 12.2 1013 93.7226 916.296 505.315
786 0 85.0529 12.3335 1049 92.3432 917.106 503.428
787 0 87.059 12.5317 1091 93.5646 917.076 503.59
788 0 89.0719 11.9791 1067 96.7226 917.412 501.299
789 0 94.0646 12.3426 1161 96.4875 916.77 500.734
790 1 47.0179 10.5492 496 93.7681 918.312 524.56
791 0 48.0231 10.8281 520 91.6615 919.008 524.048
792 0 50.0442 11.5498 578 92.4914 919.588 523.868
793 0 51.0298 11.6598 595 92.1277 917.982 522.79
794 0 51.0101 11.6448 594 93.3653 918.542 523.258
795 0 52.0462 11.5859 603 93.4776 917.663 520.425
796 0 53.0314 11.1066 589 92.0951 917.574 522.105
797 0 54.0284 11.4384 618 91.9644 917.655 522.574
798 0 56.0492 11.7932 661 97.7504 918.268 520.47
799 0 60.0213 12.4289 746 95.4383 918.007 519.481
800 0 60.0188 12.4294 746 152.119 918.02 519.619
801 0 62.0411 12.5401 778 95.3959 918.302 519.258
802 0 65.0279 12.6254 821 92.8112 918.049 518.278
803 0 66.033 12.1909 805 95.3255 917.621 518.619
804 0 66.1026 12.8437 849 94.9658 917.509 516.436
805 0 67.0504 12.5726 843 94.7699 916.816 518.534
806 0 69.0687 12.7699 882 95.534 917.244 516.265
807 0 72.1061 12.8977 930 93.9828 917.109 515.424
808 0 75.0804 12.1603 913 95.1687 917.014 514.007
809 0 75.0513 12.8712 966 94.0994 916.259 514.358
810 0 76.1303 12.7544 971 93.7086 915.937 511.591
811 0 79.0806 12.9741 1026 92.5419 915.782 509.819
812 0 79.0777 12.317 974 93.1612 915.297 512.333
813 0 85.0929 12.9623 1103 91.8123 916.859 506.763
814 0 88.0888 12.8507 1132 91.1846 916.369 506.545
815 0 92.0921 13.215 1217 89.3279 916.892 505.3
816 0 92.1233 12.5375 1155 92.2035 916.308 502.955
817 0 95.1392 12.8128 1219 91.2494 916.832 503.598
818 0 98.1966 12.9943 1276 90.7821 915.588 501.241
819 0 100.149 12.5613 1258 92.5072 915.882 498.818
820 0 103.155 12.457 1285 91.7331 915.988 498.375
821 0 108.161 12.8327 1388 89.139 915.777 496.94
822 0 112.145 13.8124 1549 87.3357 915.552 493.358
823 0 116.156 13.1548 1528 88.4764 915.198 493.052
824 0 120.232 12.3262 1482 89.4723 916.42 492.24
825 0 125.185 12.829 1606 88.6401 915.986 488.397
826 0 129.214 12.7231 1644 88.753 916.287 488.901
827 0 132.125 13.4494 1777 91.4558 915.522 484.572
828 0 138.29 13.2403 1831 91.728 915.744 481.547
829 0 142.234 13.0489 1856 90.291 915.844 480.694
830 0 145.236 13.5573 1969 90.5698 915.46 475.659
831 1 70.1072 9.74222 683 84.2621 915.284 519.152
832 0 75.0959 10.6531 800 83.0212 915.729 516.509
833 0 78.1072 11.1257 869 80.6847 915.976 516.635
834 0 80.1184 11.2708 903 80.649 916.044 515.35
835 0 82.1423 11.8331 972 83.4434 916.379 514.086
836 0 87.1955 11.1474 972 85.4434 915.48 509.717
837 0 91.1585 12.1327 1106 87.3861 915.246 505.625
838 0 92.1467 11.7747 1085 83.3281 915.488 504.28
839 0 93.061 11.4119 1062 83.709 915.707 501.69
840 0 98.2244 13.0416 1281 84.6105 914.313 500.671
841 0 100.206 12.8834 1291 85.4818 915.156 499.886
842 0 103.228 13.1166 1354 86.4276 914.172 496.555
843 0 108.261 13.2272 1432 85.5314 914.315 493.176
844 0 111.235 12.9815 1444 81.9584 914.53 492.685
845 0 114.143 12.7559 1456 82.2541 914.342 491.545
846 0 118.258 13.2 1561 81.1621 914.75 489.061
847 0 121.397 13.9377 1692 80.6123 914.214 486.01
848 0 125.284 13.1382 1646 81.5808 915.131 485.331
849 0 127.515 13.0573 1665 81.9796 914.966 481.943
850 0 133.407 13.8523 1848 80.0119 915.306 479.334
851 0 136.423 13.4142 1830 78.7858 914.84 476.817
852 1 82.2443 11.1375 916 74.678 915.066 505.564
853 0 86.3592 11.3248 978 71.089 914.693 504.374
854 0 89.3034 11.6793 1043 74.4669 915.41 503.654
855 0 91.1526 12.7369 1161 77.7089 915.168 503.208
856 0 92.0572 12.2098 1124 79.9164 915.584 502.105
857 0 96.0588 12.1905 1171 79.5491 915.708 501.313
858 0 100.098 12.8175 1283 79.2923 915.64 499.352
859 0 102.163 12.1472 1241 81.6092 915.836 497.489
860 0 104.122 12.4085 1292 82.2887 915.774 495.795
861 0 106.061 12.6154 1338 80.3842 914.826 493.485
862 0 109.118 12.9768 1416 79.1653 914.708 491.597
863 0 112.096 12.0344 1349 80.8021 914.397 490.916
864 0 117.134 12.1314 1421 80.841 915.3 487.265
865 0 120.236 11.7602 1414 79.9639 914.94 485.591
866 1 61.1729 9.69384 593 69.8061 915.745 517.874
867 0 63.0566 11.1804 705 68.9319 915.288 515.295
868 0 66.1266 11.7502 777 79.018 914.885 513.023
869 0 68.0508 12.2849 836 78.0526 914.889 512.694
870 0 68.0687 11.7235 798 77.5075 916.135 514.061
871 0 73.076 12.2338 894 77.8702 915.456 511.031
872 0 75.1839 12.1968 917 77.8582 915.244 511.118
873 0 75.1709 12.0791 908 80.1366 915.856 510.763
874 0 78.1691 12.0764 944 81.2172 915.811 509.46
875 0 78.1599 12.001 938 79.5949 915.446 509.486
876 0 79.0335 11.3876 900 80.4033 915.21 507.282
877 0 82.0857 11.9022 977 79.2354 915.731 505.147
878 0 85.1132 12.078 1028 78.3103 915.963 503.992
879 0 85.1289 11.183 952 80.4821 915.917 502.692
880 0 87.1627 10.9795 957 81.0042 915.856 502.624
881 1 50.0617 9.24859 463 77.8207 916.581 521.648
882 0 50.2153 9.89738 497 76.4185 916.229 518.408
883 0 50.1803 10.3427 519 75.3333 916.825 517.888
884 0 51.0787 11.1005 567 73.9471 914.949 522.418
885 0 53.0453 11.4996 610 74.0262 915.272 522.346
886 0 53.0453 11.4808 609 126.146 915.261 522.335
887 0 55.041 11.6277 640 72.3828 915.181 520.845
888 0 56.0842 11.3401 636 73.1604 915.201 520.118
889 0 57.0347 11.6771 666 72.5135 914.925 518.878
890 0 59.0291 11.3673 671 74.1714 915.033 517.519
891 0 60.1273 11.3426 682 74.5293 915.132 516.761
892 0 63.0366 11.1047 700 74.8029 915.077 515.376
893 0 62.0771 10.9541 680 76.7574 915.421 513.919
894 0 65.0672 10.9886 715 76.2266 914.864 512.881
895 0 66.0701 11.0943 733 76.5471 915.101 511.632
896 0 69.0691 11.6405 804 75.8806 915.17 509.862
897 0 69.0417 10.7761 744 78.2231 915.089 507.978
898 0 72.1142 11.1213 802 76.6995 915.258 507.396
899 0 74.2317 11.2351 834 77.187 915.505 505.192
900 0 72.1637 10.4485 754 79.3263 915.534 504.053
901 0 78.1259 11.3279 885 78.2701 915.464 502.641
902 0 81.1863 10.3219 838 78.8986 915.483 503.218
903 0 80.1026 10.3492 829 79.8878 915.942 500.867
904 0 84.1679 10.9186 919 78.7301 915.838 499.214
905 1 44.0771 10.0959 445 77.1865 915.364 517.553
906 0 46.072 10.158 468 78.6303 915.598 519.662
907 0 51.0464 11.852 605 76.8628 916.283 519.2
908 0 48.0748 10.4837 504 76.006 916.619 521.883
909 0 51.0197 10.8389 553 78.1338 916.913 520.528
910 0 51.0608 10.5952 541 79.7597 916.795 519.593
911 0 55.0297 11.0667 609 77.2923 916.635 520.118
912 0 56.046 10.7947 605 79.5653 917.207 518.043
913 0 59.0366 11.7893 696 79.0891 917.024 516.823
914 0 58.0351 11.5964 673 81.3982 916.883 517.051
915 0 63.0735 12.3031 776 77.2191 916.504 516.836
916 0 63.0469 11.2614 710 80.8887 916.634 516.011
917 0 66.0531 12.0963 799 81.6483 916.65 514.279
918 0 69.1047 12.1121 837 83.1051 917.041 513.167
919 0 71.1014 12.2642 872 83.6858 916.531 512.705
920 0 72.0597 12.4064 894 85.4329 915.672 511.055
921 0 76.0737 12.2381 931 86.5585 915.904 508.654
922 0 76.0846 11.8815 904 87.6372 916.004 507.455
923 0 79.0443 12.5879 995 86.9236 915.812 506.985
924 0 82.0359 12.3361 1012 85.6759 915.26 503.698
925 0 84.0636 12.7879 1075 84.5405 915.832 503.456
926 0 86.0887 12.0573 1038 86.0405 915.091 499.448
927 0 91.0671 12.9904 1183 82.5976 915.269 499.439
928 0 91.1135 11.2936 1029 87.2663 915.674 497.579
929 0 96.11 12.5273 1204 83.6196 914.757 496.739
930 0 102.157 12.8332 1311 81.9642 914.744 497.459
931 1 56.0612 11.0237 618 81.2265 914.743 520.092
932 0 57.0482 11.0608 631 82.5975 914.851 520.063
933 0 59.0937 12.0825 714 81.7633 914.811 520.749
934 0 64.0369 12.3679 792 81.38 914.208 520.073
935 0 66.0692 12.2599 810 82.3136 914.541 518.775
936 0 68.1302 12.5789 857 82.2695 914.873 517.27
937 0 71.0825 12.9146 918 82.1895 913.997 516.977
938 0 72.074 12.834 925 84.4 913.529 515.904
939 0 74.1426 12.5299 929 85.4639 913.243 516.712
940 0 75.0838 12.8124 962 84.1393 913.423 514.874
941 0 78.1229 12.4675 974 85.8429 913.2 513.013
942 0 82.1964 12.8716 1058 84.9395 912.706 513.179
943 0 82.1617 12.2076 1003 87.1755 913.02 511.128
944 0 85.2051 12.1941 1039 86.2772 913.094 510.641
945 0 86.1333 12.0163 1035 89.8454 913.814 509.418
946 0 90.1 12.5416 1130 89.1903 913.225 507.056
947 1 47.0204 10.4423 491 83.4501 913.208 528.758
948 0 48.0322 11.1175 534 80.7697 912.79 529.715
949 0 49.0478 11.4378 561 79.287 913.077 529.068
950 0 51.0838 11.4322 584 84.1216 913.988 527.721
951 0 52.0608 12.0244 626 94.7875 913.615 527.078
952 0 56.029 12.208 684 94.3904 914.04 525.377
953 0 56.0316 12.1717 682 130.233 916.022 525.433
954 0 56.0978 12.2643 688 96.3968 914.724 525.414
955 0 59.0187 12.047 711 94.4234 914.318 523.927
956 0 61.0354 12.075 737 84.574 914.833 521.582
957 0 63.0317 12.8824 812 82.6121 914.341 520.367
958 0 64.0772 12.204 782 84.757 915.155 518.492
959 0 67.0699 12.4944 838 83.1325 914.916 517.994
960 0 68.1792 11.9685 816 84.2463 914.592 515.697
961 0 69.0161 11.4321 789 84.7136 914.863 514.921
962 0 73.0418 12.5955 920 81.8467 914.187 513.346
963 0 73.0486 12.2521 895 83.3017 914.94 512.47
964 0 75.0731 11.8684 891 83.064 914.91 512.809
965 0 80.0808 12.2002 977 81.5148 915.822 511.768
966 0 80.1 12.01 962 81.7755 915.817 511.781
967 1 43.0511 9.82553 423 78.5343 916.118 530.6
968 0 45.0948 9.75722 440 77.9568 915.352 529.566
969 0 45.0344 10.8584 489 74.9305 915.984 527.83
970 0 47.1095 10.1466 478 75.1297 915.805 528.839
971 0 49.0191 10.7917 529 73.6011 915.756 527.853
972 0 50.0642 11.1257 557 74.2513 915.298 526.145
973 0 52.0944 10.5386 549 75.5847 915.275 523.896
974 0 52.0552 10.5273 548 76.3321 915.81 523.743
975 0 54.0732 11.3365 613 77.0326 916.072 521.974
976 0 57.1385 11.3059 646 76.9009 916.014 519.65
977 0 61.1227 10.7979 660 77.1652 916.074 519.5
978 0 63.1948 10.5072 664 77.7274 916.163 518.895
979 0 64.1029 11.9027 763 84.2792 916.929 518.301
980 0 65.0887 12.2141 795 86.6654 916.296 516.283
981 0 66.1026 10.8165 715 89.4909 916.853 515.997
982 0 70.0257 12.0956 847 87.8217 916.377 514.786
983 0 72.1251 12.0485 869 78.2428 916.369 515.713
984 0 74.0757 11.0293 817 81.0857 915.181 511.565
985 0 76.1007 11.8659 903 79.9568 915.736 511.123
986 0 76.1341 12.0314 916 80.2009 915.48 509.774
987 0 82.0883 12.4013 1018 80.2927 915.574 509.497
988 0 83.0642 11.6897 971 82.0453 916.073 507.21
989 0 85.1939 11.0102 938 84.2751 915.31 503.488
990 0 89.087 11.0791 987 84.2452 915.999 501.953
991 0 92.1261 12.3309 1136 81.75 915.366 501.21
992 0 94.2148 11.2403 1059 85.0416 915.429 500.62
993 1 49.2514 9.90835 488 79.4057 916.277 523.068
994 0 49.1459 10.4994 516 81.314 916.508 520.165
995 0 51.0889 10.8047 552 82.5362 916.263 520.703
996 0 54.072 11.1333 602 81.3588 915.977 519.819
997 0 54.0516 11.711 633 83.2117 915.427 519.788
998 0 57.1037 10.9275 624 84.2548 917.019 519.657
999 0 59.0914 11.0507 653 84.2282 916.565 518.704
1000 0 62.1157 11.7523 730 83.0479 915.749 517.53
1001 0 64.0722 11.6587 747 84.0522 915.985 516.584
1002 0 66.0458 11.3558 750 85.0027 915.981 515.527
1003 0 65.1082 11.6114 756 85.623 916.23 514.499
1004 0 69.1044 11.3017 781 87.0435 916.608 512.215
1005 0 70.0643 11.9747 839 85.8033 917.511 513.381
1006 0 72.1186 11.176 806 88.7146 917.14 512.143
1007 0 75.0752 12.3343 926 86.9957 917.236 509.379
1008 0 77.0818 11.9354 920 88.1054 917.32 508.584
1009 0 81.0679 12.7917 1037 84.053 916.808 509.895
1010 0 85.2174 13.4949 1150 83.807 917.214 508.069
1011 0 87.133 13.1638 1147 85.986 917.058 506.301
1012 0 89.2134 13.6078 1214 85.8641 917.774 504.113
1013 0 93.2621 12.9742 1210 86.9578 917.085 501.613
1014 1 46.1541 9.25162 427 86.9578 918.22 526.316
1015 0 49.2601 10.6374 524 82.3397 917.935 523.565
1016 0 50.2772 10.8598 546 82.6722 917.088 524.068
1017 0 51.2138 12.0475 617 82.846 917.556 522.287
1018 0 53.0341 11.9923 636 85.2123 917.799 524.524
1019 0 55.0466 12.444 685 84.3591 917.739 523.134
1020 0 56.0397 12.5268 702 83.8034 916.796 523.52
1021 0 58.0271 12.184 707 83.9703 918.475 523.57
1022 0 58.0518 12.6956 737 82.2361 918.229 522.688
1023 0 57.0675 11.1622 637 81.2198 918.168 524.016
1024 0 59.0188 12.3012 726 86.4821 918.026 520.643
1025 0 63.0535 12.4339 784 85.6339 918.207 518.917
1026 0 66.0238 12.9499 855 82.924 917.709 518.012
1027 0 68.0391 13.213 899 82.8876 918.255 517.497
1028 0 67.0877 12.3271 827 86.3773 917.635 515.797
1029 0 71.0563 12.9897 923 84.6186 917.439 515.191
1030 0 70.1519 12.758 895 86.0492 916.803 512.566
1031 0 75.0683 12.9216 970 84.3371 916.705 511.715
1032 0 76.1447 12.9228 984 84.7276 916.964 511.498
1033 0 78.1775 12.7274 995 86.194 916.951 509.126
1034 0 81.1453 12.644 1026 86.7729 916.568 508.833
1035 0 82.1497 12.6842 1042 87.9856 916.084 507.952
1036 0 84.1998 12.6604 1066 88.9381 915.981 506.075
1037 0 88.2018 12.9249 1140 87.6325 916.16 503.644
1038 0 89.1782 12.7834 1140 88.6123 916.165 501.578
1039 0 91.253 13.3256 1216 87.1793 916.164 501.597
1040 0 93.3086 13.4286 1253 86.8763 915.915 501.702
1041 0 92.0581 12.4161 1143 85.8224 916.108 496.22
1042 0 96.0691 12.5639 1207 84.8459 916.215 495.157
1043 0 98.1735 12.1316 1191 86.5046 915.493 494.207
1044 0 97.2347 11.6008 1128 85.5027 915.691 495.23
1045 0 102.198 11.5071 1176 86.9992 915.898 490.594
1046 1 55.1387 9.21313 508 78.2342 915.165 516.358
1047 0 54.1159 9.73836 527 79.8899 916.23 514.347
1048 0 59.133 10.7723 637 78.719 915.969 515.571
1049 0 63.0353 11.1366 702 84.3789 915.997 519.95
1050 0 64.0232 12.1831 780 82.5154 916.196 516.763
1051 0 67.0805 11.7322 787 82.9695 916.666 516.053
1052 0 69.0148 11.9685 826 82.8475 916.54 515.099
1053 0 70.0512 11.9199 835 82.3317 916.204 515.186
1054 0 72.077 11.4738 827 85.7836 916.414 512.573
1055 0 74.0258 11.2258 831 87.0758 917.302 512.191
1056 0 78.0451 11.9034 929 86.0797 917.076 511.886
1057 0 79.0488 11.9799 947 85.8427 916.625 509.504
1058 0 79.0879 10.7728 852 88.1737 916.872 508.668
1059 0 83.0429 11.7409 975 86.9159 916.462 507.471
1060 0 85.0263 11.4435 973 87.7451 916.756 506.665
1061 0 88.0528 11.2433 990 87.499 916.891 506.941
1062 0 88.099 11.4984 1013 89.5429 916.625 504.666
1063 0 93.1 11.5575 1076 88.4396 916.618 502.676
1064 0 96.0976 12.1335 1166 85.2702 916.366 504.194
1065 0 97.0709 11.1362 1081 90.7641 916.332 501.415
1066 1 50.0144 11.0768 554 84.2762 915.684 526.462
1067 0 54.0891 11.4071 617 79.8866 916.614 526.248
1068 0 54.041 10.8806 588 81.1429 917.032 526.662
1069 0 56.0378 11.171 626 86.7764 916.535 525.521
1070 0 58.0646 11.4011 662 86.864 917.189 523.976
1071 0 60.0058 12.1322 728 86.2129 916.707 522.637
1072 0 61.1008 11.8493 724 88.547 917.416 521.964
1073 0 63.1117 11.6936 738 89.7846 916.751 520.936
1074 0 66.046 12.2793 811 88.3391 917.566 519.58
1075 0 69.0998 12.3589 854 88.692 916.968 519.724
1076 0 70.0827 12.0144 842 90.8456 916.616 517.804
1077 0 73.0563 12.1961 891 90.7576 916.286 517.099
1078 0 74.0916 11.5398 855 93.2608 916.704 515.991
1079 0 77.0967 11.959 922 91.4631 916.835 515.139
1080 0 80.1018 11.9598 958 92.4217 917.213 514.122
1081 0 84.1673 12.1781 1025 92.9024 916.605 511.144
1082 1 44.06 10.2134 450 88.8911 917.607 532.238
1083 0 44.0492 10.511 463 89.6393 917.143 531.572
1084 0 46.0512 11.118 512 90.6953 917.535 529.793
1085 0 46.1943 11.798 545 93.4294 916.747 529.78
1086 0 48.1994 11.5977 559 93.1789 916.619 530.438
1087 0 46.1111 10.6482 491 84.4786 916.65 531.189
1088 0 48.0466 10.8436 521 84 916.495 532.353
1089 0 51.0514 10.7147 547 95.8245 916.208 530.002
1090 0 51.0483 10.5586 539 95.8145 917.263 529.822
1091 0 50.0554 10.0688 504 98 916.871 529.744
1092 0 53.0381 10.7847 572 99.3234 916.698 528.038
1093 0 54.0829 11.0571 598 97.709 916.11 528.112
1094 0 60.0425 12.5411 753 101.976 916.264 523.951
1095 0 60.0317 12.8099 769 106.71 916.32 521.332
1096 0 65.0499 12.8363 835 104.466 916.145 520.98
1097 0 64.0426 13.2568 849 104.704 916.029 520.839
1098 0 66.0552 12.6107 833 107.92 916.37 517.954
1099 0 68.0812 13.2195 900 105.776 918.036 521.959
1100 0 68.0812 13.1754 897 151.097 920.029 521.955
1101 0 73.116 13.0751 956 104.826 917.621 519.143
1102 0 74.1011 13.7245 1017 102.236 917.36 517.636
1103 0 76.0978 13.4301 1022 103.16 917.255 515.439
1104 0 80.1477 13.3628 1071 103.3 917.073 513.765
1105 0 80.1209 12.9055 1034 104.964 916.853 512.458
1106 0 83.1809 13.3685 1112 104.308 916.305 511.2
1107 0 85.2009 13.5092 1151 104.516 916.165 510.362
1108 0 89.353 13.2508 1184 105.193 915.905 504.508
1109 0 89.3725 12.7444 1139 109.163 915.819 504.492
1110 0 93.3823 13.5036 1261 103.427 915.978 501.75
1111 0 93.371 13.5374 1264 155.355 915.977 501.711
1112 0 99.1224 13.6296 1351 106.006 915.776 499.54
1113 1 55.112 11.3224 624 103.061 916.266 524.684
1114 0 55.112 11.2317 619 103.431 916.519 525.987
1115 0 56.0792 11.7156 657 101.234 914.556 526.24
1116 0 59.0936 12.3194 728 99.9629 915.581 522.506
1117 0 59.0212 12.6226 745 100.57 916.584 522.074
1118 0 61.0534 12.4973 763 100.768 916.241 521.869
1119 0 63.0462 12.2767 774 101.966 916.371 520.221
1120 0 64.0373 12.7113 814 100.963 915.882 519.241
1121 0 64.1279 12.2879 788 102.504 915.568 519.546
1122 0 68.1406 12.3715 843 101.444 916.2 518.601
1123 0 69.0447 12.2529 846 100.565 915.825 515.965
1124 0 70.1499 12.5018 877 102.64 915.54 512.103
1125 0 73.0441 12.3487 902 102.555 915.89 511.861
1126 0 75.1341 12.1516 913 102.416 916.115 509.026
1127 0 74.0555 12.2341 906 105.772 915.284 507.292
1128 0 76.115 12.1527 925 106.991 914.995 505.135
1129 0 77.09 11.7395 905 109.688 915.244 503.503
1130 0 82.1323 11.8833 976 109.452 914.793 501.808
1131 0 83.0676 11.3281 941 112.452 915.341 499.783
1132 0 88.1515 11.6277 1025 111.414 915.799 498.541
1133 0 90.2063 10.9527 988 113.087 915.667 499.037
1134 0 94.2215 11.9612 1127 110.876 915.783 493.921
1135 1 53.1347 9.86173 524 107.966 914.928 516.674
1136 0 57.2304 10.2743 588 104.388 915.483 519.287
1137 0 58.1854 10.7072 623 101.117 916.014 520.953
1138 0 62.0682 10.8268 672 102.756 916.533 520.327
1139 0 63.0774 10.828 683 102.824 916.88 520.644
1140 0 68.0564 10.9174 743 100.066 916.303 521.41
1141 0 67.0593 11.7955 791 99.4564 916.291 522.925
1142 0 69.0341 11.1394 769 102.414 916.511 520.374
1143 0 73.0796 11.1522 815 101.772 916.518 518.975
1144 0 74.0973 11.4039 845 102.67 916.806 517.936
1145 0 77.1288 11.8503 914 101.661 916.009 515.968
1146 0 79.0686 11.5849 916 102.873 916.354 516.622
1147 0 82.0964 11.8032 969 103.376 915.3 514.715
1148 0 84.0951 11.3681 956 104.976 914.815 512.223
1149 0 85.0548 11.0164 937 107.644 915.162 511.562
1150 0 89.092 11.4713 1022 94.8092 915.453 507.993
1151 0 92.0474 10.94 1007 96.7319 915.126 509.762
1152 0 95.1014 11.2091 1066 96.5122 914.558 507.052
1153 0 96.0745 11.0539 1062 98.935 914.227 504.647
1154 0 102.143 11.7482 1200 97.1225 914.988 504.72
1155 0 103.182 10.9806 1133 100.234 914.77 502.175
1156 0 105.236 10.9848 1156 101.863 914.56 499.31
1157 0 110.19 11.5528 1273 101.518 914.54 497.722
1158 0 111.231 11.7863 1311 101.892 914.124 496.076
1159 0 111.242 11.8481 1318 131.508 914.12 496.084
1160 1 62.105 9.29072 577 92.6516 914.926 526.05
1161 0 64.0158 9.91943 635 92.2173 914.836 522.902
1162 0 65.0554 10.2067 664 95.6581 914.714 522.215
1163 0 66.1265 10.6614 705 102.443 914.367 517.438
1164 0 69.0934 11.7233 810 103.249 914.322 517.899
1165 0 72.1679 12.0552 870 103.756 913.899 515.648
1166 0 74.2228 12.2738 911 104.223 914.152 513.807
1167 0 76.2305 11.6751 890 103.436 914.178 513.173
1168 0 77.2104 11.8766 917 103.162 914.108 512.674
1169 0 80.176 12.7594 1023 99.6207 914.053 510.451
1170 0 81.2244 11.5482 938 101.717 914.167 507.235
1171 0 84.2916 11.4365 964 100.812 913.93 506.952
1172 0 86.3264 10.9584 946 99.8679 914.022 505.228
1173 0 88.329 11.276 996 100.054 913.872 502.793
1174 0 91.2848 12.105 1105 98.3249 913.735 501.719
1175 0 91.2782 10.8898 994 101.262 913.084 498.772
1176 0 96.3998 11.3901 1098 99.2623 913.365 496.871
1177 0 97.3436 10.6838 1040 100.36 913.204 495.364
1178 0 101.235 11.6758 1182 98.1447 913.643 493.1
1179 0 104.289 10.8065 1127 100.343 913.072 490.494
1180 0 105.202 10.7697 1133 99.6726 913.417 489.139
1181 0 110.19 9.79218 1079 100.12 912.655 490.82
1182 0 113.103 10.9458 1238 98.021 913.254 486.614
1183 0 116.224 10.3421 1202 99.6864 912.992 486.287
1184 0 118.115 10.439 1233 99.2822 913.157 481.951
1185 0 124.116 10.74 1333 98.7877 914.112 484.468
1186 0 127.166 10.3722 1319 98.8726 914.108 479.111
1187 0 130.129 10.4358 1358 98.5508 914.373 478.169
1188 0 135.114 10.4208 1408 97.6939 913.905 474.324
1189 0 138.135 10.6779 1475 99.2292 914.397 471.853
1190 0 141.134 10.7061 1511 97.7055 913.365 471.72
1191 0 149.115 11.4341 1705 94.6293 913.541 468.938
1192 0 151.262 11.0206 1667 97.9442 914.167 465.464
1193 0 156.449 10.8278 1694 99.3707 913.55 463.829
1194 0 162.465 11.5163 1871 96.1609 913.861 467.989
1195 0 169.441 12.3524 2093 95.7544 913.346 462.227
1196 0 174.282 12.4913 2177 95.7836 914.766 460.362
1197 0 177.248 11.6786 2070 97.6295 915.034 458.844
1198 0 183.349 12.1735 2232 97.9202 915.39 456.187
1199 0 189.336 12.116 2294 99.2816 914.775 453.29
1200 0 194.384 12.357 2402 98.4467 914.432 450.037
1201 0 200.332 11.5259 2309 101.006 914.517 448.263
1202 0 208.238 12.4185 2586 97.0673 914.239 441.236
1203 0 215.353 12.2218 2632 98.2188 914.557 439.83
1204 0 222.27 12.3048 2735 97.958 914.217 432.919
1205 0 231.254 12.2203 2826 98.5428 914.725 434.994
1206 0 239.336 12.5388 3001 99.0683 914.25 426.735
1207 1 294.202 8.29363 2440 105.827 915.167 430.62
1208 1 185.271 12.2901 2277 98.1001 914.816 455.953
1209 0 189.351 11.5975 2196 100.915 915.225 455.844
1210 0 197.362 12.5759 2482 99.9589 914.956 451.371
1211 0 203.306 12.8427 2611 101.041 914.013 447.099
1212 0 212.29 13.6558 2899 99.6754 913.912 447.175
1213 0 221.382 13.1718 2916 101.434 914.279 442.925
1214 0 228.418 13.8474 3163 101.997 915.09 438.377
1215 0 235.282 13.9662 3286 103.959 914.764 434.918
1216 0 242.362 13.9131 3372 106.1 914.6 432.868
1217 0 252.344 13.9532 3521 106.513 914.506 428.596
1218 0 257.396 13.4851 3471 108.375 914.258 423.446
1219 0 266.289 13.8684 3693 108.158 914.401 420.348
1220 1 302.435 21.4062 6474 82.3706 913.865 388.769
1221 0 307.54 20.729 6375 85.1368 913.231 385.042
1222 1 225.373 11.9269 2688 112.968 914.586 441.78
1223 0 232.364 13.1432 3054 108.471 914.307 439.139
1224 0 237.516 13.1486 3123 108.994 914.207 430.537
1225 0 246.335 13.096 3226 110.069 914.523 428.152
1226 0 255.425 13.3542 3411 111.283 914.072 422.963
1227 0 263.353 13.1345 3459 111.289 914.866 419.987
1228 0 273.312 13.3474 3648 109.682 914.458 413.841
1229 1 284.422 13.8245 3932 105.934 914.412 409.382
1230 0 295.406 13.473 3980 107.629 913.915 402.518
1231 0 303.399 16.0713 4876 100.485 914.601 396.815
1232 0 312.4 15.6818 4899 102.821 913.675 389.806
1233 0 322.426 16.1805 5217 102.394 913.755 384.476
1234 0 334.362 16.0604 5370 103.477 913.428 379.39
1235 0 345.285 15.7725 5446 103.243 914.011 376.692
1236 1 280.256 13.32 3733 111.909 914.923 410.548
1237 0 289.211 13.6544 3949 112.043 914.685 406.631
1238 0 299.27 13.6465 4084 113.853 915.075 399.844
1239 0 308.357 13.5363 4174 115.283 914.51 397.088
1240 0 318.445 15.9243 5071 109.381 914.453 385.67
1241 0 326.283 15.3149 4997 110.478 914.278 379.717
1242 0 337.476 15.8885 5362 107.832 913.696 372.317
1243 0 347.433 15.8074 5492 107.953 913.485 365.303
1244 0 358.494 16.2457 5824 105.656 913.868 361.327
1245 0 370.516 16.674 6178 104.087 914.186 356.17
1246 0 378.678 15.8604 6006 109.378 914.424 347.901
1247 0 389.589 16.3814 6382 106.927 913.604 341.208
1248 0 398.723 15.6098 6224 108.995 914.334 338.59
1249 0 410.885 15.6053 6412 108.786 913.116 333.267
1250 0 416.24 15.9307 6631 108.859 914.523 324.636
1251 0 417.431 16.4027 6847 107.813 914.48 323.37
1253 0 416.917 16.1375 6728 110.522 915.198 321.43
1254 0 415.889 15.8239 6581 111.663 914.504 320.474
1255 0 415.885 15.2422 6339 113.816 915.023 318.99
1256 0 417.233 15.6579 6533 110.174 915.677 318.532
1257 0 374.43 11.1583 4178 110.889 916.309 275.38
1258 0 380.429 11.7341 4464 109.933 915.811 273.697
1259 0 377.881 11.7074 4424 109.148 915.284 277.304
1260 0 380.149 11.8375 4500 108.256 915.538 278.74
1261 0 378.637 12.2492 4638 105.669 915.058 280.518
1262 0 383.96 9.34994 3590 108.227 915.25 274.963
1263 1 236.286 4.83737 1143 88.951 915.36 410.339
1264 0 242.231 5.35438 1297 88.4225 915.433 399.747
1265 0 249.164 5.45425 1359 88.5136 914.26 400.576
1266 0 83.1733 13.514 1124 69.6477 915.194 482.395
1267 0 85.2052 13.9898 1192 68.3129 915.406 485.74
1268 0 87.1939 13.9115 1213 68.0206 915.114 485.849
1269 0 90.1665 14.7394 1329 67.0391 914.856 487.092
1270 0 91.1649 13.492 1230 69.3041 914.598 489.824
1271 0 94.1782 14.515 1367 66.3314 914.998 488.007
1272 0 96.2041 14.4173 1387 65.9106 914.83 494.018
1273 0 97.1262 13.5803 1319 67.6399 914.731 496.757
1274 0 101.199 14.0811 1425 65.6596 914.548 497.224
1275 1 57.1714 9.13044 522 67.0326 914.835 521.962
1276 0 58.1038 9.65513 561 62.8752 914.619 522.652
1277 0 61.115 11.7156 716 62.0782 915.32 519.117
1278 0 62.0456 10.9436 679 66.6848 915.582 517.941
1279 0 63.1146 11.1385 703 66.8208 915.121 517.834
1280 0 65.0731 11.003 716 67.8548 916.263 518.095
1281 0 65.1046 10.629 692 71.6951 915.764 517.532
1282 0 67.1134 11.8307 794 70.0126 915.676 515.271
1283 0 68.2048 11.2602 768 72.0339 915.652 515.536
1284 0 71.079 11.8319 841 71.5922 915.182 512.111
1285 0 74.1169 11.9406 885 72.0938 915.539 511.586
1286 0 74.0884 11.4593 849 73.6985 915.365 513.238
1287 0 77.0935 11.6612 899 73.5829 915.339 511.4
1288 0 78.0801 11.6547 910 73.4846 915.374 509.56
1289 0 78.0842 11.7309 916 75.1692 916.031 509.716
1290 0 80.1126 12.3701 991 73.667 916.22 511.071
1291 0 84.0918 12.5339 1054 72.6347 915.768 508.872
1292 0 85.1503 12.5895 1072 72.4123 915.945 508.307
1293 0 89.1174 11.7822 1050 73.8495 915.776 507.674
1294 0 90.1911 12.6287 1139 73.0105 915.743 505.347
1295 0 92.2463 12.2281 1128 73.7686 915.471 504.871
1296 0 94.2132 12.3231 1161 73.6951 915.719 503.327
1297 0 96.2019 12.3282 1186 72.984 914.847 502.662
1298 0 98.321 12.1032 1190 71.6403 914.754 501.68
1299 0 102.275 11.5473 1181 72.4666 915.063 499.976
1300 0 105.149 12.0305 1265 72.5636 915.406 499.915
1301 1 57.0565 9.69214 553 68.1519 915.897 526.329
1302 0 59.1264 10.7566 636 67.0236 916.335 524.376
1303 0 60.1213 10.7782 648 70.7145 916.255 521.039
1304 0 63.1848 10.6988 676 71.6805 915.352 519.145
1305 0 65.0697 11.8642 772 66.8536 916.1 519.108
1306 0 65.1223 11.179 728 77.0426 915.058 517.266
1307 0 67.0811 11.1358 747 76.3641 915.467 518.13
1308 0 69.2598 11.5218 798 74.4511 914.858 519.954
1309 0 73.1372 11.2665 824 74.7597 914.688 517.738
1310 0 73.1738 11.3975 834 75.452 914.583 517.795
1311 0 75.1994 11.157 839 75.801 914.715 516.396
1312 0 79.2114 11.463 908 76.1189 914.587 516.852
1313 0 78.1793 11.8062 923 76.2254 914.859 515.088
1314 0 79.1562 11.6731 924 77.8961 914.945 513.25
1315 0 82.1866 12.3621 1016 74.562 915.267 513.82
1316 0 85.2211 12.5556 1070 78.4944 915.67 512.328
1317 0 86.156 12.3613 1065 80.0319 915.551 510.608
1318 0 91.152 12.6053 1149 79.3829 915.766 509.043
1319 0 90.1559 12.7335 1148 80.4983 915.162 509.74
1320 0 97.1602 12.783 1242 80.1546 915.242 509.413
1321 0 97.1392 12.0137 1167 84.7069 915.35 506.465
1322 0 98.1905 12.2008 1198 85.0843 915.099 504.299
1323 1 194.347 12.5137 2432 87.5888 914.122 457.936
1324 0 201.282 12.9122 2599 86.7249 914.119 453.015
1325 0 206.419 12.3681 2553 87.8731 914.912 451.512
1326 1 58.0657 10.9876 638 77.5408 917.897 525.492
1327 0 61.0324 11.0433 674 75.5267 916.246 524.099
1328 0 63.1209 11.2799 712 81.2486 917.088 522.312
1329 0 64.1641 11.642 747 80.593 915.542 520.49
1330 0 66.19 11.3159 749 81.8425 915.298 519.549
1331 0 66.1543 10.9895 727 81.6437 915.447 520.957
1332 0 67.157 10.736 721 81.3731 915.033 518.997
1333 0 73.198 10.3145 755 79.7563 915.681 516.159
1334 0 73.2304 11.1566 817 78.093 915.595 515.96
1335 0 73.1826 11.2322 822 77.7384 915.914 515.354
1336 0 80.248 11.2152 900 75.7744 914.882 514.356
1337 0 78.1777 10.5145 822 77.1058 915.293 512.903
1338 0 84.2336 10.7202 903 75.8981 915.403 511.688
1339 0 86.2802 10.4775 904 76.3617 915.405 510.45
1340 0 89.3536 11.1131 993 75.4099 915.16 509.574
1341 1 171.567 11.6864 2005 82.4539 914.364 466.994
1342 1 94.2471 11.4699 1081 74.5439 915.958 508.162
1343 0 95.2289 11.4041 1086 77.6151 914.82 502.68
1344 1 49.0798 9.69849 476 73.6492 914.884 528.153
1345 0 51.1593 9.94931 509 71.7623 914.206 527.54
1346 0 50.0895 9.94221 498 70.1185 914.13 527.534
1347 0 54.0214 11.1252 601 75.6206 914.438 526.953
1348 0 54.0523 11.0449 597 77.3183 914.724 526.047
1349 0 56.0391 11.4027 639 77.2911 914.091 525.033
1350 0 57.0656 11.2677 643 79.0451 914.586 525.121
1351 0 59.0285 10.4695 618 80.4531 914.419 525.01
1352 0 61.0155 11.5872 707 78.5219 914.027 522.975
1353 0 62.0333 11.6067 720 79.4708 914.079 522.965
1354 0 63.0464 12.1815 768 79.2422 913.973 521.27
1355 0 65.0345 11.2709 733 82.0587 914.321 520.478
1356 0 68.0471 11.5067 783 81.9323 914.323 519.893
1357 0 70.0598 12.4037 869 81.0495 914.924 519.465
1358 0 73.0134 12.0526 880 82.1648 914.698 518.694
1359 0 75.0304 11.9152 894 83.0996 914.54 517.985
1360 0 77.0467 11.3308 873 84.4674 914.36 517.384
1361 0 77.0496 11.3952 878 138.604 914.342 517.224
1362 0 81.0187 11.8738 962 85.4356 914.232 513.702
1363 0 85.043 12.2879 1045 85.5904 914.196 512.833
1364 0 84.1097 11.8536 997 88.328 914.418 511.508
1365 1 44.0186 9.63229 424 83.1533 914.083 534.566
1366 0 46.0288 9.88512 455 83.7714 914.971 533.506
1367 0 47.0676 10.5168 495 81.9252 914.339 531.982
1368 0 49.1356 10.9086 536 78.222 914.834 531.838
1369 0 51.0558 12.0456 615 86.7301 913.875 530.32
1370 0 53.0925 12.0168 638 85.8072 914.851 529.693
1371 0 54.0441 12.3233 666 85.7958 914.476 529.437
1372 0 56.0968 11.2662 632 89.6962 915.174 527.791
1373 0 56.1198 11.8496 665 88.9804 915.325 527.22
1374 0 58.0713 12.2952 714 87.1246 914.908 525.321
1375 0 59.0831 12.2539 724 87.3771 914.164 526.137
1376 0 62.0431 11.9272 740 88.623 914.203 524.086
1377 0 64.1922 12.1666 781 82.9168 914.638 524.776
1378 0 65.1142 12.5472 817 84.5936 913.917 523.41
1379 0 66.1332 12.6714 838 82.2745 913.963 523.97
1380 0 66.0421 12.7797 844 87.8033 914.23 523.738
1381 0 67.0532 12.9599 869 89.7261 913.902 523.892
1382 0 68.0978 12.3939 844 91.5521 914.218 522.731
1383 0 69.0984 11.5632 799 91.5582 913.791 522.389
1384 0 70.1497 12.0314 844 90.0924 913.463 521.152
1385 0 73.2268 12.5774 921 86.6059 913.018 519.128
1386 0 76.1073 12.2721 934 85.5428 913.187 518.425
1387 0 79.2064 12.6631 1003 82.8654 913.388 516.84
1388 1 42.3488 10.4135 441 83.542 912.977 536.064
1389 0 42.1014 10.736 452 81.0642 912.967 535.434
1390 0 43.1316 10.5955 457 82.1357 913.052 534.72
1391 0 45.0353 10.9914 495 80.105 913.026 534.164
1392 0 46.0155 10.8007 497 80.4628 913.394 535.06
1393 0 47.053 11.7527 553 79.2134 914.099 533.957
1394 0 48.0775 10.9823 528 82.7045 914.042 533.1
1395 0 48.0793 10.9611 527 83.5446 913.915 532.529
1396 0 51.0565 11.7909 602 83.0066 913.948 532.226
1397 0 50.0584 10.9472 548 87.739 913.058 531.529
1398 0 51.0542 11.5172 588 87.7976 913.206 529.918
1399 0 53.0851 11.4156 606 90.9752 912.743 530.432
1400 0 53.0641 11.5144 611 91.126 914.156 527.552
1401 0 53.0641 11.6086 616 134.208 915.143 527.622
1402 0 55.0543 11.4251 629 95.3148 913.603 526.835
1403 0 58.0444 12.3526 717 94.106 913.616 526.342
1404 0 59.0204 12.3855 731 96.4309 913.981 523.631
1405 0 61.0254 11.4706 700 99.7857 914.141 522.981
1406 0 62.0148 11.3844 706 102.195 913.273 522.17
1407 0 66.0269 12.0557 796 99.7701 913.572 521.922
1408 0 67.0325 12.6058 845 99.2651 913.657 522.084
1409 0 68.0164 12.3206 838 101.73 913.743 519.166
1410 0 69.0208 11.7646 812 104.679 913.376 519.057
1411 0 74.0574 12.3148 912 101.906 913.061 517.265
1412 0 73.0406 11.1719 816 107.348 912.786 516.755
1413 1 38.0497 9.40876 358 104.679 913.933 536.011
1414 0 41.0642 9.98438 410 102.68 913.956 534.82
1415 0 43.0227 10.878 468 98.5021 914.15 534.746
1416 0 44.011 11.5426 508 99.1339 914.238 533.352
1417 0 44.0102 11.7927 519 99.3044 914.568 535.272
1418 0 45.0154 11.285 508 108.681 914.998 532.648
1419 0 48.0524 11.6539 560 108.895 914.246 530.952
1420 0 49.0976 11.4262 561 108.526 914.506 531.676
1421 0 50.0798 11.7413 588 106.81 914.301 530.85
1422 0 51.0292 11.3269 578 110.239 914.533 529.728
1423 0 52.0561 11.3339 590 108.237 914.995 529.373
1424 0 54.0836 12.7765 691 106.055 914.787 527.645
1425 0 55.0186 11.796 649 109.117 915.037 527.268
1426 0 57.0801 12.2109 697 107.056 914.585 526.186
1427 0 57.0256 11.8894 678 108.004 915.251 525.588
1428 0 60.0346 11.6433 699 108.226 915.382 523.8
1429 0 61.0356 12.0749 737 107.63 915.153 523.391
1430 0 65.1216 12.5458 817 104.835 914.931 522.327
1431 0 66.1368 12.6102 834 104.126 914.873 521.145
1432 0 67.074 12.2551 822 104.245 915.034 520.075
1433 0 71.0916 12.716 904 101.517 914.577 518.137
1434 0 71.073 12.2409 870 102.924 915.599 516.294
1435 0 74.1214 12.3041 912 103.691 915.523 515.556
1436 0 77.0901 12.6216 973 101.361 915.003 513.916
1437 0 78.1624 12.1158 947 101.242 915.064 512.856
1438 1 40.0608 9.28588 372 96.9651 915.32 535.027
1439 0 40.0277 9.86818 395 94.3671 914.646 535.61
1440 0 42.0516 10.82 455 91.8022 914.914 533.437
1441 0 44.1652 11.2306 496 89.2117 914.776 530.819
1442 0 44.2735 11.0901 491 87.1344 914.609 529.248
1443 0 44.2735 11.045 489 126.56 913.614 529.26
1444 0 49.0236 11.9126 584 94.9144 914.491 529.272
1445 0 49.0369 11.9298 585 95.0513 914.255 528.072
1446 0 50.0524 12.1872 610 94.5492 914.9 526.859
1447 0 51.0833 12.2545 626 94.1486 914.184 527.224
1448 0 54.0496 12.1 654 93.1437 914.969 524.749
1449 0 53.0444 11.7449 623 95.069 914.09 523.97
1450 0 56.112 12.9206 725 90.6966 914.29 523.756
1451 0 58.0782 12.7587 741 91.5493 914.528 522.702
1452 0 58.0711 11.4515 665 95.0782 914.275 521.392
1453 0 60.0484 12.5232 752 93.2274 914.946 520.568
1454 0 63.0306 12.2956 775 94.7548 914.654 518.947
1455 0 65.054 12.9277 841 92.717 914.81 518.269
1456 0 68.0118 12.5566 854 93.3595 914.135 517.461
1457 0 69.0296 12.2991 849 94.9812 914.392 516.916
1458 0 70.0224 12.3246 863 95.2422 914.891 516.346
1459 0 73.0893 13.2167 966 91.5932 914.814 514.685
1460 0 75.0316 12.9812 974 92.5277 914.326 514.396
1461 0 77.0509 13.0044 1002 92.2435 915.043 511.897
1462 0 80.0485 12.3425 988 92.2105 914.774 511.325
1463 0 82.0624 12.1858 1000 92.034 914.775 511.462
1464 0 85.0641 12.8491 1093 90.6944 914.537 510.053
1465 0 86.0631 12.851 1106 90.7269 914.237 508.544
1466 0 91.0735 12.726 1159 91.2985 913.763 505.685
1467 0 92.0741 12.5442 1155 92.826 913.454 505.124
1468 0 95.05 12.1725 1157 93.0026 913.386 502.494
1469 1 47.033 10.5033 494 89.17 913.858 526.573
1470 0 50.0349 9.87311 494 90.6781 914.344 528.96
1471 0 51.0071 10.7828 550 89.1182 914.573 526.544
1472 0 51.0291 10.7194 547 89.574 914.161 525.876
1473 0 54.051 10.8046 584 86.512 914.729 526.589
1474 0 56.0413 10.7599 603 88.6318 914.169 524.779
1475 0 59.0611 11.2087 662 87.6934 914.459 523.142
1476 0 60.0982 11.814 710 91.6324 914.175 519.6
1477 0 60.0477 12.3402 741 96.9393 914.538 519.82
1478 0 63.0198 12.5992 794 96.9471 913.642 518.856
1479 0 62.0273 11.769 730 92.0658 914.108 520.163
1480 0 68.1233 13.2847 905 94.7746 913.826 516.187
1481 0 70.0592 12.7464 893 95.6092 914.53 516.757
1482 0 73.0467 13.4708 984 93.5884 914.017 515.263
1483 0 73.079 12.9175 944 96.8284 914.316 513.031
1484 0 75.0751 12.9071 969 96.388 914.018 512.554
1485 0 77.1293 13.3153 1027 95.9328 914.516 511.627
1486 0 79.0454 12.8913 1019 96.7792 914.015 510.175
1487 0 79.0424 12.5629 993 91.0473 914.441 511.366
1488 0 84.0388 13.6722 1149 96.1688 914.204 509.123
1489 0 85.0435 12.9228 1099 98.9308 914.211 508.546
1490 0 87.0552 12.8654 1120 99.883 913.817 506.924
1491 0 89.1984 11.9509 1066 96.6951 914.318 507.403
1492 0 94.0672 13.4585 1266 98.6627 914.753 504.55
1493 0 94.0963 12.9761 1221 102.77 914.592 502.155
1494 0 97.1491 13.4638 1308 102.154 914.84 500.391
1495 0 100.093 13.7872 1380 98.6993 914.289 502.507
1496 0 102.136 12.8652 1314 103.561 914.193 498.354
1497 0 105.104 13.1584 1383 101.287 914.486 498.316
1498 0 107.132 12.0133 1287 96.1352 914.545 496.594
1499 0 111.128 12.8501 1428 102.341 914.158 491.793
1500 0 115.041 13.3952 1541 99.8248 913.874 489.619
1501 1 50.0345 9.79324 490 89.3612 914.288 525.329
1502 0 52.0182 10.035 522 87.1092 914.653 523.582
1503 0 53.0441 10.6515 565 86.3434 914.161 522.251
1504 0 54.0177 11.1075 600 86.6867 913.878 522.227
1505 0 57.0559 11.3923 650 87.3077 913.683 521.469
1506 0 59.0672 11.7832 696 95.0359 913.922 519.703
1507 0 60.0943 12.1476 730 95.2863 913.833 517.866
1508 0 64.0868 12.0149 770 94.2117 914.001 517.716
1509 0 64.0776 11.5641 741 95.2726 914.414 516.215
1510 0 66.099 11.9518 790 95.2089 914.48 514.949
1511 0 68.1172 11.9647 815 94.5706 914.676 513.729
1512 0 70.0798 11.758 824 97.8119 914.623 512.881
1513 0 70.0479 12.1774 853 98.6038 914.213 511.421
1514 0 74.118 12.1833 903 97.6811 914.231 510.46
1515 0 77.0328 11.8002 909 97.9153 914.232 510.609
1516 0 77.0515 12.2386 943 98.0604 914.997 508.25
1517 0 79.1087 12.1605 962 98.2256 914.364 507.527
1518 0 81.1249 12.0801 980 101.656 914.4 505.721
1519 0 86.257 12.0802 1042 98.1564 914.123 507.23
1520 0 87.2452 12.803 1117 97.5748 914.3 505.647
1521 0 91.2336 12.6488 1154 96.2132 914.825 504.543
1522 1 45.1649 10.362 468 94.2073 915.177 527.169
1523 0 45.2333 10.7001 484 91.4628 914.188 525.172
1524 0 46.1671 11.415 527 86.9336 914.389 525.822
1525 0 49.1132 10.9339 537 95.432 915.408 525.408
1526 0 49.1084 12.2993 604 92.7798 914.967 525.435
1527 0 50.0759 12.0217 602 92.9535 915.492 526.425
1528 0 53.0672 12.1356 644 93.3354 914.919 525.475
1529 0 53.0337 12.0301 638 94.4342 914.823 525.154
1530 0 54.0621 11.5793 626 95.5847 915.088 524.84
1531 0 57.0652 12.2667 700 94.7343 915.006 524.193
1532 0 57.0384 12.6231 720 95.5736 915.217 523.593
1533 0 58.0263 12.8218 744 94.4476 915.641 523.181
1534 0 61.0388 12.2873 750 95.608 915.155 520.641
1535 0 62.039 12.7178 789 95.6603 915.696 521.279
1536 0 65.0562 12.9119 840 95.7095 914.682 519.427
1537 0 64.0345 12.8368 822 99.0985 915.047 517.448
1538 0 67.0561 13.2576 889 97.9066 914.471 516.154
1539 0 69.0366 11.675 806 94.2283 914.545 516.856
1540 0 71.0218 12.827 911 97.7563 915.312 514.332
1541 0 75.0624 12.8426 964 97.7386 914.867 513.215
1542 0 76.02 11.6022 882 102.137 915.156 512.032
1543 0 80.0412 12.8559 1029 96.9981 914.874 510.834
1544 0 83.0398 12.765 1060 98.2849 914.838 508.783
1545 0 86.1026 12.4386 1071 99.3249 914.908 506.906
1546 1 44.0257 10.9027 480 96.0333 914.829 528.288
1547 0 45.0697 10.9164 492 98.0285 914.596 526.988
1548 0 46.0853 10.6108 489 96.5992 915.123 526.873
1549 0 46.0295 10.993 506 90.917 914.751 529.316
1550 0 50.0087 11.478 574 99.1568 915.071 527.631
1551 0 52.0409 11.4717 597 100.915 914.757 526.245
1552 0 53.0254 12.6166 669 98.1584 914.661 525.139
1553 0 54.0541 12.4505 673 98.8886 915.637 524.612
1554 0 57.0212 12.0482 687 98.9272 914.007 523.233
1555 0 59.0822 12.4064 733 97.4652 914.288 523.336
1556 0 60.0644 12.5532 754 97.313 914.566 523.176
1557 0 61.0488 12.8422 784 96.2003 913.927 522.704
1558 0 61.0192 12.7992 781 97.6658 914.351 521.307
1559 0 62.0152 13.2871 824 96.5 914.142 520.496
1560 0 62.0213 13.5276 839 96.8963 914.706 520.387
1561 0 66.0556 13.3978 885 95.3921 914.463 519.773
1562 0 67.0482 13.0354 874 98.9577 914.839 518.808
1563 0 69.0594 13.4956 932 97.1556 914.836 517.294
1564 0 72.0728 13.1395 947 97.6452 914.207 517.806
1565 0 74.1261 12.6946 941 98.2519 914.393 514.397
1566 0 76.0579 13.1742 1002 97.9132 914.149 514.483
1567 0 78.0718 13.1674 1028 97.6848 914.448 513.597
1568 0 81.0245 13.2923 1077 96.7177 914.511 512.348
1569 0 84.0866 13.0223 1095 96.7671 915.581 511.116
1570 0 88.0814 13.1696 1160 95.3784 914.19 508.43
1571 0 89.0912 13.4918 1202 94.7047 913.629 507.843
1572 0 92.0935 12.8782 1186 95.812 914.168 507.882
1573 1 47.0341 10.9708 516 94.7229 914.704 529.085
1574 0 51.1611 11.5908 593 91.5498 915.228 527.012
1575 0 52.1262 12.182 635 88.2346 915.102 528.135
1576 0 53.0791 12.698 674 88.9926 915.196 525.552
1577 0 55.0728 12.0023 661 92.8669 914.296 523.578
1578 0 58.135 12.7634 742 91.7871 914.697 523.728
1579 0 58.0374 12.0267 698 94.7063 914.577 520.476
1580 0 58.034 12.6305 733 94.1978 913.686 519.832
1581 0 61.0235 12.4706 761 94.5624 914.004 518.442
1582 0 64.1382 12.2236 784 94.588 914.232 518.722
1583 0 65.1358 12.7273 829 92.5223 914.566 518.444
1584 0 65.1228 12.6837 826 145.403 915.557 518.297
1585 0 69.0958 12.8083 885 93.1017 914.118 518.323
1586 0 67.053 12.1546 815 89.0442 914.571 518.995
1587 0 71.0839 12.2672 872 91.2947 914.767 517.197
1588 0 71.0523 12.0334 855 89.3825 915.152 517.289
1589 0 76.0829 12.9595 986 94.6075 914.103 515.205
1590 0 76.082 12.9728 987 146.41 913.111 515.226
1591 0 81.0596 13.1261 1064 96.5066 913.943 513.639
1592 0 81.2228 13.4445 1092 99.7445 914.483 510.114
1593 0 86.1554 13.4292 1157 99.3258 913.726 508.936
1594 0 87.0764 13.3102 1159 99.6074 914.519 507.032
1595 0 89.204 13.3178 1188 98.8502 913.848 505.884
1596 0 92.1619 13.1833 1215 96.507 913.994 504.454
1597 0 96.1746 12.7476 1226 95.8866 913.642 503.711
1598 0 99.1815 12.6334 1253 94.8252 913.944 498.666
1599 0 100.141 12.5722 1259 95.5488 913.84 496.777
1600 0 107.238 12.9992 1394 94.1327 913.393 495.13
1601 1 52.1608 11.0044 574 89.3571 914.53 523.148
1602 0 54.1449 11.4692 621 88.4219 914.245 521.554
1603 0 56.1934 11.3181 636 91.8758 914.72 519.89
1604 0 59.2298 13.0171 771 98.9741 914.065 520.624
1605 0 60.1396 12.5708 756 100.578 914.721 519.578
1606 0 61.3235 12.6542 776 99.3067 914.366 518.744
1607 0 64.1391 12.7691 819 93.4151 914.565 518.617
1608 0 66.2125 13.0942 867 96.1845 914.814 517.324
1609 0 67.2164 12.244 823 98.5115 914.026 514.458
1610 0 70.3999 13.0824 921 94.9435 913.818 514.693
1611 0 73.2457 12.8608 942 94.9034 914.126 511.992
1612 0 76.2169 13.0024 991 96.115 913.841 512.739
1613 0 79.1904 12.4889 989 92.3408 914.609 511.469
1614 0 80.271 12.3706 993 90.3404 914.71 509.253
1615 1 41.0592 10.9111 448 85.5045 914.23 527.15
1616 0 42.168 10.9562 462 85.4242 913.5 527.836
1617 0 42.0494 10.9157 459 85.1068 914.837 528.553
1618 0 44.0244 11.3346 499 82.998 913.641 527.561
1619 0 46.0476 12.031 554 86.4513 913.191 526.233
1620 0 48.2758 12.2215 590 91.6695 913.456 525.261
1621 0 49.0946 12.1806 598 91.5518 912.828 525.15
1622 0 50.0513 11.7679 589 91.4822 913.233 524.621
1623 0 51.0858 11.9407 610 91.4607 913.421 525.316
1624 0 51.1178 11.4637 586 93.0256 913.589 523.026
1625 0 55.076 12.0742 665 89.5248 914.311 521.271
1626 0 58.1292 12.3518 718 88.3106 914.109 522.006
1627 0 60.0886 11.9324 717 88.417 914.233 522.038
1628 0 61.1534 12.0844 739 83.3748 912.904 520.307
1629 0 63.3649 12.4201 787 93.2643 913.635 516.858
1630 0 66.1712 12.513 828 89.4674 913.748 518.444
1631 0 69.1374 12.3811 856 89.3329 914.072 517.099
1632 0 72.291 13.169 952 91.9422 913.512 515.359
1633 0 74.2849 12.9905 965 93.5461 913.663 512.715
1634 0 77.2449 13.2047 1020 91.7206 913.214 513.042
1635 0 77.1781 12.7757 986 92.5375 914.122 511.067
1636 0 82.1859 13.3356 1096 92.9234 913.572 509.712
1637 0 83.3095 13.1798 1098 95.071 913.057 509.918
1638 0 85.2562 13.2542 1130 95.4681 913.386 508.463
1639 0 88.2686 12.5186 1105 95.8154 912.829 507.045
1640 0 91.0602 12.8706 1172 93.5256 912.904 504.759
1641 0 94.1303 12.3658 1164 93.4897 912.811 503.534
1642 0 97.2159 13.1563 1279 92.5215 913.54 502.149
1643 1 48.191 10.7904 520 89.8346 913.365 527.029
1644 0 52.191 11.3813 594 93.1936 913.955 524.471
1645 0 53.0486 11.2538 597 87.9179 913.194 524.502
1646 0 55.1036 12.6126 695 89.3971 913.898 523.416
1647 0 57.0744 12.3348 704 95.0824 913.8 522.271
1648 0 59.056 12.903 762 93.7297 913.6 522.534
1649 0 58.0365 12.9229 750 95.7533 913.664 520.956
1650 0 61.1064 12.3064 752 97.0652 913.396 519.802
1651 0 62.0714 12.985 806 96.036 913.89 519.942
1652 0 64.0369 12.4928 800 95.8162 913.899 517.731
1653 0 66.0802 12.5302 828 95.8623 913.976 518.83
1654 0 69.0492 12.8025 884 94.4932 913.684 518.367
1655 0 71.1196 12.936 920 94.6565 914.365 516.014
1656 0 72.158 12.7082 917 95.4166 913.956 515.809
1657 0 75.1629 12.586 946 94.3266 914.535 514.563
1658 0 75.0182 12.0904 907 95.968 913.238 513.423
1659 0 77.0653 12.5089 964 95.1172 914.23 512.3
1660 0 79.0494 12.7009 1004 92.997 914.442 510.57
1661 0 81.0631 12.8295 1040 91.5875 914.265 510.066
1662 0 86.1336 12.202 1051 92.8192 914.168 509.024
1663 0 88.0494 12.2431 1078 91.3822 913.705 506.126
1664 0 88.054 12.2993 1083 133.798 913.704 506.106
1665 0 92.0605 12.2745 1130 91.077 914.527 502.234
1666 0 97.052 13.3434 1295 88.8255 914.577 502.254
1667 0 98.0852 12.7338 1249 90.8623 914.034 499.479
1668 0 100.089 12.7787 1279 82.3988 914.045 498.24
1669 0 103.081 12.5144 1290 93.214 913.1 495.567
1670 1 55.0561 11.2431 619 88.8514 914.467 523.439
1671 0 57.0946 11.7874 673 88.2125 913.202 517.58
1672 0 58.1346 12.1786 708 88.2048 913.586 520.6
1673 0 57.025 11.3985 650 83.1892 912.251 522.675
1674 0 60.0671 11.4039 685 83.0569 913.164 521.651
1675 0 62.0279 11.8656 736 81.5938 913.401 520.643
1676 0 65.0374 12.3314 802 80.1359 913.155 518.766
1677 0 67.0349 12.1131 812 80.1502 913.502 518.732
1678 0 71.0088 12.7026 902 85.6452 913.649 515.601
1679 0 72.0574 12.5317 903 86.5349 913.967 515.64
1680 0 73.0267 12.2284 893 86.4479 913.053 513.404
1681 0 76.0939 12.6817 965 85.8269 913.61 513.38
1682 0 80.1457 12.6894 1017 84.7512 913.074 510.789
1683 0 80.1063 12.7955 1025 85.6273 913.375 509.772
1684 0 80.0987 12.8217 1027 133.972 913.362 509.787
1685 0 87.051 12.5903 1096 83.4662 913.751 506.008
1686 0 89.0612 12.5307 1116 82.0941 912.943 506.524
1687 0 92.0744 11.7188 1079 81.9073 913.527 504.277
1688 0 95.0573 11.6772 1110 81.8982 913.959 502.794
1689 1 49.0922 11.6312 571 73.6182 914.14 526.613
1690 0 49.0926 10.4089 511 73.5049 914.759 527.072
1691 0 51.0674 11.5338 589 70.6044 914.976 524.932
1692 0 54.0616 11.9863 648 77.2685 914.713 522.923
1693 0 56.0276 12.4225 696 76.0589 914.744 520.43
1694 0 56.0278 11.8334 663 77.9276 914.436 518.078
1695 0 59.0309 11.8582 700 77.3571 913.803 518.229
1696 0 60.0382 11.6259 698 77.5917 914.099 516.872
1697 0 64.0423 11.8515 759 76.747 913.565 516.494
1698 0 64.0539 11.5528 740 77.8622 914.42 514.135
1699 0 66.058 12.5193 827 76.3059 913.88 514.375
1700 0 69.031 12.9072 891 74.7093 914.16 513.15
1701 0 67.0306 10.8756 729 75.7613 913.388 513.283
1702 0 72.018 11.7887 849 77.9505 913.907 510.223
1703 0 75.0395 12.6067 946 76.444 913.848 510.162
1704 0 76.044 12.3087 936 77.4263 914.166 508.998
1705 0 78.1084 12.3034 961 77.3507 913.732 508.251
1706 0 82.0678 12.5019 1026 77.0916 914.415 508.346
1707 0 84.045 12.3862 1041 77.3842 914.159 507.807
1708 0 84.0506 12.0047 1009 79.6075 914.51 506.237
1709 0 87.077 12.265 1068 79.824 913.933 505.52
1710 0 90.1058 12.6185 1137 79.5303 913.425 502.865
1711 0 91.0906 11.7356 1069 82.4743 914.436 502.672
1712 0 96.1185 12.2869 1181 80.6571 913.732 500.32
1713 0 99.123 12.3887 1228 81.7956 914.452 498.325
1714 0 103.156 12.5635 1296 82.331 914.235 496.594
1715 0 105.122 12.6045 1325 83.846 914.8 495.036
1716 1 52.0971 10.1157 527 84.8046 914.175 522.211
1717 0 55.1594 10.932 603 84.2819 915.196 521.746
1718 0 57.201 11.5732 662 83.8852 915.488 521.517
1719 0 58.1005 12.0997 703 84.8805 915.569 519.64
1720 0 62.0155 11.8519 735 84.9918 914.725 518.663
1721 0 63.0308 11.8355 746 86.7306 916.189 518.004
1722 0 64.0379 12.1959 781 86.9052 914.986 516.115
1723 0 67.0268 12.1742 816 86.1164 915.552 515.13
1724 0 68.032 12.0678 821 87.3642 915.513 513.923
1725 0 71.0355 12.2192 868 90.5853 915.569 512.415
1726 0 72.0493 11.8669 855 92.9509 915.347 510.349
1727 0 77.0451 12.1617 937 92.1697 914.541 510.336
1728 0 76.0131 12.5505 954 92.1593 914.283 508.565
1729 0 82.0445 13.188 1082 92.8771 914.944 509.336
1730 0 83.0603 13.0989 1088 94.6884 914.411 507.017
1731 0 86.0711 13.2565 1141 94.1034 914.867 507.811
1732 0 89.0677 13.2596 1181 94.6359 914.283 505.135
1733 0 92.0868 12.7923 1178 94.77 914.042 503.86
1734 0 95.1472 13.1165 1248 94.1082 914.202 501.008
1735 1 47.1444 10.5421 497 95.0141 914.491 524.026
1736 0 49.0905 11.5297 566 93.1643 914.019 523.783
1737 0 51.0824 11.9611 611 92.8347 913.83 523.419
1738 0 52.0972 11.9968 625 92.3344 913.816 523.61
1739 0 56.2335 12.3058 692 89.8049 913.705 524.659
1740 0 56.2335 12.3592 695 152.682 913.695 524.623
1741 0 59.0983 13.0461 771 90.8898 914.848 520.153
1742 0 60.1392 12.7537 767 91.3585 914.164 520.613
1743 0 63.1488 13.1594 831 89.7605 915.001 519.087
1744 0 65.1808 13.1481 857 90.1377 915.178 518.585
1745 0 66.1538 12.9395 856 91.7582 914.368 517.117
1746 0 68.172 13.1286 895 92.3654 914.083 515.91
1747 0 70.1867 13.6208 956 91.6266 913.184 516.412
1748 0 72.236 13.4697 973 92.9044 913.628 515.053
1749 0 72.1751 13.204 953 92.5992 913.683 513.281
1750 0 77.0475 12.4988 963 90.3655 913.764 513.22
1751 0 76.0454 12.9396 984 145.174 913.763 512.816
1752 0 81.0947 12.9478 1050 90.8848 914.12 511.009
1753 0 82.0704 12.867 1056 91.4261 914.246 510.226
1754 0 84.1799 12.9009 1086 92.4797 914.014 508.913
1755 0 88.0747 12.8754 1134 92.3827 913.321 506.943
1756 0 90.0716 12.8342 1156 92.8279 913.537 506.31
1757 0 93.1256 12.8321 1195 92.8477 913.233 504.277
1758 0 97.1904 13.1289 1276 91.8041 913.245 502.71
1759 0 97.1694 13.2964 1292 91.4683 912.998 501.17
1760 0 99.3048 12.5573 1247 94.0746 913.531 497.925
1761 0 103.15 13.1168 1353 92.0673 913.459 497.455
1762 0 103.097 11.9693 1234 94.8339 913.708 494.03
1763 0 108.203 12.5598 1359 93.1332 913.228 491.714
1764 0 112.273 13.0129 1461 91.7064 913.31 491.805
1765 0 114.358 11.5515 1321 95.2619 912.95 487.5
1766 0 118.249 11.9071 1408 94.1364 913.658 484.802
1767 0 124.416 13.1092 1631 90.7554 913.597 481.644
1768 0 129.326 12.5033 1617 92.2387 913.425 481.436
1769 1 69.1764 10.2925 712 82.823 914.288 513.84
1770 0 70.2314 10.8499 762 84.4974 913.644 512.959
1771 0 73.168 11.4804 840 85.3976 913.45 513.12
1772 0 74.0689 11.3948 844 88.4728 913.243 513.299
1773 0 78.1311 11.1223 869 89.4937 913.869 510.498
1774 0 79.1297 11.5506 914 90.9322 913.603 509.84
1775 0 80.1579 11.1779 896 93.6953 913.673 505.347
1776 0 84.0767 11.1922 941 90.6865 913.506 507.931
1777 0 86.2303 11.2258 968 92.1054 913.899 503.16
1778 0 87.2333 11.3718 992 92.4879 914.323 502.843
1779 0 91.2182 11.3793 1038 91.5838 914.605 502.143
1780 0 93.2604 10.5618 985 91.865 914.196 499.35
1781 0 96.2095 11.7244 1128 88.6179 914.735 496.187
1782 0 100.435 11.51 1156 88.263 913.875 495.652
1783 0 102.305 11.5244 1179 88.6107 914.687 493.752
1784 0 105.291 11.264 1186 88.9444 914.279 492.546
1785 0 109.298 11.5921 1267 87.7285 913.962 490.195
1786 1 57.25 10.4279 597 81.4606 914.28 518.663
1787 0 57.2212 9.36716 536 82.6567 914.246 518.92
1788 0 58.1285 10.5284 612 81.2614 914.583 517.49
1789 0 61.0724 10.5285 643 87.2597 914.804 519.344
1790 0 60.0769 10.4366 627 82.008 914.241 511.946
1791 0 65.1392 11.7594 766 88.9922 914.826 516.106
1792 0 66.213 12.1879 807 88.0161 914.384 516.777
1793 0 67.2008 11.86 797 90.01 915.21 514.942
1794 0 67.144 11.1253 747 88.3387 915.42 515.751
1795 0 71.2525 12.575 896 87.8348 914.567 511.766
1796 0 73.1933 11.7907 863 91.8262 913.251 510.523
1797 0 76.1207 12.0861 920 89.3185 914.012 509.623
1798 0 79.2689 12.3756 981 89.7829 913.328 508.426
1799 0 80.2091 11.7318 941 86.882 912.888 509.455
1800 0 82.1446 11.6867 960 85.7729 913.012 507.083
1801 0 86.1525 11.4332 985 84.2457 913.11 505.565
1802 0 88.2266 11.4365 1009 83.6264 913.41 505.882
1803 0 91.1055 10.9434 997 82.8937 913.022 507.159
1804 0 92.2168 11.4621 1057 83.3084 913.227 502.825
1805 0 97.2042 11.9851 1165 81.6309 912.497 500.03
1806 0 98.336 11.3895 1120 82.9062 912.321 497.413
1807 0 100.302 11.3757 1141 83.3576 912.52 498.34
1808 0 105.283 11.3884 1199 83.3061 913.177 494.98
1809 0 108.248 11.4829 1243 81.6034 912.612 494.068
1810 0 112.206 12.3256 1383 82.3008 913.009 490.321
1811 0 115.194 11.9537 1377 84.2505 912.332 487.268
1812 0 116.211 11.7373 1364 84.599 913.359 488.582
1813 0 120.299 11.4963 1383 85.3066 912.845 486.322
1814 0 121.235 11.053 1340 88.4955 913.156 480.972
1815 0 128.207 11.38 1459 88.3167 912.644 479.108
1816 0 130.127 10.4821 1364 89.0755 912.788 479.742
1817 0 134.125 10.4455 1401 90.6924 913.195 474.115
1818 0 142.187 12.0405 1712 88.3131 912.732 473.232
1819 1 68.1132 10.0862 687 77.5022 913.019 516.306
1820 0 69.1764 11.0298 763 77.4233 912.486 514.74
1821 0 71.1722 11.5916 825 79.4158 913.307 512.213
1822 0 75.2568 12.0654 908 80.62 913.247 511.758
1823 0 76.1856 13.0077 991 89.8012 913.793 510.511
1824 0 77.1961 12.4877 964 92.4886 913.696 510.722
1825 0 82.1149 12.5556 1031 91.7847 913.798 510.222
1826 0 83.1554 12.1219 1008 93.871 914.471 508.928
1827 0 85.2656 12.2206 1042 93.8119 913.715 507.471
1828 0 87.1404 12.2217 1065 93.1925 913.88 505.624
1829 0 91.0881 12.4056 1130 88.8876 912.863 505.795
1830 0 94.2885 12.4936 1178 94.0314 913.84 502.682
1831 0 97.1544 12.3309 1198 89.1352 913.135 503.414
1832 0 102.243 12.4214 1270 88.3118 913.469 499.42
1833 0 104.28 12.9171 1347 87.1262 913.287 498.453
1834 0 108.202 12.1347 1313 90.0366 913.583 496.207
1835 1 62.0683 11.4712 712 94.1081 913.919 519.442
1836 0 62.0364 10.1715 631 92.7179 914.875 514.119
1837 0 69.1022 12.2283 845 96.6462 914.959 516.226
1838 0 71.0918 12.2799 873 97.0596 914.605 516.002
1839 0 72.021 12.2881 885 98.7503 914.333 512.859
1840 0 73.0505 11.6358 850 101.168 915.124 513.894
1841 0 76.0553 11.5837 881 100.599 913.369 510.924
1842 0 80.093 11.7738 943 94.2428 914.591 511.864
1843 0 79.0601 13.2684 1049 95.081 913.899 510.047
1844 0 86.1218 12.3082 1060 94.266 913.523 508.079
1845 0 88.1122 12.5522 1106 98.6826 912.951 504.776
1846 0 90.1168 12.5837 1134 96.4577 914.117 505.021
1847 0 92.1881 13.2338 1220 91.141 914.18 504.43
1848 0 95.1371 12.6344 1202 93.7504 914.096 503.804
1849 0 98.1692 12.8248 1259 93.8594 913.862 501.058
1850 0 100.19 12.2268 1225 98.3241 914.165 497.482
1851 0 105.222 12.6209 1328 97.872 913.626 492.597
1852 1 56.183 11.071 622 90.6302 914.696 518.068
1853 0 59.1696 12.2867 727 90.7125 914.465 517.713
1854 0 60.048 12.2236 734 96.9591 914.418 518.435
1855 0 64.0646 12.8152 821 97.1096 913.705 519.336
1856 0 65.0691 12.0948 787 92.2427 913.798 519.203
1857 0 67.1028 12.0859 811 93.4883 913.454 518.311
1858 0 67.0995 12.0269 807 90.7001 913.301 517.532
1859 0 68.1859 11.718 799 92.7171 913.693 516.275
1860 0 74.1454 13.0284 966 101.899 913.51 511.132
1861 0 76.0877 13.6553 1039 96.3811 914.383 512.65
1862 0 77.0476 12.979 1000 95.406 913.785 512.413
1863 0 79.0537 13.2821 1050 100.488 914.426 508.605
1864 0 80.1034 12.7585 1022 101.821 913.924 508.586
1865 0 86.1287 14.0023 1206 97.1973 913.593 506.303
1866 0 89.1505 13.1687 1174 99.7445 914.003 506.555
1867 0 89.1505 13.1127 1169 157.477 915.013 506.407
1868 0 94.1502 13.8714 1306 99.5077 914.109 501.937
1869 0 94.1533 13.8497 1304 156.212 913.106 501.897
1870 1 54.0959 11.4057 617 96.4716 914.282 521.373
1871 0 55.1781 11.182 617 95.7391 914.801 520.276
1872 0 58.1521 12.1578 707 91.1188 914.751 518.972
1873 0 60.1898 12.5935 758 94.2124 914.165 519.041
1874 0 62.1282 12.4581 774 99.1589 913.021 519.264
1875 0 64.1225 12.7412 817 98.2619 913.573 517.149
1876 0 65.1181 13.0839 852 98.0939 913.589 516.636
1877 0 67.158 13.1779 885 98.2237 913.227 514.425
1878 0 70.0886 13.1976 925 98.0735 913.655 514.854
1879 0 69.0442 13.0786 903 100.443 913.324 512.945
1880 0 73.0885 12.8338 938 97.6908 913.705 511.896
1881 0 75.0757 12.8937 968 97.8244 913.715 509.908
1882 0 77.0735 12.6762 977 100.414 914.199 508.987
1883 0 79.0686 12.5714 994 101.096 913.502 507.45
1884 0 84.1492 12.8225 1079 97.6367 914.297 507.092
1885 0 87.0767 12.8622 1120 97.6705 914.236 504.918
1886 0 89.0586 12.8118 1141 97.4803 913.96 504.255
1887 1 48.0415 11.4068 548 95.188 913.613 523.248
1888 0 50.0419 11.97 599 91.9416 914.26 523.558
1889 0 51.0639 12.6704 647 90.5951 913.968 523.38
1890 0 53.0868 12.1876 647 94.592 913.461 520.852
1891 0 54.0382 12.7317 688 93.3096 913.709 521.267
1892 0 56.0173 12.5675 704 95.0895 913.999 520.821
1893 0 58.0327 12.5274 727 95.5956 913.966 519.769
1894 0 57.048 12.6735 723 96.6445 914.703 519.317
1895 0 61.0365 12.7301 777 94.982 914.14 519.548
1896 0 61.0526 12.3828 756 90.754 914.676 519.193
1897 0 63.0252 12.8996 813 96.1722 914.589 517.472
1898 0 64.0898 13.1222 841 96.5922 914.743 515.403
1899 0 68.0378 13.2573 902 95.4523 914.15 515.187
1900 0 68.0361 13.2283 900 96.4256 914.036 513.59
1901 0 73.1289 13.5241 989 94.3003 914.059 512.821
1902 0 74.1038 12.8603 953 97.2246 914.611 511.687
1903 0 77.124 12.9921 1002 97.3044 914.514 509.962
1904 0 77.2002 13.1347 1014 98.3678 913.118 509.795
1905 0 80.2097 13.1406 1054 97.9108 913.525 508.719
1906 0 84.168 13.2235 1113 97.2965 913.346 507.046
1907 0 86.1622 12.2908 1059 99.6761 913.37 505.224
1908 1 47.1068 11.0175 519 95.7803 913.757 524.247
1909 0 49.0624 10.8841 534 95.5487 912.577 524.867
1910 0 49.0511 11.6409 571 93.1366 913.408 523.217
1911 0 53.047 12.3287 654 91.607 912.232 524.694
1912 0 50.0649 11.0057 551 90.539 912.183 525.468
1913 0 52.1024 11.6501 607 90.626 912.137 524.081
1914 0 53.0796 11.8878 631 92.5087 911.822 525.108
1915 0 53.0382 11.8028 626 91.0367 911.907 522.305
1916 0 58.1742 12.497 727 88.2682 912.362 522.636
1917 0 59.0579 11.6834 690 89.1971 911.951 521.075
1918 0 62.0539 12.2958 763 95.0786 912.048 517.265
1919 0 64.1417 12.1918 782 89.4258 912.412 519.04
1920 0 64.0712 11.7994 756 91.4127 911.865 517.464
1921 0 69.1075 12.5891 870 94.1977 912.675 514.401
1922 0 72.1317 12.9347 933 93.7138 911.987 513.807
1923 0 72.0659 12.1694 877 94.2429 912.41 513.025
1924 0 74.172 12.1879 904 96.6305 912.153 512.156
1925 0 79.2132 13.7856 1092 92.206 912.583 508.668
1926 0 81.2165 13.1131 1065 94.4338 912.345 507.346
1927 0 84.2712 12.9463 1091 92.8937 911.981 508.825
1928 0 86.1054 12.8796 1109 91.816 912.602 508.564
1929 0 90.0696 12.8678 1159 90.9896 911.823 508.283
1930 1 50.0291 11.4134 571 86.317 913.2 528.359
1931 0 50.0737 11.0637 554 85.3051 913.254 528.682
1932 0 51.1464 11.6137 594 82.2559 913.485 527.428
1933 0 53.0489 12.8372 681 80.5492 913.05 525.225
1934 0 53.1262 11.7644 625 87.8704 912.877 526.36
1935 0 53.1096 11.7493 624 131.886 912.851 526.234
1936 0 57.0862 12.1921 696 86.0345 912.672 523.259
1937 0 57.1039 11.8731 678 87.5855 912.072 523.732
1938 0 59.0953 12.1329 717 88.0753 911.948 523.052
1939 0 61.0702 12.1336 741 95.0675 911.927 521.13
1940 0 64.0715 12.2207 783 95.4049 911.588 520.461
1941 0 67.0426 13.0663 876 93.8059 912.532 520.474
1942 0 69.0293 13.2263 913 94.9091 912.219 518.202
1943 0 68.0644 12.8114 872 98.3337 912.8 517.893
1944 0 73.1186 13.1157 959 96.4432 912.511 517.578
1945 0 76.0543 13.8322 1052 96.1825 912.508 515.704
1946 0 78.089 13.3437 1042 98.4866 912.362 514.872
1947 0 79.091 13.5161 1069 99.3779 912.396 512.825
1948 0 81.0597 13.6443 1106 100.509 911.471 512.495
1949 0 85.1327 13.0032 1107 100.968 912.496 509.927
1950 0 87.1451 13.4833 1175 99.2723 912.144 507.158
1951 0 90.1324 13.3027 1199 98.5571 912.642 507.168
1952 0 93.1646 13.5459 1262 97.9596 911.803 505.986
1953 0 96.1244 13.5658 1304 97.7531 913.071 504.418
1954 1 48.0474 11.6135 558 93.3835 912.633 528.108
1955 0 50.0313 11.6727 584 89.9024 914.087 527.853
1956 0 53.0251 11.5794 614 90.7378 913.938 527.397
1957 0 54.0569 11.5619 625 86.5424 913.818 525.027
1958 0 55.1133 12.2112 673 85.9302 912.978 524.495
1959 0 56.1062 11.7991 662 86.1571 913.9 524.835
1960 0 56.1061 11.6565 654 86.182 913.665 524.87
1961 0 61.0484 11.4663 700 84.7757 914.05 523.809
1962 0 60.0965 11.4815 690 85.187 913.375 522.977
1963 0 65.0685 11.7568 765 84.3072 913.382 521.169
1964 0 66.1008 11.4825 759 84.8603 913.116 520.652
1965 0 67.099 10.3131 692 86.4595 912.76 519.702
1966 0 71.0571 12.0889 859 82.7963 912.96 517.633
1967 0 72.1111 11.302 815 84.8282 913.206 516.399
1968 0 74.0843 10.9875 814 86.3084 912.655 515.314
1969 0 77.1399 11.5375 890 85.0831 912.135 514.855
1970 0 80.0977 11.6982 937 84.9168 912.586 512.76
1971 0 85.0923 11.2231 955 83.3361 912.266 512.912
1972 0 87.0828 11.0355 961 84.64 912.562 509.912
1973 1 47.0757 10.4725 493 86.4665 912.079 528.564
1974 0 50.0861 11.3006 566 83.9011 912.368 529.274
1975 0 51.0727 11.7675 601 80.7121 912.373 526.825
1976 0 53.1082 11.8061 627 82.4338 912.008 526.705
1977 0 54.0529 12.6913 686 83.8644 912.289 525.465
1978 0 55.1252 12.4263 685 84.8876 912.888 525.704
1979 0 56.0709 12.5555 704 85.0497 912.219 525.065
1980 0 54.106 11.5884 627 85.0271 912.844 526.054
1981 0 57.0747 11.8617 677 85.1182 911.969 524.331
1982 0 58.0744 11.7263 681 127.724 911.94 524.44
1983 0 65.1488 13.0931 853 87.1079 911.825 519.936
1984 0 67.1951 12.873 865 87.0462 911.677 519.6
1985 0 67.2208 12.2581 824 86.5789 912.195 519.397
1986 0 71.1923 12.5997 897 88.3712 911.69 516.875
1987 0 72.2018 13.393 967 88.0196 911.756 514.993
1988 0 72.2678 12.2876 888 91.5811 911.587 513.369
1989 0 77.1624 12.7782 986 90.146 911.964 513.539
1990 0 81.2667 12.5143 1017 89.2193 912.105 513.212
1991 0 82.207 12.6388 1039 90.5669 912.41 511.429
1992 0 86.1895 12.9366 1115 89.757 911.658 509.001
1993 1 47.072 10.3034 485 87.3897 912.148 531.111
1994 0 48.0318 11.1176 534 86.0843 912.159 529.963
1995 0 47.0465 10.8403 510 87.5431 912.567 529.122
1996 0 50.0424 11.2704 564 87.2145 911.862 528.509
1997 0 51.0194 11.3486 579 88.1468 912.168 529.145
1998 0 52.0241 11.4178 594 86.532 911.362 528.68
1999 0 51.0144 11.4281 583 87.2367 911.676 527.427
2000 0 55.07 10.8952 600 85.1667 911.442 528.032
2001 0 54.0166 10.9226 590 86.583 911.547 526.686
2002 0 57.0254 11.5036 656 84.6448 911.616 525.8
2003 0 60.0574 12.2716 737 85.7775 911.737 522.159
2004 0 64.0524 11.6155 744 86.2231 911.638 522.056
2005 0 64.0456 11.8041 756 85.2394 911.474 521.376
2006 0 65.0375 11.4242 743 84.961 911.804 521.773
2007 0 68.0937 11.3373 772 86.1425 911.648 520.14
2008 0 68.0721 12.1489 827 85.0024 912.233 519.75
2009 0 71.098 12.6164 897 94.0245 911.73 515.585
2010 0 75.1146 12.248 920 95.3652 911.434 514.468
2011 0 76.0613 13.0027 989 93.9029 911.099 513.603
2012 0 81.1117 13.3643 1084 93.0673 910.983 512.979
2013 0 81.1117 13.4383 1090 148.824 909.987 512.858
2014 0 85.0863 13.7272 1168 93.4666 911.226 510.998
2015 0 88.0607 13.3658 1177 94.4681 911.797 509.636
2016 0 92.0841 12.9447 1192 95.6669 912.065 506.603
2017 0 94.0987 13.1776 1240 96.2355 911.744 504.999
2018 0 95.1516 12.6325 1202 99.074 911.543 504.099
2019 0 99.1275 13.0035 1289 98.6618 911.286 504.487
2020 1 56.0578 12.5585 704 96.2855 911.646 525.692
2021 0 57.035 12.3082 702 98.7521 911.729 525.252
2022 0 58.0773 12.5867 731 96.0233 911.821 523.811
2023 0 59.0765 13.474 796 95.7688 911.834 523.423
2024 0 63.21 13.5896 859 94.3283 911.849 522.144
2025 0 65.0936 13.7802 897 95.9688 911.965 520.337
2026 0 66.0941 13.2538 876 98.7009 911.804 518.057
2027 0 66.1535 13.4233 888 99.7365 911.411 517.753
2028 0 69.1171 13.7593 951 99.1356 911.257 516.293
2029 0 70.0254 13.8378 969 97.9236 911.438 515.57
2030 0 71.0575 12.8206 911 100.728 911.194 516.934
2031 0 75.0267 12.8887 967 101.927 911.12 512.917
2032 0 78.1028 13.8791 1084 99.345 911.127 511.684
2033 0 80.0895 13.4225 1075 100.489 911.61 511.287
2034 0 82.0701 13.6225 1118 101.174 911.795 511.572
2035 0 87.1007 14.2708 1243 98.0426 911.618 509.274
2036 0 88.0687 13.6825 1205 100.421 912.056 506.895
2037 0 90.0822 13.2213 1191 100.982 911.66 505.767
2038 0 91.0854 13.7014 1248 99.984 910.999 504.459
2039 0 95.0379 13.8576 1317 98.3166 911.821 501.727
2040 0 95.0697 13.1693 1252 99.1062 911.474 502.1
2041 0 99.0794 13.2722 1315 99.1962 911.347 501.138
2042 0 103.12 13.2273 1364 101.24 911.109 498.812
2043 1 55.1014 11.3427 625 101.176 911.538 518.339
2044 0 57.1272 11.3956 651 100.53 911.602 514.959
2045 0 59.0907 12.557 742 99.6226 912.117 514.687
2046 0 64.0317 13.2278 847 98.8666 911.914 519.341
2047 0 65.0328 13.178 857 99.1972 911.37 516.844
2048 0 66.0637 13.0934 865 99.7353 912.097 515.712
2049 0 69.0934 13.0982 905 97.8265 911.884 515.512
2050 0 70.2414 13.4394 944 96.7066 912.309 512.625
2051 0 74.0707 13.3116 986 96.1552 911.832 512.927
2052 0 75.0615 13.0426 979 98.1175 911.805 510.577
2053 0 77.0371 13.2014 1017 98.0846 911.754 511.425
2054 0 81.1179 13.3386 1082 96.5943 911.26 511.372
2055 0 83.1267 13.702 1139 96.5241 910.965 510.715
2056 0 84.1417 12.7166 1070 99.1654 911.668 510.274
2057 0 90.1589 13.088 1180 97.3398 912.096 508.63
2058 0 93.1533 13.6656 1273 95.9678 911.982 506.072
2059 0 95.0924 12.9453 1231 97.7336 912.566 504.058
2060 1 50.0657 11.1653 559 100.138 912.674 523.927
2061 0 52.0751 11.9635 623 98.6758 912.937 524.197
2062 0 51.073 12.1786 622 98.5402 912.389 522.963
2063 0 53.0688 11.8525 629 96.0048 912.095 519.114
2064 0 54.051 12.1737 658 96.4924 911.363 518.308
2065 0 59.0735 12.7468 753 96.2868 911.319 522.143
2066 0 60.0532 13.155 790 99.6101 911.025 520.991
2067 0 60.0512 11.5901 696 96.671 911.667 521.797
2068 0 65.0299 13.1632 856 99.6963 910.824 519.345
2069 0 67.0352 12.6948 851 101.591 911.321 519.119
2070 0 68.1042 13.0682 890 101.367 911.414 517.861
2071 0 71.0432 13.0202 925 101.674 911.448 516.272
2072 0 75.0592 13.7625 1033 99.7861 911.653 515.469
2073 0 77.0887 13.7504 1060 100.042 912.206 511.395
2074 0 79.1232 12.6764 1003 102.841 911.593 510.122
2075 0 80.0664 12.6895 1016 98.2943 911.495 511.57
2076 0 82.0808 13.1334 1078 103.335 911.63 506.645
2077 0 86.1092 13.9939 1205 101.235 912.034 505.03
2078 0 86.066 12.7577 1098 105.26 911.085 504.245
2079 0 89.0938 13.323 1187 102.794 911.169 502.616
2080 0 93.1974 12.9296 1205 105.897 910.11 501.46
2081 0 95.1427 12.4024 1180 103.801 910.893 500.037
2082 0 98.1979 13.2895 1305 106.157 910.737 496.008
2083 0 102.216 13.2562 1355 105.501 911.108 494.9
2084 0 105.195 13.109 1379 105.453 910.736 493.007
2085 0 109.202 12.1976 1332 106.573 911.693 490.128
2086 1 61.147 10.4993 642 95.5202 911.765 517.157
2087 0 63.1165 11.0272 696 95.0201 912.276 516.835
2088 0 64.1443 11.443 734 93.1144 911.813 515.2
2089 0 65.0352 11.3169 736 91.6481 910.416 515.705
2090 0 68.1779 11.3967 777 92.5894 910.575 514.91
2091 0 70.1105 12.0381 844 93.3306 911.566 512.121
2092 0 72.0975 11.318 816 92.6752 910.48 512.3
2093 0 75.1673 11.2549 846 92.682 910.634 511.258
2094 0 77.098 11.8291 912 91.8169 910.855 507.776
2095 0 80.0912 11.6617 934 92.8405 910.905 507.321
2096 0 81.1 12.4168 1007 91.8054 910.748 505.356
2097 0 84.0837 12.1902 1025 92.7805 910.655 503.822
2098 0 88.0711 11.9335 1051 92.9153 909.9 503.182
2099 0 86.1906 11.5442 995 94.6693 910.948 499.68
2100 0 92.1669 12.1953 1124 92.6521 910.48 498.129
2101 0 91.2651 12.0309 1098 93.8525 910.947 497.532
2102 0 93.2139 11.5755 1079 95.2122 910.878 494.202
2103 0 100.28 11.3581 1139 94.3837 910.87 491.511
2104 0 98.3453 11.7647 1157 92.65 911.431 485.914
2105 0 100.415 11.2035 1125 92.8649 911.256 485.808
2106 1 51.3364 8.70728 447 84.2483 910.98 506.535
2107 0 61.1957 10.687 654 83.8226 911.141 514.521
2108 0 64.1675 11.47 736 87.1576 910.639 512.167
2109 0 67.0302 10.7265 719 89.0459 910.257 511.559
2110 0 68.0457 10.8163 736 89.6753 910.236 511.012
2111 0 71.0851 11.4511 814 87.3059 910.259 509.117
2112 0 74.1045 10.6876 792 88.6313 910.691 509.42
2113 0 76.0924 10.7369 817 88.9339 910.126 508.04
2114 0 78.1617 11.0028 860 89.6663 911.096 507.46
2115 0 81.076 11.6064 941 89.2264 910.216 503.819
2116 0 81.0433 11.5617 937 90.2455 910.666 503.575
2117 0 86.0993 11.7887 1015 89.2857 910.792 503.621
2118 0 88.1477 11.5375 1017 89.6096 911.61 502.068
2119 0 91.1992 11.7545 1072 88.278 911.633 502.087
2120 0 93.1566 10.7024 997 92.3551 911.579 499.415
2121 0 93.1387 10.9836 1023 93.5846 910.878 496.161
2122 0 97.2173 11.0474 1074 91.3371 910.75 497.669
2123 0 100.193 10.879 1090 92.5917 910.97 495.448
2124 0 104.17 11.3948 1187 91.6571 911.516 492.134
2125 0 107.257 10.9177 1171 92.1255 911.687 490.302
2126 0 111.124 11.3387 1260 89.9706 911.238 491.155
2127 0 114.206 10.8137 1235 91.034 911.496 488.79
2128 0 118.283 11.2865 1335 89.1393 911.068 486.919
2129 0 120.272 10.0938 1214 90.5222 912.467 484.863
2130 0 124.3 11.0378 1372 85.1917 911.962 483.07
2131 0 130.222 11.3191 1474 84.6859 912.504 480.576
2132 0 133.168 11.0312 1469 86.3451 911.896 477.607
2133 0 135.313 10.4055 1408 88.7237 912.428 475.868
2134 0 139.127 10.5731 1471 89.3052 912.082 474.769
2135 0 142.202 11.1813 1590 88.4094 912.925 472.51
2136 0 149.373 11.555 1726 87.9768 912.855 470.788
2137 0 151.284 11.0389 1670 88.6754 912.598 465.633
2138 0 156.336 11.7695 1840 88.3908 912.327 463.483
2139 0 162.249 11.4145 1852 89.71 912.435 459.791
2140 0 165.327 11.7101 1936 97.4628 911.956 458.655
2141 0 172.304 12.1007 2085 96.7444 912.527 455.621
2142 0 176.254 12.2891 2166 98.5886 912.299 453.85
2143 0 180.343 12.016 2167 99.7527 912.438 450.919
2144 0 185.257 12.1021 2242 100.342 912.269 447.928
2145 0 191.348 12.067 2309 101.502 912.328 446.664
2146 0 195.239 11.2426 2195 104.054 910.914 439.266
2147 0 203.256 12.531 2547 101.023 911.753 437.242
2148 0 211.346 12.3684 2614 100.428 911.306 438.596
2149 0 218.295 14.059 3069 94.8928 912.276 429.748
2150 0 218.295 14.0773 3073 146.862 913.282 429.591
2151 1 173.281 10.8437 1879 99.8116 911.942 456.031
2152 0 181.283 12.0199 2179 98.0532 911.947 452.14
2153 0 187.259 12.0262 2252 98.365 912.869 451.092
2154 0 194.267 12.2049 2371 97.8553 912.277 450.346
2155 0 200.248 12.0051 2404 99.2596 912.768 443.113
2156 0 209.209 12.6429 2645 97.7701 912.454 441.199
2157 0 214.235 12.7523 2732 97.5304 912.295 434.977
2158 0 220.266 12.1626 2679 98.3296 912.197 430.868
2159 0 228.316 12.3075 2810 97.8224 912.066 425.792
2160 0 235.407 11.9028 2802 99.1963 911.908 417.002
2161 0 244.242 12.8029 3127 98.1967 912.742 418.476
2162 0 250.325 12.292 3077 99.9656 912.397 412.711
2163 0 259.264 12.2732 3182 100.239 912.126 407.135
2164 0 267.218 13.0156 3478 99.6624 912.245 406.54
2165 0 272.392 12.7941 3485 102.589 911.97 398.424
2166 0 283.234 12.8198 3631 101.733 912.946 400.639
2167 0 290.43 12.5091 3633 104.216 912.508 390.153
2168 0 298.356 12.1365 3621 105.371 912.076 386.918
2169 0 306.412 14.7155 4509 98.3293 912.548 376.977
2170 0 315.457 15.3397 4839 93.2141 912.482 373.675
2171 0 323.386 14.9666 4840 94.5872 912.389 367.699
2172 0 331.475 14.6738 4864 94.9062 912.495 366.991
2173 0 341.427 14.9022 5088 96.5075 911.687 361.579
2174 0 352.406 15.031 5297 99.1752 912.032 355.217
2175 0 362.457 14.8542 5384 100.275 911.863 351.56
2176 0 374.426 15.25 5710 99.4743 912.292 342.231
2177 0 385.504 15.0219 5791 100.682 911.935 335.039
2178 0 398.685 15.4533 6161 96.2094 912.278 329.819
2179 0 387.508 6.24245 2419 107.709 912.121 383.547
2180 0 359.286 12.1352 4360 102.302 912.109 325.093
2181 1 68.0356 9.27456 631 76.7797 911.35 491.447
2182 0 68.1924 10.2944 702 77.2393 914.677 497.631
2183 0 70.3894 10.2146 719 79.42 914.499 508.928
2184 0 72.339 10.6582 771 77.7095 915.09 513.454
2185 0 75.3112 10.7952 813 78.6716 914.694 510.664
2186 0 78.3052 10.574 828 78.8961 914.514 509.14
2187 0 81.2849 10.3832 844 79.1292 913.506 507.953
2188 0 83.3385 10.3194 860 79.2837 914.343 508.42
2189 0 88.29 10.9979 971 77.3821 913.779 504.216
2190 0 89.4744 10.2264 915 78.5869 914.391 503.721
2191 0 86.4025 10.9488 946 78.1956 914.291 502.247
2192 0 92.3038 11.2021 1034 76.9081 914.166 501.376
2193 0 102.278 15.1254 1547 65.4777 913.912 489.54
2194 0 105.404 16.3941 1728 63.7934 914.006 495.542
2195 0 104.448 14.8783 1554 69.6821 913.931 497.093
2196 0 103.299 12.7785 1320 75.0826 914.355 499.438
2197 0 106.355 13.1729 1401 74.97 915.172 498.822
2198 0 111.453 13.0549 1455 76.2454 914.658 497.12
2199 0 112.465 12.5728 1414 77.5707 914.327 496.592
2200 0 115.449 12.1179 1399 74.9178 913.942 491.806
2201 0 117.458 12.2938 1444 74.5665 914.037 491.704
2202 0 122.494 12.5149 1533 72.3392 914.069 489.432
2203 0 124.433 12.6091 1569 72.617 913.64 488.498
2204 0 129.322 13.1145 1696 72.9516 913.655 486.923
2205 0 131.301 12.1476 1595 76.1298 913.282 485.598
2206 0 134.374 12.2643 1648 80.0971 913.085 480.736
2207 0 137.327 12.4666 1712 79.3779 913.352 481.548
2208 0 142.257 12.2384 1741 78.5962 912.534 479.714
2209 1 72.102 10.7209 773 70.3389 913.463 518.314
2210 0 73.0307 10.5983 774 71.3798 913.448 516.306
2211 0 77.1352 11.3697 877 73.5325 913.535 514.602
2212 0 77.3364 12.3487 955 80.2063 914.261 512.785
2213 0 79.2765 11.9455 947 80.6969 913.67 511.618
2214 0 82.3256 12.2076 1005 80.4488 913.581 511.718
2215 0 84.373 12.6462 1067 81.0928 913.622 507.879
2216 0 84.1614 11.8106 994 78.0624 913.25 510.499
2217 0 88.1169 11.1783 985 78.136 913.024 510.131
2218 0 92.2028 10.9975 1014 76.9349 913.048 506.871
2219 0 92.1512 11.5679 1066 75.4184 913.087 505.159
2220 0 95.3492 11.6519 1111 78.8353 913.213 501.599
2221 0 99.2267 11.7912 1170 78.3983 913.253 500.407
2222 0 102.313 11.6115 1188 78.3485 912.866 500.697
2223 0 104.276 12.0066 1252 80.6837 913.338 498.903
2224 0 105.262 11.4856 1209 79.4988 913.051 496.825
2225 0 106.193 11.3567 1206 78.9544 912.746 494.518
2226 0 110.188 11.6165 1280 77.6547 912.677 492.932
2227 0 114.234 12.2905 1404 76.8041 912.152 493.094
2228 0 115.197 12.266 1413 79.5994 912.034 488.881
2229 0 119.199 11.8458 1412 78.8166 912.305 487.875
2230 0 121.182 12.4689 1511 78.5811 912.234 486.746
2231 0 126.167 12.095 1526 78.8644 912.09 485.742
2232 0 130.217 12.7172 1656 79.2995 912.423 482.095
2233 0 133.181 12.3366 1643 80.0974 912.505 480.97
2234 0 136.164 12.272 1671 81.7576 912.08 479.676
2235 0 139.18 12.1713 1694 81.2857 912.688 477.524
2236 0 144.202 12.746 1838 81.9864 911.813 476.802
2237 0 150.218 12.8546 1931 80.058 911.97 472.472
2238 0 154.237 12.7466 1966 80.4008 911.108 469.446
2239 0 157.307 12.4788 1963 82.0739 911.929 467.757
2240 0 161.221 11.9774 1931 84.6722 912.024 463.234
2241 0 166.369 12.6586 2106 83.7707 911.991 460.511
2242 0 172.194 12.544 2160 84.4259 911.636 454.684
2243 0 178.423 12.235 2183 87.2707 912.116 454.901
2244 0 183.697 12.7493 2342 86.4594 911.954 453.55
2245 0 189.478 13.4105 2541 86.6171 912.563 449.616
2246 0 192.452 13.3124 2562 88.0882 912.166 445.936
2247 0 198.455 13.0911 2598 88.7032 911.652 443.928
2248 0 203.532 13.4623 2740 88.6099 911.95 439.431
2249 0 206.379 13.0634 2696 93.3605 912.342 438.273
2250 0 216.485 13.4698 2916 92.4201 912.173 437.199
2251 1 168.442 11.4995 1937 91.8265 912.679 463.351
2252 0 176.418 13.3886 2362 86.0838 912.448 464.825
2253 0 181.535 12.2621 2226 92.3131 911.682 456.969
2254 0 185.432 12.15 2253 93.9827 911.605 451.047
2255 0 191.453 12.0709 2311 94.7144 912.681 444.601
2256 0 198.315 12.4045 2460 93.3358 912.659 441.598
2257 0 204.324 12.441 2542 94.0378 912.511 438.639
2258 0 209.398 12.2112 2557 96.068 912.444 432.953
2259 0 215.388 12.4055 2672 94.8076 912.848 430.265
2260 0 224.393 12.3177 2764 94.7815 912.916 427.613
2261 0 230.257 11.8954 2739 96.0183 913.002 424.038
2262 0 237.246 12.3416 2928 98.5734 911.83 421.133
2263 1 172.288 11.5272 1986 89.9914 911.681 454.492
2264 0 179.252 12.2007 2187 90.8089 912.406 450.592
2265 0 181.301 11.4892 2083 93.17 911.309 449.545
2266 0 187.308 10.9712 2055 93.6672 912.03 446.932
2267 0 194.251 11.6293 2259 93.019 911.494 445.068
2268 0 201.302 11.4803 2311 94.936 911.617 439.792
2269 0 207.343 11.305 2344 96.3157 912.3 438.571
2270 0 214.541 12.1282 2602 96.3862 912.907 430.982
2271 0 224.504 12.071 2710 96.4845 912.878 427.8
2272 1 176.448 12.1679 2147 92.5258 913.541 452.989
2273 0 182.318 11.9077 2171 92.8908 911.891 450.922
2274 0 188.292 12.3106 2318 90.5772 912.327 447.23
2275 0 193.337 12.817 2478 89.2885 911.599 444.436
2276 0 198.26 12.1154 2402 91.9588 911.781 439.006
2277 0 210.349 13.0782 2751 88.3352 911.985 434.975
2278 0 217.429 13.1215 2853 89.6551 911.427 429.671
2279 0 223.595 12.2319 2735 91.8183 911.475 427.652
2280 0 230.432 12.29 2832 90.2585 911.558 424.38
2281 0 239.331 12.723 3045 90.1993 911.564 417.5
2282 0 243.4 10.5957 2579 97.1303 911.44 422.549
2283 0 250.49 8.00033 2004 96.5928 912.763 447.761
2284 1 59.1693 7.7236 457 73.1904 914.481 520.807
2285 0 62.0737 9.89146 614 72.7443 913.622 522.446
2286 0 64.1719 10.0044 642 75.1636 913.612 521.534
2287 0 66.5319 10.2808 684 73.5848 913.107 518.534
2288 0 69.2368 11.1068 769 77.1899 912.901 519.479
2289 0 69.0647 11.7137 809 78.0939 913.384 518.507
2290 0 71.259 11.1705 796 78.5088 912.862 518.798
2291 0 75.2018 11.1832 841 78.3258 912.659 517.46
2292 0 76.2189 10.8241 825 81.0594 912.999 516.021
2293 0 78.1556 11.3875 890 80.6618 911.843 514.708
2294 0 82.2568 11.4033 938 80.7164 912.588 513.502
2295 0 83.2628 11.1935 932 81.8122 912.275 512.971
2296 0 87.1382 11.1662 973 82.0524 912.631 511.779
2297 0 89.0726 10.8675 968 84.0269 912.647 509.66
2298 0 93.0283 10.3839 966 84.4037 913.076 508.469
2299 1 53.1409 9.6724 514 78.7665 913.313 518.776
2300 0 52.0834 9.75359 508 80.1968 913.258 519.323
2301 0 55.2047 10.4339 576 78.9288 913.623 518.898
2302 0 55.1358 11.2631 621 77.8084 913.095 519.921
2303 0 59.0831 11.2723 666 86.0345 913.035 519.562
2304 0 59.2203 11.6683 691 85.3068 913.936 523.847
2305 0 61.1999 12.0425 737 84.1533 913.19 523.012
2306 0 63.1486 11.6075 733 84.0696 913.813 522.272
2307 0 64.1431 11.5835 743 84.7456 912.934 520.279
2308 0 66.1301 11.7042 774 84.7855 913.083 520.296
2309 0 67.2638 12.0421 810 84.7963 913.227 519.54
2310 0 67.1903 11.8618 797 86.5834 913.413 519.09
2311 0 69.2206 12.294 851 85.3572 913.6 519.026
2312 0 71.1573 12.4513 886 85.2393 913.613 518.866
2313 0 72.1562 12.6531 913 85.8697 913.595 517.243
2314 0 73.1752 12.2036 893 87.3236 913.085 516.567
2315 0 73.1176 11.6251 850 88.3553 912.979 514.233
2316 0 74.0833 11.5681 857 88.4434 914.114 514.66
2317 0 77.0695 11.9243 919 88.3667 913.641 513.991
2318 0 79.127 11.2477 890 91.6292 913.421 511.262
2319 0 82.1435 12.0277 988 88.3654 913.17 509.248
2320 0 83.0972 11.7573 977 88.9324 913.224 508.671
2321 0 83.151 11.1965 931 92.2911 913.064 507.05
2322 0 87.1366 10.8221 943 92.5228 913.085 504.737
2323 0 91.2294 12.4192 1133 90.0071 913.007 502.353
2324 0 93.1558 12.0873 1126 89.9609 913.051 501.384
2325 0 95.1293 11.2584 1071 91.7964 912.42 498.987
2326 0 100.217 12.8721 1290 90.2163 912.308 488.608
2327 0 103.132 12.421 1281 90.3614 913.126 489.199
2328 0 104.076 12.241 1274 90.9192 912.48 488.373
2329 0 109.197 11.7952 1288 90.587 913.182 488.743
2330 0 110.127 12.1405 1337 91.089 912.983 485.722
2331 0 116.1 12.2481 1422 86.1343 913.379 487.264
2332 0 111.16 11.7938 1311 85.0313 912.76 479.094
2333 1 71.1512 11.9042 847 78.4888 913.989 512.856
2334 0 71.1507 11.9465 850 79.5965 912.901 511.807
2335 0 72.3394 12.5243 906 78.6247 913.183 512.071
2336 0 74.1 12.0918 896 79.3348 913.608 510.135
2337 0 76.1508 12.5409 955 79.912 913.759 507.925
2338 0 78.2084 11.8785 929 80.1195 913.778 506.594
2339 0 80.239 12.2509 983 79.6399 913.306 504.532
2340 0 81.1214 11.452 929 73.8547 912.99 504.709
2341 0 84.1154 12.1024 1018 80.8851 913.072 503.171
2342 0 85.099 11.4572 975 82.7087 913.945 500.663
2343 0 87.0874 11.5746 1008 83.4911 913.849 499.216
2344 0 89.0915 11.4713 1022 83.3356 912.765 499.399
2345 0 95.1602 12.3266 1173 81.2072 912.408 498.238
2346 0 95.1602 12.4632 1186 123.543 912.424 498.126
2347 0 100.178 12.0286 1205 82.4149 913.08 495.495
2348 0 101.13 11.7078 1184 82.6056 912.089 493.677
2349 0 105.101 11.7792 1238 81.2811 913.364 491.841
2350 0 108.265 11.1024 1202 84.1339 912.367 491.277
2351 1 57.0914 8.60025 491 75.3422 912.88 518.572
2352 0 56.1079 7.73509 434 71.4424 912.502 518.546
2353 0 61.1105 9.09827 556 68.8993 912.831 517.322
2354 0 59.0364 9.70588 573 76.4939 912.023 514.014
2355 0 65.0843 9.51074 619 71.5267 911.514 515.499
2356 0 67.1222 10.5032 705 71.3631 911.143 516.245
2357 0 69.0793 9.78585 676 73.3861 911.654 513.093
2358 0 72.0832 10.2937 742 79.3908 911.129 509.788
2359 0 76.1571 11.5288 878 77.6253 911.022 510.383
2360 0 78.0894 11.1411 870 77.1448 910.886 511.725
2361 0 80.1093 11.1722 895 78.457 910.607 508.794
2362 0 84.0959 10.9399 920 78.6794 910.846 507.222
2363 0 87.1116 11.6058 1011 76.274 910.799 507.741
2364 0 90.0979 11.6984 1054 77.0598 910.064 506.306
2365 0 94.1559 11.619 1094 76.9717 910.183 506.696
2366 0 96.1503 11.4716 1103 77.2602 909.936 504.007
2367 0 97.0927 11.7105 1137 78.0176 910.109 500.624
2368 0 98.1043 12.0484 1182 77.7267 908.904 501.918
2369 0 98.1263 11.4444 1123 79.6474 910.87 500.589
2370 0 104.129 11.1977 1166 78.524 910.439 498.189
2371 0 108.213 12.2352 1324 74.6881 910.041 496.703
2372 0 111.227 11.0405 1228 76.4129 910.167 493.8
2373 0 111.171 11.0731 1231 76.1909 909.751 490.076
2374 0 117.319 10.1006 1185 76.157 910.398 488.468
2375 1 64.2798 9.56755 615 70.3984 910.392 515.741
2376 0 66.2285 10.4789 694 75.1369 909.72 512.785
2377 0 71.3501 11.2403 802 76.7481 910.746 515.476
2378 0 71.2464 11.5374 822 78.3942 911.218 513.455
2379 0 74.2243 11.1419 827 79.6796 910.729 514.079
2380 0 76.2846 11.8635 905 79.2055 911.29 513.475
2381 0 79.2011 12.2978 974 79.3111 910.368 510.444
2382 0 80.1961 11.5841 929 81.6125 910.882 507.825
2383 0 85.2268 11.663 994 80.9437 910.797 505.824
2384 0 83.2263 11.8232 984 82.5 911.365 504.24
2385 0 85.2655 11.6812 996 82.8072 910.887 503.503
2386 0 89.2971 11.221 1002 84.2744 910.888 500.628
2387 0 92.291 12.0814 1115 83.3148 911.163 498.395
2388 0 95.3023 11.878 1132 84.1369 911.142 496.825
2389 0 97.109 11.2451 1092 82.2161 910.732 496.845
2390 0 101.044 11.6385 1176 81.1386 911.017 497.239
2391 0 102.166 11.5107 1176 82.1684 910.993 494.536
2392 0 106.094 11.2731 1196 83.1856 911.257 490.276
2393 1 57.0182 8.85681 505 77.2277 911.984 518.45
2394 0 60.0955 9.18539 552 73.3931 912.612 517.592
2395 0 59.1449 9.56972 566 74.7297 911.792 512.622
2396 0 64.0408 10.587 678 72.4336 910.475 515.232
2397 0 64.0825 13.0301 835 76.3892 911.713 511.333
2398 0 68.0104 10.6013 721 82.7892 911.994 510.824
2399 0 70.0678 11.2463 788 81.1523 910.088 508.381
2400 0 74.1418 11.6264 862 80.2413 910.173 508.821
2401 0 76.079 10.9754 835 82.218 911.012 506.932
2402 0 77.1046 11.2963 871 82.5982 910.773 506.36
2403 0 78.0992 11.0629 864 84.1655 910.76 506.672
2404 0 82.1787 11.8644 975 83.5682 911.985 505.157
2405 0 83.1694 11.4104 949 85.2708 912.437 503.989
2406 0 86.1206 11.809 1017 85.9135 912.687 502.794
2407 0 90.1539 12.3012 1109 84.3958 912.321 503.316
2408 0 89.1118 11.682 1041 87.4342 912.914 501.476
2409 0 95.1462 11.7924 1122 85.7656 911.759 499.691
2410 0 97.1791 12.3998 1205 86.7651 913.022 499.713
2411 0 100.109 12.2567 1227 86.1288 912.44 498.121
2412 0 104.061 10.984 1143 89.9991 912.2 495.679
2413 0 106.174 11.6036 1232 91.8815 912.41 493.351
2414 0 110.13 11.7407 1293 91.778 912.112 491.91
2415 0 115.119 11.4229 1315 92.8836 912.773 491.837
2416 1 62.0964 9.63019 598 89.9114 912.965 519.182
2417 0 63.0775 10.2889 649 78.7735 914.473 518.206
2418 0 66.0659 11.428 755 78.9219 913.942 515.644
2419 0 66.026 11.0865 732 89.0246 914.093 515.514
2420 0 71.0156 11.3355 805 87.954 914.615 514.968
2421 0 71.0518 11.7379 834 88.7854 914.251 513.544
2422 0 75.041 12.0467 904 86.9867 914.434 514.465
2423 0 76.0746 11.331 862 88.5116 914.026 511.94
2424 0 80.0535 12.1419 972 87.5535 914.005 510.288
2425 0 82.0339 12.2267 1003 86.9023 913.913 510.513
2426 0 84.0276 11.6985 983 88.8555 913.879 509.337
2427 0 86.0394 12.6802 1091 85.8158 914.134 508.003
2428 0 87.0647 11.5776 1008 89.1131 913.976 505.762
2429 0 91.1732 12.3501 1126 87.167 913.823 505.644
2430 0 92.0656 11.948 1100 89.6027 913.193 504.109
2431 0 95.1318 12.4879 1188 88.2222 913.098 503.186
2432 0 97.204 11.9645 1163 89.399 912.684 501.862
2433 0 101.16 12.7026 1285 89.9603 912.918 498.412
2434 0 102.115 11.6927 1194 94.3199 913.08 496.732
2435 0 104.162 12.0006 1250 93.3976 913.036 495.07
2436 0 108.158 12.5002 1352 92.7167 912.122 494.327
2437 1 61.0422 9.92755 606 89.3234 913.096 518.233
2438 0 63.1293 10.8032 682 85.9677 912.394 517.273
2439 0 66.0498 11.4005 753 83.0305 914.356 517.857
2440 0 66.0398 11.4779 758 83.6979 914.001 515.602
2441 0 70.1054 11.8678 832 81.1382 914.196 515.587
2442 0 72.0457 12.4504 897 80.3333 913.856 514.738
2443 0 72.0641 11.5314 831 83.0505 913.809 511.736
2444 0 75.0505 11.6988 878 81.8314 914.402 511.839
2445 0 75.0929 11.6655 876 82.8516 913.533 510.54
2446 0 77.0722 12.5856 970 81.5485 914.255 509.27
2447 0 79.0905 11.8093 934 83.364 913.694 508.071
2448 0 83.0857 12.6977 1055 81.927 913.416 506.536
2449 0 83.0865 11.7588 977 84.3623 912.883 506.08
2450 0 87.1028 11.8021 1028 83.214 914.136 506.479
2451 0 89.202 12.5221 1117 81.4539 913.09 503.38
2452 0 91.1498 11.5305 1051 82.8354 912.886 502.338
2453 0 94.112 11.922 1122 83.7808 912.452 502.113
2454 0 98.1178 12.1283 1190 82.3908 913.199 499.512
2455 0 99.1212 11.5616 1146 83.6597 913.338 498.401
2456 1 56.0576 7.93826 445 80.409 914.614 521.724
2457 0 57.0257 9.71491 554 78.0686 913.379 518.352
2458 0 57.0247 9.7677 557 76.0592 913.248 518.447
2459 0 60.0652 11.2045 673 71.1337 911.569 517.097
2460 0 62.0613 11.1341 691 79.8321 911.573 514.598
2461 0 63.0283 10.0748 635 73.4756 912.726 517.776
2462 0 66.0213 10.9964 726 80.1984 912.806 513.627
2463 0 70.0592 11.8899 833 78.2905 913.212 512.808
2464 0 72.0696 11.8497 854 78.7494 913.095 511.781
2465 0 72.032 11.5504 832 80.0024 913 510.986
2466 0 76.0977 11.5378 878 79.4852 912.446 510.646
2467 0 79.0535 12.1816 963 79.3749 913.112 509.009
2468 0 79.0583 11.9912 948 80.4494 913.056 507.08
2469 0 84.0376 11.9351 1003 79.9402 913.652 507.084
2470 0 86.0722 11.8738 1022 81.2172 913.247 507.124
2471 0 86.071 11.8158 1017 82.056 913.775 503.709
2472 0 92.0877 12.4772 1149 79.9547 913.995 501.608
2473 0 95.1144 12.1012 1151 80.7967 913.766 502.493
2474 0 96.1582 12.209 1174 82.2359 912.805 500.442
2475 0 95.1167 11.9537 1137 83.8716 913.032 497.851
2476 0 101.173 12.0388 1218 82.9089 912.521 497.818
2477 0 105.092 12.7983 1345 81.7093 913.292 494.926
2478 0 108.086 12.416 1342 82.1766 913.127 492.393
2479 0 112.129 12.9494 1452 81.4022 912.828 493.176
2480 0 114.179 11.8499 1353 83.6179 912.949 491.201
2481 1 64.1602 9.63215 618 80.4676 911.406 516.662
2482 0 66.0922 9.66831 639 73.2566 912.448 515.682
2483 0 69.0554 10.8608 750 70.948 912.372 514.836
2484 0 69.0733 10.554 729 78.9177 913.65 512.198
2485 0 73.1332 10.98 803 78.1258 912.822 510.768
2486 0 75.2002 11.2633 847 80.0933 912.968 507.826
2487 0 79.2182 11.1969 887 80.7486 913.13 507.894
2488 0 80.2566 11.214 900 81.1989 912.761 506.704
2489 0 83.2312 11.6062 966 80.0083 912.101 506.167
2490 0 84.208 11.2697 949 81.7134 912.887 504.353
2491 0 88.1473 11.8438 1044 80.8151 912.711 503.18
2492 0 90.1785 12.1093 1092 81.7189 913.429 501.735
2493 0 93.2256 11.4883 1071 83.3735 912.426 501.95
2494 0 94.1662 11.9045 1121 82.9902 912.675 500.55
2495 0 95.1958 11.3871 1084 83.9622 912.246 499.572
2496 0 98.1737 11.4287 1122 84.049 912.82 497.971
2497 0 100.162 11.8208 1184 83.7829 911.579 497.824
2498 0 103.157 11.6812 1205 84.2846 912.689 494.451
2499 0 107.182 11.0746 1187 82.572 912.425 493.858
2500 0 112.187 11.873 1332 81.4827 912.515 494.934
2501 0 115.171 11.6956 1347 81.3378 912.506 493.267
2502 0 118.131 11.7751 1391 81.9101 912.821 491.381
2503 0 122.179 12.3507 1509 80.4871 912.727 490.561
2504 0 122.108 11.4571 1399 78.8928 913.102 492.801
2505 0 125.091 11.5596 1446 78.9827 912.786 489.777
2506 0 130.195 12.3354 1606 83.2067 912.526 485.032
2507 0 135.173 12.3989 1676 83.2995 911.454 481.615
2508 0 139.182 12.2717 1708 83.8653 911.187 480.129
2509 0 143.226 11.6809 1673 85.7125 911.455 479.267
2510 0 149.189 12.7891 1908 83.577 911.277 476.958
2511 0 152.199 12.3785 1884 85.3317 911.948 471.814
2512 0 156.158 12.3017 1921 86.3722 911.141 468.233
2513 0 162.249 12.8691 2088 84.9981 911.186 468.886
2514 0 164.162 12.2136 2005 88.2718 911.693 462.511
2515 0 170.221 12.6952 2161 86.95 911.137 460.748
2516 0 178.127 12.8504 2289 86.0467 910.791 458.414
2517 0 183.152 12.678 2322 87.7209 911.174 453.295
2518 0 189.195 12.9021 2441 88.1462 911.099 450.688
2519 0 194.124 12.9454 2513 88.3788 910.968 446.452
2520 1 137.071 11.1402 1527 88.4551 911.088 476.932
2521 0 143.109 12.487 1787 87.2608 910.249 472.83
2522 0 145.083 12 1741 91.9575 910.025 468.932
2523 0 151.302 12.1149 1833 91.922 910.918 470.513
2524 0 154.344 12.362 1908 91.2332 910.294 467.862
2525 0 158.369 11.3911 1804 95.4496 910.409 461.129
2526 0 164.437 12.5337 2061 93.9277 909.577 457.177
2527 0 170.355 12.8027 2181 93.8083 909.871 454.885
2528 0 178.396 12.8142 2286 94.8758 910.85 456.176
2529 0 183.367 13.2085 2422 95.3476 911.182 452.463
2530 0 188.256 13.556 2552 94.2175 910.884 451.937
2531 0 193.398 12.7509 2466 96.386 910.856 447.876
2532 0 200.359 13.5756 2720 94.5607 910.075 446.121
2533 0 205.295 12.9619 2661 96.0887 910.625 443.865
2534 0 210.23 12.7004 2670 95.5026 910.015 438.87
2535 0 217.182 13.0674 2838 96.1797 911.068 435.275
2536 0 222.121 13.182 2928 98.2025 910.24 430.627
2537 0 229.207 12.949 2968 101.866 910.93 429.495
2538 0 234.173 13.2509 3103 102.435 911.306 426.598
2539 0 239.215 13.4607 3220 101.947 911.498 420.589
2540 0 247.273 13.2809 3284 101.246 910.765 419.28
2541 0 255.182 13.5707 3463 101.09 910.988 415.876
2542 0 261.208 12.8633 3360 104.393 910.293 408.72
2543 1 65.0425 8.39451 546 74.3205 913.126 516.244
2544 0 65.0317 8.61118 560 76.6214 913.598 515.404
2545 0 68.0433 9.46456 644 74.8416 912.935 514.057
2546 0 66.0451 9.64493 637 74.7944 911.95 513.848
2547 0 72.0482 10.4236 751 82.9547 910.144 512.071
2548 0 74.029 10.4284 772 82.592 909.355 510.227
2549 0 78.0651 11.247 878 82.0114 909.982 509.232
2550 0 80.0821 11.663 934 81.6863 909.268 505.168
2551 0 81.1138 10.1339 822 86.0036 909.68 506.151
2552 0 84.0603 10.9088 917 85.7557 909.332 504.463
2553 0 84.0477 10.9224 918 86.5708 911.416 505.215
2554 0 89.03 11.4119 1016 85.5827 911.071 502.739
2555 0 89.111 11.424 1018 86.9823 910.459 502.185
2556 0 92.0709 11.0784 1020 88.4108 911.593 501.908
2557 0 95.136 10.9738 1044 88.2941 911.13 498.814
2558 0 98.1675 10.859 1066 89.9784 910.96 498.204
2559 0 101.156 11.072 1120 90.8116 911.096 492.587
2560 0 104.272 13.0237 1358 86.3652 911.004 489.972
2561 0 105.141 11.0899 1166 92.7676 910.811 491.845
2562 0 106.104 10.5179 1116 94.914 911.971 490.21
2563 0 110.205 10.8797 1199 95.1551 911.441 487.444
2564 0 113.235 10.3149 1168 96.3818 910.913 485.711
2565 0 115.415 10.8479 1252 95.2324 911.159 479.068
2566 0 121.43 11.027 1339 94.9216 910.636 480.78
2567 0 125.132 10.1653 1272 88.9654 911.252 479.209
2568 0 128.105 9.01601 1155 88.5749 910.97 479.159
2569 1 64.0566 8.53932 547 85.1773 910.585 510.737
2570 0 65.1037 8.61703 561 87.5793 910.624 511.144
2571 0 66.1527 9.61412 636 89.706 910.799 507.028
2572 0 68.1357 10.6258 724 89.7652 910.613 505.733
2573 0 75.2534 11.3218 852 86.0493 912.268 502.725
2574 0 76.2498 12.0263 917 84.205 912.949 504.417
2575 0 79.2559 11.9739 949 84.6091 912.473 504.769
2576 0 80.1838 12.2843 985 83.9279 912.246 506.016
2577 0 80.2628 11.6742 937 86.2145 912.37 502.95
2578 0 84.3155 12.4651 1051 83.9182 912.635 501.682
2579 0 87.332 13.0994 1144 81.6224 912.287 500.217
2580 0 88.1655 12.5786 1109 83.5455 912.364 498.894
2581 0 90.1504 12.9007 1163 83.2158 913.543 499.5
2582 0 91.1889 13.0827 1193 83.2347 912.667 499.313
2583 0 96.1611 12.5207 1204 84.0357 913.596 498.253
2584 0 97.1816 12.1011 1176 85.3376 912.908 497.372
2585 0 99.1842 12.0382 1194 86.0737 913.464 495.46
2586 0 104.126 12.7634 1329 83.933 912.917 493.906
2587 0 105.167 12.4945 1314 86.0959 913.184 490.946
2588 0 108.182 12.0353 1302 87.1782 912.433 489.885
2589 0 113.088 12.0703 1365 86.2571 912.522 490.651
2590 0 114.107 11.9712 1366 86.978 911.98 488.803
2591 0 117.147 12.113 1419 88.2072 912.918 486.715
2592 1 61.0862 9.72396 594 86.2508 911.492 515.537
2593 0 64.094 10.2974 660 82.9227 912.036 514.377
2594 0 65.0787 10.6179 691 81.0868 912.711 514.415
2595 0 67.091 11.3279 760 79.3066 912.779 511.803
2596 0 68.0709 12.3694 842 78.0974 912.028 511.242
2597 0 71.056 11.7654 836 86.2978 913.543 511.677
2598 0 73.062 11.9624 874 86.5995 913.371 511.273
2599 0 75.0594 12.6833 952 85.4044 913.598 509.756
2600 0 77.1177 12.7468 983 87.3957 912.658 509.099
2601 0 78.1105 12.7384 995 88.0673 912.517 508.254
2602 0 80.104 12.309 986 90.1876 912.958 505.211
2603 0 83.0823 12.289 1021 89.6503 912.626 505.201
2604 0 84.0573 11.7896 991 87.2583 913.038 505.487
2605 0 86.0652 12.1652 1047 87.3706 912.89 504.346
2606 0 89.08 11.8545 1056 87.6544 913.164 503.366
2607 0 89.0625 11.9691 1066 90.3893 913.455 501.371
2608 0 94.0742 12.7665 1201 89.3905 913.205 498.426
2609 0 98.0827 12.3773 1214 90.8476 912.561 497.438
2610 0 99.1686 13.1594 1305 89.423 912.569 495.641
2611 0 101.173 12.533 1268 90.9132 911.778 493.591
2612 0 102.112 12.3982 1266 89.7338 912.972 490.598
2613 0 102.096 12.0867 1234 91.1386 912.285 486.331
2614 0 107.185 12.4831 1338 90.5904 912.639 485.631
2615 0 110.172 12.4079 1367 90.5362 912.413 484.356
2616 0 114.147 12.6153 1440 89.0986 912.526 483.159
2617 0 114.119 12.1539 1387 91.5105 911.448 478.247
2618 0 115.102 12.2761 1413 93.1833 912.079 475.328
2619 0 120.186 12.5056 1503 92.0905 912.627 474.802
2620 0 124.096 12.4904 1550 92.1684 912.568 471.488
2621 0 128.136 12.4477 1595 92.4953 912.839 470.058
2622 0 128.139 12.2992 1576 94.71 913.192 467.65
2623 0 135.141 12.7941 1729 93.2857 912.28 467.135
2624 0 141.138 12.5197 1767 93.8851 912.678 463.516
2625 0 147.195 13.0711 1924 92.4418 912.422 460.683
2626 0 150.106 12.8309 1926 94.1168 912.228 457.758
2627 0 153.188 12.6446 1937 95.7641 911.62 455.799
2628 0 159.126 12.8075 2038 94.4877 912.021 455.334
2629 0 165.129 12.9353 2136 93.676 911.925 450.744
2630 0 171.223 12.8487 2200 95.0082 912.325 449.053
2631 0 177.155 13.2991 2356 93.4181 911.378 445.345
2632 0 183.246 13.2717 2432 94.9091 912.084 441.737
2633 0 192.258 13.4455 2585 93.7292 911.631 438.082
2634 0 199.24 13.2102 2632 94.4005 912.321 434.442
2635 0 202.178 12.9243 2613 95.3486 912.79 429.417
2636 0 209.236 12.9853 2717 94.322 912.735 423.675
2637 1 43.0169 9.25217 398 69.3744 913.877 526.6
2638 0 46.0102 10.3673 477 67.1866 913.721 525.711
2639 0 48.0102 9.76876 469 75.2047 914.463 524.456
2640 0 47.0194 9.01755 424 77.4481 914.212 523.368
2641 0 48.0133 10.3096 495 74.8869 914.719 520.834
2642 0 48.0053 9.79058 470 76.7617 913.955 523.047
2643 0 51.0382 10.0121 511 76.411 914.331 521.501
2644 0 51.0452 10.5984 541 76.6359 914.604 521.845
2645 0 52.0239 10.6874 556 76.9029 914.466 521.146
2646 0 54.036 10.7336 580 77.0207 913.679 518.166
2647 0 57.0383 11.0277 629 76.3768 913.871 519.13
2648 0 57.0291 11.0295 629 77.6948 914.658 519.286
2649 0 60.013 11.0643 664 78.5392 914.979 518.252
2650 0 59.0456 10.7544 635 81.2504 914.506 516.146
2651 0 61.0774 11.0024 672 81.2292 914.506 516.496
2652 0 62.1386 10.3478 643 75.1011 913.101 516.365
2653 0 64.0691 11.5969 743 81.7133 913.774 513.046
2654 0 66.0801 11.2288 742 82.779 913.856 513.323
2655 0 65.0266 9.79599 637 79.7802 913.554 512.432
2656 0 70.0472 11.2781 790 81.9633 913.443 510.815
2657 0 70.1033 9.95673 698 78.0917 911.529 510.729
2658 0 76.1891 11.6683 889 82.6468 912.327 504.361
2659 0 77.3331 11.6509 901 79.2475 913.088 506.981
2660 0 77.1946 9.83229 759 79.6733 912.352 509.785
2661 0 79.132 10.5141 832 78.9267 912.422 507.882
2662 0 86.1849 10.9996 948 83.7743 912.146 503.34
2663 1 43.0095 8.92825 384 81.7604 914.846 524.339
2664 0 44.1034 9.61377 424 78.7972 912.618 521.821
2665 0 48.1331 10.0347 483 74.8799 911.489 523.186
2666 0 49.1114 10.5271 517 75.7311 911.745 518.29
2667 0 50.0655 11.1054 556 83.9838 913.41 519.959
2668 0 51.1956 11.9737 613 82.9641 912.582 516.078
2669 0 51.1571 11.0249 564 85.977 912.61 518.512
2670 0 55.2478 12.2358 676 82.0888 912.354 518.04
2671 0 56.0548 12.3629 693 77.5455 912.958 520.743
2672 0 57.0403 12.1493 693 78.0115 913.752 519.492
2673 0 57.045 11.1316 635 79.5591 914.093 518.735
2674 0 59.0935 12.1333 717 78.0153 914.335 518.16
2675 0 61.0711 12.248 748 77.4184 914.088 517.447
2676 0 62.0521 12.4573 773 76.7322 914.322 517.194
2677 0 64.0338 12.5402 803 76.32 913.315 515.943
2678 0 65.0227 12.7033 826 76.0133 914.176 515.013
2679 0 68.0381 12.831 873 75.3906 914.664 513.326
2680 0 67.1055 12.1152 813 76.7171 914.337 512.641
2682 0 71.052 14.3979 1023 69.6696 913.159 511.93
2683 0 73.0417 12.4997 913 75.0252 913.617 513.248
2684 0 75.0658 12.3492 927 74.932 912.856 512.238
2685 0 76.0763 12.2246 930 74.2613 913.332 510.518
2686 0 79.1005 12.225 967 74.1892 913.117 508.098
2687 0 81.1259 12.758 1035 73.4338 913.551 507.501
2688 0 86.1388 12.5147 1078 73.4434 912.583 506.594
2689 0 88.1075 12.6096 1111 73.9352 912.019 504.895
2690 0 89.1293 12.2294 1090 75.0174 912.917 503.486
2691 0 91.1345 12.498 1139 75.209 912.191 502.332
2692 0 94.1043 12.1992 1148 75.9085 912.658 500.269
2693 0 97.1295 12.5811 1222 75.2013 912.063 499.528
2694 0 101.157 12.5647 1271 75.3777 913.256 498.83
2695 0 106.125 13.3333 1415 73.1329 912.618 498.139
2696 1 56.0685 10.3802 582 73.421 913.239 521.887
2697 0 58.0511 9.9223 576 73.6615 913.622 523.226
2698 0 60.0581 11.2391 675 71.6385 913.65 520.267
2699 0 61.0605 11.464 700 72.53 912.913 518.504
2700 0 63.0719 11.7644 742 75.3908 910.988 517.263
2701 0 67.0879 12.6848 851 72.6557 911.508 516.053
2702 0 69.0679 12.8135 885 72.4599 911.745 515.078
2703 0 70.0604 11.9611 838 74.7172 911.208 514.112
2704 0 73.043 13.3209 973 71.5324 911.812 511.124
2705 0 75.0607 12.9362 971 72.4696 911.796 510.023
2706 0 77.0843 13.1025 1010 72.8287 911.347 510.193
2707 0 78.0615 12.4261 970 74.1495 912.713 509.988
2708 0 82.0603 12.3568 1014 73.8245 913.378 509.544
2709 0 82.0265 12.7642 1047 74.1987 913.271 507.288
2710 0 85.0455 12.3463 1050 74.7276 912.887 506.854
2711 0 87.0801 12.7813 1113 74.9587 913.121 505.12
2712 0 88.0521 12.1292 1068 73.867 912.448 504.666
2713 0 90.0736 11.646 1049 75.1106 912.453 502.468
2714 0 91.0828 11.4292 1041 77.7176 913.405 502.114
2715 0 96.0635 12.0858 1161 76.7295 912.593 500.008
2716 0 101.081 12.6631 1280 76.0281 912.532 497.407
2717 0 105.162 12.7898 1345 76.6454 912.074 495.43
2718 0 107.119 12.5655 1346 76.9703 911.686 493.82
2719 0 113.119 12.6769 1434 76.901 912.335 492.248
2720 1 59.0813 11.7296 693 75.14 912.1 517.518
2721 0 61.022 11.0452 674 74.9496 910.677 513.65
2722 0 64.0882 12.5608 805 76.487 911.293 514.416
2723 0 64.035 12.5556 804 77.7301 912.41 514.298
2724 0 67.0312 13.0387 874 77.8455 911.32 514.693
2725 0 66.0403 11.3719 751 78.8122 911.485 513.631
2726 0 69.1246 11.8482 819 78.2808 911.118 513.492
2727 0 74.0798 12.932 958 83.3768 911.774 510.991
2728 0 75.0908 11.4262 858 82.9534 911.909 511.212
2729 0 79.1039 13.9437 1103 85.184 912.214 510.217
2730 0 79.0856 12.3664 978 92.7342 912.105 507.365
2731 0 82.0857 13.0108 1068 91.4129 912.213 507.045
2732 0 84.0345 12.9709 1090 93.8569 911.439 505.33
2733 0 88.0715 12.8078 1128 93.9397 911.111 502.901
2734 0 93.1511 13.5801 1265 91.1684 911.245 502.114
2735 0 92.1796 13.6147 1255 94.5307 912.041 500.548
2736 0 94.0758 12.1073 1139 93.0228 912.55 500.309
2737 0 100.229 13.519 1355 94.0472 912.235 496.67
2738 0 102.097 12.7231 1299 96.7837 911.651 495.156
2739 1 50.0318 10.8731 544 94.3621 913.774 520.033
2740 0 55.0888 11.1638 615 89.4992 913.343 518.359
2741 0 55.0922 11.0905 611 88.4223 912.246 515.846
2742 0 58.0539 12.3678 718 93.6992 913.075 518.813
2743 0 61.0895 12.4244 759 97.7497 913.298 516.777
2744 0 62.118 12.6855 788 98.2525 912.977 516.033
2745 0 63.1131 12.644 798 99.7356 913.546 515.831
2746 0 64.0814 12.3281 790 102.413 914.1 515.099
2747 0 67.1105 12.5614 843 101.48 913.986 514.584
2748 0 70.1744 12.8537 902 100.902 913.701 513.882
2749 0 73.1104 13.0761 956 101.741 913.751 512.379
2750 0 74.106 12.7655 946 105.016 913.801 511.609
2751 0 77.1966 12.643 976 106.477 914.582 508.806
2752 0 80.1751 13.3957 1074 104.339 913.506 508.983
2753 0 81.1259 13.3496 1083 105.964 913.942 507.974
2754 0 83.0993 13.0085 1081 107.397 912.942 506.546
2755 0 88.0612 13.3089 1172 105.515 913.486 505.531
2756 0 89.1083 13.2535 1181 106.727 913.711 503.719
2757 0 93.0977 12.6749 1180 107.216 913.56 503.007
2758 0 95.0955 12.7346 1211 106.561 912.742 501.127
2759 0 98.1388 12.6657 1243 107.667 912.641 498.624
2760 0 101.164 12.0498 1219 108.432 912.448 497.616
2761 1 52.0888 10.2325 533 98.0394 913.58 523.418
2762 0 53.2639 10.908 581 97.1377 913.246 521.1
2763 0 57.1878 11.5584 661 94.4448 913.484 521.242
2764 0 58.082 11.6904 679 96.8159 913.34 520.256
2765 0 60.0803 11.8342 711 96.0689 914.017 519.651
2766 0 62.0883 12.1279 753 94.0624 913.329 518.884
2767 0 65.1657 11.9235 777 94.5277 913.528 516.26
2768 0 67.1284 11.5301 774 94.7209 913.209 515.765
2769 0 69.2679 12.7476 883 99.9298 912.994 514.236
2770 0 71.4241 12.5448 896 99.6295 913.788 512.846
2771 0 73.2835 12.3766 907 97.2878 913.492 513.066
2772 0 75.1088 12.3954 931 94.8077 913.572 512.121
2773 0 78.0786 12.3593 965 95.3668 913.673 509.322
2774 0 81.1034 12.4039 1006 95.4324 913.215 508.22
2775 0 83.1239 12.2107 1015 94.1842 913.834 508.059
2776 0 86.1363 11.4702 988 95.3806 913.317 507.252
2777 1 45.1398 9.37089 423 92.87 914.537 528.078
2778 0 46.1035 10.1077 466 91.8605 913.88 527.242
2779 0 48.0862 10.4812 504 90.4663 912.81 524.391
2780 0 48.0333 11.0548 531 89.8023 913.036 523.616
2781 0 51.1632 11.2581 576 87.5278 912.144 523.47
2782 0 54.095 11.4613 620 87.8548 912.384 523.716
2783 0 55.0598 11.9143 656 89.3079 912.965 525.306
2784 0 56.0264 12.2978 689 97.717 913.962 522.768
2785 0 58.0318 12.4931 725 96.7448 913.863 522.255
2786 0 59.1341 12.9536 766 96.5209 912.839 521.637
2787 0 62.1648 12.9334 804 96.1978 912.808 520.699
2788 0 63.1252 13.4653 850 95.2224 912.848 521.055
2789 0 65.1638 12.7064 828 98.5374 912.664 518.675
2790 0 67.1233 13.5422 909 97.0308 912.75 518.053
2791 0 68.2291 13.3228 909 98.923 912.304 517.197
2792 0 69.1176 13.2238 914 99.953 912.606 516.08
2793 0 73.1173 13.1296 960 100.64 911.575 514.966
2794 0 74.1466 13.2306 981 101.819 912.781 514.07
2795 0 77.1229 13.2645 1023 100.421 912.024 513.08
2796 0 79.0607 14.1663 1120 98.2848 912.74 511.6
2797 0 81.1205 13.1779 1069 101.864 912.068 510.314
2798 0 82.0839 13.1573 1080 102.808 912.626 509.164
2799 0 83.1277 13.5815 1129 102.138 912.341 509.102
2800 0 85.1116 13.4294 1143 101.419 913.064 508.211
2801 0 88.0841 13.8163 1217 102.86 912.285 508.108
2802 0 90.1118 13.5831 1224 103.369 912.234 505.967
2803 0 93.168 13.5669 1264 102.955 911.589 505.62
2804 0 93.0762 12.4522 1159 98.6109 912.236 505.812
2805 0 98.1841 12.8432 1261 97.9992 912.229 503.407
2806 0 97.0995 12.7086 1234 97.3703 912.989 503.232
2807 0 99.0995 12.3109 1220 96.9074 913.451 504.57
2808 0 101.121 12.5988 1274 96.7504 913.215 500.786
2809 0 103.142 12.4974 1289 96.3359 913.487 499.539
2810 0 109.139 13.6066 1485 102.222 912.989 496.314
2811 0 114.17 14.2157 1623 100.117 912.505 493.706
2812 0 116.195 13.813 1605 100.345 913.139 493.574
2813 0 120.217 13.4341 1615 102.961 912.974 489.112
2814 0 121.221 15.2861 1853 92.2995 912.068 489.552
2815 0 127.409 14.0964 1796 102.252 912.254 486.766
2816 0 130.359 13.8541 1806 102.581 912.774 483.688
2817 0 133.256 13.7705 1835 100.803 912.468 480.341
2818 0 138.241 14.236 1968 98.9411 913.001 479.809
2819 0 139.216 13.7987 1921 101.713 911.786 476.623
2820 0 146.205 13.7957 2017 101.265 911.673 474.842
2821 0 148.278 13.7917 2045 100.449 911.279 474.078
2822 0 152.234 13.7223 2089 100.932 911.161 470.57
2823 0 156.34 13.2723 2075 101.975 911.475 469.483
2824 0 160.35 13.2647 2127 100.854 910.968 463.636
2825 0 165.374 14.2888 2363 98.0372 911.274 463.021
2826 0 170.23 13.0177 2216 101.255 911.836 465.51
2827 0 175.3 14.3811 2521 98.2412 911.872 458.94
2828 0 178.392 13.7001 2444 100.384 911.502 455.412
2829 0 185.263 13.7426 2546 98.989 911.293 452.09
2830 0 189.277 13.3402 2525 99.7857 911.92 446.559
2831 0 195.281 12.9557 2530 99.0565 911.932 444.251
2832 0 201.344 13.6036 2739 97.0843 912.293 441.388
2833 1 35.1 9.11681 320 73.5812 913.322 529.691
2834 0 39.087 11.436 447 82.1611 911.973 530.85
2835 0 43.034 11.1075 478 83.5732 914.05 530.466
2836 0 42.0342 10.539 443 86.7675 913.973 528.894
2837 0 45.0465 10.9665 494 85.1822 913.846 528.899
2838 0 45.1916 11.6836 528 85.8996 913.79 529.142
2839 0 47.1701 11.5963 547 84.4095 912.814 528.408
2840 0 47.19 11.1676 527 86.7059 912.385 527.254
2841 0 50.2444 12.081 607 85.2059 912.817 527.4
2842 0 50.1163 11.7926 591 85.5042 912.408 526.949
2843 0 51.194 11.4857 588 84.8878 912.687 527.26
2844 0 53.1241 10.899 579 81.1554 912.354 526.366
2845 0 54.1131 10.2193 553 81.3418 912.085 524.146
2846 0 58.0812 10.8985 633 79.8341 912.531 525.689
2847 0 59.1359 10.8733 643 79.9129 912.622 524.076
2848 0 61.1142 10.914 667 79.9505 912.04 522.342
2849 0 63.1984 10.2534 648 81.5957 912.431 521.795
2850 0 63.2011 10.5536 667 125.601 913.351 521.381
2851 0 68.1514 11.313 771 85.2153 912.968 517.918
2852 1 37.0135 9.75319 361 78.9363 913.127 534.382
2853 0 39.023 10.3016 402 74.6816 912.59 534.667
2854 0 40.0057 9.92359 397 76.2972 912.277 532.725
2855 0 40.0544 10.8852 436 76.3349 913.234 530.97
2856 0 44.1693 10.6182 469 86.5181 911.595 530.403
2857 0 45.031 10.415 469 83.4222 913.992 529.989
2858 0 45.0132 10.9079 491 84.0122 913.847 528.652
2859 0 47.019 11.0381 519 82.8748 915.069 529.048
2860 0 49.0089 11.2837 553 81.1772 915.383 527.045
2861 0 50.0463 11.6892 585 81.1145 915.21 525.072
2862 0 50.0206 10.8156 541 82.7837 914.767 525.096
2863 0 54.0659 11.9854 648 78.7438 915.417 526.302
2864 0 55.046 12.5895 693 79.2814 914.506 523.97
2865 0 56.013 11.7473 658 80.8967 913.956 524.901
2866 0 57.0216 11.9955 684 81.0132 913.402 522.925
2867 0 59.0225 11.6566 688 80.9549 914.083 524.179
2868 0 62.0198 11.6576 723 80.1037 913.871 523.358
2869 0 60.0272 11.045 663 83.5445 913.48 520.728
2870 0 63.0062 11.6179 732 82.5751 913.219 520.21
2871 0 64.0289 12.1664 779 81.5584 912.938 520.512
2872 0 65.0639 11.6962 761 83.1892 912.733 519.167
2873 0 68.0801 11.9859 816 81.3137 913.137 517.879
2874 0 69.1219 11.7474 812 82.2919 912.605 516.805
2875 0 73.181 11.574 847 82.2515 912.922 515.373
2876 0 74.08 11.3661 842 83.4834 912.318 514.138
2877 0 75.139 11.858 891 82.8687 913.049 513.607
2878 0 79.2697 12.0727 957 81.2686 912.399 510.583
2879 0 82.236 11.4062 938 82.8539 912.845 508.862
2880 0 82.2972 11.4949 946 83.5307 912.401 505.367
2881 0 86.1927 11.4975 991 82.8234 912.197 505.926
2882 1 46.0476 10.1634 468 76.3782 912.049 528.801
2883 0 48.0144 10.4969 504 79.25 913.361 528.649
2884 0 51.1796 11.0591 566 78.5459 911.59 527.682
2885 0 52.1283 11.7595 613 80.044 912.845 526.643
2886 0 54.0174 11.2556 608 82.1168 913.35 525.86
2887 0 55.118 12.4279 685 81.9489 911.27 524.432
2888 0 57.1432 12.0924 691 82.1751 912.334 524.89
2889 0 58.1108 12.0804 702 82.6937 912.097 522.51
2890 0 60.0898 13.0638 785 79.9096 911.805 522.828
2891 0 60.1271 12.4237 747 80.7242 911.909 521.452
2892 0 65.0391 12.6847 825 71.3624 912.738 520.396
2893 0 63.0354 12.1836 768 80.3164 913.15 518.816
2894 0 64.0483 12.5374 803 82.7858 912.661 518.548
2895 0 66.0294 12.3278 814 86.4582 913.305 518.812
2896 0 65.1123 12.4554 811 82.4575 913.286 517.538
2897 0 66.0239 12.7227 840 83.95 913.457 516.758
2898 0 67.057 12.7354 854 85.4696 913.184 517.403
2899 0 66.0372 12.7655 843 87.6394 913.085 516.658
2900 0 68.0285 12.8329 873 86.4708 912.737 517.386
2901 0 70.0466 12.6344 885 85.0701 912.612 516.599
2902 0 72.0651 12.7524 919 84.0544 913.11 514.051
2903 0 74.0438 12.7627 945 82.1048 913.017 513.894
2904 0 77.1074 13.7341 1059 79.8093 912.857 512.863
2905 0 80.0922 12.5356 1004 81.6295 913.168 510.881
2906 0 82.1174 12.8475 1055 80.0948 912.659 509.69
2907 0 83.0805 12.8069 1064 79.782 913.718 509.467
2908 0 87.1652 12.7344 1110 79.8144 912.694 508.447
2909 1 45.0249 10.0611 453 76.7528 913.378 530.119
2910 0 47.0198 10.7614 506 77.085 913.842 528.706
2911 0 47.0478 11.3289 533 80.4634 913.839 527.709
2912 0 48.0357 11.7204 563 82.4281 913.272 527.421
2913 0 49.0508 11.8245 580 90.15 912.49 526.602
2914 0 50.0226 12.3344 617 80.4895 913.251 528.013
2915 0 50.0205 11.0755 554 88.2238 913.471 526.807
2916 0 53.0217 11.8065 626 86.6582 912.954 526.692
2917 0 54.0214 11.9953 648 87.0586 914.057 524.98
2918 0 56.01 11.9086 667 88.5502 913.499 525.592
2919 0 56.0652 11.4153 640 91.2766 912.752 524.389
2920 0 56.026 11.3162 634 93.5284 912.222 523.218
2921 0 59.0261 12.3335 728 91.9945 912.589 522.643
2922 0 61.04 12.3689 755 93.6967 913.413 522.783
2923 0 60.0184 11.913 715 97.1161 913.257 522.696
2924 0 62.0484 12.2002 757 99.9802 912.971 521.857
2925 0 62.0198 11.4963 713 107.107 912.933 520.985
2926 0 65.0069 12.1833 792 107.202 913.414 520.766
2927 0 66.0171 12.2847 811 111.61 913.933 518.704
2928 0 68.0278 13.0388 887 116 914.132 520.018
2929 0 68.0569 12.9451 881 123.835 914.492 518.16
2930 0 72.0511 13.4904 972 123.991 913.593 516.572
2931 0 73.0397 12.8834 941 130.452 913.064 515.558
2932 0 74.0633 12.8134 949 132.097 912.981 515.482
2933 0 75.1441 12.3895 931 130.069 913.261 515.814
2934 0 76.119 12.2703 934 131.872 912.828 515.033
2935 0 78.1632 12.6786 991 132.431 913.263 513.86
2936 0 82.1407 12.9169 1061 137.898 912.601 511.233
2937 0 86.1688 13.0209 1122 137.898 913.276 510.161
2938 0 88.1188 13.1981 1163 135.882 912.93 509.773
2939 0 88.1166 12.5856 1109 140.633 913.023 507.716
2940 1 50.04 10.4516 523 140.065 913.067 527.629
2941 0 51.1091 11.0939 567 133.362 912.735 526.339
2942 0 52.0819 12.0963 630 121.037 913.233 526.621
2943 0 53.0775 11.8694 630 122.995 913.014 526.402
2944 0 54.0067 11.98 647 134.252 913.326 526.151
2945 0 57.0154 12.8386 732 129.209 913.684 523.723
2946 0 57.0228 12.118 691 131.388 912.996 522.57
2947 0 58.0523 10.9556 636 127.489 913.755 523.772
2948 0 59.0646 11.1573 659 126.607 913.454 523.508
2949 0 60.0167 12.2799 737 128.11 914.22 522.266
2950 0 61.0894 12.0152 734 123.507 913.091 522.38
2951 0 62.0414 11.9275 740 125.447 913.228 520.601
2952 0 64.0815 11.8287 758 126.149 913.84 520.566
2953 0 69.1005 12.0549 833 123.932 913.366 519.537
2954 0 71.1055 12.4604 886 124.077 913.293 518.225
2955 0 74.2108 12.7071 943 124.179 912.671 515.936
2956 0 76.1713 12.4325 947 125.458 912.423 514.267
2957 0 78.302 12.5923 986 125.237 912.012 512.224
2958 0 81.2785 12.9678 1054 123.173 912.368 510.853
2959 0 83.2905 13.2788 1106 119.815 911.927 509.344
2960 0 87.3202 12.9523 1131 120.06 911.936 505.665
2961 0 89.3756 12.744 1139 119.987 910.713 504.582
2962 0 91.0817 11.9343 1087 114.373 911.724 505.742
2963 0 93.1767 11.8055 1100 112.693 911.881 504.852
2964 1 48.0163 10.1632 488 110.607 912.451 527.852
2965 0 50.0562 10.2285 512 107.688 912.008 527.494
2966 0 51.0333 10.9928 561 105.456 912.289 525.462
2967 0 51.0319 10.9539 559 105.594 911.979 525.283
2968 0 56.04 12.3305 691 106.893 912.418 525.577
2969 0 56.0423 11.866 665 102.22 912.917 523.191
2970 0 58.0558 12.7119 738 105.042 912.603 522.775
2971 0 60.0502 13.2722 797 105.458 912.891 521.561
2972 0 62.0492 12.474 774 106.479 913.606 519.231
2973 0 64.0148 13.2313 847 102.961 912.667 519.854
2974 0 66.0352 12.9476 855 103.232 912.957 518.026
2975 0 69.0714 13.6381 942 99.3482 912.166 518.297
2976 0 70.0696 13.4723 944 99.3263 913.077 517.891
2977 0 73.0316 13.8022 1008 97.7808 912.309 517.041
2978 0 73.0378 13.5272 988 100.183 913.18 514.452
2979 0 75.0643 13.6949 1028 99.5603 912.453 515.124
2980 0 76.0887 13.1294 999 101.049 912.854 513.153
2981 0 79.1544 14.0485 1112 97.7707 912.303 512.719
2982 0 82.1679 13.947 1146 95.2426 911.567 511.692
2983 0 83.0602 13.5203 1123 96.3161 912.402 509.194
2984 0 86.1044 13.9598 1202 95.2787 911.964 507.682
2985 0 86.1239 13.736 1183 95.7092 912.977 507.114
2986 0 90.2494 13.2522 1196 97.6965 913.164 506.819
2987 0 93.1789 14.1341 1317 95.8109 912.745 504.453
2988 0 95.1243 13.7609 1309 95.5821 912.703 504.18
2989 0 99.1149 12.8033 1269 96.9882 913.255 502.463
2990 0 104.181 13.6493 1422 94.1885 913.001 498.946
2991 0 107.136 13.1049 1404 94.9309 913.67 495.874
2992 0 110.206 13.0029 1433 95.6978 912.927 493.823
2993 0 114.096 13.3046 1518 94.9262 912.308 493.233
2994 1 63.1215 11.5175 727 93.7153 912.583 519.631
2995 0 64.0976 11.4825 736 90.3546 912.607 513.474
2996 0 66.101 12.4204 821 90.5676 912.508 512.446
2997 0 68.0653 11.9738 815 93.2871 913.384 516.51
2998 0 71.0739 12.2549 871 91.7049 913.292 515.222
2999 0 73.127 12.0202 879 91.1104 912.317 514.702
3000 0 75.1605 12.1207 911 90.0044 912.305 511.821
3001 0 76.1473 12.2657 934 89.8929 912.461 512.579
3002 0 79.1687 12.2902 973 89.667 912.863 511.962
3003 0 82.2814 12.2992 1012 88.6443 912.439 509.863
3004 0 86.2555 12.5441 1082 88.1784 912.697 509.503
3005 0 88.2634 12.4627 1100 88.3191 912.315 508.208
3006 0 91.1899 13.1703 1201 87.4638 912.815 507.731
3007 0 92.2367 12.6522 1167 89.0883 912.414 506.077
3008 0 96.2656 12.2889 1183 90.0008 912.779 503.114
3009 0 97.3148 11.992 1167 91.665 911.913 501.349
3010 0 102.27 12.4181 1270 90.2811 912.634 500
3011 0 102.203 12.3381 1261 91.46 912.523 498.098
3012 0 107.171 12.2048 1308 91.5719 912.481 496.243
3013 0 112.213 12.7793 1434 89.3975 913.234 492.549
3014 0 112.177 13.4609 1510 85.4728 912.756 491.607
3015 0 119.271 12.1824 1453 91.4061 913.211 488.2
3016 1 63.2124 10.6308 672 84.7515 913.796 516.54
3017 0 68.0609 11.8717 808 84.3552 913.291 516.547
3018 0 69.1038 11.7504 812 85.4052 913.346 514.425
3019 0 73.2246 12.1544 890 84.8348 912.871 511.947
3020 0 76.2745 12.4419 949 85.8672 912.22 510.009
3021 0 77.2154 12.4975 965 86.7171 912.52 508.453
3022 0 80.2923 12.7534 1024 86.585 911.63 506.932
3023 0 82.2508 12.4497 1024 88.5752 911.931 504.876
3024 0 86.2023 12.7723 1101 87.1553 911.663 504.615
3025 0 89.2298 12.7872 1141 87.8195 912.229 502.955
3026 0 90.3151 13.0321 1177 89.26 911.975 501.068
3027 0 93.3881 12.946 1209 90.5558 911.982 500.137
3028 0 96.3818 12.8759 1241 90.4569 911.872 499.011
3029 0 100.304 12.5519 1259 92.2248 912.471 496.809
3030 0 102.316 12.7058 1300 92.6885 912.308 496.089
3031 1 54.2456 11.2267 609 86.1823 912.997 521.603
3032 0 54.13 11.4909 622 88.5932 912.63 522.199
3033 0 58.1691 12.1026 704 86.9418 912.862 520.686
3034 0 59.0902 11.9817 708 90.6723 913.911 521.042
3035 0 62.0693 12.5344 778 90.1594 914.217 518.888
3036 0 62.0709 12.2763 762 92.7953 912.661 516.785
3037 0 65.0871 11.7688 766 94.2494 913.005 515.824
3038 0 67.075 11.8375 794 93.3526 913.504 515.529
3039 0 70.1215 12.7493 894 92.7461 914.05 514.531
3040 0 72.1703 12.1795 879 93.5006 913.573 514.15
3041 0 72.1321 12.2414 883 95.3601 913.795 512.262
3042 0 76.0829 12.4338 946 96.1723 914.285 511.057
3043 0 79.134 13.3445 1056 93.59 913.71 511.956
3044 0 82.1041 13.7265 1127 94.1775 913.406 508.666
3045 0 84.0871 13.2125 1111 95.207 913.201 507.546
3046 0 83.0992 13.1891 1096 97.4991 913.329 505.652
3047 0 87.0778 13.4018 1167 97.15 913.308 505.465
3048 0 91.0765 13.2306 1205 97.8407 913.671 505.262
3049 0 92.1274 13.4488 1239 98.477 913.67 503.059
3050 0 96.1452 13.4692 1295 97.4533 913.544 501.242
3051 0 98.2088 14.0008 1375 97.6771 914.355 497.018
3052 0 101.168 13.5814 1374 98.1004 913.865 498.072
3053 0 103.113 12.9567 1336 99.3151 914.504 494.782
3054 0 108.097 13.8579 1498 95.4372 913.991 492.684
3055 1 58.1061 10.6701 620 90.0903 914.444 520.302
3056 0 59.2428 11.1912 663 95.6395 914.004 516.148
3057 0 61.2366 11.0881 679 93.3579 914.393 515.673
3058 0 63.1505 11.6864 738 88.7507 914.346 516.938
3059 0 65.13 12.667 825 90.0412 914.623 517.137
3060 0 69.1548 12.2913 850 89.7224 914.365 514.859
3061 0 70.1013 12.3536 866 89.8938 914.035 513.497
3062 0 70.1295 12.1062 849 90.7326 913.89 512.38
3063 0 75.1467 12.2028 917 88.0054 914.161 511.587
3064 0 78.1064 12.9823 1014 89.068 913.841 509.971
3065 0 80.1179 12.4566 998 86.4238 913.817 508.966
3066 0 83.1388 12.6776 1054 84.7059 913.033 506.957
3067 0 86.1064 12.4613 1073 86.15 913.257 504.873
3068 0 88.1328 12.2656 1081 86.2905 913.204 503.754
3069 0 89.1279 11.5003 1025 86.1161 913.197 503.116
3070 0 94.0996 12.3274 1160 84.15 913.178 502.384
3071 0 97.1455 11.6217 1129 85.0115 912.572 500.816
3072 1 50.0349 10.4127 521 78.2534 914.255 525.263
3073 0 50.1077 10.1581 509 78.6306 913.862 524.356
3074 0 54.1013 11.0903 600 75.9733 914.122 523.375
3075 0 54.0478 11.9894 648 80.5247 913.628 521.142
3076 0 57.0863 11.9468 682 86.6833 912.414 522.339
3077 0 58.1817 13.011 757 84.9458 913.083 521.62
3078 0 60.1093 11.5789 696 89.6379 912.48 519.296
3079 0 62.1517 11.3754 707 89.6322 912.912 518.233
3080 0 64.2574 12.3254 792 87.8207 912.593 519.197
3081 0 66.1606 11.8197 782 90.0524 912.483 518.387
3082 0 68.2187 12.5186 854 89.7436 912.26 516.944
3083 0 69.2768 12.9336 896 88.9252 912.281 515.597
3084 0 72.2258 12.6548 914 90.1827 912.591 515.295
3085 0 74.2457 12.957 962 89.4626 912.821 514.211
3086 0 77.2948 12.8469 993 89.9517 912.821 512.957
3087 0 78.2179 13.1428 1028 90.9329 913.029 511.941
3088 0 81.2183 12.7434 1035 91.7778 912.932 511.955
3089 0 83.2755 12.6088 1050 92.221 912.81 509.427
3090 0 86.1842 13.0998 1129 91.9867 913.174 507.101
3091 0 88.083 12.4315 1095 91.431 913.178 505.329
3092 0 91.1514 13.1649 1200 88.3625 913.442 505.389
3093 0 93.1036 12.5559 1169 90.9187 913.378 503.273
3094 0 97.1067 13.7375 1334 88.3628 913.007 501.969
3095 0 100.127 12.7838 1280 91.7914 913.404 500.642
3096 0 102.106 12.536 1280 92.332 913.404 500.066
3097 0 103.108 11.9293 1230 93.787 913.525 498.296
3098 0 106.076 12.1139 1285 91.9331 913.462 495.805
3099 0 111.122 12.0048 1334 91.7084 912.408 494.667
3100 0 115.17 12.5814 1449 90.4389 912.84 491.709
3101 0 118.095 12.5069 1477 90.1902 913.087 492.743
3102 0 122.158 12.1973 1490 90.8631 912.719 488.313
3103 0 127.174 12.6834 1613 89.3943 912.676 487.335
3104 0 130.208 13.2865 1730 88.1682 912.742 484.608
3105 0 136.303 12.5089 1705 89.2669 912.903 481.374
3106 1 74.1365 12.1802 903 80.3101 913.431 515.164
3107 0 74.0839 11.7299 869 84.168 913.673 514.403
3108 0 78.0788 11.9367 932 84.456 913.484 512.123
3109 0 79.1111 11.9326 944 85.929 913.605 511.625
3110 0 81.1694 11.7162 951 91.5247 913.428 509.033
3111 0 83.1163 12.1276 1008 89.7232 913.173 507.321
3112 0 88.1401 12.5255 1104 87.5172 912.847 505.9
3113 0 91.1509 12.5945 1148 86.7936 913.055 504.705
3114 0 92.1142 11.7463 1082 88.1987 913.158 503.383
3115 0 94.1384 11.6637 1098 88.5373 913.567 502.493
3116 0 98.0912 11.9073 1168 88.1806 912.824 499.841
3117 0 101.109 12.1057 1224 87.1103 913.397 499.947
3118 0 106.28 12.2507 1302 85.8141 912.224 498.458
3119 0 108.281 11.701 1267 87.412 912.096 495.348
3120 1 59.19 9.61311 569 85.4833 912.302 520.596
3121 0 64.0988 11.3107 725 81.4497 912.157 518.655
3122 0 64.1455 10.5229 675 83.003 912.372 520.076
3123 0 66.1025 10.7863 713 84.1879 912.762 516.934
3124 0 68.0642 10.2697 699 83.1116 912.934 518.207
3125 0 71.1177 11.0943 789 82.27 912.252 513.485
3126 0 75.0969 11.332 851 82.2808 912.463 511.646
3127 0 76.0822 11.3561 864 82.5856 912.904 513.781
3128 0 80.0833 12.8866 1032 78.1298 913.39 513.127
3129 0 81.1819 11.8253 960 81.8094 912.796 510.704
3130 0 85.1629 12.8342 1093 79.3861 913.235 507.822
3131 0 85.0999 12.2914 1046 85.0143 912.931 506.505
3132 0 89.1852 13.1188 1170 85.5222 912.9 505.396
3133 0 92.1222 12.3749 1140 86.9579 912.811 505.116
3134 0 94.1431 12.4066 1168 88.2637 912.831 501.47
3135 0 100.167 13.6273 1365 84.1304 912.527 501.59
3136 0 101.143 12.774 1292 86.3591 912.211 500.733
3137 0 101.212 11.5797 1172 81.3089 912.991 500.15
3138 0 105.071 10.5738 1111 82.9865 913.134 499.226
3139 0 109.108 11.7589 1283 81.7896 912.799 496.964
3140 0 115.129 11.4654 1320 83.5023 913.056 492.647
3141 0 120.098 12.24 1470 81.0864 912.888 491.039
3142 1 63.0207 10.679 673 78.055 913.648 519.605
3143 0 64.0834 10.9389 701 79.6448 912.536 517.649
3144 0 67.1097 11.6228 780 80.0615 912.55 513.376
3145 0 68.0293 11.6714 794 80.5668 912.981 514.334
3146 0 72.1334 11.7699 849 80.6761 912.644 513.231
3147 0 75.1114 12.102 909 80.3674 912.56 509.607
3148 0 76.14 11.8203 900 82.1056 912.994 510.791
3149 0 79.1285 12.5745 995 80.605 912.94 507.424
3150 0 83.1289 12.7272 1058 80.3875 913.031 508.146
3151 0 83.1294 12.7031 1056 81.3816 913.396 506.955
3152 0 87.1366 12.819 1117 82.6768 912.852 505.51
3153 0 90.1562 12.5893 1135 82.2943 913.204 504.446
3154 0 91.1547 12.4733 1137 83.4081 912.463 502.192
3155 0 92.1272 12.2114 1125 85.7547 913.264 500.637
3156 0 95.1068 11.9865 1140 85.8982 913.12 497.216
3157 0 101.105 12.492 1263 84.5392 913.671 497.415
3158 0 103.162 12.2526 1264 85.4786 913.153 492.41
3159 0 103.162 12.2526 1264 139.285 912.174 492.357
3160 1 56.0362 10.2255 573 78.1222 914.415 521.836
3161 0 58.0442 10.7677 625 76.4896 914.475 521.565
3162 0 59.0127 11.4552 676 75.571 913.803 520.299
3163 0 59.0329 11.3665 671 77.5052 913.997 520.616
3164 0 63.0594 11.5129 726 80.4959 913.85 520.193
3165 0 64.0902 12.6228 809 74.5637 913.643 519.587
3166 0 64.1242 10.9007 699 78.412 913.094 518.672
3167 0 66.0861 11.1673 738 77.8144 914.255 517.653
3168 0 66.0861 11.3034 747 139.858 915.236 517.59
3169 0 72.1432 11.0752 799 78.5444 913.895 516.091
3170 0 74.0718 11.8129 875 78.5326 914.031 516.446
3171 0 76.0815 11.8557 902 80.7018 914.244 513.143
3172 0 78.1507 12.5911 984 80.4329 913.674 512.526
3173 0 79.1144 12.1343 960 83.55 913.475 512.388
3174 0 83.1056 12.2856 1021 84.093 913.262 510.007
3175 0 85.1141 12.7241 1083 83.855 913.211 507.361
3176 0 87.0931 12.4579 1085 86.0452 912.786 508.594
3177 0 91.1354 12.7612 1163 87.6552 912.93 506.332
3178 0 91.1306 12.4437 1134 90.1772 912.946 505.199
3179 0 95.0919 12.9874 1235 90.7992 913.006 503.491
3180 0 96.0828 12.3019 1182 93.6531 912.591 502.908
3181 0 100.184 12.7665 1279 95.1697 913.159 498.812
3182 0 103.178 13.1811 1360 95.389 912.315 496.982
3183 0 105.158 12.4764 1312 98.2157 913.36 496.371
3184 0 110.156 12.8454 1415 97.3053 912.654 494.151
3185 0 112.156 13.0978 1469 98.1504 912.707 491.892
3186 1 58.187 10.6725 621 92.0515 913.034 521.744
3187 0 59.1707 9.88666 585 93.8462 913.135 521.976
3188 0 60.1501 10.8395 652 91.0153 912.911 521.063
3189 0 62.099 11.0469 686 91.691 912.784 518.516
3190 0 64.0531 12.3804 793 89.1198 913.262 519.879
3191 0 66.0851 11.576 765 91.0601 912.905 516.929
3192 0 69.0983 12.8078 885 97.1582 913.097 517.319
3193 0 70.1529 12.8434 901 96.1421 913.351 515.809
3194 0 72.1355 12.6013 909 96.7481 912.9 514.792
3195 0 76.0994 13.0619 994 93.7767 912.637 514.604
3196 0 76.1177 12.796 974 94.9938 912.313 512.727
3197 0 78.1278 12.6076 985 146.377 912.308 512.626
3198 0 81.1131 11.9956 973 95.8592 912.761 509.567
3199 0 81.1324 12.1776 988 95.3178 912.746 507.74
3200 0 85.1659 11.9884 1021 94.0186 913.027 507.644
3201 0 88.1577 12.523 1104 92.1929 912.863 506.216
3202 0 88.1633 11.6942 1031 92.8972 912.89 505.553
3203 0 90.1096 12.1741 1097 91.9526 912.267 503.005
3204 0 96.1098 12.184 1171 89.7481 913.366 502.12
3205 0 95.1141 11.7333 1116 91.466 913.057 499.642
3206 0 100.09 12.1191 1213 89.9373 913.813 499.824
3207 0 102.13 11.6127 1186 89.7411 912.568 500.1
3208 0 107.163 12.5789 1348 87.23 912.895 496.404
3209 0 108.117 11.728 1268 88.791 911.77 494.386
3210 0 110.15 12.1743 1341 87.7323 912.828 492.424
3211 0 114.164 11.8076 1348 86.3539 912.603 491.822
3212 0 119.247 11.5978 1383 85.7079 912.268 487.956
3213 0 123.113 11.6072 1429 85.7124 912.525 488.798
3214 0 128.187 11.8031 1513 86.4012 913.24 486.646
3215 0 131.168 11.7026 1535 85.6515 912.665 483.206
3216 1 67.0579 10.3642 695 78.5842 913.767 517.511
3217 0 68.123 11.0829 755 77.7735 912.698 516.509
3218 0 68.1072 11.4525 780 78.6692 913.414 513.974
3219 0 72.0957 10.9993 793 78.1576 914.06 514.81
3220 0 73.098 12.0113 878 77.7221 913.227 512.821
3221 0 75.1449 11.4579 861 79.2474 913.389 512.605
3222 0 78.113 11.4962 898 79.5713 913.13 511.077
3223 0 80.1034 12.3091 986 80.7931 913.894 509.131
3224 0 82.1525 12.5985 1035 83.6812 913.36 509.08
3225 0 84.171 12.2964 1035 84.4087 913.262 506.932
3226 0 87.317 11.9679 1045 85.533 913.516 505.104
3227 0 90.141 11.8148 1065 85.3916 913.882 502.486
3228 0 94.2096 12.0688 1137 83.4494 914.088 499.8
3229 0 95.1298 11.9206 1134 83.6464 914.118 499.416
3230 0 99.1188 12.1269 1202 82.9276 914.404 498.366
3231 0 103.147 12.6228 1302 81.6198 914.209 497.778
3232 0 104.229 12.1079 1262 83.7789 913.91 494.146
3233 0 110.271 11.8072 1302 84.2634 913.72 492.983
3234 0 113.116 11.1744 1264 86.3647 913.649 491.46
3235 1 60.1003 11.9467 718 81.5306 913.603 518.245
3236 0 61.1487 11.9545 731 83.7018 914.494 517.558
3237 0 65.1417 13.3708 871 81.2962 914.379 516.121
3238 0 67.0881 13.6984 919 87.0239 914.63 515.584
3239 0 66.0928 12.7699 844 90.5308 914.508 516.278
3240 0 70.0192 13.3963 938 89.0778 914.513 514.656
3241 0 71.1233 13.0618 929 90.8138 913.787 514.201
3242 0 74.1231 13.3157 987 90.8744 913.649 512.701
3243 0 75.1064 13.1414 987 92.5279 912.719 511.223
3244 0 77.0607 13.3661 1030 92.5845 913.614 510.914
3245 0 81.1387 13.4091 1088 91.6553 912.688 508.988
3246 0 83.111 13.8369 1150 91.9052 913.609 509.104
3247 0 85.0786 13.5404 1152 92.349 912.9 505.701
3248 0 88.0654 13.4673 1186 91.3061 913.718 506.005
3249 0 92.1019 13.6914 1261 89.563 912.883 503.492
3250 0 94.184 13.6541 1286 88.5156 912.437 502.66
3251 1 48.1262 11.1789 538 92.1691 912.92 523.874
3252 0 49.1975 11.6063 571 90.9072 913.147 520.193
3253 0 52.1473 12.9441 675 87.4193 913.122 518.264
3254 0 53.1598 13.6005 723 88.6376 912.564 521.772
3255 0 55.1023 13.611 750 90.6013 913.213 516.76
3256 0 55.1677 13.6493 753 91.2178 912.911 520.486
3257 0 57.0503 13.567 774 91.1628 912.988 520.505
3258 0 59.097 13.8586 819 91.486 912.686 520.044
3259 0 59.116 14.0233 829 93.1496 912.063 518.157
3260 0 62.0963 14.2038 882 92.4807 912.994 516.957
3261 0 65.2136 14.5215 947 92.3791 912.386 516.699
3262 0 67.0932 14.4426 969 94.3127 913.002 516.625
3263 0 68.1294 14.5458 991 94.7245 912.72 516.087
3264 0 70.1706 14.3222 1005 95.9771 913.35 515.14
3265 0 72.0908 14.1488 1020 96.8912 913.198 515.376
3266 0 75.2269 14.875 1119 96.9589 913.742 514.012
3267 0 75.1399 14.9455 1123 98.7124 913.42 512.101
3268 0 77.1366 14.1956 1095 100.366 913.639 510.508
3269 0 82.267 14.3071 1177 100.193 912.783 508.408
3270 0 84.1599 14.6863 1236 100.489 913.245 507.874
3271 0 85.1628 14.2316 1212 102.751 913.068 506.054
3272 0 88.1744 14.46 1275 103.687 913.059 504.733
3273 0 93.1544 14.6209 1362 101.735 912.392 500.675
3274 0 93.2484 14.5847 1360 103.049 913.135 500.504
3275 0 99.1768 14.4691 1435 102.137 912.082 498.916
3276 0 102.162 13.9582 1426 104.483 912.5 495.635
3277 0 104.076 13.5766 1413 102.841 912.389 494.299
3278 1 56.0534 12.9519 726 105.212 913.088 517.581
3279 0 57.0542 13.6537 779 104.268 912.772 517.727
3280 0 59.0902 13.7925 815 103.499 912.726 512.514
3281 0 60.0776 13.416 806 102.355 912.656 510.943
3282 0 62.0592 13.7288 852 101.906 912.77 511.011
3283 0 64.0577 14.362 920 99.2685 912.647 511.539
3284 0 67.061 14.5539 976 98.2018 913.177 510.26
3285 0 67.0433 13.7225 920 102.499 912.401 509.015
3286 0 71.0629 14.3957 1023 99.7605 912.11 508.713
3287 0 72.0402 14.2837 1029 100.872 912.857 507.9
3288 0 75.1681 14.4343 1085 101.227 912.781 506.293
3289 0 76.0734 14.8935 1133 100.493 913.26 505.274
3290 0 79.0738 14.2652 1128 101.83 913.776 505.393
3291 0 83.0326 14.9821 1244 99.242 913.041 502.551
3292 0 84.0836 14.8543 1249 100.277 912.935 502.111
3293 0 85.1113 13.9464 1187 103.125 912.413 500.699
3294 0 88.1104 14.4705 1275 102.784 912.823 499.422
3295 0 92.0853 14.4323 1329 103.513 913.481 498.306
3296 0 94.1115 14.1003 1327 105.156 913.292 496.386
3297 0 97.0858 14.5232 1410 104.012 912.892 496.398
3298 0 101.161 14.6697 1484 104.744 912.669 494.087
3299 0 105.166 14.9572 1573 103.69 913.112 493.163
3300 0 107.158 14.8286 1589 106.17 912.34 491.237
3301 0 110.09 14.579 1605 107.26 913.287 489.986
3302 1 54.0222 13.1983 713 115.56 913.513 515.801
3303 0 55.0404 13.699 754 116.838 913.252 515.041
3304 0 56.0615 13.5744 761 118.053 913.271 514.116
3305 0 58.0896 14.3571 834 118.293 913.034 514.217
3306 0 61.059 15.0183 917 116.678 913.013 511.832
3307 0 63.0605 15.0649 950 118.094 913.122 512.058
3308 0 64.0295 15.04 963 118.634 912.89 510.659
3309 0 66.1299 15.3939 1018 119.488 913.459 510.733
3310 0 69.0921 14.7629 1020 120.548 913.172 510.208
3311 0 70.0426 15.1622 1062 121.353 913.707 508.779
3312 0 75.0495 15.7896 1185 117.991 913.77 506.554
3313 0 75.0906 15.0352 1129 121.485 913.631 504.848
3314 0 79.073 14.7712 1168 121.857 913.513 503.755
3315 0 84.0757 14.9746 1259 119.075 912.662 504.596
3316 0 84.1191 15.0501 1266 121.41 912.558 499.473
3317 0 90.1133 15.0477 1356 118.463 912.284 501.388
3318 0 91.143 15.5031 1413 117.241 912.91 500.076
3319 0 95.0828 14.9764 1424 118.22 913.03 497.85
3320 0 99.1665 15.0252 1490 116.33 912.254 495.607
3321 1 47.0559 13.0058 612 128.864 913.593 516.92
3322 0 51.0273 13.2282 675 124.809 913.25 515.724
3323 0 54.1034 14.4538 782 119.414 912.808 514.16
3324 0 53.0311 14.3689 762 121.458 913.126 511.585
3325 0 54.0417 14.4703 782 121.151 912.339 510.06
3326 0 58.0695 14.5687 846 118.811 913.091 510.17
3327 0 59.0591 15.0527 889 117.562 913.214 508.609
3328 0 63.0195 14.4241 909 115.628 913.466 508.892
3329 0 63.0573 15.2084 959 114.425 913.485 509.343
3330 0 65.0211 14.9028 969 115.322 913.352 507.573
3331 0 71.1519 14.5885 1038 112.911 913.006 506.227
3332 0 75.0931 14.9281 1121 109.557 912.902 506.028
3333 0 71.052 14.8061 1052 114.667 913.358 503.882
3334 0 76.1605 14.5745 1110 112.877 913.439 502.223
3335 0 76.1358 14.7106 1120 113.65 912.966 498.379
3336 0 81.0703 14.5923 1183 112.845 912.821 497.846
3337 0 83.139 14.8546 1235 111.821 912.852 496.158
3338 0 84.1806 14.8965 1254 113.058 912.916 494.737
3339 0 89.0899 14.9849 1335 112.622 913.073 494.157
3340 0 91.1558 14.7879 1348 113.256 912.942 493.757
3341 0 93.0746 14.9987 1396 114.646 912.822 491.264
3342 0 99.1609 14.7639 1464 113.881 913.102 490.495
3343 0 103.191 14.5167 1498 116.332 912.943 487.439
3344 1 43.1486 10.0814 435 106.262 914.037 519.28
3345 0 46.1417 10.7928 498 103.241 913.725 519.53
3346 0 45.1027 11.374 513 104.433 914.125 517.497
3347 0 45.0747 11.5586 521 105.319 913.939 517.441
3348 0 48.0624 11.7139 563 103.423 913.742 516.853
3349 0 49.1243 12.0714 593 101.884 914.14 513.99
3350 0 50.0378 11.931 597 101.816 913.082 514.747
3351 0 50.0748 11.383 570 106.044 913.086 511.54
3352 0 50.0342 11.9718 599 104.638 912.88 511.332
3353 0 56.139 11.9703 672 101.738 913.098 514.252
3354 0 53.0943 12.0917 642 104.611 913.067 511.006
3355 0 58.1787 11.8772 691 103.417 913.369 510.113
3356 0 61.1821 12.2748 751 102.692 912.935 507.999
3357 0 61.116 12.0263 735 104.823 913.66 506.781
3358 0 62.2235 12.2301 761 105.71 913.114 506.255
3359 0 67.075 11.5841 777 105.732 913.036 506.304
3360 0 68.2458 11.9128 813 106.198 913.572 503.177
3361 0 71.2002 12.1629 866 103.916 913.775 503.472
3362 0 75.1128 12.5811 945 103.763 913.184 503.924
3363 0 76.1272 12.374 942 106.28 912.833 502.108
3364 0 79.0868 12.6064 997 105.784 913.435 501.55
3365 0 83.1715 12.2879 1022 107.458 912.996 499.883
3366 0 86.1514 13.012 1121 106.384 913.206 499.856
3367 0 87.1475 12.6108 1099 107.91 912.763 498.194
3368 0 87.1113 12.3865 1079 111.498 913.006 495.872
3369 0 92.1219 12.8634 1185 108.476 912.428 495.202
3370 0 92.1717 12.4442 1147 112.661 912.599 491.675
3371 0 97.1519 12.1562 1181 113.585 912.898 490.784
3372 0 100.158 12.6999 1272 112.344 912.586 488.245
3373 0 101.149 12.4174 1256 116.278 912.504 485.346
3374 0 105.242 12.134 1277 116.812 912.05 485.986
3375 0 109.158 12.8071 1398 116.146 912.37 484.048
3376 0 111.244 12.3152 1370 119.25 912.48 480.994
3377 0 112.12 11.3004 1267 124.473 911.923 477.947
3378 0 112.12 11.2201 1258 146.474 910.911 477.928
3379 0 120.194 12.1554 1461 122.949 911.936 472.491
3380 0 125.198 11.9171 1492 123.666 912.101 468.149
3381 0 132.315 12.4022 1641 122.03 912.268 464.264
3382 0 133.35 12.441 1659 124.867 912.097 461.268
3383 0 138.266 12.3964 1714 124.616 912.904 459.987
3384 0 144.352 12.227 1765 126.374 912.1 455.506
3385 0 148.202 12.4357 1843 125.867 912.068 453.493
3386 0 153.216 12.4922 1914 127.337 913.287 449.062
3387 1 39.0488 5.09619 199 97.3769 912.688 515.799
3388 0 44.0685 4.19801 185 94.8108 912.151 517.481
3389 0 43.0505 5.04059 217 94.1106 911.687 512.585
3390 0 45.0544 5.41567 244 90.9713 912.266 513.205
3391 0 45.0589 5.83681 263 90.9924 913.095 511.373
3392 0 45.0579 6.54713 295 90.4475 912.973 511.339
3393 0 45.1035 5.5428 250 91.492 913.252 509.52
3394 0 49.1373 7.26536 357 89.3838 913.423 507.737
3395 0 50.0544 6.79261 340 90.4412 912.985 506.006
3396 0 58.239 6.88542 401 101.711 913.514 504.908
3397 0 57.2708 6.42562 368 103.418 913.389 503.59
3398 0 60.3004 6.61688 399 102.419 913.118 502.115
3399 0 62.3172 7.07669 441 102.71 912.143 498.449
3400 0 61.3109 5.98589 367 103.049 912.561 498.084
3401 0 67.3383 6.45992 435 100.223 911.828 500.064
3402 0 65.2177 6.07197 396 103.722 912.669 492.503
3403 0 68.3402 5.06291 346 103.879 912.032 494.35
3404 0 55.2614 5.95352 329 104.742 912.559 487.836
3405 1 74.2386 5.23986 389 102.347 912.56 486.532
3406 1 354.337 4.30381 1525 184.474 911.174 334.827
3407 0 361.367 4.14537 1498 180.491 911.358 339.483
3408 0 309.342 3.92446 1214 185.332 911.582 338.557
3409 1 329.66 5.90913 1948 163.84 911.174 356.603
3410 1 20.0054 3.14914 63 80.5714 913.143 531.381
3411 0 29.0452 4.23478 123 77.8943 913.171 531.431
3412 0 30.0285 4.32922 130 79.2231 912.992 532.685
3413 0 30.0349 4.99419 150 79.1867 913.073 534.267
3414 0 31.0222 5.02866 156 86.468 912.045 534.013
3415 0 32.064 5.5202 177 77.6554 912.955 530.729
3416 0 34.0713 4.81343 164 78.6585 913.433 530.707
3417 0 36.0296 2.71998 98 81.5204 913.582 532.5
3418 0 32.0155 4.59153 147 80.2109 913.633 531.184
3419 0 34.0378 5.4939 187 78.9198 914.07 528.321
3420 0 35.1528 6.68509 235 79.0298 913.689 529.413
3421 0 34.0362 5.34724 182 80.5055 912.978 528.522
3422 0 34.0956 4.45806 152 82.3421 913.303 529.908
3423 0 35.0564 5.33427 187 82.2781 912.818 529.952
3424 0 38.052 4.91432 187 84.5562 913.733 527.23
3425 0 40.0797 5.23956 210 82.1 913.438 530.219
3426 0 43.0866 3.94554 170 82.7941 913.524 531.829
3427 0 44.1032 4.96562 219 81.1507 912.269 532.269
3428 0 44.0976 3.92311 173 82.2197 912.613 532.705
3429 0 42.0734 3.70781 156 82.468 912.18 530.917
3430 0 42.0191 2.11809 89 83.6404 913.191 537.124
3431 0 48.039 4.89185 235 83.2766 912.2 527.766
3432 0 47.0475 6.48281 305 80.6525 911.83 527.272
3433 0 49.1175 4.33654 213 82.3709 912.61 528.084
3434 0 53.1242 6.92716 368 82.1603 912.794 526.476
3435 0 52.0895 7.02637 366 82.3743 912.24 525.38
3436 0 52.1374 7.09663 370 82.3162 912.622 528.092
3437 0 59.3069 9.00402 534 79.9494 912.118 524.086
3438 0 59.2438 9.16552 543 81.3665 912.184 521.866
3439 0 61.258 9.33755 572 82.1766 911.851 520.58
3440 0 62.214 9.56377 595 83.1311 911.94 518.903
3441 0 66.2478 10.0079 663 82.0317 911.555 518.802
3442 0 66.2917 9.63921 639 85.0016 911.93 515.845
3443 0 69.2013 9.50849 658 85.1991 911.41 514.644
3444 0 70.1682 9.7195 682 86.6818 911.912 514.441
3445 0 70.2367 10.1941 716 86.648 911.359 513.313
3446 0 72.211 10.0123 723 87.9903 911.463 511.835
3447 0 75.1938 10.054 756 88.5079 911.765 512.217
3448 0 78.1306 10.2521 801 88.1149 911.839 510.548
3449 0 79.1585 10.8264 857 89.1902 911.693 509.884
3450 0 80.2 9.52619 764 94.2657 912.182 510.445
3451 0 82.1026 9.208 756 95.4484 912.18 508.489
3452 0 85.1551 9.46508 806 95.2022 912.241 508.136
3453 0 88.1625 10.6281 937 94.3703 911.963 505.925
3454 0 90.1891 9.97903 900 96.3611 911.118 504.966
3455 1 48.0667 9.59084 461 86.1518 912.364 526.119
3456 0 49.154 9.82627 483 87.619 912.275 524.845
3457 0 50.0883 9.20374 461 87.3189 911.883 525.805
3458 0 52.1039 9.82652 512 87.5508 911.809 524.129
3459 0 53.067 9.76125 518 89.0676 911.73 523.988
3460 0 55.1967 9.71072 536 89.3619 912.013 521.787
3461 0 58.1554 10.5407 613 89.6933 911.507 521.261
3462 0 60.1803 11.3825 685 89.0949 911.89 520.877
3463 0 61.139 11.5802 708 90.9068 911.763 520.227
3464 0 62.1185 11.3976 708 90.6144 912.404 518.951
3465 0 65.1355 11.5605 753 91.9761 911.79 518.377
3466 0 66.2221 11.6577 772 93.0842 911.939 517.551
3467 0 69.1389 11.73 811 96.4316 911.782 516.721
3468 0 68.0496 11.33 771 97.0337 911.931 517.707
3469 0 72.101 11.9971 865 95.2405 911.823 515.343
3470 0 74.1356 11.9915 889 94.694 911.511 514.939
3471 0 75.1122 10.8904 818 98.7408 912.016 514.644
3472 0 76.1402 11.6233 885 97.9616 912.314 512.762
3473 0 78.1016 11.5363 901 98.2919 911.944 510.484
3474 0 81.0936 12.1711 987 96.4975 912.147 510.411
3475 0 83.111 11.7433 976 99.8893 912.159 509.142
3476 0 85.12 11.3722 968 100.499 911.811 508.034
3477 0 87.1011 11.7679 1025 99.3132 911.849 507.057
3478 0 91.1284 11.9502 1089 97.8219 910.687 504.785
3479 0 93.1631 11.5389 1075 100.385 911.792 501.527
3480 0 96.1319 11.9731 1151 100.258 911.784 500.591
3481 0 97.1611 11.3111 1099 103.655 912.284 499.646
3482 0 101.152 11.6557 1179 102.1 912.386 498.406
3483 0 106.198 11.5916 1231 102.943 912.748 497.796
3484 1 57.0349 11.3615 648 96.0556 912.537 520.844
3485 0 57.0651 11.005 628 90.9411 913.153 520.161
3486 0 59.0488 10.7538 635 92.0063 912.732 519.157
3487 0 63.0507 11.6573 735 100.971 912.295 516.935
3488 0 65.0889 11.4612 746 102.097 912.527 515.615
3489 0 65.1026 11.9811 780 100.731 912.753 516.449
3490 0 64.0804 11.5792 742 103.229 912.368 515.214
3491 0 69.1103 11.6191 803 103.421 912.178 513.438
3492 0 71.1621 11.6916 832 103.444 912.475 510.787
3493 0 73.066 12.0713 882 102.578 912.566 510.591
3494 0 76.1045 12.0098 914 100.479 912.755 511.743
3495 0 77.1945 12.3066 950 101.76 912.822 510.087
3496 0 80.18 12.3971 994 100.892 913.154 507.943
3497 0 83.1078 12.55 1043 100.742 912.711 508.122
3498 0 85.2312 12.7887 1090 97.6211 912.588 506.137
3499 0 87.297 12.1883 1064 97.4492 912.601 506.129
3500 0 88.2022 12.5167 1104 96.6205 912.593 504.963
3501 0 91.1467 12.5951 1148 94.466 911.76 503.985
3502 0 93.2225 12.3683 1153 94.51 912.665 500.874
3503 0 94.0792 11.4691 1079 90.7859 912.282 499.336
3504 0 98.0886 11.8974 1167 88.9769 912.726 498.18
3505 0 101.154 12.0707 1221 89.3399 912.846 499.945
3506 0 103.155 11.8172 1219 88.6563 913.371 499.513
3507 0 105.125 11.8145 1242 88.5048 913.312 497.144
3508 0 109.241 11.5158 1258 88.8124 912.858 496.1
3509 0 112.146 11.6812 1310 87.3076 913.265 496.77
3510 0 115.174 11.678 1345 88.2022 912.477 493.291
3511 0 118.189 11.7693 1391 87.6779 912.627 490.81
3512 0 123.25 12.0244 1482 86.3799 913.07 490.06
3513 0 125.16 12.0166 1504 85.4654 912.348 489.795
3514 0 128.157 11.9306 1529 85.985 912.963 484.86
3515 0 131.122 11.9965 1573 85.4628 912.582 482.353
3516 0 138.249 12.2026 1687 83.7801 912.819 480.203
3517 0 141.159 12.1706 1718 83.2369 911.939 478.602
3518 0 147.21 11.8335 1742 83.1303 911.903 475.706
3519 0 150.165 12.2266 1836 82.3148 911.804 473.956
3520 0 153.258 11.9015 1824 82.1842 911.952 470.578
3521 0 160.249 12.0188 1926 81.0898 911.073 469.428
3522 0 164.22 11.5272 1893 82.065 911.148 463.896
3523 0 166.152 11.8145 1963 81.7545 911.332 463.654
3524 0 170.111 10.7224 1824 82.7752 910.572 460.861
3525 0 174.249 11.3917 1985 82.0489 911.249 456.892
3526 0 179.176 10.6711 1912 82.3666 910.842 454.572
3527 0 185.175 10.7466 1990 83.3643 910.796 450.985
3528 0 191.209 12.1856 2330 80.3876 910.326 450.374
3529 0 195.264 12.0042 2344 80.7803 909.892 452.588
3530 0 202.246 12.0101 2429 80.4347 910.755 447.03
3531 0 209.257 12.8694 2693 78.5106 910.744 445.399
3532 0 215.277 11.808 2542 80.8694 910.896 439.36
3533 0 222.229 11.3172 2515 82.8012 910.616 433.369
3534 1 58.0667 10.0057 581 71.4251 912.196 517.224
3535 0 60.0497 11.0076 661 72.0575 912.271 513.638
3536 0 62.0424 10.9925 682 72.346 911.858 512.509
3537 0 63.0577 10.5142 663 70.359 911.262 515.339
3538 0 67.0824 11.1803 750 67.804 911.849 514.2
3539 0 69.098 10.4055 719 70 911.576 513.615
3540 0 72.0502 10.9646 790 70.281 910.867 511.281
3541 0 74.1662 10.1933 756 72.0701 911.733 508.366
3542 0 83.1325 14.4709 1203 68.0864 911.238 505.549
3543 0 83.1264 13.5697 1128 71.6126 911.91 507.387
3544 0 85.0829 12.4702 1061 70.672 911.192 508.58
3545 0 87.0595 13.2553 1154 71.3336 912.1 506.621
3546 0 91.1171 12.6321 1151 71.8132 912.6 504.862
3547 0 94.128 13.2692 1249 70.538 912.703 501.847
3548 0 103.304 15.711 1623 62.9581 912.78 491.804
3549 0 103.189 14.7691 1524 67.7907 912.877 492.455
3550 0 102.129 12.8955 1317 74.5095 912.993 495.787
3551 0 106.142 12.5586 1333 75.3451 913.846 495.616
3552 0 108.095 11.6841 1263 78.1346 913.764 490.382
3553 0 114.144 14.2013 1621 72.7421 913.105 488.532
3554 0 116.216 12.5628 1460 78.1096 913.366 483.989
3555 0 119.161 12.1852 1452 79.5523 913.134 481.511
3556 0 123.258 12.8511 1584 78.5865 913.028 483.113
3557 0 127.185 13.6179 1732 79.7587 914.032 480.083
3558 1 49.1135 10.6081 521 73.405 913.95 520.282
3559 0 52.107 11.3804 593 72.9123 914.186 519.056
3560 0 52.2155 11.51 601 74.5674 913.491 518.915
3561 0 53.144 12.1745 647 77.3586 913.422 516.915
3562 0 55.1133 11.4854 633 79.7567 913.316 515.599
3563 0 56.1078 12.5116 702 77.7165 913.734 515.03
3564 0 58.0995 12.427 722 77.0166 913.686 516.198
3565 0 61.0751 11.9689 731 87.446 915.193 515.187
3566 0 63.1134 12.2795 775 87.0503 914.645 514.582
3567 0 62.0619 12.0041 745 91.2376 914.534 513.678
3568 0 64.1169 11.9781 768 92.901 914.15 511.434
3569 0 68.1848 12.0115 819 92.4554 913.874 509.19
3570 0 69.1566 11.9728 828 93.9976 913.632 507.388
3571 0 71.1355 11.8647 844 94.2251 914.547 507.411
3572 0 73.2428 12.6019 923 92.753 914.039 505.963
3573 0 75.1241 13.1516 988 92.6376 914.431 504.786
3574 0 77.1869 13.6681 1055 92.2427 914.653 506.318
3575 0 79.1884 13.1711 1043 93.6318 915.262 506.266
3576 0 81.1711 13.7364 1115 93.3623 915.221 503.379
3577 0 83.2142 13.9159 1158 93.6606 916.001 501.685
3578 0 84.1376 14.7021 1237 92.0137 915.575 499.715
3579 0 87.1929 14.0952 1229 93.5199 915.92 500.239
3580 0 87.1144 14.2571 1242 94.1675 915.116 501.192
3581 0 89.2045 14.349 1280 93.9727 915.859 499.47
3582 0 91.254 14.1145 1288 95.5706 916.481 498.609
3583 0 91.2034 13.892 1267 96.9376 915.844 498.698
3584 0 93.2723 14.1521 1320 95.7886 916 499.477
3585 0 93.1891 14.2077 1324 95.3739 916.165 500.127
3586 0 94.1608 14.2522 1342 95.228 915.722 497.28
3587 0 94.2228 14.4445 1361 95.4886 916.842 496.401
3588 0 94.2536 13.9411 1314 95.5974 916.202 498.71
3589 0 95.3725 13.83 1319 95.3116 915.597 498.693
3590 0 96.4535 14.3281 1382 93.1679 915.644 498.107
3591 0 95.2309 14.1236 1345 92.832 915.396 497.262
3592 0 98.1768 14.4433 1418 91.1206 916.017 497.874
3593 0 95.2895 13.9784 1332 92.8176 915.915 497.155
3594 0 95.2251 14.324 1364 91.7053 915.88 497.176
3595 0 97.3547 14.1031 1373 91.0597 915.234 497.012
3596 0 101.288 17.3269 1755 81.2239 915.393 492.969
3597 0 98.2089 14.3164 1406 88.6686 915.605 493.112
3598 0 96.3394 13.5251 1303 90.878 916.151 493.536
3599 0 98.3974 14.4821 1425 86.979 915.592 494.756
3600 0 97.2407 13.4409 1307 89.1316 915.962 494.492
3601 0 96.2256 13.2085 1271 88.4941 915.739 495.001
3602 0 96.171 12.8937 1240 89.9661 915.54 494.428
3603 0 97.2156 13.5266 1315 86.7643 915.97 492.204
3604 0 96.2314 12.9687 1248 86.2676 914.964 492.632
