time division length width area intensity CMx CMy
1078 0 43.0768 11.7232 505 82.7822 1067.71 531.81
1079 0 46.0867 10.567 487 83.6304 1067.83 530.253
1080 0 47.0813 10.896 513 83.1501 1068.01 528.686
1081 0 46.1752 10.2436 473 86.0296 1067.46 527.801
1082 0 49.0778 10.0657 494 86.7733 1068.34 526.876
1083 0 47.0332 10.9922 517 87.8665 1067.66 527.164
1084 0 51.0885 10.4525 534 88.6367 1067.96 525.418
1085 0 56.0907 12.1589 682 82.7801 1067.57 526.191
1086 0 57.0633 12.0918 690 82.4058 1067.57 526.149
1087 0 57.0417 11.8335 675 84.5926 1067.11 526.55
1088 0 58.0562 12.2812 713 85.0575 1066.97 526.585
1089 0 61.0915 12.3258 753 92.429 1066.54 525.011
1090 0 62.1099 12.2847 763 93.135 1067.41 525.497
1091 0 62.109 11.9789 744 96.0995 1066.97 523.075
1092 0 66.2622 12.1638 806 94.7146 1066.84 522.542
1093 0 68.1284 12.4911 851 93.7497 1066.14 521.776
1094 0 68.1684 11.6476 794 93.6385 1066.37 521.135
1095 0 71.1927 12.5575 894 91.5872 1066.33 520.883
1096 0 73.1166 11.9672 875 90.4171 1065.89 518.768
1097 0 74.1514 12.7847 948 88.4452 1065.79 517.065
1098 0 78.1023 12.0483 941 89.5717 1066.14 515.468
1099 0 79.2575 12.2386 970 88.2062 1067.93 519.8
1100 0 79.2568 12.1504 963 126.852 1069.94 519.802
1101 0 85.1226 12.4291 1058 86.2335 1067.22 515.957
1102 0 86.1492 11.8864 1024 86.9648 1067.09 514.23
1103 0 89.155 11.9006 1061 86.8219 1066.96 512.477
1104 0 92.2141 12.1782 1123 87.6011 1066.88 511.585
1105 0 93.1395 12.1109 1128 88.6285 1066.42 508.231
1106 0 96.3049 11.0898 1068 96.8586 1066.03 509.758
1107 0 100.261 11.6895 1172 96.099 1065.69 506.805
1108 0 101.277 11.513 1166 96.6595 1065.95 506.194
1109 0 103.173 11.0591 1141 95.9334 1065.67 502.661
1110 0 105.195 10.9321 1150 92.2278 1065.87 503.186
1111 0 105.195 10.837 1140 139.149 1065.89 503.139
1112 0 109.086 12.1739 1328 89.067 1065.33 501.544
1113 0 113.159 12.6283 1429 87.8174 1065.71 500.456
1114 0 115.084 11.9478 1375 88.0662 1065.95 499.525
1115 0 118.103 11.8964 1405 88.7103 1064.69 496.336
1116 0 122.173 11.7784 1439 88.4753 1065.56 495.255
1117 0 124.281 12.3188 1531 86.9477 1066.03 493.253
1118 0 129.118 11.8031 1524 89.4049 1065.82 491.526
1119 0 135.151 11.7942 1594 89.5684 1065.96 489.998
1120 0 139.142 11.3266 1576 88.6942 1065.7 488.307
1121 0 142.183 11.5415 1641 88.5655 1064.87 483.331
1122 0 146.209 11.723 1714 87.5403 1065.66 482.739
1123 1 79.0797 9.77495 773 84.0375 1066.1 518.415
1124 0 80.0763 10.4151 834 86.0348 1065.72 516.542
1125 0 84.0327 11.4241 960 83.1531 1066.05 513.81
1126 0 88.1997 11.3946 1005 84.0159 1066.19 513.077
1127 0 88.202 11.5417 1018 85.72 1065.31 509.572
1128 0 91.2013 12.2915 1121 90.5825 1065.02 506.435
1129 0 95.1087 12.1966 1160 89.1483 1065.38 507.813
1130 0 98.1388 11.3003 1109 96.4031 1064.98 505.935
1131 0 101.18 11.3165 1145 95.1109 1065.98 504.399
1132 0 105.23 12.2968 1294 93.5711 1066.46 499.998
1133 0 107.153 11.6936 1253 93.7119 1066.2 500.036
1134 0 110.214 10.7246 1182 95.2327 1066.19 495.573
1135 0 115.208 10.9194 1258 96.0151 1065.79 494.676
1136 1 55.103 10.0902 556 93.4335 1066.49 528.016
1137 0 56.1084 10.6579 598 97.8846 1066.21 524.468
1138 0 58.0366 10.7863 626 91.9089 1066.17 521.358
1139 0 61.0674 12.0359 735 94.8422 1067.11 521.078
1140 0 62.0225 11.1572 692 92.1893 1066.51 521.874
1141 0 65.0255 11.9953 780 91.3513 1066.33 522.933
1142 0 69.0575 11.5266 796 92.9937 1066.61 522.335
1143 0 72.0349 12.9798 935 92.3326 1066.63 520.178
1144 0 74.0441 12.4655 923 94.0834 1066.95 519.436
1145 0 75.089 12.7582 958 94.3967 1066.22 519.127
1146 0 78.0314 12.1746 950 96.2853 1066.36 518.999
1147 0 81.2124 12.8305 1042 95.3656 1064.48 517.259
1148 0 82.2534 12.729 1047 93.1165 1064.23 513.223
1149 0 85.1463 12.8485 1094 96.0704 1064.94 513.537
1150 0 88.1988 12.812 1130 84.6743 1065.17 511.36
1151 0 91.1942 12.9065 1177 86.8233 1064.69 509.777
1152 0 93.2239 12.6792 1182 83.6557 1064.25 507.966
1153 0 95.2979 12.781 1218 86.2135 1063.84 504.988
1154 0 98.1726 12.9873 1275 88.2141 1064.73 505.889
1155 0 102.214 13.3348 1363 86.573 1064.57 502.579
1156 0 104.208 12.523 1305 89.2467 1064.4 502.239
1157 0 108.181 12.0076 1299 90.3002 1064.38 499.983
1158 0 113.256 12.1936 1381 89.7393 1063.72 495.109
1159 0 113.244 12.292 1392 137.205 1063.72 494.945
1160 1 64.1605 12.0012 770 84.0013 1063.44 516.721
1161 0 67.1598 12.5819 845 83.8462 1063.32 512.924
1162 0 67.2441 13.2502 891 87.9843 1063.89 511.847
1163 0 70.1091 12.3094 863 87.7868 1064.73 519.74
1164 0 72.0714 12.5986 908 88.6156 1064.96 518.836
1165 0 73.0974 12.4355 909 89.2981 1064.12 519.116
1166 0 78.1275 12.518 978 87.5337 1064.34 518.828
1167 0 79.1619 13.2134 1046 85.0985 1064.47 517.819
1168 0 81.1173 12.6483 1026 86.8051 1064.38 516.023
1169 0 84.1381 12.4914 1051 87.491 1064.87 513.606
1170 0 87.1895 13.2355 1154 85.8544 1064.84 512.782
1171 0 89.2726 13.2627 1184 84.9468 1064.61 511.27
1172 0 91.2038 12.7736 1165 85.3227 1064.7 511.139
1173 0 93.2966 12.6586 1181 85.0483 1064.69 510.036
1174 0 98.1382 12.462 1223 87.2159 1064.44 506.711
1175 0 101.234 12.6933 1285 88.7136 1063.86 504.286
1176 0 106.426 12.901 1373 89.8798 1064.28 502.139
1177 1 56.0773 11.6446 653 88.1149 1064.83 526.384
1178 0 56.1477 12.1465 682 86.9633 1064.94 525.204
1179 0 60.0775 12.3674 743 85.8668 1064.49 522.964
1180 0 63.1893 12.9136 816 89.1495 1063.17 521.892
1181 0 64.1044 13.0568 837 86.6308 1062.43 523.519
1182 0 63.1767 11.6815 738 91.9444 1063.11 524.817
1183 0 68.1724 11.7936 804 92.0112 1062.89 523.586
1184 0 69.1121 11.4452 791 93.0417 1062.73 521.446
1185 0 71.0784 12.4792 887 90.9594 1063.12 521.154
1186 0 71.0728 11.6782 830 93.9518 1063.06 518.266
1187 0 73.1232 11.6242 850 94.4835 1063.45 517.555
1188 0 77.1161 12.0597 930 89.743 1063.18 517.48
1189 0 79.0836 11.962 946 91.0465 1064.11 515.4
1190 0 82.0779 11.5135 945 88.1058 1063.34 514.428
1191 0 84.056 11.0165 926 86.0961 1063.33 510.003
1192 0 87.0615 11.624 1012 86.4269 1064.01 509.331
1193 0 90.0776 11.7565 1059 86.1067 1063.69 507.59
1194 0 93.0781 11.6784 1087 87.655 1064.29 504.9
1195 0 97.1411 11.8796 1154 86.8033 1064.03 504.283
1196 0 98.1573 11.4103 1120 89.3366 1065.36 502.38
1197 0 100.159 10.693 1071 92.4715 1065.46 503.686
1198 0 103.138 10.0157 1033 94.6563 1065.79 504.121
1199 1 54.1016 10.4803 567 91.8624 1065.34 526.183
1200 0 56.0521 10.9719 615 93.9089 1065.22 523.725
1201 0 55.0548 9.93556 547 93.4388 1065.54 521.439
1202 0 58.1504 11.1607 649 96.5639 1064.59 522.328
1203 0 61.2814 11.5859 710 96.3648 1065.1 522.33
1204 0 60.212 11.4263 688 97.4666 1064.73 520.584
1205 0 65.2222 12.0358 785 94.2688 1064.93 521.048
1206 0 66.2809 11.8737 787 94.6671 1064.67 520.544
1207 0 67.2473 12.06 811 94.6979 1065.32 519.328
1208 0 70.1888 11.6115 815 94.5681 1064.71 517.694
1209 0 72.2419 12.3336 891 91.6554 1064.92 516.963
1210 0 74.1812 11.6876 867 93.6909 1064.72 515.64
1211 0 75.1878 12.236 920 92.8565 1063.82 515.104
1212 0 77.1406 11.7577 907 95.8578 1063.57 511.453
1213 0 80.1453 11.6289 932 94.7618 1063.97 512.592
1214 0 84.1719 12.0587 1015 94.2916 1064.75 510.112
1215 0 83.0876 10.9403 909 88.8592 1064.83 512.165
1216 0 86.1206 10.555 909 88.8911 1064.64 510.807
1217 1 46.0169 10.344 476 88.7752 1065.22 530.708
1218 0 46.0244 10.6683 491 87.725 1065.06 530.886
1219 0 48.0344 11.4918 552 84.1069 1064.96 529.893
1220 0 50.0138 11.6968 585 84.8974 1064.81 526.911
1221 0 48.0379 11.6991 562 85.9609 1063.98 527.391
1222 0 53.0449 11.5374 612 84.1095 1065.11 527.114
1223 0 54.0784 11.2244 607 84.5124 1065.05 527.977
1224 0 55.0376 11.3741 626 83.5431 1064.9 525.436
1225 0 54.0641 12.2447 662 83.2296 1065.14 525.977
1226 0 59.0322 11.9257 704 82.902 1064.79 524.635
1227 0 60.072 11.969 719 82.2615 1065.62 523.775
1228 0 59.0989 12.4537 736 81.7459 1065.14 522.952
1229 0 64.1277 12.9429 830 78.0916 1065.16 522.817
1230 0 65.0551 12.5739 818 79.0782 1064.63 520.24
1231 0 68.0986 13.084 891 78.6712 1065.24 518.763
1232 0 71.1495 12.9867 924 78.7846 1064.36 517.524
1233 0 69.1307 12.6138 872 80.4977 1064.5 517.107
1234 0 71.073 11.7907 838 82.3401 1064.08 515.535
1235 0 76.0967 12.2739 934 80.5846 1064.58 513.952
1236 0 77.1398 12.6653 977 80.5507 1064.99 511.93
1237 0 82.0866 12.8523 1055 79.2246 1064.93 512.397
1238 0 84.1007 12.9725 1091 80.0559 1065.21 511.52
1239 0 86.1138 12.2628 1056 83.4508 1064.76 509.777
1240 0 87.0671 12.3927 1079 83.8193 1064.77 509.026
1241 1 42.0963 10.9273 460 88.6217 1065.71 532.05
1242 0 43.0283 11.2949 486 88.963 1064.96 530.93
1243 0 45.0666 11.4941 518 89.3166 1064.97 529.29
1244 0 48.0574 11.6736 561 90.5775 1065.37 527.278
1245 0 51.0796 12.4316 635 87.8252 1065.62 526.274
1246 0 50.1271 12.0893 606 91.0082 1065.76 525.614
1247 0 54.1159 12.1037 655 89.6153 1064.77 524.04
1248 0 53.0942 11.715 622 92.9373 1065.46 522.72
1249 0 56.1216 11.8493 665 91.7158 1064.01 523.37
1250 0 57.0563 12.1284 692 91.4769 1064.7 521.666
1251 0 58.0563 12.1951 708 92.5438 1064.66 520.969
1252 0 60.0976 12.1968 733 90.8827 1065.44 521.759
1253 0 62.131 12.4415 773 93.8279 1065.61 519.71
1254 0 66.1844 12.3594 818 92.8374 1065.08 519.729
1255 0 67.0274 12.4427 834 94.7086 1066.25 518.604
1256 0 68.0327 12.7439 867 94.5525 1066.97 517.085
1257 0 70.0363 12.4507 872 92.8624 1067.48 517.439
1258 0 73.0553 12.7301 930 92.4978 1066.76 515.763
1259 0 75.0692 12.655 950 93.2684 1066.05 515.131
1260 0 77.1045 12.8267 989 93.9666 1066.23 513.18
1261 1 40.0715 11.2549 451 99.0843 1065.67 531.217
1262 0 41.0566 10.9118 448 100.02 1065.38 531.016
1263 0 44.086 10.9105 481 99.526 1065.05 530.497
1264 0 45.1284 11.567 522 98.2356 1065.31 530.117
1265 0 46.1128 12.6212 582 97.4691 1064.62 527.44
1266 0 48.1347 13.0467 628 97.844 1065.05 526.895
1267 0 49.0444 12.7843 627 100.445 1065.75 526.944
1268 0 51.0531 12.9669 662 97.4275 1065.32 526.743
1269 0 52.0703 12.8672 670 100.469 1065.07 525.236
1270 0 54.0507 13.4318 726 98.2617 1064.61 526.499
1271 0 56.1458 13.2868 746 97.4008 1065.05 524.693
1272 0 56.0461 13.2926 745 97.5409 1064.74 523.593
1273 0 57.0534 13.2507 756 98.5807 1064.57 522.974
1274 0 60.03 13.0768 785 99.3172 1064.27 520.694
1275 0 62.0324 13.364 829 98.7105 1064.54 521.366
1276 0 64.0522 13.9105 891 97.257 1064.46 520.622
1277 0 65.0357 13.8232 899 97.5072 1064.46 518.917
1278 0 69.0837 13.708 947 94.7022 1064.66 517.854
1279 0 72.0444 13.6999 987 95.0172 1064.16 516.025
1280 0 73.0527 13.853 1012 95.9654 1065.23 516.393
1281 0 73.0392 13.2805 970 104.529 1064.69 514.279
1282 0 77.1299 14.0542 1084 102.351 1064.91 511.876
1283 0 80.0902 13.8594 1110 104.734 1065.08 511.328
1284 0 82.137 13.6845 1124 104.417 1065.09 509.434
1285 0 85.0876 13.7858 1173 103.865 1065.57 507.818
1286 0 89.1609 13.8626 1236 104.604 1065.38 508.369
1287 0 91.1229 14.1238 1287 104.624 1065.42 505.732
1288 0 94.1113 13.3884 1260 108.198 1065.48 504.514
1289 1 49.0362 11.1346 546 113.211 1066.69 526.604
1290 0 51.0351 11.835 604 113.144 1066.91 526.252
1291 0 48.0789 11.1067 534 107.44 1065.96 520.646
1292 0 55.0926 12.7422 702 100.664 1066.3 526.373
1293 0 57.1384 13.1435 751 101.523 1066.23 524.959
1294 0 58.0728 12.7254 739 103.149 1066.24 522.93
1295 0 60.0682 12.9686 779 101.398 1065.91 521.752
1296 0 61.0698 12.543 766 98.8877 1066.21 520.756
1297 0 66.0386 12.8864 851 101.083 1064.33 520.665
1298 0 65.0635 13.141 855 101.395 1064.13 518.117
1299 0 68.0197 13.202 898 100.527 1064.44 517.597
1300 0 71.111 13.1063 932 102.259 1064.98 515.981
1301 0 75.0431 13.6721 1026 99.6628 1064.86 516.05
1302 0 75.0513 12.4315 933 103.512 1065.13 513.486
1303 0 80.0476 12.9673 1038 102.29 1065.23 510.422
1304 0 81.1109 12.7357 1033 103.397 1064.56 509.483
1305 0 86.0825 13.2083 1137 102.434 1064.98 508.5
1306 1 42.0374 10.7523 452 106.405 1064.49 530.754
1307 0 40.0118 10.4969 420 104.255 1064.8 530.862
1308 0 44.0401 11.5349 508 99.6358 1065.18 531.079
1309 0 45.0451 11.6106 523 97.0535 1065.49 530.927
1310 0 46.0587 12.0064 553 97.443 1065.97 529.11
1311 0 46.0174 11.9085 548 96.3011 1065.12 530.414
1312 0 46.15 10.7909 498 103.056 1065.17 531.414
1313 0 46.0371 11.5342 531 101.19 1065.19 529.431
1314 0 48.0691 11.7539 565 99.8354 1066.32 529.066
1315 0 49.0675 11.2294 551 97.6461 1066.45 528.476
1316 0 52.0914 11.1151 579 103.007 1066.81 528.427
1317 0 50.0428 10.8307 542 105.858 1066.56 526.915
1318 0 54.0535 11.3036 611 102.802 1066.47 525.99
1319 0 55.0762 11.9471 658 99.5106 1064.65 526.768
1320 0 55.0604 11.5328 635 101.739 1064.76 526.466
1321 0 59.0646 11.0726 654 101.356 1064.94 525.728
1322 0 60.0504 11.2073 673 101.655 1064.7 524.86
1323 0 62.0478 11.2494 698 100.938 1064.42 523.668
1324 0 63.1615 11.6527 736 99.5761 1064.34 521.963
1325 0 64.1682 11.1426 715 100.895 1065.38 520.821
1326 0 66.0501 10.4466 690 101.165 1066.39 520.887
1327 0 69.0362 10.7914 745 99.8698 1064.7 519.321
1328 0 70.0605 10.5052 736 101.215 1066.85 518.418
1329 0 72.1167 10.5385 760 101.376 1065.48 517.249
1330 0 75.1154 10.0512 755 103.375 1064.6 516.797
1331 1 41.0221 10.409 427 103.405 1065.39 532.817
1332 0 42.027 10.3267 434 102.138 1064.57 532.35
1333 0 41.0216 10.336 424 103.427 1065.35 530.085
1334 0 43.0457 10.8257 466 101.371 1065.64 530.56
1335 0 44.0138 11.1556 491 99.7841 1066.2 529.584
1336 0 46.0376 11.2734 519 98.185 1064.95 528.755
1337 0 47.0357 11.3956 536 98.2593 1065.75 527.565
1338 0 48.0271 11.202 538 95.2937 1065.72 527.814
1339 0 48.0125 10.8722 522 97.6954 1065.48 528.165
1340 0 51.0439 11.2844 576 95.8646 1065.25 527.661
1341 0 52.045 11.3748 592 93.3024 1065.4 525.28
1342 0 54.0624 10.6913 578 95.1021 1063.91 526.299
1343 0 56.0517 11.0255 618 95.2767 1063.82 524.307
1344 0 58.0209 10.9616 636 94.9984 1063.84 524.25
1345 0 59.1208 10.6731 631 95.6862 1064 524.162
1346 0 57.1059 10.9271 624 94.1651 1064.08 522.907
1347 0 61.1558 10.7267 656 92.6524 1063.39 520.863
1348 0 62.1292 10.5908 658 92.2857 1063.76 519.316
1349 0 63.1297 10.8665 686 92.5087 1063.15 519.566
1350 0 64.0877 9.53381 611 95.1817 1062.9 518.581
1351 0 63.1229 7.88937 498 99.6124 1063.42 520.285
1352 0 63.1413 8.77398 554 98.4657 1063.05 519.276
1353 0 71.2289 10.2767 732 129.328 1063 448.19
1354 1 39.0371 6.6091 258 104.403 1062.64 531.454
1355 0 39.092 7.08584 277 103.282 1063.04 533.249
1356 0 37.0457 6.18156 229 105.105 1063.09 531.218
1357 0 39.0368 7.94122 310 101.258 1064.06 531.858
1358 0 40.1721 6.42236 258 103.132 1063.67 530.578
1359 0 44.1429 7.54368 333 100.246 1063.78 527.793
1360 1 81.3594 11.271 917 133.518 1062.89 424.878
1361 0 81.3594 11.271 917 129.678 1061.89 424.706
1362 0 88.175 9.90076 873 105.202 1063.69 504.691
1363 0 89.2681 8.34565 745 108.447 1063.72 504.336
1364 0 92.1852 8.62394 795 108.044 1063.93 502.595
1365 0 94.1727 7.94286 748 106.663 1063.7 502.309
1366 0 97.1531 8.4197 818 106.499 1064.22 499.282
1367 0 100.146 8.89701 891 103.971 1063.69 499.47
1368 0 99.1684 7.38138 732 108.031 1063.77 493.27
1369 0 105.209 8.67793 913 107.102 1063.26 493.68
1370 0 105.3 8.11018 854 108.67 1063.46 489.176
1371 0 105.309 8.09044 852 104.027 1063.45 489.257
1372 1 59.203 8.88468 526 94.5171 1064.17 519.264
1373 0 60.2535 8.94554 539 95.1429 1064.34 520.622
1374 0 61.2661 9.02619 553 93.9005 1063.95 518.978
1375 0 65.1329 10.302 671 90.0656 1063.26 517.377
1376 0 66.1864 9.82075 650 92.7738 1063.32 514.346
1377 0 69.1174 10.4315 721 86.3176 1063.59 517.064
1378 0 70.1686 10.603 744 88.6331 1063.04 517.484
1379 0 70.2071 9.85655 692 89.8902 1063.75 518.116
1380 0 70.0195 10.4971 735 94.1537 1064.7 518.77
1381 0 71.1243 10.1653 723 97.6418 1063.65 519.492
1382 0 72.121 10.2883 742 97.9299 1063.75 518.628
1383 0 74.0773 10.2056 756 97.6746 1063.45 517.073
1384 0 75.1292 10.1026 759 95.7246 1063.33 516.763
1385 0 77.0617 10.1607 783 94.2746 1062.78 514.78
1386 0 80.1872 10.3009 826 92.3947 1063.2 512.927
1387 0 82.1334 10.6656 876 91.3174 1063.37 511.879
1388 0 84.1081 9.78503 823 92.4933 1063.05 510.124
1389 0 85.0566 9.89929 842 91.9252 1063.4 508.533
1390 0 87.1828 10.3231 900 90.1556 1063.29 507.284
1391 0 88.1013 10.0339 884 90.2172 1062.95 507.345
1392 0 90.0768 10.4688 943 88.3955 1063.62 506.234
1393 0 91.058 9.19194 837 91.1625 1064.26 502.951
1394 0 94.1033 9.74461 917 90.6314 1063.59 502.629
1395 0 96.1456 10.2241 983 90.237 1063.49 501.469
1396 0 101.143 10.6977 1082 90.8974 1063.5 498.578
1397 0 103.155 9.96558 1028 93.2617 1062.66 497.146
1398 0 106.195 10.5467 1120 93.2116 1062.77 495.738
1399 0 107.135 10.3327 1107 96.3026 1062.53 491.011
1400 0 111.183 10.712 1191 95.9908 1063.33 491.621
1401 0 111.186 10.7118 1191 101.275 1064.33 491.621
1402 0 118.177 10.4335 1233 99.0162 1063.17 488.957
1403 0 121.157 11.2994 1369 98.8459 1063.4 487.395
1404 0 125.136 10.9641 1372 100.741 1063.64 485.555
1405 0 126.164 10.8034 1363 102.115 1063.62 480.373
1406 0 131.186 11.2283 1473 102.413 1062.89 479.974
1407 0 134.213 11.1837 1501 103.855 1063.19 478.262
1408 0 137.168 10.9865 1507 106.185 1063.24 477.994
1409 0 143.153 11.4353 1637 104.739 1063.45 478.587
1410 0 144.171 11.0702 1596 107.979 1062.95 473.299
1411 0 150.23 11.955 1796 105.004 1062.78 473.835
1412 0 155.159 11.3561 1762 107.779 1062.51 471.527
1413 0 160.194 11.8419 1897 107.371 1063.3 468.926
1414 0 163.239 11.6026 1894 107.861 1063.45 467.739
1415 0 170.177 12.3754 2106 105.33 1063.6 465.945
1416 0 177.235 13.1069 2323 103.527 1063.69 464.994
1417 0 181.19 12.6331 2289 104.98 1064 464.138
1418 0 188.206 12.8955 2427 104.101 1064.4 457.481
1419 0 192.229 13.1197 2522 103.989 1062.75 454.594
1420 0 199.334 13.3144 2654 103.237 1063.4 451.735
1421 0 204.23 13.3771 2732 102.547 1062.98 450.84
1422 1 52.019 10.6884 556 105.736 1064.75 526.102
1423 0 51.0068 11.6847 596 99.5738 1064.69 523.215
1424 0 56.0383 11.4208 640 103.43 1064.62 527.433
1425 0 51.0739 11.1799 571 101.492 1065.5 526.807
1426 0 54.0674 10.2835 556 102.601 1063.97 527.155
1427 0 55.0113 11.0704 609 101.44 1064.43 526.534
1428 0 57.072 10.8284 618 102.466 1064.87 525.463
1429 0 59.0513 11.4985 679 100.944 1064.69 523.557
1430 0 62.0744 10.9224 678 100.519 1064.88 523.593
1431 0 64.107 11.122 713 98.4741 1064.83 522.337
1432 0 64.0735 11.4244 732 96.7746 1065.34 520.981
1433 0 66.1323 11.0536 731 95.855 1065.07 520.869
1434 0 68.124 10.7892 735 95.3143 1065.78 519.974
1435 0 72.1172 10.58 763 96.9161 1065.71 518.995
1436 0 75.1289 11.447 860 91.9279 1065.25 516.102
1437 0 78.1321 11.2374 878 91.3519 1065.94 513.109
1438 1 43.0249 10.2266 440 90.0364 1064.63 531.623
1439 0 44.021 10.495 462 88.0758 1063.74 531.593
1440 0 47.1267 11.3524 535 84.9551 1063.72 530.49
1441 0 45.0211 11.1726 503 85.2068 1062.88 529.509
1442 0 46.0882 10.8271 499 80.1222 1062.87 528.689
1443 0 46.1063 11.2566 519 110.565 1062.86 528.356
1444 0 50.034 11.4922 575 76.44 1064.18 526.009
1445 0 51.034 9.87577 504 79.0972 1064.89 522.073
1446 0 53.0742 11.4933 610 76.5688 1065.4 523.292
1447 0 56.0366 11.8672 665 74.3955 1065.04 523.069
1448 0 55.0495 11.5169 634 76.0678 1065.68 521.579
1449 0 57.0914 11.4203 652 76.9555 1064.56 520.771
1450 0 59.0734 11.6465 688 76.6163 1064.75 520.468
1451 0 60.0497 11.1907 672 78.5238 1065.11 518.522
1452 0 61.0961 11.7192 716 79.155 1064.44 518.124
1453 0 63.1002 11.2044 707 80.5615 1065.15 516.885
1454 0 65.096 11.6136 756 81.1151 1065.13 516.692
1455 0 66.0491 12.1122 800 80.895 1065.2 516.686
1456 0 68.0955 12.2769 836 80.0981 1064.42 514.328
1457 0 68.0888 11.999 817 81.6181 1064.72 513.576
1458 0 69.0783 11.943 825 82.3297 1065.34 514.048
1459 0 73.0992 12.271 897 81.6845 1064.95 512.703
1460 0 75.1278 12.0328 904 82.0996 1064.59 511.868
1461 1 37.0134 10.0774 373 87.0724 1066.14 530.324
1462 0 40.0162 10.1959 408 87.3039 1065.65 529.194
1463 0 41.012 10.8749 446 86.2175 1065.71 528.787
1464 0 43.0735 10.8884 469 85.4307 1065.19 528.827
1465 0 38.0214 9.91547 377 72.1751 1064.42 525.045
1466 0 39.0539 9.09001 355 73.1887 1064.03 524.341
1467 0 42.0422 9.46668 398 71.7387 1063.6 525.085
1468 0 42.0117 9.0213 379 71.8786 1063.45 522.185
1469 0 42.022 9.44743 397 72.0202 1063.96 523.217
1470 0 45.0136 10.2414 461 74.1085 1063.86 523.62
1471 0 46.0555 10.2051 470 73.5979 1064.28 522.253
1472 0 45.0178 9.46292 426 76.0352 1063.75 520.913
1473 0 46.0364 8.906 410 75.322 1064.3 516.561
1474 0 48.0563 8.63571 415 77.8048 1063.52 517.094
1475 0 48.038 8.49328 408 78.451 1063.5 516.274
1476 0 50.047 9.09146 455 77.9297 1063.1 517.611
1477 0 52.0847 9.17736 478 79.1736 1063.46 514.678
1478 0 52.0608 9.21999 480 81.6417 1062.54 514.581
1479 0 55.0336 8.90366 490 80.702 1063.29 513.231
1480 0 58.0406 10.1998 592 79.1537 1062.79 513.409
1481 0 57.0906 8.58285 490 83.1469 1063.55 509.796
1482 0 60.1584 9.52486 573 81.5253 1062.98 509.316
1483 0 63.1245 9.39413 593 82.2614 1063.33 508.248
1484 0 66.0599 10.0666 665 81.8496 1062.85 507.989
1485 0 67.0975 9.7172 652 82.2623 1063.38 506.002
1486 0 70.0318 9.22438 646 82.7724 1062.88 504.062
1487 1 33.0328 8.62779 285 79.7158 1064.27 525.705
1488 0 37.0064 10.3496 383 79.8198 1064.32 524.909
1489 0 44.0245 12.0615 531 89.1375 1064.86 529.23
1490 0 45.047 12.4759 562 86.7865 1064.36 529.18
1491 0 44.0894 11.3406 500 87.046 1063.19 530.836
1492 0 44.062 11.6654 514 88.2704 1064.03 529.838
1493 0 45.0508 11.2762 508 89.6752 1063.74 529.882
1494 0 47.0166 11.5704 544 90.6489 1063.89 527.947
1495 0 48.0266 11.5353 554 90.5271 1063.43 528.44
1496 0 49.1011 11.3847 559 91.5707 1063.37 528.571
1497 0 50.0174 11.8959 595 91.9092 1063.81 526.976
1498 0 50.0202 11.2754 564 94.5851 1064.04 524.918
1499 0 52.0323 11.9349 621 92.0853 1063.55 523.823
1500 0 55.1031 12.1046 667 90.6687 1063.55 523.033
1501 0 57.0352 11.7822 672 90.9955 1063.44 520.754
1502 0 58.0704 11.7099 680 90.6868 1063.97 520.009
1503 0 60.0223 12.0455 723 90.4343 1063.45 518.975
1504 0 61.1257 12.0408 736 90.1685 1063.56 518.692
1505 0 65.0569 11.0672 720 91.2639 1063.05 518.415
1506 0 69.0592 11.9752 827 89.1088 1063.13 517.011
1507 0 71.0992 12.5037 889 88.4713 1063.27 516.116
1508 0 73.0962 12.0526 881 89.3995 1063.33 515.086
1509 0 74.1162 11.9542 886 89.3555 1063.79 513.059
1510 0 77.0721 12.3002 948 88.8755 1063.55 512.606
1511 0 79.0815 12.5693 994 92.339 1064.03 512.501
1512 0 81.0992 11.4428 928 92.5506 1064.15 511.963
1513 0 85.1118 12.0077 1022 92.3033 1063.34 509.92
1514 1 44.0699 11.096 489 96.411 1063.9 528.687
1515 0 47.0658 11.9832 564 96.906 1064.56 526.179
1516 0 47.0947 11.6998 551 97.5045 1065.14 524.664
1517 0 43.0976 10.5342 454 95.8238 1063.48 520.293
1518 0 46.0832 11.349 523 96.9063 1063.63 521.792
1519 0 48.1368 11.6543 561 93.3512 1063.43 520.494
1520 0 52.1096 12.3777 645 89.1984 1063.43 520.045
1521 0 55.0609 11.8596 653 89.5345 1064.23 521.507
1522 0 56.0615 13.0749 733 87.3261 1064.54 520.359
1523 0 57.2088 12.0086 687 91.0189 1063.78 519.373
1524 0 60.1076 12.8104 770 87.5026 1064.2 518.836
1525 0 62.1299 13.3752 831 94.8929 1064.22 518.993
1526 0 65.0755 13.492 878 94.2961 1064.36 517.636
1527 0 67.0944 12.8476 862 91.6601 1064.53 518.897
1528 0 69.0594 12.815 885 91.3853 1064.49 518.78
1529 0 69.0898 12.8384 887 94.3709 1063.83 518.116
1530 0 71.084 13.1535 935 94.861 1064.15 517.122
1531 0 75.0677 13.1348 986 96.0822 1064.46 517.006
1532 0 76.0905 13.6416 1038 96.7929 1064.56 516.059
1533 0 79.0438 14.1694 1120 95.5741 1064.62 514.365
1534 0 82.1489 13.6703 1123 96.7774 1064.68 512.646
1535 0 83.194 14.1116 1174 101.942 1065.29 511.621
1536 0 85.0714 13.2712 1129 102.733 1064.16 508.604
1537 0 88.1127 13.9026 1225 101.144 1064.69 507.671
1538 0 91.218 14.2735 1302 99.4654 1064.07 506.696
1539 0 92.0901 13.6388 1256 100.687 1064.25 507.603
1540 0 95.1864 13.5524 1290 101.389 1064.51 504.82
1541 0 97.1018 13.5631 1317 103.732 1064.37 502.892
1542 0 100.106 13.5057 1352 103.114 1064.1 502.334
1543 0 102.119 13.073 1335 103.73 1064.18 501.524
1544 0 105.132 13.8112 1452 101.886 1064.18 499.184
1545 0 109.115 13.9944 1527 101.081 1064.55 499.403
1546 0 112.158 13.802 1548 102.206 1064.26 495.899
1547 0 114.151 13.342 1523 104.526 1063.98 494.936
1548 0 118.347 13.7055 1622 104.346 1064.37 492.162
1549 0 121.264 13.7221 1664 104.253 1064.21 492.244
1550 0 127.335 14.0731 1792 104.715 1064.74 489.347
1551 1 70.1679 12.3703 868 101.763 1065.41 519.243
1552 0 71.0843 12.7173 904 102.739 1064.8 517.036
1553 0 72.1427 12.7664 921 101.887 1065.05 515.7
1554 0 74.0993 13.266 983 100.389 1064.53 514.434
1555 0 78.1734 13.0479 1020 99.7176 1064.17 513.253
1556 0 78.2119 12.7602 998 102.883 1064.17 512.474
1557 0 81.1269 12.7455 1034 104.066 1063.53 511.616
1558 0 85.1497 13.1533 1120 104.485 1064.06 510.403
1559 0 89.1404 13.7199 1223 103.769 1063.71 507.757
1560 0 90.1972 12.9938 1172 107.373 1064.29 507.507
1561 0 92.2361 13.2052 1218 106.088 1063.75 505.522
1562 0 95.1455 13.0327 1240 111.364 1064.14 502.925
1563 0 99.2347 13.1103 1301 110.039 1063.95 500.01
1564 0 102.181 13.0259 1331 110.086 1063.57 499.232
1565 0 104.223 12.8186 1336 108.806 1063.95 497.141
1566 1 56.0748 11.9305 669 102.915 1064.74 523.839
1567 0 55.1015 12.0505 664 100.542 1064.43 522.441
1568 0 59.0576 12.6656 748 94.6337 1064.72 521.582
1569 0 60.0515 12.3228 740 102.534 1065.46 518.87
1570 0 61.0288 11.8305 722 104.524 1064.61 517.91
1571 0 64.021 11.7149 750 103.533 1064.3 517.509
1572 0 65.0224 12.2881 799 102.891 1064.48 517.237
1573 0 68.0362 12.655 861 101.423 1064.91 517.332
1574 0 70.0812 12.7566 894 101.756 1065.35 515.095
1575 0 71.0566 13.1867 937 100.886 1064.87 513.975
1576 0 73.042 13.0473 953 100.865 1065.14 512.508
1577 0 74.0323 12.8728 953 102.728 1063.9 510.461
1578 0 77.1011 12.542 967 104.408 1064.71 509.517
1579 0 78.1018 12.2532 957 98.9279 1063.93 510.2
1580 0 81.1206 12.1178 983 99.2024 1062.91 509.201
1581 0 82.0808 12.1709 999 99.4294 1063.21 506.959
1582 0 85.1511 11.967 1019 99.3729 1063.25 506.085
1583 0 87.0585 12.0494 1049 100.26 1063.95 505.739
1584 0 87.0585 12.1298 1056 135.109 1063.96 505.725
1585 1 46.0628 11.506 530 99.7924 1063.39 525.247
1586 0 46.0458 12.2921 566 97.8375 1063.73 523.058
1587 0 48.0178 11.9539 574 100.845 1063.7 523.909
1588 0 48.0325 11.055 531 94.4313 1063.98 526.493
1589 0 49.0672 11.2295 551 93.1397 1063.32 526.45
1590 0 48.0565 11.0703 532 126.496 1062.32 525.974
1591 0 54.0177 12.2923 664 92.5105 1063.15 525.286
1592 0 55.1169 11.1037 612 94.8774 1063.57 525.493
1593 0 59.1104 11.7238 693 92.7778 1062.84 524.286
1594 0 59.053 12.1416 717 93.7671 1063.67 522.841
1595 0 60.1387 12.2883 739 94.3045 1063.42 521.648
1596 0 64.1277 11.7734 755 92.2993 1063.63 521.228
1597 0 66.1212 12.6435 836 92.5574 1063.52 517.867
1598 0 68.121 12.8448 875 93.0834 1063.3 516.264
1599 0 70.1545 12.2301 858 95.5291 1063.31 516.07
1600 0 73.1727 12.0537 882 97.6168 1062.8 514.404
1601 0 74.1618 12.5806 933 97.1908 1063.2 512.412
1602 0 78.158 12.3596 966 97.0072 1062.69 511.19
1603 0 82.1895 12.3373 1014 95.4951 1063.27 509.596
1604 0 82.1895 12.2643 1008 149.259 1064.29 509.57
1605 1 46.1787 10.7625 497 93.004 1064.34 527.752
1606 0 46.2088 11.1018 513 91.308 1063.96 527.129
1607 0 49.1156 11.2999 555 89.1964 1064.45 525.378
1608 0 47.0344 11.4172 537 84.3054 1064.59 526.264
1609 0 47.098 11.6778 550 83.6982 1063.76 526.642
1610 0 46.0786 10.5906 488 85.7295 1063.73 524.484
1611 0 49.0646 10.6798 524 85.7061 1063.67 523.16
1612 0 50.0478 10.9695 549 88.0565 1063.31 524.463
1613 0 53.0693 10.4015 552 88.8605 1063.78 523.025
1614 0 56.0931 10.8926 611 86.5466 1063.73 521.244
1615 0 57.0449 10.5882 604 86.4702 1063.47 519.192
1616 0 57.0811 10.8968 622 85.963 1062.74 518.68
1617 0 60.1192 11.0447 664 84.9142 1063.5 517.232
1618 0 63.1576 10.4659 661 85.9531 1062.92 516.058
1619 0 63.1159 10.2193 645 88.8124 1062.83 515.025
1620 0 65.0396 10.9164 710 87.6296 1062.85 514.479
1621 0 67.0528 11.0957 744 88.3884 1062.11 514.577
1622 0 69.1486 10.1087 699 90.3262 1062.56 515.475
1623 0 72.1209 10.9261 788 90.8871 1063.04 513.093
1624 0 74.1051 10.4041 771 91.1933 1063.07 513.362
1625 0 77.1086 11.0753 854 90.8536 1063.76 510.66
1626 0 79.2276 10.716 849 92.2415 1063.5 510.796
1627 0 82.1729 11.2933 928 91.2446 1063.5 511.108
1628 0 83.2232 11.8116 983 90.5351 1062.1 509.303
1629 0 88.1036 11.8156 1041 89.6455 1062.71 509.831
1630 0 91.2736 12.1503 1109 91.4536 1062.78 506.687
1631 0 93.2018 11.577 1079 93.6849 1063.24 505.254
1632 0 95.1776 11.6939 1113 93.6801 1062.81 504.528
1633 0 96.2259 11.182 1076 96.4916 1063.03 500.495
1634 0 102.281 12.1919 1247 93.7161 1062.59 499.936
1635 0 104.162 11.9909 1249 94.3835 1063.57 500.063
1636 0 108.207 11.9308 1291 94.6576 1063.15 498.528
1637 0 113.27 11.8655 1344 94.4144 1062.57 497.334
1638 0 117.24 12.3849 1452 92.1012 1062.96 498.054
1639 0 123.204 13.0272 1605 90.5389 1062.31 495.435
1640 0 123.243 12.3983 1528 92.8325 1062.47 493.283
1641 0 127.139 12.2071 1552 93.2262 1062.3 492.186
1642 0 132.162 12.583 1663 92.0475 1062.95 489.678
1643 0 137.188 12.5229 1718 91.3923 1062.61 486.964
1644 0 141.167 12.0849 1706 92.66 1063.23 486.476
1645 0 145.276 12.6656 1840 91.5685 1062.54 483.497
1646 0 150.113 12.4706 1872 93.6506 1063.62 479.556
1647 0 153.161 12.1572 1862 93.9329 1063.46 482.772
1648 0 157.284 11.9338 1877 96.5317 1063.36 476.468
1649 0 162.261 11.6602 1892 96.5233 1063.34 472.6
1650 0 168.233 12.025 2023 94.6668 1063.01 470.829
1651 0 171.184 10.6202 1818 97.0737 1063.41 473.142
1652 0 177.202 11.3994 2020 96.6807 1063.52 464.986
1653 0 182.294 11.2236 2046 98.1735 1063.66 463.633
1654 0 186.212 10.9982 2048 98.1694 1063.28 462.697
1655 0 193.266 11.0418 2134 99.015 1063.71 456.165
1656 0 202.232 12.7576 2580 94.3601 1063.26 459.422
1657 0 209.289 12.0694 2526 95.2546 1063.83 457.167
1658 0 213.345 11.3947 2431 97.4332 1062.55 452.031
1659 0 223.334 12.1387 2711 94.2121 1063.5 448.923
1660 0 229.27 11.7983 2705 95.1608 1063.68 442.613
1661 0 238.287 12.5605 2993 93.1203 1063.38 439.524
1662 0 244.307 12.734 3111 95.4098 1063.4 435.831
1663 0 250.425 12.2472 3067 96.9152 1062.79 427.37
1664 0 250.419 12.2075 3057 142.926 1062.79 427.362
1665 1 304.455 9.24602 2815 104.719 1063.62 418.155
1666 0 304.417 8.48836 2584 106.003 1063.68 425.556
1667 0 303.51 8.72458 2648 105.069 1063.25 426.396
1668 0 305.365 10.3024 3146 93.0308 1062.98 414.034
1669 0 304.36 12.0909 3680 102.285 1062.04 403.351
1670 0 315.472 12.1596 3836 102.695 1062.92 401.489
1671 0 322.434 12.0304 3879 103.219 1062.29 394.859
1672 0 329.825 11.8396 3905 107.498 1062.01 393.085
1673 0 340.571 11.4866 3912 106.305 1061.85 385.942
1674 1 108.217 11.8096 1278 90.9804 1063.2 497.477
1675 0 111.3 11.5005 1280 92.7062 1063.35 494.765
1676 0 115.286 11.5973 1337 92.1967 1062.99 491.801
1677 0 118.31 11.8587 1403 91.0442 1063.3 491.519
1678 0 121.29 11.0809 1344 92.1153 1063.53 489.173
1679 0 123.28 11.1373 1373 92.4224 1063.98 488.572
1680 0 129.154 11.1959 1446 90.1521 1062.99 485.252
1681 0 132.334 11.0025 1456 91.1168 1063.68 481.192
1682 0 133.293 9.14526 1219 94.7621 1062.99 473.364
1683 0 140.308 10.6266 1491 92.605 1063.34 471.59
1684 0 140.308 10.5625 1482 114.021 1064.33 471.317
1685 0 149.326 9.89782 1478 93.343 1063.34 468.636
1686 0 153.217 10.3775 1590 92.7044 1062.28 466.106
1687 0 160.309 10.2053 1636 91.6601 1062.9 463.552
1688 0 164.183 10.0011 1642 93.3709 1063.37 457.653
1689 1 49.1818 6.42514 316 74.1424 1064.61 522.149
1690 0 50.1575 5.60235 281 74.6406 1064.6 525.502
1691 1 194.38 8.40622 1634 95.3476 1063.12 456.227
1692 0 193.325 8.70555 1683 96.0909 1063.27 447.256
1693 0 194.358 12.2197 2375 89.2543 1063.37 448.008
1694 0 199.43 11.2571 2245 91.3822 1063.19 447.131
1695 0 205.434 11.6583 2395 91.4484 1062.47 440.904
1696 0 213.42 12.4215 2651 89.3746 1062.68 443.249
1697 0 220.4 12.3866 2730 90.6103 1062.38 438.968
1698 1 163.302 11.6227 1898 86.6797 1063.34 467.845
1699 0 163.29 11.2071 1830 144.384 1064.29 466.715
1700 0 170.291 10.9577 1866 87.1693 1063.53 464.598
1701 0 174.26 11.4886 2002 87.0624 1062.73 463.861
1702 0 178.414 10.8624 1938 90.0062 1063.63 458.492
1703 0 187.208 11.7997 2209 87.7583 1063.58 453.371
1704 0 194.457 11.1541 2169 88.3232 1063.9 451.28
1705 0 200.256 11.685 2340 86.5547 1063.36 449.744
1706 0 208.451 12.2571 2555 85.6153 1063.89 445.49
1707 0 214.527 11.4997 2467 87.4212 1063.63 438.799
1708 1 52.276 8.83771 462 70.2879 1065.02 521.346
1709 0 52.4328 8.83034 463 71.7235 1064.2 519.006
1710 0 55.2544 10.8046 597 69.4657 1063.46 519.97
1711 0 57.1788 10.3535 592 83.9223 1063.77 517.519
1712 0 61.2063 10.4728 641 82.9251 1063.29 517.275
1713 0 63.1785 10.779 681 82.4391 1064.03 517.822
1714 0 63.144 10.4681 661 84.8109 1063.78 515.1
1715 0 64.3338 9.49734 611 87.4681 1064.31 514.321
1716 0 68.2245 10.8319 739 83.977 1063.59 514.39
1717 0 68.2288 10.2449 699 87.4836 1064.36 513.133
1718 0 66.1597 10.2328 677 88.644 1064.53 511.818
1719 0 70.2385 9.90909 696 89.431 1065.07 509.22
1720 0 68.237 9.12995 623 90.7689 1064.2 507.213
1721 0 77.2455 11.1074 858 84.6131 1065.38 510.481
1722 0 76.1741 10.2922 784 86.1658 1064.42 508.097
1723 0 83.1582 10.474 871 83.7428 1064.45 507.488
1724 0 82.1944 10.5238 865 83.8162 1064.32 506.188
1725 0 80.2069 10.5103 843 86.7912 1064.36 503.471
1726 0 86.2312 10.3443 892 85.5415 1064.33 501.925
1727 0 92.3158 9.41334 869 85.1738 1063.62 501.029
1728 0 93.1937 11.063 1031 81.4918 1063.64 498.154
1729 0 99.2074 10.4226 1034 84.7466 1064.34 497.997
1730 0 97.1025 10.1748 988 85.5901 1063.9 497.045
1731 0 100.265 10.4723 1050 84.5067 1063.98 494.905
1732 0 104.357 11.1157 1160 83.6879 1063.33 491.302
1733 0 107.239 10.4533 1121 83.2061 1063.2 490.732
1734 1 59.1105 7.27451 430 73.1279 1064.43 518.567
1735 0 61.1039 9.73751 595 71.3008 1064.16 515.398
1736 0 64.0473 9.72719 623 71.9342 1063.65 515.701
1737 0 65.0919 10.0934 657 72.3653 1063.36 514.752
1738 0 66.069 9.70198 641 74.2075 1063.32 512.602
1739 0 70.0786 10.7594 754 72.5358 1063.17 512.351
1740 0 70.0786 10.8164 758 119.55 1063.17 512.346
1741 0 76.136 10.7308 817 73.2179 1064.47 510.078
1742 0 76.1178 10.3261 786 83.3511 1063.23 508.01
1743 0 78.1758 10.6171 830 82.7494 1064.15 507.001
1744 0 80.14 9.99501 801 83.6454 1064.36 507.271
1745 0 83.1174 10.5874 880 82.2966 1063.81 506.773
1746 0 85.2679 9.99204 852 83.6714 1063.43 504.087
1747 0 86.174 10.3163 889 83.7447 1062.85 502.118
1748 0 89.2286 10.0865 900 82.6089 1063.41 502.563
1749 0 93.349 8.89137 830 83.0626 1063.5 499.47
1750 0 94.2066 9.67024 911 81.0263 1063.64 497.862
1751 0 94.2169 9.73286 917 134.123 1062.63 497.907
1752 0 100.186 8.92341 894 82.2617 1063.66 493.304
1753 0 103.236 9.01814 931 82.8711 1063.61 493.234
1754 0 106.23 8.55687 909 82.0022 1063.58 492.645
1755 0 107.194 8.76915 940 83.0606 1062.87 487.638
1756 0 113.182 8.6233 976 82.0809 1063.14 488.35
1757 1 58.0523 8.54402 496 65.619 1063.85 518.806
1758 0 61.0964 9.46045 578 64.6073 1064.02 518.74
1759 0 62.0461 8.23581 511 65.5675 1063.8 516.922
1760 0 63.187 8.00797 506 67.4901 1063.75 517.553
1761 0 63.1467 7.60135 480 68.725 1063.81 514.429
1762 0 65.107 8.20188 534 68.5899 1064.22 512.562
1763 0 65.1437 7.69069 501 69.7305 1064.2 513.056
1764 0 68.2698 8.07092 551 69.8385 1064.38 512.909
1765 0 72.2601 8.17878 591 70.313 1063.78 509.557
1766 0 75.3052 7.64888 576 70.7014 1064.62 510.979
1767 0 73.2008 8.23762 603 70.7197 1064.6 509.705
1768 0 74.2176 7.43759 552 73.4728 1064.58 512.071
1769 0 81.1356 8.06058 654 74.3593 1065.05 505.858
1770 0 83.1882 8.73922 727 75.282 1064.37 505.142
1771 0 82.2648 8.24167 678 76.9749 1064.05 505.796
1772 0 89.2224 8.84307 789 76.1394 1063.34 501.958
1773 0 88.2908 8.27946 731 78.3694 1064.06 501.802
1774 0 90.1775 8.62742 778 79.5244 1064.12 505.335
1775 0 90.1431 8.57525 773 80.3415 1064.28 503.833
1776 0 86.1496 5.81546 501 84.0419 1064.05 508.529
1777 1 202.429 10.8729 2201 96.7646 1063.27 440.737
1778 0 207.585 10.8967 2262 98.4209 1063.65 437.242
1779 1 107.16 8.57598 919 83.0653 1064.89 493.316
1780 0 111.168 9.2293 1026 82.2086 1064.36 491.028
1781 0 115.236 9.05095 1043 80.813 1065.04 485.913
1782 0 117.17 9.18324 1076 81.29 1064.11 484.016
1783 0 123.177 9.36052 1153 81.4363 1065.04 486.958
1784 0 125.184 8.65124 1083 83.3961 1064.75 484.4
1785 0 128.195 10.4138 1335 83.797 1064.44 482.547
1786 1 76.1277 9.94382 757 86.9036 1065.08 509.815
1787 0 77.1161 9.94604 767 88.0065 1065.15 508.541
1788 0 79.0824 9.54701 755 89.2132 1065.08 509.082
1789 0 79.1357 9.71749 769 89.3238 1065.08 506.269
1790 0 84.135 9.72247 818 88.7017 1064.52 506.315
1791 0 82.0844 9.40495 772 90.6619 1064.8 504.207
1792 0 87.0971 9.51812 829 89.9662 1064.41 500.283
1793 0 92.1358 9.89843 912 87.3278 1065.08 501.88
1794 0 95.1104 10.1146 962 85.5644 1064.51 502.11
1795 1 166.289 10.0428 1670 87.4916 1063.3 464.189
1796 0 171.224 9.91682 1698 89.3981 1062.38 461.465
1797 0 175.272 9.6992 1700 89.5882 1062.75 457.224
1798 0 184.396 10.4015 1918 87.3259 1062.36 457.74
1799 0 189.182 10.9207 2066 83.9927 1061.82 456.258
1800 0 195.379 11.1169 2172 84.1326 1062.1 454.188
1801 0 196.383 9.78699 1922 88.4381 1062.17 446.824
1802 1 112.147 6.88382 772 86.2914 1063.06 494.522
1803 0 115.254 9.77844 1127 88.7276 1062.37 492.376
1804 0 117.298 10.469 1228 87.4601 1062.75 491.138
1805 0 120.358 10.2278 1231 86.9415 1062.14 493.488
1806 0 123.293 10.2277 1261 86.9175 1062.02 490.898
1807 0 126.312 10.2999 1301 86.6741 1062.11 490.148
1808 0 128.275 10.2904 1320 87.4886 1062.72 485.654
1809 0 130.27 10.0407 1308 87.0711 1061.89 482.187
1810 0 132.543 9.69499 1285 89.077 1062.45 480.19
1811 0 135.32 9.54774 1292 90.065 1061.68 478.943
1812 0 138.346 9.57745 1325 89.9653 1062.73 476.154
1813 0 143.411 9.72731 1395 88.7176 1062.2 476.46
1814 1 74.067 9.08637 673 80.682 1062.4 510.853
1815 0 76.0593 8.83521 672 82.3497 1061.6 508.993
1816 0 81.0937 10.3707 841 79.4055 1061.32 510.975
1817 0 85.1468 10.8166 921 79.9479 1061.84 509.278
1818 0 88.0987 10.3293 910 82.2549 1061.38 508.904
1819 1 49.0487 9.70465 476 82.9475 1061.05 526.926
1820 0 51.0856 10.4139 532 80.9586 1060.81 527.158
1821 0 54.0372 10.5853 572 82.8496 1061.84 525.044
1822 0 55.0232 10.5228 579 84.7807 1061.84 523.432
1823 0 57.0227 10.7852 615 85.1073 1062.4 522.654
1824 0 53.0282 9.12722 484 81.3264 1062.9 523.855
1825 0 54.1528 9.67633 524 79.8798 1063.08 526.059
1826 0 57.0593 9.46384 540 79.9759 1063.68 523.593
1827 0 57.0505 9.14979 522 80.2644 1062.98 523.567
1828 0 60.0573 9.8073 589 79.1307 1063.2 520.392
1829 0 61.0389 9.28916 567 79.134 1062.33 520.596
1830 0 62.0937 9.32462 579 80.057 1063.02 518.361
1831 0 61.0436 9.3212 569 80.9385 1062.3 519.278
1832 0 65.0555 9.68404 630 79.2159 1062.64 518.175
1833 0 66.0556 9.82505 649 80.9969 1062.56 516.752
1834 0 69.0584 9.75985 674 79.6884 1062.76 516.562
1835 0 69.03 10.126 699 84.0587 1062.65 514.455
1836 0 73.0161 10.3813 758 83.5858 1063.6 513.892
1837 0 76.0772 10.7917 821 84.905 1063.62 511.335
1838 0 76.0743 10.7395 817 86.5716 1063.48 509.957
1839 0 80.0367 10.92 874 87.1808 1063.17 507.586
1840 0 81.0472 10.1793 825 89.76 1063.61 509.149
1841 0 82.0444 10.8844 893 89.0571 1062.41 506.034
1842 0 87.0584 10.9696 955 85.3278 1063.52 504.55
1843 0 86.1105 11.4736 988 91.8512 1062.94 501.155
1844 0 90.1553 10.8036 974 91.3039 1062.9 500.631
1845 0 93.0494 11.3058 1052 96.5228 1062.67 498.945
1846 0 92.0527 10.9177 1005 120.82 1061.65 497.766
1847 0 102.087 12.4403 1270 89.326 1063.71 498.571
1848 0 104.102 12.6991 1322 90.6294 1063.75 498.018
1849 0 104.169 12.6813 1321 91.6374 1063.64 496.957
1850 0 109.178 12.9605 1415 93.9484 1063.88 493.972
1851 0 110.358 12.2873 1356 97.5236 1062.63 493.497
1852 0 112.326 12.2679 1378 98.5639 1062.98 492.141
1853 1 65.2689 10.3418 675 95.2148 1062.88 516.176
1854 0 65.2816 11.213 732 93.4563 1063.52 515.291
1855 0 68.2266 11.3446 774 90.2545 1062.72 515.738
1856 0 68.2255 9.68846 661 84.5961 1062.65 514.685
1857 0 69.163 9.58605 663 84.9578 1062.32 515.053
1858 0 73.0916 10.439 763 79.3879 1062.23 513.054
1859 0 75.1455 10.5129 790 79.2367 1062.64 511.213
1860 0 76.1275 10.6532 811 79.603 1062.59 510.259
1861 0 78.0741 9.86242 770 79.0727 1063.24 511.17
1862 0 80.0847 9.98943 800 79.4138 1062.77 509.92
1863 0 83.0695 10.6658 886 79.0135 1062.89 505.763
1864 0 85.0579 10.6751 908 79.2104 1062.81 505.436
1865 0 86.0671 10.2013 878 80.0285 1063.1 504.646
1866 0 89.1039 10.1791 907 80.9405 1063.46 501.089
1867 0 89.1143 10.1779 907 121.19 1064.45 500.933
1868 0 89.1399 10.1189 902 120.85 1065.45 500.904
1869 0 89.1322 10.1198 902 120.572 1066.45 500.904
1870 0 99.1115 10.7354 1064 82.4727 1062.99 493.677
1871 0 103.192 10.8342 1118 91.7388 1062.92 494.59
1872 0 103.216 10.4151 1075 94.346 1062.76 490.641
1873 0 107.248 10.3032 1105 93.6833 1062.54 489.678
1874 0 109.229 9.77759 1068 95.0562 1062.15 486.459
1875 0 114.196 10.8673 1241 91.6865 1062.69 486.267
1876 0 117.172 9.80613 1149 94.9713 1062.57 482.735
1877 0 120.202 10.0082 1203 94.5154 1062.32 480.387
1878 0 122.309 9.1735 1122 97.1052 1062.71 479.227
1879 0 127.272 9.68007 1232 96.4229 1062.5 478.567
1880 0 131.266 9.9188 1302 94.639 1062.9 473.56
1881 0 135.363 9.81806 1329 95.7351 1062.87 472.017
1882 1 77.1008 8.75478 675 82.5911 1063.28 505.864
1883 0 76.0991 8.17355 622 85.9598 1062.52 501.674
1884 0 81.1592 7.71323 626 84.5655 1063.32 501.685
1885 0 82.1751 8.84697 727 84.5915 1063.54 501.634
1886 0 83.1492 8.15402 678 86.4602 1063.12 498.819
1887 0 90.1408 10.1064 911 82.1131 1063.05 501.678
1888 0 91.259 9.76342 891 83.7542 1063.06 501.552
1889 0 93.1049 9.62356 896 87.5569 1062.64 499.85
1890 0 97.21 10.1636 988 85.6134 1062.33 500.99
1891 0 101.237 10.2532 1038 86.1397 1062.21 498.253
1892 0 103.167 10.5266 1086 88.7385 1062.77 497.374
1893 0 104.201 9.99027 1041 93.1672 1062.83 494.405
1894 0 107.204 10.0462 1077 93.7122 1063.31 492.177
1895 0 106.185 10.1709 1080 129.59 1063.3 491.957
1896 0 112.162 10.1371 1137 94.8909 1063.34 488.816
1897 0 114.182 10.0278 1145 95.7782 1063.65 487.219
1898 0 119.116 10.6283 1266 94.763 1063.62 484.862
1899 0 121.219 10.5264 1276 95.0572 1063.25 484.987
1900 0 126.19 10.825 1366 94.2635 1063.38 484.016
1901 0 127.084 10.5206 1337 95.267 1063.48 480.977
1902 0 131.104 10.2895 1349 96.9133 1063.92 476.574
1903 0 136.166 10.3918 1415 95.5145 1063.97 477.878
1904 0 140.156 10.6738 1496 96.6544 1062.69 475.842
1905 0 142.168 10.164 1445 98.5474 1062.94 472.565
1906 0 147.166 10.0635 1481 98.37 1062.62 471.798
1907 0 152.227 10.6289 1618 96.4289 1062.6 471.778
1908 1 84.1858 9.36025 788 86.151 1062.43 506.406
1909 0 86.1186 9.67271 833 85.8559 1061.68 505.126
1910 0 89.1503 9.8934 882 84.7415 1061.81 505.194
1911 0 93.1342 9.50242 885 99.0678 1061.83 500.103
1912 0 94.1798 10.8197 1019 95.1325 1061.85 499.633
1913 0 99.166 10.2051 1012 94.9387 1061.87 498.08
1914 0 101.231 10.313 1044 95.8534 1061.57 497.675
1915 0 104.252 10.9734 1144 92.1198 1061.77 495.594
1916 0 106.25 10.3906 1104 91.5616 1062.05 494.467
1917 0 107.196 10.0844 1081 91.2442 1061.87 491.69
1918 0 112.168 10.199 1144 90.1495 1061.84 491.21
1919 0 114.204 10.0259 1145 91.6079 1062.26 487.232
1920 0 116.257 9.65962 1123 93.0214 1061.83 485.193
1921 0 119.163 9.40727 1121 92.57 1062.36 484.471
1922 0 125.159 9.85145 1233 91.2879 1061.77 481.951
1923 0 127.109 10.0071 1272 91.1958 1062.18 480.039
1924 0 132.204 10.3779 1372 88.7092 1061.68 480.356
1925 1 77.1534 7.99705 617 78.5624 1062.54 511.76
1926 0 77.1125 8.29957 640 78.3922 1062.23 508.212
1927 0 79.1152 9.64416 763 76.886 1061.73 506.813
1928 0 81.1936 8.14103 661 81.5461 1061.95 503.617
1929 0 85.19 8.65125 737 89.692 1060.87 504.186
1930 0 86.1764 8.35495 720 90.75 1061.38 497.821
1931 0 88.172 8.2339 726 89.3623 1061.92 500.902
1932 0 92.1867 9.28551 856 87.486 1062.45 497.86
1933 0 96.1986 7.99388 769 86.9675 1062.14 498.876
1934 0 106.222 8.1527 866 86.7564 1061.7 497.529
1935 0 104.216 7.63801 796 123.981 1060.63 494.992
1936 0 102.185 6.49804 664 87.997 1061.58 489.107
1937 0 106.183 8.28755 880 84.2182 1060.98 491.602
1938 0 108.194 7.37564 798 86.995 1060.77 483.8
1939 0 113.197 9.83242 1113 81.124 1061.23 489.955
1940 0 116.186 9.46755 1100 81.5964 1060.5 489.655
1941 0 118.223 9.21985 1090 83.3679 1061.54 487.35
1942 0 120.2 9.40101 1130 82.5788 1061.23 486.194
1943 0 123.238 9.153 1128 83.1516 1061.84 483.816
1944 0 126.264 8.43471 1065 84.6911 1061.51 482.464
1945 0 132.199 9.69748 1282 82.5452 1061.61 480.252
1946 0 135.259 9.98082 1350 83.3837 1061.28 476.904
1947 0 138.218 9.45606 1307 85.3749 1061.11 472.417
1948 1 81.1084 7.85368 637 73.5071 1061.01 509.706
1949 0 83.1004 8.1588 678 75.5354 1062.02 504.417
1950 0 86.0884 9.51348 819 73.0061 1061.57 505.955
1951 0 87.1877 9.25589 807 74.5167 1061.99 503.98
1952 0 89.1005 8.83272 787 75.0648 1061.08 500.685
1953 0 93.1515 9.52212 887 75.1759 1062.42 501.561
1954 0 98.0918 9.78675 960 74.1781 1061.36 499.872
1955 0 101.147 10.0843 1020 73.7902 1063.08 498.012
1956 0 103.105 9.68914 999 76.1602 1062.98 497.22
1957 0 106.256 9.99472 1062 74.7542 1062.63 494.379
1958 0 109.22 9.96156 1088 74.614 1062.14 492.684
1959 0 113.138 10.0762 1140 74.8544 1062.92 491.235
1960 0 115.185 10.0274 1155 75.3983 1062.67 489.343
1961 0 119.237 9.89628 1180 75.8441 1062.99 488.601
1962 0 121.104 10.3052 1248 76.3077 1062.17 485.464
1963 0 123.163 9.45086 1164 78.6813 1061.69 483.135
1964 1 68.0267 8.23206 560 69.1107 1062.39 518.271
1965 0 71.0501 9.59886 682 68.4472 1062.29 515.765
1966 0 71.0447 9.58551 681 104.04 1062.32 515.681
1967 0 79.0864 9.98908 790 78.6481 1062.7 513.087
1968 0 80.0787 9.9652 798 79.9123 1062.28 512.543
1969 0 83.1512 9.98181 830 80.2 1061.62 512.631
1970 0 86.1249 9.95067 857 80.2054 1062.09 510.282
1971 0 87.1114 10.3316 900 79.1922 1061.46 508.924
1972 0 89.2012 9.9326 886 80.4052 1061.81 508.135
1973 0 90.1545 9.97177 899 80.2414 1060.81 506.39
1974 0 93.2848 9.59428 895 80.8324 1061.14 507.506
1975 0 96.0652 9.96198 957 80.768 1061.17 503.796
1976 0 98.1782 10.3282 1014 78.7061 1061.02 503.349
1977 0 101.085 8.34941 844 81.5818 1061.69 502.658
1978 0 106.158 9.40111 998 80.1363 1062.07 500.809
1979 0 107.161 9.77031 1047 81.0201 1061.43 497.569
1980 0 110.076 8.13078 895 83.2235 1061.85 498.829
1981 0 113.158 7.98002 903 85.4175 1060.93 493.267
1982 0 113.158 8.01537 907 122.04 1059.93 493.404
1983 1 60.0166 9.19745 552 75.4855 1061.33 518.806
1984 0 60.0523 9.05877 544 76.2776 1061.25 518.327
1985 0 65.0251 10.6882 695 71.6446 1062.1 519.47
1986 0 62.0426 8.49417 527 77.1708 1061.52 519.186
1987 0 66.0777 9.64017 637 75.4961 1061.54 518.909
1988 0 66.0366 9.49473 627 76.5391 1061.18 516.542
1989 0 70.0944 9.51574 667 77.033 1061.55 517.43
1990 0 71.0648 10.596 753 75.583 1061.75 517.441
1991 0 72.0426 9.68871 698 77.7006 1061.99 517.579
1992 0 75.0937 10.4403 784 77.2602 1061.23 515.158
1993 0 76.0368 9.92941 755 78.8464 1061.3 515.445
1994 0 76.0558 9.55877 727 82.4746 1061.23 513.648
1995 0 80.0818 10.8639 870 81.8632 1061.42 511.785
1996 0 82.0835 10.0751 827 85.3785 1060.62 510.88
1997 0 85.0982 10.4233 887 86.4115 1060.62 508.904
1998 0 86.0329 10.3333 889 87.3465 1060.2 509.003
1999 0 89.0579 10.8918 970 87.5165 1060.72 508.403
2000 0 89.0593 10.8467 966 132.108 1060.73 508.425
2001 0 90.0616 10.7038 964 131.754 1060.72 508.334
2002 0 95.1225 10.9017 1037 89.2922 1060.96 503.965
2003 0 98.092 11.2955 1108 89.9747 1061.23 501.384
2004 0 100.17 10.8815 1090 91.6459 1061.2 499.806
2005 0 101.086 10.3279 1044 94.342 1060.67 499.723
2006 0 106.133 11.2218 1191 93.4937 1061.26 498.578
2007 0 108.087 10.4083 1125 97.1138 1061.08 495.342
2008 1 49.1021 9.65336 474 92.7743 1062.29 526.591
2009 0 51.0456 9.24664 472 94.4555 1062.25 526.691
2010 0 53.0565 10.6302 564 92.4238 1061.9 525.523
2011 0 54.0459 10.6576 576 93.5972 1062.47 524.986
2012 0 54.0486 10.6386 575 125.736 1063.48 525.056
2013 0 54.0415 10.677 577 125.08 1064.48 525.1
2014 0 54.0424 9.78862 529 93.5671 1061.96 524.665
2015 0 56.0452 9.74214 546 94.3388 1062.24 524.94
2016 0 57.0292 9.53897 544 96.704 1062.5 523.739
2017 0 60.0357 10.5437 633 96.4171 1062 522.411
2018 0 60.0419 10.3095 619 98.7448 1062.24 520.869
2019 0 64.0351 10.7909 691 97.767 1062.14 520.651
2020 0 65.0687 11.4341 744 98.7594 1062.4 520.371
2021 0 65.053 10.6529 693 102.362 1062.47 518.475
2022 0 69.0448 10.399 718 102.127 1062.61 518.907
2023 0 70.0656 11.5463 809 101.114 1062.4 516.855
2024 0 71.0514 11.2454 799 101.678 1062.13 517.84
2025 0 75.0486 11.6191 872 101.561 1062.11 515.456
2026 0 76.0445 11.1777 850 103.184 1062.22 514.965
2027 0 77.0456 11.7593 906 103.129 1061.75 514.781
2028 0 81.0694 12.0637 978 102.79 1061.45 512.853
2029 0 83.0665 12.2191 1015 103.387 1061.64 510.779
2030 0 83.0822 11.6872 971 106.11 1061.55 510.045
2031 0 91.0266 11.2934 1028 105.233 1061.35 508.374
2032 0 92.0425 11.9075 1096 103.371 1061.3 507.567
2033 0 91.0798 11.8577 1080 103.697 1061.71 507.924
2034 0 93.0373 12.0167 1118 104.19 1061.86 506.483
2035 0 98.0782 11.9598 1173 102.565 1061.75 505.35
2036 0 99.1313 11.6411 1154 103.667 1062.02 503.285
2037 0 101.107 11.8983 1203 101.703 1061.83 501.673
2038 0 104.084 11.5195 1199 101.686 1061.16 498.544
2039 0 108.064 11.7893 1274 99.4639 1061.82 497.575
2040 0 111.161 11.9376 1327 99.2314 1061.56 495.262
2041 0 114.126 12.3022 1404 98.5527 1061.39 493.414
2042 0 119.079 12.0005 1429 98.133 1060.99 493.134
2043 1 64.0483 9.94562 637 93.248 1061.9 517.958
2044 0 66.0164 10.4974 693 93.0216 1062.23 515.975
2045 0 66.0582 9.82467 649 94.1911 1062.27 513.416
2046 0 68.0653 10.1226 689 91.9971 1061.94 511.925
2047 0 69.0801 9.00404 622 84.6415 1060.93 515.268
2048 0 70.0949 9.43007 661 84.2859 1061.44 512.837
2049 0 71.1103 9.02823 642 83.4704 1061.33 512.632
2050 0 74.1534 8.63075 640 81.5203 1061.8 513.272
2051 0 76.1062 9.21082 701 81.5578 1060.98 508.505
2052 0 80.172 9.41725 755 81.1775 1060.94 510.241
2053 0 80.1703 9.31766 747 82.8768 1061.05 508.692
2054 0 83.0744 9.59381 797 81.8645 1060.94 507.61
2055 0 84.2105 8.50251 716 85.919 1060.78 505.591
2056 0 90.1474 9.95038 897 82.8004 1061.48 504.043
2057 0 93.1265 9.8146 914 83.9519 1061.79 503.277
2058 0 94.1392 9.92148 934 84.5717 1061.76 502.141
2059 0 93.1278 9.97554 929 115.971 1061.75 502.239
2060 0 100.217 10.4972 1052 85.2186 1061.14 498.283
2061 0 102.235 10.6324 1087 85.4517 1061.37 497.655
2062 0 107.231 11.4519 1228 83.509 1061.05 495.056
2063 0 111.153 11.3267 1259 83.9094 1061.55 492.235
2064 1 60.1375 9.12908 549 84.5956 1061.3 519.144
2065 0 62.0893 9.48634 589 84.056 1061.92 517.762
2066 0 65.1179 10.4272 679 81.8792 1061.54 519.272
2067 0 67.1706 10.5701 710 82.5 1061.85 516.983
2068 0 69.0842 10.9142 754 80.5544 1061.83 516.599
2069 0 68.0773 10.5468 718 84.9833 1062.12 518.528
2070 0 71.1483 10.3727 738 85.2561 1062.08 517.871
2071 0 73.0845 10.6042 775 85.4013 1062.02 516.283
2072 0 73.0658 9.51197 695 87.8892 1061.81 514.247
2073 0 76.0912 9.96173 758 87.1847 1061.87 511.561
2074 0 79.1541 10.7891 854 86.0796 1061.39 509.576
2075 0 79.0786 10.1292 801 87.3146 1061.38 508.243
2076 0 84.1255 10.3774 873 86.0401 1061.36 506.737
2077 0 84.1297 9.69931 816 88.1679 1061.75 505.335
2078 0 83.1068 9.45771 786 89.4008 1060.78 499.854
2079 0 88.1406 9.73445 858 86.9697 1060.74 500.666
2080 0 90.1037 9.82202 885 91.1333 1060.05 498.305
2081 0 95.1306 10.3121 981 90.9317 1060.73 497.576
2082 0 98.1254 10.242 1005 90.8965 1060.27 494.508
2083 0 101.121 10.9473 1107 89.6793 1060.73 494.775
2084 0 103.141 10.5293 1086 91.4853 1060.42 493.708
2085 0 110.213 11.8407 1305 88.7762 1061.23 492.888
2086 0 112.163 11.5012 1290 90.1085 1060.48 490.133
2087 0 116.227 11.8131 1373 91.2957 1060.99 489.96
2088 0 119.202 11.6357 1387 91.7073 1060.52 486.121
2089 0 124.188 11.8691 1474 91.5624 1060.49 483.907
2090 0 130.256 12.2221 1592 90.5113 1060.77 483.356
2091 0 134.093 12.29 1648 92.5079 1061.69 480.39
2092 1 80.0351 10.5204 842 87.1461 1061.86 510.409
2093 0 81.0885 10.7537 872 86.6846 1061.98 508.386
2094 0 83.0871 10.5913 880 84.9182 1061.91 507.128
2095 0 86.0733 11.4321 984 85.3323 1062.2 506.079
2096 0 89.0175 11.5371 1027 84.6115 1061.9 505.39
2097 0 91.0375 11.0943 1010 86.4277 1061.62 505.122
2098 0 94.0355 10.496 987 86.9422 1061.07 504.415
2099 0 97.1085 10.6994 1039 85.2878 1061.87 498.807
2100 0 100.079 11.3111 1132 82.8834 1061.5 498.344
2101 0 102.116 10.3411 1056 83.5492 1061.72 497.298
2102 0 103.116 9.6978 1000 84.153 1061.4 496.888
2103 0 108.139 10.0426 1086 83.0866 1061.26 496.248
2104 0 110.097 10.4635 1152 82.9714 1061.62 491.98
2105 0 113.124 9.65312 1092 85.1996 1061.28 489.665
2106 0 113.078 9.57742 1083 86.2447 1061.01 488.36
2107 1 64.066 8.78781 563 76.6092 1060.86 517.552
2108 0 67.1299 10.5169 706 75.2153 1061.38 514.657
2109 0 69.1493 11.2221 776 74.4832 1061.02 512.45
2110 0 72.0873 10.7925 778 75.18 1061.08 511.388
2111 0 72.1296 9.81567 708 77.2712 1061.06 511.729
2112 0 75.0952 10.1338 761 77.0552 1061.41 511.401
2113 0 78.0878 10.565 825 76.5309 1060.91 509.032
2114 0 80.1539 9.96833 799 80.6446 1061.64 507.314
2115 0 82.1357 10.5801 869 80.6387 1061.09 506.282
2116 0 85.158 10.2515 873 82.6449 1061.26 504.468
2117 0 89.1348 10.1756 907 82.3462 1061.18 504.158
2118 0 92.1588 10.6989 986 81.7596 1061.58 501.439
2119 0 97.1737 11.3096 1099 86.0737 1061.6 498.548
2120 0 99.1549 9.95412 987 89.0182 1061.7 497.19
2121 0 104.173 10.1946 1062 88.2994 1061.33 495.015
2122 0 107.161 10.041 1076 87.6747 1061.35 492.742
2123 1 58.1386 9.78696 569 80.5993 1062.36 518.664
2124 0 58.1286 10.3736 603 81.209 1062.36 516.454
2125 0 62.1205 11.0753 688 79.8852 1062.44 516.631
2126 0 65.1116 10.8276 705 80.739 1061.86 515.739
2127 0 64.1458 9.9305 637 82.1711 1062.06 516.59
2128 0 64.1616 9.4449 606 83.4587 1061.44 513.828
2129 0 66.1907 9.89565 655 82.6198 1062.95 512.814
2130 0 71.1324 11.345 807 78.9727 1062.34 512.577
2131 0 73.1703 11.3161 828 78.5845 1062.87 512.558
2132 0 74.1398 10.6421 789 81.3891 1062.4 510.288
2133 0 78.1638 11.1816 874 80.6956 1062.89 509.192
2134 0 77.1769 10.8323 836 82.36 1062.91 509.561
2135 0 82.101 11.9974 985 80.9127 1063.27 508.284
2136 0 83.1402 11.4866 955 84.934 1063.15 505.983
2137 0 86.0672 11.9209 1026 82.8889 1062.99 506.103
2138 0 89.1764 11.0343 984 83.6535 1062.73 503.393
2139 0 92.1494 12.0999 1115 83.226 1062.84 501.116
2140 0 95.1233 11.8268 1125 85.4827 1062.35 500.46
2141 0 98.1262 12.0457 1182 87.0102 1062.91 499.379
2142 0 102.146 12.4821 1275 88.1639 1062.57 497.366
2143 0 104.089 12.2971 1280 89.6531 1062.76 496.165
2144 1 58.0623 9.9376 577 88.4783 1063.42 520.771
2145 0 59.0547 10.1939 602 89.892 1063.42 518.593
2146 0 61.0303 10.2408 625 89.9552 1062.31 518.411
2147 0 62.0386 10.9287 678 88.9469 1062.84 516.639
2148 0 65.0382 11.1473 725 86.4745 1062.23 516.379
2149 0 67.0452 11.8726 796 86.0678 1063.23 514.692
2150 0 67.043 11.7984 791 134.144 1064.22 514.731
2151 0 71.0804 12.0849 859 95.44 1062.39 511.503
2152 0 70.0726 11.1599 782 89.0524 1062.41 513.174
2153 0 71.0543 11.0057 782 89.7097 1062.76 513.722
2154 0 73.0472 11.4173 834 89.1799 1062.22 513.799
2155 0 76.0828 11.6978 890 89.8034 1062.92 510.361
2156 0 78.1013 12.1381 948 88.6667 1062.5 510.006
2157 0 81.106 12.2802 996 89.1667 1062.27 507.253
2158 0 83.0868 11.9634 994 89.1308 1062.47 507.01
2159 0 87.087 12.6196 1099 87.6242 1062.51 504.47
2160 0 91.0948 13.0523 1189 85.5063 1062.51 504.59
2161 0 93.1507 12.9575 1207 87.8865 1063.32 502.123
2162 0 95.1187 13.6566 1299 86.662 1063.05 500.209
2163 0 97.1039 13.12 1274 88.4223 1062.97 500.632
2164 0 101.051 13.1518 1329 88.4289 1063.27 497.946
2165 0 102.078 12.8137 1308 90.9526 1063.2 495.586
2166 0 105.122 13.0419 1371 89.8796 1064.28 495.803
2167 0 109.091 13.2367 1444 89.5561 1063.68 492.695
2168 0 111.113 13.6168 1513 88.5354 1063.3 491.639
2169 0 112.101 12.7564 1430 90.9895 1063.59 492.256
2170 0 115.101 12.5629 1446 90.556 1063.55 490.321
2171 0 118.102 11.6764 1379 92.5758 1063.68 489.259
2172 0 121.139 12.432 1506 91.075 1063.71 485.155
2173 0 126.081 12.8568 1621 89.7064 1063.03 484.086
2174 0 130.193 12.7042 1654 90.6058 1063.34 480.623
2175 1 71.08 10.4108 740 94.6419 1064.11 506.607
2176 0 76.0703 11.8969 905 90.2122 1064.52 507.71
2177 0 77.038 11.5917 893 92.2576 1064.27 506.034
2178 0 80.0851 11.5252 923 91.6295 1064.21 504.45
2179 0 82.1468 12.1246 996 85.4689 1063.64 507.311
2180 0 85.1042 11.6093 988 83.6215 1064.08 508.432
2181 0 87.1871 11.1714 974 84.6427 1063.53 504.706
2182 0 90.1639 11.5456 1041 84.1585 1064.08 503.635
2183 0 92.1758 11.6191 1071 84.7964 1064.15 502.123
2184 0 95.1108 11.7232 1115 84.6933 1064.63 502.643
2185 0 96.1674 12.1351 1167 85.3822 1064.33 502.066
2186 0 98.2196 11.6677 1146 89.3133 1064.29 497.72
2187 0 104.117 12.7933 1332 85.4767 1063.1 497.624
2188 0 107.25 12.9138 1385 87.117 1063.61 494.606
2189 0 110.21 13.5015 1488 85.5995 1063.2 493.771
2190 0 113.262 12.9699 1469 84.7243 1063.75 492.648
2191 0 116.186 12.8157 1489 85.1081 1063.67 490.216
2192 0 120.094 13.0648 1569 84.1587 1063.46 489.485
2193 0 123.138 13.1072 1614 84.6066 1063.29 486.686
2194 0 129.19 13.3756 1728 81.7691 1063.26 484.175
2195 0 133.209 13.0397 1737 82.1543 1063.19 484.319
2196 0 137.282 12.7475 1750 85.78 1063.64 481.92
2197 1 82.1044 12.2892 1009 84.1685 1064.99 512.472
2198 0 82.1409 12.3446 1014 90.4576 1064.15 509.419
2199 0 86.1158 12.3903 1067 83.7591 1064.32 509.32
2200 0 88.141 12.775 1126 82.1945 1064.2 508.552
2201 0 89.1411 12.7663 1138 83.5562 1064.22 506.895
2202 0 94.1726 13.1779 1241 82.3674 1064.53 504.847
2203 0 97.1145 13.2421 1286 83.1765 1064.15 503.012
2204 0 97.1189 13.4268 1304 85.8114 1064.2 501.714
2205 0 100.127 13.1233 1314 87.3653 1063.84 500.812
2206 0 104.158 13.7484 1432 87.7947 1063.49 499.007
2207 0 107.128 13.6192 1459 89.3544 1064.01 497.556
2208 0 107.137 12.1713 1304 94.2569 1063.33 498.866
2209 0 109.157 11.9187 1301 96.9039 1064.2 495.297
2210 0 114.125 12.4163 1417 96.2258 1063.52 494.753
2211 0 115.113 12.3705 1424 97.7774 1063.54 491.503
2212 0 121.112 12.5421 1519 97.4852 1063.47 489.946
2213 0 124.137 12.3251 1530 98.6928 1062.77 487.964
2214 0 128.12 13.1595 1686 98.0059 1062.75 484.344
2215 0 134.201 13.9642 1874 96.2753 1062.69 480.3
2216 0 133.192 12.0052 1599 103.31 1062.3 480.689
2217 0 140.161 12.3858 1736 102.085 1062.09 480.494
2218 0 145.228 12.7179 1847 101.206 1062.22 476.418
2219 1 78.1066 11.0746 865 95.5711 1062.88 508.477
2220 0 82.0999 12.0098 986 92.6106 1063.37 507.605
2221 0 85.1566 12.4359 1059 91.8621 1063.34 505.881
2222 0 88.113 11.996 1057 95.1873 1062.93 506.156
2223 0 90.1476 11.459 1033 99.3679 1063.52 505.984
2224 0 91.1271 11.3248 1032 98.8459 1063.35 504.538
2225 0 95.0861 12.5465 1193 96.5029 1062.86 499.144
2226 0 98.1576 12.2049 1198 96.9624 1062.69 498.859
2227 0 100.095 11.6389 1165 99.5348 1062.32 498.527
2228 0 105.106 12.3304 1296 99.7492 1062.02 495.475
2229 0 110.187 13.4589 1483 96.3972 1062.34 493.503
2230 0 112.11 12.7464 1429 100.154 1062.21 493.467
2231 0 112.114 12.7548 1430 154.059 1062.21 493.472
2232 0 118.102 12.5569 1483 101.69 1062.34 491.871
2233 0 121.107 12.5426 1519 101.323 1062.26 490.034
2234 0 124.134 12.8168 1591 102.345 1061.78 487.616
2235 1 71.0436 11.0355 784 102.511 1062.88 514.954
2236 0 74.0576 11.8691 879 100.754 1062 514.353
2237 0 76.0541 12.2676 933 98.224 1062.17 512.733
2238 0 79.0518 13.1053 1036 95.6371 1061.44 511.543
2239 0 80.0799 12.7498 1021 93.3683 1062.26 510.963
2240 0 84.0638 12.5143 1052 93.3184 1062.37 509.479
2241 0 84.0401 12.4583 1047 94.4919 1062.43 507.433
2242 0 87.1012 13.1456 1145 92.1162 1061.93 505.392
2243 0 91.0902 12.559 1144 94.7413 1062.44 506.018
2244 0 92.1165 12.5819 1159 95.4616 1062.22 504.328
2245 0 94.0617 12.8533 1209 95.5376 1062.78 503.011
2246 0 96.0621 12.825 1232 96.1112 1062.5 501.891
2247 0 99.1254 12.5498 1244 97.0129 1061.94 498.946
2248 0 103.259 12.7931 1321 95.9553 1062.19 498.518
2249 0 104.161 13.6039 1417 96.4834 1062.45 496.133
2250 0 102.119 12.0154 1227 103.824 1062.26 495.845
2251 0 105.146 12.0879 1271 103.985 1062.14 495.155
2252 0 114.104 13.33 1521 99.5536 1061.83 493.989
2253 0 110.183 11.8076 1301 106.172 1060.69 491.397
2254 0 113.08 11.8677 1342 106.205 1060.7 489.206
2255 0 118.21 12.1564 1437 105.303 1061.88 487.442
2256 0 121.166 12.3879 1501 104.521 1061.93 483.773
2257 0 126.192 12.4334 1569 103.143 1061.69 484.814
2258 0 128.119 12.2152 1565 103.943 1061.66 480.948
2259 0 134.219 12.2114 1639 100.631 1061.89 476.344
2260 1 72.191 9.79346 707 99.0707 1061.9 507.402
2261 0 75.1995 10.6517 801 97.186 1061.9 507.924
2262 0 78.1004 11.9077 930 97.9161 1061.73 507.948
2263 0 81.0824 12.4318 1008 94.0268 1061.95 508.22
2264 0 83.0836 13.0591 1085 91.141 1062.47 509.057
2265 0 89.0827 12.1909 1086 90.7634 1061.96 508.285
2266 0 88.05 12.6746 1116 91.9892 1062.97 507.326
2267 0 92.0883 13.107 1207 90.9967 1062.24 505.472
2268 0 94.0786 13.0104 1224 92.6021 1062.13 502.567
2269 0 97.0711 13.6807 1328 90.939 1062.29 503.261
2270 0 98.0362 13.138 1288 93.7252 1062.97 499.672
2271 0 101.077 13.3859 1353 93.2653 1063.2 499.035
2272 0 105.06 13.7731 1447 91.7602 1063.77 498.749
2273 0 108.035 13.8381 1495 91.5646 1062.25 497.181
2274 0 111.046 13.706 1522 90.6485 1062.45 495.586
2275 0 114.063 13.8345 1578 89.7947 1061.8 493.663
2276 0 117.071 13.7865 1614 90.6115 1062.36 490.75
2277 0 121.059 13.8363 1675 89.6746 1062.7 489.544
2278 0 119.049 12.2135 1454 95.1307 1062.21 491.043
2279 0 125.067 12.7292 1592 93.6847 1062.39 488.312
2280 0 128.169 12.6708 1624 93.367 1062.51 487.44
2281 0 132.198 12.7082 1680 92.8994 1062.59 486.737
2282 0 136.175 12.315 1677 95.3459 1062.39 483.394
2283 0 141.136 12.4773 1761 94.9699 1063.34 482.299
2284 0 147.188 12.5146 1842 94.7883 1062.97 478.449
2285 0 150.205 13.0821 1965 93.8305 1062.59 478.552
2286 0 157.151 12.7648 2006 93.8051 1062.65 475.23
2287 1 87.1096 12.6048 1098 87.0392 1062.54 508.71
2288 0 88.0939 12.3618 1089 88.3379 1062.27 506.59
2289 0 92.0911 12.4659 1148 86.3911 1062.18 506.652
2290 0 95.0881 13.0721 1243 85.5776 1062 503.9
2291 0 98.1196 12.6682 1243 87.1931 1061.9 502.65
2292 0 101.217 12.8833 1304 87.0928 1062.08 501.608
2293 0 100.116 11.9661 1198 91.1127 1060.83 502.309
2294 0 104.159 11.7417 1223 91.6296 1061.44 499.735
2295 0 105.206 11.6724 1228 92.1702 1061.25 498.656
2296 0 108.156 12.1214 1311 90.8688 1061.33 496.554
2297 0 112.264 12.0876 1357 91.0884 1061.3 495.051
2298 0 114.141 12.1691 1389 91.3211 1061.86 492.941
2299 0 119.211 12.3563 1473 89.3293 1061.44 490.824
2300 0 123.2 13.2306 1630 86.9865 1061.59 486.736
2301 0 130.147 12.8547 1673 86.7531 1062.16 485.597
2302 0 134.245 12.5293 1682 87.0083 1061.6 483.618
2303 0 140.221 13.2219 1854 84.6672 1062.07 481.207
2304 0 143.282 13.1489 1884 85.6306 1062.15 477.318
2305 1 82.1216 10.9837 902 91.1341 1061.35 506.44
2306 0 87.2035 12.7059 1108 85.4477 1062 506.283
2307 0 90.1602 13.5647 1223 83.1938 1061.25 505.177
2308 0 90.175 12.4979 1127 86.3194 1061.05 505.212
2309 0 92.284 12.3857 1143 87.1898 1061.26 500.931
2310 0 97.2596 12.9345 1258 86.0509 1061.62 500.623
2311 0 97.2209 12.8779 1252 86.0351 1061.68 499.224
2312 0 100.243 12.5594 1259 87.2137 1061.78 497.512
2313 0 105.155 13.0474 1372 86.1035 1061.85 496.81
2314 0 105.18 12.664 1332 88.4159 1061.34 493.632
2315 0 107.134 11.6677 1250 93.0816 1060.81 492.902
2316 0 113.353 12.4302 1409 91.5486 1062.04 492.312
2317 0 117.235 12.2489 1436 93.1121 1061.49 491.428
2318 0 120.287 12.9857 1562 92.7446 1061.44 488.1
2319 0 123.162 12.7474 1570 90.9191 1061.25 485.784
2320 0 125.225 12.3937 1552 91.4034 1061.17 483.722
2321 0 129.368 12.2364 1583 94.1068 1061.19 482.206
2322 0 132.26 11.8554 1568 96.007 1061.26 478.57
2323 0 135.271 11.8799 1607 96.6609 1061.35 475.884
2324 0 140.303 12.8437 1802 94.6759 1061.3 473.824
2325 0 148.359 12.8607 1908 94.3145 1060.8 473.336
2326 0 152.396 12.8022 1951 93.7032 1060.97 472.164
2327 0 157.359 12.5636 1977 94.087 1061.74 466.867
2328 0 164.25 13.3638 2195 91.7007 1061.18 465.103
2329 1 98.312 12.8062 1259 91.2137 1061.56 498.68
2330 0 99.3371 13.721 1363 92.4431 1061.33 495.434
2331 0 101.331 13.5891 1377 90.7756 1061.87 494.971
2332 0 105.425 13.953 1471 89.0483 1062.17 494.769
2333 0 109.377 14.034 1535 88.9212 1062.34 493.184
2334 0 112.464 14.458 1626 88.107 1061.54 489.75
2335 0 115.262 14.0723 1622 89.0709 1062.14 488.711
2336 0 118.415 13.4695 1595 90.4025 1062.58 489.172
2337 0 122.408 13.6102 1666 92.4058 1062.67 485.759
2338 0 124.457 12.8558 1600 94.3844 1062.86 484.051
2339 0 129.408 13.1367 1700 93.3435 1062.6 480.858
2340 0 131.374 13.0467 1714 94.2608 1062.16 479.183
2341 0 136.448 13.2211 1804 93.7007 1062.6 477.595
2342 0 143.442 13.5456 1943 92.5919 1063.95 473.758
2343 0 148.717 14.0065 2083 92.2064 1064.15 470.276
2344 0 155.463 14.1384 2198 90.7193 1063 468.502
2345 0 160.56 14.3248 2300 91.1609 1062.59 465.718
2346 0 160.56 14.3248 2300 164.651 1062.59 465.515
2347 0 168.526 13.2621 2235 92.8868 1062.98 461.367
2348 0 173.532 13.1215 2277 92.2824 1061.78 457.231
2349 0 178.325 13.2118 2356 89.868 1061.53 455.784
2350 0 184.326 12.9824 2393 91.8266 1060.83 453.831
2351 0 190.343 12.8767 2451 91.8845 1060.57 451.477
2352 0 195.331 13.3721 2612 89.8629 1060.44 449.69
2353 0 201.258 13.1324 2643 90.2422 1060.97 447.498
2354 0 209.404 13.5145 2830 90.335 1060.16 444.347
2355 0 216.479 13.0405 2823 91.4648 1059.84 441.306
2356 0 221.417 13.1336 2908 92.1207 1060.11 439.078
2357 0 229.579 13.3549 3066 91.167 1060.59 434.918
2358 0 236.489 13.5017 3193 91.1403 1060.17 430.366
2359 1 188.465 11.981 2258 92.3636 1060.51 458.713
2360 0 194.479 12.4024 2412 91.8901 1060.15 452.313
2361 0 200.478 12.6997 2546 91.3225 1059.91 451.071
2362 0 206.487 12.4027 2561 93.9918 1059.6 444.95
2363 0 214.647 12.5975 2704 91.8928 1059.36 441.622
2364 0 220.612 12.284 2710 92.9756 1058.59 439.355
2365 0 227.438 12.9926 2955 92.6014 1058.65 432.956
2366 0 234.481 12.6065 2956 92.7672 1058.35 430.362
2367 0 242.576 12.2229 2965 94.7474 1058.48 422.855
2368 0 251.567 12.5454 3156 94.1362 1057.22 420.962
2369 0 258.598 12.328 3188 96.1581 1059.3 415.88
2370 0 267.518 13.2589 3547 94.3885 1058.9 410.172
2371 0 273.495 13.1008 3583 95.1331 1058.5 406.43
2372 0 283.562 15.2242 4317 90.0276 1058.61 395.634
2373 0 290.615 14.9442 4343 90.4796 1058.55 389.607
2374 0 301.602 15.4442 4658 90.1303 1058.97 385.47
2375 0 310.593 14.6076 4537 94.276 1058.7 378.279
2376 1 72.1821 11.4848 829 86.4548 1058.75 504.534
2377 0 72.1895 11.8023 852 86.4918 1059.14 505.198
2378 0 76.3556 12.1144 925 86.0919 1059.6 504.549
2379 0 77.1609 12.947 999 84.3163 1059.21 503.361
2380 0 80.2267 12.8262 1029 84.9106 1059.78 501.344
2381 0 82.234 12.6468 1040 85.9788 1058.99 498.349
2382 0 85.3041 12.813 1093 85.1748 1059.55 496.803
2383 0 87.2924 12.5326 1094 86.1828 1059.54 494.235
2384 1 98.1956 15.52 1524 75.2579 1060.54 489.182
2385 0 90.2215 14.8523 1340 82.0313 1059.86 486.107
2386 0 96.2458 13.133 1264 86.7089 1059.97 489.286
2387 0 96.2457 12.0213 1157 90.4434 1060.34 489.624
2388 0 102.223 12.2673 1254 89.0542 1060.51 486.819
2389 0 106.253 12.4043 1318 88.8528 1059.63 485.436
2390 0 114.213 16.5918 1895 75.6865 1059.95 475.823
2391 0 116.291 15.5214 1805 79.5346 1059.9 477.385
2392 0 115.197 12.3788 1426 89.9011 1060.12 477.634
2393 0 117.274 12.3045 1443 91.2495 1060.11 474.893
2394 0 127.168 15.0038 1908 81.9838 1060.4 469.567
2395 0 127.244 13.651 1737 87.4842 1060.04 468.884
2396 0 129.249 13.2535 1713 87.6982 1060.03 468.073
2397 0 135.195 15.6811 2120 87.8873 1060.25 467.505
2398 0 138.289 14.0069 1937 87.3283 1060.39 466.045
2399 0 141.196 14.1293 1995 87.9058 1060.16 462.139
2400 0 143.267 13.7296 1967 89.9232 1059.88 460.593
2401 0 148.313 13.7682 2042 90.1885 1060.98 459.239
2402 0 154.194 13.7619 2122 91.0674 1060.58 459.478
2403 0 158.174 13.8139 2185 92.0375 1060.6 458.986
2404 0 163.234 14.0228 2289 92.2765 1060.75 455.597
2405 0 170.459 14.2674 2432 91.729 1061.28 453.285
2406 0 173.235 14.0041 2426 94.1529 1061.67 452.464
2407 0 180.258 14.2185 2563 93.5829 1060.97 452.148
2408 0 185.18 14.7371 2729 91.7464 1061.71 449.904
2409 0 191.329 14.2268 2722 92.6157 1060.8 446.11
2410 0 198.234 14.8915 2952 91.4448 1061.62 444.499
2411 0 201.438 13.8753 2795 94.9012 1062.14 442.042
2412 1 120.331 11.2523 1354 87.5569 1062.4 485.484
2413 0 122.148 10.9539 1338 90.4843 1061.25 485.88
2414 0 125.211 10.9096 1366 99.2006 1061.2 480.942
2415 0 130.233 11.0111 1434 98.4365 1061.96 481.519
2416 0 134.183 11.1117 1491 97.7478 1062.51 480.606
2417 0 137.243 11.578 1589 97.5393 1062.13 474.644
2418 0 142.209 11.0893 1577 98.5327 1062.11 471.216
2419 0 145.258 10.4711 1521 99.5772 1061.95 468.76
2420 0 151.276 10.7287 1623 98.8811 1062.5 466.216
2421 0 156.261 11.1288 1739 99.0126 1061.98 462.235
2422 0 160.26 11.0945 1778 100.037 1062.27 460.164
2423 0 165.202 11.2347 1856 98.5329 1061.8 458.899
2424 0 172.171 12.4295 2140 96.7033 1061.86 457.655
2425 1 25.0575 5.46743 137 67.4234 1061.77 537.584
2426 0 26.0296 5.49375 143 66.5594 1061.53 538.077
2427 0 23.0267 4.6902 108 66.963 1061.93 537.944
2428 0 24.012 5.87206 141 63.6241 1061.84 537.979
2429 0 25.0381 5.07227 127 64.5748 1061.83 536.866
2430 0 29.0388 4.99332 145 63.8 1061.33 535.517
2431 0 27.0438 4.32631 117 63.2906 1061.92 537.145
2432 0 26.0095 3.99854 104 61.8942 1061.19 535.788
2433 0 32.041 5.99232 192 57.7135 1061.18 532.193
2434 1 0 0 0 -nan -nan -nan
2435 1 31.0073 3.99905 124 59.6613 1061.91 536.806
2436 0 31.0237 5.47968 170 58.5 1061.26 535.406
2437 0 32.0545 3.55644 114 60.8772 1061.89 533.307
2438 0 35.0656 5.07621 178 59.3596 1062.13 531.258
2439 0 36.0227 6.02399 217 57.553 1062.89 531.926
2440 0 36.074 6.56983 237 57.2278 1063.21 532.042
2441 0 29.0161 4.06671 118 58.6271 1063.56 536.703
2442 0 31.0114 3.45034 107 58.0374 1063.44 540.402
2443 0 33.0177 3.27097 108 59.6389 1063.65 540.259
2444 0 32.0897 3.02278 97 62.3299 1062.82 540.804
2445 0 35.2319 9.0259 318 69.9811 1062.14 535.676
2446 1 19.0878 7.59649 145 62.6759 1062.72 544.221
2447 0 19.1019 8.48084 162 62.0494 1061.82 544.173
2448 0 20.0694 8.52042 171 63.386 1062.01 544.304
2449 0 21.0791 9.01368 190 62.7316 1061.9 544.716
2450 0 18.1442 8.43245 153 66.5752 1062.88 545.124
2451 0 21.0716 8.39991 177 65.5932 1061.73 544.689
2452 0 19.1053 9.2121 176 65.5455 1061.69 545.045
2453 0 23.3332 8.6572 202 66.5644 1061.13 543.847
2454 0 23.1804 9.10251 211 65.872 1061.92 543.834
2455 0 19.0997 9.31952 178 68.8034 1062.17 544.545
2456 0 23.0915 8.8344 204 66.0931 1062.48 543.892
2457 0 24.0288 9.07244 218 65.3257 1061.39 543.697
2458 0 24.1008 8.92087 215 66.0326 1061.41 543.367
2459 0 21.2055 9.14859 194 69.1082 1061.93 543.918
2460 0 23.0281 9.11928 210 67.8571 1061.71 543.324
2461 0 24.1408 9.07177 219 67.1552 1061.7 543.397
2462 0 23.0015 9.26026 213 66.8216 1061.32 543.502
2463 0 19.0342 7.82803 149 73.2953 1061.8 544.107
2464 0 18.0044 6.60949 119 78.5966 1062.59 544.664
2465 0 19.0622 7.55422 144 73.0208 1062.17 544.583
2466 0 19.0857 7.75451 148 71.8919 1061.31 544.088
2467 0 21.0096 7.99633 168 71.2917 1062.08 544.298
2468 0 21.1317 9.46444 200 67.41 1061.93 545.095
2469 1 50.2817 9.30756 468 68.1111 1063.96 531.387
2470 0 51.3664 9.63665 495 68.7374 1063.49 530.986
2471 0 53.286 9.27072 494 67.3947 1063.97 528.332
2472 0 53.2832 8.2953 442 68.2262 1064.17 529.296
2473 0 54.1726 10.8357 587 62.8433 1064.03 531.707
2474 0 55.2581 9.75422 539 65.1707 1063.37 530.905
2475 0 56.3195 10.1208 570 62.8333 1063.57 530.242
2476 0 57.2457 9.81734 562 62.4413 1063.03 530.616
2477 0 51.3892 9.34048 480 65.2062 1063.26 532.321
2478 0 53.2147 9.56502 509 63.3674 1062.74 532.259
2479 0 52.3276 9.15387 479 64.2359 1062.16 532.063
2480 0 53.5514 9.09407 487 63.3203 1062.07 531.398
2481 0 52.6246 9.95732 524 62.6469 1061.58 532.643
2482 0 56.6903 7.76147 440 66.025 1062.34 530.743
2483 0 52.5867 9.79334 515 64.0835 1062.18 530.742
2484 0 55.5343 8.3552 464 64.1573 1061.95 530.817
2485 0 59.6142 8.45436 504 63.3889 1061.92 530.339
2486 0 59.6624 8.91684 532 63.1654 1061.88 528.773
2487 0 58.719 8.75355 514 63.1167 1061.8 530.379
2488 0 53.5445 9.61816 515 62.1903 1061.37 529.575
2489 0 52.4239 10.1671 533 61.8143 1060.65 529.094
2490 0 54.4306 9.66367 526 60.7205 1061.46 528.468
2491 0 54.4871 9.61695 524 59.7176 1061.44 529.721
2492 0 55.5944 10.1449 564 59.383 1062.12 529
2493 0 54.5819 9.08726 496 61.4093 1060.93 529.861
2494 0 57.5803 9.18716 529 60.4253 1061.34 528.72
2495 1 20.0389 8.08428 162 63.5864 1061.98 545.259
2496 0 21.1052 8.43395 178 62.9157 1062.38 544.848
2497 0 19.0688 9.17729 175 64.0114 1061.06 545.034
2498 0 22.0444 8.66433 191 61.7173 1062.53 545.11
2499 0 22.1095 9.40773 208 59.7452 1062.51 544.952
2500 0 22.1565 8.03376 178 62.2022 1062.17 545.286
2501 0 21.0721 7.35571 155 62.6387 1062.28 544.613
2502 0 20.067 7.17596 144 62.9653 1062.44 544.764
2503 0 20.063 8.1244 163 61.681 1062.81 545.607
2504 0 19.1158 8.78856 168 61.1429 1062.77 544.161
2505 0 21.1214 9.13765 193 58.6684 1062.53 544.969
