time division length width area intensity CMx CMy
0 0 36.0755 11.6145 419 144.475 29.148 523.229
1 0 38.022 12.1509 462 130.089 28.2532 521.463
2 0 40.0747 12.851 515 138.654 27.9165 523.472
3 0 40.0299 13.7647 551 128.708 27.7677 523.132
4 0 43.0606 13.3068 573 127.459 27.7592 523.351
5 0 42.1034 12.9206 544 127.05 27.7316 523.329
6 0 44.0316 12.4683 549 121.111 28.3169 522.685
7 0 47.0266 12.6099 593 117.044 28.1754 521.759
8 0 49.0534 13.3732 656 112.45 27.875 521.079
9 0 50.0192 13.2149 661 113.546 28.348 521.295
10 0 52.0487 13.5258 704 112.249 28.1392 520.095
11 0 54.02 13.532 731 112.736 27.6621 518.063
12 0 55.0313 13.6286 750 109.612 28.4093 518.521
13 0 58.0336 13.3888 777 121.873 27.4955 515.664
14 0 59.1189 13.4813 797 121.183 26.7792 515.211
15 0 60.0875 13.1641 791 122.665 26.8142 514.474
16 0 63.0687 12.7639 805 122.783 27.1019 514.216
17 0 66.1077 13.2511 876 119.436 26.7842 510.102
18 0 67.0775 13.4173 900 117.813 26.4011 510.821
19 0 70.1032 13.6941 960 115.539 26.699 509.736
20 0 73.1487 13.2196 967 116.088 26.4447 509.059
21 0 74.1235 13.3696 991 115.868 26.7457 508.422
22 0 79.0522 13.1812 1042 116.085 26.6775 507.348
23 0 80.1518 13.9111 1115 114.909 27.0556 505.967
24 0 84.1515 13.8678 1167 115.093 26.5673 505.202
25 0 86.0977 13.3221 1147 116.341 26.4185 504.146
26 1 47.0536 12.1988 574 109.768 26.2125 525.275
27 0 49.039 12.7042 623 107.693 26.3018 523.677
28 0 49.0345 12.2567 601 110.682 26.0765 523.692
29 0 51.077 13.2936 679 106.971 25.9072 522.218
30 0 52.0507 13.8327 720 104.842 26.0111 521.528
31 0 52.0593 13.062 680 102.162 26.0824 524.269
32 0 51.0248 11.7394 599 106.366 26.1169 523.918
33 0 53.0385 12.1421 644 106.21 25.5016 522.115
34 0 57.0656 11.6883 667 106.516 25.2129 521.475
35 0 59.0951 12.6068 745 103.11 25.1906 521.066
36 0 62.0466 13.1353 815 100.066 25.7129 518.778
37 0 63.1191 13.3399 842 100.101 24.5249 516.254
38 0 64.017 12.6841 812 99.6909 24.7549 514.553
39 0 68.0401 12.816 872 98.3337 23.9094 512.218
40 0 69.0185 13.0255 899 98.683 24.9043 512.078
41 0 70.0722 13.0294 913 97.7251 24.8839 510.65
42 0 74.0636 12.7458 944 99.517 25.0201 509.057
43 0 76.0992 13.167 1002 98.6138 24.2505 507.975
44 0 80.0352 13.3066 1065 98.4723 24.3465 506.608
45 0 82.0432 13.627 1118 99.5814 23.8569 504.153
46 0 86.052 13.271 1142 100.729 24.2776 502.911
47 0 90.0832 13.7539 1239 99.6965 24.7918 502.42
48 0 92.0925 13.7253 1264 100.9 24.1717 500.382
49 0 94.046 13.2595 1247 100.207 24.5237 498.449
50 0 98.0592 13.757 1349 102.252 24.3306 497.035
51 0 103.067 14.1268 1456 100.484 24.7596 496.35
52 0 105.069 13.4483 1413 98.1323 25.0318 493.059
53 0 109.074 13.5871 1482 99.8954 24.6964 492.994
54 0 111.097 13.7898 1532 101.503 24.2337 491.676
55 1 59.0184 12.2843 725 99.869 24.3421 517.979
56 0 60.0404 11.892 714 102.838 24.2591 514.805
57 0 63.0152 12.8699 811 102.272 24.4673 513.044
58 0 64.0113 13.2164 846 106.518 23.8546 513.317
59 0 64.0439 12.6007 807 97.8253 25.4585 514.715
60 0 68.0496 12.9905 884 95.5928 24.638 512.938
61 0 69.0297 12.1976 842 98.3765 25.1841 511.232
62 0 72.0424 12.7147 916 96.4618 24.7751 510.128
63 0 76.0604 13.1343 999 95.016 25.4354 509.496
64 0 77.0627 13.1451 1013 95.2201 24.7502 508.289
65 0 80.0763 12.7628 1022 96.1556 25.0509 508.405
66 0 83.0363 13.0666 1085 95.4654 24.2406 505.698
67 0 87.0825 13.2977 1158 94.8964 23.9275 505.13
68 0 90.0396 13.2275 1191 95.1612 23.827 503.559
69 0 93.0857 13.3211 1240 94.9371 23.8008 501.361
70 0 96.069 13.0843 1257 95.1201 23.7271 501.016
71 0 97.06 12.8374 1246 97.7014 24.4494 500.031
72 0 103.076 12.6121 1300 97.0992 23.9915 497.102
73 0 107.19 13.1263 1407 95.3895 24.6681 495.095
74 0 110.242 13.7697 1518 94.1252 24.0659 492.617
75 0 113.174 13.3423 1510 88.4113 24.1556 493.493
76 1 61.0251 12.8144 782 96.2378 25.0384 516.754
77 0 63.0577 12.9088 814 96.3071 24.6683 515.306
78 0 61.0116 12.4894 762 91.3858 24.2493 517.631
79 0 63.059 12.1473 766 92.1449 23.6488 516.586
80 0 66.0369 12.4476 822 92.1557 23.6375 514.78
81 0 68.0309 12.4502 847 93.1535 24.4498 513.328
82 0 70.0495 12.6482 886 92.386 24.5418 512.742
83 0 72.0379 13.1736 949 91.7007 24.1623 510.992
84 0 76.0412 13.0324 991 94.2896 23.8527 510.236
85 0 77.1087 13.4226 1035 94.3343 23.7005 508.242
86 0 80.1036 12.746 1021 95.7493 24.6866 507.613
87 0 83.0613 13.2673 1102 95.0581 24.1189 505.539
88 0 85.0655 13.4485 1144 95.6949 24.9808 502.832
89 0 86.0781 12.7675 1099 97.5805 24.5378 501.589
90 0 90.1602 13.5093 1218 96.2627 25.3407 500.983
91 0 91.0695 12.9681 1181 98.928 24.9712 500.086
92 0 95.119 13.1099 1247 98.2173 24.1628 497.168
93 0 99.0924 13.442 1332 98.0083 24.3056 495.781
94 0 99.0752 12.9195 1280 101.527 23.8797 493.313
95 1 57.0573 11.1642 637 101.609 24.4427 516.311
96 0 58.051 12.4201 721 97.1512 23.8488 517.226
97 0 59.0427 12.5841 743 97.4092 23.5653 516.623
98 0 61.0413 12.0246 734 93.3992 23.8747 518.67
99 0 63.0238 12.3445 778 92.9602 24.3368 517.149
100 0 63.019 12.3772 780 93.1308 24.8244 516.196
101 0 64.0608 12.0823 774 95.916 24.9897 516.195
102 0 66.0535 12.3233 814 96.6278 23.8219 515.123
103 0 68.0305 12.4797 849 96.1779 24.0436 513.846
104 0 72.0585 12.3788 892 96.1917 24.0796 512.251
105 0 75.0857 12.7721 959 94.9864 24.9166 510.103
106 0 75.0431 12.5661 943 97.8717 24.2344 510.503
107 0 77.045 13.0054 1002 97.8254 24.1846 507.737
108 0 78.0991 12.3561 965 100.642 24.4601 506.796
109 0 82.0916 12.7297 1045 100.899 24.11 504.24
110 0 85.052 12.9215 1099 100.383 25.2338 503.282
111 0 88.0506 13.038 1148 99.6899 24.4216 500.753
112 0 91.0922 13.1515 1198 101.2 24.808 499.771
113 0 95.0399 12.8157 1218 101.172 24.0222 499.608
114 0 98.0796 12.8569 1261 101.753 23.797 498.283
115 0 100.094 13.2276 1324 101.949 24.0937 496.881
116 0 103.275 13.0525 1348 101.682 24.1595 496.617
117 1 53.1691 10.871 578 100.249 24.6817 520.517
118 0 55.2544 11.076 612 99.5229 24.6127 517.985
119 0 56.2186 11.1351 626 94.0272 24.7204 515.254
120 0 56.0661 10.9335 613 92.1517 24.7814 519.682
121 0 58.0996 11.3942 662 91.3686 25.2372 519.526
122 0 58.0746 11.1581 648 91.858 24.8534 518.463
123 0 60.0868 11.6332 699 90.3119 24.4235 518.807
124 0 63.0945 11.5065 726 89.6749 24.6791 516.864
125 0 62.0847 10.5018 652 89.1242 24.9064 514.859
126 0 65.0865 11.4156 743 86.0808 24.4926 514.725
127 0 68.0791 11.6629 794 85.8829 23.7418 513.06
128 0 72.0942 11.5959 836 85.9665 24.3708 512.184
129 0 74.1526 12.5687 932 83.4024 25.6567 510.484
130 0 75.0958 12.3575 928 84.3707 25.2931 508.433
131 0 76.0638 12.0162 914 85.2298 24.4759 509.189
132 0 78.205 12.2371 957 85.4357 24.1902 506.828
133 0 80.0646 11.9279 955 84.7654 24.3277 507.337
134 0 84.1346 12.5513 1056 83.6572 24.357 505.266
135 0 85.0939 12.4568 1060 83.034 24.1425 503.001
136 0 87.0695 12.1397 1057 84.0255 23.9792 503.116
137 0 90.1561 11.9792 1080 83.063 24.2972 501.781
138 0 92.1038 11.9756 1103 82.9438 24.7063 500.041
139 0 94.121 11.6021 1092 84.8764 24.4295 499.49
140 0 97.1295 10.9853 1067 86.0844 24.0993 497.498
141 0 99.0907 11.7266 1162 84.512 23.5869 497.764
142 0 103.125 11.8013 1217 84.7699 23.4873 494.957
143 1 52.159 10.3146 538 81.4665 24.6747 522.379
144 0 53.1469 10.8755 578 81.0813 24.3737 519.308
145 0 54.072 9.96819 539 83.2913 25.039 519.703
146 0 59.2015 11.4355 677 83.5052 24.6322 517.415
147 0 58.0797 11.5875 673 91.9896 24.7637 514.621
148 0 60.234 11.6379 701 91.3195 24.8559 513.93
149 0 62.1757 11.7892 733 91.7967 23.8267 513.063
150 0 65.2568 11.7536 767 91.837 23.7119 512.133
151 0 66.2015 11.4499 758 93.5646 24.0435 512.306
152 0 67.2172 11.8422 796 93.2198 23.9133 511.227
153 0 67.1864 11.5648 777 96.3256 23.7902 508.92
154 0 71.1824 11.9833 853 94.5979 23.524 509.958
155 0 72.1789 11.9287 861 95.619 23.9524 508.272
156 0 76.1395 12.0043 914 94.268 23.8523 507.204
157 0 77.1796 12.2571 946 93.8636 24.5285 505.519
158 0 79.1693 12.1259 960 93.9333 23.9677 504.897
159 0 81.0917 11.6535 945 88.2328 24.0942 504.902
160 0 81.1109 10.8247 878 90.6777 23.6765 506.122
161 1 45.0421 10.5901 477 88.1635 25.1321 521.952
162 0 46.0269 11.1674 514 87.6732 24.6479 521.047
163 0 47.047 11.2441 529 87.7694 24.293 521.123
164 0 48.0832 11.3761 547 85.9781 22.6801 521.934
165 0 50.0163 11.4763 574 88.7613 24.284 521.911
166 0 52.0395 11.2991 588 90.2891 24.2041 520.156
167 0 54.0289 11.901 643 88.7341 24.9596 518.134
168 0 55.0511 11.5166 634 89.3092 24.0757 516.986
169 0 57.1249 11.9738 684 88.8596 23.6257 516.376
170 0 57.2181 11.0804 634 92.2776 22.7871 515.83
171 0 59.1005 11.7596 695 90.2302 22.9194 514.207
172 0 61.122 12.9577 792 86.4255 23.4773 514.116
173 0 63.1583 11.5583 730 90.0849 23.637 512.295
174 0 65.1763 12.0903 788 89.547 23.3541 512.816
175 0 66.0681 12.2147 807 89.9616 23.3098 512.041
176 0 65.1625 12.1696 793 92.6923 22.6419 510.946
177 0 68.1709 12.7767 871 87.3352 22.3559 510.338
178 0 71.1948 12.6695 902 87.653 22.3614 507.488
179 0 72.1793 12.6768 915 89.2219 22.0109 507.475
180 0 76.2024 12.9523 987 88.1672 22.2918 506.209
181 0 77.1092 12.9816 1001 89.3716 22.2328 506.469
182 0 79.143 12.2689 971 92.0844 22.0041 505.828
183 0 81.2083 11.9446 970 92.6557 22.7175 503.382
184 1 42.1016 10.3559 436 90.6904 22.0505 523.835
185 0 42.0463 9.5371 401 89.1646 22.798 522.402
186 0 40.0323 9.99194 400 87.34 22.5775 520.17
187 0 46.0544 11.3778 524 89.2366 21.8378 523.21
188 0 46.0471 10.3155 475 88.3158 24.1242 522.309
189 0 44.0698 10.3926 458 84.8603 24.0917 523.284
190 0 47.0566 10.5405 496 82.1754 24.6331 523.044
191 0 46.0658 10.485 483 81.911 24.4845 523.369
192 0 48.0443 10.1989 490 81.4571 24.6633 522.79
193 0 50.041 9.85192 493 81.9189 23.8032 521.625
194 0 52.0567 10.2004 531 80.7928 23.806 519.546
195 0 52.082 10.5027 547 81.1737 23.7459 520.481
196 0 55.0641 11.078 610 80.259 23.741 518.577
197 0 56.095 10.5892 594 81.729 22.8788 517.98
198 0 58.0267 11.4258 663 81.8944 22.8929 517.733
199 0 62.0612 11.9559 742 80.1604 22.9124 517.212
200 0 63.0629 12.0832 762 82.8333 23.2283 516.052
201 0 65.0843 11.7694 766 85.0248 23.1632 516.123
202 0 68.064 12.0622 821 108.633 23.0256 514.828
203 0 70.1472 12.4738 875 107.438 22.8011 514.751
204 0 72.1071 12.426 896 109.477 22.5413 511.881
205 0 76.1196 12.6117 960 107.675 22.8521 510.603
206 0 77.1658 12.5055 965 108.713 22.3503 510.67
207 0 81.1121 12.7724 1036 108.446 22.694 508.521
208 0 86.1212 13.2488 1141 104.489 22.2393 508.256
209 0 88.0676 13.0127 1146 105.667 22.4834 507.15
210 1 47.015 11.6771 549 106.75 22.5774 526.299
211 0 47.0423 11.9042 560 108.043 23.1768 525.986
212 0 50.0434 12.3093 616 109.138 23.3701 524.472
213 0 52.0628 12.8115 667 107.097 23.2879 525.388
214 0 50.0721 12.8015 641 108.509 23.5491 523.989
215 0 49.0488 11.9065 584 116.313 22.1353 524.767
216 0 51.0261 12.1702 621 116.093 22.6232 525.113
217 0 53.0475 12.0835 641 114.279 22.8752 523.284
218 0 54.0774 11.5945 627 118.196 23.1563 521.297
219 0 57.0696 11.7225 669 116.366 23.9567 522.003
220 0 58.0904 12.2912 714 114.507 23.381 520.895
221 0 59.0583 12.022 710 117.665 22.6986 518.921
222 0 61.0473 11.8597 724 114.446 22.7362 519.844
223 0 62.0725 12.5498 779 113.84 22.8203 518.752
224 0 68.0801 12.6469 861 112.599 23.4599 516.676
225 0 68.0816 12.1619 828 115.879 22.7403 515.85
226 0 69.0566 12.3956 856 117.912 22.7068 513.082
227 0 73.145 12.7145 930 115.605 22.4129 513.785
228 0 74.0771 12.325 913 118.37 22.3965 512.43
229 0 76.0567 12.4381 946 121.385 22.204 510.302
230 0 80.0347 12.4946 1000 117.519 21.881 510.969
231 0 82.0738 12.1354 996 118.837 22.0291 508.714
232 1 45.0339 10.7919 486 119.397 20.9609 527.998
233 0 45.019 11.8172 532 117.218 21.7049 527.111
234 0 46.0315 11.8397 545 116.36 22.2367 525.163
235 0 47.0047 12.1052 569 116.65 22.2513 524.262
236 0 49.0523 12.293 603 107.99 20.8574 524.29
237 0 49.0328 12.7873 627 106.278 20.6778 523.777
238 0 53.1038 12.259 651 103.885 22.8602 522.725
239 0 53.0467 12.4607 661 105.281 22.466 522.519
240 0 55.093 12.851 708 104.607 22.5565 521.379
241 0 58.151 13.6025 791 100.48 22.1795 521.625
242 0 58.0481 13.3682 776 102.274 22.893 520.606
243 0 59.0492 13.1924 779 104.374 22.8549 518.037
244 0 60.0735 12.7178 764 107.548 22.4673 517.956
245 0 64.1442 13.0487 837 107.313 21.6201 516.888
246 0 65.0903 12.7822 832 112.026 21.7981 515.822
247 0 67.0667 13.5537 909 111.674 21.3399 515.367
248 0 68.0773 12.9118 879 116.743 21.7122 515.324
249 0 71.1208 12.6123 897 118.931 21.7202 514.666
250 0 73.0874 13.2034 965 117.711 22.3264 513.745
251 0 75.0805 12.773 959 122.157 23.2555 512.862
252 0 77.1804 12.8271 990 123.298 23 511.582
253 0 78.101 13.1881 1030 124.874 22.9709 509.623
254 0 82.1188 12.9447 1063 126.187 22.2963 508.422
255 0 82.1482 12.7453 1047 129.459 22.5788 507.554
256 0 86.153 12.884 1110 128.182 22.4739 505.931
257 0 89.0514 13.2396 1179 127.338 22.3681 504.455
258 0 91.1077 13.4566 1226 126.958 22.1737 504.28
259 0 97.1373 13.2184 1284 124.212 22.0833 502.456
260 0 96.1198 12.6613 1217 126.483 22.4634 500.827
261 0 101.138 13.2295 1338 124.788 21.9903 498.604
262 1 53.1214 11.4643 609 123.918 22.1166 523.573
263 0 55.0453 12.1718 670 116.972 22.1 523.09
264 0 58.0794 11.8458 688 108.763 22.4884 519.679
265 0 59.1232 12.567 743 117.674 22.5572 520.362
266 0 61.0509 12.809 782 116.895 21.766 519.519
267 0 63.0835 12.4597 786 117.3 21.5878 518.396
268 0 64.0581 12.9102 827 119.175 21.2394 516.213
269 0 67.0497 12.5728 843 117.643 21.3677 515.953
270 0 69.0337 12.4432 859 118.007 21.4435 515.658
271 0 70.0919 12.7547 894 120.498 21.2315 513.781
272 0 72.0905 12.8866 929 120.775 20.8181 513.787
273 0 75.0663 12.9486 972 120.073 21.2181 511.84
274 0 78.067 13.8983 1085 116.973 21.1484 512.17
275 0 80.0792 13.5741 1087 118.73 22.15 510.431
276 0 84.082 13.6533 1148 118.588 21.8258 510.065
277 0 83.0842 12.7581 1060 127.176 21.4189 508.901
278 0 86.0915 12.5796 1083 129.045 21.5032 509.03
279 0 90.1549 12.9777 1170 128.046 21.0282 506.555
280 0 90.1526 12.4012 1118 130.4 21.7657 506.427
281 1 49.0635 11.6176 570 128.979 20.986 524.912
282 0 51.056 12.1631 621 128.325 21.5556 524.863
283 0 51.0689 11.8467 605 131.317 20.762 523.182
284 0 54.0662 12.6142 682 126.023 22.3314 521.979
285 0 54.0453 12.5635 679 127.059 23.2754 522.037
286 0 56.0683 12.6988 712 126.445 23.4031 520.993
287 0 53.0244 11.1269 590 123.381 21.6356 523.463
288 0 58.1215 11.7168 681 119.869 20.6637 521.994
289 0 58.0647 11.935 693 119.626 21.0058 520.144
290 0 60.0825 11.9336 717 119.978 20.6067 520.374
291 0 63.0491 12.4665 786 117.298 21.1285 518.434
292 0 64.1729 11.9832 769 119.445 20.143 517.705
293 0 67.058 12.5861 844 117.655 20.4408 517.493
294 0 70.1475 11.818 829 117.677 20.3136 515.596
295 0 71.1311 12.6949 903 117.449 20.2381 515.244
296 0 73.054 12.3744 904 120.021 20.4159 513.347
297 0 78.1218 12.9541 1012 116.302 20.2638 512.148
298 0 78.1345 13.0928 1023 116.757 20.6266 511.775
299 0 81.1482 12.3848 1005 122.977 20.4517 510.401
300 0 83.0831 12.7703 1061 122.986 19.9953 508.258
301 0 85.0655 12.8607 1094 123.224 19.8135 506.515
302 0 88.0253 12.7577 1123 124.513 19.3571 505.205
303 0 91.0303 13.2813 1209 121.077 19.8304 504.674
304 0 95.0803 13.0626 1242 122.181 20.7955 501.464
305 0 96.1043 13.2668 1275 121.196 20.5365 499.812
306 0 100.169 13.667 1369 117.852 21.5325 497.673
307 0 104.177 13.9954 1458 116.433 21.0734 494.746
308 0 107.247 13.1007 1405 123 20.7552 492.364
309 0 110.26 13.8219 1524 120.396 20.7211 491.791
310 1 59.1317 10.8909 644 119.154 20.4115 517.297
311 0 59.1761 11.0518 654 117.384 20.9465 514.45
312 0 64.1334 12.2713 787 120.075 20.9365 516.658
313 0 65.0369 12.4852 812 122.617 21.9951 515.829
314 0 68.0343 12.626 859 121.747 21.5867 515.753
315 0 70.0418 12.9637 908 121.501 22.0011 513.884
316 0 69.0466 11.9629 826 115.568 21.6731 517.447
317 0 74.1202 12.2908 911 113.999 20.0988 516.335
318 0 75.0388 12.2737 921 115.556 20.1987 514.397
319 0 78.0876 12.3835 967 115.137 19.5584 514.903
320 0 81.1318 12.2763 996 115.099 19.9106 513.162
321 0 83.0859 11.9996 997 117.461 19.9709 511.285
322 0 86.067 11.8745 1022 117.178 19.8933 511.23
323 0 89.0809 12.5841 1121 115.991 19.711 509.252
324 0 92.0603 12.2963 1132 117.084 19.3728 508.176
325 1 48.0827 11.501 553 120.114 19.6709 528.324
326 0 51.0412 11.9707 611 117.918 19.036 527.635
327 0 52.0922 12.0556 628 119.154 21.6449 525.866
328 0 54.0441 12.3418 667 116.642 20.904 525.427
329 0 57.1864 11.4363 654 116.702 21.0015 526.338
330 0 59.1414 11.9544 707 115.392 19.9703 525.434
331 0 59.1942 11.8086 699 117.196 20.9013 525.034
332 0 62.2144 11.3961 709 115.772 20.7772 523.278
333 0 63.2355 11.7497 743 115.616 20.6541 521.988
334 0 65.2209 12.0513 786 113.518 20.1361 521.613
335 0 67.2313 11.8992 800 113.831 20.3588 519.696
336 0 70.1956 11.7101 822 113.03 20.6314 518.561
337 0 71.1698 11.8449 843 110.991 20.325 517.301
338 0 75.1287 11.6201 873 108.874 20.4708 515.708
339 0 78.1057 11.7533 918 107.255 20.451 515.288
340 0 78.0867 10.6548 832 105.162 19.8029 512.718
341 0 81.0374 10.9332 886 105.93 19.3713 512.369
342 1 39.0156 9.30396 363 101.928 20.5813 536.264
343 0 43.0285 10.4582 450 97.9089 20.3067 534.191
344 0 43.0322 9.96928 429 101.343 19.4918 532.296
345 0 46.0648 9.00904 415 101.867 19.2554 533.248
346 0 46.1035 11.0837 511 99.7926 19.456 532.325
347 0 48.1339 11.468 552 98.4801 18.9982 530.549
348 0 49.0497 11.0296 541 98.0462 18.7745 529.75
349 0 50.0708 11.5037 576 98.3455 18.4878 529.828
350 0 53.0931 12.092 642 95.2539 19.2508 529.139
351 0 51.0344 10.4048 531 100.507 17.5424 528.467
352 0 52.0854 10.4828 546 99.967 17.2454 527.919
353 0 56.0662 10.987 616 98.3636 17.9838 527.776
354 0 57.1174 10.3996 594 98.4663 17.0673 526.827
355 0 57.0336 10.9059 622 96.7701 18.1109 526.646
356 0 58.064 9.90287 575 98.7826 17.4852 526.021
357 0 58.0662 9.9886 580 137.428 16.4897 525.938
358 0 61.1407 10.8602 664 94.3509 17.512 523.697
359 0 62.0883 10.3723 644 95.7795 18.1972 523.258
360 0 64.1425 10.4455 670 94.7149 18.2507 522.767
361 0 68.1636 11.3404 773 92.0246 18.3842 520.988
362 0 70.0832 10.9441 767 91.5658 18.7288 518.288
363 0 71.1848 10.9855 782 90.8644 17.9783 516.751
364 0 73.0402 10.0766 736 92.909 20.0394 517.255
365 0 75.0467 9.8472 739 93.2057 20.0379 513.658
366 0 79.0735 9.75042 771 96.2296 20.1829 514.289
367 0 80.0677 9.32961 747 96.1794 19.3307 512.772
368 0 80.0817 6.70565 537 99.8138 19.0037 506.67
369 0 85.0909 9.50748 809 91.5278 19.2794 511.012
370 0 87.0629 8.43069 734 94.6022 18.8025 507.948
371 1 45.059 9.56523 431 86.529 19.2158 528.568
372 0 44.154 9.37628 414 88.5411 18.6667 525.684
373 0 47.2031 10.3807 490 86.7898 19.3592 524.643
374 0 48.1591 9.30249 448 87.6518 18.8393 525.643
375 0 49.2243 9.52781 469 85.7846 19.1087 521.597
376 0 48.1073 9.8114 472 86.2839 18.9682 522.244
377 0 52.1862 10.6925 558 82.7993 18.6738 520.371
378 0 52.1614 10.2183 533 83.5685 19.6173 520.244
379 0 53.1079 10.7517 571 83.2259 18.718 521.356
380 0 55.0788 11.2384 619 81.3813 20.6074 525.166
381 0 54.0987 11.1093 601 83.8652 19.9567 524.18
382 0 55.1463 11.6599 643 83.4868 20.3841 524.012
383 0 58.2217 11.0955 646 84.921 20.8019 522.102
384 0 59.1512 11.0226 652 86.5046 20.6472 522.046
385 0 61.2247 11.417 699 85.9242 20.3219 521.953
386 0 61.1956 10.5727 647 90.0278 20.6445 520.912
387 0 63.1748 11.2862 713 89.3759 19.7924 519.094
388 0 66.1412 11.6115 768 89.0781 20.7214 518.029
389 0 67.1405 11.5281 774 90.2532 21.1757 517.707
390 0 70.1632 12.2286 858 89.4802 21.1049 516.556
391 0 71.1964 11.6017 826 93.391 21.0242 515.199
392 0 73.1944 11.8862 870 94.8793 20.8333 514.226
393 0 74.1529 12.2719 910 92.5549 20.4418 513.821
394 0 75.2143 11.7664 885 94.8802 20.8701 512.15
395 0 79.1638 12.5562 994 92.5483 20.9376 512.733
396 0 82.1872 12.2403 1006 95.0159 20.8191 509.097
397 0 83.1737 11.6263 967 97.5502 20.243 507.132
398 0 86.2213 11.9112 1027 96.8987 20.852 510.351
399 1 44.162 10.2803 454 103.621 22.0793 529.236
400 0 48.0917 10.5839 509 101.475 22.0059 527.25
401 0 47.1281 10.567 498 102.637 22.2129 525.323
402 0 47.0683 10.7078 504 103.51 21.8552 525.018
403 0 50.0299 11.5131 576 98.5017 21.9635 524.981
404 0 53.0893 11.961 635 98.9417 21.9008 524.603
405 0 54.1022 11.9034 644 99.7112 21.9876 526.528
406 0 52.1792 10.6172 554 102.662 19.8105 519.915
407 0 57.0586 11.0939 633 100.186 21.4155 525.55
408 0 54.152 10.3228 559 103.8 19.7013 526.676
409 0 58.0983 10.5339 612 102.739 20.7745 524.178
410 0 59.1092 10.9289 646 101.763 20.7508 522.882
411 0 61.1652 10.4308 638 101.704 20.7085 523.31
412 0 62.2181 11.4436 712 96.8511 20.7725 521.15
413 0 65.1556 10.8202 705 97.6156 21.0766 518.169
414 0 68.1576 10.6371 725 96.091 20.5103 519.905
415 0 69.1127 10.8374 749 95.5541 20.3805 517.979
416 0 72.0795 11.085 799 94.5707 20.587 517.094
417 0 73.1634 9.923 726 99.4821 20.4201 515.387
418 0 75.1132 10.4642 786 98.8779 21.2506 513.936
419 1 42.0567 10.5334 443 98.5779 21.456 531.12
420 0 41.0358 9.84505 404 101.854 21.3416 531.087
421 0 42.0868 11.2149 472 98.9174 20.1229 530.328
422 0 44.0483 10.7836 475 100.945 20.7263 529.232
423 0 44.0657 10.9836 484 98.9525 19.1756 529.134
424 0 44.0218 11.199 493 100.075 18.9919 527.016
425 0 47.0973 10.0643 474 104.156 18.6435 528.447
426 0 47.0423 10.7775 507 103.31 18.4615 527.925
427 0 48.0986 10.229 492 106.083 18.561 526.656
428 0 50.0808 10.4431 523 104.26 18.7725 526.988
429 0 52.0668 10.7938 562 101.74 18.9591 526.016
430 0 54.13 9.77276 529 103.338 18.4802 524.431
431 0 55.0771 10.5125 579 100.872 18.9361 522.057
432 0 55.0485 9.97302 549 102.57 18.1421 522.984
433 0 58.091 10.0015 581 103.294 18.6695 521.527
434 0 59.0995 10.3385 611 101.226 18.8101 520.509
435 0 60.0873 10.3516 622 101.346 18.8633 521.19
436 0 64.1389 10.9918 705 96.2794 19.5943 520.329
437 0 65.1055 10.6596 694 96.2089 19.0202 519.553
438 0 70.1033 11.7826 826 92.46 19.1792 517.718
439 0 72.1972 11.3439 819 94.1575 18.9255 516.724
440 0 74.0767 11.6906 866 93.694 19.6778 516.527
441 0 78.1345 11.9154 931 93.725 19.2922 513.056
442 0 78.1031 11.4208 892 96.6323 19.6525 512.381
443 0 83.149 12.3393 1026 95.3567 18.9347 509.99
444 1 41.0613 10.0338 412 97.6942 19.534 531.852
445 0 42.0495 11.106 467 94.4711 19.2141 531.827
446 0 44.0395 10.1273 446 86.1682 20.278 529.839
447 0 44.0808 10.7757 475 86.12 20.9432 528.655
448 0 45.0735 10.738 484 86.4855 20.7872 528.058
449 0 48.015 11.3506 545 85.4073 20.2954 527.332
450 0 50.0589 12.6451 633 92.1912 20.8942 528.755
451 0 50.1223 12.3099 617 89.7164 21.0373 528.36
452 0 51.0688 11.9447 610 92.2066 21.1164 526.775
453 0 53.0691 12.5497 666 89.0736 20.9144 525.273
454 0 55.0357 11.9559 658 90.0517 21.0015 524.178
455 0 56.0928 12.2297 686 89.035 20.6676 523.776
456 0 59.0215 12.0295 710 87.1437 21.4056 524.461
457 0 61.0575 12.1689 743 89.2867 21.576 522.926
458 0 61.0501 11.8919 726 90.0523 20.8871 521.493
459 0 64.0802 12.5156 802 88.5362 20.197 519.911
460 0 65.0297 12.179 792 90.774 20.5253 516.854
461 0 68.1249 12.5064 852 86.5035 19.8615 516.9
462 0 68.1417 11.9604 815 90.308 20.4221 515.483
463 0 72.1879 12.1073 874 89.2517 19.9737 514.241
464 0 74.066 12.4484 922 89.5195 20.6432 513.126
465 0 76.0594 12.4771 949 88.9947 20.6006 513.608
466 0 80.0442 12.2058 977 90.391 20.5977 511.489
467 0 82.088 12.8764 1057 89.685 19.8013 511.125
468 0 84.0845 13.0702 1099 89.7862 19.1529 509.783
469 0 87.0331 12.9491 1127 92.087 19.1313 507.174
470 0 90.0393 12.9055 1162 92.432 19.5318 506.021
471 0 93.0886 12.6546 1178 93.3531 19.562 505.177
472 1 47.0771 11.5555 544 93.8125 18.8971 528.211
473 0 47.0597 11.3685 535 98.7364 19.9084 527.964
474 0 50.0582 11.8062 591 94.6294 19.7259 526.812
475 0 50.0861 12.0393 603 97.4378 19.6667 524.536
476 0 50.0714 11.1641 559 98.9589 18.9213 525.02
477 0 52.07 10.9084 568 101.72 18.6708 524.625
478 0 54.06 11.1358 602 99.8954 18.686 524.135
479 0 55.0339 11.6655 642 98.4688 19.257 524.565
480 0 58.0702 11.865 689 99.0218 18.5994 522.862
481 0 57.0892 11.228 641 102.917 17.975 521.81
482 0 58.0523 10.9384 635 100.937 18.5449 521.732
483 0 62.041 11.2829 700 100.057 18.6286 520.754
484 0 66.0672 12.124 801 96.5081 18.9975 519.747
485 0 65.0718 11.6948 761 98.5716 19.0867 518.491
486 0 69.036 11.1391 769 100.099 18.2237 517.7
487 0 69.0714 11.6112 802 100.278 17.3454 516.291
488 0 73.0714 11.824 864 99.2546 18.3356 515.444
489 0 74.0902 11.648 863 100.543 18.5075 514.656
490 0 76.0293 11.2194 853 103.068 18.4549 513.871
491 0 78.0463 11.3394 885 102.292 17.6565 513.423
492 0 81.0666 11.5091 933 103.161 18.3098 511.604
493 0 82.1042 11.0957 911 104.867 18.9232 510.766
494 0 87.0832 12.6086 1098 100.972 19.6512 508.727
495 0 89.0549 12.2733 1093 102.204 18.645 506.08
496 0 93.0885 12.7298 1185 101.662 18.7949 504.595
497 0 95.0901 12.9561 1232 102.188 18.2265 503.541
498 0 98.0683 12.736 1249 104.406 18.719 501.046
499 0 100.145 12.4519 1247 109.185 18.7602 500.593
500 0 103.213 11.8978 1228 110.755 19.0366 497.792
501 0 105.16 12.2481 1288 110.171 18.4503 496.139
502 0 108.235 12.9348 1400 107.578 18.9029 495.489
503 0 113.375 12.9923 1473 106.991 18.3218 492.373
504 0 115.403 12.842 1482 106.321 19.6565 488.94
505 0 117.466 12.8293 1507 105.815 19.3716 488.769
506 0 122.387 12.9834 1589 105.656 19.443 486.531
507 0 126.35 13.4626 1701 103.532 18.4638 484.112
508 0 130.387 12.578 1640 106.263 18.6872 481.579
509 0 134.366 12.4511 1673 106.842 18.3443 478.548
510 0 137.403 12.6708 1741 107.238 18.4607 477.833
511 0 141.34 12.3602 1747 108.26 18.3984 475.649
512 0 145.474 11.9884 1744 108.816 18.699 474.206
513 1 72.2011 10.817 781 98.6645 18.3636 512.593
514 0 74.2298 10.5079 780 99.0167 17.8487 513.444
515 0 75.0494 11.4591 860 96.7907 17.7244 511.795
516 0 78.0867 10.8085 844 98.782 17.7808 510.559
517 0 80.1004 11.3483 909 97.3872 17.0957 512.415
518 0 83.0966 11.7213 974 95.4938 16.9692 509.912
519 0 85.1002 11.7156 997 97.9047 16.7864 508.713
520 0 86.1777 11.0934 956 100.237 17.0052 507.029
521 0 90.1493 11.7028 1055 98.9062 16.7981 505.181
522 0 92.1824 11.6183 1071 99.0019 16.7274 503.765
523 0 93.1484 11.5837 1079 100.127 17.3188 503.156
524 0 96.1773 11.5828 1114 100.738 16.9668 502.283
525 0 98.1519 11.9203 1170 100.421 17.3709 500.61
526 0 102.224 12.5019 1278 100.455 17.1862 501.333
527 0 103.146 11.7309 1210 103.097 16.6785 499.288
528 0 107.113 12.006 1286 102.366 17.1967 496.302
529 0 111.25 12.1708 1354 102.199 17.0495 495.963
530 0 114.197 11.5327 1317 103.841 17.2802 493.689
531 0 117.178 12.2378 1434 102.181 16.834 492.444
532 0 121.192 12.1378 1471 103.431 17.0897 490.315
533 0 126.101 12.942 1632 101.42 17.2782 488.13
534 0 128.078 11.821 1514 103.563 16.6123 487.946
535 0 133.141 12.6107 1679 102.631 16.2865 483.503
536 0 139.142 12.8717 1791 101.805 15.9023 480.347
537 0 142.124 12.5102 1778 103.871 16.0169 477.388
538 0 147.248 12.6046 1856 104.489 15.7909 474.462
539 0 151.269 12.5075 1892 105.777 16.5233 471.283
540 0 153.154 13.3395 2043 105.311 16.4645 469.955
541 0 160.162 13.0243 2086 106.36 16.2335 465.215
542 0 163.215 12.701 2073 107.548 16.712 462.524
543 0 170.19 13.3263 2268 106.442 16.1323 463.758
544 0 175.125 12.9679 2271 106.644 15.683 461.663
545 0 180.233 13.5547 2443 105.016 15.779 458.373
546 0 184.297 12.2682 2261 107.881 16.5095 458.069
547 1 94.236 10.8239 1020 95.5549 17.0735 507.563
548 0 97.2863 11.8311 1151 94.0895 17.9018 503.914
549 0 99.0929 11.2823 1118 97.1619 17.2388 502.612
550 0 102.281 11.5173 1178 97.725 17.8285 502.576
551 0 103.15 11.0518 1140 100.968 17.7781 500.488
552 0 108.211 11.7087 1267 101.878 18.2628 497.558
553 0 111.207 11.2043 1246 104.604 17.7167 496.288
554 0 116.221 11.8912 1382 102.06 17.9421 495.355
555 0 120.241 11.768 1415 104.281 16.9541 492.291
556 0 121.248 11.4311 1386 106.327 17.4444 488.84
557 0 128.262 11.9053 1527 105.421 17.6208 487.157
558 0 132.184 11.6126 1535 105.359 17.4664 486.136
559 0 133.161 11.7827 1569 105.63 17.5207 483.535
560 0 138.336 11.472 1587 103.328 17.1071 480.414
561 0 141.292 11.8973 1681 104.666 17.157 479.247
562 0 145.263 11.3174 1644 102.813 18.2074 478.105
563 0 150.344 11.8461 1781 103.093 18.1364 475.346
564 0 153.285 12.1669 1865 103.361 17.5174 472.758
565 0 157.328 10.8754 1711 105.127 17.4161 472.327
566 0 163.386 11.433 1868 104.523 17.469 469.702
567 0 169.24 11.2799 1909 104.731 17.6773 466.378
568 0 176.288 11.5039 2028 103.405 17.1218 464.842
569 0 184.302 11.7742 2170 105.024 17.524 455.324
570 0 188.25 11.1926 2107 105.811 17.981 451.867
571 0 196.34 11.3833 2235 105.838 17.7902 448.731
572 0 203.298 12.2037 2481 104.707 17.5913 449.35
573 0 210.371 11.5082 2421 107.606 17.822 445.536
574 0 216.353 12.4473 2693 109.902 17.4545 439.594
575 0 224.435 11.9054 2672 112.277 16.7863 438.767
576 0 230.66 13.0452 3009 110.255 16.2725 435.188
577 0 236.581 13.1879 3120 110.171 16.1667 431.461
578 0 241.486 12.9697 3132 115.434 16.901 426.037
579 0 247.611 12.8952 3193 116.065 16.4194 421.46
580 0 256.62 13.1907 3385 112.804 15.7595 421.999
581 0 263.461 13.3606 3520 113.074 15.0491 418.793
582 1 53.071 8.51689 452 94.6482 17.6814 528.195
583 0 56.2079 10.0698 566 90.5159 18.1095 526.866
584 0 58.1306 9.1174 530 92.4226 18.6509 526.489
585 0 59.1005 8.9001 526 94.3669 18.1065 524.224
586 0 61.1375 9.74852 596 92.9295 18.3389 523.322
587 0 62.222 9.56254 595 92.4857 18.6319 521.761
588 0 64.1561 9.14956 587 93.632 17.9114 522.078
589 0 68.1738 9.32909 636 92.0991 18.0409 521.027
590 0 71.3034 9.67696 690 92.3942 18.0333 517.171
591 1 40.0331 9.44219 378 89.3677 18.7381 534.841
592 0 41.0395 10.3803 426 88.77 16.3873 534.465
593 0 40.1478 10.013 402 92.194 16.0398 533.129
594 0 42.111 11.0897 467 92.9443 15.4625 531.974
595 0 44.0466 11.0565 487 96.5565 15.3018 530.986
596 0 44.1438 11.2587 497 97.5352 15.4769 530.435
597 0 46.1917 11.344 524 97.6412 15.7137 528.733
598 0 45.0277 9.74955 439 99.8884 15.9567 530.462
599 0 51.0395 12.1866 622 94.6222 15.5434 530.45
600 0 50.14 12.0263 603 98.8126 15.4776 529.073
601 0 51.1364 12.2613 627 100.321 15.6555 527.753
602 0 53.0687 12.2483 650 101.351 15.3754 527.589
603 0 55.0948 12.0883 666 102.293 15.1727 526.2
604 0 54.077 12.4267 672 103.481 15.8631 525.527
605 0 53.0536 11.0831 588 109.238 15.8027 527.315
606 0 55.1033 11.3786 627 108.976 15.075 525.043
607 0 58.1714 11.1051 646 106.972 15.6734 526.249
608 0 59.1581 11.8665 702 105.788 15.3091 523.412
609 0 60.2696 11.0503 666 107.057 16.3964 523.056
610 0 61.1885 11.1949 685 106.368 16.492 522.133
611 0 64.1025 10.4832 672 100.618 15.9881 522.836
612 0 66.0621 10.9594 724 98.7956 15.5801 520.642
613 0 67.1486 10.4693 703 98.0299 15.8151 521.235
614 0 67.1483 10.4247 700 139.041 15.8043 521.273
615 0 72.0972 10.9713 791 95.1998 16.0961 517.649
616 0 73.1153 10.5176 769 94.7672 16.3186 516.575
617 0 77.0974 11.051 852 92.4636 15.6937 515.069
618 0 76.0648 10.3596 788 94.6066 16.5419 513.69
619 0 80.1705 10.0162 803 94.1308 17.4633 512.273
620 1 41.0729 10.1527 417 89.5324 16.6019 531.223
621 0 43.0462 10.3377 445 88.4539 15.5213 531.11
622 0 46.0815 10.655 491 84.0143 16.1711 530.014
623 0 46.0173 10.6699 491 81.4562 17.5642 529.24
624 0 47.083 10.3434 487 80.9795 18.4743 528.002
625 0 49.0688 10.3528 508 81.2441 18.4665 527.789
626 0 49.0903 11.3261 556 80.1583 18.196 525.888
627 0 51.1342 10.7756 551 81.8385 18.1833 525.935
628 0 51.1584 10.5945 542 82.9742 17.6956 525.109
629 0 53.1446 10.3303 549 83.8525 17.459 522.574
630 0 55.1576 10.1527 560 85.5161 18.2875 521.525
631 0 55.1185 10.9582 604 85.1424 18.3957 522.704
632 0 58.1617 10.6256 618 83.2023 18.2961 521.293
633 0 60.1587 11.0209 663 82.1192 17.5581 520.793
634 0 62.0938 11.3216 703 82.0725 18.1522 519.25
635 0 63.1333 11.2302 709 84.9647 18.6629 519.629
636 0 64.0907 11.4213 732 84.2664 18.2869 517.747
637 0 67.1063 11.2955 758 84.0937 18.8377 516.235
638 0 69.155 11.7128 810 82.7728 18.0864 515.617
639 0 72.0957 11.8592 855 83.5637 17.9988 513.343
640 0 73.0898 11.6022 848 85.2736 17.5189 513.534
641 0 77.1078 11.9962 925 85.8605 18.0519 511.624
642 0 79.0521 12.4095 981 86.9113 17.5698 511.44
643 0 81.1669 12.2341 993 87.427 18.573 510.859
644 0 83.074 12.0615 1002 89.0788 18.2974 508.002
645 0 85.0859 12.1289 1032 90.5843 18.3634 508.533
646 0 89.1197 12.4664 1111 89.1863 18.3474 506.271
647 0 90.1113 12.1627 1096 91.6396 18.8203 505.283
648 0 93.1045 12.5665 1170 90.5778 18.4786 502.569
649 0 94.1507 11.4391 1077 93.8292 18.5032 504.015
650 0 98.1661 11.9084 1169 93.2754 18.0445 501.229
651 0 101.179 11.6032 1174 94.9532 17.4037 501.202
652 0 102.114 11.5361 1178 96.3862 18.0968 498.811
653 1 56.0285 10.1377 568 95.6901 16.8768 522.048
654 0 59.1502 11.3102 669 99.3393 18.2481 520.254
655 0 60.1724 11.7662 708 100.429 17.4746 518.977
656 0 63.0725 11.4789 724 104.406 17.0373 518.544
657 0 66.126 11.6747 772 102.174 17.9132 517.718
658 0 66.0804 11.9097 787 100.98 18.5362 517.367
659 0 69.0114 11.7952 814 100.377 19.0307 515.625
660 0 70.0601 11.4473 802 100.996 19.1147 515.061
661 0 71.0192 12.2361 869 100.184 18.7365 512.829
662 0 74.0107 11.5254 853 102.272 19.0868 512.408
663 0 76.0363 11.8102 898 100.87 18.9677 511.714
664 0 78.0423 11.8397 924 101.64 19.2424 508.547
665 0 79.0582 11.4093 902 94.6818 18.9058 508.53
666 0 81.0427 11.5988 940 95.1096 19.3181 506.962
667 0 86.0453 11.738 1010 99.1465 19.7218 506.044
668 0 86.0906 11.4414 985 101.988 18.8173 504.283
669 0 89.1149 11.2102 999 101.652 19.1301 503.833
670 0 93.0544 11.7673 1095 102.01 18.9562 501.705
671 0 93.0525 10.9723 1021 103.799 18.9961 500.899
672 0 97.0922 11.8753 1153 101.351 18.7112 499.323
673 1 51.0162 10.8397 553 95.6673 17.425 522.204
674 0 53.1088 10.3184 548 95.312 20.0912 521.485
675 0 55.0258 11.322 623 95.6966 19.0738 520.138
676 0 56.0301 11.244 630 95.246 18.4333 519.289
677 0 59.043 11.6356 687 92.9898 19.6958 519.111
678 0 60.0619 11.7545 706 93.7691 19.7606 518.283
679 0 62.0291 11.7687 730 94.5219 19.4808 517.568
680 0 62.0712 11.5835 719 95.5049 19.4284 516.359
681 0 65.0647 12.2186 795 93.805 19.2855 515.496
682 0 67.0547 11.5726 776 95.8428 19.018 513.835
683 0 71.1061 11.9821 852 95.2171 19.6221 512.799
684 0 71.0421 11.9788 851 95.8625 19.7544 513.208
685 0 75.132 12.0322 904 94.5962 20.2257 512.231
686 0 77.0539 12.2512 944 93.5551 19.964 510.891
687 0 77.0862 11.9347 920 97.8337 18.5739 507.598
688 0 80.0664 12.652 1013 95.0247 19.5558 509.058
689 0 84.0396 13.0772 1099 95.0155 19.4668 507.976
690 0 87.0591 13.577 1182 94.2521 19.3553 508.545
691 0 88.0625 12.5593 1106 98.0425 18.7034 507.797
692 0 92.0726 12.4684 1148 98.9016 19.2369 507.317
693 0 91.1471 12.4414 1134 101.062 18.8095 506.35
694 0 96.0807 12.7705 1227 101.264 19.1434 501.773
695 0 99.0776 13.0403 1292 100.329 18.9582 499.716
696 0 102.163 13.087 1337 101.141 19.2543 499.414
697 0 106.057 13.4928 1431 102.122 17.6562 500.458
698 0 107.134 13.0585 1399 103.742 17.7841 497.806
699 0 111.114 13.4816 1498 100.571 18.0881 496.7
700 0 113.12 13.0393 1475 102.355 17.8224 494.046
701 0 119.087 13.5615 1615 102.694 18.5517 495.5
702 0 122.126 13.1995 1612 103.032 18.2686 493.177
703 0 124.234 13.3217 1655 103.521 18.4483 489.694
704 0 126.248 13.4972 1704 108.837 18.5059 487.738
705 0 133.15 13.9016 1851 112.828 18.7655 486.74
706 0 137.211 13.4902 1851 114.182 18.5575 484.59
707 0 141.264 13.4429 1899 112.413 18.3802 482.28
708 0 144.217 12.4881 1801 115.237 17.7612 482.625
709 0 147.292 12.5941 1855 115.688 17.0318 478.831
710 0 154.329 12.8946 1990 115.129 17.1126 475.716
711 0 157.434 12.6911 1998 115.147 17.489 474.475
712 0 164.314 13.0543 2145 109.351 17.3664 470.821
713 0 168.225 12.8875 2168 107.415 16.8289 468.915
714 0 173.321 12.8086 2220 108.136 16.9662 467.681
715 0 178.271 12.5203 2232 109.021 17.6555 465.324
716 0 184.394 12.5221 2309 110.842 17.7129 462.481
717 0 191.4 13.1504 2517 110.292 17.2996 456.725
718 1 142.238 11.6706 1660 112.728 17.1518 483.421
719 0 147.19 12.1068 1782 111.869 17.3316 479.824
720 0 151.213 12.6048 1906 113.226 17.5152 477.157
721 0 154.273 12.7307 1964 117.704 16.9873 472.404
722 0 157.192 12.7233 2000 120.14 17.205 470.531
723 0 162.213 13.1308 2130 118.407 17.2192 467.277
724 0 164.268 12.577 2066 121.685 17.3882 462.954
725 0 168.217 12.6384 2126 120.944 17.5188 460.024
726 0 176.248 13.1066 2310 119.416 16.8065 457.356
727 0 181.187 13.257 2402 117.826 16.8597 455.741
728 0 188.162 12.8453 2417 120.053 16.9226 450.568
729 0 193.181 12.672 2448 123.044 16.7275 447.259
730 0 198.175 12.9835 2573 119.927 17.2087 444.995
731 0 206.141 12.6807 2614 123.207 16.6442 440.138
732 0 215.331 13.0079 2801 119.222 17.116 433.952
733 0 222.296 13.0681 2905 117.868 16.7064 432.659
734 1 50.0369 9.3531 468 97.3718 19.7991 524.291
735 0 52.0904 10.0978 526 101.624 18.7262 524.15
736 0 53.0275 10.6549 565 95.5097 18.1204 526.761
737 0 55.0444 10.2281 563 95.4494 18.151 526.366
738 0 55.0086 10.2166 562 96.9502 17.6281 525.733
739 0 59.0484 10.8386 640 94.9266 17.8984 525.303
740 0 59.0376 10.18 601 96.9135 18.0466 524.344
741 0 62.0412 9.88054 613 98.0783 17.6721 522.803
742 0 63.0356 10.1213 638 98.5737 17.9561 521.867
743 0 64.0218 9.79354 627 98.8612 16.9458 521.222
744 0 66.0278 10.223 675 97.8518 16.8933 520.693
745 0 67.0134 9.80401 657 97.4125 17.1522 519.035
746 0 68.0365 10.0387 683 96.5725 17.5564 518.375
747 0 71.026 10.8693 772 93.9935 17.8251 517.973
748 0 73.0545 9.70508 709 96.9055 17.5388 517.377
749 0 76.0399 10.626 808 93.854 17.2797 515.498
750 0 76.0316 9.44344 718 97.9053 17.6031 514.206
751 0 80.0364 10.6077 849 95.5489 18.0118 511.898
752 0 83.0682 10.8345 900 94.5044 17.5444 509.137
753 0 85.1182 10.4091 886 95.2754 17.6975 509.146
754 0 88.075 10.6046 934 94.6049 17.7216 508.793
755 0 92.1538 10.5259 970 95.5845 18 506.027
756 0 94.1217 9.96582 938 96.9254 17.7974 506.814
757 0 95.0644 9.87751 939 96.4814 17.918 506.222
758 0 100.079 10.2019 1021 96.3428 18.0881 502.018
759 0 101.139 9.79844 991 98.002 17.888 501.336
760 0 106.099 10.3111 1094 96.0905 17.7751 500.959
761 0 108.112 10.4614 1131 95.8347 17.0866 498.049
762 1 61.1139 10.6686 652 93.8405 17.9862 520.512
763 0 62.0886 10.8232 672 99.3036 17.5774 519.631
764 0 65.0196 10.9352 711 106.039 18.7722 518.063
765 0 66.0099 11.6952 772 92.2189 18.9223 519.69
766 0 66.05 10.7494 710 97.1352 17.962 520.746
767 0 69.042 11.6451 804 94.5933 18.4913 522.366
768 0 70.0511 10.7493 753 98.8114 18.2005 521.068
769 0 73.0479 11.2118 819 100.799 17.293 518.353
770 0 74.1271 11.2779 836 102.081 18.5622 517.8
771 0 78.1471 10.8897 851 105.64 18.2374 514.966
772 0 78.1477 11.5422 902 102.098 18.4701 515.603
773 0 83.0984 12.0821 1004 104.18 18.3406 512.866
774 0 85.1084 11.5265 981 109.062 18.0499 510.137
775 0 87.0879 11.919 1038 107.758 17.9769 508.964
776 1 49.0394 10.6853 524 108.277 17.9332 528.857
777 0 50.0079 11.2582 563 108.288 18.2007 529.078
778 0 51.0391 11.9712 611 107.11 17.2504 527.494
779 0 52.0201 12.0338 626 110.224 16.5974 526.887
780 0 55.0529 12.1883 671 106.979 18.0075 526.584
781 0 54.1052 12.2169 661 101.555 19.1014 526.259
782 0 56.1233 12.2944 690 101.868 19.029 524.752
783 0 58.0279 12.3734 718 107.13 18.2326 522.01
784 0 60.0607 13.1201 788 103.085 17.3985 521.923
785 0 60.0439 12.8906 774 103.57 17.7571 522.477
786 0 62.0246 12.8336 796 103.303 17.8794 521.298
787 0 63.0536 12.7035 801 101.262 19.7628 522.627
788 0 64.0615 12.8782 825 100.63 19.8727 521.267
789 0 63.0552 12.7031 801 103.632 19.1423 520.553
790 0 67.0702 13.1504 882 102.908 20.042 518.754
791 0 70.0503 12.9907 910 101.843 20.6978 518.882
792 0 72.0436 13.1865 950 101.364 20.4979 517.792
793 0 74.049 12.9779 961 101.695 19.7128 516.458
794 0 74.0772 12.8245 950 104.551 20.62 514.881
795 0 76.1125 11.9166 907 105.931 20.3671 513.588
796 0 77.0945 12.1539 937 107.474 20.0971 513.193
797 0 79.1074 12.0975 957 106.242 20.0742 514.16
798 0 80.033 12.095 968 106.263 20.2903 512.705
799 0 82.0529 11.7241 962 106.001 20.0613 513.04
800 0 87.0759 11.8862 1035 104.601 20.0222 510.936
801 0 85.1069 11.3269 964 105.802 20.1784 511.234
802 0 90.0477 12.1158 1091 100.035 20.1567 511.84
803 0 93.1034 11.1059 1034 104.08 19.8017 510.636
804 0 95.0626 11.7922 1121 102.707 19.4603 507.681
805 0 98.0982 11.7331 1151 102.697 18.9357 506.547
806 0 100.153 11.5922 1161 104.096 19.0853 506.037
807 0 105.079 11.5722 1216 102.396 18.8676 504.418
808 1 54.023 11.4026 616 94.8994 19.8149 528.164
809 0 52.0313 10.6474 554 87.2762 18.7347 525.623
810 0 56.0661 11.6113 651 88.9401 17.2028 525.794
811 0 57.0707 12.3005 702 87.0142 17.057 525.576
812 0 55.1191 11.5205 635 89.7795 16.7449 524.964
813 0 59.0627 12.1396 717 87.5565 17.4421 525.467
814 0 59.0874 11.4407 676 90.2234 17.2278 524.41
815 0 61.0332 11.4036 696 89.4052 17.7572 523.611
816 0 63.0886 11.9039 751 87.5246 17.47 522.846
817 0 65.0676 11.8953 774 87.3359 17.8475 522.097
818 0 67.063 11.8098 792 88.4785 16.8043 522.518
819 0 68.1084 12.3186 839 88.4303 17.0954 520.72
820 0 71.0917 12.1674 865 87.5884 17.1965 519.986
821 0 74.0295 12.3599 915 87.9191 17.2732 517.907
822 0 73.1287 11.6917 855 91.2994 17.0246 517.77
823 0 79.0553 13.7119 1084 87.0655 16.4022 516.083
824 0 81.114 12.9694 1052 89.7975 17.5029 515.103
825 0 83.0896 13.3109 1106 90.1962 17.179 514.316
826 0 85.0823 13.2225 1125 90.8498 17.7342 513.479
827 0 87.0567 11.8888 1035 98.5198 16.8048 513.777
828 0 90.0752 12.534 1129 97.2808 17.0664 512.788
829 0 94.2043 12.6427 1191 95.9555 17.2863 510.525
830 0 97.1242 13.1687 1279 95.4261 16.9734 508.049
831 0 99.2189 12.669 1257 96.2522 15.9411 506.108
832 0 102.125 12.9743 1325 101.681 16.3502 507.102
833 0 106.123 13.6539 1449 94.0173 16.6335 506.268
834 0 109.195 12.9219 1411 101.577 16.8313 504.082
835 0 112.241 13.3463 1498 101.555 17.2076 502.096
836 0 117.141 13.5477 1587 104.125 16.6408 499.879
837 1 62.1001 11.723 728 99.5467 16.1016 525.677
838 0 64.135 12.5049 802 96.3367 16.4426 524.441
839 0 65.0994 12.1506 791 95.2946 16.6751 522.755
840 0 69.0955 13.286 918 86.3715 16.744 522.049
841 0 69.0379 12.9639 895 89.457 17.3464 520.207
842 0 71.0902 12.5756 894 89.3322 16.5369 518.258
843 0 75.0505 12.7114 954 89.4853 16.6468 515.235
844 0 78.089 12.4729 974 87.3255 16.8747 514.44
845 0 81.1279 13.2014 1071 85.5247 16.76 515.484
846 0 82.1512 12.7326 1046 88.5258 17.1606 513.252
847 0 84.0966 12.8067 1077 89.1551 16.4457 511.447
848 0 88.1272 13.299 1172 86.8874 17.3524 510.328
849 0 89.1269 12.8581 1146 89.1771 17.267 510.143
850 0 92.1602 12.9123 1190 89.5832 17.4513 507.204
851 0 94.0994 13.0925 1232 97.767 16.914 505.67
852 0 98.0998 12.9256 1268 97.683 17.015 503.596
853 0 102.107 13.4859 1377 93.5468 16.6078 501.916
854 0 102.08 12.3041 1256 98.6895 16.9459 501.135
855 0 106.237 13.4228 1426 96.3808 16.6445 498.802
856 0 109.162 12.3945 1353 87.1508 16.9845 498.859
857 0 109.138 11.6 1266 89.2741 17.1382 499.513
858 0 113.131 11.9331 1350 88.7067 17.3578 496.036
859 0 118.242 12.1785 1440 86.6819 17.3569 494.634
860 0 123.102 12.1687 1498 85.9039 17.6168 489.484
861 0 127.1 11.9905 1524 85.6378 16.937 489.322
862 0 131.105 11.8836 1558 86.2388 16.4949 487.426
863 0 135.152 11.9791 1619 86.5682 15.924 484.435
864 0 140.172 10.9508 1535 89.0788 16.8104 483.614
865 0 146.216 11.7635 1720 89.0076 15.757 478.881
866 1 79.1239 11.0965 878 84.9169 15.803 512.772
867 0 82.0979 11.1209 913 86.5071 15.9595 509.317
868 0 82.113 11.9957 985 86.1228 15.6284 510.064
869 0 86.1079 12.1476 1046 86.4857 16.6702 507.425
870 0 89.1287 12.8803 1148 85.2561 17.4138 505.47
871 0 92.2278 12.8811 1188 86.5421 16.9604 504.617
872 0 96.1264 13.191 1268 85.5623 16.6002 504.752
873 0 98.1461 12.9705 1273 88.5145 16.4886 502.684
874 0 100.022 12.6372 1264 90.6764 16.1456 500.611
875 0 104.087 12.749 1327 91.0769 15.7264 499.703
876 0 105.047 12.147 1276 94.2437 15.7085 500.747
877 0 109.098 12.0992 1320 93.8167 16.1386 497.438
878 0 113.14 12.4536 1409 91.357 16.6984 494.817
879 0 115.229 12.575 1449 91.3906 16.6273 493.89
880 0 121.21 12.598 1527 96.9797 16.6942 491.524
881 0 126.409 12.2301 1546 92.3648 17.0815 486.464
882 1 65.1209 11.1639 727 86.795 17.1183 519.835
883 0 67.1283 11.2024 752 87.3763 17.2061 518.061
884 0 69.1166 12.0955 836 86.4175 16.5287 516.722
885 0 72.0389 12.1879 878 83.8121 16.2483 516.909
886 0 75.0324 12.1547 912 83.5713 16.0428 514.724
887 0 77.0275 12.554 967 81.9235 16.1448 513.34
888 0 79.106 12.1483 961 83.6316 16.1571 512.675
889 0 79.0769 12.1401 960 85.5458 16.0792 510.614
890 0 84.0888 11.9992 1009 86.6987 16.1903 510.703
891 0 86.0907 11.604 999 88.05 16.1992 509.028
892 0 89.1155 12.1752 1085 88.2931 16.2166 508.757
893 0 93.075 12.506 1164 88.7938 16.6469 507.682
894 0 93.0528 11.2947 1051 92.5966 16.5347 506.686
895 0 96.128 11.9528 1149 92.2567 16.2054 505.898
896 0 100.073 12.1511 1216 92.1891 16.7558 501.848
897 0 100.095 11.569 1158 93.9421 16.3756 500.971
898 0 107.059 12.1429 1300 91.0169 16.9708 499.203
899 0 108.075 11.4735 1240 93.5564 17.2492 498.369
900 1 56.0269 11.316 634 92.8107 16.5126 522.254
901 0 57.032 12.344 704 90.527 16.5611 520.967
902 0 61.0242 12.7163 776 86.5387 16.4936 520.307
903 0 60.0286 12.494 750 86.3027 17.0613 518.887
904 0 59.007 11.1512 658 92.6596 17.8739 521.596
905 0 61.0455 10.6314 649 94.6425 17.5901 521.117
906 0 63.0516 11.4827 724 93.8287 17.9088 518.42
907 0 69.0477 12.0931 835 92.2395 17.4252 516.568
908 0 70.0321 11.9659 838 93.9535 17.321 515.359
909 0 71.0441 11.3591 807 97.3755 17.6853 514.42
910 0 74.1385 12.1934 904 95.9679 17.781 513.445
911 0 79.0814 12.4049 981 93.5097 17.7248 512.535
912 0 81.0663 12.3109 998 94.7836 18.0311 511.801
913 0 81.0996 12.4908 1013 95.4018 17.769 510.888
914 0 85.09 12.3399 1050 96.5295 18.4352 511.179
915 0 88.1543 11.9109 1050 95.079 17.6971 510.152
916 0 90.1999 12.5277 1130 95.8319 17.5124 507.478
917 1 47.0866 11.6381 548 97.5529 17.5456 530.38
918 0 49.0398 12.0107 589 97.4652 17.8251 529.574
919 0 47.0441 11.9675 563 100.774 16.9396 527.654
920 0 51.0468 12.4983 638 100.135 16.2461 527.114
921 0 52.0128 13.2852 691 96.8538 16.9059 526.732
922 0 54.0346 13.4914 729 96.5199 16.6543 526.292
923 0 55.0492 12.7886 704 101.027 16.6222 525.928
924 0 55.091 13.2508 730 101.223 16.6041 527.553
925 0 58.0713 14.0173 814 98.1106 16.8243 526.846
926 0 61.0624 13.347 815 98.0687 16.3718 525.913
927 0 61.0469 12.7443 778 100.871 16.5964 525.059
928 0 64.0642 13.4084 859 97.2794 16.929 523.61
929 0 66.0324 13.4177 886 96.9041 16.0914 523.955
930 0 66.0599 12.9579 856 99.2523 16.2395 523.449
931 0 70.0344 12.7652 894 100.12 15.5694 521.625
932 0 72.0512 13.4904 972 98.1389 15.6492 520.23
933 0 74.0665 13.3529 989 99.9039 15.8686 519.166
934 0 76.0617 12.9369 984 100.556 15.3648 518.798
935 0 80.0315 13.882 1111 98.8956 15.8398 515.711
936 0 82.0709 13.2934 1091 100.281 16.0458 515.368
937 0 84.077 13.3806 1125 101.077 15.3538 514.717
938 0 87.0902 13.5492 1180 103.144 14.7881 514.167
939 0 89.1038 14.5561 1297 103.017 16.1881 513.367
940 0 92.1705 12.2924 1133 104.094 14.9241 511.66
941 1 45.02 10.6841 481 95.6507 16.0644 532.979
942 0 44.0955 10.2278 451 99.5676 14.6275 529.849
943 0 46.0437 11.7714 542 95.7602 16.3561 530.511
944 0 47.1206 11.3326 534 97.1236 15.382 530.616
945 0 50.0156 11.8563 593 99.8465 15.2799 534.39
946 0 49.0147 11.7312 575 101.934 14.6974 532.93
947 0 49.0238 11.831 580 102.488 14.7224 532.002
948 0 53.0334 11.9736 635 100.304 15.0268 531.219
949 0 56.0295 11.9044 667 99.1994 14.985 529.958
950 0 57.0895 11.9637 683 99.3529 15.5432 528.007
951 0 58.0446 11.8185 686 106.911 15.1706 528.577
952 0 59.0559 11.8193 698 107.635 15.7307 527.87
953 0 62.0729 12.8397 797 106.974 18.5458 527.338
954 0 64.0471 12.5064 801 105.527 16.3333 526.793
955 0 66.0442 12.1888 805 102.963 15.6547 525.144
956 0 68.0582 12.6803 863 93.5041 16.0278 523.849
957 0 71.0359 12.74 905 93.0906 15.5746 522.792
958 0 72.0566 13.0175 938 93.1045 16.4851 519.291
959 0 75.0762 13.16 988 92.2277 16.1478 519.008
960 0 77.0593 12.8732 992 92.997 15.755 517.383
961 0 78.0487 12.5434 979 96.188 16.2574 515.465
962 0 80.0628 12.4652 998 97.0441 15.7034 513.567
963 0 82.1116 12.483 1025 97.842 16.4449 512.611
964 0 86.0541 13.1661 1133 95.3045 16.5861 512.983
965 0 87.1257 13.0616 1138 96.1837 17.2865 511.382
966 0 91.0491 12.8612 1171 96.4927 17.5149 512.553
967 0 92.0592 13.0677 1203 97.4273 17.2618 508.663
968 0 96.0765 12.5317 1204 98.9477 16.343 508.502
969 0 100.079 13.0896 1310 97.471 17.3443 507.066
970 0 103.056 13.5266 1394 97.6614 17.0481 505.637
971 0 106.088 13.404 1422 99.8664 16.9409 502.516
972 0 110.312 14.0057 1545 99.7566 17.0162 499.356
973 0 115.353 13.8271 1595 98.5229 17.0169 498.112
974 1 56.1586 11.236 631 97.9984 18.206 526.41
975 0 56.1678 11.9464 671 98.0388 18.6781 525.918
976 0 59.1111 12.6372 747 101.624 17.6158 524.598
977 0 62.1458 13.2752 825 100.501 17.6061 522.851
978 0 60.0588 12.1215 728 101.341 17.4574 524.264
979 0 64.0601 12.4727 799 109.602 18.3404 522.974
980 0 67.0629 12.9133 866 112.204 17.9619 522.33
981 0 68.1308 12.0504 821 114.141 18.6699 521.22
982 0 70.1838 12.6952 891 112.892 18.5915 521.777
983 0 71.1136 12.4308 884 105.714 18.345 519.973
984 0 75.0962 12.504 939 106.987 16.7838 518.825
985 0 77.0838 12.921 996 107.173 17.4749 516.849
986 0 78.1121 12.9429 1011 108.479 17.3175 515.507
987 0 83.0634 12.5446 1042 111.391 17.1161 512.952
988 0 88.0818 13.4988 1189 107.946 17.8158 512.437
989 0 91.1713 12.6027 1149 119.141 17.047 510.078
990 0 94.1672 13.253 1248 119.371 17.8782 507.419
991 1 49.0173 11.5877 568 116.042 18.0194 529.875
992 0 50.0548 11.9269 597 113.623 17.1541 530.559
993 0 52.0818 11.8659 618 111.989 17.3301 527.437
994 0 52.1093 12.4738 650 110.665 17.3262 527.395
995 0 56.101 13.0835 734 110.826 16.6853 525.77
996 0 56.0613 13.1107 735 112.533 16.5252 525.313
997 0 59.0569 12.9197 763 113.704 16.5177 523.754
998 0 61.116 13.0571 798 113.497 17.3546 522.495
999 0 63.0619 13.4154 846 113.227 17.1773 521.285
1000 0 63.1319 12.7669 806 117.806 16.263 520.938
1001 0 65.0693 13.2781 864 117.574 16.5694 518.87
1002 0 67.0949 13.8908 932 115.307 16.6363 518.444
1003 0 70.1097 13.65 957 115.72 17.1254 518.533
1004 0 70.0468 12.8485 900 121.269 17.5944 516.927
1005 0 73.0993 13.7211 1003 117.051 18.4347 517.345
1006 0 75.076 13.3198 1000 120.624 18.187 515.478
1007 0 77.0315 13.1635 1014 121.376 17.925 514.459
1008 0 78.068 13.5139 1055 121.15 18.3299 513.788
1009 0 80.0704 13.126 1051 121.123 17.6917 515.053
1010 0 84.1172 13.3266 1121 123.17 17.9135 513.561
1011 0 83.0842 12.8544 1068 131.017 17.7697 509.776
1012 0 87.1821 13.1564 1147 128.677 18.3418 509.586
1013 0 91.1182 12.9283 1178 128.786 17.6851 506.677
1014 0 93.1769 13.2222 1232 128.095 18.1323 504.587
1015 0 96.1494 13.1358 1263 127.686 18.057 503.111
1016 0 96.0736 13.3752 1285 126.618 17.0996 500.763
1017 0 99.0454 13.4282 1330 125.699 17.515 499.238
1018 0 103.087 13.6875 1411 122.255 18.3884 499.378
1019 0 104.095 13.4589 1401 124.592 18.4475 494.734
1020 0 108.076 13.5738 1467 121.883 18.0089 492.586
1021 0 109.15 13.1654 1437 120.786 19.5324 488.235
1022 0 114.138 13.4311 1533 118.016 19.2179 486.517
1023 0 115.125 13.8111 1590 120.332 19.356 482.557
1024 0 120.13 13.7101 1647 118.021 18.8543 481.638
1025 0 119.201 13.5486 1615 119.691 19.0409 477.704
1026 0 126.152 13.8167 1743 116.508 18.6431 474.888
1027 0 128.206 13.4549 1725 117.424 18.9061 473.553
1028 0 135.276 13.1879 1784 117.738 18.3935 470.494
1029 0 138.193 13.4088 1853 117.652 18.1711 469.76
1030 0 144.252 13.7191 1979 116.434 17.4886 466.157
1031 0 147.293 13.4155 1976 114.89 17.3214 463.775
1032 1 160.276 13.9322 2233 112.354 17.5611 466.041
1033 0 164.32 13.492 2217 116.042 17.4407 464.053
1034 1 96.1819 11.0728 1065 111.722 17.0732 504.594
1035 0 97.1671 11.2487 1093 113.155 16.6148 499.432
1036 0 101.269 11.6817 1183 112.289 17.0135 500.194
1037 0 108.213 13.4734 1458 105.702 17.2942 497.124
1038 0 109.132 12.5078 1365 108.233 17.0725 498.607
1039 0 110.122 11.2148 1235 103.304 16.9287 499.689
1040 0 113.064 11.6218 1314 104.42 16.9353 497.006
1041 0 116.085 11.7242 1361 104.052 17.4702 495.993
1042 0 119.074 10.9596 1305 105.772 17.8621 493.946
1043 1 70.0685 11.2747 790 101.924 18.8291 517.546
1044 0 68.1558 10.344 705 100.879 18.6184 512.095
1045 0 73.1032 11.559 845 100.217 18.9491 511.199
1046 0 73.0326 10.4474 763 92.8716 17.1481 515.65
1047 0 75.0269 10.0631 755 94.4358 18.6199 513.681
1048 0 79.0123 10.2263 808 94.4455 17.8168 515.262
1049 0 82.0333 10.6176 871 93.7922 17.5201 515.122
1050 0 83.0461 10.4761 870 94.292 18.0471 513.618
1051 0 87.0787 10.2666 894 94.5996 18.6141 512.088
1052 0 90.1017 9.94432 896 94.4286 18.5312 512.103
1053 0 94.0551 10.0898 949 92.608 17.5638 509.942
1054 0 95.1087 9.73623 926 96.6048 18.5702 505.035
1055 0 99.1283 9.76512 968 95.8347 19.7521 503.559
1056 0 102.127 10.1148 1033 97.0958 18.6854 503.654
1057 0 107.134 10.5569 1131 98.6835 18.16 500.55
1058 0 107.146 10.761 1153 100.426 18.4918 498.109
1059 0 111.1 9.98202 1109 101.238 17.9657 496.055
1060 1 56.0507 10.0088 561 91.9875 18.4349 527.622
1061 0 58.0516 10.1461 589 100.124 19.2054 524.925
1062 0 61.0765 10.9044 666 105.955 19.4114 524.071
1063 0 61.0913 9.52672 582 96.3213 19.4811 526.479
1064 0 61.1626 9.33576 571 96.8249 19.1313 525.785
1065 0 63.149 9.05794 572 97.1189 19.1678 525.087
1066 0 67.1973 10.2832 691 94.8423 18.2663 523.305
1067 0 68.118 10.1001 688 95.0741 18.891 520.362
1068 0 68.0943 9.33999 636 99.2862 19.2594 519.726
1069 0 74.102 10.8094 801 94.5106 18.6767 520.896
1070 0 73.1239 9.42236 689 99.3498 18.0232 519.57
1071 0 75.1408 10.6201 798 97.0777 17.4436 518.951
1072 0 76.1568 9.79558 746 100.631 18.3043 517.595
1073 0 78.1263 10.2398 800 100.234 18.1312 516.089
1074 0 80.1653 10.5532 846 100.203 18.8369 514.671
1075 0 82.1217 10.4844 861 100.626 18.0883 515.594
1076 0 86.1956 11.3579 979 97.6282 17.8744 515.077
1077 0 89.262 10.8333 967 98.726 18.0176 512.394
1078 0 92.1198 11.6587 1074 96.5447 18.4991 510.627
1079 0 95.0937 10.9576 1042 98.5096 18.5211 509.44
1080 0 95.1312 10.27 977 100.664 18.8424 507.487
1081 0 97.1398 10.315 1002 100.687 18.4591 505.336
1082 0 101.125 10.3733 1049 101.632 19.2784 504.175
1083 0 104.153 10.7438 1119 102.404 18.5353 501.217
1084 0 108.198 11.3219 1225 102.704 18.991 498.885
1085 0 110.184 11.5806 1276 103.418 18.4796 497.206
1086 0 115.287 11.5017 1326 104.657 18.5339 498.437
1087 1 63.1129 9.98211 630 98.8095 19.0159 528.065
1088 0 66.1498 9.97735 660 103.095 18.5212 525.694
1089 0 69.1728 10.481 725 112.799 18.4234 524.397
1090 0 70.1486 11.2903 792 114.489 19.125 521.814
1091 0 73.2457 11.5229 844 113.014 18.9526 521.121
1092 0 76.1448 12.0034 914 112.62 18.7954 520.708
1093 0 78.1708 12.3192 963 112.396 18.0228 518.952
1094 0 79.1731 12.3022 974 108.23 18.1047 517.516
1095 0 83.1717 12.2157 1016 109.468 18.0453 518.22
1096 0 85.1492 12.1551 1035 107.77 17.7227 517.164
1097 0 88.0956 12.0778 1064 107.701 17.5169 514.803
1098 0 92.126 12.179 1122 107.544 17.8601 513.133
1099 0 94.217 11.6752 1100 108.543 19.41 515.382
1100 0 96.1077 11.716 1126 108.792 18.8739 512.488
1101 0 99.1157 12.1979 1209 107.47 18.3722 509.892
1102 0 103.063 12.439 1282 105.333 18.0101 508.415
1103 0 106.089 12.9231 1371 103.502 17.7958 506.788
1104 0 109.093 12.3473 1347 104.742 17.6444 505.11
1105 0 114.143 12.7822 1459 103.556 17.2769 502.182
1106 0 116.189 12.2129 1419 105.868 16.7146 501.302
1107 1 53.0504 10.4052 552 104.293 16.5996 531.366
1108 0 56.1054 10.8189 607 107.278 18.4613 529.835
1109 0 59.059 11.2938 667 107.418 18.8441 529.504
1110 0 60.1863 11.8299 712 102.173 18.823 529.184
1111 0 60.0561 11.739 705 101.999 19.2213 527.739
1112 0 61.2558 12.0152 736 104.908 19.0421 527.238
1113 0 65.126 12.2532 798 102.843 19.4687 527.099
1114 0 68.0541 12.0786 822 103.818 19.4903 527.974
1115 0 69.0599 12.2068 843 101.784 18.2977 525.638
1116 0 69.0576 12.2072 843 102.855 19.0463 524.7
1117 0 73.0495 12.5258 915 101.11 19.4579 524.157
1118 0 74.0565 12.6255 935 101.983 18.9016 522.358
1119 0 77.07 12.4822 962 102.253 18.8742 521.871
1120 0 80.0794 12.7498 1021 100.057 18.5397 521.859
1121 0 80.0923 12.6229 1011 101.552 18.2028 521.165
1122 0 84.0434 13.0171 1094 99.4287 18.7642 519.139
1123 0 85.0873 12.7986 1089 99.2635 18.3232 519.126
1124 0 87.0644 12.2783 1069 102.371 18.0421 517.089
1125 0 89.0892 12.6166 1124 102.33 18.1441 514.934
1126 0 92.0897 12.5747 1158 102.119 18.5803 513.117
1127 0 96.174 12.5606 1208 102.423 17.8874 511.87
1128 0 96.2082 12.0156 1156 105.506 17.7128 513.718
1129 0 98.1743 12.2232 1200 106.97 17.8967 511.525
1130 0 100.257 11.9294 1196 108.953 17.5594 510.941
1131 0 103.242 12.4949 1290 108.095 18.0047 509.432
1132 0 107.172 12.5593 1346 109.005 18.4688 508.44
1133 0 111.22 12.8664 1431 108.386 18.2893 505.648
1134 0 114.162 12.8764 1470 109.749 18.4238 503.888
1135 0 116.273 13.2791 1544 110.903 17.8614 503.35
1136 0 118.237 13.0924 1548 113.697 17.9218 503.13
1137 0 121.265 13.5736 1646 120.505 17.8056 498.615
1138 0 130.269 11.9369 1555 123.431 18.0508 498.754
1139 0 130.365 12.3883 1615 123.781 18.1059 495.956
1140 0 133.325 12.5033 1667 122.96 17.5189 494.224
1141 1 145.375 11.3087 1644 124.004 17.542 496.763
1142 0 147.272 11.7606 1732 122.454 18.0202 494.672
1143 0 144.307 11.8497 1710 126.867 18.155 491.057
1144 0 146.231 12.5282 1832 125.698 18.4127 490.265
1145 0 154.281 13.1319 2026 124.763 17.6979 486.464
1146 1 84.1217 12.9812 1092 128.148 18.62 518.861
1147 0 86.1374 13.0721 1126 130.257 17.5169 515.759
1148 0 89.1351 13.5749 1210 132.894 17.2298 512.182
1149 0 91.1358 13.244 1207 135.835 17.0232 512.44
1150 0 94.1555 13.552 1276 118.197 17.5086 511.726
1151 0 96.1859 13.6091 1309 119.979 16.9947 509.996
1152 0 99.1454 12.7994 1269 121.504 16.5477 508.467
1153 0 101.106 13.3919 1354 121.303 16.2001 506.685
1154 0 103.189 13.4995 1393 121.755 16.9627 505.366
1155 0 107.221 13.309 1427 122.411 16.8879 505.164
1156 0 109.211 12.8009 1398 124.345 16.6545 502.996
1157 0 108.141 11.6977 1265 109.805 16.1905 505.453
1158 0 113.157 12.222 1383 107.359 15.6356 504.094
1159 0 115.133 12.3336 1420 105.748 16.1493 502.594
1160 0 119.135 12.0788 1439 107.039 15.8589 499.647
1161 0 123.093 11.9503 1471 106.088 15.5989 497.36
1162 0 126.1 11.6019 1463 107.977 15.4498 493.434
1163 0 130.163 11.9927 1561 106.796 15.4299 491.999
1164 1 64.1062 11.0442 708 107.542 15.2627 523.732
1165 0 65.1669 11.3555 740 114.03 14.8257 521.518
1166 0 68.2741 11.7468 802 118.445 15.0249 519.479
1167 0 69.1489 12.0031 830 117.248 15.306 517.492
1168 0 72.1446 11.4492 826 117.741 15.2131 518.162
1169 0 73.2313 11.7982 864 116.765 15.3299 514.772
1170 0 74.0945 12.4571 923 112.782 15.2817 513.162
1171 0 76.0592 11.8329 900 111.584 15.1956 515.208
1172 0 77.053 11.6803 900 112.926 15.5022 516.052
1173 0 80.1274 12.0184 963 113.152 17.3853 514.4
1174 0 81.1647 12.2344 993 114.699 17.139 511.689
1175 0 86.168 12.464 1074 113.313 16.4339 510.738
1176 0 87.159 12.3108 1073 115.299 16.5116 507.327
1177 0 90.1544 12.4342 1121 116.64 16.2997 505.919
1178 0 92.214 11.8203 1090 120.45 16.6927 504.116
1179 0 96.1483 12.6159 1213 117.938 15.981 503.167
1180 0 100.152 13.18 1320 115.904 16.3455 501.082
1181 1 55.1996 11.232 620 117.981 16.7581 522.903
1182 0 57.0256 11.6439 664 116.539 17.6099 525.813
1183 0 58.0745 12.1912 708 116.688 16.5975 524.874
1184 0 61.2083 12.3022 753 117.169 16.413 524.465
1185 0 62.1953 11.3835 708 120.713 16.8319 524.403
1186 0 64.3167 11.661 750 118.973 16.7787 523.771
1187 0 65.2286 12.0653 787 118.663 17.0737 520.928
1188 0 68.2186 11.8736 810 117.558 16.6704 519.443
1189 0 69.2111 12.209 845 117.789 17.1361 518.8
1190 0 69.1775 12.1138 838 118.704 16.1217 517.968
1191 0 73.2117 12.3887 907 114.487 16.409 517.204
1192 0 74.1711 13.1318 974 114.396 17.0688 515.738
1193 0 76.2352 12.8418 979 114.931 16.6159 514.308
1194 0 77.2455 12.8292 991 116.305 16.7528 513.383
1195 0 79.168 12.7577 1010 117.154 16.2188 511.562
1196 0 78.1155 12.3023 961 116.37 17.7565 512.299
1197 0 81.2198 12.9525 1052 115.225 17.7719 511.094
1198 0 81.0739 11.6437 944 123.715 18.197 513.311
1199 0 82.1075 11.2292 922 126.687 17.2646 512.628
1200 0 83.0845 11.1332 925 127.638 16.96 510.783
1201 0 87.1058 11.7099 1020 126.181 17.1588 508.46
1202 0 89.1 11.5713 1031 125.752 16.9486 506.726
1203 0 89.1504 11.0824 988 128.652 17.0425 505.411
1204 0 91.1837 10.7146 977 130.461 16.5067 502.905
1205 0 94.1642 11.8304 1114 128.727 16.7684 500.336
1206 0 96.1008 11.1029 1067 130.024 16.448 500.485
1207 1 55.1078 10.3797 572 130.701 17.1469 519.58
1208 0 56.0806 11.002 617 128.801 16.4117 517.502
1209 0 59.1022 11.0656 654 126.046 15.8349 521.011
1210 0 61.1412 11.6288 711 125.696 15.4079 520.893
1211 0 60.0622 11.9709 719 127.541 14.5549 523.645
1212 0 64.0452 11.6324 745 128.15 14.3141 522.201
1213 0 65.0976 12.0127 782 128.807 14.8542 522.257
1214 0 67.0696 12.0174 806 128.782 15.7568 519.851
1215 0 69.0731 12.0742 834 129.688 15.4269 519.52
1216 0 72.072 12.2239 881 129.826 15.4359 519.891
1217 0 73.0648 12.2494 895 133.102 15.5788 519.018
1218 0 75.0695 11.9223 895 133.536 15.5531 517.222
1219 0 77.0571 11.9132 918 134.397 15.6895 515.634
1220 0 78.069 12.2328 955 134.445 15.3152 513.134
1221 0 83.1395 12.918 1074 130.735 14.7793 511.138
1222 0 83.0895 12.2639 1019 134.668 15.4082 507.692
1223 0 85.1741 11.8463 1009 135.929 15.217 506.554
1224 1 46.1179 11.1454 514 127.722 15.0584 526.72
1225 0 47.0763 11.2796 531 129.716 15.4313 526.139
1226 0 49.1121 11.7283 576 128.807 15.1441 527.576
1227 0 50.1441 11.1878 561 134.15 16.672 529.421
1228 0 52.1462 11.602 605 132.717 16.4496 527.055
1229 0 53.1103 12.0504 640 130.156 16.3453 526.35
1230 0 55.0812 11.7463 647 129.988 15.9706 525.777
1231 0 55.1038 11.6507 642 131.427 16.6885 523.389
1232 0 57.073 11.5291 658 131.695 15.8313 523.52
1233 0 58.0958 11.9802 696 130.213 15.908 521.94
1234 0 61.1332 11.6631 713 131.094 15.6942 520.038
1235 0 62.0791 11.9686 743 130.592 16.1817 520.797
1236 0 63.1064 12.0115 758 132.533 16.8443 518.022
1237 0 65.0671 11.9876 780 132.127 16.5808 519.059
1238 0 67.0975 12.0422 808 131.613 17.0965 517.79
1239 0 69.0827 11.8698 820 134.345 16.5841 517.59
1240 0 71.1427 11.7651 837 134.044 16.5245 516.864
1241 0 73.1417 11.8264 865 134.473 16.815 515.608
1242 0 75.1673 12.0398 905 133.642 16.1392 513.887
1243 0 78.0939 12.2673 958 131.626 16.1148 512.28
1244 0 78.1009 11.8308 924 134.723 16.5963 509.562
1245 0 82.1559 11.8433 973 134.263 16.9322 507.855
1246 0 84.1992 12.2804 1034 132.913 17.175 507.332
1247 0 86.2033 12.7025 1095 132.267 16.221 504.96
1248 0 89.1385 13.2939 1185 130.677 16.7629 506.811
1249 0 91.1665 12.8995 1176 133.045 15.4609 505.35
1250 0 95.1691 13.1765 1254 131.637 16.6499 504.573
1251 0 97.091 13.4101 1302 130.927 16.5914 502.815
1252 0 97.1358 12.8995 1253 127.215 18.1109 506.378
1253 0 98.0944 12.3758 1214 132.646 18.182 505.756
1254 0 100.093 11.9189 1193 136.067 17.5733 504.039
1255 0 103.1 12.0756 1245 135.529 18.1454 502.253
1256 0 107.109 12.3053 1318 132.889 18.7564 501.407
1257 0 110.131 11.6588 1284 134.531 19.3559 499.255
1258 0 111.101 11.5841 1287 135.952 18.5501 496.58
1259 0 117.158 12.0948 1417 130.58 17.9654 494.678
1260 0 120.099 11.707 1406 130.923 18.2937 494.152
1261 0 124.13 11.8022 1465 129.518 17.8976 490.466
1262 1 45.0598 11.0298 497 126.002 18.0342 527.032
1263 0 48.1061 11.3499 546 124.154 16.6868 525.223
1264 0 48.0878 10.3145 496 109.349 17.4335 530.216
1265 0 48.0382 10.5125 505 108.501 16.9347 529.764
1266 0 50.0398 10.5316 527 108.658 17.129 528.774
1267 0 53.0555 10.1403 538 109.061 17.461 527.794
1268 0 54.0242 10.1066 546 108.919 17.011 527.293
1269 0 54.0419 9.73319 526 114.603 16.7738 524.833
1270 0 56.0437 9.7424 546 114.932 16.4084 525.852
1271 0 58.0955 10.2762 597 112.253 16.9497 525.442
1272 0 61.0795 10.429 637 111.386 16.9042 522.774
1273 0 61.0463 10.0907 616 113.945 16.8328 522.995
1274 0 64.0444 10.7113 686 113.112 16.6662 521.71
1275 0 66.0777 11.093 733 113.452 16.8977 519.561
1276 0 68.1103 10.9235 744 113.444 16.9113 519.387
1277 0 69.0303 11.0966 766 113.266 16.889 517.414
1278 0 72.1711 11.2095 809 109.841 17.3535 518.332
1279 0 74.0848 11.0414 818 110.57 16.8032 516.565
1280 0 78.1865 11.2935 883 109.302 17.8868 517.318
1281 0 80.1291 11.8933 953 114.363 17.4313 514.096
1282 0 81.1179 11.4032 925 116.929 17.3135 512.758
1283 0 83.114 11.8392 984 117.586 17.3425 511.245
1284 0 85.0783 12.1418 1033 119.62 16.8548 510.795
1285 0 89.0326 12.5123 1114 120.082 17.7433 509.479
1286 0 91.107 12.2603 1117 120.272 17.1262 510.345
1287 0 95.2645 12.4705 1188 120.377 17.6103 506.148
1288 0 96.2101 12.3376 1187 122.423 17.6908 505.666
1289 1 51.1922 10.4703 536 116.729 18.7817 528.086
1290 0 53.1714 10.6072 564 116.805 18.7535 528.082
1291 0 56.211 11.0655 622 113.875 18.3183 528.537
1292 0 56.2319 11.3636 639 113.736 18.3975 527.061
1293 0 59.186 11.844 701 110.896 17.97 527.75
1294 0 60.1566 11.2872 679 114.794 17.7025 526.343
1295 0 61.0313 11.7645 718 119.611 17.3858 523.882
1296 0 63.018 12.06 760 118 17.3711 523.959
1297 0 64.0212 12.2772 786 116.542 16.2074 523.333
1298 0 65.069 12.3254 802 113.439 15.899 523.268
1299 0 67.0291 11.8456 794 116.426 16.3841 519.717
1300 0 70.0449 12.2778 860 114.226 16.7012 520.216
1301 0 72.037 12.6185 909 110.788 16.4455 520.283
1302 0 74.0782 12.7298 943 110.052 16.7879 517
1303 0 73.102 11.7233 857 113.4 17.944 513.712
1304 0 78.0373 12.6862 990 108.928 17.197 512.67
1305 0 79.0631 11.5351 912 110.772 17.1897 512.973
1306 0 83.0694 12.7604 1060 111.292 15.8 511.058
1307 0 84.0467 11.9576 1005 113.531 16.0736 511.362
1308 0 88.0714 12.5353 1104 110.834 16.0091 509.761
1309 0 90.122 12.3277 1111 110.146 15.8416 508.681
1310 0 95.0803 12.358 1175 107.985 15.8272 507.081
1311 0 97.053 11.9935 1164 107.938 15.9502 505.491
1312 0 99.0652 11.4773 1137 109.921 16.1812 505.612
1313 1 60.0356 10.7936 648 105.782 16.2685 524.58
1314 0 61.0622 10.4647 639 106.981 17.2175 524.232
1315 0 61.0576 11.3499 693 102.869 17.7013 522.97
1316 0 60.011 10.5147 631 93.8035 17.8463 517.307
1317 0 55.0365 9.35742 515 96.1146 17.7282 516.707
1318 0 58.0228 9.63414 559 93.3256 17.839 516.855
1319 0 62.0277 9.81819 609 90.7274 17.1429 517.631
1320 0 63.0951 9.557 603 93.5141 17.3516 513.74
1321 0 66.0797 10.4873 693 93.6609 16.733 513.759
1322 0 68.0638 10.2698 699 95.5808 16.4177 511.428
1323 0 68.0427 9.6557 657 98.2116 15.9954 509.645
1324 0 70.0503 10.0071 701 97.0171 16.03 509.74
1325 0 76.0927 10.5661 804 96.0323 16.8246 508.045
1326 0 81.0705 10.9411 887 94.6077 18.0688 508.848
1327 0 83.0601 10.7753 895 95.648 16.1899 507.037
1328 0 87.1365 11.4992 1002 95.1836 18.4481 507.75
1329 0 90.1118 11.2971 1018 98.9479 16.6827 506.099
1330 0 93.0562 11.434 1064 101.53 16.187 504.443
1331 0 94.1112 11.3695 1070 104.093 16.2346 502.867
1332 0 98.0917 11.1324 1092 104.35 15.935 501.484
1333 0 101.092 11.7418 1187 103.698 16.3749 499.131
1334 1 57.0346 9.80107 559 97.2988 16.0966 521.633
1335 0 57.0843 9.98524 570 101.965 16.8351 520.186
1336 0 60.0609 10.9056 655 100.476 15.3985 519.116
1337 0 60.0433 11.0087 661 99.9032 17.3661 518.089
1338 0 62.0438 11.4758 712 100.604 16.6025 517.399
1339 0 67.0958 11.6401 781 96.5967 16.8963 522.921
1340 0 68.1319 10.8173 737 98.0828 16.6214 523.144
1341 0 70.1079 10.8832 763 96.7693 17.19 523.088
1342 0 74.0756 10.8268 802 98.5125 17.6559 520.945
1343 0 74.0998 10.9447 811 100.4 17.2787 518.694
1344 0 76.1399 10.9535 834 101.109 17.1451 517.844
1345 0 77.1264 10.9949 848 101.506 17.0436 518.157
1346 0 80.0879 11.375 911 98.8771 17.045 517.288
1347 0 81.1591 10.35 840 102.357 16.3333 515.149
1348 0 84.1379 11.3029 951 101.097 16.6036 513.206
1349 0 86.0696 10.294 886 102.688 15.9481 514.851
1350 0 91.1791 10.9126 995 102.763 16.3407 513.444
1351 0 93.0983 11.2891 1051 101.363 16.3463 511.595
1352 0 97.1264 11.0063 1069 102.914 15.8587 508.388
1353 0 98.103 10.8865 1068 102.711 15.9663 509.461
1354 0 102.162 10.8749 1111 102.825 15.6004 504.289
1355 0 105.107 11.2361 1181 103.814 16.0771 506.688
1356 0 108.125 11.3202 1224 104.773 15.7696 504.284
1357 0 112.12 10.8545 1217 105.533 16.6993 503.731
1358 0 115.195 10.938 1260 107.09 16.4516 502.132
1359 1 62.1141 10.8671 675 102.191 16.8148 526.606
1360 0 63.077 11.5732 730 100.429 16.4397 525.326
1361 0 64.1187 11.4163 732 98.8361 16.7336 524.436
1362 0 67.0655 11.541 774 97.6705 16.3398 523.804
1363 0 69.0572 11.6136 802 98.6658 14.9214 522.678
1364 0 72.078 11.654 840 99.6238 15.075 521.48
1365 0 75.0735 12.228 918 98.6013 14.8224 521.537
1366 0 77.0921 12.0765 931 99.0312 15.6165 519.17
1367 0 79.0554 11.3338 896 100.527 15.058 517.183
1368 0 81.0803 11.6304 943 100.13 15.7858 516.511
1369 0 83.0198 11.3346 941 103.073 15.1339 514.344
1370 0 87.0457 12.3958 1079 100.235 15.5357 514.536
1371 0 90.0614 12.4693 1123 100.419 15.0801 514.567
1372 0 93.1613 12.4515 1160 101.597 15.9422 513.312
1373 0 97.0885 13.0396 1266 99.7938 16.0608 511.175
1374 0 98.0649 12.0736 1184 103.585 15.8851 510.349
1375 0 102.079 12.7647 1303 101.814 15.3292 508.258
1376 0 104.067 12.5497 1306 102.982 15.3905 507.287
1377 0 108.103 12.5436 1356 104.508 15.6578 507.359
1378 0 108.121 11.8941 1286 108.651 15.0762 506.961
1379 0 107.075 12.0943 1295 108.133 16.2919 506.805
1380 0 109.142 11.7278 1280 115.088 15.4656 505.395
1381 0 109.136 11.7194 1279 117.685 15.0985 506.482
1382 0 108.068 11.9832 1295 117.792 15.3012 506.331
1383 0 112.09 11.7317 1315 115.706 15.1285 504.394
1384 0 116.068 11.2779 1309 113.24 14.8938 502.248
1385 0 120.131 11.8038 1418 108.854 15.4633 500.128
1386 0 124.21 11.1585 1386 108.326 14.7424 497.49
1387 0 129.154 12.125 1566 104.72 16.3838 496.705
1388 0 131.205 11.2572 1477 105.724 14.4719 495.543
1389 0 135.158 11.9046 1609 103.38 16.0609 493.052
1390 0 139.147 11.6064 1615 103.135 14.4421 490.055
1391 0 144.228 13.3747 1929 102.132 16.0944 489.292
1392 0 146.19 11.4235 1670 103.377 14.8641 487.073
1393 0 151.19 12.0444 1821 102.992 15.4272 484.168
1394 0 157.163 12.0512 1894 105.137 14.9467 482.737
1395 0 162.202 12.392 2010 105.577 14.9284 482.453
1396 0 164.194 11.8823 1951 110.352 14.9892 477.874
1397 0 171.187 12.4075 2124 111.268 13.9661 476.478
1398 0 175.161 13.3991 2347 111.558 15.4879 471.435
1399 0 179.266 12.8413 2302 115.008 13.5804 468.764
1400 0 184.335 14.5388 2680 115.867 16.244 467.819
1401 0 188.247 12.9192 2432 120.817 14.1098 464.347
1402 0 194.179 13.5596 2633 121.095 15.5564 462.192
1403 0 197.228 12.7112 2507 129.477 14.2242 458.851
1404 1 154.111 12.6597 1951 134.279 16.3296 479.362
1405 0 158.204 12.3891 1960 134.877 15.0709 478.443
1406 0 162.11 13.0405 2114 134.381 14.6518 476.225
1407 0 167.122 13.9539 2332 131.143 14.9661 476.048
1408 0 173.173 15.2738 2645 130.845 16.6851 471.232
1409 0 177.17 13.7156 2430 134.597 15.6342 470.597
1410 0 181.233 14.1641 2567 134.313 16.3152 468.464
1411 0 187.192 13.4621 2520 134.463 14.8909 463.826
1412 0 193.257 15.0991 2918 135.16 16.4208 461.818
1413 0 198.216 13.2532 2627 137.538 14.5253 457.319
1414 0 205.183 13.8364 2839 124.721 15.9017 450.885
1415 0 212.193 12.7478 2705 127.999 14.7275 446.711
1416 0 219.133 12.6773 2778 128.73 14.8567 444.231
1417 1 51.031 11.2285 573 116.709 16.0698 532.527
1418 0 53.0529 11.4791 609 115.475 15.7192 532.171
1419 0 54.0404 11.8615 641 114.817 13.8721 528.587
1420 0 55.0682 11.4222 629 103.246 17.5469 531.281
1421 0 57.0478 11.3063 645 102.091 16.3085 532.108
1422 0 57.1343 12.1818 696 106.089 18.3032 530.636
1423 0 56.0755 10.2005 572 109.596 17.0594 530.843
1424 0 58.0929 10.9308 635 109.372 17.5906 529.613
1425 0 61.0606 10.7598 657 111.361 17.6499 528.47
1426 0 60.0375 10.8266 650 110.311 17.1046 528.882
1427 0 63.0839 10.922 689 109.675 17.5704 527.219
1428 0 64.0742 10.8624 696 111.527 17.7572 525.497
1429 0 65.059 10.0217 652 114.391 16.8497 525.707
1430 0 67.1247 10.1453 681 114.724 16.8855 524.985
1431 0 69.187 10.5078 727 112.206 17.0963 523.495
1432 0 70.0529 10.749 753 110.049 17.2205 522.628
1433 0 72.1348 10.0784 727 112.003 16.6245 523.058
1434 0 75.1487 10.9915 826 108.571 17.3535 521.189
1435 0 76.1526 10.9911 837 109.835 17.5329 520.299
1436 0 82.1806 10.9272 898 108.317 16.8107 519.292
1437 0 83.1344 11.5596 961 107.387 16.462 517.373
1438 0 83.0938 11.6976 972 107.357 16.6111 517.428
1439 0 87.1355 11.3272 987 106.204 16.309 517.198
1440 0 88.0515 11.5614 1018 109.028 17.2004 515.735
1441 0 92.0921 11.6514 1073 108.265 16.6132 512.713
1442 0 95.0928 12.4615 1185 105.198 16.2726 511.255
1443 0 95.0934 11.2311 1068 107.556 16.5749 511.441
1444 0 97.0916 10.969 1065 107.907 17.0545 508.501
1445 0 102.069 11.8744 1212 103.946 16.5314 506.827
1446 0 106.076 12.3591 1311 102.168 16.9771 504.619
1447 0 110.122 13.2308 1457 100.464 16.326 503.499
1448 1 58.049 11.2664 654 99.9021 17.6361 527
1449 0 59.1036 10.4731 619 95.42 16.2569 521.955
1450 0 59.1024 10.8625 642 91.162 16.1776 520.472
1451 0 65.1198 11.9165 776 97.3621 16.5773 522.947
1452 0 65.0807 12.1849 793 97.338 14.3342 522.937
1453 0 68.0709 12.7073 865 94.8405 14.9006 520.969
1454 0 70.2135 12.7468 895 94.5508 16.2994 520.803
1455 0 71.2549 12.1535 866 96.6189 16.9688 518.309
1456 0 73.2091 11.9521 875 97.4503 16.1451 516.378
1457 0 73.2307 12.3309 903 98.8206 16.5991 516.518
1458 0 79.213 12.8388 1017 94.5359 17.0049 517.28
1459 0 80.3171 12.7868 1027 95.4713 16.705 516.018
1460 0 83.2524 12.9125 1075 96.9702 16.0447 514.286
1461 0 85.2451 12.294 1048 98.7729 16.6975 512.762
1462 0 86.2656 11.9399 1030 99.5621 16.4243 511.338
1463 0 89.2701 12.6358 1128 97.4238 16.3865 510.276
1464 0 92.174 12.6283 1164 97.8419 16.177 508.54
1465 0 96.217 13.4176 1291 95.3114 15.7661 509.196
1466 0 97.1526 12.7737 1241 96.7365 15.3417 506.739
1467 0 98.2527 12.2338 1202 94.8436 15.1589 505.742
1468 0 104.289 12.5709 1311 92.1655 15.0526 504.619
1469 0 104.094 12.6713 1319 93.4534 15.1964 501.957
1470 0 108.115 12.3109 1331 93.3283 15.3734 504.059
1471 0 111.216 12.2914 1367 93.0124 16.0768 502.139
1472 0 112.219 11.7806 1322 95.8192 15.6921 499.121
1473 0 118.173 11.8894 1405 95.1758 16.1893 495.92
1474 1 64.2011 10.654 684 92.8275 15.3991 523.465
1475 0 66.2052 11.5097 762 90.8465 15.8176 521.312
1476 0 68.1691 11.7062 798 91.5163 15.4348 521.088
1477 0 71.2 11.9101 848 95.8432 15.2429 518.697
1478 0 70.0273 11.824 828 99.9022 13.8575 514.982
1479 0 72.0282 12.0231 866 99.4134 16.1293 514.627
1480 0 76.0432 11.4803 873 100.737 14.1684 512.049
1481 0 80.0637 12.9397 1036 96.8851 16.639 511.409
1482 0 81.0783 11.5937 940 97.4521 14.8287 508.207
1483 0 84.129 11.7676 990 94.6465 15.2737 507.786
1484 0 86.1738 11.3608 979 95.7426 15.094 506.596
1485 0 89.1585 11.2048 999 97.3524 15.8348 505.687
1486 0 91.1561 11.5516 1053 97.264 15.1709 504.378
1487 0 94.1757 11.1388 1049 98.5558 15.8112 504.53
1488 0 96.1062 11.5705 1112 99.6655 15.7635 504.826
1489 0 98.1753 11.7443 1153 100.092 15.6999 504.017
1490 0 103.149 11.8372 1221 99.6929 15.3137 502.276
1491 0 106.162 11.6615 1238 101.115 15.399 501.401
1492 0 109.147 11.7639 1284 102.361 15.9354 500.579
1493 0 111.094 11.9089 1323 103.49 15.7438 500.709
1494 0 115.157 12.166 1401 102.784 15.9186 499.044
1495 0 119.15 11.8506 1412 103.899 15.6048 496.853
1496 1 65.0998 11.0599 720 98.4819 15.8431 521.918
1497 0 65.0941 11.6908 761 98.5296 16.2155 520.148
1498 0 66.0985 11.967 791 98.9836 16.3161 517.991
1499 0 70.0134 11.8834 832 98.5481 16.4868 518.96
1500 0 71.054 12.1175 861 98.9361 16.302 518.35
1501 0 75.0565 12.2308 918 98.0479 16.3562 516.065
1502 0 77.0623 12.2628 945 99.036 16.9058 513.256
1503 0 78.0755 12.0781 943 101.427 16.3065 512.354
1504 0 79.0921 11.0883 877 101.659 16.1767 509.789
1505 0 84.0839 11.2269 944 102.036 15.7362 509.599
1506 0 85.0785 12.5178 1065 102.069 17.0939 507.769
1507 0 89.1509 11.8787 1059 101.714 15.7507 509.812
1508 0 93.0755 12.5704 1170 102.825 15.7359 508.64
1509 0 94.066 12.2892 1156 101.288 16.1929 507.043
1510 0 98.1029 12.2219 1199 103.96 16.0167 506
1511 0 101.069 12.259 1239 104.61 16.435 506.743
1512 0 102.069 12.2466 1250 106.308 16.2584 503.722
1513 0 107.117 12.5937 1349 106.334 15.6672 503.361
1514 0 108.125 12.5965 1362 106.516 15.6329 499.241
1515 1 58.0437 11.3707 660 106.508 15.753 523.63
1516 0 61.1587 12.9499 792 101.183 16.4356 523.952
1517 0 64.0756 13.1251 841 102.185 15.8335 520.471
1518 0 64.0804 12.6872 813 108.068 16.0554 520.507
1519 0 65.0505 13.159 856 102.187 15.8014 521.908
1520 0 67.0908 12.9973 872 102.898 15.6181 519.585
1521 0 70.0336 12.8938 903 101.852 16.4308 519.099
1522 0 71.139 13.1855 938 101.94 16.5288 516.725
1523 0 74.0499 13.3289 987 100.408 15.5785 516.192
1524 0 78.0564 13.5543 1058 98.4962 15.9849 515.531
1525 0 79.089 12.9221 1022 101.335 16.3679 513.42
1526 0 79.119 13.4607 1065 100.123 16.4986 512.609
1527 0 83.0828 13.2639 1102 100.468 16.5009 511.51
1528 0 84.2025 13.3369 1123 101.173 16.2467 511.323
1529 0 86.1908 13.064 1126 103.21 15.4654 509.113
1530 0 89.1136 13.1293 1170 101.062 15.8137 509.348
1531 0 92.0814 12.8365 1182 102.15 16.0491 508.04
1532 0 94.1485 13.3512 1257 99.7876 16.2808 506.393
1533 0 97.2366 13.4414 1307 97.2923 16.2678 505.196
1534 0 98.194 12.7095 1248 98.9728 16.2508 504.018
1535 0 101.242 12.6627 1282 98.6279 16.9251 503.225
1536 0 107.131 12.1907 1306 99.5835 15.7734 500.085
1537 0 107.237 12.7008 1362 99.8341 16.4266 499.304
1538 0 114.217 12.6952 1450 99.4166 15.6641 495.394
1539 1 64.1063 11.9177 764 102.418 15.9738 519.907
1540 0 65.14 13.0642 851 94.9248 16.2891 520.69
1541 0 67.0988 12.8169 860 96.3407 16.2186 519.302
1542 0 70.0813 13.5414 949 94.7935 16.058 517.979
1543 0 70.1715 12.1987 856 99.4322 16.1857 517.481
1544 0 75.1459 12.6953 954 97.5807 16.2662 517.335
1545 0 77.1778 12.7757 986 96.8286 16.5335 517.308
1546 0 78.0974 13.035 1018 97.6493 16.2642 514.289
1547 0 82.0896 13.3025 1092 96.9194 16.0229 512.095
1548 0 83.0934 13.0095 1081 99.1415 16.4033 509.975
1549 0 87.1102 12.9262 1126 97.9822 16.2549 511.479
1550 0 89.1421 12.7661 1138 99.6872 16.6538 509.354
1551 0 93.1662 12.5582 1170 101.662 16.759 507.718
1552 0 96.1572 13.1347 1263 101.114 16.285 507.127
1553 0 98.1614 12.8258 1259 103.318 16.533 504.554
1554 0 103.13 13.0708 1348 102.392 15.9941 502.549
1555 0 104.105 12.7083 1323 104.45 15.6221 500.636
1556 0 106.149 13.1325 1394 105.611 15.6291 496.468
1557 0 110.258 13.6861 1509 104.333 15.1213 492.989
1558 0 112.217 12.9036 1448 107.22 15.5732 491.792
1559 0 117.078 13.034 1526 106.287 15.1632 489.851
1560 0 122.372 13.3854 1638 106.714 15.7369 488.552
1561 0 127.145 13.811 1756 105.606 15.1076 485.606
1562 1 66.118 11.6458 770 106.656 16.126 517.045
1563 0 66.0623 11.5194 761 109.359 15.9961 514.243
1564 0 70.0838 12.2568 859 107.244 15.6007 514.698
1565 0 72.0608 11.3932 821 102.607 15.4056 514.715
1566 0 74.1558 11.3275 840 104.913 15.3333 513.383
1567 0 75.1003 11.8242 888 105.694 15.402 511.601
1568 0 76.1179 11.6924 890 106.881 15.5809 509.917
1569 0 77.0832 12.3243 950 107.36 15.9337 507.753
1570 0 81.1561 12.3466 1002 107.071 15.0499 508.113
1571 0 85.1089 12.4664 1061 106.402 14.9425 508.154
1572 0 87.0713 12.4381 1083 109.091 15.1274 506.749
1573 0 89.1411 12.4634 1111 109.381 15.523 506.287
1574 0 91.1095 12.6222 1150 110.6 16.0365 505.103
1575 0 95.2992 12.8438 1224 109.215 15.6275 502.611
1576 0 96.329 13.1217 1264 108.521 15.8964 500.988
1577 0 101.261 13.1541 1332 107.828 14.9504 499.243
1578 0 105.213 13.4965 1420 106.712 15.7711 495.695
1579 0 107.205 12.201 1308 109.729 15.3494 494.189
1580 0 110.222 12.3388 1360 109.492 14.464 492.522
1581 0 114.214 13.4484 1536 106.311 16.3561 491.184
1582 0 116.244 11.8114 1373 108.79 14.7531 487.827
1583 1 67.0782 9.69019 650 98.4769 15.8846 516.146
1584 0 70.1062 11.0547 775 95.8064 15.4852 517.57
1585 0 70.076 10.9738 769 90.4434 16.0936 519.834
1586 0 73.0622 12.592 920 91.6239 16.8283 517.636
1587 0 76.0472 11.8348 900 93.6411 17.0233 517.889
1588 0 78.1425 11.6838 913 93.2804 16.9244 516.654
1589 0 81.0474 12.03 975 92.2923 16.3805 515.282
1590 0 82.0804 11.2816 926 95.3466 16.0875 512.827
1591 0 83.138 11.4388 951 95.4069 15.9411 512.499
1592 0 88.1241 12.3803 1091 94.2796 16.6114 513.521
1593 0 91.0563 12.9261 1177 93.3373 15.9499 511.581
1594 0 94.0651 12.7146 1196 93.8545 16.3779 510.584
1595 0 97.0302 13.099 1271 93.9386 15.7663 508.707
1596 0 97.0812 12.3711 1201 96.7269 16.0674 506.775
1597 0 100.079 12.54 1255 98.8685 15.8446 503.564
1598 0 106.141 11.871 1260 106.017 15.6127 499.199
1599 0 109.132 11.9855 1308 110.164 15.6644 498.258
1600 0 112.102 12.3816 1388 109.767 15.0735 496.811
1601 0 116.121 12.6592 1470 109.031 15.5667 494.837
1602 0 121.13 13.1924 1598 107.266 15.0901 493.033
1603 1 65.118 10.7958 703 100.461 16.6358 522.434
1604 0 68.025 11.9074 810 100.293 16.4037 521.554
1605 0 69.1491 11.656 806 102.3 16.8772 520.569
1606 0 69.1491 11.7283 811 143.978 16.8767 520.646
1607 0 75.0963 12.3708 929 99.1991 16.9483 518.572
1608 0 76.0646 12.4105 944 100.522 17.0212 517.461
1609 0 78.0691 13.0525 1019 98.8361 16.264 515.053
1610 0 79.0926 12.5802 995 99.4965 16.2573 514.814
1611 0 83.1703 12.6367 1051 100.226 16.1579 512.853
1612 0 84.0437 12.5887 1058 103.912 15.8762 513.542
1613 0 88.0722 12.6941 1118 103.507 16.373 511.526
1614 0 92.1861 12.9087 1190 108.468 16.1908 508.685
1615 0 94.0535 12.8225 1206 101.905 16.0216 506.674
1616 0 97.0887 13.1014 1272 102.134 15.3428 506.051
1617 0 99.144 12.0834 1198 105.009 16.1085 502.74
1618 0 102.112 12.408 1267 105.774 15.3102 501.86
1619 0 106.091 13.1209 1392 108.123 16.9037 500.073
1620 0 107.082 12.7285 1363 107.154 15.5209 500.926
1621 0 110.155 12.083 1331 108.665 14.9031 500.446
1622 0 115.19 13.6297 1570 106.208 16.9006 497.685
1623 0 119.111 12.7528 1519 106.808 15.7018 497.24
1624 0 122.153 12.165 1486 108.872 15.6339 494.707
1625 0 124.162 13.3858 1662 109.409 17.7696 492.712
1626 0 128.167 12.5149 1604 109.7 16.1016 490.451
1627 0 133.109 12.2306 1628 109.458 16.1941 490.619
1628 1 78.1235 11.4178 892 106.638 15.1031 515.141
1629 0 80.2094 12.5297 1005 108.009 17.0866 513.909
1630 0 83.1222 12.5117 1040 110.38 15.3837 509.089
1631 0 86.2262 14.0213 1209 108.725 17.445 510.343
1632 0 87.0528 12.9576 1128 106.543 15.6117 509.097
1633 0 91.0939 12.9537 1180 105.958 15.7983 508.18
1634 0 92.0722 13.4786 1241 106.653 15.2385 505.686
1635 0 94.1265 13.1419 1237 110.002 17.5958 507.428
1636 0 97.0731 13.1035 1272 108.097 15.7193 505.814
1637 0 101.067 12.8727 1301 108.473 14.9823 504.836
1638 0 102.076 12.7747 1304 109.659 15.385 503.15
1639 0 107.096 12.3534 1323 110.303 14.9365 501.696
1640 0 109.12 12.8574 1403 109.573 14.9152 498.736
1641 0 112.087 12.9899 1456 109.641 14.737 498.438
1642 0 115.144 12.454 1434 111.317 15.3229 496.004
1643 0 117.079 12.342 1445 112.086 15.155 492.451
1644 0 124.179 12.8282 1593 109.68 15.2812 491.421
1645 0 128.144 12.9151 1655 110.645 14.8375 489.059
1646 0 131.117 13.6596 1791 113.012 17.3735 486.825
1647 1 74.0617 11.5444 855 112.235 16.1825 515.109
1648 0 80.1366 12.9903 1041 108.266 15.6657 512.948
1649 0 80.1127 13.3437 1069 110.021 17.1197 513.538
1650 0 81.1122 13.1423 1066 114.62 15.1923 510.334
1651 0 87.0642 13.6221 1186 112.727 16.1358 508.027
1652 0 90.0552 13.1919 1188 114.556 16.5614 505.944
1653 0 91.0311 13.0175 1185 117.321 16.5823 505.312
1654 0 93.05 13.0145 1211 119.308 15.8571 505.197
1655 0 94.0697 13.3199 1253 120.192 16.332 502.342
1656 0 100.081 12.9495 1296 121.809 14.6844 502.934
1657 0 103.074 13.5146 1393 119.954 15.2419 498.682
1658 0 106.137 13.6051 1444 120.626 13.9342 498.623
1659 0 106.096 14.27 1514 122.466 16.2477 496.478
1660 0 110.119 13.5944 1497 121.667 15.1617 493.412
1661 0 114.094 14.0498 1603 119.563 14.7779 491.714
1662 0 117.204 14.0354 1645 120.627 15.7289 489.399
1663 0 118.096 14.2427 1682 119.803 15.4358 485.675
1664 0 123.117 13.7918 1698 121.581 15.5489 486.693
1665 0 125.095 14.3491 1795 120.651 16.3805 485.923
1666 0 128.131 14.1496 1813 121.975 16.5312 484.548
1667 0 132.126 14.3121 1891 122.307 16.0645 481.012
1668 0 137.207 14.7077 2018 109.911 16.115 481.94
1669 0 141.086 14.3317 2022 123.226 15.1365 479.385
1670 0 145.081 15.419 2237 123.453 17.2253 478.178
1671 0 150.086 14.5783 2188 121.971 14.8684 477.175
1672 0 155.122 16.2002 2513 121.601 15.9495 472.95
1673 0 158.137 16.081 2543 121.422 15.4963 470.16
1674 0 162.105 16.1377 2616 120.401 15.9904 464.955
1675 0 165.194 14.6555 2421 121.632 14.8092 462.304
1676 0 170.128 15.6294 2659 120.791 15.6476 456.894
1677 0 174.225 15.3135 2668 123.01 16.1458 458.385
1678 1 104.155 10.7724 1122 115.059 15.4991 494.96
1679 0 112.191 12.9601 1454 121.087 16.4381 495.838
1680 0 115.055 13.7847 1586 113.095 15.1135 495.701
1681 0 118.088 14.4638 1708 118.555 15.8899 492.478
1682 0 121.112 13.5164 1637 118.736 14.5864 489.657
1683 0 125.146 13.9757 1749 118.12 15.0709 488.571
1684 0 127.102 14.327 1821 116.012 14.8589 488.176
1685 0 130.116 14.1028 1835 114.797 14.9008 485.089
1686 0 136.084 15.0201 2044 112.863 15.2686 485.433
1687 0 141.12 14.4557 2040 111.004 14.6858 483.241
1688 0 145.133 15.1585 2200 111.349 16.6073 479.908
1689 0 149.206 13.8198 2062 115.759 14.9365 477.132
1690 0 155.202 14.6197 2269 110.771 14.8757 473.214
1691 1 87.0464 11.3847 991 114.053 14.9092 503.591
1692 0 87.1484 12.0943 1054 113.608 15.2799 498.887
1693 0 93.0616 12.7228 1184 111.718 15.3378 498.931
1694 0 98.1286 13.411 1316 108.536 15.2181 502.793
1695 0 99.045 13.3475 1322 110.191 14.3109 502.798
1696 0 102.048 13.7681 1405 111.796 16.2085 501.562
1697 0 106.062 13.4827 1430 112.309 14.3259 498.275
1698 0 109.102 14.5643 1589 110.817 16.6123 497.131
1699 0 112.139 13.6794 1534 114.202 14.8768 495.542
1700 0 114.083 14.6122 1667 114.295 16.5777 494.019
1701 0 116.09 13.412 1557 116.852 14.3821 492.315
1702 0 119.124 14.3463 1709 117.114 16.598 488.389
1703 0 123.168 13.6967 1687 115.963 15.0225 487.683
1704 0 123.174 13.0141 1603 113.745 15.5976 479.361
1705 0 126.083 13.4673 1698 114.263 14.9217 478.119
1706 0 127.118 13.1767 1675 117.405 15.7731 474.558
1707 0 132.134 12.8582 1699 117.317 15.5021 474.544
1708 0 139.153 13.1798 1834 115.454 15.8386 472.454
1709 1 81.0397 10.0321 813 109.264 15.3862 502.738
1710 0 84.0748 10.8832 915 113.564 14.741 503.237
1711 0 92.0671 13.6639 1258 116.326 16.5914 507.472
1712 0 94.1188 12.8986 1214 109.956 14.6079 506.1
1713 0 96.0735 13.2503 1273 109.642 15.2781 504.897
1714 0 100.148 13.6997 1372 108.747 15.25 504.272
1715 0 103.137 13.836 1427 109.979 15.7071 502.468
1716 0 104.072 13.5099 1406 112.223 14.9943 500.991
1717 0 104.064 12.3289 1283 120.86 15.774 497.666
1718 0 108.07 12.7973 1383 119.867 15.961 497.118
1719 0 112.075 13.3036 1491 119.268 16.4708 495.526
1720 0 115.07 12.8356 1477 121.377 15.281 493.763
1721 0 117.055 13.5492 1586 121.329 16.4105 492.448
1722 0 121.048 13.5731 1643 121.374 15.4054 490.394
1723 0 122.062 13.1572 1606 123.387 15.6171 488.422
1724 0 126.077 13.9835 1763 120.659 15.5355 486.1
1725 0 129.043 13.9643 1802 123.806 15.6815 485.009
1726 0 132.078 13.4012 1770 127.014 15.7169 480.662
1727 0 134.056 13.8748 1860 128.012 14.8737 477.908
1728 0 139.107 13.9964 1947 126.329 14.8541 476.002
1729 0 143.076 13.6711 1956 131.35 15.476 476.008
1730 0 146.104 13.5999 1987 132.032 15.1736 472.745
1731 0 149.074 13.0338 1943 133.802 15.3747 469.41
1732 0 156.138 13.2895 2075 129.995 14.9311 468.509
1733 0 157.197 13.1173 2062 129.311 14.6518 464.73
1734 0 162.216 13.8519 2247 126.742 15.0352 461.924
1735 0 165.154 13.6721 2258 127.5 15.2896 458.628
1736 0 169.223 13.692 2317 128.554 14.789 456.271
1737 0 173.202 13.5679 2350 129.139 14.5566 455.217
1738 0 177.116 13.7255 2431 129.965 14.3233 450.97
1739 0 183.236 13.8564 2539 129.8 14.3194 448.456
1740 0 188.152 13.3296 2508 130.968 14.9522 446.313
1741 0 194.203 13.4705 2616 131.286 15.6995 443.458
1742 0 200.252 13.2882 2661 131.743 14.9237 441.527
1743 0 205.173 13.4131 2752 131.153 15.6083 437.041
1744 0 212.238 13.876 2945 129.041 15.8577 432.324
1745 0 217.288 13.9584 3033 130.98 15.1652 433.338
1746 0 223.493 14.2689 3189 130.414 14.4682 434.006
1747 0 227.555 14.0669 3201 133.341 13.6779 430.09
1748 0 231.669 14.2488 3301 133.504 14.2296 426.771
1749 0 238.457 14.5854 3478 131.894 14.2662 425.886
1750 0 236.578 12.8964 3051 137.36 14.4336 424.925
1751 0 237.422 11.2795 2678 142.432 14.1923 428.931
1752 1 253.464 13.9507 3536 136.686 14.586 413.692
1753 0 263.524 15.2244 4012 132.659 14.6082 409.297
1754 0 270.434 14.7208 3981 133.174 14.6724 405.94
1755 0 278.365 14.9731 4168 132.017 13.9321 405.06
1756 1 224.482 12.2459 2749 134.842 14.2928 437.799
1757 0 232.515 13.5174 3143 131.401 13.9583 432.623
1758 0 238.539 13.3773 3191 135.004 14.1207 427.746
1759 0 244.567 13.4238 3283 134.245 13.6896 422.2
1760 0 251.705 13.6549 3437 134.422 14.2397 419.721
1761 0 258.489 13.2424 3423 134.905 14.066 415.557
1762 0 264.522 13.9875 3700 132.592 14.4605 411.942
1763 0 271.57 13.7644 3738 133.681 14.0987 411.951
1764 0 274.51 13.1908 3621 136.389 14.1781 407.42
1765 0 283.562 13.602 3857 134.241 13.7786 402.286
1766 0 292.761 14.4931 4243 131.949 15.9588 401.412
1767 0 300.603 13.2534 3984 133.997 14.3928 393.339
1768 0 309.508 12.3195 3813 137.865 14.1264 386.382
1769 1 116.425 9.04445 1053 115.253 15.2156 497.467
1770 0 118.362 9.66524 1144 116.108 15.1023 495.04
1771 0 116.257 8.55859 995 115.471 14.4 495.395
1772 0 119.19 8.24731 983 114.85 13.9725 495.693
1773 0 123.351 9.07168 1119 112.73 15.8597 495.542
1774 0 124.297 8.73711 1086 116.276 14.6188 492.049
1775 0 124.37 8.14506 1013 116.83 14.7305 492.564
1776 0 130.335 9.39887 1225 113.476 14.1673 489.195
1777 0 133.32 9.11339 1215 112.919 14.9654 486.966
1778 0 132.318 8.23019 1089 115.478 15.4619 487.996
1779 0 135.342 8.20142 1110 112.465 15.8099 489.862
1780 0 134.27 8.3265 1118 112.238 15.3748 489.428
1781 0 143.343 9.35516 1341 108.783 16.0641 480.321
1782 0 146.41 8.61279 1261 110.267 15.0904 476.306
1783 0 149.371 8.93075 1334 109.714 16.0472 476.201
1784 0 151.294 8.83046 1336 109.927 15.6078 474.835
1785 0 156.432 10.3623 1621 106.421 16.0333 470.639
1786 0 159.257 9.35592 1490 110.814 15.4765 469.205
1787 0 162.422 9.24752 1502 112.613 16.0419 467.84
1788 0 176.393 15.1423 2671 94.7001 15.9345 455.036
1789 0 176.365 14.2205 2508 96.4916 15.738 454.038
1790 0 178.346 13.4402 2397 100.693 15.0926 453.34
1791 0 176.389 9.43371 1664 113.969 15.7356 459.105
1792 1 44.0427 9.96761 439 98.3622 17.1845 525.774
1793 0 46.0227 10.1254 466 96.3863 17.8863 526.599
1794 0 45.0422 9.19138 414 98.0193 17.6884 525.966
1795 0 45.0333 10.5255 474 95.5316 17.3586 527.103
1796 0 48.0504 10.3849 499 93.9158 16.3988 528.493
1797 0 45.0283 10.2158 460 94.637 16.7196 526.53
1798 0 46.0293 9.95019 458 94.7249 16.1507 527.087
1799 0 47.0296 10.0362 472 91.5042 15.9216 527.655
1800 0 46.0355 9.53612 439 92.4146 16.3052 527.353
1801 0 47.0221 10.9098 513 87.6764 16.3665 527.942
1802 0 48.082 10.1077 486 88.4486 16.7119 528.899
1803 0 45.0123 10.0861 454 88.6145 15.9537 528.993
1804 0 47.0051 10.0627 473 87.3235 16.4609 526.841
1805 0 46.0159 10.0617 463 86.73 15.8618 526.65
1806 0 47.0335 9.73775 458 86.3799 15.7511 526.845
1807 0 45.0496 9.98899 450 85.3289 16.0556 527.958
1808 0 46.0426 9.51294 438 83.71 16.5342 527.208
1809 0 46.0532 10.0319 462 82.4069 15.829 525.275
1810 0 46.027 9.6465 444 82.9842 16.3671 525.935
1811 0 45.0212 10.0841 454 82.2379 15.7511 526.645
1812 0 46.0233 9.84284 453 81.713 16.6424 525.664
1813 0 47.0149 9.08224 427 81.8431 16.2553 526.534
1814 0 43.0138 8.60189 370 84.2189 16.3703 525.308
1815 0 45.1219 9.1973 415 81.7566 15.8361 523.607
1816 0 46.0344 9.05843 417 79.6763 15.5588 524.825
1817 0 45.0333 10.6144 478 76.9477 17.546 525.402
1818 0 44.0608 9.53228 420 77.9619 15.6905 525.029
1819 0 46.0646 10.6372 490 75.8041 16.8857 525.653
1820 0 47.0167 9.31584 438 75.4749 15.2991 525.712
1821 0 46.0193 10.2131 470 75.5426 17.7702 525.919
1822 0 46.0183 8.27932 381 76.832 16.0446 524.68
1823 0 46.051 9.27234 427 75.9391 16.6159 524.309
1824 0 45.0389 9.85814 444 74.3896 16.2252 524.363
1825 0 46.0402 9.64375 444 74.0653 16.4144 525.052
1826 0 44.0362 9.65115 425 73.3341 17.1318 524.518
1827 0 47.0307 9.63201 453 71.6622 16.4084 524.881
1828 0 47.0197 10.0171 471 70.6348 15.9066 524.741
1829 0 48.0641 9.3417 449 71.0557 15.8998 524.265
1830 0 45.0269 10.7713 485 70.0866 18.2515 524.944
1831 0 47.0168 8.86917 417 70.7458 16.0576 525.688
1832 0 46.1459 10.3584 478 68.7971 18 524.241
1833 0 48.0167 9.45505 454 68.8921 16.4956 523.498
1834 1 117.232 10.3896 1218 91.1084 15.3432 485.966
1835 0 119.243 10.5331 1256 93.3041 15.008 484.093
1836 0 121.226 9.78339 1186 96.8929 15.9115 481.397
1837 0 124.413 10.1275 1260 97.4056 15.7056 479.16
1838 0 125.307 10.6858 1339 96.6214 15.4369 477.288
1839 0 126.198 10.0794 1272 98.8491 15.3105 475.958
1840 0 123.452 9.72847 1201 93.9592 15.5587 475.979
1841 0 127.289 10.1265 1289 93.1148 14.287 473.891
1842 0 128.298 11.2395 1442 87.2323 16.8065 476.544
1843 0 134.302 10.2232 1373 89.6686 14.5936 473.22
1844 0 132.261 12.7098 1681 87.2308 16.1565 470.794
1845 0 135.265 10.3648 1402 96.0813 14.1369 465.314
1846 0 139.374 12.018 1675 91.3743 16.354 466.346
1847 0 140.339 10.9022 1530 92.5196 15.1072 462.722
1848 0 141.315 10.4023 1470 95.6299 15.2558 461.146
1849 0 146.446 11.506 1685 92.8166 15.0101 460.803
1850 0 151.123 12.2747 1855 93.096 15.5084 459.55
1851 0 153.233 12.3603 1894 93.5201 14.7598 458.638
1852 0 150.23 11.8218 1776 96.3086 15.3407 456.843
1853 0 156.294 11.376 1778 99.7705 14.9589 451.741
1854 0 157.238 11.5621 1818 100.019 15.7129 450.977
1855 0 159.355 12.0737 1924 100.362 14.9226 450.258
1856 0 161.286 11.5943 1870 101.65 14.9583 445.063
1857 0 161.285 11.6626 1881 102.781 14.6342 441.483
1858 0 165.286 13.3647 2209 97.3436 15.832 444.508
1859 0 163.258 12.324 2012 100.618 14.8817 438.103
1860 0 174.234 13.2982 2317 99.3272 16.1221 436.665
1861 0 176.248 12.664 2232 98.7056 15.5206 437.021
1862 0 175.223 12.6639 2219 100.459 15.0361 433.697
1863 0 183.122 12.9039 2363 100.036 14.9492 428.543
1864 0 186.269 12.3531 2301 102.285 14.7814 425.299
1865 0 193.28 12.5155 2419 101.292 14.9223 425.159
1866 0 195.165 12.1385 2369 103.425 15.3385 421.824
1867 1 298.34 12.7003 3789 113.918 14.9272 355.731
1868 1 326.315 9.87083 3221 116.97 14.4287 365.651
1869 1 94.1975 5.37169 506 109.53 15.3458 454.336
1870 1 74.0757 9.92228 735 101.423 15.3211 458.995
1871 0 73.102 10.9299 799 100.198 15.4193 458.323
1872 0 76.1409 12.0303 916 97.524 15.0819 456.052
1873 0 80.1792 11.15 894 100.503 14.8781 454.211
1874 0 79.1899 11.9333 945 101.448 14.2328 453.382
1875 0 83.2114 12.0777 1005 100.712 14.7025 451.878
1876 0 85.1387 12.1331 1033 100.282 14.6786 451.183
1877 0 85.1777 11.9163 1015 100.627 14.6286 448.657
1878 0 86.0676 12.037 1036 98.5039 14.7732 447.792
1879 0 88.1237 12.4711 1099 100.694 14.1474 447.09
1880 0 98.1699 14.3527 1409 93.8013 16.8304 446.351
1881 0 91.2391 12.955 1182 99.3333 15.0288 444.453
1882 0 94.1537 12.915 1216 102.197 15.528 443.641
1883 0 99.1738 12.9167 1281 101.231 14.7658 444.425
1884 0 100.179 13.5957 1362 100.001 16.6806 443.212
1885 0 100.09 12.5887 1260 103.336 15.3437 440.701
