time division length width area intensity CMx CMy
0 0 55.0233 13.9032 765 124.382 1076.14 511.163
1 0 60.0164 14.6293 878 117.754 1075.21 509.398
2 0 60.0209 14.245 855 120.647 1075.54 509.839
3 0 61.043 14.4161 880 119.123 1075.3 508.916
4 0 65.0365 15.0685 980 113.918 1075.27 509.513
5 0 68.0295 14.8759 1012 111.188 1075.35 508.759
6 0 68.1111 14.2414 970 111.542 1075.82 508.37
7 0 73.0334 14.6645 1071 105.33 1075.71 507.734
8 0 75.0445 15.231 1143 103.079 1075.18 505.299
9 0 77.032 14.7341 1135 104.833 1075.76 504.602
10 0 80.0268 14.6826 1175 104.191 1075.46 503.984
11 0 83.0892 15.0561 1251 102.703 1075.1 501.524
12 0 85.171 14.2302 1212 114.953 1075.71 500.241
13 0 89.1548 14.3795 1282 113.904 1074.75 498.501
14 1 42.0157 11.7099 492 116.287 1074.51 520.963
15 0 43.0177 12.2508 527 115.091 1074.31 519.848
16 0 47.0933 12.0399 567 113.123 1074.68 520.252
17 0 47.0303 12.9704 610 109.005 1074.48 517.346
18 0 53.0428 11.8961 631 107.945 1074.16 517.487
19 0 50.0262 13.0132 651 107.339 1074.31 515.742
20 0 53.0293 13.3888 710 104.839 1074.11 514.589
21 0 54.0524 13.3389 721 96.8197 1074.21 513.632
22 0 57.0747 14.1569 808 97.9567 1074.23 514.59
23 0 57.0437 14.7431 841 96.6944 1074.75 513.782
24 0 57.0331 14.6932 838 142.699 1074.76 513.739
25 0 62.0302 14.2834 886 96.7844 1074.02 513.143
26 0 63.103 13.7395 867 97.9758 1074.09 512.403
27 0 66.043 14.1574 935 97.0802 1074.05 511.099
28 0 67.019 15.0704 1010 95.3584 1074.15 512.593
29 0 69.0693 15.3035 1057 94.1078 1073.77 510.64
30 0 72.0597 15.1541 1092 94.9771 1073.67 510.316
31 0 75.0886 15.2087 1142 93.7364 1074.18 508.512
32 0 76.0711 15.0386 1144 94.7692 1073.97 509.396
33 0 79.0697 14.4303 1141 100.321 1073.4 505.773
34 0 80.0711 14.7869 1184 99.8682 1073.3 504.231
35 0 83.0492 14.5456 1208 100.013 1073.11 503.997
36 0 86.0718 14.9991 1291 97.055 1073.71 502.823
37 0 87.0496 14.934 1300 98.36 1072.68 499.86
38 0 91.0716 15.2188 1386 95.9697 1072.6 497.397
39 0 95.072 14.9045 1417 95.1955 1071.86 496.319
40 0 98.0583 14.6953 1441 95.6724 1072.91 493.223
41 0 101.07 14.6928 1485 94.4209 1072.93 491.776
42 0 103.109 14.8678 1533 94.9419 1073.1 491.597
43 0 108.075 14.3512 1551 95.0297 1072.62 490.729
44 0 110.195 14.7829 1629 94.717 1072.83 488.5
45 0 113.093 14.6163 1653 95.9831 1072.45 486.263
46 0 117.151 14.9124 1747 96.1156 1072.71 483.663
47 0 122.133 14.9591 1827 95.9584 1073.25 484.417
48 0 124.135 15.1932 1886 97.1389 1072.67 480.774
49 0 129.242 15.235 1969 95.3017 1072.73 478.884
50 0 133.129 15.6089 2078 96.2117 1072.57 477.265
51 0 139.184 15.3681 2139 96.2805 1073.21 476.442
52 0 141.119 15.618 2204 96.677 1073.14 472.635
53 0 146.139 15.8001 2309 96.6843 1072.76 469.451
54 0 150.159 15.67 2353 97.6498 1072.44 466.974
55 0 155.264 16.0308 2489 96.2378 1072.6 463.754
56 0 160.278 16.0346 2570 95.9817 1072.6 460.617
57 1 73.0873 12.8066 936 97.2586 1073.18 502.73
58 0 73.0944 12.7096 929 104.096 1072.6 502.008
59 0 78.1288 13.7721 1076 94.0446 1073.3 499.967
60 0 81.1066 13.2665 1076 94.3188 1072.51 498.405
61 0 82.1819 12.7765 1050 96.4352 1073 495.048
62 0 84.1224 13.0405 1097 95.9608 1072.62 493.362
63 0 88.1018 14.0406 1237 93.177 1073.28 492.517
64 0 90.0772 13.6439 1229 94.9959 1072.49 491.181
65 0 93.1921 13.3917 1248 96.7588 1072.8 490.596
66 0 96.1284 13.4612 1294 97.3794 1072.21 487.248
67 0 98.202 13.7981 1355 98.0406 1071.83 487.046
68 0 102.211 13.4037 1370 100.09 1071.67 483.02
69 0 105.203 13.7354 1445 100.039 1071.56 482.892
70 0 110.138 13.8009 1520 100.661 1071.43 479.739
71 0 114.202 13.7651 1572 101.307 1072.14 479.191
72 0 118.349 13.4771 1595 101.743 1071.78 475.801
73 0 122.186 13.103 1601 102.803 1072.3 474.718
74 1 72.2438 11.5442 834 91.6942 1072.2 502.23
75 0 74.0859 11.8106 875 79.6183 1071.8 503.106
76 0 78.0834 13.4087 1047 93.0965 1072.39 505.463
77 0 78.0703 13.475 1052 90.7101 1071.94 504.683
78 0 81.0774 13.4563 1091 90.9872 1072.18 504.098
79 0 85.0996 13.2786 1130 92.3885 1071.81 501.853
80 0 88.1023 13.2573 1168 95.4152 1071.36 500.098
81 0 92.0999 13.2791 1223 94.2772 1072 498.624
82 0 92.0992 13.2683 1222 95 1072.5 495.082
83 0 97.1886 13.6333 1325 92.2294 1071.63 494.272
84 0 98.0826 13.2439 1299 93.0477 1071.91 492.841
85 0 101.101 13.3332 1348 91.2107 1071.68 491.785
86 0 105.118 13.4325 1412 89.2479 1072.51 490.644
87 0 108.175 13.395 1449 89.6142 1071.75 486.134
88 0 111.113 12.9778 1442 90.0333 1072.57 484.736
89 0 114.119 13.3895 1528 88.7507 1072.01 483.357
90 0 119.122 12.3151 1467 88.9475 1072.76 481.434
91 0 123.158 12.8615 1584 89.4628 1072.6 479.944
92 0 129.2 13.4365 1736 88.5472 1071.89 475.096
93 0 132.278 12.8366 1698 88.9223 1071.82 472.886
94 1 73.0466 11.171 816 82.1471 1071.69 504.533
95 0 76.0364 12.2573 932 81.9421 1072.72 502.965
96 0 79.0856 12.2905 972 80.1183 1072.29 502.496
97 0 79.0589 11.6875 924 79.5357 1071.78 503.157
98 0 84.0322 12.3524 1038 86.3198 1072.21 501.344
99 0 85.044 12.0879 1028 88.2004 1072.42 499.662
100 0 89.0221 12.7833 1138 86.1634 1072.56 498.924
101 0 91.0967 12.7337 1160 87.7517 1072.79 496.876
102 0 95.0982 12.587 1197 88.1512 1071.83 496.712
103 0 98.0927 12.896 1265 88.0324 1071.68 495.041
104 0 99.0534 13.0233 1290 88.0046 1071.56 492.498
105 0 101.047 11.9647 1209 89.4028 1072.23 489.708
106 0 105.071 12.6771 1332 87.298 1072.27 487.534
107 0 107.064 13.0203 1394 84.972 1072.12 486.093
108 0 112.073 12.947 1451 83.1275 1072.53 484.928
109 0 115.087 12.295 1415 84.2806 1072.33 482.213
110 0 118.125 11.9873 1416 84.9732 1073.19 478.608
111 0 122.134 12.4208 1517 83.7798 1072.76 475.976
112 0 128.18 13.6137 1745 82.1387 1073.33 476.214
113 1 73.1206 11.0229 806 77.9417 1071.86 506.249
114 0 74.1008 11.5518 856 80.4498 1071.8 504.836
115 0 74.0649 10.8958 807 78.29 1071.74 503.373
116 0 78.0547 11.6072 906 76.4834 1071.58 505.189
117 0 78.0688 10.9391 854 78.3408 1071.67 504.125
118 0 82.0194 12.3263 1011 75.9674 1071.05 502.313
119 0 87.0625 12.9907 1131 74.3837 1071.92 500.759
120 0 88.0411 12.585 1108 76.3168 1071.72 500.858
121 0 90.0559 12.0037 1081 78.728 1071.83 497.021
122 0 95.1088 12.8169 1219 77.0246 1071.31 495.912
123 0 99.0588 12.538 1242 77.7746 1071.38 496.042
124 0 102.105 12.3696 1263 78.3381 1071.78 494.463
125 0 103.107 13.1514 1356 144.246 1072.77 493.102
126 0 110.193 12.6596 1395 75.4746 1072.09 489.106
127 1 59.1046 10.8959 644 75.3183 1072.09 514.307
128 0 61.084 11.8198 722 74.8601 1071.64 514.644
129 0 62.0722 11.3094 702 73.8989 1073.38 512.859
130 0 63.0566 11.3707 717 74.5858 1072.39 510.409
131 0 64.0478 12.0379 771 71.9831 1070.87 512.665
132 0 66.1593 10.8224 716 73.4749 1070.27 513.934
133 0 67.1332 10.5462 708 72.346 1071.19 512.34
134 0 70.1038 12.2105 856 70.9124 1071.65 510.109
135 0 70.1038 12.2105 856 145.072 1072.63 510.015
136 0 75.2726 11.744 884 70.4502 1071.89 506.896
137 0 78.1726 12.191 953 69.3683 1072.28 505.289
138 0 80.1973 12.0827 969 69.5253 1072.49 504.395
139 0 81.2405 11.4598 931 71.6305 1072.1 502.412
140 0 85.1528 11.8375 1008 70.2083 1071.96 502.073
141 0 87.1656 11.3921 993 70.7694 1071.3 501.449
142 0 91.1921 12.1392 1107 69.7173 1071.09 500.607
143 0 95.5395 12.2986 1175 69.1506 1071.47 497.578
144 0 98.2784 12.1695 1196 68.2132 1071.04 496.12
145 0 101.335 11.7728 1193 66.891 1071.81 494.431
146 0 102.452 11.4298 1171 66.0179 1071.56 491.541
147 0 106.207 10.5548 1121 64.3943 1071.57 490.986
148 0 111.185 10.9547 1218 60.0312 1072.05 485.562
149 0 116.175 11.2072 1302 59.8249 1070.95 484.094
150 0 121.149 11.5808 1403 58.7969 1070.81 482.287
151 1 66.1001 11.6944 773 58.467 1070.75 511.493
152 0 68.1044 11.4383 779 64.4698 1070.26 509.764
153 0 70.1262 11.1656 783 65.6118 1070.35 509.801
154 0 72.1738 10.8488 783 66.2312 1071.05 508.292
155 0 73.2334 10.3641 759 63.6825 1070.9 504.217
156 0 76.1966 10.9322 833 65.5738 1071.45 507.403
157 0 76.218 10.6799 814 63.5958 1072.03 505.784
158 0 81.1707 10.903 885 64.4915 1071.45 503.36
159 0 82.3246 11.7098 964 63.2967 1071.61 502.894
160 0 85.3189 11.627 992 63.6159 1070.36 502.595
161 0 86.2838 10.6857 922 65.115 1071.08 497.471
162 0 91.4583 12.1039 1107 62.1969 1070.59 496.383
163 0 90.2722 10.4905 947 67.1848 1070.36 492.705
164 0 94.3697 11.0099 1039 65.4014 1070.39 492.733
165 0 97.5762 11.427 1115 65.1731 1070.87 490.967
166 0 99.4333 11.475 1141 66.4768 1070.67 487.743
167 0 102.63 10.9617 1125 67.48 1071.45 485.248
168 0 106.318 10.8448 1153 67.7329 1070.73 482.957
169 0 107.307 11.1829 1200 68.4167 1071.33 482.364
170 0 112.402 12.4019 1394 67.3286 1070.49 480.588
171 0 114.492 11.3545 1300 69.4492 1070.65 478.802
172 0 119.334 11.1033 1325 69.3487 1071.15 477.191
173 0 121.361 11.437 1388 70.3977 1071.11 474.906
174 0 126.322 11.4866 1451 70.8525 1070.89 472.773
175 0 128.386 10.4217 1338 73.6061 1071.01 470.862
176 0 131.333 10.995 1444 73.3961 1070.05 469.221
177 0 135.482 11.0864 1502 73.5599 1069.93 465.949
178 0 139.378 11.2285 1565 73.1157 1069.93 464.045
179 1 80.3163 9.6618 776 66.7229 1069.59 497.508
180 0 82.2939 9.27165 763 67.7313 1069.94 494.089
181 0 88.315 11.3457 1002 65.1327 1069.7 497.332
182 0 91.3253 11.136 1017 65.6096 1069.56 495.349
183 0 93.2032 10.8687 1013 65.9329 1070.44 492.633
184 0 97.3426 10.6839 1040 65.926 1069.61 491.563
185 0 100.251 10.5934 1062 66.8757 1070.48 488.112
186 0 105.234 10.6999 1126 66.5169 1070.2 487.735
187 0 106.368 10.6799 1136 66.7447 1069.55 486.159
188 0 110.183 11.0815 1221 67.0614 1069.69 482.673
189 0 110.266 10.1664 1121 69.3836 1069.96 480.087
190 0 116.272 9.80455 1140 69.5912 1070.07 479.961
191 0 119.211 10.234 1220 69.3713 1070.11 478.893
192 0 126.269 10.7152 1353 68.1412 1070.26 478.308
193 0 128.299 10.3742 1331 69.6897 1069.67 476.335
194 0 133.243 11.175 1489 69.1323 1069.69 472.516
195 0 137.173 10.9424 1501 70.9127 1069.56 472.46
196 0 141.275 11.5094 1626 70.556 1069.73 471.296
197 0 146.26 10.9531 1602 72.1573 1068.76 466.722
198 0 151.216 11.8043 1785 70.8846 1068.96 468.072
199 1 80.1331 11.5807 928 68.7392 1069.63 502.178
200 0 80.1136 11.5586 926 71.8315 1069.9 502.963
201 0 83.14 12.1602 1011 73.4115 1070.08 501.469
202 0 86.114 12.077 1040 93.2548 1070.07 500.677
203 0 87.1983 11.6172 1013 95.4541 1070.07 499.406
204 0 91.1343 12.3444 1125 93.8133 1069.71 498.489
205 0 93.23 12.4102 1157 95.0086 1070.75 497.703
206 0 96.2315 12.896 1241 94.2949 1070.15 496.008
207 0 99.2665 12.6629 1257 95.7391 1070.5 494.157
208 1 52.1686 10.9069 569 93.0422 1070.86 516.661
209 0 55.1378 10.3559 571 94.0736 1070.87 515.986
210 0 56.021 12.174 682 83.4883 1068.83 515.644
211 0 60.0242 11.9785 719 80.057 1068.89 515.581
212 0 61.0801 12.3936 757 80.8111 1069.08 513.758
213 0 62.0375 11.9927 744 82.6573 1069.18 513.435
214 0 63.101 11.7114 739 81.7253 1069.32 514.031
215 0 64.0682 12.315 789 81.2472 1068.61 512.423
216 0 66.0998 11.876 785 81.7911 1069.41 511.232
217 0 67.0797 11.4789 770 82.3117 1068.82 509.739
218 0 71.042 11.824 840 82.1845 1069.16 509.136
219 0 73.0292 11.872 867 80.9723 1069.86 507.039
220 0 75.0443 12.1662 913 79.3352 1069.59 506.311
221 0 78.0841 11.8334 924 79.3203 1068.81 503.14
222 0 80.1065 12.8829 1032 75.6318 1069.04 503.534
223 0 82.0428 12.5179 1027 76.0604 1069.2 502.898
224 0 85.0463 12.6754 1078 76.5668 1069.91 501.537
225 0 90.0586 12.6029 1135 76.2423 1069.37 500.389
226 0 91.0722 12.7042 1157 77.191 1069.72 497.469
227 0 96.0555 13.5026 1297 75.8489 1069.57 496.378
228 0 99.1022 12.9664 1285 77.5012 1069.38 495.502
229 1 51.0171 10.3887 530 84.783 1069.28 519.142
230 0 55.0301 12.2842 676 75.0207 1069.18 518.287
231 0 56.0394 12.1165 679 73.7158 1069.27 518.244
232 0 56.0872 11.6961 656 77.1646 1068.27 517.742
233 0 59.049 12.8199 757 72.4108 1070.77 516.948
234 0 61.0335 13.1075 800 72.8262 1068.81 515.491
235 0 61.0581 12.4472 760 75.4092 1068.67 515.404
236 0 61.0352 12.1405 741 77.3576 1068.82 514.399
237 0 65.1068 12.7022 827 76.0629 1068.67 514.235
238 0 66.0453 12.5974 832 77.6046 1069.08 512.814
239 0 66.0263 12.8737 850 78.7894 1068.96 511.766
240 0 71.1106 13.0923 931 76.8593 1069.07 511.676
241 0 72.055 12.5598 905 78.0939 1068.9 511.082
242 0 72.0244 13.3149 959 78.0688 1069.41 508.63
243 0 76.0506 13.399 1019 78.2247 1069.48 507.775
244 0 78.0864 13.1905 1030 79.4233 1069.05 506.746
245 0 81.0655 13.3596 1083 80.0665 1068.38 505.476
246 0 84.0909 13.3903 1126 81.3508 1068.55 503.583
247 0 86.1378 13.3043 1146 81.9956 1068.17 503.424
248 0 89.0553 13.4635 1199 81.357 1068.55 502.972
249 0 90.079 13.3327 1201 82.3306 1068.53 501.577
250 0 93.0757 13.4944 1256 82.5613 1069.13 499.906
251 0 93.1271 12.0695 1124 88.5311 1069.99 499.295
252 0 99.1203 12.8026 1269 85.2577 1069.88 498.54
253 1 52.0109 10.8054 562 88.3666 1069.74 520.206
254 0 54.0418 10.6584 576 88.3177 1069.29 520.226
255 0 57.0599 11.4266 652 85.8068 1069.88 518.373
256 0 57.0768 10.8801 621 86.963 1069.54 515.77
257 0 60.0853 11.5503 694 84.6715 1069.55 514.277
258 0 64.0292 12.6036 807 82.1264 1069.28 513.691
259 0 64.0545 11.9429 765 85.2118 1069.33 514.648
260 0 67.0418 12.1118 812 83.6995 1069.42 513.438
261 0 66.032 11.6459 769 87.1821 1069.09 512.516
262 0 66.032 11.555 763 142.86 1069.1 512.427
263 0 73.0686 12.2761 897 84.4292 1069.3 511.329
264 0 76.0568 12.6484 962 83.9418 1069.29 509.854
265 0 78.075 12.5136 977 85.8444 1070.26 508.986
266 0 82.1891 13.1769 1083 85.3841 1069.59 507.545
267 0 82.0492 12.5413 1029 88.6511 1069.48 505.499
268 0 86.0824 12.6158 1086 88.8204 1069.1 504.489
269 0 88.146 13.1713 1161 89.2274 1069.43 502.076
270 0 92.1697 12.8459 1184 88.462 1069.5 500.498
271 0 97.1783 13.1408 1277 88.148 1069.48 498.071
272 0 100.207 14.2805 1431 86.6653 1068.97 495.811
273 1 52.1489 11.9849 625 90.3104 1069.44 521.546
274 0 52.1012 12.5717 655 89.8794 1069.25 520.066
275 0 54.1264 12.3784 670 91.7627 1069.84 518.936
276 0 53.0243 11.9756 635 88.3842 1069.51 519.499
277 0 57.0157 12.5229 714 86.3109 1069.43 518.15
278 0 59.0467 12.6002 744 84.5336 1069.92 517.808
279 0 60.0742 12.8341 771 84.7873 1069.39 517.352
280 0 62.1094 12.9771 806 85.1017 1070.18 515.799
281 0 64.0648 12.6747 812 80.1355 1069.69 514.94
282 0 67.0794 12.4628 836 79.9414 1070.36 512.33
283 0 69.0662 12.698 877 80.6351 1069.25 511.42
284 0 69.0662 12.7414 880 142.66 1068.22 511.445
285 0 74.165 12.6744 940 90.7213 1069.44 508.344
286 0 76.0791 12.487 950 89.8316 1069.65 507.46
287 0 77.0986 12.6591 976 90.5891 1069.78 507.281
288 0 80.0729 12.3512 989 90.641 1068.56 505.355
289 0 83.0989 11.9376 992 90.1361 1069 502.088
290 0 85.0702 11.7903 1003 84.9023 1068.78 498.89
291 0 89.0228 12.2104 1087 82.3266 1069.26 497.903
292 0 91.0971 12.1958 1111 83.946 1068.18 498.164
293 0 93.1698 11.3771 1060 86.2783 1069.95 497.779
294 0 97.1974 12.7267 1237 83.3452 1069.52 495.091
295 0 99.2475 11.698 1161 85.7976 1069.48 493.212
296 1 51.0434 9.89354 505 79.9148 1070.6 520.941
297 0 53.0788 10.475 556 79.3705 1070.33 518.612
298 0 55.0564 10.462 576 77.4097 1070.28 518.524
299 0 57.0242 11.2934 644 81.0575 1070.11 516.857
300 0 57.0307 11.2922 644 79.9627 1069.73 515.262
301 0 59.0556 11.6331 687 81.6143 1067.9 516.153
302 0 59.0333 11.502 679 82.025 1067.19 515.203
303 0 61.0548 11.6289 710 80.5437 1067.55 515.237
304 0 63.1401 12.1159 765 78.9412 1068.67 515.613
305 0 66.1059 12.1926 806 77.0112 1068.13 513.161
306 0 67.0302 11.2039 751 78.3142 1068.47 512.746
307 0 69.0841 11.7683 813 76.8216 1068.15 513.857
308 0 69.0559 11.44 790 78.7354 1068.08 512.023
309 0 72.0518 11.006 793 79.8701 1068.12 510.053
310 0 74.0947 10.4461 774 80.2222 1067.38 509.928
311 0 79.0927 11.1641 883 78.6784 1067.83 509.212
312 0 81.036 10.9087 884 80.1652 1067.77 507.769
313 0 83.0714 11.0507 918 80.5349 1068.09 507.658
314 0 85.0696 11.2966 961 81.0531 1067.69 505.463
315 0 88.0781 11.1833 985 81.4264 1068.16 503.375
316 0 90.1607 11.18 1008 82.0179 1067.82 500.195
317 1 47.0955 10.2345 482 81.8672 1068.03 521.915
318 0 50.0725 10.5048 526 81.0114 1068.13 523.384
319 0 51.1721 10.9435 560 82.5643 1068.14 522.929
320 0 52.0839 11.0975 578 79.2284 1068.09 520.069
321 0 54.0882 11.1854 605 80.6016 1068.9 519.888
322 0 56.0151 11.4255 640 81.9328 1069.98 520.102
323 0 56.0217 11.5134 645 82.8884 1069.9 519.281
324 0 57.0208 11.9606 682 81.544 1069.72 517.496
325 0 56.0428 11.2593 631 79.0428 1067.72 520.249
326 0 58.0314 10.7356 623 80.5666 1067.95 520.709
327 0 59.1026 11.2347 664 79.5648 1068.07 520.221
328 0 61.0163 10.8496 662 79.9366 1067.54 519.814
329 0 64.1235 11.7118 751 78.0106 1067.76 518.118
330 0 65.04 10.8856 708 80.7655 1066.72 517.014
331 0 68.1735 11.7494 801 80.6355 1067.72 516.104
332 0 70.1277 11.6787 819 80.9377 1067.74 513.863
333 0 72.156 11.3227 817 82.4798 1067.67 513.118
334 0 74.2226 11.4655 851 83.5276 1067.09 511.364
335 0 76.1988 12.1393 925 83.2768 1067.39 510.534
336 0 79.256 12.264 972 83.4444 1067.79 508.79
337 0 82.3223 12.4025 1021 83.2928 1067.57 506.836
338 0 83.2614 11.3378 944 86.1748 1067.19 506.485
339 0 85.2594 11.5178 982 86.0102 1066.89 502.422
340 0 88.0549 11.8222 1041 83.7214 1065.74 500.162
341 0 92.1038 12.4859 1150 83.7252 1065.76 500.037
342 0 95.2075 11.7638 1120 85.5652 1066.4 499.251
343 1 52.1325 10.7994 563 86.8099 1066.76 521.259
344 0 52.2165 10.9927 574 90.6882 1066.3 521.141
345 0 54.1723 11.6296 630 89.6 1066.21 520.835
346 0 51.1264 10.7577 550 88.3 1065.93 516.375
347 0 58.0474 11.8007 685 91.7504 1066.25 518.92
348 0 60.1789 11.4824 691 92.9653 1065.42 517.517
349 0 63.1379 11.6729 737 92.4858 1065.75 517.045
350 0 63.1525 11.971 756 92.0106 1065.98 515.901
351 0 69.1497 12.4223 859 89.2864 1066.04 515.17
352 0 70.1065 12.7948 897 88.709 1065.58 514.782
353 0 73.0853 12.6291 923 90.4236 1066.02 514.31
354 0 72.1621 11.8899 858 94.1888 1064.89 511.959
355 0 75.1532 12.1086 910 93.7538 1065.83 510.819
356 0 78.1315 13.0933 1023 91.5816 1065.23 511.638
357 0 80.1806 13.4696 1080 91.2898 1066.09 509.099
358 0 82.0828 12.7676 1048 93.4695 1066.06 508.601
359 0 84.1245 12.7549 1073 95.2656 1065.97 508.828
360 0 84.1245 12.7787 1075 169.897 1066.97 508.818
361 0 87.1525 13.1494 1146 97.2757 1067.16 505.731
362 0 90.2433 12.6325 1140 97.7149 1067.03 503.54
363 0 93.1637 12.9235 1204 96.799 1066.3 501.747
364 0 96.1572 13.6339 1311 95.9504 1067.39 501.062
365 0 99.2117 13.2948 1319 96.1039 1067.4 500.512
366 0 102.123 13.5424 1383 97.384 1067.39 500.311
367 0 105.167 13.4548 1415 97.482 1066.72 499.432
368 0 108.166 13.8028 1493 95.5733 1065.92 496.147
369 0 111.17 13.4389 1494 95.0147 1065.42 494.948
370 1 61.0626 11.349 693 95.2366 1065.08 517.67
371 0 63.048 10.8806 686 96.5131 1065.55 517.784
372 0 63.0562 12.4175 783 93.9272 1065.49 515.639
373 0 66.23 12.6227 836 82.0825 1067.82 516.159
374 0 66.1508 12.7285 842 81.7755 1067.18 515.451
375 0 70.1126 12.3516 866 80.9376 1067.52 514.61
376 0 71.1322 12.765 908 80.9339 1067.2 513.797
377 0 73.1606 12.5204 916 80.9727 1067.03 513.109
378 0 75.086 12.3325 926 81.8682 1068.03 511.423
379 0 80.1253 12.2932 985 80.9381 1067.14 510.259
380 0 82.124 12.7734 1049 81.1678 1067.68 507.471
381 0 84.0796 12.726 1070 83.1262 1067.14 505.735
382 0 88.1281 12.7542 1124 83.234 1067.53 504.756
383 0 91.1099 12.6989 1157 83.7571 1067.94 503.774
384 0 94.0674 12.5548 1181 84.7671 1067.05 500.895
385 0 97.1067 12.6047 1224 83.9371 1066.92 498.871
386 1 52.0948 11.0184 574 86.7474 1066.79 520.772
387 0 54.0779 11.1136 601 85.807 1066.22 519.632
388 0 55.0848 11.6003 639 84.0188 1067.37 519.61
389 0 58.1561 12.3633 719 86.6481 1069.46 518.48
390 0 58.2049 11.3736 662 93.6767 1069.26 515.869
391 0 60.0607 11.7215 704 92.2869 1068.4 516.341
392 0 63.081 11.6517 735 92.581 1068.29 514.52
393 0 63.1651 11.7312 741 91.0391 1068.79 513.557
394 0 66.2225 11.7785 780 90.5013 1069.1 512.083
395 0 67.2187 12.0353 809 90.1941 1069.14 510.806
396 0 69.1548 12.19 843 90.3606 1069.02 510.088
397 0 70.1984 12.1228 851 90.0435 1068.73 509.555
398 0 74.2358 12.366 918 88.9978 1069.07 510.034
399 0 77.2669 12.6704 979 89.4116 1069.19 507.837
400 0 77.2362 12.2352 945 90.9926 1069.18 505.617
401 0 81.1698 11.7162 951 91.4679 1069.33 503.482
402 0 84.1938 12.685 1068 89.4953 1068.97 502.114
403 0 86.1389 12.1084 1043 91.3931 1069.1 502.125
404 1 44.035 9.99204 440 86.3727 1070.1 523.289
405 0 47.0492 10.6059 499 80.8537 1070.6 524.126
406 0 47.0613 10.9219 514 83.463 1069.36 523.37
407 0 50.0435 11.6299 582 80.201 1069.45 522.258
408 0 52.0857 11.3659 592 89.8345 1069.1 521.843
409 0 54.1234 11.5107 623 90.2536 1069.98 521.083
410 0 54.0417 12.3608 668 89.0494 1069.86 519.466
411 0 57.0516 12.0067 685 88.9956 1069.93 519.41
412 0 59.049 11.6175 686 87.6676 1069.42 518.669
413 0 59.0617 11.4965 679 90.1311 1069.83 515.374
414 0 61.053 12.2189 746 87.5161 1069.1 517.137
415 0 62.0505 11.4262 709 89.6841 1068.95 516.918
416 0 64.0176 11.8561 759 88.7154 1068.84 515.735
417 0 65.0543 12.1744 792 90.0581 1068.85 513.537
418 0 67.0964 11.9529 802 90.3067 1069.72 512.939
419 0 69.0704 12.2629 847 90.8878 1069.09 512.829
420 0 72.1263 12.4504 898 92.7873 1068.86 511.102
421 0 72.1582 12.1538 877 94.8107 1067.74 510.404
422 0 74.1127 12.0627 894 95.7248 1068.35 509.585
423 0 77.1803 12.1534 938 96.0181 1068.62 507.962
424 0 80.0416 12.506 1001 93.019 1068.5 507.119
425 0 82.0943 11.9497 981 94.5301 1068.5 504.804
426 0 83.0353 12.2117 1014 94.4813 1068.07 505.27
427 0 83.0372 12.2475 1017 142.398 1068.07 505.198
428 0 89.0666 12.3054 1096 92.5803 1068.38 501.902
429 0 90.0931 12.4427 1121 91.9839 1068.37 501.35
430 0 92.1012 12.6491 1165 90.8103 1067.78 499.575
431 0 97.1654 13.1322 1276 91.9773 1067.54 497.015
432 0 100.183 12.6169 1264 92.7872 1067.09 495.893
433 0 102.26 12.6834 1297 93.2236 1067.43 495.008
434 0 106.244 13.0361 1385 91.2246 1067.34 492.274
435 0 109.255 12.9696 1417 90.7883 1067.45 493.45
436 0 112.264 13.3258 1496 87.8469 1068.01 490.604
437 0 117.27 13.405 1572 85.9892 1067.23 488.218
438 1 57.207 10.7854 617 85.7812 1067.16 516.331
439 0 60.0588 11.8551 712 75.7683 1066.5 516.355
440 0 64.0728 11.7523 753 81.9615 1068.37 514.879
441 0 66.0216 12.405 819 78.221 1066.58 513.789
442 0 68.0318 12.2149 831 77.6679 1067.42 514.18
443 0 69.0845 12.9841 897 79.3133 1066.08 512.215
444 0 72.0752 13.2223 953 79.0451 1066.45 512.024
445 0 73.059 12.8937 942 80.8323 1066.26 509.387
446 0 76.0704 12.9617 986 81.2556 1067 509.342
447 0 79.0668 12.9258 1022 81.1018 1067.7 507.245
448 0 80.0461 12.6927 1016 83.0974 1067.39 506.4
449 0 84.0967 12.6997 1068 82.9944 1067.16 506.006
450 0 86.0701 13.1637 1133 82.1809 1066.8 505.229
451 0 87.0552 12.9803 1130 82.9168 1067.25 502.115
452 0 91.0991 13.6884 1247 81.3095 1067.12 500.951
453 0 94.1216 13.5144 1272 80.0959 1067.07 500.27
454 0 96.0906 12.9669 1246 80.6798 1067.27 497.905
455 0 98.0826 12.8463 1260 81.0294 1066.92 497.15
456 0 103.129 12.5764 1297 75.7726 1067.94 497.578
457 0 106.239 12.8108 1361 78.5996 1068.34 494.233
458 0 109.219 12.3605 1350 79.8837 1067.72 491.736
459 0 114.266 11.9458 1365 86.5648 1067.53 488.134
460 1 61.0517 10.5976 647 88.9011 1068.04 514.815
461 0 61.0517 10.6631 651 155.192 1068.06 514.748
462 0 64.1076 11.3559 728 88.0508 1068.11 509.885
463 0 64.1076 11.3559 728 152.562 1069.11 509.885
464 0 70.0408 12.0073 841 89.5172 1067.11 509.119
465 0 74.1602 12.3651 917 88.3882 1066.79 508.562
466 0 75.0534 12.138 911 90.3732 1066.9 507.257
467 0 77.1307 12.5372 967 90.9121 1066.54 505.432
468 0 80.0787 12.5626 1006 90.663 1065.95 504.624
469 0 84.085 12.2019 1026 93.885 1065.94 501.723
470 0 87.153 13.1722 1148 91.6045 1066.51 501.737
471 0 88.1229 12.596 1110 94.8063 1066.57 499.629
472 0 91.2593 12.2946 1122 96.303 1065.8 497.554
473 0 93.1637 12.5478 1169 97.5116 1066.58 498.217
474 0 98.194 12.9947 1276 94.7312 1066.55 496.05
475 0 100.175 12.9573 1298 97.5324 1066.85 492.539
476 0 104.403 12.9785 1355 94.0354 1066.19 492.548
477 0 106.168 12.4896 1326 91.7873 1065.95 490.856
478 0 110.192 13.0953 1443 88.9979 1065.93 488.822
479 0 112.155 12.5005 1402 90.791 1066.28 486.471
480 0 115.285 13.0893 1509 89.4215 1066.7 485.705
481 0 116.105 12.6437 1468 90.4448 1065.99 482.153
482 1 63.1228 10.6301 671 82.2459 1067.32 513.379
483 0 62.1229 9.99631 621 76.1449 1066.78 510.161
484 0 65.1874 12.0575 786 83.8677 1067.29 510.935
485 0 72.3122 11.8099 854 90.7658 1067.65 510.33
486 0 74.2234 12.2468 909 90.7052 1066.85 511.237
487 0 74.3287 12.0411 895 93.2994 1066.16 509.202
488 0 77.223 11.8229 913 94.759 1066.94 506.588
489 0 79.2021 12.1966 966 95.0414 1067.15 506.993
490 0 80.1284 11.8809 952 95.7227 1067.1 506.078
491 0 84.186 11.7359 988 95.8188 1066.46 505.47
492 0 85.2 11.784 1004 96.6524 1066.8 503.595
493 0 88.1995 12.347 1089 95.1873 1067.39 504.038
494 0 90.1525 12.0463 1086 95.8794 1068.06 503.32
495 0 93.1868 12.3837 1154 93.7071 1067.06 501.477
496 0 95.2001 12.437 1184 92.326 1067.06 499.804
497 0 98.2118 12.4527 1223 92.6173 1066.51 498.132
498 0 97.1842 12.5329 1218 87.0944 1066.95 497.076
499 0 102.199 11.5461 1180 92.9517 1066.93 496.259
500 0 104.137 13.079 1362 90.7232 1066.98 493.496
501 0 106.185 11.7907 1252 95.1797 1066.27 494.066
502 0 109.143 12.3691 1350 94.3007 1066.57 492.644
503 0 113.277 12.8888 1460 93.8301 1065.9 491.527
504 0 116.137 12.3216 1431 96.4549 1067.29 490.803
505 0 118.141 12.4766 1474 94.962 1066.94 488.216
506 0 121.142 12.5638 1522 95.2293 1067.07 487.342
507 0 125.106 12.2456 1532 95.9817 1066.42 485.994
508 0 127.153 12.0406 1531 97.0601 1066.62 484.521
509 0 132.135 13.0851 1729 95.1573 1066.24 481.564
510 0 135.17 12.5768 1700 97.7753 1066.46 480.108
511 0 139.144 13.1806 1834 97.5698 1066.32 478.268
512 0 144.135 12.9254 1863 96.8309 1066.66 478.407
513 0 148.172 13.3898 1984 96.9869 1066.02 475.478
514 0 153.307 13.5089 2071 96.7745 1065.96 472.926
515 0 156.125 12.6181 1970 99.6386 1066.26 470.017
516 0 160.189 12.7412 2041 99.6497 1066.36 468.416
517 0 166.217 13.5726 2256 97.1206 1065.67 469.43
518 0 169.177 12.2357 2070 99.5551 1065.33 463.213
519 0 176.126 12.7409 2244 97.8102 1065.27 459.974
520 0 181.201 12.3178 2232 97.7267 1065.22 457.691
521 0 189.23 13.2061 2499 95.0996 1064.59 451.789
522 0 193.192 12.8835 2489 95.6324 1064.34 447.367
523 1 88.1146 11.9844 1056 93.5464 1065.32 500.063
524 0 90.0878 12.8652 1159 92.1286 1064.99 497.862
525 0 90.0899 12.1656 1096 94.8777 1066.6 498.397
526 0 95.0861 12.6938 1207 92.4673 1065.85 501.436
527 0 98.1599 12.5815 1235 93.2227 1065.54 498.09
528 0 98.1281 12.5652 1233 94.9343 1066.02 496.802
529 0 101.161 12.1688 1231 96.3558 1066.05 495.905
530 0 103.129 12.4601 1285 95.1751 1066.22 492.091
531 0 105.102 11.8932 1250 95.8824 1065.59 489.75
532 0 106.137 11.617 1233 96.8792 1065.29 483.806
533 0 112.138 12.3598 1386 94.5115 1065.81 481.199
534 0 114.149 12.2822 1402 94.2154 1065.27 478.486
535 0 117.097 11.8022 1382 95.8567 1065.11 475.538
536 0 123.186 12.1199 1493 94.4581 1064.85 472.514
537 1 50.0676 8.98785 450 81.4267 1065.82 510.953
538 0 57.1981 9.86047 564 76.1596 1065.51 512.089
539 0 62.0501 11.6197 721 75.0097 1066.51 518.211
540 0 63.052 10.864 685 77.1007 1066.41 517.507
541 0 65.0936 10.7845 702 77.7279 1066.12 516.078
542 0 66.088 11.288 746 77.0442 1066.65 514.867
543 0 69.0692 11.6984 808 76.7785 1065.99 514.024
544 0 71.045 11.2323 798 77.1792 1065.35 513.832
545 0 71.0571 11.2023 796 77.2789 1065.15 512.67
546 0 71.0402 10.9375 777 80.9459 1063.96 511.517
547 0 77.0859 10.9748 846 78.7825 1063.64 509.348
548 0 80.107 10.9229 875 78.1691 1064.42 508.955
549 0 83.0919 11.9747 995 77.0382 1063.66 509.481
550 0 83.1306 11.7526 977 80.5415 1064.52 508.655
551 0 87.159 12.5403 1093 79.8454 1064.49 506.19
552 0 90.1454 11.903 1073 81.863 1065.1 504.786
553 0 93.1731 12.5143 1166 81.6938 1064.58 502.438
554 0 95.1128 12.7848 1216 80.6949 1064.94 503.52
555 0 99.0868 12.9482 1283 82.3663 1064.02 503.261
556 0 100.079 12.5801 1259 84.3503 1064.49 500.905
557 0 106.076 12.821 1360 82.6287 1064.39 498.177
558 0 107.083 12.7939 1370 84.9073 1064.27 497.151
559 0 111.223 12.5244 1393 87.0739 1064.49 493.646
560 0 115.119 12.5088 1440 87.5729 1064.48 492.105
561 0 117.067 11.8394 1386 92.0281 1064.66 490.81
562 0 120.176 11.9575 1437 89.485 1065.96 484.485
563 0 125.229 11.7944 1477 90.9309 1066.04 483.1
564 0 130.246 12.4073 1616 89.5025 1065.61 478.607
565 1 67.2654 10.5998 713 80.0828 1065.73 511.839
566 0 70.1832 10.5011 737 79.9702 1065.78 511.575
567 0 70.0575 11.5334 808 76.5124 1065.49 515.001
568 0 73.1296 11.801 863 74.3453 1066.35 512.335
569 0 75.1587 11.7086 880 75.2795 1066.38 512.516
570 0 81.1806 11.6161 943 83.7847 1064.84 508.866
571 0 83.0267 10.7676 894 84.5682 1064.73 508.938
572 0 86.155 12.373 1066 85.2992 1065.19 507.563
573 0 89.2613 11.5952 1035 85.7691 1065.06 505.777
574 0 91.3034 11.5549 1055 88.1232 1064.9 504.492
575 0 91.2256 11.8826 1084 88.8644 1064.25 502.615
576 0 97.3441 12.1425 1182 86.67 1064.12 501.959
577 0 100.37 12.3044 1235 85.8146 1064.06 500.458
578 0 100.402 11.7627 1181 89.4589 1064.76 499.616
579 0 106.418 12.357 1315 87.7536 1064.53 496.789
580 0 108.252 10.4478 1131 77.687 1064.47 493.858
581 0 110.196 10.4995 1157 77.4788 1063.95 493.304
582 0 115.133 10.0405 1156 78.9766 1064.48 491.879
583 1 61.1119 10.1126 618 67.9984 1065.83 520.524
584 0 62.1012 9.79046 608 67.597 1065.83 519.11
585 0 64.1162 10.5434 676 69.9201 1065.25 517.18
586 0 67.1164 11.3683 763 68.3984 1065.82 517.25
587 0 70.1816 10.9858 771 68.7471 1065.86 515.864
588 0 69.1629 11.6247 804 68.24 1065.13 514.983
589 0 73.2436 11.7416 860 68.4977 1065.45 514.763
590 0 76.1243 11.5994 883 68.9524 1065.55 512.223
591 0 77.1155 11.3855 878 70.2244 1065.59 512.181
592 0 81.1615 12.0501 978 68.9683 1065.3 510.504
593 0 82.1773 11.2196 922 71.1464 1064.77 508.762
594 0 89.1827 12.2333 1091 79.2273 1063.63 506.824
595 0 91.2233 11.9268 1088 80.9632 1064.96 504.583
596 0 94.3319 11.2369 1060 80.4953 1064.64 503.486
597 0 95.1855 12.2288 1164 79.055 1064.44 503.431
598 0 98.175 11.5202 1131 80.2652 1064.62 500.924
599 1 51.0641 9.41954 481 76.9356 1065.94 526.214
600 0 51.0487 10.1276 517 73.7737 1065.52 525.627
601 0 52.0297 10.2441 533 72.2289 1065.45 523.55
602 0 55.1931 10.9796 606 72.1914 1064 518.488
603 0 57.0321 10.8185 617 72.6288 1064.68 521.246
604 0 58.0738 11.5887 673 71.3923 1065.3 520.095
605 0 58.0811 11.1052 645 75.1938 1065.58 522.47
606 0 58.1155 10.1522 590 75.1305 1064.94 521.542
607 0 60.107 10.9471 658 75.7979 1065.59 520.851
608 0 65.0782 10.4029 677 73.6647 1064.69 517.51
609 0 65.1009 11.4284 744 76.3266 1065.72 517.567
610 0 65.1009 11.3516 739 136.945 1066.7 517.444
611 0 69.0746 11.075 765 78.4065 1064.86 517.294
612 0 72.1339 11.7143 845 77.8154 1064.55 515.974
613 0 73.1716 11.2065 820 78.8793 1064.63 515.077
614 0 77.1426 11.7186 904 78.0288 1064.94 513.988
615 0 80.2278 11.9285 957 78.3793 1064.51 512.495
616 0 81.2599 11.8263 961 78.9823 1064.74 510.403
617 0 85.1751 11.9519 1018 79.3261 1063.8 508.526
618 0 86.1421 11.7016 1008 81.0327 1064.81 505.184
619 0 90.1453 11.7366 1058 77.2448 1065.81 506.164
620 0 92.17 12.9218 1191 77.0302 1064.82 504.232
621 0 94.2582 11.7231 1105 80.8778 1064.28 501.611
622 0 98.3575 12.3122 1211 78.7242 1064.93 500.404
623 0 102.174 11.9209 1218 80.8916 1064.45 498.002
624 1 56.0666 10.6837 599 80.5993 1065.12 523.91
625 0 55.1126 10.7235 591 83.357 1065.42 521.262
626 0 59.1939 11.5215 682 82.088 1064.62 518.953
627 0 60.1629 11.8013 710 82.693 1064.63 518.532
628 0 61.1072 12.6008 770 82.813 1064.44 517.561
629 0 63.0867 12.5542 792 87.0391 1063.48 515.335
630 0 65.11 11.7801 767 91.2816 1065.43 515.318
631 0 69.132 12.3243 852 89.6115 1065.67 514.738
632 0 71.2332 12.4942 890 87.8236 1065.41 512.418
633 0 73.2963 12.5382 919 88.0566 1065.4 511.782
634 0 76.2022 12.2437 933 88.2701 1066.1 510.549
635 0 79.2045 12.676 1004 89.9781 1066.49 509.143
636 0 80.2076 12.7045 1019 90.0962 1066.1 507.89
637 0 83.1906 12.8019 1065 89.4385 1066.43 506.192
638 0 86.2376 13.0686 1127 87.9051 1066 507.305
639 0 90.0689 12.9457 1166 86.5094 1066.02 504.34
640 0 91.0444 12.5982 1147 87.0453 1065.49 502.33
641 0 97.0274 12.5635 1219 86.534 1066.23 501.192
642 0 99.0506 12.3573 1224 89.2181 1065.58 499.694
643 1 52.0688 10.6014 552 85.6159 1067.71 522.676
644 0 55.0692 11.4946 633 84.0948 1065.32 522.554
645 0 57.0106 12.5064 713 82.1753 1064.45 520.163
646 0 56.0126 11.8723 665 83.7008 1064.53 519.522
647 0 58.0181 12.3065 714 83.3025 1064.8 518.527
648 0 62.0366 12.3959 769 81.0364 1064.78 518.224
649 0 63.0414 11.5162 726 83.0138 1064.83 516.066
650 0 64.0488 11.6786 748 81.8102 1064.56 515.555
651 0 66.0775 11.8497 783 81.8825 1064.14 514.921
652 0 69.0577 11.7293 810 81.7531 1065.08 513.142
653 0 71.074 11.9312 848 80.763 1064.27 510.634
654 0 73.0407 11.9249 871 81.8691 1065.03 508.961
655 0 74.1103 11.159 827 83.5671 1065.22 510.179
656 0 78.0914 11.7811 920 81.4272 1064.92 507.726
657 0 80.0643 12.1028 969 80.7761 1064.67 505.881
658 0 81.1042 11.6393 944 82.3686 1065.78 505.807
659 0 85.1659 11.777 1003 82.336 1067 502.254
660 0 85.177 11.3881 970 84.0536 1067.24 501.518
661 0 88.1211 11.7679 1037 84.2382 1066.58 499.682
662 0 92.2177 11.7656 1085 83.7419 1067.08 499.194
663 0 96.2322 12.5322 1206 82.3997 1066.62 497.222
664 0 96.2933 11.7454 1131 85.1813 1067.01 495.445
665 0 99.1975 11.714 1162 85.7504 1067.01 494.353
666 0 102.311 12.3839 1267 83.8208 1067.18 492.904
667 0 108.26 12.045 1304 83.4402 1066.99 492.281
668 1 56.0308 10.5656 592 81.6402 1065.41 517.488
669 0 59.1252 11.4672 678 79.9852 1065.49 516.481
670 0 60.1354 11.4741 690 77.658 1065.68 516.314
671 0 61.1142 11.9285 729 79.8793 1065.78 514.561
672 0 63.0765 12.0013 757 74.5033 1065.71 514.728
673 0 66.0358 11.4938 759 75.6838 1064.75 510.733
674 0 68.0358 11.9055 810 75.1691 1065.64 512.121
675 0 69.0461 11.8327 817 75.9351 1064.81 510.485
676 0 74.0201 12.9694 960 72.2792 1065.23 510.538
677 0 77.0407 13.4864 1039 70.3224 1065.5 509.625
678 0 78.074 12.3857 967 74.5677 1065.69 506.861
679 0 81.1535 13.1356 1066 74.137 1065.54 507.073
680 0 83.0688 12.7364 1058 75.9811 1065.49 505.315
681 0 86.1204 13.6088 1172 74.6809 1065.55 505.177
682 0 89.1133 13.9485 1243 75.687 1065.34 503.138
683 0 88.1077 13.2679 1169 80.0231 1066.05 501.755
684 0 93.1668 13.8891 1294 78.1909 1066.26 502.029
685 0 96.1369 13.668 1314 78.812 1066.62 499.151
686 0 100.28 13.9011 1394 76.6865 1066.54 498.539
687 0 103.124 14.2353 1468 77.7166 1066.15 497.607
688 0 106.165 13.4131 1424 79.0197 1066.2 496.522
689 0 110.171 14.6046 1609 77.0907 1066.59 494.978
690 0 111.174 13.5194 1503 82.147 1066.31 493.997
691 0 115.241 13.7886 1589 81.4569 1065.69 492.727
692 0 119.152 14.0409 1673 82.1148 1066.51 493.414
693 0 122.227 13.5322 1654 83.7848 1065.95 488.114
694 0 120.159 12.3171 1480 77.7622 1067.74 482.322
695 1 62.0454 10.1377 629 69.6709 1066.64 513.728
696 0 64.0522 9.9294 636 71.1336 1066.88 511.484
697 0 65.0327 9.05699 589 73.2547 1066.17 513.002
698 0 71.0371 11.8107 839 77.4696 1065.1 516.552
699 0 73.1101 11.3117 827 75.4655 1065.41 516.403
700 0 75.1233 11.0751 832 77.9555 1067.35 514.516
701 0 77.073 10.6652 822 81.1545 1068.13 515.619
702 0 79.0849 11.0767 876 79.3071 1067.66 514.935
703 0 83.1433 11.5824 963 79.3583 1067.26 510.781
704 0 85.0986 11.281 960 79.374 1067.47 511.426
705 0 85.0858 10.8009 919 81.2122 1067.69 511.332
706 0 85.0858 10.8126 920 153.642 1067.7 511.476
707 0 93.2135 11.833 1103 81.893 1067.06 506.864
708 0 93.1043 10.7406 1000 86.536 1066.7 507.187
709 0 98.1095 12.1089 1188 80.6018 1065.93 505.458
710 0 99.2083 10.9063 1082 82.025 1065.95 504.709
711 1 54.0215 10.9771 593 84.5312 1066.79 524.772
712 0 57.0489 10.8153 617 85.3112 1066.83 524.146
713 0 58.0824 11.6903 679 82.2077 1066.27 522.809
714 0 59.1401 11.7518 695 82.6921 1066.35 523.036
715 0 62.0989 11.8843 738 81.149 1066.99 521.932
716 0 64.0796 12.0163 770 84.4623 1067.43 520.894
717 0 61.121 10.3729 634 77.5189 1066.13 524.304
718 0 63.0928 10.6668 673 79.3002 1065.81 522.952
719 0 66.1502 11.3227 749 78.9012 1065.84 521.154
720 0 68.1051 11.4676 781 79.2164 1066.12 521.606
721 0 67.1948 9.86684 663 80.2247 1066.15 519.373
722 0 70.1545 10.6337 746 78.4343 1066.27 518.954
723 0 73.132 10.3785 759 80.7694 1066.3 517.532
724 0 75.0968 11.2921 848 79.4092 1066.43 516.269
725 0 77.0884 11.2209 865 80.4058 1066.38 515.502
726 0 79.1134 11.237 889 82.027 1065.74 514.024
727 0 82.0959 10.9019 895 83.1475 1065.35 512.758
728 0 85.0967 11.1403 948 86.3766 1065.34 510.377
729 0 85.085 11.036 939 88.8168 1064.8 510.207
730 0 88.1498 10.8565 957 89.4932 1065.28 507.894
731 0 93.1686 11.1733 1041 90.5476 1064.66 505.869
732 0 96.1157 11.663 1121 89.5549 1065.44 504.643
733 0 98.1515 11.6351 1142 92.7207 1065.43 502.65
734 1 51.0441 9.81504 501 88.2415 1067.57 528.351
735 0 54.0897 10.5011 568 84.6215 1067.52 528.007
736 0 55.1577 11.0048 607 85.6952 1066.95 524.521
737 0 56.1836 11.4268 642 85.4377 1066.69 522.288
738 0 56.0388 10.118 567 81.1464 1065.98 519.261
739 0 57.0218 12.5917 718 94.9875 1064.71 522.319
740 0 62.0826 13.2243 821 93.3203 1065.01 521.157
741 0 63.0566 12.8932 813 97.059 1064.72 519.753
742 0 66.0533 13.3377 881 94.7117 1065.14 519.109
743 0 67.0285 13.5763 910 95.1352 1064.13 518.702
744 0 68.095 13.9071 947 95.0169 1064.05 517.636
745 0 70.0284 13.2803 930 97.7559 1064.4 517.318
746 0 73.0493 13.7168 1002 95.8842 1064.7 515.554
747 0 73.0808 13.3414 975 98.5118 1064.82 513.921
748 0 76.0548 13.3588 1016 99.0502 1064.4 512.502
749 0 78.068 13.9622 1090 96.0055 1064.22 512.601
750 0 79.0888 14.3004 1131 97.6516 1064.54 510.061
751 0 82.0369 14.4203 1183 97.2891 1064.97 510.834
752 0 84.0349 14.2322 1196 98.5485 1064.7 509.196
753 0 86.0545 13.8749 1194 101.099 1064.93 507.6
754 0 90.0802 14.4871 1305 98.482 1064.79 505.661
755 0 91.0698 14.3956 1311 100.87 1064.93 505.857
756 0 93.0618 14.485 1348 100.352 1064.78 503.312
757 1 51.0459 11.1468 569 104.341 1064.71 525.736
758 0 53.1457 12.3999 659 102.351 1065.22 525.144
759 0 53.1499 12.493 664 103.444 1065.18 523.857
760 0 54.0597 12.8377 694 101.082 1065.14 524.007
761 0 55.0361 13.1732 725 87.3076 1065.96 522.759
762 0 56.0471 13.0604 732 89.7992 1065.86 521.326
763 0 60.0287 13.9766 839 86.9928 1065.82 520.766
764 0 62.0771 13.4349 834 87.9101 1065.94 520.462
765 0 63.014 13.4097 845 88.4414 1065.87 519.514
766 0 64.0364 12.977 831 90.7172 1066.14 519.878
767 0 66.0533 12.8078 846 90.8002 1066.46 519.006
768 0 69.0411 13.4123 926 89.7149 1066.08 518.644
769 0 71.0579 13.2568 942 91.7155 1064.94 517.017
770 0 72.0371 13.146 947 93.019 1065.29 514.913
771 0 75.0571 13.1633 988 91.6994 1065.11 513.464
772 0 80.1023 13.5202 1083 98.5282 1065.34 511.512
773 0 81.1064 13.3035 1079 101.623 1065.43 509.396
774 0 82.0888 13.2539 1088 104.369 1065.64 507.442
775 0 88.0965 13.4966 1189 101.242 1065.66 508.207
776 0 89.0876 13.3352 1188 102.354 1065.15 505.753
777 0 93.1553 13.558 1263 99.7997 1065.58 505.604
778 0 93.1385 13.5282 1260 100.796 1065.09 503.014
779 0 98.1076 13.3629 1311 98.1335 1065.58 503.207
780 0 101.06 13.5563 1370 96.6759 1065.64 501.04
781 1 52.0406 11.2797 587 90.5622 1065.53 525
782 0 53.0295 12.3328 654 84.2095 1066.82 521.901
783 0 57.0402 13.0785 746 80.7922 1065.97 519.92
784 0 57.025 12.591 718 80.1643 1066.88 521.824
785 0 58.0577 13.366 776 79.0284 1066.4 519.782
786 0 61.0414 13.6137 831 76.5403 1067.09 519.74
787 0 61.0855 12.4907 763 79.2674 1067.01 519.421
788 0 63.0725 13.0326 822 77.1874 1067.21 517.607
789 0 65.0657 12.4797 812 78.4458 1066.5 517.716
790 0 67.0469 12.7821 857 78.5251 1067.16 515.728
791 0 69.0513 12.9469 894 77.8579 1067.44 514.765
792 0 71.0374 12.9369 919 77.4429 1067.38 514.173
793 0 76.0289 12.3374 938 78.0224 1066.98 512.065
794 0 75.1098 12.7547 958 78.4175 1067.71 510.661
795 0 79.0818 12.5566 993 78.0826 1066.96 508.174
796 0 82.0987 12.4241 1020 78.0088 1067.19 506.887
797 0 85.0626 12.8494 1093 76.656 1067.27 506.152
798 0 86.0941 12.5096 1077 77.2878 1067.53 505.084
799 0 90.051 12.1931 1098 77.979 1067.34 503.691
800 0 90.051 12.1931 1098 117.034 1067.36 503.742
801 1 46.0343 10.3618 477 78.2662 1067.4 526.302
802 0 50.0722 10.3451 518 76.7568 1067.19 524.905
803 0 51.0372 10.992 561 78.8681 1067.05 524.018
804 0 52.0357 11.127 579 76.2349 1066.7 523.964
805 0 55.1211 11.9192 657 75.5023 1066.44 522.826
806 0 56.0206 12.8167 718 76.4206 1066.38 522.696
807 0 58.0974 12.2381 711 74.2011 1066.5 523.201
808 0 60.1073 11.9786 720 75.5069 1066.53 521.289
809 0 63.0601 12.1788 768 76.3555 1065.91 519.453
810 0 64.0822 12.2343 784 74.2449 1065.72 518.052
811 0 65.0737 11.5561 752 75.0027 1065.48 518.759
812 0 69.1259 12.1807 842 71.0914 1065.45 517.384
813 0 72.1244 12.215 881 70.0953 1066.17 515.922
814 0 72.0509 11.589 835 73.2252 1065.71 515.947
815 0 76.0763 11.4885 874 73.9737 1066.09 514.4
816 0 79.0511 12.3211 974 73.3306 1065.52 512.45
817 0 83.1033 12.5867 1046 73.7371 1066.07 512.798
818 1 41.0358 10.5274 432 79.1597 1065.78 532.822
819 0 42.0619 10.7698 453 80.0993 1065.93 532.901
820 0 44.03 10.402 458 71.7424 1066.23 530.299
821 0 45.0167 11.9067 536 75.681 1065.57 529.873
822 0 48.0355 12.1368 583 74.422 1065.95 529.173
823 0 47.0761 12.3205 580 75.9586 1065.36 528.557
824 0 51.0353 12.6383 645 74.569 1066.41 527.974
825 0 54.0483 12.6738 685 75.1226 1065.13 528.317
826 0 54.0472 13.2292 715 74.8881 1065.37 527.846
827 0 55.0393 12.9726 714 77.8964 1064.84 527.321
828 0 58.0191 12.7199 738 77.8496 1064.95 525.934
829 0 61.0112 12.719 776 75.6173 1064.99 524.668
830 0 63.0466 12.7208 802 75.8604 1064.89 524.652
831 0 65.1196 12.9147 841 74.8371 1063.94 522.749
832 0 69.0751 13.4202 927 73.9978 1064.43 521.746
833 0 70.0402 12.9783 909 75.2079 1064.4 521.058
834 0 69.0914 12.2881 849 77.636 1065.06 519.654
835 0 74.0434 12.6953 940 76.6936 1065.4 518.953
836 0 78.089 12.8955 1007 78.1867 1064.83 516.583
837 0 80.0581 12.9156 1034 77.2012 1065 513.14
838 0 81.0901 12.8992 1046 77.0201 1065.15 513.052
839 0 83.1029 12.7553 1060 77.5245 1065.42 510.254
840 0 87.131 13.2444 1154 77.2834 1064.15 509.414
841 0 87.131 13.3133 1160 127.275 1063.17 509.373
842 0 92.107 13.4843 1242 78.38 1063.9 505.548
843 0 96.1144 14.1706 1362 78.243 1064.11 502.379
844 0 97.0995 13.1309 1275 77.2722 1064.52 502.289
845 0 101.2 13.3202 1348 76.5549 1064.22 500.012
846 0 102.174 12.2634 1253 76.0439 1064.66 494.409
847 0 109.192 13.0504 1425 82.8084 1064.02 493.971
848 0 113.214 13.2845 1504 78.9328 1065.14 490.173
849 1 57.0393 9.64248 550 78.4091 1064.56 516.247
850 0 63.0506 11.6256 733 76.6603 1065.26 514.918
851 0 64.0433 12.148 778 75.9692 1064.7 513.154
852 0 67.0998 10.7452 721 71.0818 1064.85 516.929
853 0 67.1189 10.3101 692 69.4769 1064.44 515.337
854 0 69.0493 9.93492 686 72.3105 1065.02 515.198
855 0 73.0704 11.1536 815 71.5264 1064.63 511.995
856 0 76.0884 10.8952 829 70.4343 1064.74 511.647
857 0 77.0623 10.1087 779 71.9641 1064.84 511.077
858 0 81.088 10.8894 883 70.8222 1064.76 509.186
859 0 84.0483 10.7319 902 71.9789 1064.99 506.112
860 0 87.0974 10.6433 927 73.0561 1064.92 504.882
861 0 89.0728 10.0367 894 72.5626 1064.26 503.419
862 0 93.1052 10.4398 972 72.5957 1064.35 501.221
863 0 98.112 10.8549 1065 72.0563 1063.55 500.674
864 1 50.0287 10.434 522 69.6686 1065.12 523.441
865 0 53.0341 10.8421 575 70.4956 1064.25 521.873
866 0 56.1544 11.9314 670 76.209 1065.3 523.622
867 0 55.127 10.6481 587 80.6235 1065.43 523.724
868 0 56.0898 10.9111 612 80.7108 1064.85 523.654
869 0 58.1223 10.4091 605 79.8496 1063.65 521.879
870 0 60.0774 10.9525 658 79.3936 1064.45 520.55
871 0 62.0629 10.6183 659 79.2489 1064.31 519.883
872 0 64.0836 10.97 703 80.1764 1064.02 518.801
873 0 67.031 11.353 761 80.6097 1064.38 518.405
874 0 71.0632 11.3842 809 80.1471 1064.47 517.371
875 0 72.0614 11.6845 842 80.7292 1064.2 517.063
876 0 75.1027 12.0901 908 80.0595 1064.01 517.59
877 0 77.0462 11.85 913 81.1073 1064.79 515.352
878 0 79.0784 12.2031 965 81.4414 1065.08 513.095
879 0 81.1596 12.038 977 83.9601 1065.2 511.968
880 0 84.0527 12.0163 1010 84.7238 1065.32 512.058
881 1 41.0193 10.9461 449 86.4454 1065.43 532.074
882 0 44.0281 11.6744 514 85.0817 1065.4 530.302
883 0 45.017 12.0177 541 83.7745 1065.67 530.055
884 0 48.1772 12.0597 581 84.6368 1065.15 524.905
885 0 49.1208 12.8866 633 84.2591 1065.08 525.101
886 0 49.1208 12.7644 627 134.998 1065.08 525.089
887 0 52.1062 13.722 715 82.3874 1064.97 524.359
888 0 56.1062 13.1715 739 83.2652 1065.45 524.628
889 0 57.0238 13.4681 768 81.0495 1064.83 522.406
890 0 57.0126 12.5586 716 85.3492 1065.01 522.314
891 0 61.0631 13.5106 825 82.8752 1064.98 521.376
892 0 62.0511 13.1504 816 83.8113 1065.1 521.987
893 0 65.1446 13.5852 885 85.3571 1065.17 519.458
894 0 68.0713 12.2665 835 92.8838 1065.34 517.878
895 0 69.1235 12.7887 884 92.2783 1065.19 517.705
896 0 72.1442 12.6829 915 91.4798 1065.44 517.227
897 0 73.1012 12.2296 894 92.906 1064.31 513.295
898 0 77.2568 12.0248 929 91.9333 1064.88 509.82
899 0 80.3387 12.2233 982 90.8707 1065.17 510.742
900 0 80.2356 11.9398 958 91.5491 1065.34 507.936
901 0 83.2488 11.8801 989 92.0162 1065.18 506.088
902 0 89.2813 12.3654 1104 89.942 1065.11 505.2
903 0 92.2287 12.8919 1189 88.6459 1065.53 504.865
904 0 93.2376 11.9265 1112 92.4218 1065.2 501.555
905 1 49.091 11.937 586 89.9369 1065.35 521.775
906 0 48.0668 11.5672 556 91.9478 1065.47 521.664
907 0 52.0638 12.7536 664 91.2922 1066.06 519.175
908 0 53.1033 12.4098 659 94.2564 1065.76 518.171
909 0 55.2718 13.0627 722 97.0485 1066.17 516.474
910 0 58.0485 13.661 793 95.8436 1066.04 515.546
911 0 57.1443 13.6497 780 96.091 1065.99 516.094
912 0 60.0662 14.0678 845 94.413 1066.26 515.951
913 0 62.0663 13.4695 836 95.8517 1066.03 515.63
914 0 65.082 13.7058 892 94.9686 1065.94 515.026
915 0 68.2085 14.7782 1008 88.4028 1065.56 514.256
916 0 69.1554 13.9975 968 91.5083 1065.5 511.935
917 0 70.1021 14.0509 985 91.7472 1065.5 510.852
918 0 74.0861 14.2132 1053 90.9402 1065.82 510.658
919 0 75.0841 13.8245 1038 92.5578 1065.08 509.154
920 0 76.2781 14.0669 1073 92.6841 1064.36 508.587
921 0 79.1898 14.3327 1135 92.0053 1064.78 507.42
922 0 82.1137 13.9197 1143 92.3797 1064.83 506.332
923 0 85.1361 13.8602 1180 93.8119 1064.75 504.015
924 0 88.1248 13.5603 1195 94.3071 1064.65 506.141
925 0 92.1118 13.5922 1252 93.8163 1064.98 505.007
926 0 95.0911 13.7447 1307 92.5425 1064.41 504.083
927 0 98.1957 13.8295 1358 92.3822 1064.68 502.72
928 0 100.115 13.2848 1330 93.5594 1065.23 500.87
929 0 104.04 13.9081 1447 91.3186 1064.33 501.197
930 0 107.083 13.8024 1478 91.0981 1064.24 498.996
931 0 111.108 14.6884 1632 89.0159 1063.75 497.845
932 0 114.082 14.0337 1601 90.7058 1063.7 496.139
933 0 117.119 14.1993 1663 90.2159 1063.91 495.218
934 0 123.14 14.6012 1798 88.3493 1063.48 491.737
935 0 127.111 14.0428 1785 89.3552 1063.84 489.815
936 0 133.073 14.7438 1962 86.3491 1064.1 487.674
937 1 65.0219 12.4112 807 86.575 1063.35 521.685
938 0 67.0142 12.9972 871 92.2491 1062.83 519.918
939 0 70.0496 13.362 936 94.0438 1062.77 518.04
940 0 73.0815 13.6149 995 90.2663 1062.93 516.618
941 0 76.0802 13.7355 1045 90.6938 1062.74 517.253
942 0 77.0516 14.0425 1082 91.5813 1062.29 516.681
943 0 80.1093 14.1057 1130 92.5478 1063.12 513.793
944 0 83.3867 14.2349 1187 93.6538 1063.28 511.69
945 0 86.3281 13.8194 1193 95.2909 1063.9 511.387
946 0 89.2642 13.8129 1233 96.9011 1063.31 508.208
947 0 92.1612 14.7242 1357 95.1444 1063.29 505.901
948 0 94.1503 14.3282 1349 96.7465 1063.05 504.848
949 0 97.2819 14.0725 1369 97.9496 1063.49 502.901
950 0 101.271 14.6044 1479 94.2096 1063.81 500.216
951 0 103.274 14.0307 1449 100.771 1063.41 501.567
952 0 108.321 13.5984 1473 101.988 1063.86 499.385
953 0 108.321 13.5338 1466 138.514 1063.87 499.41
954 1 57.1736 13.9575 798 101.444 1065.29 524.83
955 0 58.1887 13.7999 803 99.8842 1064.99 524.59
956 0 61.1835 13.484 825 91.1552 1065.44 522.651
957 0 64.2404 13.465 865 91.711 1064.81 520.605
958 0 65.1837 13.9145 907 91.9041 1065.7 519.387
959 0 68.1986 13.578 926 91.6156 1065.43 519.226
960 0 68.1444 13.3833 912 93.3849 1065.06 517.544
961 0 70.0805 13.7841 966 93.9928 1065.42 516.154
962 0 74.079 14.2686 1057 91.2261 1064.76 515.548
963 0 75.1445 14.186 1066 91.8161 1065.46 513.65
964 0 78.1665 14.7122 1150 89.3461 1065.4 515.117
965 0 80.1304 14.3017 1146 90.6832 1066.2 512.665
966 0 80.0693 14.6998 1177 90.9354 1066.33 515.333
967 0 84.2641 14.6207 1232 90.0041 1066.14 513.132
968 0 84.0778 13.5113 1136 94.522 1065.3 511.651
969 0 89.2334 14.0979 1258 91.6956 1066.13 510.223
970 0 90.0872 14.2418 1283 91.9556 1065.87 509.66
971 0 93.165 14.2972 1332 91.6081 1065.94 508.367
972 0 96.1008 14.9114 1433 89.529 1065.38 506.382
973 0 96.1171 13.7332 1320 91.2492 1065.18 505.794
974 0 100.076 14.0094 1402 91.117 1065.68 503.534
975 0 104.144 14.2303 1482 90.6903 1066.05 502.165
976 0 107.21 13.702 1469 90.3615 1065.66 501.189
977 0 108.136 12.845 1389 93.9273 1065.49 498.589
978 0 112.121 13.6816 1534 92.4844 1065.43 497.917
979 0 117.247 13.962 1637 101.236 1066.27 493.863
980 0 122.144 13.4759 1646 104.296 1066.07 494.977
981 0 127.216 13.3788 1702 104.856 1066.19 491.64
982 1 66.0641 13.0782 864 112.391 1066.29 518.492
983 0 67.0995 13.8004 926 104.603 1065.93 517.203
984 0 68.0987 14.1559 964 104.621 1065.02 516.165
985 0 69.0909 14.0539 971 106.797 1065.59 514.542
986 0 70.1208 14.2041 996 107.108 1065.38 514.662
987 0 73.0701 14.6161 1068 107.582 1065.36 513.61
988 0 74.1318 14.744 1093 107.457 1065.99 512.647
989 0 77.1016 14.5393 1121 109.728 1065.19 511.81
990 0 78.1024 14.7243 1150 110.903 1065.83 509.123
991 0 79.0699 14.8729 1176 111.874 1065.2 508.791
992 0 83.0648 15.3254 1273 111.299 1065.2 508.958
993 0 82.1254 15.1598 1245 111.798 1065.91 506.534
994 0 85.137 15.3752 1309 114.091 1065.92 506.446
995 0 85.0678 15.329 1304 118.255 1065.38 504.257
996 0 88.0569 15.172 1336 119.386 1065.09 503.156
997 0 93.0774 15.3313 1427 119.278 1065.24 501.694
998 0 95.101 15.594 1483 118.829 1065.93 498.789
999 0 98.168 15.1271 1485 119.361 1065.78 496.4
1000 0 103.168 15.373 1586 116.951 1064.97 494.473
1001 0 105.232 15.1285 1592 118.32 1065.24 492.751
1002 0 108.162 15.412 1667 116.371 1065.19 489.415
1003 0 110.315 15.3107 1689 116.459 1065.67 487.914
1004 0 117.17 15.0977 1769 116.496 1065.97 486.593
1005 1 59.0616 11.4795 678 118.23 1066.69 514.841
1006 0 62.0719 12.7916 794 116.314 1066.46 515.388
1007 0 63.1202 12.1989 770 120.336 1066.35 513.279
1008 0 65.08 13.1684 857 118.56 1066.57 512.571
1009 0 67.0714 12.7923 858 116.9 1065.94 514.409
1010 0 72.0503 13.1436 947 116.146 1066.16 513.807
1011 0 73.0514 13.511 987 116.247 1066.01 513.243
1012 0 75.1002 13.0892 983 117.872 1066.48 511.739
1013 0 78.0705 13.5262 1056 115.704 1065.69 509.606
1014 0 79.0767 13.4679 1065 116.575 1066.01 509.174
1015 0 82.1359 13.4046 1101 117.271 1065.7 506.032
1016 0 84.0911 12.6767 1066 120.373 1065.22 504.073
1017 0 86.1106 12.4491 1072 120.688 1065.64 503.429
1018 0 91.0808 13.0983 1193 117.94 1066.62 501.002
1019 0 93.114 12.823 1194 119.57 1066.48 499.87
1020 0 95.1066 13.038 1240 119.511 1065.89 498.14
1021 0 99.1466 13.0716 1296 118.208 1067.41 496.493
1022 1 40.0073 8.64843 346 95.4075 1068.1 529.665
1023 0 41.0071 9.65686 396 97.6818 1068.44 529.775
1024 0 38.0348 9.5176 362 89.558 1067.15 530.79
1025 0 40.0232 9.29461 372 91.75 1067.63 529.339
1026 0 40.07 9.48341 380 90.2526 1067.13 528.992
1027 0 42.0111 9.78312 411 90.2457 1067.72 528.392
1028 0 43.0213 9.41393 405 91.5136 1067.07 526.894
1029 0 44.0424 9.40004 414 91.9203 1066.91 526.092
1030 0 44.0186 9.42783 415 91.1229 1066.27 527.176
1031 0 47.0246 8.7401 411 90.674 1066.19 526.35
1032 0 47.0499 8.65039 407 91.4963 1066.5 526.649
1033 0 49.0298 8.32146 408 90.5564 1066.47 526.966
1034 0 53.0294 8.91957 473 90.4884 1066.05 523.455
1035 0 52.0302 8.72571 454 92.8722 1065.94 522.852
1036 0 54.0358 8.6054 465 91.9484 1065.73 522.486
1037 0 55.0176 7.92474 436 91.3739 1065.92 522.456
1038 0 57.0431 8.78283 501 90.2056 1066.3 519.996
1039 0 60.1241 8.2496 496 88.748 1066.92 521.22
1040 0 60.1468 7.19906 433 89.5266 1066.66 520.43
1041 0 63.2894 7.0312 445 86.7191 1067.17 519.822
1042 0 60.4013 7.46672 451 87.5122 1067.31 519.865
1043 0 63.2341 7.29037 461 88.0586 1066.82 520.653
1044 0 64.2727 6.65913 428 87.9346 1067.04 521.107
1045 0 67.3596 7.60099 512 87.2676 1067.08 516.768
