time division length width area intensity CMx CMy
0 0 50.0732 12.4618 624 116.662 553.234 516.795
1 0 51.0496 13.4575 687 112.86 552.272 515.169
2 0 54.0915 13.2183 715 110.968 552.843 515.965
3 0 56.0504 13.3987 751 107.928 552.244 513.874
4 0 58.0633 13.6403 792 107.321 552.418 515.3
5 0 59.0742 12.7636 754 107.952 552.487 514.167
6 0 59.06 12.9868 767 107.228 552.842 513.761
7 0 61.0678 12.8873 787 106.013 552.668 513.524
8 0 64.0368 13.2736 850 103.369 552.108 512.968
9 0 67.0672 13.7027 919 101.606 552.722 511.706
10 0 69.0916 13.1854 911 102.606 552.362 510.934
11 0 70.0488 12.5627 880 104.86 552.073 508.651
12 0 72.1501 12.2522 884 103.451 552.683 508.748
13 0 74.1326 12.6395 937 103.229 551.735 507.407
14 0 76.0477 12.2292 930 102.538 551.166 506.053
15 0 80.0716 12.4763 999 100.902 550.923 505.632
16 0 81.1089 12.4647 1011 101.894 551.252 505.87
17 1 45.0375 13.1224 591 103.802 551.135 519.54
18 0 47.0188 12.6971 597 105.176 550.963 520.508
19 0 48.0975 12.9113 621 104.781 551.052 518.148
20 0 49.0334 13.399 657 103.435 551.283 518.135
21 0 52.0163 13.3804 696 101.549 551.437 517.53
22 0 53.0492 13.0445 692 102.143 551.386 516.711
23 0 56.0352 13.1167 735 100.061 551.879 515.529
24 0 56.0352 13.206 740 141.309 551.861 515.704
25 0 59.0769 13.2708 784 99.1276 551.226 514.596
26 0 62.0766 12.984 806 97.6216 550.988 514.963
27 0 64.0548 13.3792 857 96.8716 550.912 513.928
28 0 65.1434 12.8793 839 98.5399 551 514.61
29 0 67.0731 13.6567 916 96.0415 550.523 513.015
30 0 70.0546 13.8606 971 95.655 550.454 512.2
31 0 73.0625 14.2481 1041 93.6148 550.876 511.848
32 0 75.0793 13.7987 1036 94.9904 550.774 509.836
33 0 76.044 12.9004 981 97.9042 550.376 508.212
34 0 79.1117 12.8805 1019 98.1747 550.091 506.834
35 0 84.0976 14.7567 1241 91.8002 549.982 507.745
36 0 87.1169 14.1075 1229 92.5118 550.399 503.823
37 0 92.0895 14.5511 1340 90.2806 549.402 502.275
38 0 94.1258 14.4169 1357 90.1496 549.397 498.373
39 0 97.138 14.0316 1363 88.8635 548.715 497.291
40 0 100.102 14.0656 1408 87.7386 549.78 496.075
41 0 103.071 13.3404 1375 87.5571 549.522 491.442
42 1 50.0439 13.3882 670 83.5567 550.387 520.407
43 0 51.0671 12.7479 651 85.9693 549.802 519.083
44 0 51.0395 12.5981 643 87.5521 549.729 518.114
45 0 53.0586 12.9856 689 86.553 549.351 517.771
46 0 56.0557 13.5758 761 86.1248 549.543 517.205
47 0 57.0642 13.406 765 87.7817 550.089 517.293
48 0 59.0673 12.8667 760 89.421 549.55 516.139
49 0 63.0326 14.1038 889 85.8054 549.683 514.418
50 0 64.0389 13.6011 871 88.806 549.495 513.277
51 0 66.0478 13.5508 895 88.4425 550.113 513.792
52 0 68.0576 13.5914 925 89.5589 550.144 511.035
53 0 69.1083 13.2401 915 90.9727 549.897 510.572
54 0 72.0894 12.9978 937 91.2295 549.653 509.591
55 0 73.0675 13.1249 959 91.2232 549.757 506.455
56 0 76.1415 13.0809 996 91.3594 549.862 506.272
57 0 79.0716 13.6206 1077 90.0817 550.058 504.63
58 0 85.0951 13.5848 1156 92.91 549.522 503.974
59 0 86.0788 13.0578 1124 89.6851 550.327 501.307
60 0 90.0895 13.2535 1194 88.6918 549.359 499.656
61 0 91.0751 13.0881 1192 90.5327 549.885 497.573
62 0 94.1033 13.1876 1241 90.913 549.565 495.133
63 0 99.0942 12.9876 1287 90.7032 550.149 494.298
64 1 51.0827 11.7261 599 90.1252 549.918 516.606
65 0 53.0499 12.4977 663 89.5475 550.13 515.253
66 0 56.1269 12.8993 724 87.989 549.504 515.854
67 0 57.0717 13.5794 775 88.6052 549.21 507.499
68 0 58.0522 12.6783 736 91.5883 549.116 513.666
69 0 62.0442 12.9424 803 88.4782 548.72 515.252
70 0 64.0884 13.7778 883 87.9071 548.856 514.185
71 0 66.1231 13.1421 869 90.0253 549.443 512.801
72 0 67.0605 14.0619 943 89.0658 549.229 511.772
73 0 68.1042 12.9801 884 91.9231 549.751 510.57
74 0 72.0648 13.5434 976 89.7807 549.383 509.43
75 0 73.0998 13.5158 988 83.4352 549.271 508.56
76 0 77.1203 13.5503 1045 90.1129 549.255 506.928
77 0 79.0759 13.3037 1052 90.6103 548.684 506.391
78 0 83.0781 13.71 1139 89.3696 548.959 504.451
79 0 86.0449 13.4465 1157 90.5523 548.565 503.664
80 0 88.0699 13.2395 1166 91.2924 548.743 501.521
81 0 91.0974 13.4581 1226 89.531 549.389 501.079
82 0 95.0844 13.4933 1283 90.6789 549.779 498.687
83 0 98.0753 13.8363 1357 89.3132 549.111 496.172
84 1 52.026 11.3405 590 87.6 549.946 517.632
85 0 53.0666 11.74 623 84.9791 549.729 516.213
86 0 53.0563 11.7988 626 84.869 550.57 514.641
87 0 57.044 12.7095 725 86.1117 549.876 515.048
88 0 55.0695 11.8941 655 82.7542 549.84 516.119
89 0 60.0537 12.0559 724 81.5083 549.235 514.146
90 0 61.0385 12.5167 764 81.7147 549.772 513.73
91 0 62.0194 12.2865 762 82.1037 549.608 513.681
92 0 66.061 12.3522 816 81.7206 548.842 511.578
93 0 67.0701 12.6286 847 82.1122 548.849 509.863
94 0 70.0673 12.8162 898 82.2216 548.512 511.53
95 0 74.1027 13.1979 978 81.9673 548.897 508.657
96 0 76.0651 13.0415 992 82.2853 548.568 507.227
97 0 79.0521 12.6752 1002 83.0429 548.341 507.909
98 0 80.1026 13.2455 1061 82.9943 548.459 506.29
99 0 83.0655 12.761 1060 83.9887 548.859 506.567
100 0 87.0366 13.3737 1164 83.1847 548.991 505.598
101 0 89.1179 13.8468 1234 83.8574 549.223 503.874
102 0 91.0544 13.5853 1237 85.9248 548.409 501.661
103 0 95.0837 14.4399 1373 84.0386 548.071 500.779
104 0 98.0855 14.0388 1377 84.8845 548.344 499.165
105 0 99.1728 13.5521 1344 85.8378 549.001 494.402
106 1 51.1131 11.5822 592 85.0034 549.188 516.488
107 0 53.0889 11.7915 626 83.8882 549.074 516.059
108 0 58.0307 13.1655 764 87.0654 548.996 516.938
109 0 59.0925 13.6735 808 86.9418 548.985 517.786
110 0 59.1292 13.8848 821 88.8246 550.225 516.329
111 0 58.0762 12.1737 707 83.7496 549.825 516.132
112 0 61.0799 12.0989 739 84.9621 550.115 516.256
113 0 63.0763 12.2391 772 86.1231 549.469 514.924
114 0 67.0989 12.5188 840 86.9107 549.177 513.394
115 0 69.0714 13.2182 913 86.3647 549.459 512.343
116 0 71.1432 12.7068 904 88.698 549.206 513.033
117 0 72.0911 12.9974 937 89.4002 549.308 512.086
118 0 76.0726 13.119 998 88.7715 548.69 510.801
119 0 79.0709 12.963 1025 88.6498 549.065 507.964
120 0 81.1275 12.7454 1034 91.3259 549.014 507.283
121 0 84.0966 12.7235 1070 92.0794 549.19 506.478
122 0 86.0949 13.1831 1135 91.2573 548.629 503.801
123 0 91.0618 13.2438 1206 90.5216 548.582 503.468
124 1 46.0487 11.9439 550 93.6509 548.715 525.535
125 0 47.0916 12.1465 572 90.0472 549.212 523.692
126 0 50.0639 12.7837 640 89.0078 548.755 522.205
127 0 50.0263 12.4135 621 91.2625 548.219 522.597
128 0 51.0421 11.9509 610 94.4738 548.548 521.728
129 0 52.0609 12.543 653 92.8453 549.714 521.182
130 0 54.0771 12.1863 659 92.6297 549.306 520.586
131 0 57.0325 12.2386 698 92.6003 548.669 519.59
132 0 56.0644 12.4143 696 94.0517 548.043 518.42
133 0 59.0206 12.2838 725 93.2331 548.178 517.97
134 0 63.098 12.964 818 91.7518 548.765 515.322
135 0 62.0915 13.1419 816 129.065 548.759 515.251
136 0 66.0518 12.899 852 91.7793 548.393 513.371
137 0 68.0848 13.2041 899 91.6663 548.951 512.1
138 0 70.0553 13.7035 960 91.176 549.229 510.957
139 0 73.0607 13.2082 965 94.2964 548.795 508.633
140 0 76.0942 13.9301 1060 93.033 548.57 508.619
141 0 79.1429 13.722 1086 93.8066 547.859 507.427
142 0 80.19 13.468 1080 96.7528 547.945 506.148
143 0 86.1572 15.1235 1303 91.8596 548.396 505.21
144 0 87.1793 14.6824 1280 92.6516 548.041 504.209
145 0 90.2316 14.5071 1309 93.4927 548.818 501.425
146 0 91.2385 14.347 1309 93.8128 548.554 500.95
147 1 47.153 11.8974 561 93.0963 549.356 524.793
148 0 49.0713 12.8385 630 91.4714 549.322 523.292
149 0 50.0741 12.9608 649 93.3005 548.162 521.868
150 0 52.0311 12.7232 662 92.4456 548.136 521.846
151 0 54.0586 13.3744 723 92.769 548.216 520.035
152 0 58.0894 13.4964 784 97.2143 548.041 518.601
153 0 60.1276 12.5733 756 99.1111 548.138 517.192
154 0 58.1113 12.9235 751 100.174 547.907 516.469
155 0 62.1432 13.2758 825 98.1067 548.457 515.33
156 0 63.1236 13.6082 859 96.4866 548.441 516.373
157 0 65.1257 12.8214 835 96.7305 549.148 514.071
158 0 68.1411 13.34 909 94.4125 548.534 512.172
159 0 71.1278 13.5812 966 93.1977 548.552 511.369
160 0 73.1198 13.1565 962 94.895 547.899 509.998
161 0 74.115 13.533 1003 93.1735 548.83 509.251
162 0 78.1496 13.8068 1079 91.9917 548.46 507.648
163 0 80.1316 13.8273 1108 92.796 548.384 506.84
164 0 82.1217 13.0538 1072 94.8797 548.378 504.938
165 0 84.1368 13.3592 1124 93.7927 548.857 503.278
166 0 89.1148 13.3872 1193 94.3596 548.57 501.2
167 0 91.1725 13.7212 1251 92.9225 549.35 500.089
168 0 95.1806 13.3536 1271 93.2974 548.637 497.382
169 0 98.1374 13.6237 1337 93.5004 549.037 495.286
170 0 102.068 13.7164 1400 92.5464 548.101 494.986
171 0 107.15 13.9524 1495 90.5472 548.179 491.224
172 1 56.0824 11.2156 629 88.2576 549.388 516.426
173 0 58.1024 11.8756 690 87.2928 549.239 514.432
174 0 61.1108 12.6819 775 87.0645 548.75 513.515
175 0 63.1236 13.1171 828 90.1232 549.037 512.943
176 0 64.1071 12.2451 785 93.307 548.15 511.831
177 0 67.1296 12.8408 862 90.2216 548.171 511.262
178 0 70.0665 13.4586 943 87.5578 548.183 510.162
179 0 70.0542 13.3183 933 89.6667 547.678 507.713
180 0 72.0656 13.2379 954 90.0681 547.895 506.237
181 0 76.112 12.7444 970 90.2588 547.746 507.542
182 0 79.0841 13.277 1050 88.9181 547.609 505.08
183 0 78.1415 13.194 1031 90.8196 548.361 502.294
184 0 83.0599 13.2555 1101 89.8174 547.35 499.973
185 0 86.0425 13.412 1154 89.4957 547.696 498.348
186 0 89.0722 13.5508 1207 89.1118 547.624 497.879
187 0 91.1134 13.8619 1263 89.0776 546.814 495.752
188 0 93.1325 13.5291 1260 90.6032 546.83 493.73
189 0 97.0702 13.7735 1337 89.7524 547.652 492.262
190 0 101.067 13.3575 1350 89.5252 548.311 491.134
191 1 53.0398 10.3696 550 85.54 546.993 517.049
192 0 55.0486 11.5898 638 85.2915 547.476 516.704
193 0 56.0359 12.3671 693 85.2771 548.439 516.633
194 0 57.0346 11.7473 670 80.2597 547.737 517.639
195 0 57.0265 11.1352 635 83.1055 547.529 515.598
196 0 60.05 11.6236 698 80.7736 547.718 516.033
197 0 62.0351 11.9932 744 80.1089 546.629 514.582
198 0 65.0689 11.4648 746 80.6434 546.924 512.497
199 0 66.0492 11.1129 734 81.2616 546.798 510.787
200 0 69.0596 11.9752 827 79.7715 546.947 511.052
201 0 69.0642 11.3952 787 81.2745 546.853 509.543
202 0 73.0524 12.142 887 100.205 546.711 508.191
203 0 74.0646 12.2056 904 99.6316 546.681 507.685
204 0 79.1136 12.4125 982 97.0356 546.406 505.388
205 0 82.1119 11.9471 981 96.6228 546.937 504.503
206 0 85.1216 12.3588 1052 94.6245 546.275 503.627
207 0 88.0839 12.6357 1113 92.6541 546.55 502.208
208 1 45.0311 10.4816 472 93.7712 546.413 523.953
209 0 46.0403 11.0555 509 91.3615 547.016 522.912
210 0 48.0442 12.2179 587 85.7257 546.714 521.235
211 0 50.0512 11.5881 580 83.4931 547.331 521.383
212 0 47.0241 10.3139 485 86.4907 546.509 524.186
213 0 49.06 11.0885 544 85.5993 546.675 523.237
214 0 51.0952 10.3532 529 85.862 546.792 522.856
215 0 50.0178 10.9361 547 84.6764 546.004 522.112
216 0 53.0627 10.8362 575 85.0244 546.88 521.734
217 0 53.0124 11.0163 584 85.4264 546.192 520.002
218 0 56.0213 11.21 628 85.1226 546.623 518.998
219 0 56.0383 11.2958 633 85.9984 547.321 517.787
220 0 60.0265 11.4783 689 84.6589 546.864 516.778
221 0 61.0506 11.1056 678 85.7832 546.031 516.257
222 0 61.067 11.5774 707 85.0905 546.164 516.215
223 0 63.0617 11.8297 746 85.8539 546.344 514.647
224 0 67.0712 11.5996 778 86.9756 547.081 513.225
225 0 69.0745 11.2777 779 88.0937 546.37 512.533
226 0 70.0708 11.1744 783 88.9195 546.733 511.314
227 0 73.0604 11.8532 866 89.0566 546.162 510.559
228 0 75.0719 11.3225 850 91.8624 546.002 509.745
229 0 77.0542 11.9137 918 92.72 546.325 508.164
230 0 80.0528 10.8928 872 93.0092 546.249 508.205
231 0 82.1012 10.7794 885 93.7051 546.809 505.687
232 1 46.0117 10.3452 476 93.3235 546.569 524.693
233 0 47.0089 11.8488 557 92.3196 547.312 523.571
234 0 49.0219 11.3215 555 93.4721 546.991 522.238
235 0 46.0179 10.6698 491 86.6741 545.908 523.884
236 0 47.0196 10.166 478 87.1987 545.929 523.64
237 0 47.0367 9.60952 452 88.4049 545.635 522.732
238 0 51.0795 10.4739 535 86.028 546.006 523.021
239 0 51.0609 9.98806 510 86.8902 545.724 521.186
240 0 54.0954 10.7403 581 85.3064 545.9 520.518
241 0 55.0822 10.4208 574 85.777 545.667 520.753
242 0 56.1144 11.6369 653 83.245 546.139 519.23
243 0 59.0745 11.1554 659 84.1988 546.158 518.853
244 0 62.1117 10.948 680 85.1779 545.828 516.537
245 0 65.1165 11.4257 744 83.5054 545.226 517.374
246 0 66.0909 11 727 85.2751 545.362 515.748
247 0 70.0558 11.6907 819 83.1648 545.603 514.559
248 0 72.0567 11.3799 820 84.2293 545.899 513.067
249 0 72.0759 11.2937 814 84.4779 545.807 512.49
250 0 76.0727 11.1341 847 83.6269 546.453 511.334
251 0 76.064 11.1222 846 130.668 547.447 511.351
252 0 79.0586 10.0811 797 85.4128 547.474 509.616
253 0 84.1118 11.3896 958 83.0282 547.267 506.438
254 0 88.1016 10.783 950 83.1453 546.83 505.303
255 0 90.0997 11.1321 1003 82.2851 546.936 503.313
256 1 45.072 11.3152 510 83.2333 547.827 523.857
257 0 48.057 12.0482 579 82.3212 545.748 524.62
258 0 48.0377 12.1155 582 82.8265 545.579 523.83
259 0 49.1156 12.0939 594 82.5875 545.645 523.566
260 0 51.0321 12.8743 657 80.3135 545.997 521.788
261 0 54.0514 12.4696 674 80.8012 545.654 520.61
262 0 54.0514 12.5251 677 135.784 545.64 520.592
263 0 56.0573 12.3802 694 82.3862 545.875 520.552
264 0 57.0308 12.0461 687 83.6245 545.843 519.98
265 0 58.1249 12.7484 741 83.5182 546.961 518.977
266 0 61.0901 12.2606 749 86.1776 545.996 504.23
267 0 63.0625 12.8761 812 86.0764 546.182 513.834
268 0 63.0803 12.7139 802 89.48 546.065 516.304
269 0 67.127 12.6626 850 93.0894 547.1 514.034
270 0 69.0377 13.3985 925 92.6119 546.157 513.944
271 0 71.066 13.199 938 96.209 545.981 512.789
272 0 72.0524 13.1987 951 99.7066 545.747 513.144
273 0 74.0746 13.2029 978 101.118 546.108 511.086
274 0 76.0522 12.8859 980 103.713 545.803 506.809
275 0 80.0708 12.8761 1031 103.081 546.954 508.602
276 0 85.1041 13.5246 1151 101.277 546.376 504.134
277 1 46.0503 12.1172 558 105.151 545.944 526.351
278 0 47.1184 12.4155 585 105.576 546.662 524.658
279 0 48.2387 12.7906 617 105.002 546.862 523.514
280 0 51.0654 13.4729 688 104.253 546.562 523.106
281 0 51.1763 12.7989 655 104.031 546.241 521.095
282 0 53.2052 13.3258 709 102.56 547.505 521.179
283 0 53.0515 12.8366 681 105.533 546.076 520.645
284 0 53.0515 12.8554 682 156.211 545.088 520.652
285 0 58.1461 13.0705 760 102.441 546.437 518.489
286 0 61.1966 13.5302 828 99.3044 547.103 517.685
287 0 61.1748 12.9792 794 102.136 546.984 517.791
288 0 63.2326 13.5057 854 99.459 546.082 515.932
289 0 64.1375 13.0501 837 100.847 546.319 513.275
290 0 66.2117 14.0307 929 97.958 545.825 512.651
291 0 69.1919 13.9612 966 95.9162 546.344 512.097
292 0 69.1391 14.1165 976 96.2643 545.365 511.916
293 0 72.1269 13.6703 986 97.0558 545.842 510.167
294 0 74.1784 13.3058 987 99.0081 545.454 507.298
295 0 75.1608 13.6507 1026 99.7963 545.48 507.692
296 0 78.1955 13.6964 1071 100.659 545.691 507.515
297 0 81.1324 13.6937 1111 101.376 545.439 504.734
298 0 85.1816 14.1228 1203 99.6525 545.793 504.937
299 0 87.1124 13.9819 1218 103.274 545.628 503.439
300 0 88.1165 13.5729 1196 105.656 545.37 502.073
301 0 92.1222 14.1443 1303 103.644 545.223 500.382
302 0 95.1811 13.8158 1315 104.798 544.622 499.184
303 0 99.1464 14.2315 1411 102.263 545.228 498.793
304 0 100.094 14.1568 1417 104.298 546.142 495.277
305 0 102.083 14.1062 1440 103.235 545.537 493.412
306 1 52.0282 10.8595 565 103.604 547.207 521.499
307 0 54.0167 10.7744 582 103.497 546.849 520.553
308 0 58.0183 11.0482 641 101.914 546.353 519.427
309 0 60.0325 11.1939 672 100.872 546.61 518.918
310 0 62.0455 12.0396 747 96.905 545.748 518.288
311 0 65.0817 12.3537 804 95.148 546.229 516.952
312 0 65.0764 12.6006 820 94.4122 546.188 516.665
313 0 70.076 13.571 951 90.4911 546.43 514.509
314 0 69.1042 13.2119 913 93.586 545.994 513.881
315 0 72.1378 13.0306 940 93.6064 546.451 514.068
316 0 75.0948 13.4763 1012 93.4565 546.099 511.601
317 0 78.1876 13.5827 1062 93.1601 546.122 510.326
318 0 79.1033 13.7036 1084 94.2961 546.086 510.986
319 0 80.1264 13.6285 1092 95.9634 545.356 510.126
320 0 82.2104 13.5141 1111 95.6427 545.532 508.599
321 0 83.1478 13.7346 1142 97.6524 545.956 506.685
322 0 85.2435 13.3734 1140 99.0439 545.743 504.593
323 0 89.1782 13.6356 1216 100.419 545.136 502.277
324 0 90.2201 13.3562 1205 100.621 545.09 501.143
325 0 91.2005 13.0482 1190 99.5412 545.377 496.382
326 0 91.1189 12.5989 1148 100.705 544.548 492.532
327 0 93.0803 12.7524 1187 100.05 544.781 491.439
328 0 98.104 13.5163 1326 97.4284 544.307 490.076
329 1 51.0465 10.0105 511 99.1272 545.386 516.618
330 0 53.1183 11.2955 600 100.19 544.223 514.39
331 0 53.0332 11.9925 636 99.3098 545.305 511.912
332 0 55.1164 12.2287 674 105.96 545.304 516.136
333 0 59.1258 11.9914 709 106.685 545.207 515.477
334 0 61.0946 12.5052 764 105.298 544.74 514.44
335 0 63.106 12.6771 800 102.158 545.076 515.054
336 0 64.1127 12.0569 773 104.762 545.373 513.528
337 0 67.0962 12.4597 836 101.734 544.945 511.738
338 0 71.0318 12.4592 885 100.748 544.263 511.072
339 0 72.0507 12.2275 881 102.611 544.101 509.716
340 0 74.081 12.2029 904 103.082 542.991 508.882
341 0 79.0488 13.6877 1082 98.4094 542.651 507.859
342 0 81.184 13.2292 1074 99.6071 543.269 507.758
343 1 42.0396 11.0848 466 99.7618 543.073 527.157
344 0 42.0786 11.4072 480 102.806 542.569 527.173
345 0 44.1484 11.8011 521 99.904 542.267 526.19
346 0 46.2003 11.8398 547 100.227 542.994 525.505
347 0 46.1528 11.5053 531 100.755 542.834 523.36
348 0 48.127 11.8852 572 99.5315 542.776 523.016
349 0 48.2786 11.2679 544 102.094 542.287 522.366
350 0 49.1166 12.114 595 99.7345 543.207 521.8
351 0 52.157 11.9447 623 99.0642 543.045 520.759
352 0 51.1375 11.9091 609 101.621 542.768 520.365
353 0 54.1389 11.9877 649 102.012 543.382 520.331
354 0 56.1056 12.2982 690 101.262 542.307 519.448
355 0 58.0762 12.6386 734 99.7057 543.362 518.817
356 0 58.1647 12.2755 714 101.518 542.808 518.964
357 0 60.1645 12.5988 758 100.789 543.596 516.513
358 0 60.1086 12.6604 761 100.398 542.687 515.704
359 0 61.0867 12.4741 762 103.272 543.308 513.126
360 0 61.086 12.507 764 122.691 543.304 513.016
361 0 64.1075 12.2139 783 105.069 543.207 509.837
362 0 67.0734 12.8665 863 100.745 543.525 511.379
363 0 70.1281 13.4468 943 99.299 542.805 509.007
364 0 70.0974 12.554 880 103.181 544.073 509.201
365 0 72.0925 13.2885 958 100.267 544.129 509.23
366 0 76.0845 13.2353 1007 101.161 543.983 507.402
367 0 78.0604 13.8482 1081 99.371 543.191 506.698
368 0 80.0954 13.7711 1103 99.252 542.974 503.289
369 0 81.0408 13.6351 1105 99.2136 543.196 501.119
370 0 83.0973 13.0209 1082 100.816 542.849 494.761
371 0 85.0555 13.3442 1135 99.6256 543.317 493.155
372 0 87.0771 13.8613 1207 98.5485 543.156 490.529
373 0 91.0843 13.1636 1199 99.6714 543.843 491.771
374 0 93.0478 13.6274 1268 98.0599 543.203 488.777
375 0 94.0665 13.5436 1274 97.5659 543.593 487.844
376 0 99.0818 13.3728 1325 97.246 543.294 485.568
377 0 101.055 13.3986 1354 96.7467 542.996 483.595
378 1 51.0403 10.2076 521 93.4146 544.534 511.622
379 0 54.0879 10.8157 585 92.9368 543.627 511.503
380 0 56.0381 11.3673 637 93.1617 544.647 513.113
381 0 58.0229 11.2714 654 91.5749 544.177 513.021
382 0 61.059 12.2341 747 98.8581 544.723 515.788
383 0 65.2183 12.2818 801 97.2022 545.03 514.704
384 0 65.1463 12.4028 808 99.3824 544.908 513.963
385 0 69.185 12.9219 894 97.1119 544.708 512.338
386 0 70.1699 12.5695 882 100.049 544.906 511.968
387 0 73.1235 12.4721 912 100.137 544.352 510.203
388 0 75.1452 13.4273 1009 96.2884 545.23 509.952
389 0 79.1848 13.2096 1046 95.5029 545.674 508.625
390 0 80.1352 13.2401 1061 96.0085 545.527 505.84
391 0 84.0967 13.0326 1096 96.0502 545.543 505.427
392 0 87.0953 13.2384 1153 95.5672 545.386 502.776
393 0 90.0945 13.619 1227 93.0782 545.038 501.732
394 0 91.1225 13.0045 1185 94.8439 545.382 500.699
395 0 94.1377 13.5227 1273 93.7282 545.378 498.753
396 0 97.148 13.2375 1286 94.9409 545.416 497.028
397 0 101.117 13.4893 1364 93.0337 544.905 494.683
398 0 104.121 13.8589 1443 91.1462 545.353 494.925
399 0 106.127 13.2671 1408 93.0234 545.315 490.822
400 1 55.0594 11.1698 615 94.1984 545.966 517.366
401 0 58.1333 11.3016 657 93.7717 545.951 515.641
402 0 63.1882 12.3441 780 89.0064 545.719 516.997
403 0 62.2298 11.9718 745 83.2846 545.965 517.2
404 0 64.1582 12.0172 771 83.1582 546.156 518.018
405 0 64.0991 11.3418 727 85.469 546.326 519.22
406 0 68.1251 12.2128 832 84.5805 545.082 517.531
407 0 71.1266 12.6957 903 84.3178 545.266 515.757
408 0 73.1473 12.7961 936 85.6346 544.87 514.597
409 0 75.1113 12.2485 920 87.5456 545.82 513.975
410 0 79.1093 12.982 1027 85.9075 545.617 512.018
411 0 80.1755 13.2335 1061 85.6277 545.548 511.519
412 0 83.1131 13.0906 1088 84.3722 545.331 510.408
413 0 84.1835 13.0073 1095 86.4922 545.475 506.457
414 0 88.1752 13.5185 1192 84.2274 544.726 507.64
415 0 92.1154 13.19 1215 84.6807 544.582 505.072
416 0 93.197 13.8095 1287 84.2945 544.765 504.038
417 0 98.2153 13.6231 1338 86.5179 544.459 500.859
418 0 102.197 12.8183 1310 98.8382 544.965 498.751
419 0 105.15 13.2573 1394 98.2396 544.59 498.477
420 0 108.148 13.0007 1406 99.1046 544.526 496.768
421 0 109.17 12.5584 1371 102.047 543.431 495.157
422 0 113.179 11.9015 1347 103.673 543.999 493.722
423 1 61.0907 11.2456 687 98.2809 545.63 520.066
424 0 61.1099 11.5857 708 98.5141 545.388 518.031
425 0 62.0385 11.7991 732 93.5109 544.848 518.355
426 0 63.0531 11.4348 721 95.6782 544.279 518.705
427 0 63.0531 11.4189 720 147.615 543.271 518.722
428 0 69.0821 12.2029 843 94.739 544.877 516.05
429 0 68.0526 12.3581 841 95.7408 544.841 515.102
430 0 72.1456 12.3778 893 93.8835 544.434 514.338
431 0 74.0683 12.2455 907 94.2756 544.63 513.109
432 0 76.0721 12.0675 918 94.7222 543.992 510.663
433 0 77.1001 11.9325 920 97.0044 544.362 510.282
434 0 80.0671 12.3646 990 94.2111 544.471 510.54
435 0 80.1282 11.9558 958 96.7307 544.399 509.578
436 0 84.1661 12.0357 1013 93.8263 545.142 507.351
437 0 85.1158 11.8779 1011 94.7438 544.57 507.056
438 0 89.093 12.5711 1120 92.4455 544.693 504.021
439 0 92.1457 12.6539 1166 91.3585 544.315 504.52
440 0 96.1606 13.0095 1251 90.5971 544.805 501.174
441 0 98.1158 13.1987 1295 91.5606 544.217 497.164
442 0 102.184 13.1822 1347 89.1062 544.509 496.972
443 0 103.126 12.6641 1306 90.2129 543.558 491.913
444 0 107.12 13.2282 1417 89.1856 543.879 494.109
445 0 113.137 13.0815 1480 89.3703 543.388 490.757
446 0 114.141 12.9664 1480 90.8311 543.926 489.201
447 0 118.141 12.9675 1532 91.7611 544.565 484.14
448 0 121.181 13.2034 1600 94.03 544.372 478.772
449 0 126.229 14.4658 1826 106.081 544.007 480.462
450 0 130.153 14.1218 1838 105.718 543.856 479.203
451 0 134.112 14.0927 1890 106.412 544.48 477.946
452 0 139.151 14.4232 2007 105.941 544.396 476.016
453 0 143.182 14.541 2082 105.493 544.397 474.839
454 1 80.0652 12.1026 969 110.282 545.345 504.586
455 0 82.0668 12.4533 1022 109.793 543.48 502.848
456 0 86.067 13.048 1123 107.37 545.686 504.224
457 0 88.1181 13.0847 1153 107.306 545.31 503.232
458 0 91.131 13.7824 1256 103.789 543.753 503.587
459 0 95.1658 13.86 1319 104.241 543.232 502.374
460 0 95.0449 11.6261 1105 101.098 543.89 501.539
461 0 100.05 12.8236 1283 94.3024 543.869 499.962
462 0 101.077 12.0898 1222 98.1825 544.61 496.675
463 0 101.077 12.0997 1223 153.165 544.603 496.59
464 0 109.136 12.0217 1312 97.6235 544.758 493.524
465 1 55.0494 10.6086 584 95.8236 545.414 520.301
466 0 57.0383 10.677 609 94.8752 545.476 519.432
467 0 59.0287 11.6045 685 92.4482 545.155 518.439
468 0 61.0158 11.5216 703 99.6387 544.707 516.415
469 0 66.1442 12.9565 857 96.8856 544.822 514.247
470 0 65.0295 12.3482 803 102.887 545.411 512.112
471 0 69.0508 12.3822 855 101.639 545.316 511.026
472 0 70.0677 12.5593 880 101.324 544.445 509.724
473 0 72.0611 12.6559 912 101.789 545.22 509.414
474 0 74.0548 12.4367 921 99.114 545.05 506.625
475 0 78.029 12.3416 963 99.2606 545.312 504.189
476 0 79.044 11.7403 928 98.5129 544.65 500.94
477 0 81.0888 12.1102 982 98.8208 544.391 500.734
478 0 85.0452 12.1935 1037 97.0338 544.151 499.625
479 0 86.0462 11.9587 1029 98.7813 544.696 498.468
480 0 88.0647 11.8663 1045 98.2699 544.001 496.756
481 0 91.0643 12.3649 1126 97.4023 543.311 494.861
482 0 92.0724 12.0231 1107 96.9594 544.029 493.305
483 0 96.1052 12.5175 1203 96.5919 543.587 490.071
484 1 46.0269 9.99415 460 92.5304 543.854 517.8
485 0 46.074 10.1359 467 90.1927 544.332 512.777
486 0 48.0445 10.1989 490 91.3286 542.343 515.951
487 0 52.0316 11.32 589 91.5348 543.212 517.564
488 0 54.051 11.6372 629 87.2258 544.39 517.835
489 0 55.0588 11.5331 635 88.1606 544.502 517.25
490 0 57.0149 11.4356 652 89.9893 544.356 516.127
491 0 58.0204 11.1685 648 91.0309 543.673 514.792
492 0 58.043 11.8188 686 90.8411 543.81 515.567
493 0 62.0341 12.1062 751 89.8069 544.306 514.21
494 0 61.0494 11.3023 690 93.4609 543.596 512.845
495 0 63.0306 12.3115 776 91.8698 542.329 512.796
496 0 67.0332 11.9493 801 92.367 542.313 504.074
497 0 70.0414 12.1928 854 92.5679 541.86 502.984
498 0 72.035 13.1464 947 89.8965 542.539 510.79
499 0 73.0196 13.2293 966 94.1377 542.555 511.019
500 0 77.0273 13.3719 1030 93.7922 542.675 509.868
501 0 78.0432 13.6335 1064 95.9662 541.978 508.468
502 0 80.0352 13.9314 1115 96.3659 542.257 506.646
503 0 82.0858 13.8757 1139 97.8859 541.63 505.334
504 0 85.0309 14.1478 1203 95.7772 543.218 503.991
505 0 89.1078 14.0392 1251 95.3773 543.003 503.262
506 0 90.0243 13.3408 1201 99.7402 542.976 501.427
507 0 94.1224 13.5674 1277 98.9726 542.009 500.442
508 1 50.078 11.3223 567 99.1605 543.637 509.591
509 0 48.079 9.33879 449 88.3653 543.272 517.134
510 0 54.0841 12.1847 659 98.6995 543.631 521.854
511 0 54.0533 12.9872 702 89.8091 543.416 522.177
512 0 55.0613 12.1138 667 92.069 543.849 522.633
513 0 54.0668 12.651 684 92.7134 543.519 521.873
514 0 57.078 12.9647 740 90.7176 543.034 522.05
515 0 61.1378 12.7744 781 89.7017 543.374 521.513
516 0 61.0835 12.8022 782 91.2366 543.496 518.641
517 0 63.0855 12.9031 814 91.801 542.728 515.634
518 0 66.0766 12.9849 858 88.8951 542.594 517.931
519 0 67.087 13.162 883 90.3692 542.338 517.116
520 0 68.0319 12.3324 839 92.9356 542.532 516.485
521 0 70.0691 12.873 902 91.3836 542.248 514.408
522 0 73.0952 12.7642 933 91.5241 542.162 513.827
523 0 76.0826 12.6573 963 91.731 542.824 512.899
524 0 80.0821 13.3238 1067 91.0815 542.764 512.467
525 0 82.1513 13.2073 1085 92.6249 543.03 510.125
526 0 85.075 13.3999 1140 95.207 542.86 508.211
527 0 87.1032 13.2257 1152 95.651 542.287 507.016
528 1 43.003 11.069 476 100.187 543.229 528.679
529 0 46.0713 12.2202 563 95.7318 542.956 528.783
530 0 44.0106 12.3152 542 99.4705 543.52 527.97
531 0 45.0136 11.752 529 90.1664 542.121 530.798
532 0 44.0418 12.42 547 90.8355 542.176 530.062
533 0 45.0185 11.3731 512 92.6836 542.266 529.332
534 0 48.0838 12.0207 578 89.1903 541.708 528.879
535 0 50.1012 11.2373 563 90.3002 541.417 528.604
536 0 51.0112 11.6641 595 89.5328 541.358 527.818
537 0 52.0725 11.6952 609 90.5222 541.701 525.798
538 0 53.0738 11.9456 634 90.5789 542.478 523.948
539 0 54.0915 11.9057 644 90.5109 543.039 524.466
540 0 56.0706 12.0562 676 90.7959 543.037 524.075
541 0 56.0549 12.0775 677 92.1256 542.854 523.694
542 0 60.0852 12.1827 732 90.2568 543.354 522.82
543 0 64.0957 12.8558 824 89.3956 542.581 521.563
544 0 64.0982 12.6213 809 90.4351 542.134 520.535
545 0 66.0962 12.2549 810 91.4407 541.89 519.442
546 0 69.1551 12.8262 887 89.9831 542.399 519.485
547 0 70.0901 13.1545 922 90.9338 542.024 517.335
548 0 74.2752 13.2211 982 90.3177 542.722 514.651
549 0 77.0683 13.3388 1028 90.1576 541.926 515.29
550 0 77.0928 13.14 1013 93.2774 542.706 514.072
551 0 81.0894 13.294 1078 93.5176 542.724 512.66
552 0 83.1094 13.1393 1092 95.3855 543.066 510.875
553 0 85.0715 13.377 1138 95.6107 542.636 510.432
554 1 44.0203 11.6083 511 97.2955 543.378 530.344
555 0 45.0105 11.7973 531 96.9604 542.64 529.542
556 0 46.0334 11.5351 531 93.6591 542.646 526.691
557 0 48.1387 11.7161 564 92.7801 541.695 525.369
558 0 48.0226 12.1401 583 98.2933 542.149 528.226
559 0 52.0559 12.7555 664 94.0783 542.509 526.944
560 0 50.0486 11.4089 571 92.7373 542.326 526.809
561 0 52.0802 11.7895 614 91.0016 541.085 526.783
562 0 53.0419 12.1602 645 89.2465 541.981 525.789
563 0 57.1139 12.2562 700 90.6557 542.037 524.22
564 0 58.155 12.2775 714 92.521 541.703 524.251
565 0 60.0615 12.404 745 93.0577 541.498 523.851
566 0 60.0393 12.4085 745 96.6362 542.254 522.819
567 0 63.092 12.7591 805 97.118 542.111 521.617
568 0 67.1378 12.5712 844 97.6031 541.66 520.66
569 0 69.0843 12.217 844 100.891 542.647 520.948
570 0 71.0843 13.2237 940 99.7192 542.149 517.628
571 0 73.0297 13.2138 965 100.617 542.926 519.352
572 0 75.0989 12.5834 945 103.723 542.662 517.223
573 0 80.1073 12.8328 1028 102.502 542.898 515.614
574 0 83.0717 13.8073 1147 103.268 542.595 513.818
575 0 86.1534 13.2554 1142 107.193 542.334 504.084
576 0 88.0893 12.8847 1135 108.428 542.258 511.557
577 1 47.0367 11.4166 537 109.48 542.62 531.875
578 0 48.0337 11.6793 561 113.109 542.581 530.316
579 0 49.0352 12.44 610 106.133 542.625 529.292
580 0 50.059 12.5852 630 100.944 541.757 530.167
581 0 49.067 12.6358 620 103.219 541.232 528.956
582 0 51.1353 12.418 635 104.682 541.934 528.162
583 0 54.0379 12.2322 661 103.393 542.534 527.154
584 0 55.0797 11.7466 647 105.164 542.844 526.403
585 0 56.0649 12.2001 684 105.515 542.33 525.578
586 0 58.0892 11.8266 687 108.333 542.723 518.59
587 0 59.04 12.2798 725 106.251 543.215 523.899
588 0 61.0374 12.1565 742 106.733 542.449 523.191
589 0 62.0966 12.7382 791 105.729 542.652 522.713
590 0 65.081 11.9851 780 107.264 542.8 520.994
591 0 68.0771 12.1774 829 106.045 542.8 520.895
592 0 69.1091 11.6772 807 108.734 542.644 519.368
593 0 72.0705 12.0021 865 107.372 542.065 517.897
594 0 73.1504 11.4285 836 111.282 541.098 518.746
595 0 77.161 11.7158 904 109.081 542.181 516.564
596 0 78.0893 11.7174 915 108.093 541.778 515.118
597 1 41.0413 11.793 484 108.837 541.828 531.395
598 0 42.0118 11.0445 464 102.179 541.957 533.446
599 0 41.0311 11.7716 483 100.938 541.787 532.017
600 0 44.0491 11.8731 523 103.086 542.291 530.56
601 0 46.0707 11.9599 551 102.279 542.205 530.737
602 0 47.0316 11.8006 555 102.126 541.984 530.059
603 0 49.0511 12.4768 612 99.6797 541.605 529.639
604 0 50.0208 12.015 601 101.341 542.294 529.825
605 0 52.0314 12.2042 635 101.85 542.4 528.317
606 0 53.0263 12.6164 669 99.867 541.61 527.335
607 0 53.1331 12.384 658 101.394 542.119 525.692
608 0 53.0961 11.9971 637 103.896 541.528 524.43
609 0 58.1869 12.8379 747 100.344 542.187 523.684
610 0 58.1869 12.8723 749 140.499 543.206 523.669
611 0 58.0988 12.5304 728 107.736 541.809 522.838
612 0 63.0978 13.0591 824 106.377 541.479 521.85
613 0 66.182 13.614 901 103.565 541.742 522.481
614 0 66.0867 13.9362 921 104.009 542.161 521.001
615 0 69.137 13.8999 961 104.142 541.784 520.483
616 0 70.1135 13.9345 977 104.223 542.083 519.056
617 0 70.1301 13.7887 967 106.983 541.31 516.85
618 0 74.1434 14.6068 1083 104.357 542.369 516.375
619 0 76.0972 14.4026 1096 106.297 542.87 513.994
620 0 80.0642 14.938 1196 105.015 542.199 513.003
621 0 80.142 14.0376 1125 109.988 539.923 511.626
622 0 82.0591 14.4286 1184 106.491 540.629 510.233
623 0 84.0817 14.0221 1179 108.841 540.294 509.159
624 0 89.0626 14.1923 1264 106.695 540.784 507.388
625 0 92.0502 14.4812 1333 105.278 540.896 506.044
626 1 46.0615 11.2458 518 109.992 540.896 526.666
627 0 48.03 11.8676 570 110.379 540.593 526.932
628 0 48.0176 12.2039 586 109.413 540.345 526.48
629 0 48.072 11.9612 575 109.736 540.442 526.974
630 0 49.0522 11.2125 550 113.813 541.253 526.967
631 0 52.0897 12.0945 630 110.635 541.379 526.76
632 0 52.0438 11.913 620 109.145 541.371 525.998
633 0 54.1415 11.8209 640 109.87 540.694 525.328
634 0 55.0655 12.585 693 107.193 541.354 524.494
635 0 56.0832 11.7147 657 114.391 541.785 515.641
636 0 57.0258 12.0647 688 110.703 541.519 522.081
637 0 61.0679 12.9037 788 106.365 542.11 520.343
638 0 63.0748 12.7785 806 105.612 541.478 520.686
639 0 63.0922 12.8859 813 106.28 541.394 519.64
640 0 65.0871 13.0133 847 105.947 540.829 518.522
641 0 69.0702 12.1615 840 107.546 541.438 517.531
642 0 69.039 12.1815 841 108.373 541.001 517.465
643 0 72.058 13.3642 963 104.078 542.046 516.044
644 0 76.1567 12.5662 957 104.185 541.775 514.23
645 0 76.0688 12.9225 983 104.803 541.826 512.906
646 0 79.0872 12.5178 990 104.368 541.979 511.429
647 0 81.1015 12.8851 1045 104.353 542.336 509.125
648 0 85.1456 13.4006 1141 100.664 542.245 507.556
649 0 87.1515 12.7594 1112 102.352 542.096 507.035
650 0 90.1606 13.0212 1174 102.86 541.716 504.395
651 1 50.129 11.2909 566 105.947 541.237 523.756
652 0 52.1053 11.0929 578 103.109 541.734 524.009
653 0 51.0422 11.4415 584 97.1438 541.866 520.933
654 0 54.1296 11.2693 610 86.9393 543.812 522.034
655 0 54.1376 11.1198 602 88.9635 543.08 521.183
656 0 57.1011 11.646 665 86.8436 542.794 521.2
657 0 57.164 11.0384 631 89.5895 543.33 520.574
658 0 59.1281 12.7858 756 93.2989 543.918 521.353
659 0 62.0671 12.3737 768 94.9297 543.188 520.158
660 0 64.1668 12.6857 814 94.0712 543.45 519.292
661 0 65.0963 12.9193 841 94.6278 542.52 516.098
662 0 68.0955 12.4384 847 95.5313 543.32 516.497
663 0 69.0967 11.9687 827 96.3241 542.723 514.212
664 0 74.1463 13.352 990 91.4768 542.971 512.789
665 0 74.1527 12.7709 947 93.9504 543.133 512.2
666 0 77.1378 12.3545 953 94.1784 543.646 511.689
667 0 80.0885 12.0866 968 93.7665 543.844 510.296
668 0 82.1452 12.8675 1057 92.825 542.525 507.246
669 0 85.1044 12.8078 1090 93.2018 542.563 503.841
670 0 89.0697 12.552 1118 91.585 542.208 502.979
671 1 46.0068 10.9332 503 92.167 543.143 526.521
672 0 49.0561 11.3747 558 91.5771 543.16 524.588
673 0 48.0826 11.917 573 100.908 543.832 524.195
674 0 51.0461 12.1459 620 98.9113 544.814 523.258
675 0 50.0526 12.4869 625 99.7792 543.811 521.922
676 0 55.0472 12.3712 681 96.4537 544.467 524.285
677 0 54.0465 12.7113 687 95.5429 544.409 522.697
678 0 54.0689 12.5026 676 96.9275 544.624 520.614
679 0 57.0434 12.0785 689 97.9376 544.303 521.543
680 0 61.0394 12.7131 776 95.0683 544.193 519.738
681 0 61.1289 12.4491 761 95.8147 543.657 518.744
682 0 63.2105 13.2573 838 94.5847 543.257 517.538
683 0 65.1147 13.4685 877 94.8951 543.968 516.254
684 0 67.1166 12.8135 860 95.3977 544.05 516.28
685 0 70.1069 13.4652 944 92.7542 544.55 515.127
686 0 71.1903 12.7265 906 93.9249 544.262 513.481
687 0 73.1257 13.1554 962 95.0457 543.954 513.397
688 0 76.1685 13.2601 1010 93.5347 543.984 511.779
689 0 77.1486 12.7157 981 94.7462 544.082 510.886
690 0 81.2136 13.1136 1065 93.3005 543.817 511.193
691 0 83.1937 12.4769 1038 94.3237 543.092 509.189
692 0 84.1875 12.8404 1081 95.42 543.992 507.382
693 0 88.1216 12.5054 1102 86.2523 543.746 507.546
694 0 90.1537 13.1664 1187 88.7919 544.436 504.794
695 0 93.2807 12.5321 1169 92.5056 543.313 503.146
696 1 49.0524 10.1932 500 94.37 544.37 525.686
697 0 49.0442 11.0513 542 92.1974 543.688 525.371
698 0 51.0583 10.7328 548 85.6861 543.578 526.19
699 0 51.0595 10.6151 542 80.0664 543.819 523.395
700 0 54.1571 11.559 626 82.9393 542.351 525.203
701 0 55.0503 11.4259 629 85.3021 543.064 525.514
702 0 55.0899 10.8368 597 86.9213 542.615 524.605
703 0 58.0433 11.612 674 85.5445 542.482 523.332
704 0 61.0451 11.6471 711 85.3108 542.73 522.57
705 0 62.1054 11.1423 692 88.0723 543.001 521.954
706 0 63.0234 11.5671 729 88.6324 542.915 521.241
707 0 66.0635 12.049 796 88.4548 542.654 521.114
708 0 68.0628 11.7539 800 91.185 542.51 520.726
709 0 70.0739 12.073 846 91.0969 542.054 519.124
710 0 73.1112 12.5973 921 90.1249 542.132 517.355
711 0 76.0681 12.7517 970 89.833 542.671 516.367
712 0 77.0685 12.0542 929 93.2842 542.663 515.925
713 0 81.0604 12.9286 1048 89.1651 542.269 513.829
714 0 83.1148 13.0542 1085 91.0111 542.351 513.363
715 0 86.1007 13.4494 1158 90.3212 542.893 513.056
716 0 88.1449 13.4551 1186 93.1484 542.946 510.44
717 0 92.1671 13.4647 1241 91.5133 542.461 510.244
718 0 96.1568 13.686 1316 95.1049 542.28 508.619
719 0 98.1836 13.7497 1350 96.503 542.329 508.351
720 0 100.093 13.3776 1339 99.4675 542.537 507.48
721 0 103.265 13.5187 1396 99.3388 542.08 504.135
722 0 105.244 13.1124 1380 104.306 542.209 502.751
723 0 108.28 13.3081 1441 104.044 542.309 501.034
724 1 59.0977 11.7264 693 103.808 543.108 526.266
725 0 60.052 11.7731 707 103.577 543.634 523.836
726 0 61.1141 12.5176 765 102.715 542.329 520.77
727 0 63.1215 12.4363 785 103.623 542.153 520.818
728 0 65.0233 12.7185 827 104.932 543.073 519.694
729 0 69.0327 13.3705 923 103.215 542.745 519.416
730 0 68.0479 13.3289 907 104.764 543.367 519.259
731 0 70.0283 14.1371 990 103.662 542.73 518.526
732 0 73.0783 13.6155 995 101.718 543.321 517.716
733 0 74.0704 14.0677 1042 100.766 542.806 516.507
734 0 78.1136 13.89 1085 100.516 543.599 514.69
735 0 78.0644 13.5401 1057 103.188 543.494 512.526
736 0 79.1126 13.1205 1038 107.017 543.24 510.085
737 0 83.053 13.6299 1132 105.221 543.24 508.733
738 0 86.0756 13.4417 1157 104.96 542.786 508.073
739 0 88.0541 13.1624 1159 106.305 542.964 506.43
740 0 89.203 12.9592 1156 107.191 542.861 504.141
741 0 93.2161 12.9377 1206 107.285 542.573 502.177
742 1 52.0572 11.18 582 108.744 543.124 522.474
743 0 54.0533 12.2287 661 106.18 542.508 524.501
744 0 57.1627 12.6131 721 106.605 542.137 524.448
745 0 58.1479 13.9472 811 100.937 542.832 523.201
746 0 61.153 13.736 840 99.1964 543.046 522.35
747 0 62.167 13.0455 811 104.702 543.073 521.454
748 0 64.0449 12.5225 802 106.504 542.532 520.491
749 0 67.1855 12.9492 870 103.644 541.905 518.987
750 0 69.1501 12.6392 874 104.772 542.084 517.963
751 0 70.2118 12.5193 879 103.349 542.772 516.964
752 0 72.145 12.3917 894 102.229 542.399 515.943
753 0 74.1843 12.415 921 101.724 542.825 512.966
754 0 78.1335 12.6834 991 99.9364 542.649 511.859
755 0 79.1202 12.3989 981 102.087 542.776 511.527
756 0 79.094 11.5053 910 99.5022 542.024 508.22
757 0 81.1183 11.9085 966 98.7484 541.993 508.452
758 0 85.1032 12.2675 1044 98.1312 542.383 506.843
759 0 86.1097 11.9383 1028 100.508 542.624 507.082
760 0 90.1061 12.3965 1117 98.7055 542.599 506.974
761 0 94.1255 12.1965 1148 98.3589 541.983 504.262
762 0 96.0977 12.8619 1236 96.9094 542.575 500.585
763 0 98.1912 12.9747 1274 97.4184 542.154 498.801
764 0 101.142 12.5369 1268 98.3588 542.216 496.994
765 0 106.162 13.0084 1381 96.9551 542.048 496.094
766 0 109.24 12.8342 1402 97.2974 542.233 496.076
767 0 113.292 12.6488 1433 98.2094 542.493 493.877
768 0 117.301 13.0263 1528 98.6983 542.419 494.414
769 0 121.232 12.9504 1570 101.683 541.408 489.155
770 1 64.1826 10.8285 695 101.151 542.481 518.553
771 0 67.233 11.8543 797 100.252 542.282 515.124
772 0 69.1959 12.0094 831 99.7064 542.912 513.934
773 0 73.1358 13.4408 983 102.278 543.155 514.154
774 0 74.0687 12.2859 910 105.059 543.462 514.638
775 0 77.0789 12.831 989 103.422 543.388 514.426
776 0 77.1466 12.392 956 105.746 542.905 512.418
777 0 80.041 12.5186 1002 106.051 543.234 510.345
778 0 84.1243 12.743 1072 104.612 542.665 510.231
779 0 85.07 12.4603 1060 106.205 542.95 507.88
780 0 88.0547 12.7194 1120 105.481 543.01 507.872
781 0 91.103 12.3157 1122 105.116 543.276 505.961
782 0 92.0922 12.8241 1181 105.078 543.251 503.135
783 0 96.1025 12.4554 1197 106.725 543.421 501.265
784 0 99.103 12.4113 1230 103.925 543.186 499.439
785 0 104.135 14.0875 1467 101.986 541.877 498.836
786 1 51.0435 10.8927 556 95.491 543.955 524.732
787 0 52.0843 10.4254 543 99.4788 544.149 523.93
788 0 53.1158 11.842 629 97.0111 544.49 520.668
789 0 56.0166 12.5141 701 94.7589 543.083 523.268
790 0 56.0482 12.2752 688 96.3692 544.304 521.927
791 0 59.0909 12.32 728 95.7404 543.867 519.746
792 0 61.0444 12.2042 745 95.7262 544.036 519.593
793 0 63.1012 12.4245 784 95.1122 543.886 517.422
794 0 64.0266 11.8232 757 97.3791 544.725 517.855
795 0 67.0279 11.9353 800 97.2738 544.354 515.706
796 0 70.0608 12.2608 859 96.5553 544.462 514.526
797 0 71.0622 12.7072 903 96.0731 544.285 515.743
798 0 72.0618 13.1137 945 96.3936 544.362 514.034
799 0 76.1167 13.0852 996 96.1657 544.086 513.338
800 0 76.0997 13.1012 997 128.754 543.072 513.142
801 0 82.0939 12.9608 1064 95.7425 544.696 510.337
802 0 83.102 12.6471 1051 95.8468 543.523 507.542
803 0 87.1128 13.2128 1151 106.875 543.811 508.278
804 0 92.0942 13.2582 1221 106.373 543.677 506.732
805 0 94.1124 13.2182 1244 108.014 543.28 506.211
806 0 95.1291 12.9613 1233 110.314 543.586 505.518
807 0 99.14 13.5465 1343 106.666 543.32 504.379
808 0 104.16 13.3065 1386 104.9 543.396 502.992
809 1 55.0208 11.1231 612 104.727 543.245 527.433
810 0 56.0193 11.6924 655 101.127 543.005 525.766
811 0 59.0474 12.2444 723 95.9336 541.791 524.048
812 0 59.0632 12.6813 749 96.4526 542.103 524.107
813 0 60.0262 12.2613 736 95.4755 542.836 523.399
814 0 60.0253 11.6118 697 99.4362 541.93 524.714
815 0 64.0368 12.0868 774 96.9729 541.934 522.466
816 0 64.0518 12.162 779 98.8062 541.514 521.412
817 0 66.0248 12.253 809 98.6836 542.32 522.274
818 0 70.0293 12.3377 864 98.3773 541.529 520.259
819 0 70.0653 11.9745 839 101.236 541.31 519.011
820 0 74.1303 12.9771 962 97.0353 541.924 519.473
821 0 75.0591 12.4302 933 100.582 540.961 515.379
822 0 79.0621 13.0783 1034 98.4342 540.933 514.801
823 0 83.0562 12.8708 1069 98.1197 540.448 514.765
824 0 84.0892 13.3549 1123 98.3473 541.565 513.303
825 0 87.0643 12.8985 1123 99.7222 541.162 511.927
826 0 90.1032 13.1405 1184 98.8615 541.56 511.394
827 0 93.1122 12.8447 1196 101.734 541.02 511.777
828 0 94.0308 12.3789 1164 104.829 540.956 508.899
829 0 97.0935 13.1317 1275 100.671 541.529 508.002
830 0 102.075 13.686 1397 99.8132 541.047 505.417
831 0 105.054 13.117 1378 100.742 539.71 503.78
832 0 109.039 13.2247 1442 100.927 540.056 501.822
833 1 59.0493 11.3464 670 100.943 540.83 527.61
834 0 61.0249 11.1922 683 96.5813 540.84 525.094
835 0 61.0223 11.1435 680 94.3324 542.015 522.3
836 0 64.0389 13.039 835 92.1138 540.584 524.323
837 0 65.0367 11.9471 777 94.0579 541.381 522.932
838 0 68.0312 12.5237 852 91.7465 541.664 521.565
839 0 69.0237 12.2856 848 92.3762 541.407 520.474
840 0 71.0311 12.8676 914 92.0252 540.917 518.972
841 0 73.0759 12.2065 892 94.0437 542.113 516.018
842 0 75.0694 12.3486 927 94.8598 541.217 514.35
843 0 76.0311 11.9688 910 98.8341 541.094 512.894
844 0 81.0291 12.2919 996 96.0833 539.58 511.478
845 0 84.0702 12.4896 1050 95.1467 539.473 510.36
846 0 85.0327 12.8186 1090 94.7083 540.01 510.139
847 0 87.0592 12.5891 1096 96.5082 539.397 508.313
848 0 91.0213 12.0961 1101 97.0627 540.301 507.201
849 0 96.0523 12.8368 1233 94.9659 540.37 504.994
850 1 52.1101 11.7828 614 93.8469 541.031 524.948
851 0 51.012 10.7818 550 88.6709 540.56 520.655
852 0 54.0266 11.3833 615 92.5854 541.049 522.743
853 0 53.0898 11.1509 592 87.7601 540.527 524.167
854 0 53.0561 11.1203 590 91.0203 541.849 525.586
855 0 57.0547 11.6204 663 90.5053 541.6 524.258
856 0 58.1156 11.5115 669 89.7952 541.432 523.356
857 0 61.0402 11.4187 697 89.2912 541.078 522.709
858 0 62.0448 11.1532 692 91.6763 541.01 520.802
859 0 62.0856 11.4519 711 91.955 541.364 519.648
860 0 65.0612 11.4661 746 93.185 541.299 519.08
861 0 69.0282 11.8213 816 91.0184 540.279 517.812
862 0 70.0463 11.1069 778 94.6851 540.176 515.7
863 0 71.0602 11.441 813 94.7626 540.092 515.993
864 0 75.0558 12.0577 905 93.9017 541.167 513.924
865 0 79.0649 11.5981 917 94.8539 540.744 512.955
866 0 80.1228 11.6821 936 94.7735 540.598 511.991
867 1 43.0242 11.9235 513 97.8051 540.411 528.21
868 0 43.0515 12.4502 536 98.5914 539.989 529.289
869 0 44.0349 12.9216 569 98.0861 540.03 527.821
870 0 46.0428 12.597 580 98.9638 541.248 527.522
871 0 47.0729 12.5762 592 102.216 541.061 526.931
872 0 49.0954 12.9136 634 101.738 540.776 525.628
873 0 49.1207 12.1741 598 105.493 541.129 525.829
874 0 52.0556 12.3138 641 103.248 541.515 526.273
875 0 54.0684 12.8356 694 101.872 540.755 526.411
876 0 55.1546 13.163 726 101.935 540.796 525.708
877 0 56.0936 13.5844 762 100.269 541.287 525.062
878 0 56.1372 13.663 767 101.996 541.437 523.254
879 0 58.1116 13.4913 784 101.625 541.352 523.619
880 0 60.1056 13.3931 805 101.574 541.291 523.793
881 0 62.1076 14.1207 877 99.8575 541.535 521.789
882 0 66.1775 14.8238 981 95.8644 541.563 521.301
883 0 66.0868 14.2842 944 98.7924 541.929 519.262
884 0 69.2378 14.6163 1012 97.5603 541.319 517.498
885 0 71.2411 14.472 1031 98.2192 541.267 517.516
886 0 72.1441 14.1661 1022 100.229 541.115 515.884
887 0 75.1722 14.4867 1089 97.932 541.286 515.136
888 0 78.3039 14.5076 1136 97.8028 541.654 514.268
889 0 78.2623 13.8509 1084 99.0221 541.402 513.032
890 0 79.2124 13.5459 1073 99.1128 541.631 511.643
891 0 82.0801 12.9995 1067 93.1153 542.031 508.073
892 0 85.1411 12.9902 1106 94.6709 542.142 509.21
893 0 87.0862 12.6426 1101 97.8447 542.087 507.926
894 1 45.1163 11.3706 513 95.0663 542.328 528.103
895 0 46.145 11.7672 543 95.2265 542.256 529.094
896 0 49.1423 12.0263 591 94.176 542.525 527.068
897 0 49.0211 12.6272 619 93.9838 542.25 526.431
898 0 52.0816 13.0372 679 92.5184 542.564 524.791
899 0 52.0408 12.6055 656 86.872 542.745 521.029
900 0 55.0807 12.7631 703 84.5533 542.828 520.708
901 0 57.0781 12.4741 712 85.118 542.657 519.782
902 0 57.0689 12.739 727 85.0977 542.62 518.733
903 0 59.0588 12.2082 721 86.7282 543.039 517.14
904 0 61.0933 12.7019 776 85.8466 542.964 517.544
905 0 63.0584 12.7501 804 86.7463 542.55 516.928
906 0 66.2084 13.3518 884 85.5113 542.775 515.181
907 0 66.0794 13.1509 869 87.2601 543.322 513.571
908 0 70.1101 12.8084 898 87.8463 543.119 512.648
909 0 72.0628 13.4466 969 92.1899 543.524 512.77
910 0 75.0846 13.2917 998 91.7746 543.403 510.996
911 0 76.1475 13.789 1050 89.5343 543.243 511.07
912 0 78.1213 13.4534 1051 91.1912 543.46 509.864
913 0 81.1227 13.3625 1084 92.2066 543.172 509.364
914 0 83.1193 13.9438 1159 91.1553 543.008 507.722
915 0 86.0861 13.4633 1159 88.1104 542.604 507.181
916 0 87.1624 13.4576 1173 85.6044 542.58 505.156
917 0 91.1101 13.1819 1201 85.6953 542.624 502.961
918 0 95.1179 13.6462 1298 86.6703 542.905 501.404
919 1 50.0761 10.9833 550 87.0582 542.473 523.856
920 0 49.0628 11.8827 583 91.0961 541.542 522.714
921 0 54.1552 12.3349 668 91.1856 541.828 521.615
922 0 56.0523 12.7024 712 86.0955 541.688 520.539
923 0 57.0518 13.0758 746 87.4343 541.611 519.796
924 0 59.2538 12.9106 765 88.0654 541.409 521.413
925 0 62.0753 13.1292 815 87 541.622 520.321
926 0 64.103 13.0103 834 86.7854 541.03 519.312
927 0 65.0621 12.8493 836 88.0203 541.331 518.208
928 0 67.1012 13.353 896 87.029 541.763 518.537
929 0 70.0535 13.6182 954 85.9025 540.933 517.025
930 0 73.1163 12.8152 937 87.6574 540.935 516.812
931 0 76.1067 12.7058 967 90.455 540.288 514.433
932 0 78.0721 13.321 1040 91.3558 540.324 513.222
933 0 82.142 13.0262 1070 92.0047 540.669 512.862
934 0 83.0995 13.0927 1088 93.17 540.005 511.718
935 0 87.053 12.5556 1093 95.3349 540.433 509.679
936 0 90.0952 13.2748 1196 94.265 540.679 507.997
937 0 93.202 13.8087 1287 94.4072 539.961 508.36
938 0 95.2195 13.0856 1246 100.294 539.324 506.77
939 1 48.0236 11.9525 574 94 539.258 530.584
940 0 49.0863 12.916 634 103.506 539.58 529.685
941 0 52.0217 12.5717 654 104.176 539.769 529.298
942 0 54.0308 13.4923 729 100.59 538.669 529.318
943 0 53.0378 14.2163 754 95.8568 539.089 528.565
944 0 55.0088 14.1795 780 96.3359 539.401 529.374
945 0 56.0222 13.923 780 97.9295 539.92 528.841
946 0 60.0976 15.0256 903 94.3068 539.312 527.237
947 0 61.0631 14.7061 898 96.4076 539.107 524.992
948 0 62.0551 14.326 889 98.7042 539.05 524.325
949 0 66.0398 14.567 962 98.8378 539.255 523.025
950 0 69.058 14.7268 1017 97.1288 539.823 521.997
951 0 69.0681 15.0721 1041 105.506 539.388 523.203
952 0 73.054 14.5646 1064 108.177 539.841 520.926
953 0 73.054 14.5919 1066 159.739 539.826 520.974
954 0 77.0572 14.6255 1127 109.704 540.485 518.644
955 0 79.094 14.6408 1158 108.723 540.048 517.756
956 0 84.0876 15.02 1263 98.8187 540.5 516.677
957 0 86.1248 15.5124 1336 101.594 539.784 512.903
958 0 89.1068 15.4309 1375 102.351 540.665 511.996
959 0 89.0668 14.7754 1316 106.432 540.52 509.445
960 0 91.1131 15.4862 1411 104.261 540.094 508.482
961 0 96.13 15.5623 1496 105.158 540.6 505.003
962 0 98.1979 16.1714 1588 104.298 539.866 501.2
963 0 99.0748 15.5741 1543 103.39 540.546 502.905
964 0 104.082 15.5934 1623 103.811 541.03 501.057
965 0 107.092 15.4726 1657 102.783 542.089 499.264
966 0 110.117 15.3383 1689 102.757 542.249 500.414
967 0 113.097 15.6503 1770 101.829 541.763 496.509
968 0 115.172 14.092 1623 107.768 540.896 494.445
969 1 60.1916 12.3605 744 105.558 541.94 516.457
970 0 63.1883 13.0087 822 101.457 541.744 515.839
971 0 65.1246 12.6834 826 94.4092 542.415 518.472
972 0 69.1262 13.0341 901 92.4462 541.856 516.954
973 0 69.0263 13.0385 900 91.9467 541.067 518.506
974 0 74.1614 13.174 977 91.7677 541.619 516.595
975 0 75.2877 12.8175 965 93.7254 541.941 513.214
976 0 76.0265 12.1142 921 93.3996 541.749 512.264
977 0 80.0564 12.3538 989 92.6148 541.47 511.058
978 0 81.0705 13.075 1060 100.908 541.261 513.145
979 0 87.112 13.2818 1157 107.238 542.238 512.799
980 0 89.0288 13.198 1175 110.167 542.053 511.403
981 0 90.0407 12.6832 1142 111.668 542.108 510.265
982 0 95.1022 12.6601 1204 110.709 542.146 509.173
983 0 98.0662 13.3787 1312 97.4451 541.795 507.091
984 0 100.084 12.7193 1273 93.8484 541.187 502.811
985 0 102.122 12.4361 1270 94.548 541.731 501.168
986 0 107.133 12.1998 1307 93.7919 541.77 497.833
987 0 111.088 12.3596 1373 94.6213 541.583 497.153
988 1 62.0382 11.7992 732 92.4495 542.988 524.664
989 0 63.1515 12.8896 814 95.7543 541.088 520.14
990 0 65.0774 12.5082 814 93.1462 542.794 520.998
991 0 68.103 12.5398 854 92.7564 542.269 520.311
992 0 70.1389 12.6321 886 94.4582 542.012 518.15
993 0 74.0451 12.5059 926 91.7397 542.741 517.505
994 0 76.1079 12.7713 972 93.035 542.908 516.55
995 0 79.1214 12.9421 1024 94.2422 542.587 513.579
996 0 81.1519 12.5567 1019 95.8214 542.21 513.311
997 0 81.0854 11.975 971 99.6632 542.12 510.74
998 0 84.2296 12.1335 1022 99.455 542.872 509.35
999 0 90.1806 12.6635 1142 97.437 542.558 507.451
1000 0 92.1065 13.061 1203 96.8047 541.848 505.502
1001 0 93.2285 12.3246 1149 99.4543 542.212 504.614
1002 0 98.1367 12.452 1222 98.347 542.105 501.948
1003 1 52.0492 11.6428 606 99.1947 543.201 526.543
1004 0 53.0498 11.2536 597 94.6231 543.506 524.469
1005 0 55.058 11.6786 643 93.4277 544.079 524.731
1006 0 53.0408 10.4071 552 94.4982 542.839 525.326
1007 0 55.0312 10.4486 575 93.753 542.823 524.511
1008 0 54.1181 9.97817 540 95 543.485 522.933
1009 0 58.0523 11.0418 641 89.0842 542.95 526.64
1010 0 59.0684 10.4455 617 91.812 543.327 525.405
1011 0 62.0725 10.5522 655 92.6183 543.168 522.722
1012 0 64.0943 11.249 721 91.068 543.865 522.605
1013 0 67.1621 11.9115 800 88.8275 543.62 520.219
1014 0 68.1312 11.5072 784 90.5523 543.871 519.018
1015 0 69.0762 11.4367 790 91.5772 543.685 518.051
1016 0 72.0708 11.6552 840 90.4262 543.082 517.38
1017 0 74.0802 12.014 890 90.5371 543.401 514.939
1018 0 77.0953 12.1927 940 89.7628 544.543 513.676
1019 0 79.0746 12.0772 955 91.3183 544.223 512.072
1020 0 82.0672 11.8318 971 91.7765 543.469 512.323
1021 0 84.1245 12.5766 1058 89.9461 544.792 510.698
1022 0 86.1267 12.1913 1050 90.6019 544.342 509.109
1023 0 89.0359 12.422 1106 93.4873 544.524 507.979
1024 0 89.1262 12.1738 1085 92.9816 544.014 506.331
1025 0 92.1142 11.9634 1102 94.3167 544.423 504.268
1026 0 97.0953 12.2148 1186 92.0776 543.969 502.951
1027 1 51.0413 10.6776 545 87.244 544.976 526.442
1028 0 52.0168 10.2082 531 87.5104 544.352 527.25
1029 0 54.0102 10.424 563 87.1847 544.274 526.041
1030 0 57.0332 11.8703 677 84.034 543.681 523.53
1031 0 56.0891 12.2127 685 88.1007 543.847 523.372
1032 0 57.1362 10.8863 622 87.5643 543.635 525.056
1033 0 60.1987 11.7112 705 86.1035 543.627 523.742
1034 0 61.1284 11.435 699 88.877 543.114 522.572
1035 0 61.0724 11.7729 719 91.4492 542.897 521.958
1036 0 64.0881 12.2644 786 91.2519 542.824 520.344
1037 0 66.0523 12.1873 805 90.7963 543.042 520.347
1038 0 70.031 12.5373 878 89.2563 542.981 517.809
1039 0 71.0877 12.365 879 90.1502 543.015 517.927
1040 0 72.062 12.2256 881 91.3519 542.764 516.005
1041 0 76.0805 12.2107 929 91.3068 542.926 514.172
1042 0 77.0899 12.6735 977 91.4534 543.084 511.477
1043 0 81.1044 12.6504 1026 92.425 542.475 511.934
1044 0 83.0888 12.1677 1011 91.8892 542.597 512.22
1045 0 87.0716 12.1394 1057 92.035 542.837 509.377
1046 0 89.1517 12.4619 1111 90.6409 541.79 508.342
1047 0 91.1629 12.7135 1159 90.3589 542.848 506.83
1048 0 96.1863 12.6733 1219 91.0189 542.389 504.427
1049 0 98.0921 12.0703 1184 91.0946 542.342 506.554
1050 0 102.111 12.222 1248 90.0954 542.333 503.696
1051 1 51.1011 10.8608 555 96.4757 543.081 526.714
1052 0 53.0902 11.8854 631 92.5705 543.271 525.539
1053 0 56.0663 12.289 689 88.061 541.91 525.869
1054 0 58.0177 12.6168 732 90.1489 541.413 522.81
1055 0 59.0176 12.4539 735 91.4503 542.403 523.777
1056 0 63.1366 12.2433 773 90.6145 542.913 523.001
1057 0 62.181 12.7209 791 90.3666 542.279 521.947
1058 0 66.0638 13.6383 901 88.2076 542.592 521.695
1059 0 67.0818 12.7904 858 92.5315 542.153 519.742
1060 0 70.1553 13.4416 943 90.6522 542.582 519.331
1061 0 72.2068 12.6304 912 93.4518 542.407 518.222
1062 0 73.2642 13.0487 956 94.8483 542.342 518.292
1063 0 74.1085 12.9405 959 96.9395 541.955 517.935
1064 0 76.1853 12.5221 954 98.1111 541.613 516.202
1065 0 77.0797 11.9876 924 100.571 541.736 514.329
1066 0 81.1517 12.9141 1048 98.5448 541.186 511.993
1067 0 82.1561 12.391 1018 98.9558 542.08 509.463
1068 0 85.1836 12.5728 1071 100.391 542.674 510.317
1069 0 87.1848 12.3187 1074 100.597 541.912 504.089
1070 0 90.1812 12.4971 1127 100.138 542.07 501.745
1071 1 46.0746 10.0923 465 96.0495 542.351 525.234
1072 0 49.0739 11.0038 540 97.6741 543.346 523.857
1073 0 50.1227 11.3721 570 99.7263 543.032 526.632
1074 0 52.0154 13.0154 677 105.182 544.495 529.976
1075 0 53.0134 12.8835 683 107.199 543.757 528.848
1076 0 55.0094 13.2886 731 104.242 543.535 528.74
1077 0 56.0218 13.1556 737 104.92 543.293 528.426
1078 0 58.0085 13.136 762 104.474 543.63 525.829
1079 0 60.0473 13.2562 796 102.893 543.628 525.242
1080 0 61.0265 13.2565 809 102.598 543.828 525.866
1081 0 62.0381 13.4272 833 102.888 543.451 523.035
1082 0 66.0133 13.4973 891 101.343 544.267 521.055
1083 0 69.0755 13.2029 912 102.093 543.538 519.86
1084 0 70.0537 13.4326 941 102.177 543.843 519.574
1085 0 72.0635 13.5159 974 101.573 543.414 516.823
1086 0 73.089 12.9705 948 102.499 543.535 517.893
1087 0 77.1697 13.3343 1029 100.336 542.981 516.849
1088 0 78.1352 12.0176 939 98.066 542.529 519.52
1089 0 80.1419 12.403 994 109.257 542.333 517.248
1090 0 84.0745 12.4889 1050 108.843 543.303 515.51
1091 1 45.0303 11.7254 528 116.322 543.339 532.816
1092 0 46.0215 12.6245 581 113.291 543.275 533.105
1093 0 50.0928 12.5168 627 112.868 541.368 531.443
1094 0 51.0399 13.127 670 108.343 541.543 531.466
1095 0 50.0495 13.3068 666 107.255 541.695 530.701
1096 0 51.0973 13.0535 667 108.1 541.852 530.198
1097 0 54.0192 13.8099 746 104.673 541.551 529.767
1098 0 55.0681 13.9645 769 104.861 542.304 527.779
1099 0 56.0136 13.3896 750 106.915 543.916 532.14
1100 0 56.0121 13.3721 749 141.431 545.925 532.195
1101 0 61.0242 13.9125 849 104.422 543.561 528.205
1102 0 62.0402 13.6202 845 104.907 543.226 526.839
1103 0 64.0813 14.7157 943 101.931 543.207 526.144
1104 0 66.0665 15.0757 996 101.459 542.964 525.42
1105 0 66.0636 14.1379 934 104.773 542.661 523.217
1106 0 68.0343 14.3016 973 105.649 542.46 521.512
1107 0 73.0543 14.4824 1058 103.664 542.276 520.97
1108 0 74.0685 14.5136 1075 105.367 542.622 519.366
1109 0 75.0874 13.9304 1046 110.597 542.662 519.438
1110 0 78.0474 13.8249 1079 107.356 542.8 518.298
1111 0 78.0474 13.7737 1075 151.131 543.789 518.261
1112 0 86.0678 14.3724 1237 106.452 542.559 514.939
1113 0 86.0906 12.9863 1118 112.355 542.866 516.095
1114 1 45.044 12.4989 563 118.87 543.33 533.622
1115 0 46.0913 12.7573 588 116.859 541.891 532.634
1116 0 47.0239 13.0572 614 117.358 542.938 531.467
1117 0 49.0355 13.3577 655 116.821 543.475 530.777
1118 0 51.0225 14.523 741 112.318 542.661 530.609
1119 0 53.0857 14.5425 772 111.005 542.408 529.334
1120 0 54.1168 13.9328 754 113.492 542.345 528.346
1121 0 53.0151 13.8262 733 112.151 541.925 530.801
1122 0 56.0466 13.7564 771 112.14 542.577 529.664
1123 0 56.0365 14.4727 811 111.086 542.345 527.577
1124 0 56.0701 13.7328 770 115.104 541.978 527.922
1125 0 58.1196 13.5582 788 116.41 542.313 527.063
1126 0 62.0739 13.2423 822 116.511 542.675 526.008
1127 0 63.086 14.0602 887 116.431 542.001 524.888
1128 0 64.0647 13.5956 871 119.798 541.959 523.6
1129 0 67.0371 13.6492 915 119.89 542.205 522.657
1130 0 70.0508 13.7614 964 120.438 541.904 521.432
1131 0 71.0653 13.762 978 122.319 542.313 519.598
1132 0 74.0922 13.6182 1009 122.605 542.657 519.056
1133 0 75.0742 13.5333 1016 123.204 542.461 518.302
1134 0 77.065 13.3783 1031 124.77 542.614 515.891
1135 0 80.1381 13.7513 1102 123.621 542.149 515.466
1136 0 82.1458 13.7439 1129 124.395 542.265 515.804
1137 0 85.1347 13.6372 1161 124.852 542.133 511.584
1138 0 87.0766 13.5053 1176 125.55 542.303 507.769
1139 0 91.0392 13.5546 1234 123.459 542.347 503.361
1140 1 45.0704 11.9147 537 126.354 542.147 524.026
1141 0 48.0517 12.2993 591 124.411 542.213 524.726
1142 0 51.0886 13.0166 665 121.018 542.728 525.962
1143 0 52.0193 13.3796 696 125.329 542.624 530.221
1144 0 54.0801 13.7204 742 124.395 542.976 528.705
1145 0 56.0278 13.7075 768 123.544 542.206 528.38
1146 0 58.0902 13.6512 793 123.967 542.517 527.382
1147 0 61.0256 14.5349 887 121.107 541.407 525.727
1148 0 63.0487 14.5602 918 120.558 541.159 523.015
1149 0 65.0939 14.7787 962 120.758 541.351 521.287
1150 0 67.2117 14.1791 953 107.733 541.981 518.654
1151 0 68.0746 14.5135 988 108.725 541.374 517.438
1152 0 70.1142 14.6333 1026 106.613 541.133 517.035
1153 0 70.1892 13.8768 974 110.853 540.71 514.869
1154 0 76.1382 14.3161 1090 107.303 541.446 514.66
1155 0 76.1355 14.4479 1100 108.683 541.385 510.978
1156 0 78.1222 14.2981 1117 108.188 541.25 510.024
1157 0 79.0931 13.7433 1087 109.306 541.168 508.474
1158 0 83.1088 13.8253 1149 108.225 540.717 506.283
1159 0 84.1279 13.7885 1160 108.692 541.014 505.926
1160 0 88.1449 14.0337 1237 107.044 540.736 502.925
1161 0 94.1504 14.7318 1387 102.593 540.415 500.609
1162 0 96.2314 14.4651 1392 104.686 540.216 499.032
1163 0 100.196 14.5015 1453 103.458 540.114 497.614
1164 0 104.083 14.767 1537 102.333 540.284 495.318
1165 1 51.0594 12.0644 616 107.472 540.289 520.782
1166 0 54.0809 13.4983 730 105.703 540.981 525.416
1167 0 56.053 12.9342 725 106.287 540.912 523.52
1168 0 56.097 13.5123 758 104.46 540.893 522.743
1169 0 58.1321 14.0026 814 102.102 541.055 521.364
1170 0 63.1413 14.032 886 98.4074 541.344 522.98
1171 0 65.0479 13.6515 888 99.2095 541.093 521.218
1172 0 68.1853 13.6686 932 98.2264 541.242 520.173
1173 0 66.0903 14.1927 938 98.5992 541.154 518.499
1174 0 70.1041 13.9079 975 98.2923 540.9 515.535
1175 0 71.1089 14.0348 998 98.7485 540.266 513.681
1176 0 77.2475 12.1557 939 102.67 540.469 510.474
1177 0 76.0569 13.0823 995 101.94 540.178 507.807
1178 0 76.0699 13.1984 1004 103.903 540.602 505.335
1179 0 80.1073 13.7566 1102 103.269 539.811 502.895
1180 0 81.1737 13.5142 1097 105.063 540.323 501.472
1181 0 86.0915 13.9387 1200 103.987 539.738 503.085
1182 0 88.1327 13.6726 1205 105.539 540.378 502.607
1183 0 91.0838 13.515 1231 107.099 540.061 500.399
1184 0 95.1245 13.8976 1322 106.09 539.978 498.468
1185 0 99.1695 14.0971 1398 107.166 540.407 497.903
1186 0 102.104 13.4176 1370 109.023 540.318 496.793
1187 0 108.098 14.5979 1578 105.979 540.63 493.032
1188 0 112.126 14.0021 1570 106.956 540.232 491.311
1189 0 114.11 13.7762 1572 111.448 540.596 486.852
1190 1 59.1053 11.4034 674 106.408 539.886 517.458
1191 0 61.0834 12.4747 762 103.655 540.24 515.617
1192 0 64.0366 13.383 857 105.522 540.508 515.992
1193 0 66.0354 13.4776 890 107.892 540.066 518.562
1194 0 68.0386 13.1837 897 111.03 539.93 516.852
1195 0 71.021 13.503 959 111.555 539.4 515.28
1196 0 72.1084 13.6461 984 111.804 541.976 516.656
1197 0 76.1206 13.8465 1054 111.403 542.198 515.458
1198 0 78.0838 13.7929 1077 113.054 542.308 513.922
1199 0 81.1094 13.8085 1120 113.115 541.712 514.227
1200 0 82.1089 14.1032 1158 112.648 541.245 513.484
1201 0 83.0602 13.5444 1125 115.775 541.089 511.958
1202 0 86.1169 12.9824 1118 114.481 541.061 510.072
1203 0 89.1006 13.6475 1216 112.566 541.101 508.736
1204 0 94.0882 13.7956 1298 109.73 540.841 506.797
1205 0 97.1397 13.9902 1359 109.058 540.593 504.942
1206 0 101.096 14.0658 1422 107.393 540.127 503.388
1207 1 58.2069 11.1155 647 109.306 541.046 525.117
1208 0 59.1057 12.2662 725 106.676 540.16 524.283
1209 0 63.1208 13.2444 836 109.484 540.568 525.493
1210 0 63.0951 12.3306 778 106.461 540.428 526.066
1211 0 64.1716 12.5289 804 107.27 539.465 523.081
1212 0 69.214 12.7864 885 103.968 539.537 522.184
1213 0 69.0924 12.5195 865 104.403 539.679 519.949
1214 0 69.16 12.3771 856 106.645 540.501 518
1215 0 72.1349 11.9914 865 107.412 540.33 516.757
1216 0 75.0718 11.8953 893 107.709 540.028 516.769
1217 0 78.0889 12.2937 960 107.343 539.95 514.797
1218 0 82.0685 12.6114 1035 105.843 539.897 514.029
1219 0 83.1556 12.2662 1020 106.993 539.98 513.307
1220 0 86.2035 12.4821 1076 106.45 539.869 510.928
1221 0 87.163 12.1841 1062 108.143 539.445 508.411
1222 0 90.1939 12.4177 1120 108.279 540.195 506.372
1223 0 92.1943 12.7123 1172 106.794 540.257 506.611
1224 0 96.1843 12.736 1225 106.127 540.231 503.986
1225 0 99.2077 12.9929 1289 105.797 540.686 501.153
1226 0 102.173 12.4593 1273 108.349 540.103 495.663
1227 0 105.233 12.7242 1339 106.393 540.781 493.674
1228 1 53.1353 10.8214 575 103.372 540.55 518.32
1229 0 53.3079 10.7676 574 102.324 540.547 518.364
1230 0 56.3203 11.7719 663 98.6606 540.308 519.164
1231 0 63.253 12.7741 808 98.2772 541.416 523.551
1232 0 64.1571 12.1109 777 99.5084 540.526 522.598
1233 0 65.2794 13.6337 890 96.0663 540.772 522.49
1234 0 68.2738 13.1383 897 97.1026 540.541 520.317
1235 0 70.3356 13.2223 930 96.6097 541.188 517.402
1236 0 69.1193 13.021 900 96.2611 541.133 516.529
1237 0 71.1179 12.5425 892 96.9036 542.015 515.778
1238 0 73.1658 12.7245 931 96.1085 542.205 514.531
1239 0 76.1705 12.4326 947 99.4541 541.688 514.203
1240 0 78.1104 12.6488 988 98.2763 541.564 512.74
1241 0 77.1002 11.4656 884 103.626 541.492 513.456
1242 0 78.1771 11.653 911 103.059 540.918 511.285
1243 0 83.3328 12.3961 1033 97.8596 540.904 510.081
1244 0 85.3679 12.3349 1053 98.0931 541.48 506.675
1245 0 84.2728 12.2222 1030 99.2534 541.784 505.182
1246 0 89.3214 12.9084 1153 97.2316 542.121 503.632
1247 0 91.3367 13.0835 1195 97.1824 541.176 500.967
1248 0 92.2389 12.576 1160 99.8733 541.616 498.907
1249 0 94.2752 13.0363 1229 98.6623 540.308 498.6
1250 0 97.2831 12.8594 1251 99.2574 541.448 497.367
1251 0 100.231 13.5387 1357 97.5917 541.383 496.063
1252 0 102.244 13.3407 1364 96.9809 541.826 493.687
1253 0 108.208 13.3817 1448 98.5021 541.981 493.758
1254 0 111.342 13.2116 1471 99.3127 541.152 490.777
1255 0 117.264 13.5421 1588 98.1486 541.72 487.601
1256 0 120.299 13.3251 1603 97.5009 542.293 484.913
1257 1 56.1702 9.88069 555 100.25 543.115 517.445
1258 0 59.16 10.311 610 101.395 542.154 514.767
1259 0 58.1141 10.5826 615 102.47 541.333 511.59
1260 0 65.1317 12.5592 818 100.709 542.488 518.346
1261 0 67.1152 12.635 848 98.5519 541.968 518.65
1262 0 70.1351 12.2906 862 99.348 541.579 516.579
1263 0 73.1309 13.1682 963 97.865 541.554 517.532
1264 0 76.2228 14.0247 1069 95.7502 542.101 515.972
1265 0 77.1384 13.9619 1077 96.9972 541.496 513.118
1266 0 78.2333 14.1883 1110 97.8559 541.609 512.757
1267 0 82.1771 13.9212 1144 99.3094 541.996 511.707
1268 0 85.3248 13.9467 1190 99.1387 541.645 509.974
1269 0 87.4173 14.1048 1233 101.935 541.436 505.641
1270 0 91.3803 14.4123 1317 101.574 541.235 506.85
1271 0 91.2184 13.813 1260 104.223 541.582 505.874
1272 0 95.2969 14.1453 1348 102.545 541.576 504.451
1273 0 98.3844 14.1486 1392 102.545 541.486 504.864
1274 0 101.35 14.366 1456 101.192 541.286 502.933
1275 0 104.265 14.444 1506 99.9024 541.511 502.789
1276 0 105.234 13.7312 1445 101.775 541.518 501.572
1277 0 108.313 13.4148 1453 102.948 541.419 498.853
1278 0 113.362 13.5231 1533 100.223 541.864 496.531
1279 1 48.2691 11.6638 563 90.1101 542.453 531.828
1280 0 49.2156 11.8865 585 91.7043 543.354 529.735
1281 0 50.1948 11.7941 592 96.5473 542.699 529.301
1282 0 51.0366 12.0894 617 96.8217 542.079 530.141
1283 0 50.1663 12.4187 623 98.8459 542.443 528.156
1284 0 55.0785 12.6002 694 97.2752 541.811 527.336
1285 0 55.0606 12.6225 695 97.8101 542.448 527.082
1286 0 56.077 12.5185 702 97.9145 542.358 527.199
1287 0 59.1198 13.109 775 96.4645 542.174 526.661
1288 0 61.0479 12.6294 771 97.9157 542.102 524.52
1289 0 62.0697 12.1154 752 100.219 542.891 523.985
1290 0 63.1281 12.7994 808 97.9196 543.244 524.356
1291 0 65.1883 12.6556 825 98.977 542.807 521.537
1292 0 68.085 12.6313 860 98.4023 542.896 521.471
1293 0 70.088 13.2833 931 95.9463 542.947 520.578
1294 0 73.1073 12.6253 923 97.5092 542.875 517.239
1295 0 76.0436 12.7558 970 94.6031 542.57 516.755
1296 0 78.0578 12.5548 980 93.6571 542.563 516.518
1297 0 79.0651 12.7616 1009 93.4509 541.604 515.272
1298 0 81.0466 12.0301 975 93.4759 541.457 512.777
1299 0 85.1199 12.5 1064 92.0714 541.691 510.973
1300 1 47.0533 11.0938 522 85.3372 542.019 531.816
1301 0 48.0269 11.3062 543 84.7569 542.028 531.54
1302 0 50.0215 12.1548 608 84.3734 542.556 530.04
1303 0 52.0629 12.2928 640 84.2578 542.434 526.158
1304 0 54.0751 12.3347 667 83.0795 542.054 525.397
1305 0 54.088 12.5351 678 83.4115 542.372 526.562
1306 0 55.0882 12.126 668 88.7784 541.567 524.385
1307 0 56.1966 12.3673 695 88.4504 542.335 525.299
1308 0 58.0885 12.2227 710 89.9197 542.128 523.642
1309 0 60.1968 12.6917 764 88.1361 542.069 523.821
1310 0 60.1271 12.7397 766 88.7141 541.886 523.842
1311 0 62.1191 12.2346 760 89.1645 541.832 523.43
1312 0 66.1112 13.2353 875 87.608 541.814 523.979
1313 0 66.1198 11.7968 780 91.6795 542.004 520.673
1314 0 68.1026 12.7014 865 90.1457 542.325 521.779
1315 0 69.1006 12.2864 849 89.1684 542.344 519.243
1316 0 73.1255 13.2922 972 91.2634 542.735 519.037
1317 0 74.1352 12.6121 935 92.9529 542.461 518.006
1318 0 76.1185 12.9403 985 91.6508 542.673 517.645
1319 0 77.1439 11.9517 922 94.846 542.113 517.073
1320 0 81.2231 12.0409 978 94.7372 542.178 516.533
1321 0 81.1385 12.3862 1005 96.7403 542.376 515.393
1322 0 85.1097 12.854 1094 95.6289 542.036 513.513
1323 0 88.1011 12.3721 1090 98.0119 541.756 511.493
1324 1 48.0334 10.8258 520 94.2385 542.529 531.79
1325 0 50.1008 10.8781 545 94.7413 543.409 531.686
1326 0 54.009 11.2018 605 94.1207 544.577 530.607
1327 0 55.0238 12.3946 682 92.9208 542.787 529.889
1328 0 54.037 11.1405 602 96.098 544.008 524.681
1329 0 56.0147 11.9076 667 95.2714 542.474 523.885
1330 0 60.0717 12.1854 732 100.52 542.522 527.051
1331 0 57.1113 11.9416 682 94.827 542.019 529.101
1332 0 61.1369 11.2534 688 95.0131 541.315 527.811
1333 0 61.1812 10.9674 671 96.3562 541.934 526.213
1334 0 63.1092 11.6306 734 95.5368 541.76 525.738
1335 0 66.1236 10.919 722 95.5997 542.015 524.957
1336 0 67.0783 11.3897 764 94.3141 540.876 524.817
1337 0 68.1403 11.0654 754 96.118 541.523 522.881
1338 0 73.1346 11.2259 821 94.6626 541.428 522.618
1339 0 74.1862 11.0937 823 97.7594 541.351 521.67
1340 0 76.2401 11.3982 869 98.5501 540.84 520.563
1341 0 80.1388 11.5799 928 97.8384 541.005 518.633
1342 0 81.1166 11.2431 912 101.442 541.569 517.695
1343 0 83.1396 11.7994 981 102.358 541.219 515.331
1344 0 86.1664 11.4198 984 104.035 541.133 512.806
1345 0 90.1755 11.4665 1034 103.406 541.121 514.276
1346 0 91.2313 11.7613 1073 102.824 541.116 512.665
1347 0 94.1398 11.0262 1038 104.779 540.263 510.37
1348 1 51.1776 10.8837 557 104.803 541.147 530.364
1349 0 52.1637 11.2914 589 104.75 540.497 530.883
1350 0 55.0907 12.4159 684 101.876 540.858 530.55
1351 0 52.1245 10.8778 567 94.9206 540.372 532.476
1352 0 53.0679 10.8729 577 96.5286 539.676 531.697
1353 0 54.1208 10.957 593 97.0219 539.698 530.47
1354 0 55.0828 10.5841 583 98.1115 539.671 528.928
1355 0 57.1111 10.8385 619 98.2359 540.048 529.351
1356 0 60.0622 10.256 616 99.1071 540.07 528.471
1357 0 61.0743 11.396 696 98.2874 540.881 526.632
1358 0 65.0966 11.506 749 97.9052 540.599 525.67
1359 0 66.1113 11.284 746 98.4517 540.336 525.255
1360 0 68.0701 11.4294 778 98.8021 540.199 523.446
1361 0 68.1006 11.4243 778 112.031 540.216 523.396
1362 0 73.0722 10.8523 793 101.311 540.013 521.237
1363 0 74.0685 10.2203 757 103.28 539.913 522.225
1364 0 76.1099 10.0907 768 104.431 540.013 521.999
1365 0 78.068 10.5421 823 104.804 539.504 520.35
1366 0 81.1156 9.64056 782 105.847 540.386 519.982
1367 0 82.0628 9.72426 798 105.935 539.806 518.125
1368 0 82.1102 9.36546 769 106.035 540.696 519.105
1369 0 84.1465 9.59042 807 107.943 540.351 518.981
1370 0 91.1664 10.7496 980 117.879 540.233 514.633
1371 0 92.1501 10.4503 963 118.431 539.688 514.146
1372 0 92.2148 10.4972 968 113.593 540.437 513.534
1373 0 95.2669 10.7068 1020 112.645 540.47 512.226
1374 0 98.1245 10.5478 1035 111.552 540.232 510.395
1375 1 119.154 6.57134 783 113.241 539.557 516.065
1376 1 55.0296 10.0128 551 102.842 540.107 530.753
1377 0 57.0495 10.1841 581 91.3477 540.539 527.528
1378 0 60.0886 10.6509 640 93.2641 539.744 526.342
1379 0 60.0682 10.5713 635 92.5008 539.661 528.294
1380 0 60.0964 10.3334 621 98.7472 540.235 526.544
1381 0 60.1019 10.7318 645 100.583 539.819 527.144
1382 0 63.0488 10.5474 665 100.576 540.087 526.621
1383 0 63.1168 10.33 652 100.433 539.664 526.624
1384 0 65.0345 10.4099 677 98.6499 539.578 525.456
1385 0 67.0988 10.2237 686 96.602 539.375 525.108
1386 0 71.1385 11.1894 796 93.2312 539.715 523.788
1387 0 72.1158 11.2319 810 93.5654 539.835 523.191
1388 0 75.0684 11.1898 840 93.4143 539.513 522.699
1389 0 75.1268 10.8749 817 93.3819 539.488 521.414
1390 0 79.117 10.2759 813 92.5756 539.385 521.324
1391 0 80.1933 9.95096 798 92.891 539.175 519.591
1392 0 81.2054 10.1594 825 91.6521 539.447 518.098
1393 0 84.1661 10.1347 853 91.2896 539.904 518.667
1394 0 86.2215 10.2063 880 91.8523 539.451 516.73
1395 1 49.0835 10.8794 534 85.3652 540.18 534.946
1396 0 47.1776 10.789 509 89.6228 540.269 532.756
1397 0 48.1902 10.6868 515 92.2214 538.909 527.229
1398 0 50.0581 10.348 518 97.1081 538.297 528.531
1399 0 51.0655 10.3005 526 100.038 538.278 527.454
1400 0 52.0418 11.1065 578 99.0796 538.931 527.299
1401 0 54.0818 11.4271 618 99.7557 538.811 527.354
1402 0 55.0644 11.4775 632 101.032 538.891 526.767
1403 0 56.0651 11.1834 627 104.727 539.043 525.834
1404 0 60.0943 12.2641 737 102.026 539.374 524.754
1405 0 60.0529 11.6564 700 106.564 539.473 522.816
1406 0 63.0463 11.896 750 105.861 538.644 522.757
1407 0 64.0657 11.4414 733 109.671 538.97 522.357
1408 0 65.1159 12.1168 789 109.965 539.783 522.541
1409 0 67.1468 12.5546 843 110.132 539.93 521.599
1410 0 69.1454 12.3797 856 112.563 539.442 519.549
1411 0 71.1702 12.3085 876 114.122 539.282 517.962
1412 0 74.1878 12.7649 947 114.42 538.989 517.516
1413 0 74.1413 12.8673 954 116.417 539.933 518.12
1414 0 77.1254 12.551 968 119.256 540.044 517.182
1415 0 77.1268 12.8879 994 118.903 540.205 516.818
1416 0 81.1126 12.7107 1031 118.681 540.376 516.368
1417 0 82.1223 13.0294 1070 119.106 540.723 517.292
1418 0 84.1508 13.0124 1095 119.885 541.288 513.606
1419 0 88.1476 13.4093 1182 117.168 540.32 510.827
1420 0 91.1793 13.9067 1268 115.182 540.782 509.75
1421 0 93.2198 13.1303 1224 116.378 540.22 508.148
1422 0 95.1349 13.2549 1261 117.999 540.405 506.334
1423 0 98.2213 12.6856 1246 116.926 540.694 505.179
1424 0 99.169 12.8266 1272 117.195 541.07 503.15
1425 0 102.141 12.8254 1310 117.447 541.202 501.682
1426 1 52.1808 10.6744 557 113.408 541.329 528.508
1427 0 55.1418 11.4251 630 109.667 541.841 528.171
1428 0 58.0833 11.4319 664 107.616 541.682 526.024
1429 0 60.1218 12.6244 759 111.978 541.596 525.675
1430 0 61.087 12.9488 791 114.145 541.742 523.776
1431 0 64.1069 13.1343 842 111.354 541.576 523.156
1432 0 66.1023 13.3429 882 108.223 541.942 521.308
1433 0 69.1367 12.9309 894 107.311 541.275 520.753
1434 0 70.1312 13.3179 934 105.018 542.22 518.677
1435 0 72.0894 13.3307 961 106.347 542.124 517.933
1436 0 77.142 13.9353 1075 101.94 541.575 515.901
1437 0 79.0906 13.1495 1040 102.352 541.554 515.069
1438 0 79.1007 12.9708 1026 102.467 541.659 512.968
1439 0 83.11 13.0911 1088 99.9467 541.37 512.191
1440 0 86.1298 13.0036 1120 99.8393 541.45 511.066
1441 0 87.1608 12.9645 1130 100.569 540.965 507.081
1442 0 90.1612 12.7993 1154 99.6958 540.548 504.711
1443 0 90.163 12.8101 1155 127.926 540.543 504.727
1444 0 95.1038 12.418 1181 100.711 539.822 503.439
1445 0 99.111 12.7433 1263 99.5717 539.329 501.962
1446 0 100.114 12.6756 1269 99.4208 539.97 499.805
1447 1 51.1655 10.2022 522 100.439 540.854 524.216
1448 0 50.0979 9.98046 500 87.476 541.426 520.062
1449 0 51.1207 10.1133 517 86.6712 540.348 518.646
1450 0 52.0767 10.1581 529 80.1834 540.495 519.484
1451 0 56.0669 10.1129 567 79.5697 540.265 520.138
1452 0 57.0429 10.273 586 80.099 539.654 517.91
1453 0 59.0158 9.53981 563 82.6572 540.266 518.952
1454 0 61.0623 10.6776 652 88.8604 539.916 520.198
1455 0 64.0462 10.3675 664 88.4895 540.113 521.048
1456 0 67.0234 10.5187 705 88.8241 539.377 520.22
1457 0 68.0336 11.0093 749 87.972 539.612 518.338
1458 0 69.0544 10.6438 735 88.4762 539.898 517.952
1459 0 72.0525 10.4924 756 88.1376 540.007 518.009
1460 0 75.0354 10.8615 815 87.3828 539.29 515.618
1461 0 75.0656 10.3376 776 88.2423 540.201 512.692
1462 0 79.0676 10.9147 863 86.7764 539.885 510.986
1463 0 81.1073 10.4553 848 83.0153 540.294 510.607
1464 0 85.0426 10.724 912 82.6283 540.28 510.565
1465 0 86.0378 10.4721 901 84.1809 539.983 507.583
1466 0 91.0782 11.6384 1060 79.8849 539.497 505.198
1467 0 94.2067 11.7932 1111 80.0846 539.021 501.285
1468 1 49.0453 9.48103 465 78.2301 539.045 524.761
1469 0 53.0272 9.86286 523 77.5449 539.491 524.008
1470 0 52.063 10.6218 553 79.5913 539.682 521.027
1471 0 55.1248 11.0477 609 84.0476 541.314 524.599
1472 0 57.1049 11.6802 667 83.8726 540.79 523.609
1473 0 59.1027 12.0468 712 83.5098 540.858 524.898
1474 0 61.109 11.8149 722 85.5706 540.084 522.464
1475 0 64.0835 12.1404 778 84.5488 540.433 520.127
1476 0 65.0916 12.0907 787 86.3685 540.051 519.765
1477 0 67.1507 12.0028 806 87.1675 540.499 519.9
1478 0 70.0668 12.7022 890 85.764 539.629 518.848
1479 0 72.143 12.198 880 85.8966 540.403 517.608
1480 0 74.1236 11.926 884 85.7387 539.983 516.469
1481 0 76.1173 12.4019 944 85.0095 540.815 514.595
1482 0 76.1684 11.2908 860 87.3302 540.272 512.796
1483 0 80.1763 11.7491 942 86.1401 540.666 513.074
1484 0 83.1218 12.223 1016 84.9882 540.142 510.757
1485 1 44.0655 10.1213 446 89.4888 541.065 530.805
1486 0 45.0702 11.2269 506 91.1462 540.686 530.777
1487 0 47.0463 11.4993 541 94.7652 541.656 530.137
1488 0 49.115 12.5013 614 93.9577 540.506 528.002
1489 0 47.0904 11.4248 538 90.7584 542.06 531.539
1490 0 47.0491 11.1798 526 93.5152 541.3 531.055
1491 0 50.0859 11.7798 590 91.3424 541.564 529.688
1492 0 51.0981 11.6834 597 91.9564 542.08 528.958
1493 0 51.0419 11.7355 599 93.4775 540.761 529.746
1494 0 53.0823 11.68 620 94.4323 542.118 527.714
1495 0 54.1596 11.4476 620 94.6436 541.216 526.668
1496 0 54.0768 11.3727 615 96.4878 541.38 527.011
1497 0 56.1881 11.3547 638 97.0784 541.401 526.997
1498 0 58.0978 11.997 697 97.1047 540.646 525.012
1499 0 60.1309 12.1235 729 95.5075 541.111 524.012
1500 0 63.1675 12.2848 776 94.5619 541.089 522.428
1501 0 64.2033 11.6038 745 95.7745 540.95 521.517
1502 0 64.157 12.0797 775 94.7471 541.484 518.375
1503 0 67.1944 11.995 806 94.072 540.994 519.568
1504 0 68.0823 11.6183 791 95.0392 540.882 518.048
1505 0 71.1537 12.0022 854 96.0749 540.393 516.806
1506 0 73.1381 11.5125 842 96.3135 540.38 516.872
1507 0 75.1425 12.2168 918 93.7462 540.44 514.873
1508 0 77.1238 11.7862 909 93.8218 540.465 514.602
1509 0 79.0965 11.29 893 92.2788 541.224 512.479
1510 0 82.0793 12.2199 1003 91.3958 540.962 510.939
1511 0 86.0865 12.6617 1090 89.8908 541.514 509.902
1512 0 89.0713 12.17 1084 91.1679 541.189 509.849
1513 0 88.1594 11.638 1026 94.232 540.65 508.567
1514 1 50.1148 10.9748 550 92.8455 541.267 526.656
1515 0 50.0819 11.5411 578 92.5 541.325 525.792
1516 0 52.1068 12.3976 646 90.5805 541.916 525.899
1517 0 56.031 13.314 746 87.5871 541.491 524.56
1518 0 56.0554 12.5947 706 98.1983 541.419 523.394
1519 0 57.0358 12.0275 686 96.1414 541.264 521.567
1520 0 59.0585 12.0728 713 95.6971 541.432 521.137
1521 0 62.0274 12.0108 745 95.0832 542.187 521.369
1522 0 64.0389 12.633 809 93.5501 542.383 518.71
1523 0 65.0453 12.6835 825 93.7624 541.594 517.905
1524 0 66.0575 12.3226 814 95.3514 541.888 516.174
1525 0 71.0396 12.3311 876 95.6644 542.027 515.264
1526 0 74.037 13.4527 996 92.0382 542.113 514.114
1527 0 76.0459 12.5845 957 94.1306 542.263 513.554
1528 0 79.0969 12.8577 1017 94.5231 541.826 511.956
1529 0 80.0968 13.4462 1077 94.7187 541.137 512.612
1530 0 85.1205 12.5117 1065 95.8225 541.089 511.989
1531 0 87.0594 12.5776 1095 95.2758 541.866 510.603
1532 1 49.0636 10.68 524 92.7176 542.723 529.813
1533 0 50.0688 10.925 547 91.5119 542.755 529.327
1534 0 52.1068 11.7259 611 88.3093 542.46 527.979
1535 0 51.0468 11.6951 597 86.7672 542.878 529.233
1536 0 53.065 12.0984 642 86.4829 541.944 527.148
1537 0 56.0546 12.2559 687 86.1645 542.448 525.996
1538 0 57.0583 11.7949 673 87.7415 541.853 525.178
1539 0 59.0719 12.5271 740 86.6905 541.809 524.927
1540 0 60.0562 12.5882 756 87.0622 542.153 523.373
1541 0 62.0957 12.7867 794 87.0277 541.802 522.332
1542 0 64.0947 12.5752 806 88.0261 541.577 521.227
1543 0 66.0869 12.4382 822 88.2299 541.583 521.057
1544 0 68.0883 12.6454 861 88.4065 541.583 520.246
1545 0 70.1143 12.6793 889 89.0135 541.909 519.535
1546 0 74.1273 13.3284 988 87.329 541.507 517.41
1547 0 74.1063 12.59 933 91.3237 541.31 515.219
1548 0 78.09 13.7149 1071 89.1008 541.715 515.1
1549 0 79.1277 13.0801 1035 91.3246 541.498 517.338
1550 0 84.1375 13.4779 1134 91.1482 542.054 515.657
1551 0 86.0854 13.8119 1189 91.9294 541.99 513.182
1552 0 87.1549 12.8851 1123 95.6474 541.53 511.957
1553 1 45.059 11.4738 517 99.0426 542.573 531.708
1554 0 46.0678 10.9187 503 100.374 542.07 532.223
1555 0 50.0613 11.9653 599 98.3723 541.599 530.583
1556 0 51.0624 12.2204 624 99.4792 541.619 529.955
1557 0 52.0652 12.3883 645 98.1256 540.876 529.752
1558 0 52.0234 12.7635 664 99.9398 541.482 529.813
1559 0 55.1753 12.9587 715 97.0783 540.943 528.485
1560 0 56.0814 12.8028 718 97.6435 541.545 528.015
1561 0 58.0398 12.6637 735 97.5061 540.78 527.018
1562 0 60.0538 12.6054 757 99.6526 541.355 526.332
1563 0 61.0681 13.4604 822 98.1375 541.129 525.524
1564 0 63.0832 13.3633 843 98.9988 540.745 525.055
1565 0 65.086 13.5513 882 94.7234 540.781 522.669
1566 0 65.0938 13.6265 887 94.4104 540.719 522.957
1567 0 68.0345 13.2433 901 94.3674 540.837 521.24
1568 0 70.0549 13.6464 956 92.1538 541.111 520.538
1569 0 72.0399 13.6452 983 92.0295 541.374 518.703
1570 0 74.0237 13.293 984 92.5854 539.619 517.6
1571 0 77.0566 13.2759 1023 88.7957 539.666 515.653
1572 0 79.0503 14.029 1109 90.5023 539.72 516.597
1573 0 80.1044 13.2952 1065 90.7521 540.225 514.959
1574 0 82.0677 13.1842 1082 94.3041 540.502 515.332
1575 0 84.03 13.4238 1128 94.3005 540.09 513.743
1576 0 87.0847 13.4008 1167 94.0917 540.326 512.105
1577 0 90.0734 13.2781 1196 94.8478 539.347 509.517
1578 0 91.1289 13.1682 1200 97.4483 540.273 507.536
1579 0 95.1133 13.2999 1265 96.5763 539.898 505.378
1580 0 98.077 13.4996 1324 96.3535 539.178 504.897
1581 1 52.0216 11.2453 585 100.511 539.301 525.747
1582 0 55.0332 11.3386 624 98.9936 539.332 525.167
1583 0 55.0252 11.2494 619 100.635 540.307 524.892
1584 0 55.0252 11.2494 619 143.549 541.323 524.877
1585 0 60.1325 13.1543 791 103.407 540.827 523.192
1586 0 62.0911 13.2708 824 101.706 541.552 521.512
1587 0 61.0867 13.1944 806 104.135 541.607 521.569
1588 0 65.1072 13.7158 893 100.23 541.664 520.588
1589 0 68.1787 13.9486 951 99.4248 540.968 519.772
1590 0 67.1723 13.443 903 145.762 539.982 518.997
1591 0 72.0706 13.8614 999 101.799 540.724 518.365
1592 0 74.0765 13.9316 1032 101.642 541.059 517.259
1593 0 75.0946 13.4896 1013 103.5 540.383 515.952
1594 0 78.1136 13.4292 1049 102.79 540.974 515.369
1595 0 80.0459 12.8301 1027 100.195 539.854 514.101
1596 0 82.1233 13.1753 1082 98.9344 540.865 512.65
1597 0 86.1269 13.6543 1176 98.1599 540.64 509.805
1598 0 89.1016 13.0525 1163 100.098 540.447 507.685
1599 0 91.1146 13.3458 1216 99.9515 540.428 505.973
1600 0 92.1193 12.9397 1192 102.633 539.763 505.305
1601 0 97.085 13.1431 1276 101.567 539.562 503.726
1602 0 98.0385 13.2397 1298 103.015 539.263 502.515
1603 1 56.0114 11.694 655 105.693 539.67 524
1604 0 56.022 11.906 667 104.751 540.051 524.799
1605 0 59.0098 12.4217 733 105.457 541.626 522.46
1606 0 61.0934 13.1766 805 106.455 540.001 521.904
1607 0 64.0464 13.053 836 105.834 541.64 520.209
1608 0 66.0592 13.2457 875 105.163 541.61 519.465
1609 0 68.0838 13.6596 930 102.666 540.848 518.905
1610 0 70.0371 13.3929 938 101.567 540.926 517.271
1611 0 73.1207 13.7581 1006 100.049 540.979 516.235
1612 0 76.0528 14.2401 1083 100.036 540.758 516.404
1613 0 77.1386 13.8841 1071 101.613 541.204 513.92
1614 0 80.0658 14.1758 1135 99.5656 541.11 512.53
1615 0 82.1281 14.1243 1160 99.3207 540.716 510.052
1616 0 85.1051 14.2882 1216 99.5855 539.954 508.95
1617 0 86.0889 14.7057 1266 98.9771 540.833 507.44
1618 0 87.0591 13.9331 1213 102.34 540.045 505.368
1619 0 90.1327 14.1125 1272 102.427 539.7 505.551
1620 0 92.1219 14.014 1291 102.92 539.712 505.231
1621 0 93.0705 13.291 1237 104.925 539.359 505.472
1622 0 95.1147 13.7518 1308 104.031 539.808 504.516
1623 0 99.1077 14.2572 1413 104.543 540.174 502.106
1624 0 102.093 14.3203 1462 104.718 540.143 500.27
1625 0 105.093 14.4444 1518 104.834 540.823 498.168
1626 0 107.152 14.0921 1510 107.052 540.561 498.519
1627 0 111.102 14.2842 1587 105.085 540.585 499.041
1628 0 114.151 13.5435 1546 106.358 539.215 497.184
1629 0 119.081 13.8645 1651 104.832 539.689 493.71
1630 0 123.167 14.0298 1728 105.023 539.806 493.08
1631 0 124.137 13.5898 1687 106.981 540.204 491.078
1632 0 130.163 14.0208 1825 106.025 539.587 489.037
1633 0 134.11 14.1004 1891 104.809 539.566 487.141
1634 0 138.202 13.7552 1901 107.349 539.1 483.122
1635 0 143.294 13.8317 1982 107.015 539.893 482.049
1636 0 151.353 14.4761 2191 103.418 539.309 479.182
1637 0 156.288 14.8316 2318 103.706 538.725 476.813
1638 0 158.316 14.3069 2265 105.224 539.012 472.708
1639 0 161.327 13.2526 2138 107.987 538.544 468.365
1640 0 165.209 13.9399 2303 105.807 538.518 461.158
1641 0 171.267 14.0366 2404 105.74 538.304 459.509
1642 0 176.204 13.9724 2462 106.101 538.861 454.56
1643 0 181.265 14.2554 2584 103.224 538.659 452.918
1644 1 105.106 12.1497 1277 105.116 539.233 491.321
1645 0 110.176 13.0337 1436 103.649 538.714 486.486
1646 0 114.092 13.6732 1560 98.7494 540.192 491.099
1647 0 118.156 14.0661 1662 97.1252 539.844 489.727
1648 0 122.165 13.8829 1696 97.9906 539.704 487.827
1649 0 125.198 14.1216 1768 97.5023 539.624 484.735
1650 0 129.236 14.1679 1831 96.852 539.324 479.375
1651 0 130.175 13.6124 1772 100.235 539.645 477.184
1652 0 137.228 14.2464 1955 96.8593 539.688 471.616
1653 0 140.214 13.6933 1920 99.3021 539.652 472.822
1654 0 146.248 14.1677 2072 97.4488 539.159 470.945
1655 0 150.167 14.2908 2146 98.1034 539.698 465.883
1656 0 155.275 13.9752 2170 98.9364 539.465 463.808
1657 0 159.258 13.4687 2145 100.82 540.019 461.555
1658 0 164.234 13.2251 2172 101.163 538.792 458.532
1659 0 167.248 13.5547 2267 100.006 539.816 456.932
1660 0 173.199 14.1687 2454 96.7592 540.04 453.055
1661 0 176.218 13.7613 2425 97.868 539.813 448.11
1662 0 184.143 14.114 2599 96.98 539.918 446.474
1663 0 188.188 14.1401 2661 96.1902 539.468 441.304
1664 0 190.283 13.995 2663 96.9403 539.582 438.769
1665 0 197.317 14.0333 2769 95.7714 540.157 435.576
1666 0 202.324 14.0566 2844 95.9504 540.226 433.496
1667 0 205.377 12.4649 2560 100.306 539.857 433.047
1668 0 211.25 12.8331 2711 89.55 539.726 427.571
1669 0 212.313 10.6588 2263 103.718 538.958 435.633
1670 0 213.323 9.2489 1973 103.928 539.676 445.518
1671 0 211.346 9.60509 2030 103.043 538.512 437.494
1672 1 64.1596 10.0219 643 91.2706 538.799 500.729
1673 0 66.1247 10.0568 665 88.2571 538.45 500.847
1674 1 79.1835 11.3281 897 94.7648 539.452 507.979
1675 0 81.1259 12.043 977 93.1576 540.062 507.389
1676 0 83.1144 11.8391 984 93.6677 539.554 504.671
1677 0 88.1061 12.7233 1121 90.7948 539.768 506.277
1678 0 89.0772 12.4387 1108 91.9098 540.03 505.158
1679 0 91.051 11.9384 1087 94.8077 540.462 504.081
1680 0 96.1558 12.0014 1154 93.948 538.62 502.652
1681 0 97.096 11.9263 1158 95.9076 539.098 499.217
1682 0 99.0785 11.5767 1147 96.5484 538.855 498.983
1683 1 58.0232 9.04811 525 94.9638 539.065 517.573
1684 0 58.0232 9.08258 527 144.966 539.051 517.645
1685 0 63.034 10.5657 666 93.3498 539.068 517.562
1686 0 61.0445 10.3695 633 92.0332 539.964 521.017
1687 0 65.0278 10.5493 686 89.4592 540.599 519.545
1688 0 70.1161 11.21 786 87.0204 541.803 516.086
1689 0 71.0555 11.1181 790 86.5177 541.591 515.275
1690 0 71.1162 10.4196 741 88.085 540.976 516.726
1691 0 72.1157 9.91462 715 88.8364 541.277 515.07
1692 0 75.1178 10.7298 806 87.3139 541.51 513.713
1693 0 78.1267 10.931 854 88.5586 541.982 509.698
1694 0 79.1461 9.82992 778 88.7956 541.182 507.428
1695 0 83.0987 10.5296 875 85.7566 540.409 509.283
1696 0 85.0883 10.354 881 89.1952 541.035 506.205
1697 0 88.149 11.5713 1020 87.402 540.595 506.003
1698 0 91.0962 11.175 1018 87.3487 541.496 504.187
1699 0 94.1721 11.2666 1061 87.3346 540.761 504.592
1700 0 96.1274 11.7552 1130 86.8389 540.85 501.468
1701 0 98.1156 11.6495 1143 87.056 540.054 502.052
1702 0 101.139 11.9736 1211 86.7754 540.619 497.983
1703 0 104.18 11.4801 1196 88.0284 540.537 496.441
1704 0 105.15 11.0984 1167 89.1114 540.697 492.54
1705 0 107.121 11.3983 1221 86.4332 540.791 493.885
1706 0 112.106 12.3812 1388 82.897 541.702 495.337
1707 0 112.106 12.3366 1383 148.541 540.708 495.346
1708 0 117.096 11.7083 1371 83.326 541.669 489.408
1709 0 123.087 12.1784 1499 81.8312 540.801 487.396
1710 0 120.112 11.4726 1378 83.7932 539.917 477.765
1711 1 72.0613 11.0184 794 82.2204 542.21 510.984
1712 0 79.15 11.9899 949 82.588 540.817 514.302
1713 0 80.2567 12.0115 964 83.5114 541.505 513.241
1714 0 83.1953 12.2002 1015 83.1586 541.306 510.29
1715 0 86.2334 12.0139 1036 83.9228 541.739 509.156
1716 0 89.2003 12.6345 1127 82.4525 540.941 507.864
1717 0 91.1173 12.237 1115 86.0117 541.704 505.612
1718 0 94.243 12.7118 1198 84.9591 541.774 506.683
1719 0 98.1842 12.7108 1248 85.032 542.275 504.232
1720 0 99.1548 12.5763 1247 86.1925 541.159 501.854
1721 0 101.192 12.2144 1236 88.1707 542.073 498.999
1722 0 103.137 12.0326 1241 89.0991 540.803 497.513
1723 0 105.276 12.2725 1292 88.1587 540.558 494.265
1724 0 109.125 11.9588 1305 75.8038 540.309 496.123
1725 0 115.187 11.6854 1346 77.9079 540.79 494.412
1726 1 61.0761 10.1676 621 77.8518 540.386 520.385
1727 0 65.068 11.0346 718 76.9234 539.65 518.669
1728 0 67.0556 10.8567 728 77.0508 539.576 518.114
1729 0 69.0921 11.6077 802 80.2008 539.885 517.478
1730 0 73.0937 12.0667 882 78.7438 539.78 514.81
1731 0 73.0997 12.1615 889 79.1091 539.967 514.225
1732 0 76.0565 12.2146 929 78.8149 539.409 513.513
1733 0 78.0638 12.1055 945 78.363 539.266 512.233
1734 0 82.1036 11.924 979 78.3473 539.619 510.678
1735 0 83.0761 11.989 996 78.4066 539.78 508.982
1736 0 85.0881 11.729 998 79.3788 539.272 507.015
1737 0 87.0756 12.3686 1077 77.4364 539.065 506.66
1738 0 91.0682 12.0679 1099 78.0964 538.918 504.803
1739 0 93.077 12.3231 1147 77.4385 538.813 503.894
1740 0 93.1153 12.1999 1136 78.8248 539.453 502.531
1741 1 52.0749 10.1969 531 82.4896 542.122 523.48
1742 0 54.0744 10.0787 545 80.6349 541.365 524.695
1743 0 57.0812 10.8092 617 80.2415 542.054 522.72
1744 0 57.0526 11.095 633 81.1043 541.983 523.049
1745 0 58.0409 10.1997 592 78.522 541.72 521.463
1746 0 61.0819 11.3782 695 75.7094 541.374 520.658
1747 0 61.0824 10.9688 670 77.5224 540.504 520.351
1748 0 62.0629 10.6827 663 78.4374 541.086 520.222
1749 0 66.0709 11.0185 728 76.25 541.089 518.636
1750 0 67.0936 11.4169 766 74.5065 541.09 517.788
1751 0 67.1022 11.3409 761 115.251 541.096 517.752
1752 0 70.0558 10.4203 730 76.2534 541.236 514.866
1753 0 72.0725 11.0028 793 76.0769 541.107 513.62
1754 0 75.1093 10.9707 824 75.7427 541.14 513.995
1755 0 75.1025 10.945 822 76.3029 540.549 512.928
1756 0 73.0752 10.6329 777 72.242 540.283 507.553
1757 0 73.1418 10.4728 766 73.1031 539.725 506.057
1758 0 77.2215 9.63462 744 74.6142 539.993 504.632
1759 0 79.1246 10.5151 832 73.601 539.66 505.582
1760 0 84.0969 10.2263 860 81.5674 540.559 510.283
1761 0 88.1131 10.5887 933 75.4523 540.353 507.199
1762 0 92.1081 11.0957 1022 75.4002 540.734 505.931
1763 0 93.1104 10.8581 1011 77.2512 540.378 506.148
1764 0 94.1413 10.3568 975 79.3928 540.374 503.534
1765 0 98.1777 10.1143 993 79.7362 539.893 502.545
1766 0 100.175 10.6614 1068 79.2556 540.53 499.494
1767 0 102.064 10.4543 1067 79.2962 540.584 498.976
1768 1 57.074 9.67165 552 77.9275 541.154 520.603
1769 0 60.0384 10.1602 610 77.9328 541.808 521.082
1770 0 63.1317 11.6265 734 78.7289 540.108 518.241
1771 0 65.0841 11.6926 761 76.1472 540.786 520.746
1772 0 67.081 11.1954 751 75.8069 540.346 519.45
1773 0 69.0344 12.0809 834 74.8537 540.783 516.924
1774 0 70.0555 11.705 820 77.3902 540.737 515.265
1775 0 73.0721 12.0155 878 75.3087 540.898 515.306
1776 0 73.0752 11.3034 826 77.5642 540.431 514.617
1777 0 75.0871 11.9062 894 75.8613 541.086 512.396
1778 0 77.0572 11.9003 917 76.2061 541.535 512.523
1779 0 79.0444 11.9427 944 75.7754 541.714 511.093
1780 0 81.0488 12.3753 1003 75.0897 541.31 511.225
1781 0 82.1068 11.8748 975 74.9385 541.916 509.037
1782 0 84.124 11.9704 1007 74.4508 541.045 507.405
1783 0 87.1131 12.2484 1067 73.7001 541.853 507.025
1784 0 90.172 12.1545 1096 73.0119 541.36 502.474
1785 0 91.1283 11.9392 1088 73.796 540.929 500.62
1786 0 93.1771 11.9879 1117 75.3339 540.668 498.419
1787 0 96.1063 11.5081 1106 77.0886 540.805 497.715
1788 0 95.0843 12.3575 1175 77.9345 540.82 494.695
1789 0 99.158 11.7288 1163 79.0894 540.773 494.464
1790 0 105.126 13.0414 1371 76.7928 540.228 495.403
1791 0 105.176 11.3525 1194 81.3199 540.594 494.75
1792 0 107.164 11.6084 1244 81.5113 540.202 496.716
1793 0 110.166 11.1559 1229 83.5191 541.059 495.544
1794 0 114.085 11.0269 1258 83.7655 540.688 494.706
1795 0 118.166 11.8477 1400 82.6029 540.345 492.975
1796 0 123.091 11.4549 1410 86.434 539.43 488.44
1797 1 71.1014 10.9703 780 83.0782 540.431 515.762
1798 0 73.1161 10.8731 795 83.7346 539.961 514.415
1799 0 77.077 12.3643 953 79.5834 539.715 515.449
1800 0 79.102 12.0983 957 81.3239 539.972 514.751
1801 0 82.094 13.0338 1070 79.1953 540.021 512.314
1802 0 85.1008 12.6438 1076 80.4061 540.382 511.74
1803 0 87.0855 11.9882 1044 82.499 539.56 509.838
1804 0 90.1155 12.8835 1161 80.8303 540.003 507.292
1805 0 91.1225 12.1046 1103 83.2529 539.41 506.692
1806 0 95.1604 12.7154 1210 82.2198 539.516 505.77
1807 0 98.1293 13.1969 1295 81.9652 539.587 502.759
1808 0 101.071 13.446 1359 80.1442 540.045 501.001
1809 0 103.071 12.7096 1310 83.8183 539.428 498.462
1810 0 104.087 11.9419 1243 86.7691 539.977 497.061
1811 0 108.082 12.2685 1326 87.2873 539.284 496.635
1812 0 110.185 11.989 1321 88.4754 540.26 494.465
1813 0 111.065 12.047 1338 89.6241 539.614 487.766
1814 0 115.127 11.5785 1333 90.6106 539.689 486.26
1815 0 121.085 11.8512 1435 89.1066 539.291 484.084
1816 1 69.069 10.9601 757 81.6711 539.633 517.379
1817 0 70.0687 11.4174 800 78.205 539.919 514.031
1818 0 73.0429 12.2668 896 79.6284 539.727 516.738
1819 0 77.0637 12.2756 946 79.9968 539.471 515.928
1820 0 78.0756 12.5391 979 80.6415 539.13 514.541
1821 0 81.1176 12.0812 980 81.1612 540.174 514.465
1822 0 84.1165 11.9477 1005 82.4388 539.855 511.528
1823 0 87.0798 12.5058 1089 81.944 540.252 509.322
1824 0 87.0772 11.9549 1041 84.9866 539.964 507.706
1825 0 92.1528 12.0018 1106 84.708 540.1 507.589
1826 0 95.1443 12.6755 1206 83.2496 540.634 503.521
1827 0 98.2017 12.0263 1181 84.9907 540.074 503.338
1828 0 101.198 12.1445 1229 85.9845 540.125 502.329
1829 0 103.271 11.2616 1163 87.4024 539.089 496.33
1830 0 104.217 11.7256 1222 88.4296 539.856 489.897
1831 1 53.2104 8.9832 478 83.6904 539.429 519.527
1832 0 52.1218 10.2069 532 86.8177 539.207 516.34
1833 0 55.2742 10.3122 570 88.386 539.039 515.021
1834 0 59.0589 11.3615 671 80.3785 539.405 520.125
1835 0 63.028 11.6932 737 82.4369 539.356 520.233
1836 0 64.0178 11.9342 764 82.2906 540.199 518.19
1837 0 67.0421 11.6941 784 84.3214 540.182 516.955
1838 0 69.0837 11.9855 828 83.8925 540.023 516.492
1839 0 71.0682 11.1864 795 85.8365 539.816 512.996
1840 0 71.0801 11.6488 828 84.9058 540.133 513.403
1841 0 75.1061 11.5437 867 83.3702 538.742 511.973
1842 0 76.1247 10.982 836 81.238 539.865 512.148
1843 0 78.0291 12.8926 1006 82.9513 539.318 510.032
1844 0 82.114 11.9346 980 80.8816 539.348 507.703
1845 0 83.0636 11.5694 961 86.8574 539.064 506.178
1846 0 85.0507 11.111 945 86.5503 539.856 503.455
1847 0 87.1218 11.1798 974 83.4209 540.028 500.775
1848 0 89.1674 11.0803 988 85.2186 540.001 502.691
1849 0 90.0632 10.9479 986 86.5274 539.673 501.752
1850 0 94.0574 11.6737 1098 86.5883 540.621 499.506
1851 0 95.1477 11.1301 1059 87.1303 539.778 496.122
1852 0 98.0969 10.7954 1059 86.355 540.374 496.623
1853 0 97.1619 10.4465 1015 89.0493 540.124 494.152
1854 0 101.155 10.8547 1098 87.8306 540.75 493.401
1855 0 105.103 10.9321 1149 87.7319 539.992 492.129
1856 0 107.138 11.0138 1180 85.6 540.242 491.16
1857 0 113.086 11.5576 1307 84.2762 539.82 489.073
1858 0 117.135 10.7739 1262 82.3605 539.762 488.397
1859 0 120.139 11.3368 1362 81.8664 540.04 486.444
1860 0 123.118 10.9326 1346 83.2467 539.998 483.395
1861 0 127.12 11.4223 1452 81.4883 540.585 484.43
1862 0 129.175 11.0315 1425 82.2618 540.014 480.571
1863 0 135.182 11.9172 1611 80.0646 540.069 482.144
1864 0 139.174 11.6401 1620 80.3963 539.905 478.636
1865 0 144.105 11.6166 1674 80.1022 540.015 474.744
1866 0 149.192 11.9778 1787 79.0783 540.385 474.222
1867 0 152.202 11.8264 1800 79.1467 540.433 471.554
1868 0 155.177 11.7608 1825 79.5184 539.861 466.752
1869 0 155.187 11.8695 1842 125.863 538.851 466.79
1870 0 162.289 10.2903 1670 81.3832 539.881 460.439
1871 0 167.313 11.0153 1843 79.7553 540.146 456.782
1872 0 170.145 10.8261 1842 80.4745 539.762 453.891
1873 0 174.201 10.4994 1829 81.8332 539.296 448.009
1874 0 180.299 10.0222 1807 82.4776 538.765 447.405
1875 0 185.195 10.4052 1927 81.6534 539.217 445.537
1876 0 189.322 10.02 1897 83.0353 538.951 443.907
1877 0 195.249 10.8682 2122 82.1965 538.762 439.479
1878 0 199.236 9.83256 1959 84.5569 538.933 437.483
1879 0 207.296 10.3668 2149 84.1992 538.787 433.047
1880 0 213.282 10.6854 2279 82.3923 539.048 425.857
1881 0 219.276 9.70466 2128 83.554 539.026 421.156
1882 0 227.303 11.4209 2596 82.8478 539.455 415.028
1883 0 232.177 9.41522 2186 87.4012 538.667 411.787
1884 0 238.189 8.94247 2130 87.6601 539.356 406.255
1885 1 272.223 1.80734 492 76.1626 540.045 504.504
1886 0 266.204 6.40485 1705 91.5883 539.228 405.867
1887 0 273.425 11.6485 3185 83.9231 539.233 394.449
1888 0 282.275 11.6482 3288 85.1408 539.499 390.984
1889 0 292.354 11.7837 3445 89.6885 539.057 384.512
1890 1 66.3379 11.1098 737 68.0828 539.86 514.469
1891 0 69.4332 11.3634 789 69.891 539.754 511.905
1892 0 72.2302 12.0725 872 71.7443 540.107 511.279
1893 0 71.1929 11.1247 792 72.6225 540.259 511.256
1894 0 73.2408 10.5815 775 71.4955 540.903 510.619
1895 0 78.2774 10.0284 785 72.8981 540.655 507.945
1896 0 80.1671 10.9022 874 72.4622 540.415 506.63
1897 0 84.1264 10.4605 880 80.4955 540.309 505.711
1898 0 86.2125 10.3349 891 80.2088 540.256 501.972
1899 0 90.0841 10.7233 966 78.0901 540.206 503.041
1900 0 94.2009 10.6156 1000 78.497 540.379 500.19
1901 0 96.1319 9.78863 941 81.0042 540.544 496.407
1902 0 99.215 10.4017 1032 80.5882 540.717 490.566
1903 1 56.2513 10.0975 568 69.3451 540.46 520.331
1904 0 59.1818 10.8986 645 69.4636 539.231 520.434
1905 0 60.2512 10.9873 662 70.8776 539.923 520.459
1906 0 61.2941 11.453 702 71.1097 539.333 518.168
1907 0 63.1435 11.3076 714 71.0616 540.427 520.251
1908 0 65.2144 11.9912 782 71.0742 540.246 518.991
1909 0 65.248 11.2187 732 74.0861 539.613 518.796
1910 0 68.2503 11.2527 768 73.4336 539.516 517.229
1911 0 70.1851 11.7831 827 72.1487 539.274 518.058
1912 0 70.1411 11.5767 812 72.9766 539.4 515.878
1913 0 72.15 11.3375 818 74.5795 539.408 514.257
1914 0 74.1817 11.9436 886 76.1467 538.951 514.556
1915 0 76.1729 11.7758 897 76.0591 539.046 513.738
1916 0 78.2252 12.3234 964 75.6452 539.174 512.334
1917 0 82.2032 12.3353 1014 75.5858 538.732 511.773
1918 0 82.1731 11.9747 984 78.7246 538.576 510.418
1919 0 86.1391 12.2128 1052 78.5789 539.066 510.517
1920 0 87.1403 11.9577 1042 83.5729 538.499 509.134
1921 0 92.1216 11.9082 1097 81.5889 539.081 507.911
1922 0 94.1726 12.6258 1189 82.6854 538.463 506.53
1923 0 96.0909 12.28 1180 83.4822 538.88 504.55
1924 0 98.1636 11.8476 1163 84.2313 538.704 505.193
1925 0 100.109 11.4375 1145 85.6707 539.089 502.583
1926 0 105.19 11.9973 1262 84.172 538.979 499.726
1927 0 107.14 11.695 1253 84.838 538.574 499.765
1928 0 111.186 11.9979 1334 84.9048 538.835 496.661
1929 0 114.23 12.3173 1407 85.3468 537.234 493.814
1930 0 115.23 11.8546 1366 86.7965 537.97 494.443
1931 0 120.217 12.0033 1443 86.7207 538.31 491.552
1932 0 122.268 11.2212 1372 88.277 538.639 490.227
1933 0 124.185 12.0063 1491 86.5533 538.173 486.696
1934 0 131.216 12.0488 1581 86.0335 537.853 485.42
1935 0 131.216 12.0488 1581 145.51 537.853 485.484
1936 1 72.16 10.837 782 83.298 537.948 513.477
1937 0 74.1643 10.6655 791 84.4248 537.493 513.018
1938 0 76.5045 11.1235 851 86.2914 536.878 508.803
1939 0 81.3562 12.1687 990 83.7535 537.363 506.579
1940 0 82.2059 12.7971 1052 80.0627 536.871 511.244
1941 0 85.2623 12.9248 1102 79.1788 537.947 511.015
1942 0 88.2575 12.5768 1110 79.7712 537.641 508.42
1943 0 89.2503 12.6386 1128 86.0541 538.098 504.872
1944 0 92.217 13.0345 1202 85.4326 537.686 503.413
1945 0 95.3491 13.1097 1250 85.3488 537.743 502.842
1946 0 98.1819 12.925 1269 86.0583 537.516 499.752
1947 0 98.2727 12.6281 1241 86.946 537.466 497.349
1948 0 102.267 13.2301 1353 85.289 536.545 498.791
1949 0 106.224 12.596 1338 85.8916 537.411 496.38
1950 0 107.258 12.7915 1372 86.4592 537.24 493.186
1951 0 108.248 12.4621 1349 87.0111 537.762 493.996
1952 0 112.101 12.453 1396 86.0193 536.94 492.367
1953 0 116.233 12.7846 1486 84.2106 538.155 490.887
1954 0 115.205 12.2825 1415 85.4537 537.192 488.796
1955 0 122.133 13.1086 1601 82.6028 538.792 486.482
1956 0 126.179 12.5853 1588 83.5372 538.707 487.203
1957 0 128.248 12.7176 1631 82.5518 538.449 482.039
1958 0 134.208 12.2422 1643 81.7139 537.885 479.447
1959 0 138.212 12.0829 1670 82.3976 538.789 479.062
1960 1 77.0839 10.9361 843 81.4828 538.712 507.289
1961 0 80.2751 11.4357 918 82.0294 539.168 499.895
1962 0 86.4027 12.2334 1057 78.1854 538.3 502.504
1963 0 88.1162 11.8934 1048 78.6832 538.08 506.306
1964 0 87.0962 11.826 1030 80.4418 537.978 504.471
1965 0 93.2507 11.7854 1099 79.3485 537.61 503.009
1966 0 94.1243 11.7504 1106 80.6248 537.861 502.283
1967 0 97.2351 11.7859 1146 81.4887 538.118 498.576
1968 0 98.1813 11.9473 1173 82.6113 537.596 496.204
1969 0 102.085 12.1271 1238 82.6842 537.083 491.36
1970 0 106.157 12.1141 1286 83.1975 537.588 489.691
1971 0 106.216 12.6535 1344 82.965 537.105 487.107
1972 0 113.265 12.1485 1376 84.125 537.498 485.863
1973 0 114.167 12.105 1382 84.7236 536.541 484.955
1974 0 119.237 12.8903 1537 83.5751 537.005 482.852
1975 0 124.17 13.1997 1639 84.1501 537.046 479.509
1976 0 127.237 12.905 1642 84.6364 536.654 476.981
1977 0 134.226 12.5981 1691 85.6351 537.299 474.887
1978 0 137.215 12.3019 1688 86.7601 537.704 472.762
1979 0 141.189 12.6214 1782 87.587 537.085 469.552
1980 0 147.271 12.7859 1883 87.6282 537.602 466.671
1981 1 157.387 13.4319 2114 85.4234 536.879 466.893
1982 0 163.551 13.2986 2175 85.9172 537.274 465.554
1983 1 88.3148 10.1342 895 91.1184 537.055 500.057
1984 0 90.3203 11.0385 997 90.5145 537.063 496.605
1985 0 95.3532 11.9555 1140 86.0456 537.625 496.448
1986 0 97.2337 12.7014 1235 84.7215 537.13 494.173
1987 0 100.25 12.2294 1226 85.4315 537.23 493.648
1988 0 103.307 12.4 1281 84.9063 537.037 490.518
1989 0 106.337 12.7143 1352 84.6154 537.503 489.836
1990 0 106.351 11.8194 1257 85.2617 537.502 491.324
1991 0 110.306 11.7582 1297 84.9977 537.764 489.706
1992 0 113.332 12.0796 1369 83.8422 537.126 489.337
1993 0 112.198 11.2747 1265 86.4166 537.352 485.614
1994 0 118.344 11.3314 1341 86.915 537.222 482.842
1995 0 122.296 10.6218 1299 88.3072 537.653 485.901
1996 0 128.329 10.4029 1335 87.8794 536.967 482.352
1997 0 132.295 11.2551 1489 86.7952 536.981 479.112
1998 0 133.343 11.0842 1478 87.3363 536.628 478.332
1999 0 137.24 11.2796 1548 87.1828 537.14 475.242
2000 0 142.301 10.6464 1515 87.0786 536.997 475.937
2001 0 145.276 9.93285 1443 89.158 537.153 471.595
2002 0 149.374 10.2628 1533 87.985 537.361 471.13
2003 0 149.282 10.7917 1611 88.4153 537.591 462.919
2004 0 156.507 11.0027 1722 87.2137 537.559 461.426
2005 1 85.2746 10.6714 910 86.6648 536.736 494.678
2006 0 90.2025 10.9753 990 88.2424 537.044 493.973
2007 0 94.1031 11.7212 1103 87.2122 537.066 495.212
2008 0 97.1333 12.0556 1171 86.661 537.828 495.177
2009 0 101.1 11.9386 1207 86.9428 537.518 494.746
2010 0 106.101 12.7049 1348 84.1402 537.179 494.708
2011 0 110.165 12.9805 1430 82.5161 537.024 493.033
2012 0 106.082 12.0378 1277 87.7901 536.798 489.54
2013 0 110.099 11.6986 1288 88.236 536.929 489.335
2014 0 112.179 12.1681 1365 87.6872 537.149 488.015
2015 0 117.157 12.3595 1448 85.8225 537.367 486.418
2016 0 116.243 12.4738 1450 86.9648 537.879 481.152
2017 0 118.288 11.9285 1411 87.5918 537.312 478.727
2018 0 123.25 11.9919 1478 87.0595 537.355 474.784
2019 0 125.25 11.8723 1487 87.5494 537.111 473.913
2020 0 128.181 11.6632 1495 88.4702 537.118 469.098
2021 0 133.208 11.3131 1507 88.4366 537.119 466.966
2022 0 138.214 12.307 1701 85.649 537.175 463.409
2023 0 139.335 11.9209 1661 87.1692 537.072 460.141
2024 0 152.251 12.4137 1890 83.2857 537.063 465.421
2025 0 155.199 12.5259 1944 84.0355 537.03 460.665
2026 0 159.25 12.0942 1926 84.8453 537.129 460.285
2027 0 164.224 12.4708 2048 84.3022 536.527 457.239
2028 0 172.286 12.8855 2220 83.768 536.286 452.391
2029 0 177.25 12.5642 2227 84.7373 536.577 451.26
2030 0 183.252 12.6165 2312 84.9377 536.429 449.757
2031 0 188.244 12.8185 2413 86.3784 536.174 443.14
2032 0 194.187 12.8793 2501 85.8665 536.098 441.255
2033 0 198.227 13.5249 2681 84.5151 536.707 437.804
2034 0 204.169 12.5827 2569 87.1561 536.837 436.614
2035 0 211.24 12.9853 2743 85.2351 536.634 434.213
2036 0 215.274 12.6072 2714 86.8239 536.792 429.885
2037 1 159.105 11.1624 1776 88.9234 536.684 456.908
2038 0 166.163 11.5609 1921 87.8459 536.47 452.365
2039 0 173.209 12.2222 2117 85.2272 537.185 448.124
2040 0 176.22 11.9907 2113 86.9106 536.929 445.288
2041 0 180.274 12.4256 2240 87.7094 536.566 440.733
2042 0 190.193 13.1235 2496 85.9647 536.289 442.905
2043 0 196.225 13.5253 2654 86.1647 536.553 438.269
2044 0 201.297 13.0106 2619 88.436 536.899 436.618
2045 0 210.238 13.5608 2851 87.8758 537.114 433.677
2046 0 214.308 13.5226 2898 89.0362 536.566 431.532
2047 0 220.272 13.4834 2970 89.9936 536.035 427.283
2048 0 226.309 13.592 3076 90.6577 536.71 421.725
2049 0 232.346 13.2733 3084 91.5389 536.608 418.94
2050 0 240.254 13.5523 3256 89.3188 537.08 416.99
2051 0 246.334 13.4574 3315 90.6401 536.388 412.775
2052 0 252.311 13.1227 3311 92.3504 536.3 410.473
2053 0 262.292 13.9425 3657 91.6347 536.541 411.292
2054 1 280.437 18.5995 5216 77.8639 536.297 390.881
2055 0 284.463 17.3133 4925 84.0914 536.17 391.91
2056 0 285.424 14.298 4081 93.8772 536.923 393.837
2057 1 306.666 19.95 6118 77.7357 537.157 373.23
2058 0 311.336 17.8136 5546 85.0815 537.206 372.557
2059 0 315.333 13.814 4356 99.6297 537.007 375.186
2060 0 318.401 11.5452 3676 103.649 536.754 385.432
2061 0 384.787 20.5178 7895 74.1236 537.019 335.057
2062 1 336.409 11.1234 3742 102.573 536.515 376.873
2063 0 337.477 9.66586 3262 107.69 536.994 379.273
2064 1 309.458 7.0058 2168 103.164 536.204 424.134
2065 0 309.426 8.19905 2537 105.155 536.447 413.942
2066 1 41.272 8.64994 357 72.7731 537.485 530.465
2067 0 42.08 9.36311 394 72.8426 537.297 530.317
2068 0 42.0332 8.92153 375 71.8133 537.928 533.584
2069 0 44.0684 9.53064 420 73.3476 538.398 531.993
2070 0 44.0489 9.9208 437 74.222 538.355 532.464
2071 0 43.0359 9.92196 427 76.6557 538.297 531.55
2072 0 47.0154 10.571 497 75.4889 538.227 532.042
2073 0 47.0223 10.0378 472 77.9894 538.492 529.345
2074 0 45.0277 10.0827 454 80.5925 537.956 530.597
2075 0 46.024 10.4511 481 80.7484 538.027 531.175
2076 0 47.0426 10.9688 516 80.2054 537.919 530.246
2077 0 48.0269 10.7856 518 82.2432 538.276 529.415
2078 0 48.0093 11.1228 534 82.5899 537.522 529.781
2079 0 47.012 11.0823 521 82.6411 537.545 528.822
2080 0 47.0247 10.6965 503 87.2664 536.911 528.839
2081 0 46.0229 9.73428 448 92.433 537.56 528.766
2082 0 47.0228 10.8245 509 89.6483 537.073 529.794
2083 0 47.0555 10.2432 482 90.6867 537.658 528.421
2084 0 59.0932 11.9303 705 75.356 538.522 522.848
2085 0 56.0841 11.9998 673 76.6092 539.37 521.718
2086 0 55.1033 12.4312 685 75.0511 538.807 522.054
2087 0 51.1677 10.9249 559 84.1932 539.46 524.946
2088 0 49.021 10.5057 515 87.3165 537.214 528.685
2089 0 52.0452 12.3931 645 84.4279 535.591 522.206
2090 0 52.038 13.7784 717 78.6904 535.649 522.639
2091 0 52.0702 14.6341 762 76.1391 536.395 526.547
2092 0 53.0358 14.7448 782 74.3338 535.547 527.28
2093 0 53.0277 14.8979 790 73.976 535.834 526.992
2094 0 53.0248 15.4079 817 71.1603 536.045 527.092
2095 0 53.0234 15.0688 799 71.7247 536.227 526.964
2096 0 53.0449 14.6291 776 72.326 535.811 526.277
2097 0 53.0271 14.2003 753 73.2444 535.692 526.386
