time division length width area intensity CMx CMy
0 0 61.0153 13.3573 815 119.096 702.663 510.523
1 0 62.0306 14.251 884 114.926 701.744 508.514
2 0 63.0634 13.4626 849 122.25 702.031 508.875
3 0 65.0342 13.0239 847 116.013 701.655 511.047
4 0 65.0621 13.6792 890 114.466 701.812 510.36
5 0 68.0847 12.6754 863 114.269 701.779 509.147
6 0 72.0347 13.3408 961 110.204 702.136 507.938
7 0 72.0751 13.4998 973 108.683 702.012 507.257
8 0 77.0716 13.455 1037 106.62 701.453 504.399
9 0 78.0969 13.3424 1042 106.842 702.131 505.082
10 1 42.0168 12.1618 511 112.114 702.09 521.616
11 0 46.0293 12.6876 584 108.437 701.897 520.144
12 0 46.0229 12.2765 565 107.763 702.308 520.05
13 0 49.0178 13.4849 661 103.136 701.463 518.222
14 0 47.0196 12.5054 588 98.8418 700.531 519.466
15 0 48.0129 12.2675 589 98.9949 700.55 519.908
16 0 50.077 12.5607 629 97.9332 700.93 518.94
17 0 50.0197 12.2752 614 98.8974 700.555 515.48
18 0 52.0817 12.5188 652 95.4862 700.523 516.633
19 0 56.0319 12.7427 714 93.0728 700.13 513.699
20 0 56.0788 12.5181 702 93.6595 700.319 513.823
21 0 61.0208 13.2578 809 89.7417 700.012 514.049
22 0 62.0384 13.7657 854 89.4239 699.995 512.383
23 0 63.0631 13.3517 842 89.9204 700.418 512.158
24 0 62.0582 12.875 799 142.791 701.471 511.181
25 0 69.1769 13.7763 953 88.5362 700.003 509.738
26 0 71.0552 13.581 965 89.2508 699.92 509.558
27 0 75.0687 13.6408 1024 89.1104 699.931 508.076
28 0 75.1124 13.3666 1004 91.0876 700.056 507.453
29 0 79.0747 13.9109 1100 88.95 699.283 505.53
30 0 82.145 13.5979 1117 89.8424 699.227 505.903
31 0 85.1149 14.0398 1195 91.0711 699.807 503.519
32 0 90.1053 14.3943 1297 89.4518 699.749 502.965
33 0 90.1116 13.9605 1258 91.9587 699.315 500.661
34 0 96.0936 14.028 1348 89.2685 699.055 498.842
35 0 98.0565 13.9103 1364 89.3343 699.021 498.059
36 0 101.065 13.892 1404 89.0406 699.749 494.471
37 0 106.13 13.8132 1466 89.4741 698.754 491.497
38 0 107.133 13.8052 1479 88.9087 698.654 489.274
39 0 113.221 14.4761 1639 86.6565 698.405 486.221
40 1 59.105 10.9297 646 86.904 700.393 515.424
41 0 60.0769 11.4187 686 84.898 700.185 513.152
42 0 62.048 11.4589 711 84.4205 700.122 515.093
43 0 64.0851 11.9841 768 83.1823 698.298 513.493
44 0 68.041 10.9052 742 84.4528 698.26 512.422
45 0 68.0852 10.6778 727 85.4704 697.937 510.242
46 0 68.0746 12.075 822 84.3589 698.268 508.54
47 0 72.0721 12.3626 891 83.422 698.798 509.072
48 0 75.0986 12.7299 956 83.7856 698.999 505.933
49 0 78.0911 12.447 972 82.1698 698.63 506.767
50 0 77.0344 11.3586 875 85.8057 698.688 506.287
51 0 81.0504 12.0666 978 84.3476 699.213 504.996
52 0 84.0689 11.5976 975 84.1231 699.246 503.282
53 0 87.071 11.3471 988 84.3694 699.027 501.755
54 0 91.0697 12.3312 1123 82.8833 698.685 499.675
55 0 94.0869 12.1696 1145 81.6122 698.819 499.449
56 0 96.0931 12.3526 1187 82.4035 698.939 496.612
57 0 99.1202 11.8139 1171 82.4842 699.043 497.736
58 0 101.05 12.3503 1248 87.5321 698.424 493.555
59 0 106.056 12.5123 1327 81.9932 699.133 492.892
60 0 109.073 12.0745 1317 82.9939 698.162 489.643
61 0 113.162 12.0093 1359 83.0508 698.453 487.763
62 1 61.1597 10.7914 660 80.7455 698.303 513.965
63 0 62.0412 11.5246 715 82.1385 699.067 512.443
64 0 67.0296 12.3677 829 79.6345 698.327 511.585
65 0 67.094 12.4899 838 80.7208 698.56 510.915
66 0 69.0759 12.4356 859 82.0664 697.799 509.985
67 0 71.0757 12.4797 887 81.4915 697.459 508.229
68 0 74.0865 12.8499 952 81.2962 697.693 506.933
69 0 77.0787 12.9348 997 82.4935 697.462 505.802
70 0 80.1164 13.3805 1072 84.2929 697.425 504.543
71 0 85.0578 12.6502 1076 93.9823 698.642 504.302
72 0 87.0672 12.3468 1075 96.0353 698.346 501.931
73 0 91.0655 12.815 1167 94.8852 698.783 499.819
74 0 92.1194 12.5272 1154 96.9263 698.373 498.535
75 0 96.0877 12.9049 1240 87.9484 698.136 498.191
76 0 99.0656 12.5876 1247 96.0537 698.35 495.696
77 0 101.065 12.7839 1292 94.8336 697.79 494.257
78 0 105.026 13.3777 1405 93.0641 697.771 493.137
79 0 108.062 13.6866 1479 92.3807 697.245 492.078
80 0 109.066 12.6713 1382 94.0825 697.41 491.475
81 0 111.108 12.1774 1353 94.1382 698.061 488.602
82 0 115.295 12.1167 1397 93.4517 698.117 487.812
83 0 119.21 12.0124 1432 93.9204 697.33 482.774
84 0 125.275 11.6783 1463 94.2071 697.63 482.4
85 1 68.1042 11.2621 767 89.6806 697.437 510.776
86 0 71.1639 11.7897 839 88.3945 698.39 509.743
87 0 72.0862 11.5417 832 90.8245 697.79 507.071
88 0 76.1623 12.8541 979 87.381 698.685 506.97
89 0 77.067 12.6124 972 89.8405 698.935 505.775
90 0 80.0903 12.9479 1037 95.4831 700.38 504.098
91 0 81.0848 12.5424 1017 99.4199 699.37 503.583
92 0 84.0872 12.3681 1040 99.5183 698.373 501.666
93 0 86.0926 12.6259 1087 99.6771 698.443 499.426
94 0 88.0982 13.0877 1153 100.337 698.2 497.457
95 0 90.0967 12.8973 1162 101.698 698.597 496.254
96 0 93.133 13.0351 1214 99.7982 698.228 496.502
97 0 98.1305 12.626 1239 98.6949 697.887 495.828
98 0 99.1142 13.2272 1311 97.6453 698.227 496.207
99 0 102.181 12.8595 1314 98.535 698.596 493.558
100 0 105.088 12.2469 1287 97.1251 698.03 491.678
101 0 110.051 12.0853 1330 95.5429 697.933 491.513
102 0 112.103 11.7838 1321 93.3664 697.835 489.618
103 0 116.129 11.9436 1387 95.6193 697.534 487.134
104 1 64.081 10.9393 701 91.9872 696.872 514.638
105 0 65.0295 11.3948 741 91.3374 697.587 513.265
106 0 68.1211 12.3897 844 89.7464 697.995 510.284
107 0 70.0863 11.7855 826 78.454 698.322 510.192
108 0 71.0589 11.8634 843 77.8648 698.518 508.81
109 0 72.0774 11.9732 863 79.2074 697.818 507.955
110 0 76.1002 11.314 861 79.7387 699.159 506.275
111 0 79.1195 11.7038 926 79.3207 698.022 503.823
112 0 81.0667 11.8668 962 90.6123 698.634 502.819
113 0 86.1463 12.4904 1076 88.0465 697.69 502.406
114 0 87.164 12.5625 1095 89.6502 697.46 500.811
115 0 89.2294 12.2717 1095 90.3342 697.818 500.843
116 0 94.155 12.8193 1207 88.8774 697.572 500.047
117 0 95.1126 11.7124 1114 90.4372 697.592 498.949
118 0 101.15 12.1701 1231 88.5638 697.12 496.022
119 0 104.172 12.8346 1337 88.1077 697.61 493.935
120 1 52.0677 10.5824 551 86.4283 697.537 519.245
121 0 55.1389 11.6977 645 82.3271 698.513 518.62
122 0 54.0508 11.6927 632 78.1123 698.241 519.134
123 0 56.0598 11.5412 647 78.6167 699.427 517.734
124 0 58.0687 10.8148 628 91.0207 699.455 516.619
125 0 61.0326 11.5512 705 86.7688 699.885 514.709
126 0 61.0443 11.6637 712 87.1025 699.445 513.496
127 0 63.0266 11.2334 708 87.5847 698.99 513.031
128 0 65.0818 11.9542 778 86.5784 699.389 512.085
129 0 67.0395 11.62 779 87.543 700.402 511.426
130 0 67.038 11.8291 793 86.8802 699.919 509.516
131 0 71.0823 12.1549 864 86.5347 699.089 509.428
132 0 71.0349 11.6281 826 88.6562 698.528 509.099
133 0 75.0637 12.8691 966 84.6967 698.671 507.514
134 0 79.0317 12.5013 988 86.4545 698.892 506.142
135 0 79.0292 12.5017 988 140.45 698.905 506.02
136 0 81.0969 12.2816 996 87.7781 698.331 503.604
137 0 84.1183 12.5775 1058 87.7807 698.876 501.304
138 0 87.1309 12.5329 1092 87.5788 698.962 500.655
139 0 92.1755 12.5196 1154 87.864 698.053 499.696
140 0 92.1234 11.9079 1097 90.5889 698.339 496.812
141 0 96.1644 13.009 1251 88.0847 697.386 495.765
142 1 49.052 10.5806 519 84.8536 698.301 519.719
143 0 50.0362 10.6523 533 85.2702 698.841 518.246
144 0 50.0836 11.2013 561 82.3226 698.216 516.925
145 0 52.2641 11.1166 581 82.5129 698.253 514.286
146 0 53.0558 11.7424 623 81.2809 698.411 515.339
147 0 56.053 12.7736 716 78.102 698.015 518.807
148 0 57.013 12.5059 713 78.6241 699.309 517.425
149 0 56.0543 12.1846 683 81.3294 696.657 517.234
150 0 59.0282 12.7227 751 79.5846 696.699 515.806
151 0 61.0386 13.3686 816 79.6654 696.839 515.658
152 0 65.029 13.7016 891 79.0572 696.782 514.187
153 0 66.065 13.6684 903 81.6002 696.729 512.967
154 0 66.0527 13.792 911 83.202 696.682 511.996
155 0 69.0167 12.9099 891 85.7744 696.883 511.104
156 0 70.0338 13.4935 945 85.7926 696.911 509.447
157 0 73.0249 13.8035 1008 84.7014 697.659 509.625
158 0 75.0498 13.8708 1041 85.5187 697.252 507.636
159 0 76.0996 14.4285 1098 85.4745 697.271 506.845
160 0 77.0867 13.7118 1057 88.7077 696.587 505.409
161 0 80.066 13.8885 1112 87.2743 697.585 502.492
162 0 81.0207 13.6879 1109 88.6835 697.194 503.311
163 0 82.0586 13.0395 1070 92.5346 696.974 502.483
164 0 85.099 13.3962 1140 91.0044 696.981 500.584
165 0 86.1423 13.4893 1162 90.2952 697.392 500.194
166 0 89.0239 13.1088 1167 92.3436 697.259 498.949
167 0 95.0706 13.6846 1301 90.2091 697.884 496.318
168 0 96.0564 13.2318 1271 91.7939 697.43 494.356
169 0 97.0775 13.0514 1267 93.2904 698.118 494.021
170 0 102.151 13.2842 1357 91.3758 697.194 490.889
171 1 53.0324 10.9179 579 91.1416 698.535 515.136
172 0 55.0326 11.2115 617 90.4522 697.588 514.31
173 0 57.0326 12.4315 709 92.2906 697.47 514.223
174 0 60.0408 12.3916 744 91.8562 697.093 513.235
175 0 59.0391 12.1953 720 85.4 697.575 514.44
176 0 60.0521 12.0395 723 86.6805 696.71 514.941
177 0 62.0301 11.7846 731 86.9193 696.703 513.077
178 0 65.0845 12.3993 807 84.9195 696.757 511.134
179 0 66.0737 12.0169 794 86.7935 696.186 509.96
180 0 68.1799 12.2323 834 85.452 696.614 509.977
181 0 73.0992 12.7498 932 84.5461 696.443 510.838
182 0 74.08 12.8375 951 85.0557 696.532 508.403
183 0 80.1038 12.9332 1036 81.6747 697.209 506.909
184 0 80.0575 13.0656 1046 82.9187 696.328 503.692
185 0 83.0183 13.5512 1125 82.4622 697.141 504.559
186 0 86.0485 13.1554 1132 82.7703 697.509 503.178
187 0 88.0724 12.7395 1122 83.8093 696.913 502.055
188 0 90.0599 12.6805 1142 83.2662 696.806 500.634
189 0 95.0396 13.2997 1264 81.5245 696.653 496.725
190 1 48.0359 11.1792 537 84.9981 697.179 519.963
191 0 51.0303 11.7185 598 83.5401 697.124 520.589
192 0 52.0431 11.721 610 87.2918 697.093 519.875
193 0 54.024 12.6425 683 83.0059 696.526 519.49
194 0 55.0459 12.0082 661 88.761 696.743 517.589
195 0 57.0427 13.0078 742 77.9286 696.535 517.802
196 0 58.0619 12.9173 750 78.3693 696.68 516.145
197 0 59.0159 12.9626 765 77.7542 695.693 515.448
198 0 60.0924 12.7304 765 78.7255 696.752 514.546
199 0 64.1178 12.7266 816 77.2328 697.229 513.471
200 0 66.1163 13.1586 870 76.5713 696.262 513.008
201 0 69.0706 13.3487 922 75.8612 696.354 511.361
202 0 69.0696 12.5815 869 99.6191 696.43 511.221
203 0 72.0555 12.7402 918 99.6928 696.321 510.471
204 0 76.0527 13.1619 1001 97.3337 696.042 508.178
205 0 77.1169 13.11 1011 97.5717 696.37 507.547
206 0 81.0694 12.8285 1040 98.2202 695.742 506.169
207 0 81.068 12.7301 1032 100.025 696.177 503.459
208 0 84.0502 12.8971 1084 98.4216 695.828 504.165
209 0 88.0972 12.8948 1136 96.8706 696.029 502.152
210 0 91.0461 12.9165 1176 96.2874 695.543 500.174
211 0 93.0642 12.6042 1173 96.8542 695.672 499.484
212 0 94.0815 12.3829 1165 106.89 695.941 498.693
213 0 98.0679 12.4506 1221 105.111 695.888 498.096
214 0 102.116 12.2409 1250 103.694 695.952 496.646
215 0 104.083 12.4132 1292 97.2307 695.116 495.657
216 0 107.16 12.0567 1292 103.231 695.881 494.323
217 1 54.0298 10.7718 582 98.4072 695.663 518.665
218 0 56.0445 12.383 694 99.6297 695.896 516.617
219 0 56.1169 11.0662 621 97.4831 696.372 514.262
220 0 57.0484 12.3579 705 90.9574 697.13 516.126
221 0 58.1112 11.7017 680 97.0265 695.412 516.672
222 0 59.1147 11.8752 702 95.3647 695.557 516.547
223 0 63.0198 12.4405 784 95.0268 695.651 514.128
224 0 64.0613 12.1602 779 97.81 695.988 514.181
225 0 65.0437 11.5153 749 101.75 695.275 511.441
226 0 69.0651 11.8584 819 101.346 695.888 510.024
227 0 70.0902 11.8276 829 102.92 695.727 510.979
228 0 75.0763 12.7204 955 103.408 695.31 509.119
229 0 76.0999 12.8515 978 107.224 695.482 507.127
230 0 79.0885 12.9475 1024 107.482 695.422 507.697
231 0 82.0879 13.047 1071 107.981 695.608 506.573
232 0 85.1235 13.4041 1141 108.68 694.836 505.974
233 0 87.1291 12.8774 1122 111.278 695.755 504.078
234 0 90.2162 13.5009 1218 108.892 695.457 502.237
235 0 93.1254 12.9932 1210 110.434 695.238 501.664
236 1 51.0601 11.3788 581 112.337 695.095 521.351
237 0 53.0239 12.6924 673 106.944 694.728 520.434
238 0 55.0592 12.2414 674 108.411 694.871 520.448
239 0 56.113 12.9204 725 106.327 694.732 518.716
240 0 58.1078 12.7694 742 105.858 695.009 517.852
241 0 58.0344 13.2163 767 103.545 694.596 517.815
242 0 60.0775 12.9832 780 102.372 695.34 517.477
243 0 62.0763 12.9196 802 101.557 695.419 516.04
244 0 64.0602 12.7692 818 102.485 695.112 514.312
245 0 65.0961 12.4431 810 103.456 695.973 514.875
246 0 68.0289 13.1856 897 102.045 696.031 512.405
247 0 69.026 12.9516 894 102.661 695.702 512.46
248 0 71.0531 12.9762 922 102.296 695.964 511.271
249 0 73.0651 13.0021 950 103.196 695.726 511.114
250 0 75.0768 13.1599 988 101.944 696.514 510.303
251 0 78.0701 12.7706 997 102.974 697.412 507.615
252 0 80.0414 12.8558 1029 101.15 697.263 506.839
253 0 83.0587 12.7139 1056 100.102 697.12 505.698
254 0 85.1185 12.3592 1052 100.573 696.65 504.274
255 0 87.162 12.4251 1083 101.539 696.669 503.038
256 0 90.1853 12.3191 1111 101.241 696.025 501.05
257 0 93.0499 12.8963 1200 97.5833 696.582 500.513
258 0 95.0705 12.7695 1214 97.5881 696.232 498.036
259 0 97.0622 12.7135 1234 97.1143 696.26 497.365
260 1 50.0142 11.3968 570 89.7596 695.354 520.268
261 0 50.0419 11.0507 553 87.6926 695.105 520.423
262 0 50.0419 10.9908 550 125.867 694.096 520.516
263 0 54.0811 12.7216 688 83.2703 695.568 519.84
264 0 57.077 11.8787 678 83.9705 695.577 518.23
265 0 57.0332 11.9404 681 84.9192 696.611 517.549
266 0 59.0477 12.5322 740 85.1541 695.789 516.427
267 0 62.0636 12.3261 765 84.8654 695.742 515.286
268 0 64.0563 12.8637 824 85.0583 695.354 513.29
269 0 65.0629 12.6032 820 87.6256 695.632 513.343
270 0 67.0426 12.052 808 89.4332 695.653 513.068
271 0 68.0269 12.4804 849 91.2285 695.449 512.223
272 0 72.0682 12.7241 917 90.5583 695.207 510.944
273 0 74.1094 12.6705 939 90.312 695.54 509.626
274 0 75.0641 12.3095 924 91.5855 695.527 509.43
275 0 78.0255 12.8676 1004 90.6205 696.472 507.872
276 0 80.0424 12.3435 988 92.3553 695.979 507.157
277 0 83.0836 12.6258 1049 93.001 695.795 505.379
278 0 87.072 12.4839 1087 103.359 696.127 503.72
279 0 90.073 12.4011 1117 103.722 695.538 501.876
280 0 91.092 12.1525 1107 105.313 696.304 501.642
281 0 95.091 12.3776 1177 100.678 695.952 499.884
282 0 99.1182 12.5204 1241 101.052 696.529 497.165
283 0 102.093 12.2438 1250 102.764 695.777 496.88
284 0 102.099 12.243 1250 136.032 694.767 496.842
285 1 57.105 10.8572 620 96.2419 696.039 517.669
286 0 60.0572 11.8054 709 93.4386 696.457 515.975
287 0 61.1829 11.8007 722 95.2341 696.711 516.348
288 0 62.1066 11.6413 723 94.7012 695.527 516.477
289 0 64.0709 11.5809 742 94.1563 695.872 513.249
290 0 67.1308 12.5129 840 91.0357 695.363 514.082
291 0 67.1518 11.7048 786 90.6858 695.87 513.557
292 0 69.0441 11.9778 827 89.7352 694.845 511.985
293 0 73.1265 11.9382 873 88.1569 694.745 511.047
294 0 75.1031 12.0235 903 87.4961 694.239 508.928
295 0 77.0515 12.602 971 86.6313 694.27 506.977
296 0 81.0505 12.2023 989 86.8817 694.408 505.66
297 0 81.1006 12.2934 997 87.327 694.276 505.072
298 0 84.0466 12.3979 1042 86.4367 694.686 502.387
299 0 88.0384 12.6422 1113 86.4124 694.35 501.983
300 0 92.066 12.9907 1196 84.3905 694.059 499.487
301 0 95.0473 12.6463 1202 85.6073 693.981 497.778
302 0 98.1122 12.8017 1256 85.008 693.24 498.348
303 0 101.092 13.087 1323 84.4082 693.762 495.504
304 0 105.161 12.5807 1323 85.8813 694.899 495.193
305 0 103.162 11.7582 1213 134.289 696.791 493.351
306 1 49.0632 10.2725 504 88.1885 694.758 523.081
307 0 48.0929 10.0846 485 82.3567 693.967 522.573
308 0 52.0624 9.66149 503 82.7674 693.936 521.867
309 0 52.0569 11.4106 594 87.4343 694.855 521.406
310 0 54.0534 11.9881 648 83.7145 694.614 520.864
311 0 57.0486 12.1475 693 81.3838 693.887 521.746
312 0 57.0439 12.1836 695 82.1712 694.035 521.604
313 0 57.0587 11.7949 673 84.74 694.178 519.752
314 0 60.1262 11.8917 715 84.2755 693.887 518.576
315 0 62.0472 12.2971 763 82.6855 694.464 519.156
316 0 64.1053 11.9959 769 83.6151 694.061 518.118
317 0 67.1142 12.2031 819 81.7985 694.306 518.243
318 0 68.0713 12.6338 860 80.6709 694.377 517.353
319 0 70.1133 11.838 830 82.4446 693.706 516.769
320 0 72.044 12.0898 871 81.0333 693.859 515.414
321 0 73.1811 12.7492 933 82.7363 694.533 514.436
322 0 77.1498 13.0784 1009 82.0258 694.389 512.861
323 0 77.1067 12.5151 965 83.7938 693.893 512.311
324 0 79.1456 12.4581 986 84.4645 693.967 511.386
325 0 81.1435 12.4841 1013 83.9269 694.547 509.475
326 0 86.1923 12.7854 1102 82.9719 693.886 508.794
327 0 87.1876 11.8824 1036 85.3977 694.032 508.238
328 0 90.2387 12.8991 1164 83.6005 693.637 505.76
329 0 91.2516 12.471 1138 83.9772 694.236 504.581
330 0 95.2073 12.4465 1185 84.4996 693.275 503.714
331 0 98.1368 12.1973 1197 86.2331 694.344 504.109
332 1 57.0647 10.3391 590 87.5322 694.031 521.89
333 0 58.2759 10.9651 639 87.8075 694.484 521.563
334 0 61.2962 11.6157 712 86.6601 694.192 517.84
335 0 62.3142 11.8753 740 86.827 694.541 517.816
336 0 63.3466 11.6976 741 87.8232 694.804 516.483
337 0 65.2975 11.8075 771 87.4475 694.42 514.869
338 0 67.1624 12.2986 826 83.1416 692.619 514.264
339 0 71.1943 13.0348 928 80.9774 692.699 513.968
340 0 72.1214 12.3264 889 82.1204 692.304 515.427
341 0 75.1325 13.0969 984 82.2683 691.851 511.759
342 0 76.2222 12.7391 971 84.1988 692.73 513.225
343 0 78.141 12.503 977 85.0522 693.238 511.763
344 0 81.1381 12.756 1035 87.5517 692.492 509.889
345 0 82.0998 12.7406 1046 87.8136 692.132 510.966
346 0 86.1519 12.9306 1114 88.4605 692.346 508.468
347 0 88.152 12.728 1122 88.6925 691.739 506.659
348 0 90.1093 12.7623 1150 88.6591 692.039 506.02
349 0 93.0827 12.7414 1186 89.8651 692.034 502.079
350 0 96.1385 12.6172 1213 89.8566 692.823 500.646
351 0 99.1283 12.4485 1234 91.1548 691.308 500.459
352 0 102.167 12.5873 1286 90.9666 690.781 498.885
353 0 106.129 13.0313 1383 91.1142 691.709 498.717
354 0 108.275 12.6807 1373 99.3656 691.257 497.315
355 0 112.221 12.2258 1372 93.6983 691.321 493.863
356 0 117.21 12.6952 1488 93.5524 690.749 494.091
357 0 119.176 12.2088 1455 95.446 691.655 491.206
358 0 122.152 12.6891 1550 96.1652 690.631 489.157
359 1 66.0924 11.4839 759 100.192 691.175 517.656
360 0 66.0758 11.4868 759 148.563 692.175 517.656
361 0 68.0873 11.7643 801 106.087 691.027 513.11
362 0 71.053 12.357 878 104.13 691.058 512.827
363 0 72.0205 12.5659 905 104.962 690.42 511.474
364 0 76.0451 13.2027 1004 102.978 691.633 511.443
365 0 75.0497 12.2719 921 108.914 691.451 509.712
366 0 77.0537 12.8352 989 109.624 691.494 509.804
367 0 79.0829 12.3541 977 110.901 690.92 510.691
368 0 81.0459 13.079 1060 109.048 690.733 507.384
369 0 83.1698 13.0696 1087 105.839 691.231 509.708
370 0 86.0272 13.0656 1124 106.114 691.322 506.44
371 0 87.1123 12.5241 1091 98.8863 692.236 508.028
372 0 89.1239 12.5107 1115 100.027 692.026 504.205
373 0 92.1397 12.7741 1177 99.3246 692.684 505.606
374 0 94.2248 12.5763 1185 100.239 692.017 502.978
375 0 96.1296 12.067 1160 100.326 692.578 502.247
376 0 99.1656 13.0287 1292 98.031 692.371 500.532
377 0 104.143 12.7613 1329 98.0301 692.381 498.974
378 1 59.1036 12.1651 719 100.045 692.873 520.008
379 0 59.0692 11.6304 687 101.237 691.946 520.215
380 0 61.0681 11.8229 722 99.0582 692.238 518.202
381 0 62.0797 12.3712 768 102.452 691.664 516.87
382 0 65.0738 12.432 809 102.527 693.529 514.981
383 0 67.0847 12.6407 848 101.517 693.979 515.166
384 0 71.0431 12.4854 887 101.523 693.865 513.846
385 0 72.0754 12.2927 886 101.021 692.281 512.718
386 0 75.0672 12.3623 928 101.161 692.69 510.386
387 0 75.0507 12.6981 953 100.948 692.17 509.039
388 0 78.0341 12.5202 977 99.8547 692.902 508.251
389 0 80.097 12.8095 1026 99.3957 693.545 506.384
390 0 80.1166 12.4943 1001 100.386 693.552 504.415
391 0 83.1522 12.5553 1044 99.7423 693.677 503.992
392 0 85.1644 12.3995 1056 100.421 693.616 502.622
393 0 84.1268 11.8155 994 97.8048 693.108 503.427
394 0 87.1301 12.0854 1053 96.6078 693.576 502.328
395 0 90.1342 12.204 1100 95.4682 693.872 500.155
396 0 93.1643 12.1506 1132 94.9505 693.788 496.447
397 0 95.2314 12.6324 1203 93.0407 693.347 494.596
398 0 96.1432 11.9301 1147 94.6609 693.484 494.174
399 0 95.2417 10.8566 1034 97.9942 693.543 493.308
400 0 100.218 11.6746 1170 96.1906 693.694 491.532
401 0 100.124 10.8565 1087 97.2511 694.099 486.591
402 1 51.13 9.07491 464 92.7586 693.442 511.446
403 0 56.1368 9.85094 553 92.2152 693.703 512.4
404 0 56.1264 10.4585 587 92.4003 693.67 509.961
405 0 58.255 10.9862 640 86.5016 694.567 510.681
406 0 57.0474 9.15029 522 81.2011 694.042 514.284
407 0 57.0418 8.78303 501 82.7385 694.437 514.828
408 0 60.0367 9.02782 542 83.3616 693.935 512.397
409 0 66.0929 11.6805 772 88.6865 695.519 516.65
410 0 66.0753 10.8361 716 91.4986 695.335 515.709
411 0 68.0622 11.3426 772 89.3303 695.109 515.727
412 0 72.1069 11.5662 834 88.6103 694.806 514.284
413 0 72.0733 12.0849 871 92.6257 695.095 511.09
414 0 73.1591 11.2358 822 94.1667 694.446 514.369
415 0 74.0665 11.3817 843 95.6441 694.189 511.77
416 0 77.2132 11.3582 877 94.9726 694.084 511.718
417 0 80.1148 11.7456 941 96.4942 693.718 508.622
418 0 84.0897 11.5115 968 92.1767 694.67 507.625
419 0 88.1502 12.1611 1072 90.7407 694.123 506.491
420 0 88.1236 11.4498 1009 92.3786 694.365 504.154
421 0 92.1366 11.9931 1105 93.1557 693.113 502.903
422 0 96.1183 11.2778 1084 104.456 693.923 500.317
423 1 52.1094 10.6891 557 101.776 694.201 521.411
424 0 51.0401 10.9522 559 97.9911 694.118 521.106
425 0 55.0348 11.7199 645 94.262 693.786 520.847
426 0 54.0278 11.4571 619 99.4378 693.69 519.677
427 0 54.0271 11.4387 618 137.515 692.701 519.665
428 0 59.0246 12.7743 754 96.2851 693.176 519.089
429 0 61.0359 12.3534 754 97.0663 693.265 516.836
430 0 64.0685 12.0808 774 96.9974 692.526 515.628
431 0 63.0987 12.4408 785 95.9261 692.777 515.097
432 0 64.0778 12.8282 822 95.809 692.382 513.564
433 0 69.0896 12.766 882 94.8163 692.695 513.392
434 0 71.0902 12.9835 923 92.6392 692.407 510.765
435 0 72.0224 13.2181 952 92.2122 692.393 510.441
436 0 76.0338 13.6255 1036 95.3851 693.339 509.677
437 0 77.0377 14.0321 1081 94.9537 692.651 509.561
438 0 79.0264 13.312 1052 96.5646 692.694 506.911
439 0 82.0591 13.8559 1137 95.7168 692.474 505.508
440 0 82.0453 13.2366 1086 98.6657 693.127 505.027
441 0 87.062 13.9785 1217 96.4947 692.571 503.593
442 0 88.0362 13.7216 1208 97.4338 693.088 502.931
443 0 91.0607 13.5843 1237 98.0582 692.179 500.51
444 0 90.0318 12.54 1129 102.421 692.571 500.493
445 0 94.1696 12.2014 1149 100.298 693.514 500.096
446 0 95.1736 12.1252 1154 101.633 694.143 499.46
447 0 99.11 13.0158 1290 98.4426 694.87 498.259
448 0 99.1888 12.1385 1204 101.013 694.428 495.29
449 0 105.109 13.2434 1392 96.2931 694.081 494.804
450 0 108.123 12.8372 1388 98.6146 694.12 493.816
451 0 112.188 12.8356 1440 96.8278 694.053 489.97
452 0 115.219 12.1681 1402 97.311 693.825 488.578
453 1 63.0668 11.2579 710 95.2972 694.72 515.017
454 0 66.0408 11.7806 778 91.9229 694.834 513.737
455 0 67.1506 11.8242 794 88.573 694.28 513.02
456 0 67.0756 11.241 754 84.6459 695.259 514.792
457 0 68.0662 10.9452 745 88.5852 695.49 514.599
458 0 70.0387 10.9511 767 88.6806 694.872 511.834
459 0 74.0665 11.5707 857 87.8565 694.272 509.9
460 0 77.08 11.3648 876 88.3961 694.727 508.202
461 0 78.0796 11.1169 868 128.645 694.741 508.456
462 0 82.0778 11.6962 960 86.8938 695.176 506.052
463 0 82.0778 11.7084 961 139.103 696.159 506.127
464 0 85.1241 12.194 1038 87.2649 694.81 502.925
465 0 90.0948 12.6089 1136 84.6347 694.574 501.901
466 0 94.1511 12.8942 1214 84.313 694.498 499.737
467 0 96.0879 12.8424 1234 84.9603 694.147 498.479
468 0 101.217 12.8635 1302 85.3687 693.326 495.687
469 0 103.166 12.8821 1329 86.6072 693.352 493.689
470 0 106.217 12.7192 1351 85.5514 693.71 493.12
471 0 110.165 13.035 1436 84.86 693.621 490.265
472 0 113.127 12.5434 1419 84.2481 693.177 489.321
473 0 118.152 13.398 1583 84.2855 693.852 487.872
474 0 119.226 12.4553 1485 87.2707 693.174 482.183
475 0 125.278 13.0829 1639 89.2685 693.696 479.25
476 0 131.229 12.7639 1675 87.5403 693.161 478.372
477 0 134.184 11.5215 1546 90.3389 693.017 477.461
478 1 67.045 11.2313 753 80.9243 693.615 514.355
479 0 68.0607 10.9461 745 83.0134 694.086 512.344
480 0 72.0891 11.1529 804 83.0448 693.644 511.679
481 0 74.1566 11.1251 825 84.7891 692.783 509.142
482 0 76.1238 11.4944 875 82.9829 693.593 509.424
483 0 78.0959 11.6523 910 84.4725 693.47 507.601
484 0 81.1034 11.4545 929 85.6103 693.814 506.4
485 0 83.1101 11.8277 983 84.4334 693.595 505.198
486 0 86.114 11.8099 1017 85.7109 692.894 504.567
487 0 90.0752 11.3905 1026 85.7846 692.035 503.162
488 0 90.1206 11.3958 1027 86.4314 692.99 501.09
489 0 95.1297 11.7314 1116 85.8853 693.184 499.333
490 0 98.1273 11.536 1132 87.114 692.997 498.025
491 0 101.065 11.0523 1117 85.932 692.46 496.587
492 1 52.0199 10.2268 532 86.6711 693.586 519.248
493 0 53.0269 11.3339 601 83.3444 693.155 521.175
494 0 56.057 11.8272 663 81.7994 693.867 519.193
495 0 58.0157 11.4624 665 79.3744 692.03 517.223
496 0 58.0123 11.4631 665 79.1789 692.047 516.744
497 0 61.0346 11.9932 732 77.5697 691.664 515.807
498 0 58.1117 10.7896 627 80.9841 693.544 517.423
499 0 61.0587 9.87574 603 84.058 694.081 515.529
500 0 64.067 11.0041 705 81.6837 693.902 515.136
501 0 65.1508 10.8824 709 82.0748 693.142 512.966
502 0 67.097 10.4029 698 81.1719 693.448 514.448
503 0 68.0266 10.3636 705 80.5702 692.599 513.57
504 0 71.0573 10.8363 770 78.7896 693.822 511.469
505 0 74.0879 11.2839 836 77.5766 693.567 511.145
506 0 77.1956 11.2571 869 78.2819 693.44 509.68
507 0 79.0992 11.3781 900 77.8789 692.589 509.566
508 0 80.0854 11.3629 910 78.7231 692.748 508.525
509 0 84.1117 10.7357 903 79.2248 692.493 507.072
510 0 88.1135 11.8484 1044 77.7807 692.542 505.088
511 0 88.1741 10.7174 945 80.5354 692.424 504.002
512 0 92.1435 11.1674 1029 79.6978 692.798 504.086
513 0 96.1008 10.8844 1046 81.2648 692.293 501.482
514 0 98.0917 10.7247 1052 81.9933 691.913 499.488
515 1 52.1259 10.82 564 84.7979 693.294 519.885
516 0 55.0983 10.9441 603 81.7048 692.411 520.081
517 0 55.0587 11.3878 627 80.748 691.884 522.335
518 0 56.065 11.7899 661 80.2526 692.228 520.472
519 0 57.0224 11.8375 675 82.7941 691.025 520.566
520 0 61.0584 12.1032 739 82.0068 691.635 519.38
521 0 63.1061 12.0749 762 82.2113 692.428 517.235
522 0 63.0631 12.2576 773 83.8564 692.318 516.453
523 0 67.0361 12.1576 815 85.0282 691.977 516.744
524 0 67.0489 12.558 842 86.0808 692.825 515.177
525 0 70.0865 12.6843 889 86.6198 693.148 515.148
526 0 70.1001 12.6819 889 90.8436 692.965 513.673
527 0 74.1129 12.4 919 91.3928 692.347 512.992
528 0 75.0923 12.5446 942 92.2951 692.51 512.39
529 0 78.1051 12.7264 994 91.8742 692.719 511.465
530 0 80.1224 12.8179 1027 92.0983 692.827 510.684
531 0 82.1765 13.0329 1071 93.8973 692.031 508.751
532 1 43.0392 10.7809 464 101.616 692.235 529.19
533 0 47.074 11.5987 546 98.3645 692.786 527.694
534 0 46.1624 11.1346 514 99.8035 692.276 527.2
535 0 47.2127 11.247 531 101.008 692.043 525.606
536 0 47.0547 11.7523 553 101.217 692.331 526.416
537 0 51.0456 12.0872 617 99.2788 692.476 525.524
538 0 51.0158 12.0355 614 100.679 692.283 524.358
539 0 52.0322 12.4154 646 99.7105 693.328 524
540 0 54.0582 12.0611 652 100.293 693.316 523.713
541 0 55.023 12.0859 665 100.492 693.008 522.911
542 0 55.0248 12.4126 683 100.558 693.41 522.627
543 0 59.0571 12.7842 755 99.2159 692.544 521.584
544 0 60.0726 12.668 761 99.7004 692.135 521.264
545 0 62.0399 12.5242 777 100.003 691.969 520.282
546 0 63.0792 12.5081 789 100.76 692.298 519.797
547 0 66.0493 12.3393 815 101.35 691.171 520.313
548 0 70.0672 13.5013 946 97.0877 690.717 518.996
549 0 70.0452 12.6061 883 101.068 689.545 518.294
550 0 74.0781 13.2563 982 99.6965 690.091 516.808
551 0 76.0254 13.0746 994 101.627 690.138 515.127
552 0 79.042 13.069 1033 102.239 690.762 515.318
553 0 80.063 12.8774 1031 105.965 690.058 513.02
554 0 81.0444 12.5487 1017 107.502 690.409 511.74
555 0 84.0445 12.9098 1085 107.206 689.568 512.455
556 0 88.0916 12.0897 1065 109.038 690.065 510.092
557 0 90.0631 12.8243 1155 105.503 689.951 509.544
558 0 92.1097 12.2137 1125 106.526 689.705 507.978
559 1 49.0201 11.4035 559 100.857 690.059 528.521
560 0 50.0258 11.574 579 97.9033 690.219 527.886
561 0 51.0196 12.0738 616 90.625 691.019 527.252
562 0 53.0342 12.6522 671 86.9151 691.443 526.845
563 0 52.0127 12.1701 633 92.1327 691.12 527.539
564 0 51.047 11.0291 563 95.5542 690.572 527.828
565 0 55.0386 11.0831 610 93.6148 690.748 527.613
566 0 55.0096 11.9434 657 92.4231 691.018 526.893
567 0 57.0378 11.8693 677 91.9764 691.632 526.349
568 0 60.0162 11.8968 714 90.5854 691.05 524.906
569 0 60.0179 11.9798 719 91.4896 691.21 524.994
570 0 63.0293 12.1055 763 92.4928 691.225 521.801
571 0 64.0169 11.95 765 93.3085 691.025 522.336
572 0 66.0392 12.2654 810 91.3481 691.044 521.543
573 0 68.0232 11.5108 783 92.6015 691.075 520.092
574 0 72.0436 12.1038 872 94.0883 690.829 517.62
575 0 74.0406 12.6012 933 93.2251 690.215 518.046
576 0 77.057 12.4324 958 94.7578 690.011 515.311
577 0 79.0709 12.3813 979 95.6108 689.888 514.818
578 0 80.0584 11.6165 930 99.586 690.516 515.178
579 0 85.0453 11.829 1006 99.1272 690.254 512.433
580 0 86.151 12.0486 1038 98.2004 689.666 510.446
581 0 89.2077 11.7254 1046 97.7973 689.09 508.793
582 1 49.0095 10.9571 537 99.2179 689.767 528.495
583 0 50.0111 10.7576 538 99.5037 690.342 527.045
584 0 52.0455 11.5476 601 96.4742 690.686 526.371
585 0 53.0358 11.5959 615 99.5203 690.177 523.98
586 0 56.1131 12.9382 726 96.1983 691.198 524.556
587 0 54.133 12.1737 659 99.1639 691.452 523.194
588 0 57.0884 12.2091 697 97.8895 690.76 523.011
589 0 56.1053 11.7814 661 87.416 690.788 524.419
590 0 58.0287 11.1841 649 89.2126 690.992 522.43
591 0 61.0581 10.9404 668 89.1916 691.063 522.043
592 0 63.146 11.608 733 87.9454 690.9 522.004
593 0 64.0405 11.0087 705 89.478 690.322 520.677
594 0 67.0527 11.2896 757 89.3804 689.62 520.744
595 0 69.0481 11.673 806 90.3189 690.747 518.803
596 0 71.0286 11.5728 822 91.2397 690.449 516.477
597 0 74.0243 11.2396 832 91.6671 690.359 517.343
598 0 78.0258 11.4449 893 93.3236 691.587 515.365
599 0 79.0982 11.7322 928 92.7963 691.383 514.952
600 0 83.0369 11.525 957 94.558 691.286 513.452
601 0 85.0677 11.7083 996 94.8122 691.1 511.463
602 0 90.0973 12.6308 1138 92.1793 690.793 510.728
603 0 92.1406 12.5243 1154 93.7643 690.483 507.859
604 0 95.0987 12.4607 1185 94.1063 690.926 505.935
605 0 97.0621 11.6935 1135 96.6828 691.146 503.81
606 1 49.0341 11.2779 553 98.7486 690.868 526.906
607 0 53.0122 11.5634 613 99.8091 691.303 527.196
608 0 52.061 11.4481 596 101.334 690.46 524.844
609 0 54.0619 11.9308 645 100.893 691.648 523.349
610 0 54.0619 11.9863 648 128.796 691.668 523.222
611 0 58.0669 12.6578 735 99.8422 690.917 523.767
612 0 58.0697 13.2771 771 99.1349 690.435 523.157
613 0 61.0775 12.918 789 97.6565 690.63 522.02
614 0 62.0922 12.7069 789 97.7136 691.004 521.594
615 0 65.1361 12.7733 832 96.7957 690.867 520.101
616 0 66.1248 12.6428 836 96.2763 691.089 519.079
617 0 67.0966 12.4149 833 98.1465 690.349 516.546
618 0 71.1141 13.0495 928 94.6638 691.262 517.012
619 0 74.1831 13.0218 966 94.2174 691.821 515.988
620 0 74.0855 12.85 952 96.6817 691.025 514.356
621 0 78.0881 12.3578 965 96.8311 690.524 513.207
622 0 80.1489 13.138 1053 92.5166 691.127 512.982
623 0 84.0767 12.893 1084 92.3238 690.876 511.538
624 0 85.0637 12.8727 1095 92.5169 691.525 509.753
625 0 88.3373 12.9843 1147 91.3888 691.597 508.325
626 0 91.0993 12.7663 1163 91.7876 691.232 506.278
627 1 50.0887 11.4597 574 90.7857 691.5 526.646
628 0 50.0772 11.2227 562 93.79 691.116 526.338
629 0 53.0913 11.0376 586 94.0614 690.625 522.35
630 0 54.0899 12.0355 651 95.9662 691.512 522.315
631 0 56.2054 12.6322 710 96.1859 691.444 520.118
632 0 59.1219 12.2459 724 94.2459 692.066 520.08
633 0 61.1132 12.5996 770 93.1195 691.768 519.814
634 0 59.0807 12.4745 737 94.5197 692.391 519.301
635 0 63.1898 12.5811 795 94.7736 692.805 516.306
636 0 65.0907 12.5824 819 93.2845 692.47 515.612
637 0 65.2379 12.3241 804 92.898 692.641 514.756
638 0 66.1035 11.7392 776 89.0193 692.481 515.726
639 0 69.0479 12.0786 834 89.2278 692.297 513.676
640 0 71.0634 12.0597 857 89.79 691.587 513.158
641 0 71.0694 12.2134 868 91.2235 692.376 512.21
642 0 73.0546 11.5941 847 94.209 691.911 512.678
643 0 75.0793 11.9873 900 94.62 693.063 509.321
644 0 80.1256 12.5179 1003 92.8385 692.79 506.269
645 0 80.0972 12.0354 964 94.945 692.902 505.89
646 0 82.1248 11.86 974 96.231 691.378 505.566
647 0 86.0741 13.1747 1134 93.9559 691.338 503.761
648 0 88.0701 12.1608 1071 96.4332 691.428 501.514
649 0 90.0748 12.6117 1136 94.6787 691.076 499.812
650 0 91.0569 12.0913 1101 96.3588 690.723 497.534
651 0 93.0738 12.2054 1136 96.6981 690.278 494.694
652 0 96.1816 11.5615 1112 98.5081 691.394 492.486
653 0 99.1392 12.316 1221 96.5168 691.37 489.766
654 0 100.139 12.0532 1207 97.9793 692.003 488.372
655 0 102.211 11.9654 1223 98.2666 691.35 486.049
656 0 108.178 11.7954 1276 96.7281 691.19 485.288
657 0 116.196 12.9437 1504 92.4794 691.618 485.334
658 0 119.225 12.6651 1510 94.6066 691.764 484.337
659 1 51.0651 10.1439 518 84.083 692.616 518.614
660 0 52.1391 9.87742 515 78.9573 693.2 517.095
661 0 54.0831 10.1141 547 80.0932 692.382 515.483
662 0 57.1021 11.6108 663 80.2097 693.449 518.176
663 0 58.0163 11.4106 662 80.5891 692.541 518.695
664 0 60.0412 11.8585 712 79.6573 692.824 515.803
665 0 60.0277 11.7113 703 81.5107 692.895 516.223
666 0 63.0489 11.5625 729 81.642 693.401 515.14
667 0 63.0299 11.3914 718 81.8078 693.6 513.844
668 0 66.0493 11.4157 754 81.5239 692.768 513.139
669 0 67.1254 11.2774 757 82.6962 693.099 511.935
670 0 71.049 11.5695 822 81.6703 692.807 510.485
671 0 74.1308 11.9384 885 79.5424 693.049 508.501
672 0 76.137 11.4793 874 80.7746 693.469 508.717
673 0 79.146 11.7757 932 86.8927 692.138 506.727
674 0 81.1783 11.6657 947 90.4995 693.226 505.155
675 0 84.1937 12.0793 1017 89.0472 692.308 503.027
676 0 88.2465 12.3178 1087 86.0442 692.759 504.432
677 1 47.0267 9.93054 467 81.2527 693.884 525.141
678 0 47.0238 10.6967 503 82.835 694.026 523.006
679 0 49.046 11.5198 565 82.4584 693.798 524.611
680 0 50.0129 10.9172 546 86.1777 691.923 521.436
681 0 53.0523 12.007 637 79.7174 692.259 521.245
682 0 54.0105 10.9238 590 82.6627 692.08 520.856
683 0 54.0886 11.0744 599 84.3606 692.831 519.75
684 0 56.0357 11.796 661 81.9153 692.903 520.026
685 0 57.0226 10.3292 589 84.983 693.321 519.397
686 0 62.0168 12.4644 773 78.5433 693.166 519.039
687 0 63.0973 12.14 766 82.0196 692.77 516.576
688 0 66.0547 12.2474 809 80.8912 692.891 516.983
689 0 67.0421 12.9173 866 80.6109 693.018 516.255
690 0 68.0425 11.772 801 83.4345 692.879 515.906
691 0 69.0759 11.5959 801 85.5943 692.321 514.657
692 0 70.0346 12.4795 874 84.9016 693.325 513.186
693 0 74.1125 13.1017 971 83.6447 692.936 513.298
694 0 76.0974 12.3526 940 85.5245 693.748 511.319
695 0 79.0435 12.4109 981 86.0204 692.637 509.893
696 0 80.1187 12.3816 992 86.4637 692.875 507.555
697 0 84.119 12.5893 1059 86.2314 692.174 507.875
698 0 87.1027 13.1454 1145 85.3878 692.387 506.686
699 0 88.1465 12.2637 1081 86.9944 692.803 506.509
700 0 93.1453 13.1193 1222 87.0049 692.515 504.269
701 0 96.1471 12.6889 1220 89.7508 693.243 503.691
702 0 97.1477 12.7023 1234 91.034 692.716 502.912
703 0 102.205 13.2186 1351 90.7572 692.509 500.248
704 1 54.0724 10.301 557 93.8151 693.336 524.53
705 0 56.1261 11.3316 636 87.9009 693.596 525.58
706 0 58.037 11.7684 683 86.7262 693.025 524.209
707 0 58.0357 12.1477 705 87.4894 692.515 524.594
708 0 60.037 12.1259 728 89.1071 692.541 523.922
709 0 61.0977 11.7026 715 89.1958 692.003 523.831
710 0 62.0773 11.1635 693 91.3882 691.661 522.061
711 0 65.0893 11.8606 772 88.9339 692.237 520.07
712 0 65.0289 11.641 757 91.0079 692.209 519.676
713 0 68.0354 11.9056 810 86.7889 691.727 520.83
714 0 72.1467 12.239 883 86.4655 691.759 519.745
715 0 71.1308 11.5702 823 89.1081 692.209 518.655
716 0 73.1273 11.4048 834 89.9065 692.385 517.619
717 0 76.0981 11.3932 867 89.6782 691.844 517.362
718 0 80.1573 12.1386 973 91.0925 691.446 514.639
719 0 82.1217 12.5424 1030 91.9592 691.484 513.998
720 0 86.1447 12.2933 1059 93.8451 691.801 512.536
721 0 89.1637 12.1126 1080 94.0981 691.264 510.412
722 0 90.2147 12.038 1086 94.2274 691.572 510.947
723 0 94.2406 12.7015 1197 94.9256 691.544 507.46
724 0 97.1362 12.3023 1195 96.2611 691.955 505.079
725 0 101.21 12.647 1280 94.4297 692.06 503.788
726 0 104.177 11.7685 1226 99.2993 691.087 501.285
727 1 59.0786 11.5778 684 92.4225 691.868 524.659
728 0 61.0319 11.2892 689 95.1843 691.952 522.981
729 0 61.1049 11.4721 701 98.9872 691.572 522.267
730 0 64.1085 11.8393 759 100.735 691.48 520.692
731 0 67.0489 11.8869 797 96.9297 691.701 520.809
732 0 70.0893 12.0275 843 87.758 692.227 519.936
733 0 71.0952 12.7013 903 87.278 691.788 519.853
734 0 74.1264 12.4922 926 86.9287 692.432 516.763
735 0 76.0826 12.4733 949 87.2287 692.378 513.213
736 0 79.0917 12.2516 969 88.9174 692.083 512.489
737 0 81.0682 12.5203 1015 88.2621 691.966 510.221
738 0 85.097 12.7972 1089 87.3131 691.797 511.403
739 0 88.0693 12.9898 1144 87.7649 692.09 509.401
740 0 90.0692 13.2565 1194 87.7563 692.132 507.786
741 0 91.0739 12.2538 1116 91.8522 691.825 506.907
742 0 94.0609 12.5451 1180 91.8661 692.093 504.948
743 0 97.0305 12.3879 1202 91.8869 691.047 504.13
744 0 99.0776 12.2732 1216 92.0419 690.948 503.114
745 1 54.0446 10.5468 570 91.6404 691.577 525.128
746 0 57.0501 10.6047 605 91.5702 691.931 523.893
747 0 57.0482 11.6042 662 90.8716 691.934 521.421
748 0 61.0367 12.0256 734 89.4796 691.401 522.011
749 0 62.0237 11.8181 733 89.6207 691.106 519.825
750 0 63.0316 12.4382 784 88.4247 691.948 518.566
751 0 65.0359 12.4854 812 87.2438 692.345 518.381
752 0 68.0388 12.1401 826 87.2748 691.913 516.421
753 0 70.0547 12.4331 871 86.2354 692.114 515.606
754 0 71.0369 12.2049 867 86.8708 692.076 515.089
755 0 73.0771 11.9189 871 88.1206 692.047 512.922
756 0 77.0523 12.4201 957 87.2957 691.873 511.176
757 0 80.024 12.5087 1001 86.8282 692.146 510.319
758 0 82.0422 12.4082 1018 87.1503 692.457 509.142
759 0 85.0377 12.9707 1103 86.8885 692.454 509.024
760 0 86.0553 12.1317 1044 88.9751 692.422 509.4
761 0 88.0473 11.8459 1043 88.5829 691.982 507.432
762 0 91.1022 12.1731 1109 85.8683 692.815 504.012
763 0 94.0803 11.4796 1080 87.2565 692.603 503.323
764 0 95.0854 11.4318 1087 87.8353 692.832 502.375
765 0 99.0306 11.4813 1137 86.1847 692.468 501.862
766 0 103.101 11.3481 1170 86.2684 692.533 499.889
767 0 106.075 11.9256 1265 85.5676 693.126 496.702
768 1 56.0197 10.0857 565 79.8655 692.671 520.214
769 0 57.0427 11.3248 646 84.2477 691.232 519.577
770 0 58.0437 9.97525 579 81.1813 692.19 513.131
771 0 60.034 10.8272 650 80.9723 691.955 514.457
772 0 63.01 10.5698 666 83.5901 692.716 518.541
773 0 64.0389 11.1963 717 84.9372 692.866 516.096
774 0 67.0179 11.2955 757 83.8428 692.691 513.808
775 0 68.0753 10.7234 730 83.811 692.932 514.229
776 0 73.0732 11.3311 828 81.9324 692.337 512.748
777 0 73.0483 11.3213 827 82.2491 692.394 510.86
778 0 76.0918 11.289 859 82.0873 692.215 510.274
779 0 78.0714 10.9003 851 81.6498 692.434 509.776
780 0 80.0719 10.5031 841 81.9322 692.546 509.409
781 0 82.057 10.9558 899 81.1135 692.854 505.301
782 0 87.1039 11.7561 1024 78.583 692.896 505.773
783 0 89.083 11.7531 1047 80.6227 693.069 502.595
784 0 91.0654 11.8047 1075 77.6214 692.898 504.051
785 0 94.0312 12.1449 1142 78.3126 692.302 502.186
786 0 94.1177 10.4656 985 80.5797 693.25 500
787 0 99.0356 11.5514 1144 78.3802 693.137 500.632
788 0 106.11 12.2891 1304 76.2722 693.305 496.934
789 0 108.146 12.3167 1332 77.5578 692.426 495.444
790 1 56.084 10.7874 605 78.962 694.441 521.012
791 0 57.0853 11.3689 649 80.6872 694.721 521.701
792 0 60.0609 12.3874 744 79.8508 694.262 518.841
793 0 62.0523 12.4089 770 80.2545 693.79 517.104
794 0 61.0918 11.8183 722 83.1579 695.062 518.195
795 0 64.0551 11.7243 751 83.5366 693.652 516.897
796 0 67.0825 12.5517 842 82.633 694.153 515.734
797 0 69.1127 11.8502 819 84.1062 694.289 515.893
798 0 69.0897 11.9555 826 85.0751 694.516 515.496
799 0 72.1668 12.1801 879 84.7611 694.235 511.559
800 0 72.152 12.2103 881 124.068 694.22 511.555
801 0 77.134 12.4459 960 85.2969 694.366 510.373
802 0 81.1412 12.8048 1039 83.8797 694.136 508.874
803 0 82.095 12.0105 986 88.285 693.804 509.069
804 0 83.0534 12.4859 1037 88.4513 693.59 508.007
805 0 88.0867 12.1812 1073 89.2209 693.153 508.39
806 0 89.0905 13.1327 1170 89.1538 693.227 505.209
807 0 93.112 12.5763 1171 89.4825 693.372 505.822
808 0 95.1356 12.6977 1208 90.2773 693.516 504.898
809 0 98.1481 13.3675 1312 90.0015 692.808 502.258
810 0 101.153 12.4663 1261 90.3148 692.449 499.906
811 0 106.204 13.2199 1404 88.8632 692.206 498.497
812 0 111.176 12.9794 1443 88.3971 691.863 496.297
813 0 116.15 13.4309 1560 86.4891 692.124 493.77
814 0 119.118 13.0879 1559 88.5876 691.797 492.452
815 1 66.1613 11.3813 753 83.9588 691.984 517.157
816 0 68.1536 11.9436 814 85.8305 691.412 514.485
817 0 73.0608 12.0311 879 79.6394 692.58 516.516
818 0 75.1322 12.5379 942 82.5722 691.027 516.268
819 0 78.08 12.5512 980 83.8051 691.28 516.51
820 0 80.1026 11.4853 920 85.4674 691.405 513.862
821 0 82.1564 12.5006 1027 84.0263 691.09 510.615
822 0 86.1681 12.5104 1078 83.9601 691.336 510.489
823 0 90.1647 12.9541 1168 83.9144 690.787 508.634
824 0 94.16 14.401 1356 82.0501 692.031 508.559
825 0 96.2203 13.3444 1284 86.1495 691.585 507.294
826 0 100.069 13.4907 1350 89.0474 691.72 505.442
827 0 104.209 13.0507 1360 93.6507 691.254 502.756
828 0 108.224 12.9824 1405 93.7907 691.742 498.978
829 0 109.284 12.7191 1390 92.836 691.873 497.66
830 0 115.19 12.8483 1480 91.948 691.599 496.446
831 0 118.259 12.3289 1458 93.2812 690.474 493.446
832 0 123.365 12.694 1566 93.136 690.953 490.561
833 1 66.2639 12.0126 796 88.3417 691.436 521.351
834 0 68.0445 11.3749 774 89.332 690.89 521.948
835 0 71.0915 11.9002 846 90.2388 691.472 520.116
836 0 74.138 11.1819 829 91.0157 690.694 516.163
837 0 76.1858 11.892 906 87.6269 690.532 514.231
838 0 79.2159 11.8158 936 88.8248 690.538 513.818
839 0 82.1639 12.5237 1029 86.895 690.858 512.415
840 0 83.2182 11.7883 981 89.3354 689.624 511.031
841 0 87.1235 12.3847 1079 89.3327 690.322 507.813
842 0 89.1952 11.2899 1007 91.4469 689.526 507.203
843 0 94.184 12.826 1208 90.173 689.717 505.166
844 0 96.1287 12.5353 1205 88.5751 690.029 502.824
845 0 101.113 11.7196 1185 88.108 689.917 501.912
846 1 54.0097 11.4609 619 84.8724 690.798 524.517
847 0 56.042 11.5092 645 88.8682 689.814 524.665
848 0 57.0851 12.2449 699 86.7167 691.21 523.535
849 0 59.049 12.5489 741 86.7112 690.609 522.204
850 0 60.0561 12.3718 743 87.4078 690.922 520.992
851 0 61.149 12.1834 745 88.5195 691.392 520.878
852 0 63.1313 11.7058 739 89.0595 691.078 520.076
853 0 64.1072 12.0579 773 84.9664 690.444 519.853
854 0 67.1807 11.1937 752 87.3165 691.263 518.137
855 0 69.0956 12.0702 834 88.1631 690.938 516.781
856 0 70.1656 11.9004 835 86.1605 691.007 513.996
857 0 75.2081 11.6344 875 86.0286 691.019 515.535
858 0 75.1217 12.3 924 87.5519 690.835 512.55
859 0 79.1581 12.595 997 87.4022 690.961 510.671
860 0 79.1581 12.5824 996 135.531 691.959 510.709
861 0 85.186 13.1712 1122 88.082 690.147 509.045
862 0 86.2469 12.8932 1112 92.5351 689.971 505.651
863 0 91.2255 13.3406 1217 90.5719 689.482 505.695
864 0 93.1327 13.5398 1261 91.54 690.431 504.228
865 0 96.1736 13.0285 1253 94.0279 690.011 502.792
866 1 49.0767 11.4515 562 97.0214 690.456 525.091
867 0 52.0759 11.7713 613 98.0033 690.486 524.116
868 0 54.1285 12.3964 671 101.51 690.018 522.502
869 0 58.0665 12.9851 754 102.679 689.951 521.13
870 0 58.0745 13.1383 763 103.7 690.76 520.394
871 0 62.0462 13.6189 845 101.612 690.676 519.304
872 0 61.0371 13.1723 804 103.9 690.311 518.504
873 0 64.0397 12.9763 831 105.066 690.591 517.924
874 0 66.0561 13.6853 904 100.793 690.64 517.948
875 0 67.1105 12.9041 866 104.579 690.189 517.851
876 0 69.0905 13.6053 940 104.971 690.163 517.357
877 0 71.0357 13.3173 946 106.375 690.52 514.916
878 0 73.065 13.8507 1012 105.118 690.69 513.762
879 0 77.0525 14.2371 1097 103.038 690.606 514.075
880 0 78.0798 14.0625 1098 104.621 690.547 513.887
881 0 79.0201 14.7178 1163 104.224 690.567 512.008
882 0 81.0266 13.8473 1122 107.204 690.488 510.494
883 0 84.0818 14.2361 1197 105.659 690.867 508.81
884 0 86.137 13.8733 1195 107.079 690.229 506.576
885 0 91.0509 14.2997 1302 105.341 690.172 506.636
886 0 91.0608 14.2652 1299 106.849 690.163 504.171
887 0 96.0931 13.8199 1328 106.653 690.209 502.415
888 0 99.097 13.9762 1385 106.506 690.373 501.092
889 0 102.088 13.7038 1399 106.974 690.168 498.17
890 0 104.065 13.7318 1429 107.847 690.353 497.112
891 0 108.164 13.7106 1483 107.446 690.342 494.322
892 0 111.098 13.7987 1533 106.99 690.374 493.838
893 0 113.125 13.3745 1513 108.884 690.442 492.043
894 0 119.105 14.6593 1746 104.603 690.462 489.656
895 0 121.171 13.9885 1695 107.463 690.288 488.661
896 0 125.097 14.3489 1795 106.52 690.666 485.974
897 0 130.241 14.3349 1867 106.016 690.39 482.391
898 0 133.265 14.3324 1910 106.069 690.924 480.096
899 0 139.298 14.0921 1963 106.132 691.249 478.789
900 0 142.284 14.0493 1999 106.207 691.296 475.136
901 0 148.242 14.3211 2123 106.975 691.299 471.91
902 0 152.241 14.4967 2207 106.925 691.32 469.068
903 0 157.494 14.1783 2233 108.776 691.992 467.166
904 0 162.456 14.5886 2370 108.352 691.82 462.459
905 0 166.412 14.4461 2404 109.656 691.406 459.41
906 0 172.447 14.59 2516 110.014 691.653 457.73
907 0 175.402 13.8938 2437 113.649 692.093 453.843
908 0 182.411 14.122 2576 113.005 692.005 451.844
909 0 188.354 14.563 2743 112.271 692.32 449.695
910 1 99.2067 11.9649 1187 107.34 692.599 491.764
911 0 103.198 11.725 1210 101.137 692.631 492.493
912 0 105.128 11.8237 1243 101.344 693.014 492.274
913 0 111.125 12.1125 1346 98.8046 692.536 490.072
914 0 113.303 11.2707 1277 101.498 692.565 487.353
915 0 117.195 11.9374 1399 97.2337 692.143 484.152
916 0 122.108 12.3088 1503 97.4172 692.131 482.927
917 0 127.197 11.4939 1462 99.264 692.042 481.2
918 0 132.241 11.8647 1569 99.1714 691.859 478.718
919 1 60.0342 9.71113 583 87.3568 692.455 518.684
920 0 60.051 10.8907 654 87.6911 691.69 517.526
921 0 65.0423 11.1466 725 85.571 692.138 516.472
922 0 67.0404 10.9635 735 92.5469 690.235 515.143
923 0 66.0222 9.90576 654 89.2645 690.823 516.343
924 0 69.0581 10.093 697 88.5007 690.763 517.693
925 0 71.1163 10.6023 754 86.5637 691.288 517.333
926 0 73.0714 10.7429 785 86.6127 690.647 516.099
927 0 76.0373 11.1656 849 85.2756 690.842 514.965
928 0 76.1004 10.6833 813 86.3911 691.673 512.963
929 0 79.1281 10.641 842 85.1781 691.049 513.017
930 0 82.0867 11.0858 910 85.3385 691.425 511.874
931 0 86.1287 11.03 950 82.92 690.5 510.739
932 0 89.1428 10.7244 956 80.7803 689.864 509.041
933 0 91.1129 10.4376 951 83.3817 689.849 506.104
934 1 47.0366 10.1623 478 80.7134 689.299 528.205
935 0 48.0354 10.5963 509 81.2672 689.523 528.367
936 0 50.0181 10.5762 529 80.9074 689.459 526.518
937 0 51.0412 11.0303 563 91.2238 690.68 526.488
938 0 53.0408 11.3686 603 91.3831 690.406 525.71
939 0 55.0376 11.156 614 92.6336 689.809 525.098
940 0 57.0703 10.9689 626 92.0958 690.251 525.181
941 0 58.0124 11.1183 645 92.5566 689.922 525.225
942 0 59.0241 10.6397 628 95.4825 689.49 523.427
943 0 62.0354 11.2678 699 93.8598 689.813 522.226
944 0 63.039 10.5808 667 96.7136 690.133 522.18
945 0 64.0869 10.6886 685 97.438 690.509 522.187
946 0 65.025 11.657 758 97.4763 689.839 520.836
947 0 66.029 11.6161 767 98.3025 689.816 518.831
948 0 71.0706 11.8333 841 97.1213 689.784 518.47
949 0 73.0905 12.505 914 96.6663 690.149 517.115
950 0 76.0546 12.491 950 96.9021 690.578 515.819
951 0 76.1152 12.0869 920 105.768 690.059 516.834
952 0 79.09 12.0749 955 106.608 690.689 514.737
953 0 79.0882 12.0625 954 143.151 691.704 514.925
954 0 83.2387 11.7734 980 108.763 690.741 513.067
955 0 85.2065 12.1117 1032 106.022 690.199 512.075
956 0 89.2715 11.9187 1064 95.9126 690.816 509.261
957 0 91.1732 11.9882 1093 94.753 690.112 507.343
958 0 96.195 12.0069 1155 94.0831 690.958 504.999
959 1 52.0867 9.88737 515 90.3942 692.008 528.45
960 0 53.0815 10.9078 579 87.0812 691.642 527.779
961 0 54.0323 11.234 607 83.7776 691.857 525.135
962 0 56.0978 11.7295 658 82.6383 690.848 523.062
963 0 57.0421 12.0613 688 82.8198 691.6 523.346
964 0 58.0835 11.1564 648 84.5756 691.665 523.611
965 0 60.1053 11.014 662 84.781 692.343 522.109
966 0 61.104 12.0941 739 83.885 692.418 523.656
967 0 62.1059 12.6719 787 81.5057 692.219 523.849
968 0 66.092 11.6504 770 84.0844 691.456 521.131
969 0 68.1525 13.235 902 79.0055 692.247 520.885
970 0 67.1152 12.1135 813 83.5375 692.043 519.406
971 0 71.0892 11.9849 852 83.311 692.113 516.479
972 0 73.1029 12.1062 885 81.7153 691.49 515.253
973 0 75.098 11.3319 851 81.6169 691.396 514.176
974 0 77.1357 11.4992 887 92.7542 691.219 514.596
975 0 82.1563 12.3788 1017 89.7601 692.126 512.119
976 0 84.1753 11.9988 1010 91.0535 691.69 508.682
977 0 87.1657 12.6196 1100 90.0845 691.401 506.633
978 0 89.2889 12.062 1077 92.1727 691.392 506.506
979 1 49.0386 10.4611 513 97.8752 693.386 526.782
980 0 49.1378 10.9488 538 100.991 692.723 525.954
981 0 53.1191 11.2012 595 99.7765 692.321 523.437
982 0 52.072 11.2344 585 100.366 692.761 524.896
983 0 55.0174 11.36 625 89.08 693.24 524.509
984 0 56.0603 11.9693 671 89.2668 692.353 523.043
985 0 57.099 11.5414 659 91.302 692.762 521.744
986 0 58.0482 11.3699 660 90.9242 692.648 522.133
987 0 60.1102 11.6952 703 90.4168 692.696 520.636
988 0 64.0361 11.5404 739 88.4547 693.165 520.886
989 0 64.0207 11.918 763 88.9148 692.318 519.954
990 0 67.0407 11.933 800 88.3938 692.941 518.516
991 0 68.0589 11.8868 809 89.2954 692.412 516.85
992 0 71.0565 12.5252 890 88.5124 692.429 515.975
993 0 71.0767 11.7057 832 89.8377 693.2 514.834
994 0 73.074 12.0152 878 91.7631 693.189 514.23
995 0 75.0617 12.15 912 94.3169 692.671 511.015
996 0 78.1315 12.2486 957 94.3197 691.696 510.672
997 0 79.1023 12.4649 986 96.8256 691.496 509.902
998 0 83.0502 12.7754 1061 97.1574 691.486 509.166
999 0 85.0377 12.6532 1076 98.5558 691.09 506.958
1000 1 50.0891 10.5412 528 98.5947 690.922 525.712
1001 0 49.1216 10.9321 537 100.272 691.417 525.218
1002 0 51.0555 11.4973 587 91.3748 692.867 524.061
1003 0 53.0638 12.2306 649 89.0616 691.556 525.243
1004 0 53.0275 12.4464 660 90.3545 691.503 524.711
1005 0 56.0696 12.5915 706 88.6856 692.331 525.262
1006 0 54.0231 11.6247 628 94.7006 692.096 523.462
1007 0 57.0733 12.2299 698 92.7364 691.979 523.808
1008 0 59.0315 12.1799 719 93.8707 692.41 522.613
1009 0 61.0289 12.2893 750 92.628 691.664 523.797
1010 0 61.0598 12.8399 784 93.8508 691.804 522.812
1011 0 63.0194 13.2182 833 93.5558 691.771 522.067
1012 0 64.0871 12.8107 821 94.2887 692.715 521.104
1013 0 67.0362 13.3659 896 92.5759 691.622 519.09
1014 0 70.0704 13.5578 950 91.7189 691.744 519.294
1015 0 70.0602 13.4741 944 93.0678 691.506 517.839
1016 0 70.0746 13.3287 934 94.9507 691.027 517.081
1017 0 72.0376 12.9654 934 97.0375 691.53 516.132
1018 0 73.0425 13.0335 952 97.0935 692.375 516.642
1019 0 74.0476 13.4508 996 97.758 692.175 514.849
1020 0 77.0369 13.7856 1062 96.9322 691.579 514.693
1021 0 78.1496 13.2822 1038 98.7534 692.971 513.513
1022 0 79.0692 14.8983 1178 94.6978 692.738 515.071
1023 0 81.1651 15.0804 1224 98.5539 692.88 514.261
1024 0 82.0667 14.0861 1156 101.989 692.392 512.307
1025 0 82.0885 13.7535 1129 105.512 692.821 511.138
1026 0 82.0885 13.7413 1128 156.324 693.828 511.137
1027 0 83.0507 13.6664 1135 107.101 692.788 511.726
1028 0 84.0948 14.0199 1179 106.835 692.332 510.754
1029 0 86.042 14.0629 1210 105.54 692.147 510.193
1030 0 86.0303 14.5181 1249 103.331 691.538 509.698
1031 0 87.0331 14.5347 1265 101.455 691.514 508.374
1032 1 77.0932 11.0516 852 79.9014 692.06 505.399
1033 0 76.0989 10.9331 832 74.5168 692.056 505.287
1034 0 74.0355 10.1843 754 72.866 691.467 503.951
1035 0 72.0889 8.83631 637 72.5542 691.148 503.529
1036 0 73.1038 9.12401 667 68.8876 691.207 502.214
1037 1 0 0 2.13051e-314 -nan 2.01443e-307 1.69845e-313
1038 1 66.0751 8.80816 582 65.079 691.471 501.308
1039 0 59.0714 6.29746 372 64.9274 691.328 498.597
1040 1 36.0494 5.99178 216 65.3796 691.315 491.63
1041 0 30.0232 5.99537 180 64.4056 691.556 485.15
1042 1 62.1135 13.7168 852 119.15 691.339 437.582
1043 0 65.151 12.7089 828 126.163 690.215 441.804
1044 0 68.1189 12.5369 854 126.055 690.371 442.177
1045 0 67.1573 13.2971 893 128.11 690.636 438.983
