time division length width area intensity CMx CMy
0 0 51.0403 13.5579 692 138.844 253.384 515.669
1 0 54.0586 13.7813 745 133.749 252.042 515.436
2 0 55.086 13.5606 747 133.096 252.047 515.854
3 0 56.1334 13.9133 781 129.178 251.816 516.264
4 0 54.0161 13.1442 710 121.98 252.248 517.659
5 0 57.0174 12.7505 727 117.451 252.274 517.209
6 0 58.0233 12.6846 736 115.793 252.705 516.333
7 0 59.0774 13.0845 773 112.89 252.555 515.546
8 0 62.0369 13.0729 811 111.065 252.09 515.942
9 0 64.0582 13.519 866 109.103 252.727 514.756
10 0 64.0299 12.7753 818 111.306 252.342 514.774
11 0 67.0694 12.7629 856 110.414 252.217 512.637
12 0 70.0853 13.3552 936 106.134 252.8 511.578
13 0 72.0757 13.6246 982 107.229 251.742 510.204
14 0 75.0978 13.2893 998 107.524 251.356 509.223
15 0 77.0508 13.3159 1026 108.158 251.109 507.385
16 0 82.0675 13.8788 1139 106.01 251.436 506.867
17 0 83.106 13.5851 1129 105.119 251.119 501.845
18 0 86.0509 13.2596 1141 104.142 250.753 502.932
19 0 89.0606 13.5189 1204 101.189 250.83 501.136
20 1 43.0139 12.8796 554 101.182 250.796 523.415
21 0 47.0917 12.4863 588 99.9898 251.388 524.037
22 0 48.0649 12.8368 617 101.776 251.532 522.554
23 0 47.0174 12.6123 593 99.3811 251.555 522.897
24 0 47.0174 12.5485 590 157.593 251.52 522.92
25 0 50.0649 12.1442 608 99.8388 250.862 522.602
26 0 51.0327 12.7761 652 97.7393 250.776 522.995
27 0 53.0175 13.09 694 95.5303 250.756 521.865
28 0 54.0086 12.7202 687 96.8719 250.956 522.604
29 0 57.0395 13.289 758 94.3417 250.752 520.755
30 0 58.0196 12.9784 753 94.753 250.734 520.673
31 0 62.0557 13.359 829 93.6309 251.075 518.568
32 0 62.0538 13.1499 816 96.5797 250.973 518.551
33 0 67.0784 13.3128 893 94.0101 250.633 516.024
34 0 68.0699 12.825 873 94.835 250.506 515.357
35 0 71.0185 13.8415 983 90.9736 250.342 515.052
36 0 72.0374 13.1043 944 92.1864 250.846 512.507
37 0 74.0304 13.616 1008 90.5099 249.835 511.155
38 0 77.0538 13.4452 1036 89.4122 249.86 508
39 0 80.0719 13.6128 1090 87.7495 249.139 506.419
40 0 82.1026 13.4101 1101 88.0418 250.181 505.399
41 0 86.0915 13.7877 1187 85.7136 250.195 503.441
42 0 88.068 13.7735 1213 86.451 250.349 503.646
43 0 90.0743 13.2668 1195 88.0602 249.655 500.377
44 0 93.1087 13.0815 1218 87.986 249.733 501.337
45 0 97.1213 13.7148 1332 86.0053 249.152 499.184
46 1 49.1427 11.253 553 83.9982 249.354 518.796
47 0 50.1499 12.2034 612 84.1699 249.711 515.299
48 0 52.0195 12.3607 643 81.3406 249.625 520.538
49 0 54.0395 12.4909 675 80.0504 249.738 520.188
50 0 56.0579 12.8082 718 80.8955 249.87 519.408
51 0 56.0295 12.7968 717 82.675 250.437 518.762
52 0 57.0292 12.7479 727 83.7717 250.589 517.158
53 0 59.0392 13.0761 772 84.0855 250.313 515.771
54 0 63.0746 12.5407 791 87.7724 249.933 514.082
55 0 65.0426 12.3919 806 88.0943 250.127 513.375
56 0 67.113 12.7993 859 88.1921 250.205 511.253
57 0 68.0677 11.7089 797 89.6424 250.225 509.789
58 0 69.0582 12.3519 853 92.6694 249.849 510.598
59 0 73.0592 12.3325 901 87.4562 250.733 509.915
60 0 74.1262 12.3573 916 88.0349 249.856 507.193
61 0 79.0936 12.4915 988 87.33 250.255 506.595
62 0 82.103 13.1664 1081 85.8714 250.005 505.697
63 0 82.1217 12.3719 1016 88.4577 250.644 504.801
64 0 86.1749 12.6487 1090 87.5771 249.906 504.272
65 0 88.1308 13.0715 1152 88.1441 250.278 501.435
66 0 90.1643 12.6436 1140 89.364 249.475 500.775
67 0 93.1318 12.5736 1171 90.6524 249.094 500.174
68 0 96.1125 13.2241 1271 89.9536 249.013 497.453
69 0 100.111 13.425 1344 89.2693 248.83 498.155
70 0 102.151 13.6955 1399 89.7898 248.607 494.428
71 0 107.16 13.3259 1428 90.3655 249.314 493.286
72 1 56.1006 11.1585 626 86.0559 249.096 517.586
73 0 58.0503 11.0938 644 86.3323 249.714 517.211
74 0 60.0669 12.1198 728 84.011 249.37 516.54
75 0 65.0912 12.0907 787 76.0191 249.431 516.427
76 0 65.104 11.8733 773 84.392 249.499 514.565
77 0 68.0374 12.1551 827 84.0738 249.102 513.329
78 0 68.0328 12.2 830 84.0337 249.425 514.012
79 0 72.0292 11.9535 861 85.3229 248.972 511.048
80 0 75.0654 12.4691 936 83.9936 249.116 509.895
81 0 76.0699 12.2256 930 85.2376 249.724 510.04
82 0 80.1141 12.8442 1029 87.6472 250.003 507.326
83 0 82.0898 12.5107 1027 88.556 249.385 506.427
84 0 85.0621 12.0735 1027 89.481 249.531 504.498
85 0 88.0665 11.9228 1050 89.6333 249.364 502.6
86 0 90.1244 11.2844 1017 90.9489 250.378 503.375
87 0 95.0799 12.4842 1187 88.8003 249.727 499.898
88 1 48.0348 10.9712 527 84.2505 250.953 523.48
89 0 50.0734 10.6444 533 83.8968 250.597 523.047
90 0 52.0494 12.661 659 81.3308 251.228 520.945
91 0 54.0104 11.5904 626 83.6645 250.963 520.725
92 0 55.0245 11.6857 643 84.0544 249.938 519.397
93 0 55.071 11.1311 613 86.6444 249.573 518.126
94 0 58.0431 11.681 678 85.7242 249.549 517.112
95 0 60.0244 11.9618 718 86.493 250.194 514.896
96 0 59.0477 10.6185 627 88.9171 249.668 516.313
97 0 62.0309 11.9457 741 86.0567 249.387 515.397
98 0 65.0504 11.9907 780 86.3474 249.579 516.92
99 0 66.025 12.2832 811 86.0629 250.004 515.75
100 0 68.0958 11.5132 784 88.5957 250.135 514.779
101 0 71.0889 11.7599 836 90.36 250.304 512.449
102 0 73.0781 12.1788 890 90.636 249.321 511.602
103 0 77.047 12.3821 954 88.9686 248.867 511.151
104 0 80.1354 12.092 969 90.6398 249.782 508.163
105 0 81.1311 11.5492 937 92.8314 250.407 506.231
106 0 86.1629 12.6969 1094 91.9625 250.364 504.028
107 1 47.1349 10.82 510 94.1059 250.933 521.953
108 0 47.0925 11.3181 533 92.9512 251.236 522.084
109 0 49.0959 11.6507 572 91.0804 250.788 522.112
110 0 49.1198 11.5228 566 96.7721 251.412 520.293
111 0 51.0313 11.9731 611 85.9525 250.534 520.162
112 0 53.0185 12.2599 650 86.5092 250.835 519.642
113 0 54.0368 11.9363 645 87.7302 250.105 518.211
114 0 54.0428 11.8795 642 89.3738 249.952 518.268
115 0 57.039 12.1671 694 88.1873 250.292 517.486
116 0 59.0418 12.1948 720 88.025 250.014 518.301
117 0 61.0333 12.3867 756 86.9709 250.114 517.414
118 0 62.0544 12.5213 777 87.2574 249.633 515.907
119 0 63.0286 12.4547 785 87.8115 250.144 514.182
120 0 64.0594 12.1606 779 90.4762 250.089 513.54
121 0 65.0451 12.1454 790 90.381 250.199 511.282
122 0 71.0375 13.2043 938 85.5597 249.622 512.098
123 0 72.08 12.6387 911 87.5818 249.521 510.959
124 0 74.0466 12.5192 927 88.0647 249.772 509.927
125 0 76.0613 12.5425 954 85.7725 250.091 508.03
126 0 79.0964 12.5922 996 85.2078 249.659 506.435
127 0 80.0585 12.5908 1008 86.7798 249.093 505.358
128 1 42.0207 10.2807 432 90.1458 249.778 525.204
129 0 45.0254 11.2381 506 88.8379 250.917 524.435
130 0 47.0105 11.6995 550 85.0945 250.255 524.236
131 0 49.0369 11.7666 577 85.8787 249.837 524.998
132 0 47.069 12.0037 565 87.7628 249.297 524.662
133 0 49.037 12.6435 620 86.6919 249.452 523.9
134 0 50.0445 11.7296 587 89.9097 249.746 522.307
135 0 53.0504 12.441 660 86.4167 249.442 521.402
136 0 52.0729 11.964 623 88.5474 249.387 520.022
137 0 56.0947 12.2115 685 86.2555 249.882 519.927
138 0 56.1601 12.037 676 87.3269 250.105 520.003
139 0 56.0457 12.5076 701 88.3894 249.68 518.745
140 0 60.0826 12.4662 749 86.7009 249.551 518.338
141 0 61.0635 12.0858 738 87.3089 248.565 516.965
142 0 63.0714 12.1608 767 87.2242 248.713 518.009
143 0 62.0462 11.7171 727 90.022 249.212 517.613
144 0 64.0916 11.936 765 88.9726 248.86 515.597
145 0 68.0534 11.8436 806 85.9963 249.47 514.398
146 0 70.0891 11.6281 815 85.5399 249.199 513.801
147 0 70.0562 11.9476 837 85.1123 249.281 513.055
148 0 74.0404 12.3311 913 82.5356 249.654 511.643
149 0 75.0582 11.9774 899 83.7753 248.485 511.006
150 0 79.1453 12.0917 957 82.2863 248.364 510.033
151 0 81.0756 12.0258 975 83.3815 248.584 509.244
152 0 85.0545 12.5566 1068 82.9316 248.35 506.797
153 0 86.2268 12.0264 1037 85.2218 248.229 506.018
154 0 89.0778 11.8324 1054 84.5863 248.263 503.387
155 0 92.0396 12.1035 1114 83.9695 248.559 502.562
156 1 49.031 11.2174 550 79.9764 249.044 524.293
157 0 49.0294 12.1356 595 76.2773 249.425 523.593
158 0 49.0975 10.9374 537 77.1341 249.268 522.637
159 0 50.1149 10.1567 509 78.9568 249.737 522.798
160 0 51.0251 10.877 555 77.636 248.901 523.486
161 0 52.0647 11.3129 589 76.1256 249.798 522.363
162 0 51.0554 10.6943 546 77.793 249.476 522.319
163 0 53.0465 11.3108 600 77.375 248.842 521.155
164 0 57.0496 11.2008 639 75.0595 248.839 521.055
165 0 59.0572 11.6666 689 73.8316 249.263 520.347
166 0 61.0841 11.9671 731 74.4856 249.168 517.833
167 0 62.096 11.8687 737 74.5848 249.984 517.729
168 0 64.0645 11.5353 739 75.2869 249.12 514.442
169 0 65.0992 10.6453 693 76.4545 249.545 515.375
170 0 68.1085 11.423 778 75.2275 248.657 514.189
171 0 72.102 11.9414 861 73.8804 248.927 512.603
172 0 74.1336 11.857 879 74.6325 249.613 509.688
173 0 76.1331 11.6901 890 76.0303 249.751 507.952
174 0 78.152 11.2729 881 76.2338 249.351 507.736
175 0 81.0993 11.862 962 75.7141 249.358 507.178
176 0 83.1712 11.7108 974 77.2259 248.616 506.298
177 0 87.2513 12.1373 1059 75.355 248.526 506.079
178 0 88.162 11.7284 1034 77.1112 248.445 503.14
179 0 92.1787 12.2046 1125 76.4471 247.978 501.098
180 0 94.113 12.655 1191 75.1914 248.127 501.012
181 0 97.1088 12.6765 1231 75.5037 248.039 501.011
182 0 100.132 12.1539 1217 76.8915 247.961 497.91
183 0 101.244 11.8723 1202 76.3744 248.776 496.324
184 0 104.173 11.4905 1197 76.4745 248.033 494.771
185 0 108.209 11.3392 1227 76.7058 248.853 494.449
186 1 59.0673 10.2087 603 73.5755 248.718 519.514
187 0 60.1224 10.6449 640 73.1172 247.791 517.797
188 0 63.0659 10.5128 663 75.2021 247.911 514.285
189 0 66.2157 10.8887 721 76.2441 249.642 514.012
190 0 68.0838 11.7062 797 73.867 249.457 512.636
191 0 69.0204 11.7212 809 71.9679 249.157 511.252
192 0 69.058 11.7437 811 73.069 248.677 511.291
193 0 74.0911 11.7693 872 72.5103 248.1 510.529
194 0 75.1208 12.0872 908 72.1817 248.368 505.979
195 0 77.1329 11.3959 879 75.1297 247.866 505.943
196 0 81.1642 11.064 898 75.0802 248.578 504.172
197 0 84.1125 11.1161 935 74.4706 246.206 502.568
198 0 86.0894 11.0583 952 74.1985 246.364 500.67
199 0 89.1169 11.4232 1018 73.2593 246.542 498.901
200 0 93.0808 11.6351 1083 73.1348 247.177 498.45
201 0 95.0728 11.0862 1054 73.8416 246.881 498.854
202 1 50.0623 10.6467 533 93.8086 247.139 520.285
203 0 51.0191 11.2115 572 93.979 247.458 519.112
204 0 52.0566 11.8525 617 91.8006 247.861 518.173
205 0 53.1512 11.4767 610 86.2984 248.967 521.462
206 0 55.1246 10.9751 605 87.2942 248.321 520.97
207 0 56.0929 10.5896 594 87.7559 248.426 521.064
208 0 55.1162 10.1966 562 89.8452 248.137 520.518
209 0 57.0589 10.8309 618 88.5404 248.411 519.752
210 0 58.0702 10.8489 630 89.0619 247.973 517.595
211 0 61.0684 10.6602 651 88.8786 247.975 517.814
212 0 62.1089 10.2562 637 92.9435 248.025 515.473
213 0 64.0878 10.5168 674 93.3427 248.211 514.565
214 0 67.0947 11.3422 761 89.1025 248.339 515.427
215 0 70.0584 11.5618 810 89.0741 247.498 513.427
216 0 72.1958 12.0921 873 88.126 248.223 513.107
217 0 74.1298 12.2353 907 88.5248 247.606 510.203
218 0 78.0972 11.6137 907 90.1841 247.841 509.897
219 0 80.075 12.0262 963 89.2773 248.659 508.189
220 0 82.1225 11.7142 962 89.3877 248.312 507.677
221 0 85.1272 11.2537 958 90.5418 247.606 505.718
222 0 87.1071 12.6052 1098 86.418 247.651 503.434
223 0 88.1212 11.609 1023 89.2688 247.985 501.54
224 0 89.1389 11.1399 993 91.7805 248.52 500.618
225 0 93.1369 11.6388 1084 89.9991 247.876 498.321
226 1 49.0878 9.5543 469 93.6311 248.921 518.846
227 0 52.0125 10.4783 545 91.4844 248.512 519.835
228 0 51.0231 10.9754 560 92.1625 248.504 519.034
229 0 51.0269 10.8178 552 91.2663 248.484 515.732
230 0 55.1009 10.9254 602 92.9269 246.208 517.957
231 0 53.041 10.4636 555 87.0162 248 521.274
232 0 55.0888 10.6737 588 86.5323 246.636 521.094
233 0 56.0578 11.2027 628 85.6258 247.449 519.691
234 0 57.0796 10.2664 586 86.5973 247.486 519.645
235 0 59.0809 10.7649 636 83.4009 247.692 518.634
236 0 61.0732 10.4629 639 83.0861 247.61 517.466
237 0 62.0928 10.7259 666 81.2462 247.538 517.899
238 0 65.0664 10.4662 681 80.511 247.587 517.485
239 0 65.0759 11.1408 725 79.0179 246.844 514.622
240 0 67.0603 9.49891 637 80.4035 247.429 516.287
241 0 68.0791 10.1206 689 78.0058 247.155 515.566
242 0 72.1291 11.3685 820 74.089 247.717 513.618
243 0 72.1116 10.8998 786 74.243 247.631 512.774
244 0 74.1075 9.71561 720 75.2819 247.344 512.528
245 0 77.066 11.0295 850 73.9106 246.534 508.495
246 0 79.0884 10.5957 838 73.8759 246.872 509.352
247 0 82.1178 10.0831 828 74.2089 246.349 508.44
248 0 83.1085 9.85459 819 75.464 246.571 507.15
249 0 85.1563 9.64109 821 74.7698 246.631 506.613
250 0 89.0366 9.95097 886 74.8296 247.165 503.43
251 0 90.1183 8.69968 784 76.5076 247.875 504.991
252 0 93.0959 9.29149 865 75.3873 247.378 500.305
253 0 98.193 9.80722 963 75.1828 246.728 499.124
254 0 101.321 10.0078 1014 76.429 246.121 493.313
255 1 52.0167 9.95833 518 72.2761 246.093 520.741
256 0 52.0287 8.97582 467 74.6424 246.184 520.238
257 0 53.0238 10.203 541 74.0425 247.717 520.078
258 0 56.0802 10.7168 601 74.0532 247.291 518.629
259 0 59.0646 11.8684 701 70.2026 247.437 516.541
260 0 61.0806 10.8709 664 70.9217 247.997 515.645
261 0 62.0767 11.0508 686 71.4315 247.682 516.497
262 0 64.1142 12.3841 794 69.2569 248.305 515.582
263 0 67.0707 11.7637 789 70.4018 247.823 515.439
264 0 68.1373 11.5649 788 72.0609 247.627 513.39
265 0 68.1023 12.0994 824 72.8568 248.587 512.067
266 0 70.0854 11.7714 825 74.6848 247.873 512.51
267 0 73.0974 11.9156 871 75.302 247.746 510.602
268 0 75.0986 12.5169 940 75.1404 247.26 509.358
269 0 77.0626 11.8216 911 77.7618 247.342 508.434
270 0 79.0937 11.6065 918 79.232 247.298 507.722
271 0 82.0974 12.4121 1019 80.1639 247.075 505.301
272 0 84.0992 12.4853 1050 81.7781 246.738 504.414
273 0 88.15 12.7737 1126 81.0648 246.949 504.211
274 0 90.1662 12.3328 1112 83.4245 246.877 501.532
275 0 94.0687 12.6184 1187 81.6495 247.19 500.66
276 1 49.0242 10.2398 502 87.51 248.237 525.317
277 0 51.052 10.2445 523 82.4818 247.99 521.954
278 0 51.0468 9.99084 510 83.5274 248.155 519.192
279 0 52.0637 10.6216 553 84.0579 247.62 518.562
280 0 55.0713 10.8223 596 83.2903 248.097 519.466
281 0 56.043 12.0265 674 85.7255 248.206 521.349
282 0 59.033 12.4337 734 86.8597 248.614 519.432
283 0 59.0466 12.0583 712 89.4157 247.847 518.848
284 0 61.0338 11.6493 711 90.7932 247.571 516.579
285 0 66.1069 12.4647 824 88.0534 247.714 515.978
286 0 68.1044 12.936 881 87.9194 247.906 514.7
287 0 69.1005 12.5614 868 90.4182 247.893 514.922
288 0 72.062 12.5864 907 90.3517 246.878 512.738
289 0 73.044 12.513 914 92.1466 247.365 511.044
290 0 74.0262 12.5631 930 93.4645 246.84 510.655
291 0 77.0854 12.2721 946 93.8806 247.429 508.652
292 0 82.0967 13.1308 1078 90.8655 246.668 510.4
293 0 83.0848 13.1191 1090 92.9358 247 508.928
294 0 86.0366 12.9015 1110 93.8883 246.706 506.841
295 0 88.0404 12.9372 1139 95.2397 246.562 506.167
296 0 90.0377 13.039 1174 96.3475 246.729 504.713
297 0 92.0375 11.3649 1046 100.8 246.743 504.479
298 0 95.0898 12.525 1191 97.8514 247.128 503.086
299 0 98.0714 12.2054 1197 101.31 246.991 501.23
300 0 98.1227 11.6894 1147 103.282 246.315 501.663
301 0 100.094 12.1486 1216 103.806 246.13 502.453
302 1 56.0288 11.4405 641 107.243 246.161 520.505
303 0 58.0911 12.6525 735 102.163 245.916 520.054
304 0 60.0833 12.2829 738 103.581 246.741 518.495
305 0 62.0321 12.7031 788 101.442 246.753 517.43
306 0 65.0369 12.27 798 100.544 247.258 515.481
307 0 64.0266 12.0106 769 102.909 246.86 515.658
308 0 68.0822 12.7346 867 100.672 246.8 515.416
309 0 70.1293 12.7621 895 101.025 246.924 513.748
310 0 73.143 12.7012 929 100.563 246.2 511.964
311 0 73.1331 12.6618 926 100.8 246.727 512.369
312 0 77.142 12.7946 987 98.848 246.795 512.388
313 0 78.1147 13.429 1049 97.8389 246.864 510.822
314 0 81.202 13.0785 1062 97.2797 246.178 510.36
315 0 81.1064 12.724 1032 97.3392 246.335 509.418
316 0 82.0493 11.9806 983 96.9491 245.976 507.253
317 0 86.101 13.1706 1134 91.9586 246.134 508.557
318 0 89.0624 12.7439 1135 96.3339 246.182 506.93
319 0 91.0707 12.4958 1138 96.4156 245.407 507.282
320 0 94.1184 12.5161 1178 94.4737 245.586 505.447
321 0 97.1118 12.5216 1216 95.2393 246.271 504.539
322 0 100.135 12.1336 1215 96.5696 245.986 501.374
323 0 103.095 12.3867 1277 96.527 245.809 500.689
324 0 104.126 12.3984 1291 97.2479 245.723 498.941
325 1 55.1072 10.2709 566 92.1696 246.597 525.763
326 0 56.0572 11.0423 619 91.4943 245.446 525.36
327 0 60.0601 10.9723 659 90.2777 245.385 524.921
328 0 58.1109 11.0306 641 91.4353 244.808 522.814
329 0 62.0776 11.4534 711 90.6456 245.127 521.489
330 0 63.0905 11.2854 712 93.2865 243.858 520.701
331 0 65.1285 11.8228 770 94.6299 244.745 516.823
332 0 67.0923 12.0431 808 95.6931 244.666 514.474
333 0 67.1684 12.1783 818 102.224 245.671 516.902
334 0 72.1633 12.1668 878 101.23 245.227 516.797
335 0 75.1077 12.9148 970 100.407 245.485 516.212
336 0 76.1473 12.2788 935 104.148 245.756 513.529
337 0 77.1733 12.4655 962 103.932 245.255 512.105
338 0 80.1369 12.6534 1014 102.328 244.629 511.511
339 0 82.2714 12.8477 1057 103.753 244.526 509.846
340 0 84.1498 13.2621 1116 103.324 243.953 510.177
341 0 85.1736 13.044 1111 106.537 243.412 507.712
342 0 87.247 13.6624 1192 104.906 244.061 508.626
343 0 90.1729 13.7292 1238 105.089 243.85 507.297
344 0 91.1151 12.6982 1157 111.431 243.07 506.099
345 0 95.1553 13.9036 1323 107.247 242.741 505.852
346 0 97.1872 12.8309 1247 104.718 243.131 503.394
347 0 101.24 13.1568 1332 103.049 242.598 502.033
348 0 103.185 13.0833 1350 103.675 242.392 499.901
349 0 107.176 12.4841 1338 105.404 242.04 497.521
350 0 111.157 12.8557 1429 103.287 242.945 497.325
351 1 64.092 11.8268 758 103.83 242.59 520.776
352 0 66.1356 12.0661 798 102.442 242.291 518.856
353 0 68.0693 12.6783 863 107.01 242.837 518.912
354 0 68.0498 10.8744 740 101.334 242.441 518.946
355 0 69.0387 11.4139 788 100.959 243.249 518.369
356 0 70.087 11.4857 805 102.328 242.602 516.912
357 0 73.0809 11.4531 837 101.358 243.585 517.185
358 0 74.0994 11.3091 838 104.095 242.634 516.027
359 0 79.0862 12.1892 964 102.684 243.301 514.009
360 0 79.0862 12.2398 968 160.534 244.308 513.969
361 0 82.1014 11.3275 930 107.2 243.281 511.792
362 0 86.1407 11.3767 980 103.334 243.647 509.22
363 0 87.1744 11.5745 1009 103.533 243.038 509.612
364 1 46.0164 10.0399 462 100.933 244.476 529.727
365 0 48.0225 11.3488 545 94.5743 244.617 529.695
366 0 49.0648 11.1689 548 97.396 244.604 529.343
367 0 48.0385 10.5957 509 95.7132 244.621 529.1
368 0 46.1096 9.43404 435 98.131 243.234 529.388
369 0 49.0307 10.3608 508 94.439 243.797 529.309
370 0 49.0373 9.91082 486 98.107 243.698 525.634
371 0 54.0561 9.93413 537 94.9609 244.149 526.024
372 0 54.0623 10.5989 573 94.3787 243.944 523.724
373 0 53.0202 8.82682 468 99.6709 244.581 522.831
374 0 58.0334 10.8558 630 92.4413 243.994 523.184
375 0 59.06 11.1751 660 90.0106 244.483 521.377
376 0 61.0921 11.0325 674 92.3145 244.424 520.932
377 0 63.0835 11.033 696 90.9397 244.236 520.988
378 0 63.0891 11.2856 712 90.2093 245.211 520.121
379 0 67.0392 11.9333 800 88.37 244.205 517.915
380 0 69.0702 11.5824 800 88.7988 244.864 516.678
381 0 72.1316 11.5622 834 88.5947 244.251 515.594
382 0 75.057 11.7111 879 88.033 244.732 513.835
383 0 75.1008 11.5977 871 88.8048 245.286 512.747
384 0 79.0751 10.6228 840 90.5964 245.062 512.133
385 0 81.0813 10.9766 890 89.3528 244.742 507.919
386 0 83.0634 10.9073 906 90.2439 245.106 508.551
387 0 87.0431 11.5575 1006 88.5944 244.383 506.287
388 0 91.0965 11.6031 1057 87.5676 245.416 504.283
389 0 94.1454 11.0574 1041 87.2027 246.009 504.024
390 1 51.0435 10.3245 527 85.5958 246.213 524.603
391 0 51.0431 10.7164 547 87.9927 246.166 522.519
392 0 51.0464 10.5198 537 89.5158 246.199 521.624
393 0 51.0492 10.0883 515 76.0893 245.658 522.621
394 0 52.0283 9.99457 520 76.8673 246.167 522.827
395 0 53.029 10.0888 535 78.8168 246.041 521.942
396 0 53.0608 10.2335 543 79.6188 246.241 522.059
397 0 55.0188 10.6145 584 78.262 245.796 520.589
398 0 57.0416 10.8692 620 76.5871 246.181 522.018
399 0 57.0575 9.84971 562 78.5196 246.324 520.585
400 0 59.0717 11.2067 662 75.207 246.169 519.479
401 0 62.0441 10.283 638 77.6144 246.35 516.795
402 0 63.0555 11.2282 708 78.363 246.047 514.565
403 0 65.2086 10.9035 711 79.1238 246.124 513.928
404 0 67.1477 10.9162 733 79.2306 246.052 514.673
405 0 68.161 10.7833 735 78.3633 246.177 515.407
406 0 72.1905 10.9987 794 79.262 244.844 513.743
407 0 75.1236 10.9686 824 79.5522 244.977 513.273
408 0 77.1282 11.1503 860 80.7512 244.502 512.058
409 0 78.1638 11.3096 884 81.552 245.445 511.661
410 0 79.1588 11.6348 921 83.6178 245.322 509.927
411 0 84.2053 11.8282 996 82.7922 245.058 508.668
412 0 86.1666 12.0929 1042 80.9491 244.6 507.429
413 0 92.1258 12.2767 1131 88.9408 244.997 501.693
414 0 94.1532 12.0867 1138 88.2627 244.489 502.898
415 0 97.1778 11.8237 1149 89.1436 244.372 500.58
416 0 100.178 12.4878 1251 86.6043 244.477 499.716
417 1 53.1345 9.54182 507 83.7475 244.144 524.223
418 0 55.0888 10.8007 595 81.7563 245.037 523.017
419 0 57.0635 11.128 635 81.3685 244.441 522.715
420 0 58.0833 11.5352 670 81.694 244.216 521.261
421 0 59.0451 11.8723 701 81.8659 243.175 520.678
422 0 61.1214 12.1725 744 79.0134 243.855 520.804
423 0 64.1051 12.3391 791 78.5525 244.421 519.214
424 0 64.0776 12.5005 801 79.2846 244.176 517.704
425 0 66.0648 12.5029 826 79.6416 243.794 517.447
426 0 69.0612 12.3658 854 80.055 243.4 516.614
427 0 72.0558 11.9768 863 81.6211 243.689 514.141
428 0 74.088 13.1735 976 79.5287 243.938 513.183
429 0 74.1328 12.1269 899 83.0478 244.093 512.565
430 0 79.1995 12.639 1001 82.1209 243.698 510.067
431 0 81.0783 12.7901 1037 82.3645 243.9 509.96
432 0 82.0708 12.9522 1063 84.7027 243.453 507.509
433 0 86.0902 12.3475 1063 88.8758 243.808 507.036
434 0 87.1932 11.5605 1008 89.3413 243.832 505.746
435 0 91.0506 12.0812 1100 88.0691 243.889 505.737
436 0 94.1323 12.4824 1175 85.634 244.334 504.902
437 0 96.2165 12.3783 1191 86.0286 243.879 503.068
438 0 99.1873 11.685 1159 85.8749 243.983 502.402
439 0 101.121 11.5505 1168 86.6438 243.564 500.539
440 0 107.163 12.5229 1342 84.915 244.194 499.506
441 1 54.0849 10.7054 579 80.1105 243.755 524.406
442 0 57.085 11.4566 654 79.4465 244.352 522.98
443 0 60.1027 11.8797 714 78.9496 243.56 521.248
444 0 61.2076 11.9756 733 79.5853 243.936 520.858
445 0 62.0556 11.4091 708 81.8983 243.558 519.335
446 0 62.1114 11.6082 721 83.0319 244.372 518.652
447 0 65.1105 11.7185 763 82.6684 245.132 517.716
448 0 66.0679 11.3822 752 84.3178 244.688 515.604
449 0 68.0825 11.7798 802 84.5611 244.536 515.914
450 0 71.0471 11.6824 830 85.1072 244.299 514.12
451 0 74.0436 11.5202 853 85.3974 244.594 512.244
452 0 75.0591 11.2978 848 88.1781 244.501 511.371
453 0 78.0734 11.6429 909 88.33 244.496 508.809
454 0 79.0458 12.0436 952 88.6387 244.73 506.786
455 0 83.052 11.0654 919 91.2601 244.205 506.878
456 0 87.0881 11.1496 971 88.5139 245.179 505.362
457 0 89.0743 12.1921 1086 89.6704 245.32 504.173
458 0 92.0587 11.9054 1096 91.0073 244.586 502.336
459 0 94.0858 11.9147 1121 91.8608 244.034 501.105
460 0 97.1063 12.1619 1181 91.834 244.429 497.904
461 0 102.186 12.5555 1283 88.2666 244.167 498.083
462 0 104.141 12.2238 1273 91.3598 244.559 493.533
463 0 103.135 12.2946 1268 131.803 244.553 493.307
464 0 112.183 11.6149 1303 94.2034 244.203 488.451
465 0 116.221 11.8998 1383 93.4071 243.925 486.291
466 0 122.29 12.037 1472 93.017 244.003 484.941
467 0 124.262 11.6447 1447 94.8618 243.736 483.401
468 1 67.113 11.5179 773 88.5834 243.05 513.952
469 0 67.0817 11.0611 742 91.4407 243.743 514.197
470 0 70.1029 11.7684 825 91.7067 244.842 513.816
471 0 73.0756 12.4255 908 88.6101 245.069 512.828
472 0 73.1671 12.3826 906 89.5574 244.07 512.64
473 0 77.1167 12.6821 978 89.8845 244.772 511.807
474 0 79.0836 12.923 1022 87.2133 244.575 509.928
475 0 81.094 12.1464 985 90.7756 244.792 508.828
476 0 82.0766 12.4152 1019 87.6712 244.071 507.834
477 0 85.0845 12.658 1077 88.7242 243.815 507.331
478 0 87.1071 12.8233 1117 89.0662 243.631 505.073
479 0 90.1391 12.5806 1134 88.2787 244.082 505.658
480 0 91.1383 11.8392 1079 92.2141 243.585 504.182
481 0 94.1614 12.3193 1160 91.644 242.81 502.883
482 0 96.0631 12.346 1186 88.2825 243.522 502.181
483 0 99.08 12.1417 1203 89.8778 243.551 499.284
484 0 103.096 12.2701 1265 88.4395 243.933 500.15
485 0 106.115 12.3923 1315 88.362 244.248 495.002
486 0 110.057 12.5844 1385 88.5863 243.326 496.117
487 0 114.09 12.7005 1449 91.1056 242.872 492.177
488 0 117.106 12.4673 1460 93.2 243.471 490.551
489 0 122.152 12.3125 1504 93.3391 243.972 487.682
490 0 126.163 11.7071 1477 95.587 243.77 485.233
491 0 131.105 12.1048 1587 94.2168 243.099 483.395
492 1 67.0615 10.7066 718 90.078 243.875 517.376
493 0 70.0869 11.6855 819 88.381 244.363 514.781
494 0 73.1295 12.0061 878 90.9715 245.036 512.899
495 0 75.0985 12.0775 907 85.4697 244.215 512.535
496 0 78.0553 12.9395 1010 82.8416 244.329 511.356
497 0 79.1749 12.4155 983 85.1414 243.697 510.342
498 0 81.1653 12.3945 1006 84.9861 244.071 508.793
499 0 85.0882 12.8573 1094 86.6508 243.967 507.987
500 0 87.1016 12.9963 1132 86.3966 243.91 505.778
501 0 90.0691 13.0789 1178 85.9168 243.086 504.917
502 0 92.1395 12.3617 1139 86.691 243.507 503.889
503 0 93.1467 12.2602 1142 87.1033 242.938 502.682
504 0 97.1081 13.0576 1268 83.224 244.422 501.488
505 0 101.163 12.7517 1290 82.9899 244.25 501.254
506 0 104.192 12.3618 1288 94.9425 244.292 497.766
507 0 108.232 12.7041 1375 92.9556 243.443 496.346
508 0 110.185 12.7694 1407 92.7456 243.551 494.655
509 0 111.14 12.8127 1424 92.4424 243.131 494.406
510 0 117.196 13.6353 1598 90.2972 243.205 489.432
511 0 119.141 13.8323 1648 90.165 243.11 490.277
512 0 124.125 13.3333 1655 90.6502 243.401 488.687
513 0 128.138 13.2358 1696 90.6504 243.102 485.709
514 0 131.209 13.3909 1757 91.5168 242.719 482.869
515 0 133.146 12.9332 1722 93.5517 243.203 480.688
516 0 138.132 13.5233 1868 93.1943 243.108 478.816
517 0 144.162 13.4709 1942 94.6205 242.383 478.927
518 0 147.155 13.0678 1923 95.8263 242.35 476.033
519 1 80.1046 11.2228 899 94.7553 242.053 511.928
520 0 83.1469 11.8104 982 93.333 241.847 508.129
521 0 87.0958 12.6757 1104 82.9801 242.145 509.453
522 0 86.0817 11.8376 1019 79.6752 241.587 504.632
523 0 91.1534 12.4515 1135 85.1128 242.279 506.38
524 0 94.1817 12.805 1206 85.1277 242.212 506.163
525 0 97.098 13.0899 1271 85.3572 242.529 504.068
526 0 99.0943 12.5638 1245 89.2659 242.271 503.439
527 0 103.097 12.7355 1313 89.4455 241.66 500.97
528 0 107.098 13.0815 1401 89.3041 242.181 499.345
529 0 110.23 12.8005 1411 100.785 241.933 497.315
530 0 111.273 12.8872 1434 100.824 242.596 496.545
531 0 116.19 12.8238 1490 98.6154 241.902 495.659
532 0 122.248 13.2108 1615 99.2737 241.911 492.597
533 1 62.1114 10.9159 678 98.8186 242.454 522.41
534 0 63.0817 11.1284 702 90.0086 242.685 520.073
535 0 66.1264 12.0224 795 86.8365 242.631 520.52
536 0 68.1679 11.6917 797 87.458 242.304 519.621
537 0 71.1057 12.3197 876 85.5491 242.612 516.598
538 0 71.1194 11.544 821 88.6906 242.247 514.993
539 0 76.1022 12.4701 949 86.1992 242.979 513.423
540 0 79.1206 12.7906 1012 85.7233 242.914 514.63
541 0 83.1595 12.1574 1011 99.3323 242.15 511.708
542 0 86.2352 12.0716 1041 100.752 242.881 509.856
543 0 88.2977 11.9822 1058 101.098 242.189 509.603
544 0 92.24 12.3482 1139 98.9728 241.582 507.286
545 0 96.1445 12.086 1162 98.7117 241.327 506.796
546 0 98.1918 11.8136 1160 99.2103 241.819 504.982
547 1 53.0702 10.1752 540 93.0741 242.443 528.172
548 0 52.0512 10.5665 550 86.6691 243.402 527.08
549 0 54.0471 10.5464 570 86.9088 242.482 526.679
550 0 55.1923 11.6864 645 84.107 241.226 524.74
551 0 57.1792 11.7175 670 84.7104 241.209 523.346
552 0 59.1226 11.214 663 86.1026 241.781 523.982
553 0 60.1278 11.6918 703 86.33 241.356 522.88
554 0 63.1198 11.5495 729 84.284 241.819 522.818
555 0 65.1827 12.2885 801 84.6429 241.164 522.724
556 0 68.1285 11.6838 796 83.5641 241.338 520.663
557 0 68.2291 11.6959 798 86.9937 241.457 518.9
558 0 71.1313 11.7389 835 95.0647 241.37 518.123
559 0 73.1386 11.7722 861 94.6783 241.318 515.814
560 0 77.1111 11.8919 917 92.3097 241.195 514.937
561 0 77.1041 11.6985 902 95.1874 241.36 513.899
562 0 80.1353 11.7052 938 93.4072 242.662 513.705
563 0 82.1902 12.0452 990 94.2677 242.736 512.169
564 0 86.0738 11.525 992 94.1704 242.213 511.909
565 0 87.1407 11.5905 1010 93.7426 242.097 510.407
566 0 90.0812 12.2778 1106 92.4141 242.172 509.337
567 0 92.0566 11.8731 1093 94.1363 243.023 507.164
568 0 94.0825 11.8619 1116 93.7536 242.486 505.657
569 0 96.1632 11.8548 1140 88.1825 242.909 506.754
570 1 50.0408 10.1317 507 85.4477 243.832 530.432
571 0 51.0931 10.2949 526 85.3327 243.971 530.032
572 0 52.0668 10.621 553 85.1609 243.461 529.448
573 0 53.0493 11.3479 602 83.4934 241.934 527.638
574 0 53.0263 10.9757 582 87.165 243.172 526.96
575 0 57.0215 11.3641 648 86.7145 241.77 524.485
576 0 57.013 11.5237 657 90.5358 241.19 526.102
577 0 61.1373 11.5151 704 98.3778 241.308 525.896
578 0 61.2139 11.0596 677 103.355 242.031 523.894
579 0 64.182 11.483 737 101.005 241.83 523.611
580 0 65.2516 11.2641 735 101.307 241.411 521.093
581 0 67.2605 11.671 785 99.1924 240.754 520.517
582 0 70.2018 11.41 801 99.3271 240.996 520.63
583 0 71.1932 11.8551 844 99.4763 241.4 518.655
584 0 73.2023 11.6663 854 100.235 241.886 516.855
585 0 76.1849 12.2465 933 101.678 240.942 515.596
586 0 77.1381 11.7581 907 102.106 241.592 514.957
587 0 79.2131 12.763 1011 99.8121 242.122 513.805
588 0 82.1294 12.322 1012 101.003 240.315 512.302
589 0 84.1278 12.2195 1028 102.339 240.585 511.477
590 0 87.0788 12.483 1087 102.587 241.005 509.824
591 0 89.0957 12.1667 1084 103.757 242.97 510.665
592 0 92.1352 12.8507 1184 103.166 242.885 507.686
593 0 95.1141 12.5428 1193 104.166 242.241 507.43
594 0 100.105 13.2262 1324 102.054 241.387 506.622
595 0 101.147 12.7933 1294 104.423 242.371 505.18
596 0 102.183 13.3485 1364 103.534 242.135 502.531
597 0 107.21 13.6088 1459 102.195 241.462 502.114
598 0 109.25 13.6294 1489 101.135 241.633 501.805
599 0 115.111 12.7616 1469 102.69 242.066 498.618
600 1 58.0639 10.7984 627 101.18 242.375 526.796
601 0 60.145 11.3892 685 102.089 242.048 522.947
602 0 62.0439 11.7175 727 98.3274 241.961 523.466
603 0 65.0704 12.571 818 99.4474 241.815 521.787
604 0 66.126 12.0074 794 87.0038 242.084 521.669
605 0 67.1643 12.5066 840 87.3036 242.139 521.575
606 0 67.1316 11.8424 795 89.3799 241.411 520.428
607 0 71.0534 12.9339 919 85.0849 241.927 518.523
608 0 75.0821 12.8126 962 84.2432 241.301 517.81
609 0 73.1252 11.6649 853 89.1653 242.116 515.32
610 0 79.0999 12.9204 1022 84.6067 241.809 515.616
611 0 80.1575 12.4879 1001 85.998 241.48 513.981
612 0 82.1654 12.0732 992 87.0988 241.214 514.276
613 0 85.127 12.264 1044 86.7548 241.309 512.679
614 0 88.1183 12.313 1085 85.4479 241.778 510.994
615 0 91.1738 11.8674 1082 87.085 241.278 509.42
616 1 49.0162 10.0987 495 82.0929 242.634 530.685
617 0 50.0216 10.5754 529 79.2779 241.648 529.977
618 0 53.1111 10.4874 557 82.4632 241.944 528.041
619 0 55.1809 11.4351 631 81.1664 242 524.792
620 0 55.0499 11.4805 632 79.144 243.166 527.04
621 0 57.0325 11.7477 670 79.1537 242.19 526.439
622 0 58.0654 11.7454 682 79.2009 241.023 526.666
623 0 60.0761 11.8017 709 80.0931 240.577 525.68
624 0 61.1005 12.4058 758 79.0673 241.228 524.654
625 0 62.0878 11.8703 737 80.6662 241.303 523.947
626 0 65.074 12.3705 805 80.072 241.43 522.005
627 0 67.0699 12.8075 859 81.1967 241.403 521.534
628 0 69.1132 12.588 870 81.5402 241.08 521.398
629 0 69.0804 12.3769 855 83.9462 241.022 517.878
630 0 70.0882 12.7839 896 85.2969 241.941 518.812
631 0 74.0609 12.3547 915 85.6328 242.245 516.934
632 0 75.0864 12.1194 910 84.1143 243.24 515.002
633 0 79.1126 12.1346 960 84.0385 242.63 513.101
634 1 41.0241 10.7498 441 85.8708 244.143 532.744
635 0 43.0154 11.1356 479 88.334 242.453 532.192
636 0 44.0171 11.6091 511 87.5695 242.452 531.763
637 0 44.0133 11.4965 506 88.7154 242.091 530.595
638 0 46.2408 12.5214 579 87.1934 243.432 528.373
639 0 48.0516 11.8831 571 88.641 243.229 527.979
640 0 51.0438 12.3227 629 86.558 242.561 527.542
641 0 51.0179 12.9366 660 86.2167 243.173 528.715
642 0 52.1127 12.7416 664 87.0527 242.967 527.382
643 0 53.024 12.6358 670 87.4164 243.961 526.103
644 0 53.0371 12.6892 673 88.9599 242.773 526.058
645 0 56.0457 12.4184 696 88.3549 243.905 525.313
646 0 55.0294 11.8664 653 89.9862 244.162 525.783
647 0 57.1116 12.6594 723 88.3499 244.317 524.198
648 0 56.1814 12.1926 685 90.6482 243.971 522.502
649 0 58.1531 12.3295 717 89.6653 243.833 521.842
650 0 60.1374 12.1888 733 89.4666 243.573 521.816
651 0 62.0956 12.4969 776 89.6714 242.037 520.55
652 0 65.0441 13.0066 846 88.013 242.908 521.202
653 0 65.0792 12.2927 800 89.5012 242.824 520.489
654 0 67.0668 12.6292 847 90.2774 243.373 518.518
655 0 69.0481 12.7737 882 89.6258 242.711 517.756
656 0 70.0629 12.7314 892 89.6188 242.549 517.685
657 0 75.0467 12.4456 934 89.7313 242.957 515.921
658 0 76.074 12.3432 939 91.3056 243.259 514.503
659 0 79.0693 13.0645 1033 89.5402 242.722 514.721
660 0 81.0807 12.9377 1049 90.3966 242.86 513.596
661 0 83.0959 13.1775 1095 91.684 242.311 509.994
662 0 85.0563 12.9914 1105 92.9765 242.733 509.062
663 0 86.1062 13.1814 1135 92.9709 242.574 508.748
664 0 88.1064 13.3362 1175 93.7362 242.884 507.519
665 0 90.0478 13.304 1198 94.808 242.796 506.623
666 0 94.0894 12.9876 1222 95.0123 243.334 506.008
667 0 97.1084 13.2738 1289 93.8735 243.596 503.568
668 0 97.1704 12.3597 1201 106.818 243.264 501.381
669 0 100.213 12.194 1222 106.141 243.534 502.816
670 0 104.132 11.9079 1240 100.531 242.752 499.452
671 0 106.147 12.1812 1293 99.0495 243.104 496.794
672 0 112.214 11.9593 1342 98.6021 243.667 496.799
673 1 58.0209 11.3063 656 99.2088 242.863 523.36
674 0 59.0204 12.0467 711 97.1814 243.882 522.633
675 0 61.0264 12.6175 770 97.548 243.177 520.995
676 0 63.0596 12.4485 785 94.6497 244.079 520.456
677 0 65.0297 12.8557 836 91.5754 243.055 519.089
678 0 66.1179 12.3567 817 94.4516 244.792 516.364
679 0 68.1265 12.4768 850 94.4635 244.32 516.793
680 0 70.0782 13.4421 942 95.0924 244.633 515.291
681 0 71.1143 12.9229 919 96.4146 244.439 514.109
682 0 74.2124 13.1514 976 95.6076 244.078 513.919
683 0 76.0415 13.2033 1004 92.4512 243.119 512.514
684 0 79.054 12.9152 1021 92.2243 243.184 511.283
685 0 81.0285 12.8597 1042 91.4463 243.905 510.052
686 0 85.0996 13.5488 1153 87.3747 243.69 509.684
687 0 87.067 12.1975 1062 92.3428 243.245 507.997
688 0 90.1415 12.2252 1102 90.9483 243.504 507.601
689 0 92.1122 12.4631 1148 90.7465 243.614 506.118
690 1 49.0404 10.7259 526 92.3935 242.88 529.394
691 0 50.0711 11.5835 580 91.6414 242.572 527.605
692 0 52.0343 11.3579 591 93.4958 243.557 526.381
693 0 52.0479 12.354 643 90.4246 243.236 525.7
694 0 54.0155 11.8299 639 89.2926 243.884 526.017
695 0 55.1495 12.0037 662 89.6057 242.628 524.535
696 0 58.1108 12.6655 736 87.4973 242.923 524.251
697 0 58.1624 12.3275 717 89.682 242.444 524.148
698 0 60.0664 12.5528 754 89.1989 242.405 523.168
699 0 64.0658 12.7837 819 86.2039 242.712 523.277
700 0 63.0834 12.6024 795 88.3459 242.36 521.517
701 0 66.0716 12.7438 842 89.5831 242.988 521.846
702 0 70.1343 13.5312 949 87.0148 242.694 519.852
703 0 73.1615 12.5886 921 88.5331 242.376 517.999
704 0 73.2681 12.2018 894 89.8087 242.492 518.256
705 0 77.1561 12.9089 996 88.6707 242.816 517.836
706 0 77.1306 12.1353 936 93.3333 242.597 515.379
707 0 80.0835 12.6992 1017 91.414 242.585 515.996
708 0 84.1979 12.7438 1073 92.9021 242.23 513.785
709 0 87.2299 12.9314 1128 90.9894 241.926 511.701
710 0 89.1176 12.8145 1142 91.4168 241.933 510.085
711 0 92.2579 12.3242 1137 93 242.152 509.439
712 1 49.0627 10.7414 527 98.0835 241.767 530.759
713 0 49.1882 11.1612 549 95.8743 240.944 529.825
714 0 51.0591 11.7511 600 95.1833 241.063 529.737
715 0 53.0317 11.3328 601 87.0649 243.835 529.681
716 0 56.1071 12.1375 681 86.1292 243.703 529.733
717 0 55.0409 12.0274 662 88.0861 243.449 528.477
718 0 57.0147 11.8741 677 91.2762 242.92 528.238
719 0 59.0233 12.1139 715 92.6392 243.185 527.531
720 0 59.065 12.0715 713 95.0813 243.491 526.272
721 0 60.0499 12.1232 728 95.8681 243.256 526.321
722 0 64.0517 12.2713 786 95.4606 243.42 525.475
723 0 66.0323 12.191 805 96.2634 243.343 524.81
724 0 66.0469 12.2337 808 96.6993 243.391 523.587
725 0 71.0299 12.2202 868 94.9274 243.703 523.896
726 0 72.0509 12.5883 907 97.1488 242.797 522.137
727 0 74.1009 12.7394 944 97.1907 242.625 519.608
728 0 77.0398 13.1361 1012 98.3449 242.746 518.325
729 0 79.0385 13.2467 1047 99.4222 242.633 518.671
730 0 82.0274 13.4589 1104 98.4167 243.235 517.659
731 0 83.0371 13.3193 1106 101.773 242.663 515.823
732 0 88.0366 13.483 1187 98.6588 243.555 513.816
733 0 92.0599 13.3609 1230 98.7528 243.107 514.314
734 0 93.0613 13.0882 1218 99.7931 243.923 512.302
735 0 97.1357 12.7451 1238 100.545 243.733 509.692
736 1 47.0392 11.3735 535 108.421 244.007 530.914
737 0 49.0388 11.807 579 106.021 244.111 530.323
738 0 53.0312 12.1627 645 101.598 243.416 530.138
739 0 50.0147 11.5566 578 106.407 242.343 531.304
740 0 50.0378 10.9118 546 110.756 241.676 529.423
741 0 52.0538 11.3921 593 110.191 241.589 528.32
742 0 54.0129 11.4602 619 111.25 242.619 528.507
743 0 53.0284 11.6541 618 113.186 241.537 528.608
744 0 54.0797 11.8899 643 113.774 241.384 527.543
745 0 57.0449 12.0957 690 113.025 241.793 526.423
746 0 59.0245 11.8934 702 111.409 241.96 525.452
747 0 62.0349 11.8159 733 111.135 242.005 525.053
748 0 63.0447 11.8963 750 110.971 241.777 524.343
749 0 64.0791 11.8916 762 108.581 241.386 524.253
750 0 66.1144 12.0851 799 109.272 241.586 521.38
751 0 68.0594 11.872 808 108.183 242.074 523.016
752 0 71.0753 12.0717 858 107.678 241.748 519.674
753 0 73.0598 11.3606 830 109.295 241.887 519.09
754 0 75.0867 11.5999 871 108.604 241.881 517.819
755 0 76.0952 12.0244 915 108.577 242.113 516.675
756 0 78.0831 12.0385 940 108.04 242.201 516.118
757 0 81.0912 12.0358 976 107.606 242.013 514.892
758 0 83.07 11.6287 966 108.449 242.59 514.282
759 0 85.0545 10.8989 927 112.136 242.505 514.627
760 1 48.033 10.7634 517 113.048 243.008 530.228
761 0 51.0293 11.562 590 108.275 242.927 527.83
762 0 52.0752 11.9827 624 106.522 243.473 525.513
763 0 53.0145 11.2988 599 108.937 244.092 525.264
764 0 55.1043 12.3765 682 103.74 244.223 525.32
765 0 57.0199 12.5044 713 103 243.917 524.443
766 0 56.0129 12.2293 685 104.669 243.88 525.191
767 0 57.029 12.6953 724 103.638 244.228 526.017
768 0 58.0523 12.4198 721 105.071 243.92 524.189
769 0 61.0739 12.5913 769 104.094 242.853 522.646
770 0 64.0272 12.5572 804 104.109 243.449 521.934
771 0 63.0416 13.2611 836 104.035 243.138 520.683
772 0 66.0461 12.6881 838 100.636 243.666 520.164
773 0 67.0618 12.2424 821 105.358 243.709 518.017
774 0 69.0448 11.775 813 108.229 243.57 518.787
775 0 71.0507 11.4707 815 108.658 243.58 518.007
776 0 73.082 11.2476 822 108.999 242.964 516.027
777 0 76.0475 12.3081 936 105.496 243.28 516.3
778 0 79.1213 11.6909 925 106.675 242.658 515.983
779 0 82.0578 11.6138 953 106.722 243.124 513.506
780 0 83.1507 11.5212 958 107.087 243.196 512.293
781 1 44.0541 11.0092 485 109.231 243.763 530.181
782 0 45.0293 11.3704 512 108.521 243.936 528.018
783 0 48.0165 12.4749 599 104.96 244.384 526.588
784 0 49.0144 12.8738 631 96.6561 243.975 528.214
785 0 48.0251 12.7225 611 98.9574 243.592 528.471
786 0 52.0074 13.2289 688 94.157 244.4 528.387
787 0 52.0199 12.822 667 97.9265 244.298 527.145
788 0 52.0275 12.5511 653 99.8453 244.587 526.417
789 0 55.0172 13.214 727 97.8996 243.82 526.347
790 0 56.0459 12.686 711 100.477 244.8 525.093
791 0 58.0602 13.4171 779 98.0783 245.145 525.243
792 0 58.0616 12.9518 752 101.535 245.178 523.11
793 0 58.0336 13.3543 775 102.351 244.715 521.858
794 0 62.0701 13.0498 810 102.472 245.49 521.644
795 0 64.0676 13.1111 840 102.901 244.493 518.568
796 0 66.0548 13.4434 888 102.589 244.675 517.981
797 0 68.0792 13.8368 942 101.587 244.71 518.659
798 0 71.0563 13.5245 961 101.451 244.97 517.216
799 0 74.0959 13.5905 1007 100.852 244.73 516.117
800 0 75.0447 13.7385 1031 102.145 244.613 514.695
801 0 78.1396 13.7062 1071 102.375 245.04 513.675
802 0 78.1535 12.8721 1006 105.83 244.779 514.396
803 0 81.1179 13.129 1065 108.125 244.479 511.506
804 0 84.1316 13.6334 1147 106.36 244.212 509.822
805 0 86.1793 13.031 1123 109.245 243.742 508.736
806 1 46.0579 10.6388 490 111.573 244.253 530.937
807 0 48.004 11.2907 542 109.858 244.242 530.603
808 0 50.0213 11.5551 578 106.675 244.133 530.135
809 0 50.0203 11.6952 585 107.937 243.971 528.619
810 0 50.0324 11.9523 598 105.256 243.656 528.065
811 0 53.0229 12.4474 660 102.792 243.367 527.591
812 0 55.0215 12.7768 703 101.131 243.166 527.576
813 0 54.028 12.0493 651 98.9908 243.722 528.349
814 0 54.0139 11.497 621 98.8245 243.548 529.994
815 0 58.0506 11.5417 670 97.3866 243.725 528.127
816 0 59.0506 11.9558 706 97.2748 242.931 526.953
817 0 60.0213 12.279 737 97.8942 243.266 526.394
818 0 62.0573 12.1823 756 98.1587 242.373 525.87
819 0 66.0793 12.1369 802 96.9963 242.936 525.508
820 0 67.0931 12.3858 831 96.0457 242.931 525.179
821 0 70.0765 13.0429 914 94.2648 242.549 522.929
822 0 70.0821 12.5567 880 96.4511 242.439 521.991
823 0 75.041 12.5931 945 95.1524 242.021 520.131
824 0 78.0973 12.6765 990 95.0939 243.202 519.439
825 0 80.0661 13.1516 1053 94.6078 242.74 518.512
826 0 83.143 13.0739 1087 94.6145 243.201 517.191
827 0 86.0398 12.4477 1071 99.3128 242.23 515.988
828 0 88.0413 13.0734 1151 97.0043 242.461 515.339
829 0 93.0628 13.3351 1241 93.2216 242.591 512.885
830 1 49.0259 11.239 551 98.3702 242.574 534.704
831 0 48.0313 11.784 566 97.9046 241.486 533.067
832 0 51.0703 12.1793 622 94.5997 242.637 532.404
833 0 52.0879 12.1333 632 95.2373 242.699 531.938
834 0 52.0221 12.8022 666 89.2522 241.996 533.611
835 0 54.0252 13.4937 729 88.9712 242.019 531.248
836 0 55.0764 13.0183 717 91.53 241.229 530.119
837 0 58.03 13.4758 782 86.8299 241.166 527.556
838 0 61.0457 13.236 808 86.3218 241.27 526.269
839 0 63.0347 13.5164 852 84.8545 241.521 525.122
840 0 65.0224 12.9186 840 86.1869 240.286 523.545
841 0 65.0599 13.5106 879 85.3834 241.067 522.389
842 0 66.0368 13.4471 888 85.9538 240.087 520.804
843 0 69.0272 13.0528 901 86.7014 240.312 519.385
844 0 71.1181 12.655 900 83.4444 241.511 518.1
845 0 74.1314 13.3816 992 82.1835 241.357 517.544
846 0 75.0734 12.974 974 83.3737 241.811 516.393
847 0 80.0485 13.4044 1073 83.0513 241.174 515.889
848 0 79.0984 12.8827 1019 85.5388 242.146 514.191
849 0 83.1492 12.7602 1061 86.2912 242.059 512.368
850 0 86.1033 12.7173 1095 87.5023 242.343 511.965
851 0 88.0861 13.2257 1165 87.6017 242.544 508.727
852 0 89.1062 12.1204 1080 92.6407 241.912 511.503
853 1 50.0312 11.9925 600 89.0033 241.507 530.695
854 0 50.0705 12.4025 621 90.8003 242.322 528.314
855 0 49.0292 11.4218 560 91.8375 242.546 530.72
856 0 50.0469 12.0287 602 89.7724 242.698 529.927
857 0 53.0997 12.2976 653 89.0582 242.75 528.764
858 0 54.0619 12.3007 665 90.5654 242.627 527.271
859 0 55.0945 12.6873 699 90.731 242.717 525.963
860 0 59.0839 12.1353 717 91.5621 242.591 525.552
861 0 58.1855 12.3914 721 90.8447 241.9 525.27
862 0 63.1395 12.3378 779 90.5225 241.587 523.676
863 0 64.0618 12.5192 802 91.5786 241.246 522.31
864 0 68.1408 13.1346 895 90.5888 242.169 521.391
865 0 71.1037 13.2342 941 90.8916 241.726 520.783
866 0 72.1446 13.0017 938 93.71 241.642 518.696
867 0 74.1567 12.8107 950 94.6053 241.732 517.952
868 0 79.075 13.4303 1062 93.2947 241.184 516.086
869 0 78.0801 12.5 976 97.3227 241.369 514.927
870 0 83.0586 12.6176 1048 95.1193 242.158 515.066
871 0 84.0819 13.1657 1107 94.9729 241.827 513.043
872 0 88.0449 12.8684 1133 95.5278 241.69 511.153
873 0 92.0355 13.2558 1220 94.8934 242.186 509.671
874 0 92.0355 13.2884 1223 156.244 243.18 509.614
875 1 50.0108 12.2574 613 101.173 241.268 529.99
876 0 54.0432 12.9526 700 99.6771 241.22 529.2
877 0 56.0573 13.3792 750 94.8213 242.197 527.527
878 0 56.033 13.5634 760 94.4974 242.308 525.438
879 0 59.0449 14.091 832 92.2536 242.317 526.416
880 0 59.0545 13.5129 798 94.0251 242.336 526.67
881 0 62.0499 12.9412 803 95.325 242.537 524.087
882 0 64.1157 13.3665 857 93.3699 242.529 523.085
883 0 66.0479 13.3085 879 92.463 243.007 521.939
884 0 69.0675 14.2035 981 89.2212 242.243 521.19
885 0 70.0322 14.0507 984 90.1707 242.168 520.301
886 0 71.0647 13.4385 955 92.1623 242.135 518.74
887 0 75.0642 13.8548 1040 89.2288 242.193 517.214
888 0 78.0544 14.4386 1127 89.0027 242.313 516.36
889 0 80.0764 14.4237 1155 89.4814 241.952 514.773
890 0 83.0788 15.1423 1258 88.287 242.002 513.572
891 0 86.1044 14.1224 1216 90.6982 241.854 511.905
892 0 86.0593 13.9323 1199 91.809 242.089 511.093
893 0 90.1008 14.1841 1278 91.6917 242.156 509.952
894 0 94.0314 13.8571 1303 92.6946 242.062 507.003
895 0 95.1331 14.4639 1376 92.0087 241.773 506.388
896 0 98.138 13.6441 1339 94.2278 242.149 504.64
897 0 102.117 13.9154 1421 92.7685 241.937 502.994
898 1 51.039 12.0692 616 93.1558 242.563 526.252
899 0 53.045 11.8202 627 90.7384 242.592 524.97
900 0 54.0765 12.5563 679 97.9219 241.763 524.563
901 0 56.037 13.4197 752 93.7699 243.004 524.422
902 0 58.0355 13.1644 764 92.7814 242.445 524.78
903 0 61.0987 13.3391 815 94.9865 243.53 522.791
904 0 63.0523 14.1311 891 92.6072 243.505 521.838
905 0 63.1494 13.2701 838 96.679 242.999 519.984
906 0 65.1235 13.6663 890 96.3528 243.207 519.416
907 0 68.1221 14.0777 959 95.7007 243.806 516.615
908 0 69.0485 13.1647 909 98.6535 243.633 516.693
909 0 72.0801 14.1925 1023 97.6461 244.05 515.317
910 0 76.0763 14.3014 1088 97.3557 243.753 513.413
911 0 78.0707 14.2947 1116 96.6111 243.64 512.612
912 0 80.0766 14.4487 1157 97.2965 243.959 512.01
913 0 82.1009 14.3238 1176 98.5289 243.597 511.107
914 0 85.0496 15.0383 1279 97.4457 243.651 511.307
915 0 87.1051 14.4194 1256 97.6154 243.189 509.451
916 0 90.08 14.8424 1337 97.4331 243.034 508.704
917 0 93.1 14.9517 1392 98.6365 243.159 506.664
918 0 97.062 15.3613 1491 98.7163 243.387 505.145
919 0 97.0579 14.7129 1428 102.823 242.648 502.974
920 0 101.038 14.648 1480 103.418 241.83 501.133
921 0 104.135 14.8174 1543 104.613 242.237 500.102
922 0 107.099 14.3419 1536 111.262 242.258 498.568
923 0 111.154 14.4304 1604 112.209 241.838 496.749
924 0 115.126 14.3322 1650 112.593 241.655 498.027
925 0 120.124 14.8264 1781 108.942 241.739 495.714
926 0 124.077 13.8382 1717 100.379 241.143 490.701
927 1 65.0447 11.8995 774 102.345 241.565 525.47
928 0 68.0915 12.6447 861 101.99 242.836 523.628
929 0 71.0468 13.4981 959 100.457 241.167 521.641
930 0 73.0473 13.0326 952 101.356 241.202 521.054
931 0 77.0382 14.2267 1096 99.0547 240.655 520.297
932 0 75.0475 12.5121 939 98.7764 240.988 517.821
933 0 77.0645 12.2495 944 100.309 241.222 517.161
934 0 80.081 12.6122 1010 99.603 240.603 516.04
935 0 82.0927 12.291 1009 100.14 240.884 515.052
936 0 86.0357 12.5646 1081 99.4968 241.113 512.487
937 0 89.0828 12.7746 1138 104.373 240.218 515.301
938 0 92.0519 13.3077 1225 104.98 239.616 514.813
939 0 94.0836 13.488 1269 104.438 239.504 513.125
940 0 96.208 13.3253 1282 103.014 239.725 511.397
941 0 98.048 13.1262 1287 103.74 239.362 510.464
942 0 101.082 13.1973 1334 103.957 238.912 508.105
943 0 106.042 13.5512 1437 101.12 239.237 506.479
944 0 109.106 13.3173 1453 102.267 239.767 505.601
945 0 114.168 13.8305 1579 101.132 240.201 504.065
946 0 114.093 13.4102 1530 102.548 239.629 500.258
947 0 120.07 13.3922 1608 101.304 239.598 498.325
948 0 124.109 14.0924 1749 106.118 239.075 496.907
949 0 129.152 14.2158 1836 105.402 239.534 495.353
950 0 132.118 14.5627 1924 99.0603 239.965 490.092
951 0 135.086 13.2138 1785 109.887 239.546 489.021
952 0 140.145 13.5217 1895 110.778 239.956 486.302
953 0 146.162 13.7313 2007 109.885 241.3 486.44
954 0 151.144 14.0661 2126 112.102 240.787 484.56
955 0 155.126 13.4535 2087 108.045 240.422 479.087
956 0 161.168 13.6132 2194 98.8496 240.972 476.758
957 0 165.171 13.1743 2176 101.809 240.472 471.301
958 1 91.1316 11.7413 1070 98.9701 241.736 511.627
959 0 94.0981 12.2532 1153 95.837 241.424 511.244
960 0 98.1216 13.8196 1356 93.3577 241.049 507.586
961 0 100.132 13.8717 1389 94.1555 241.404 506.394
962 0 102.075 13.3725 1365 92.4374 241.043 504.164
963 0 104.077 12.9327 1346 93.101 241.643 505.764
964 0 108.106 12.4415 1345 94.8773 241.659 503.808
965 0 113.118 12.8185 1450 94.3559 242.455 502.465
966 0 118.223 13.4322 1588 93.2059 242.423 501.799
967 0 122.129 12.6751 1548 92.4264 242.107 500.713
968 0 124.077 12.5003 1551 96.1683 241.582 495.677
969 0 130.118 12.358 1608 96.0902 242.326 493.073
970 1 75.1168 12.4739 937 95.5069 241.85 520.016
971 0 74.1755 12.8749 955 99.7152 242.553 516.734
972 0 76.0941 12.3531 940 96.8245 242.373 517.987
973 0 79.1127 12.6655 1002 94.3503 242.522 517.758
974 0 81.1288 12.437 1009 96.8147 242.962 516.132
975 0 82.1342 13.0518 1072 97.2612 243.411 513.801
976 0 85.163 12.2941 1047 99.149 243.043 511.198
977 0 89.1643 12.9873 1158 97.3117 242.907 509.624
978 0 91.1188 12.3355 1124 99.1308 243.035 509.691
979 0 95.1538 12.7688 1215 107.68 243.865 507.394
980 0 96.1635 12.7075 1222 111.388 243.588 508.022
981 0 101.178 13.5602 1372 109.921 243.55 505.757
982 0 103.207 13.3131 1374 111.339 243.445 504.777
983 0 106.292 13.2277 1406 102.521 243.081 502.636
984 0 110.21 13.7375 1514 102.036 242.083 501.267
985 0 114.278 13.9572 1595 101.355 242.377 497.164
986 0 116.17 13.2909 1544 102.407 242.137 495.552
987 1 60.0604 10.8224 650 101.632 243.223 522.648
988 0 62.0673 11.1008 689 97.9071 243.303 517.56
989 0 65.0885 11.8454 771 97.6576 242.499 515.633
990 0 68.0986 11.8505 807 86.0682 241.99 515.637
991 0 70.0389 12.1361 850 83.0553 241.541 516.954
992 0 74.0839 12.1214 898 89.3864 241.513 520.286
993 0 72.0724 11.2665 812 91.4261 242.021 519.64
994 0 76.0532 11.6234 884 92.3382 242.109 518.299
995 0 80.0836 12.2622 982 92.4145 241.713 516.27
996 0 81.0818 11.6919 948 94.5232 241.545 513.08
997 0 84.127 12.0176 1011 93.7824 241.732 512.289
998 0 84.0866 10.6557 896 94.5257 242.536 510.548
999 0 89.1752 12.0773 1077 94.2386 242.353 510.702
1000 0 89.0966 11.6166 1035 95.4377 241.486 508.642
1001 0 93.0691 11.5076 1071 94.366 241.836 506.654
1002 0 98.1484 12.0736 1185 93.265 241.872 504.33
1003 0 100.064 12.6719 1268 91.4992 242.37 504.715
1004 0 103.072 12.1275 1250 92.7672 242.83 503.694
1005 0 106.113 12.4678 1323 91.4248 243.735 501.491
1006 0 109.089 13.4386 1466 89.2592 243.562 497.996
1007 0 114.171 12.4025 1416 91.1194 243.496 495.435
1008 0 117.119 12.594 1475 90.6298 243.734 493.274
1009 0 120.179 12.731 1530 89.2549 243.012 495.763
1010 0 125.164 12.975 1624 89.5831 243.151 493.861
1011 0 130.361 13.1711 1717 95.77 243.047 488.37
1012 1 67.1217 11.0396 741 94.2308 243.831 519.895
1013 0 68.0398 12.0665 821 91.7125 242.621 520.713
1014 0 72.1612 11.9732 864 88.2812 243.635 518.328
1015 0 74.1507 12.2049 905 89.9039 242.591 518.176
1016 0 79.1037 12.0096 950 101.187 241.762 516.881
1017 0 81.1004 12.3551 1002 98.493 242.103 516.13
1018 0 83.1077 12.4658 1036 88.2143 243.804 514.684
1019 0 84.181 12.4612 1049 90.0267 243.641 512.801
1020 0 85.1656 12.3994 1056 91.8106 242.883 510.758
1021 0 89.099 12.3121 1097 91.0392 244.515 510.724
1022 0 92.1691 12.3794 1141 90.0973 244.176 509.817
1023 0 92.1701 11.5547 1065 97.5315 244.254 509.631
1024 0 97.2284 11.797 1147 97.034 244.074 506.055
1025 0 99.1753 11.7368 1164 97.4605 244.755 503.427
1026 0 103.308 11.8675 1226 96.0269 244.495 501.787
1027 0 102.31 12.1298 1241 96.5713 245.191 502.049
1028 0 106.381 12.5775 1338 94.9484 244.463 500.458
1029 0 107.293 11.3054 1213 98.4534 244.291 498.8
1030 0 113.167 11.9116 1348 96.4332 243.625 495.28
1031 0 116.263 12.8158 1490 94.145 243.616 493.226
1032 0 120.32 12.7825 1538 93.684 243.942 492.409
1033 0 123.356 12.3545 1524 94.3793 243.788 491.639
1034 0 127.385 13.3297 1698 93.3057 243.29 488.644
1035 0 128.435 12.59 1617 96.9184 242.94 486.047
1036 0 134.345 12.8922 1732 96.5017 242.893 484.36
1037 0 138.325 12.9767 1795 96.0702 243.06 483.836
1038 0 143.465 12.9718 1861 96.6674 242.948 480.032
1039 0 147.475 13.2633 1956 97.1738 242.94 476.604
1040 0 151.543 13.5539 2054 97.7707 242.735 475.042
1041 0 157.382 14.6205 2301 95.9739 242.964 471.317
1042 0 161.521 14.2211 2297 97.8163 243.191 470.908
1043 0 165.513 13.9143 2303 100.99 242.419 467.38
1044 0 169.537 13.8141 2342 101.15 242.704 466.178
1045 0 175.49 13.8469 2430 102.909 242.883 462.32
1046 0 179.606 14.5875 2620 100.874 241.832 461.304
1047 0 184.677 14.7663 2727 102.536 242.859 458.879
1048 0 189.366 14.5855 2762 105.98 242.317 456.574
1049 0 195.434 14.8234 2897 106.304 242.211 456.957
1050 0 200.532 14.8804 2984 107.081 242.335 454.161
1051 0 204.518 14.4633 2958 110.212 242.659 450.436
1052 0 214.581 14.964 3211 109.047 242.498 446.482
1053 0 220.506 14.308 3155 110.789 242.168 446.28
1054 0 228.549 14.0758 3217 114.371 242.449 444.173
1055 0 235.458 13.7647 3241 114.834 243.254 441.853
1056 1 165.338 12.8887 2131 115.198 243.444 475.038
1057 0 170.382 13.5225 2304 113.602 242.797 471.372
1058 0 174.456 13.545 2363 116.003 243.047 465.403
1059 0 179.368 14.0716 2524 114.051 242.636 464.787
1060 0 185.437 14.0425 2604 112.992 242.979 461.978
1061 0 190.29 13.9734 2659 113.024 243.011 460.228
1062 0 196.285 13.1034 2572 116.347 242.961 457.224
1063 0 201.27 12.8881 2594 116.291 242.709 454.614
1064 0 211.314 14.0691 2973 109.769 242.261 447.913
1065 0 218.316 13.769 3006 111.54 242.3 444.482
1066 0 223.197 13.3783 2986 113.208 241.591 437.777
1067 0 230.323 13.4072 3088 111.144 242.352 436.054
1068 0 238.253 13.5234 3222 112.723 242.772 431.75
1069 1 59.053 10.9224 645 99.2977 244.04 521.06
1070 0 63.0558 11.6405 734 97 244.267 520.623
1071 0 64.0544 11.8493 759 97.7141 243.605 520.871
1072 0 64.0612 10.7709 690 105.41 244.288 518.874
1073 0 69.0707 11.9008 822 104.043 243.847 518.543
1074 0 70.0992 11.3696 797 102.422 244.728 517.979
1075 0 72.0759 11.807 851 103.445 244.006 518.357
1076 0 76.132 11.7165 892 103.571 243.59 516.843
1077 0 76.1015 10.9196 831 107.529 243.418 515.223
1078 0 77.1581 11.3792 878 107.161 243.83 514.169
1079 0 81.0953 11.7886 956 104.314 243.866 514.32
1080 0 82.1226 11.288 927 105.558 243.912 512.449
1081 0 85.1604 11.1085 946 105.026 243.393 510.841
1082 0 88.109 11.5085 1014 104.685 244.214 509.737
1083 0 91.1581 11.672 1064 105.305 243.357 508.737
1084 0 93.1526 11.6798 1088 106.464 243.883 507.57
1085 0 97.1696 11.4851 1116 107.645 242.998 502.315
1086 0 101.165 11.6839 1182 106.915 243.093 501.604
1087 0 103.207 11.8984 1228 107.184 242.582 502.178
1088 0 106.264 12.1301 1289 107.557 242.368 501.022
1089 0 108.252 11.9074 1289 123.043 242.126 498.976
1090 0 113.208 12.296 1392 124.016 243.113 496.764
1091 0 116.281 12.2634 1426 125.865 242.655 493.039
1092 0 118.321 12.4154 1469 125.715 242.555 493.63
1093 0 122.257 12.7027 1553 126.737 242.026 489.511
1094 0 125.333 12.3351 1546 127.304 242.213 486.118
1095 0 127.367 12.6956 1617 127.889 242.181 485.657
1096 0 134.294 12.8821 1730 125.707 241.981 485.392
1097 0 137.179 13.0924 1796 125.938 241.904 480.949
1098 0 141.301 13.5243 1911 129.434 241.999 475.526
1099 0 146.249 13.4633 1969 128.738 243.708 478.062
1100 0 148.196 13.4214 1989 127.357 243.178 473.576
1101 0 153.252 14.0553 2154 124.761 243.349 467.98
1102 1 81.175 9.95381 808 116.287 243.728 505.559
1103 0 86.1486 10.389 895 115.083 244.05 503.71
1104 0 87.0967 10.6433 927 116.114 243.844 503.027
1105 0 92.1314 11.6464 1073 118.767 244.568 507.532
1106 0 95.086 11.7893 1121 114.703 243.103 508.59
1107 0 98.0593 12.0845 1185 114.512 242.741 507.001
1108 0 102.078 12.1671 1242 115.296 242.996 504.568
1109 0 105.121 12.1289 1275 117.511 242.907 503.413
1110 0 105.083 11.8953 1250 117.431 241.826 502.045
1111 0 111.112 12.8159 1424 113.011 241.891 499.715
1112 0 113.101 12.281 1389 117.924 241.736 499.329
1113 0 117.133 12.5498 1470 116.609 241.95 496.812
1114 0 119.106 12.2832 1463 116.747 242.062 494.91
1115 0 121.112 12.2284 1481 115.946 240.979 494.22
1116 0 127.112 12.5087 1590 114.552 241.978 492.675
1117 0 129.211 11.8179 1527 116.602 242.282 490.024
1118 0 136.163 11.9489 1627 114.014 241.896 488.584
1119 0 140.227 12.223 1714 113.044 242.073 486.121
1120 0 140.192 10.9921 1541 110.081 241.285 480.613
1121 1 70.1211 9.35525 656 98.5412 241.102 510.758
1122 0 76.1941 9.69891 739 98.3762 241.823 510.276
1123 0 80.0573 10.6174 850 94.5482 243.081 516.746
1124 0 81.0596 11.5101 933 94.8703 242.98 514.138
1125 0 83.1467 11.5098 957 99.5977 241.66 514.728
1126 0 85.1766 11.0359 940 102.307 242.131 515.693
1127 0 85.1297 10.6073 903 105.12 241.312 513.319
1128 0 89.1686 11.2484 1003 103.794 241.274 512.27
1129 0 91.1552 10.9374 997 106.176 241.3 511.313
1130 0 93.1346 10.8767 1013 106.595 241.11 509.751
1131 0 94.0834 10.1824 958 109.739 241.569 508.047
1132 0 98.0999 11.2029 1099 105.998 243.685 506.834
1133 0 98.121 10.6093 1041 107.615 243.555 505.624
1134 0 102.137 10.8775 1111 107.703 243.63 502.538
1135 0 107.107 10.6343 1139 108.787 243.267 503.695
1136 0 108.209 10.9603 1186 109.734 243.268 501.371
1137 0 112.161 10.9842 1232 108.949 243.184 499.227
1138 0 116.104 10.9385 1270 108.846 243.37 497.866
1139 0 117.077 11.249 1317 108.505 243.444 495.834
1140 0 121.117 10.9977 1332 108.81 243.118 492.073
1141 0 123.093 10.5611 1300 110.392 242.953 494.708
1142 0 131.09 11.1145 1457 108.416 243.222 492.248
1143 0 135.108 11.687 1579 110.117 242.978 485.952
1144 0 140.139 11.353 1591 110.212 243.635 485.757
1145 1 75.0368 9.98176 749 109.354 243.543 518.307
1146 0 78.039 10.7895 842 107.995 243.551 516.274
1147 0 79.0514 11.3091 894 108.017 242.964 514.614
1148 0 82.0748 11.6114 953 111.807 242.016 515.002
1149 0 80.0892 11.3873 912 105.445 242.332 509.032
1150 0 85.1188 12.5472 1068 101.88 243.043 512.699
1151 0 85.0743 11.4841 977 95.8055 242.826 515.892
1152 0 88.1225 10.6443 938 97.9755 242.491 514.73
1153 0 92.0728 11.6647 1074 98.04 241.545 513.939
1154 0 93.0782 11.6461 1084 100.645 242.351 512.681
1155 0 97.1445 11.8072 1147 105.105 242.471 510.78
1156 0 98.0568 12.0236 1179 106.129 242.294 509.116
1157 0 100.061 12.4025 1241 107.293 242.079 506.99
1158 0 103.088 12.4651 1285 107.378 242.2 504.459
1159 0 108.095 12.9978 1405 105.94 242.584 505.907
1160 0 111.126 12.4813 1387 109.771 242.139 502.338
1161 0 113.126 13.3568 1511 112.494 241.966 499.779
1162 0 117.098 13.0916 1533 114.763 241.803 498.926
1163 0 120.141 13.3926 1609 112.076 241.552 497.493
1164 0 122.137 12.9036 1576 114.634 241.624 498.287
1165 0 127.1 13.2888 1689 115.357 241.31 495.693
1166 0 130.158 12.6692 1649 119.672 241.631 493.714
1167 0 134.132 12.9276 1734 118.923 241.687 491.478
1168 0 139.139 13.3823 1862 116.454 241.702 491.025
1169 0 143.138 13.5674 1942 114.736 241.648 487.025
1170 0 147.144 12.865 1893 114.394 241.72 485.891
1171 0 152.11 12.4778 1898 113.008 241.542 484.706
1172 0 156.275 12.67 1980 104.13 241.089 478.442
1173 0 162.091 12.4622 2020 105.774 240.991 477.639
1174 0 167.167 12.993 2172 108.266 240.55 476.285
1175 0 172.18 13.0851 2253 110.19 239.819 472.058
1176 0 177.212 13.1312 2327 112.165 240.179 467.059
1177 0 184.118 13.4534 2477 113.539 240.005 464.26
1178 0 190.273 12.6923 2415 119.205 240.36 460.355
1179 0 197.19 13.0787 2579 119.872 239.566 458.657
1180 0 200.22 13.5801 2719 115.485 239.946 454.848
1181 0 204.217 13.4367 2744 120.34 239.291 452.508
1182 0 213.188 13.3732 2851 119.047 239.904 452.603
1183 0 216.372 13.0608 2826 123.982 240.456 448.453
1184 1 162.3 11.3432 1841 127.061 239.863 478.932
1185 0 164.245 11.8908 1953 121.67 240.38 475.564
1186 0 170.173 11.9525 2034 120.001 240.236 470.375
1187 0 176.202 12.0487 2123 118.895 240.486 469.196
1188 0 183.149 12.1814 2231 116.846 239.883 467.479
1189 0 186.13 12.4698 2321 118.243 240.311 462.96
1190 0 193.186 12.1851 2354 115.286 239.299 460.636
1191 0 197.276 12.3836 2443 112.075 239.482 459.372
1192 0 204.247 12.3282 2518 114.288 240.145 455.055
1193 0 209.306 12.3312 2581 114.133 239.779 453.245
1194 0 217.236 12.3414 2681 115.876 240.553 446.501
1195 1 53.0466 10.2551 544 105.831 242.202 529.083
1196 0 55.0243 10.6498 586 105.8 243.345 528.085
1197 0 54.0368 11.1035 600 109.603 243.483 526.698
1198 0 57.0109 10.7172 611 111.992 243.573 525.758
1199 0 56.0564 10.2932 577 105.821 242.541 529.055
1200 0 59.069 11.0887 655 103.292 242.194 527.479
1201 0 60.0736 10.6869 642 104.354 241.484 527.584
1202 0 60.0651 10.7051 643 102.818 241.367 527.366
1203 0 62.1346 10.2037 634 104.224 241.448 526.965
1204 0 62.0754 10.3906 645 103.177 241.13 526.096
1205 0 67.1244 9.46005 635 105.118 241.581 525.753
1206 0 68.122 10.8922 742 101.933 241.407 523.589
1207 0 67.1327 11.0229 740 104.38 242.062 522.565
1208 0 69.179 10.986 760 102.813 241.746 522.545
1209 0 71.1175 10.8271 770 103.213 242.199 522.135
1210 0 73.099 11.3134 827 101.281 242.117 522.164
1211 0 75.1573 10.6443 800 103.298 241.108 519.568
1212 0 77.21 11.0607 854 102.299 240.801 518.377
1213 0 81.2369 11.2757 916 100.4 241.178 516.814
1214 0 82.1098 10.5956 870 100.84 241.84 514.144
1215 0 86.0896 11.0118 948 99.0432 241.727 516.96
1216 0 87.0668 10.8882 948 102.145 241.438 514.447
1217 1 50.0139 10.637 532 99.7256 241.929 533.853
1218 0 52.0228 11.2066 583 99.4391 241.611 531.998
1219 0 54.0195 10.959 592 101.949 241.451 530.76
1220 0 55.0455 10.8274 596 104.53 241.124 528.581
1221 0 53.0576 10.2153 542 104.306 240.6 530.004
1222 0 54.0573 10.1189 547 105.909 241.386 529.291
1223 0 58.07 10.9867 638 101.785 241.18 530.314
1224 0 59.1002 9.98305 590 103.515 241.249 529.87
1225 0 61.0556 11.3994 696 102.165 241.514 527.74
1226 0 61.0817 10.7233 655 106.269 241.142 527.779
1227 0 64.0666 11.332 726 104.004 242.083 527.489
1228 0 64.0727 10.7222 687 106.774 241.738 525.53
1229 0 65.0536 11.283 734 104.531 241.658 525.364
1230 0 66.0517 11.0519 730 107.908 240.608 522.778
1231 0 67.0376 10.2629 688 112.629 241.132 519.799
1232 0 68.0554 10.4914 714 113.748 240.283 520.09
1233 0 74.0283 11.1714 827 111.644 240.527 519.591
1234 0 75.0574 11.2847 847 112.678 240.32 518.578
1235 0 80.0654 12.0776 967 111.201 241.362 516.062
1236 0 80.0565 11.8042 945 112.754 241.82 514.574
1237 0 84.0741 12.0846 1016 111.495 241.538 515.254
1238 0 88.0881 12.2604 1080 110.453 241.972 514.909
1239 0 91.1309 12.0267 1096 114.412 241.375 512.705
1240 1 50.0746 10.2647 514 111.979 241.93 533.126
1241 0 48.033 10.9092 524 114.01 242.313 531.842
1242 0 50.0612 11.5659 579 112.155 242.344 531.37
1243 0 51.0563 11.36 580 158.195 241.366 531.409
1244 0 55.1704 12.1623 671 108.523 242.535 528.471
1245 0 52.0342 11.7999 614 113.064 243.015 525.072
1246 0 54.0803 11.7048 633 101.316 243.393 530.145
1247 0 53.0709 11.1172 590 104.258 242.51 529.027
1248 0 57.0958 11.6471 665 102.648 242.949 529.113
1249 0 57.1302 11.395 651 104.788 241.484 527.894
1250 0 59.06 11.7846 696 104.398 242.678 527.704
1251 0 60.0767 12.0346 723 104.755 242.48 526.674
1252 0 63.0294 12.9781 818 99.5354 243.029 526.072
1253 0 64.1106 12.1977 782 104.26 243.228 525.6
1254 0 67.0733 12.1956 818 103.576 242.462 523.817
1255 0 67.074 12.0613 809 106.485 242.938 522.312
1256 0 69.1105 11.9085 823 104.844 243.806 521.728
1257 0 70.062 11.5184 807 105.229 244.477 521.309
1258 0 70.1334 11.7918 827 105.572 243.74 519.797
1259 0 74.0757 12.0687 894 102.723 243.096 519.223
1260 0 74.0954 12.3355 914 103.236 243.23 517.678
1261 0 80.06 12.0784 967 102.199 242.932 517.189
1262 0 79.091 11.7586 930 103.692 242.624 515.029
1263 0 81.0411 12.3518 1001 102.772 242.743 514.223
1264 0 85.083 12.1646 1035 102.317 243.028 514.183
1265 0 86.182 11.9747 1032 103.226 242.583 511.731
1266 0 87.082 11.6212 1012 105.045 242.626 510.04
1267 0 92.0496 11.874 1093 103.928 242.877 508.532
1268 0 93.1319 11.9293 1111 100.349 242.48 505.115
1269 0 97.1156 12.5726 1221 100.86 242.293 504.139
1270 0 99.1242 11.652 1155 102.641 241.771 504.66
1271 0 101.138 12.0232 1216 101.623 242.085 501.968
1272 0 102.053 11.984 1223 103.358 241.902 501.577
1273 0 106.112 11.3748 1207 104.058 241.616 500.336
1274 0 110.077 11.601 1277 102.511 241.573 498.365
1275 0 112.079 11.4295 1281 102.543 241.511 497.49
1276 0 115.083 11.7394 1351 102.311 241.516 494.916
1277 0 120.057 12.3691 1485 99.3973 241.459 496.149
1278 0 123.059 11.7017 1440 97.7965 241.966 493.809
1279 0 127.077 11.6465 1480 97.525 241.451 491.182
1280 0 130.108 11.8594 1543 96.9618 242.359 490.702
1281 0 133.15 11.3481 1511 101.377 241.987 485.376
1282 0 135.095 11.2217 1516 101.551 241.939 483.745
1283 0 140.128 11.3753 1594 101.471 241.842 478.715
1284 0 143.11 10.3278 1478 103.292 241.622 478.925
1285 0 147.136 10.9083 1605 102.286 241.75 474.205
1286 0 151.101 10.9728 1658 101.637 241.504 473.987
1287 1 86.0789 9.65394 831 92.9446 242.245 505.984
1288 0 88.0546 9.92566 874 92.2448 242.031 504.126
1289 0 92.0761 11.1538 1027 93.6027 243.251 507.524
1290 0 96.0692 11.9393 1147 91.2633 243.366 505.196
1291 0 99.0839 11.3136 1121 92.2828 242.955 503.596
1292 0 103.058 11.7313 1209 89.1266 243.176 501.567
1293 0 106.086 12.0186 1275 88.2886 242.99 499.915
1294 0 110.131 12.131 1336 89.0606 243.054 497.805
1295 0 111.124 11.2127 1246 92.2632 242.782 495.12
1296 0 118.129 12.7657 1508 88.7354 242.888 493.874
1297 0 119.126 11.8782 1415 91.2926 241.269 490.981
1298 1 54.1739 10.4109 564 87.4131 242.059 525.622
1299 0 56.0602 10.6849 599 87.7078 242.432 523.725
1300 0 57.0925 11.0698 632 89.0918 242.68 523.78
1301 0 60.0894 11.1833 672 85.8988 242.668 523.588
1302 0 62.14 12.1178 753 84.0717 243.218 524.991
1303 0 63.0573 11.7036 738 86.5623 243.346 521.253
1304 0 66.0818 11.8187 781 86.694 242.686 520.278
1305 0 70.0524 12.4336 871 85.008 242.84 519.908
1306 0 70.0836 11.7859 826 91.3027 242.122 518.07
1307 0 72.0443 12.0759 870 87.7437 242.516 517.469
1308 0 73.0813 11.5762 846 90.3676 242.407 517.209
1309 0 76.0845 12.1838 927 89.671 242.027 516.919
1310 0 78.0414 12.1474 948 90.5981 241.822 514.727
1311 0 79.0536 12.2828 971 91.895 242.192 514.833
1312 0 81.0573 12.3123 998 93.0281 242.13 515.519
1313 0 84.1498 12.0381 1013 93.4561 242.418 514.908
1314 0 85.0526 11.1931 952 96.7658 242.734 512.776
1315 0 87.1114 11.6173 1012 92.9624 242.628 512.415
1316 0 90.0721 11.0911 999 99.3433 243.191 511.771
1317 1 46.0214 9.7998 451 98.6874 243.306 532.734
1318 0 47.0128 10.6354 500 95.874 243.548 531.258
1319 0 48.0212 10.2455 492 98.4654 242.62 530.715
1320 0 50.0479 10.5499 528 94.8352 241.102 530.612
1321 0 51.1309 11.6759 597 90.1106 241.573 531.3
1322 0 52.0079 11.8059 614 90.5016 242.71 530.583
1323 0 53.0313 11.7855 625 90.2048 242.155 528.64
1324 0 53.0592 11.4778 609 92.6798 242.327 528.864
1325 0 54.0842 10.6131 574 94.7021 243.057 528.261
1326 0 55.0804 10.5664 582 94.8058 244.23 527.598
1327 0 56.1265 10.8149 607 93.3608 242.545 527.056
1328 0 58.0798 11.1226 646 93.774 244.647 525.463
1329 0 59.0398 10.7555 635 94.2315 243.05 526.447
1330 0 60.0689 10.5046 631 95.3043 242.702 525.376
1331 0 63.0716 11.2888 712 92.4621 242.723 523.956
1332 0 66.0882 11.6814 772 90.5661 242.023 522.014
1333 0 65.0689 10.8808 708 92.2994 242.766 521.658
1334 0 66.0318 10.9796 725 92.1779 242.374 520.028
1335 0 67.0855 10.9413 734 90.673 242.259 519.413
1336 0 71.0825 10.3401 735 90.8204 241.044 519.612
1337 0 70.0307 10.067 705 92.0936 241.635 516.708
1338 0 74.0531 9.8848 732 89.4098 240.973 517.081
1339 0 77.0972 10.143 782 89.4974 240.633 512.33
1340 0 79.0569 11.6245 919 88.2873 241.042 512.688
1341 0 85.0348 11.5717 984 87.7917 241.99 509.427
1342 0 89.0495 12.566 1119 85.8302 242.609 508.344
1343 0 89.1238 12.6565 1128 87.4486 242.07 506.699
1344 0 94.1558 11.6297 1095 89.5525 241.15 506.098
1345 1 48.0296 10.0147 481 87.5343 240.838 533.002
1346 0 45.0918 8.78208 396 76.1692 242.278 526.707
1347 0 47.0787 8.68758 409 76.3178 241.738 525.866
1348 0 49.0223 9.52627 467 86.0064 242.452 525.18
1349 0 54.0329 10.327 558 84.1487 241.842 525.375
1350 0 52.0141 9.78581 509 87.2082 242.362 524.68
1351 0 56.0177 10.0682 564 84.5957 242.25 524.401
1352 0 56.0769 10.8066 606 84.0182 241.809 523.505
1353 0 56.059 10.6138 595 85.2655 241.729 521.376
1354 0 61.059 11.1204 679 82.5744 241.49 521.274
1355 0 61.0319 10.4372 637 86.2465 241.911 520.355
1356 0 62.0219 10.8832 675 85.3096 241.733 518.853
1357 0 64.0258 10.4333 668 88.009 242.397 517.898
1358 0 69.061 10.8889 752 86.121 242.165 518.637
1359 0 69.035 10.3715 716 89.3254 241.897 515.985
1360 0 74.0258 12.3741 916 92.2107 241.849 521.64
1361 0 74.0258 12.4281 920 156.385 241.864 521.691
1362 0 79.0497 12.625 998 92.9729 241.54 520.095
1363 0 79.0281 12.021 950 96.06 241.599 518.701
1364 0 79.0868 11.7972 933 98.7835 241.722 517.205
1365 0 84.0389 12.3633 1039 95.7036 241.353 516.702
1366 0 87.0469 12.6598 1102 95.2486 242.165 515.07
1367 0 90.0632 12.6689 1141 95.3558 241.638 514.514
1368 0 90.0496 12.8374 1156 95.0415 242.272 513.498
1369 0 94.1232 13.0042 1224 94.8399 241.477 511.223
1370 0 96.184 12.5697 1209 95.7891 241.18 510.538
1371 1 51.0735 10.4164 532 92.2575 241.718 533.105
1372 0 53.0421 10.8593 576 88.5538 242.714 530.766
1373 0 50.0454 10.1108 506 87.6166 242.69 525.974
1374 0 51.0365 11.2077 572 84.9056 242.406 525.652
1375 0 53.0487 10.1416 538 77.6171 241.089 527.461
1376 0 53.0961 9.62405 511 78.6497 241.19 528.425
1377 0 56.088 10.2161 573 74.6056 240.642 528.168
1378 0 56.0429 10.4028 583 76.6947 240.199 527.331
1379 0 59.0323 11.1126 656 72.8963 239.931 528.101
1380 0 56.0798 10.3246 579 79.9983 240.848 527.218
1381 0 57.0984 10.7183 612 81.3105 240.446 527.972
1382 0 59.0333 10.5195 621 81.0628 240.588 526.47
1383 0 61.0584 10.7111 654 79.685 240.358 526.393
1384 0 64.0467 11.195 717 77.0167 240.192 525.717
1385 0 64.0475 10.2892 659 78.1472 239.621 523.803
1386 0 65.0511 10.2381 666 76.9294 239.929 524.357
1387 0 66.0873 10.7736 712 75.5379 240.274 523.912
1388 0 70.0527 10.3636 726 74.6543 239.329 523.286
1389 0 72.0397 10.3693 747 74.0268 239.351 520.606
1390 0 74.1447 11.0999 823 72.7242 239.335 519.622
1391 0 77.0889 10.4425 805 74.0472 239.492 517.842
1392 0 79.0798 10.8119 855 72.4339 239.64 517.823
1393 0 80.1089 10.7229 859 72.8871 240.056 516.64
1394 0 83.0362 10.7182 890 73.3629 239.626 514.887
1395 0 86.078 10.0606 866 74.8949 239.893 513.38
1396 1 46.0332 9.47142 436 72.3991 240.089 530.53
1397 0 49.0403 9.88982 485 73.5052 240.138 530.835
1398 0 52.0726 11.2727 587 75.77 239.436 535.017
1399 0 50.0757 10.4642 524 81.9141 240.124 536.622
1400 0 51.0592 10.5172 537 83.0633 240.868 535.592
1401 0 50.0514 10.2095 511 86.5656 240.636 535.45
1402 0 55.0305 10.5214 579 85.5216 240.731 533.269
1403 0 54.0693 10.4495 565 86.869 240.924 532.308
1404 0 56.143 11.0076 618 86.7913 241.248 530.937
1405 0 58.1167 10.1004 587 89.1312 241.274 529.624
1406 0 59.0424 9.97588 589 89.6706 240.577 528.465
1407 0 62.0919 10.565 656 89.9497 240.759 529.038
1408 0 62.0382 10.4774 650 91.1292 240.825 527.638
1409 0 64.0613 10.1465 650 92.1431 240.957 525.882
1410 0 64.0217 10.0747 645 94.5767 240.335 524.49
1411 0 69.0498 11.05 763 91.9856 239.995 524.223
1412 0 69.072 10.6121 733 94.4338 239.832 521.814
1413 0 73.0488 10.4861 766 95.3812 240.695 520.58
1414 0 74.057 9.91128 734 96.5095 240.764 519.959
1415 0 77.0354 10.6055 817 94.9865 240.255 519.474
1416 0 80.0319 10.3084 825 97.1903 240.967 518.767
1417 0 83.0673 10.3049 856 97.0993 241.299 517.584
1418 0 86.0726 10.5376 907 97.323 241.787 515.648
1419 0 88.0505 10.5281 927 97.9817 240.083 513.457
1420 0 91.0663 10.1465 924 98.908 240.606 513.536
1421 1 49.0262 10.1782 499 102.435 240.032 532.549
1422 0 51.0157 10.3694 529 104.384 240.327 531.306
1423 0 52.0642 11.7163 610 99.7607 240.975 529.966
1424 0 55.0313 11.7933 649 101.676 241.413 530.191
1425 0 57.092 11.4026 651 104.33 241.452 528.485
1426 0 58.1887 11.7721 685 103.092 240.987 528.111
1427 0 60.0276 12.4443 747 101.831 241.493 527.751
1428 0 62.08 12.5161 777 102.719 241.685 525.362
1429 0 61.0828 12.0328 735 105.916 241.595 525.622
1430 0 66.1012 12.375 818 103.627 241.45 524.639
1431 0 66.1423 12.5638 831 103.491 241.242 523.563
1432 0 69.0933 12.3601 854 101.862 241.563 522.759
1433 0 73.1833 12.7078 930 99.1333 240.758 522.014
1434 0 73.0869 12.4646 911 99.4555 241.885 520.258
1435 0 76.0665 12.9886 988 100.265 241.851 519.546
1436 0 79.0873 12.5557 993 100.89 241.297 517.474
1437 0 80.0805 12.7247 1019 100.181 241.452 516.548
1438 0 85.0556 13.0856 1113 97.8248 241.397 516.719
1439 0 89.1406 13.1366 1171 96.6516 241.041 515.232
1440 0 89.1651 12.9647 1156 98.8062 241.015 512.693
1441 0 95.1251 13.2667 1262 95.9699 240.395 510.788
1442 0 98.0692 13.6638 1340 94.4739 240.056 508.966
1443 0 97.1171 12.6445 1228 98.7948 240.088 506.612
1444 0 102.16 12.735 1301 99.8332 240.704 504.46
1445 0 106.102 13.0252 1382 99.165 240.615 504.406
1446 0 110.125 12.74 1403 99.8667 241.096 503.002
1447 1 45.0517 10.0995 455 98.3626 239.736 534.624
1448 0 47.149 10.8804 513 98.2904 240.491 529.762
1449 0 50.1858 11.3379 569 96.9227 239.671 528.411
1450 0 49.066 11.0871 544 94.9375 240.517 530.928
1451 0 52.0925 11.9211 621 95.2657 240.987 529.862
1452 0 53.0111 11.9975 636 96.0424 239.899 529.42
1453 0 56.043 11.8302 663 93.6908 240.195 527.9
1454 0 55.0473 11.5355 635 96.6913 240.22 526.239
1455 0 57.1003 12.2766 701 94.9829 240.359 526.593
1456 0 60.0835 12.2496 736 94.3016 239.633 526.761
1457 0 61.0628 12.3643 755 94.5272 240.111 525.033
1458 0 63.1155 12.8495 811 91.5808 240.76 525.286
1459 0 64.1655 12.3587 793 91.5359 240.647 525.086
1460 0 67.1545 12.0915 812 91.2635 240.23 523.789
1461 0 69.2102 12.3392 854 88.9977 240.749 522.811
1462 0 70.1928 12.252 860 88.4465 240.478 523.224
1463 0 71.1126 11.7279 834 89.6607 240.448 521.353
1464 0 74.1638 12.4319 922 87.7082 240.491 519.68
1465 0 75.1203 12.3801 930 88.1484 240.048 519.567
1466 0 78.1486 12.8473 1004 84.8635 239.737 516.602
1467 0 80.1199 11.8572 950 86.5316 239.469 514.895
1468 0 81.1634 11.5939 941 86.9979 239.453 512.877
1469 0 84.2323 12.2756 1034 85.2669 239.924 511.082
1470 0 85.0799 12.0475 1025 88.2478 240.277 510.556
1471 0 87.1278 11.5807 1009 90.2081 240.647 511.807
1472 0 89.1362 11.7797 1050 90.0543 240.199 511.153
1473 0 92.138 11.689 1077 90.039 240.546 508.977
1474 0 94.1657 11.9364 1124 93.4751 239.82 506.62
1475 0 99.228 12.6275 1253 97.9585 239.953 503.59
1476 0 104.201 11.8329 1233 99.5637 239.805 503.375
1477 0 106.232 12.4632 1324 98.8603 240.174 501.502
1478 1 58.1579 11.5891 674 95.2196 239.331 524.5
1479 0 61.1118 11.929 729 94.3182 240.15 523.054
1480 0 62.113 12.1553 755 94.5113 239.702 521.563
1481 0 64.0428 12.5385 803 87.8692 240.616 521.991
1482 0 65.1439 12.5722 819 88.1538 240.188 520.377
1483 0 66.0672 12.3813 818 89.1247 240.633 521.998
1484 0 68.0769 12.3096 838 90.0465 240.437 520.652
1485 0 69.1583 12.3774 856 91.1425 241.018 519.312
1486 0 72.0716 12.8206 924 89.7749 240.363 517.773
1487 0 73.0777 12.8767 941 91.1212 241.053 517.285
1488 0 75.1485 11.9763 900 96.7911 241.077 514.172
1489 0 78.101 12.5991 984 95.0325 240.742 513.554
1490 0 82.2285 12.1004 995 95.6714 240.402 512.63
1491 0 84.0892 13.0576 1098 98.041 240.386 513.676
1492 0 85.1188 12.136 1033 97.5237 240.992 509.894
1493 0 87.2126 12.0395 1050 98.0762 240.973 509.106
1494 0 90.3059 12.5905 1137 98.0871 241.164 508.688
1495 0 93.125 12.4671 1161 98.4419 240.416 508.774
1496 0 97.0939 11.8648 1152 100.295 240.705 508.003
1497 0 97.0806 13.2879 1290 96.8543 241.117 506.166
1498 0 100.197 12.9645 1299 97.4573 241.447 504.079
1499 0 104.201 13.5411 1411 96.6747 241.281 501.185
1500 0 107.166 13.2504 1420 97.9028 240.989 500.37
1501 0 111.197 14.263 1586 95.9615 240.454 498.088
1502 0 116.137 14.3623 1668 96.8657 241.005 494.342
1503 0 120.494 13.9426 1680 93.5804 240.836 490.387
1504 0 123.172 13.5014 1663 96.2063 240.888 491.698
1505 0 125.257 13.3645 1674 95.9409 240.415 490.017
1506 1 61.1037 10.7522 657 85.589 241.157 524.966
1507 0 63.1372 11.4988 726 86.292 241.244 525.266
1508 0 62.1659 10.3111 641 87.7754 241.172 524.398
1509 0 63.1402 11.1339 703 85.6529 241.663 522.923
1510 0 66.1608 11.2604 745 85.004 241.336 523.619
1511 0 69.177 11.8103 817 84.8152 241.93 520.233
1512 0 70.1356 10.8076 758 88.4274 241.443 520.046
1513 0 73.1894 11.9006 871 87.2067 241.098 518.536
1514 0 73.122 11.6928 855 87.1848 240.925 517.662
1515 0 77.2391 11.8334 914 87.337 241.103 515.534
1516 0 80.1635 11.9256 956 86.1998 241.75 516.215
1517 0 81.2212 11.7457 954 87.3092 241.284 513.237
1518 0 84.1847 12.4607 1049 90.0334 241.046 513.085
1519 0 86.1677 11.5008 991 88.4864 240.826 511.202
1520 0 91.1719 11.6045 1058 88.0265 240.843 509.574
1521 0 93.1551 11.658 1086 88.2983 241.498 508.753
1522 0 95.1465 11.9185 1134 89.2072 241.668 506.482
1523 0 99.2002 12.379 1228 90.0301 240.73 504.149
1524 0 100.098 11.8983 1191 91.3417 241.184 503.319
1525 0 106.146 12.4545 1322 91.7345 241.244 501.452
1526 0 108.184 12.4787 1350 92.9467 241.382 499.272
1527 0 112.188 11.9978 1346 94.6025 241.539 497.626
1528 1 58.1386 9.99337 581 86.9845 242.045 525.145
1529 0 62.0528 10.5877 657 89.4231 241.209 522.921
1530 0 63.0457 10.9762 692 85.6286 241.553 523.685
1531 0 63.0547 11.6248 733 86.6207 241.386 523.745
1532 0 65.0579 10.8058 703 88.8009 241.728 522.866
1533 0 68.1005 11.3509 773 86.3803 242.049 520.766
1534 0 71.0713 12.3538 878 84.7312 242.003 519.704
1535 0 74.0783 11.9468 885 86.2599 242.574 519.193
1536 0 76.1339 11.7556 895 87.933 241.564 516.484
1537 0 78.0662 11.7336 916 88.8428 242.27 514.841
1538 0 80.0924 11.699 937 90.4408 241.465 513.924
1539 0 83.0585 12.3889 1029 89.6064 241.573 512.97
1540 0 84.0936 11.5348 970 91.3165 241.841 512.369
1541 0 87.1048 12.2037 1063 91.4619 241.521 511.533
1542 0 88.0648 12.6271 1112 92.1924 241.231 509.592
1543 0 90.1542 12.3011 1109 93.239 241.311 509.822
1544 0 93.1939 12.812 1194 98.5243 241.303 506.896
1545 0 97.1687 12.1335 1179 96.7769 241.508 505.992
1546 0 97.2174 11.8806 1155 100.397 241.197 502.834
1547 0 101.174 12.8196 1297 100.508 241.005 501.228
1548 0 105.141 11.6606 1226 103.171 241.26 500.862
1549 0 107.306 11.8354 1270 101.895 241.057 496.338
1550 0 112.191 11.8904 1334 102.13 241.715 498.25
1551 0 113.271 11.9271 1351 103.089 241.579 493.727
1552 0 117.628 12.1484 1429 103.752 241.066 486.802
1553 0 120.288 12.5116 1505 103.952 241.224 485.926
1554 0 124.504 12.602 1569 103.641 240.634 485.27
1555 0 128.685 12.8453 1653 104.817 240.223 482.618
1556 0 133.513 13.4294 1793 103.64 240.141 481.211
1557 0 137.311 13.6042 1868 102.784 239.626 478.014
1558 0 141.447 13.8356 1957 101.848 240.231 477.136
1559 1 76.2279 11.0589 843 101.336 239.9 506.873
1560 0 81.281 11.3188 920 100.339 240.427 506.885
1561 0 82.229 11.8815 977 103.54 239.744 509.165
1562 0 87.2727 11.7563 1026 104.259 240.338 507.185
1563 0 89.214 12.2851 1096 102.89 240.192 505.193
1564 0 91.2001 11.9846 1093 104.757 239.726 502.768
1565 0 95.1712 12.5038 1190 102.003 239.996 499.971
1566 0 97.2961 12.5596 1222 102.936 239.938 499.939
1567 0 101.385 12.9605 1314 102.074 239.853 495.613
1568 0 103.429 13.3329 1379 101.656 240.215 494.304
1569 0 107.347 12.5294 1345 103.221 240.671 492.609
1570 0 109.435 12.7839 1399 103.133 239.788 491.743
1571 0 112.354 12.8967 1449 102.485 239.528 490.942
1572 0 115.563 13.2915 1536 102.551 239.935 489.576
1573 0 118.206 12.8336 1517 105.238 240.581 486.543
1574 0 125.455 13.7818 1729 102.06 240.862 486.797
1575 0 122.417 13.1436 1609 107.205 240.429 486.47
1576 0 116.448 14.7276 1715 109.089 240.782 489.145
1577 0 121.502 13.1273 1595 115.535 239.844 486.445
1578 0 125.47 13.3897 1680 114.373 240.796 486.205
1579 0 127.337 13.2561 1688 113.665 240.274 483.768
1580 0 132.452 14.0277 1858 111.845 239.498 480.492
1581 0 134.308 13.5807 1824 112.393 239.819 479.899
1582 0 137.527 13.7136 1886 112.452 239.841 477.791
1583 0 141.348 13.9019 1965 112.585 240.694 477.477
1584 0 146.478 14.3844 2107 111.044 239.904 474.098
1585 0 150.333 14.1419 2126 111.147 240.088 473.833
1586 0 155.445 13.9599 2170 113.822 240.477 468.709
1587 0 161.412 14.3546 2317 112.442 240.704 469.3
1588 0 166.448 14.6052 2431 111.297 240.824 466.237
1589 0 170.394 13.7915 2350 113.273 240.215 464.457
1590 0 170.409 13.7316 2340 173.629 238.212 464.48
1591 0 181.294 14.391 2609 113.321 239.966 461.943
1592 0 187.225 14.293 2676 112.701 240.419 459.142
1593 0 194.159 14.1997 2757 110.659 240.097 457.622
1594 0 200.292 13.6651 2737 112.868 240.839 452.117
1595 0 204.273 13.8051 2820 111.579 240.457 449.938
1596 0 211.22 13.583 2869 109.779 240.698 448.264
1597 0 216.326 13.6969 2963 112.677 240.4 442.771
1598 0 224.325 14.3898 3228 108.691 239.972 439.195
1599 0 233.322 14.165 3305 107.563 239.765 432.399
1600 0 241.385 13.145 3173 110.689 239.207 429.001
1601 0 249.438 13.8351 3451 111.065 239.709 424.052
1602 1 200.468 12.9397 2594 114.331 239.251 446.759
1603 0 207.348 13.5135 2802 111.785 239.81 444.877
1604 0 214.321 14.1237 3027 111.099 239.533 437.418
1605 0 221.364 13.6517 3022 112.967 240.377 438.195
1606 0 228.369 13.8942 3173 112.558 239.873 435.34
1607 0 235.268 14.2136 3344 111.161 240.235 430.468
1608 0 242.267 14.5336 3521 109.058 240.363 426.874
1609 0 247.344 13.5035 3340 109.883 239.675 417.497
1610 0 257.188 13.7526 3537 105.853 239.639 416.211
1611 1 194.219 12.4344 2415 106.31 239.703 447.432
1612 0 201.391 13.5756 2734 106.259 239.369 446.396
1613 0 207.37 13.6953 2840 106.565 239.893 438.962
1614 0 214.263 13.4367 2879 105.28 239.973 437.913
1615 0 219.41 13.3221 2923 104.783 239.654 434.823
1616 0 224.26 12.9626 2907 106.006 238.86 428.975
1617 0 231.195 13.3697 3091 105.039 239.79 424.286
1618 0 236.278 12.7308 3008 107.74 239.049 418.229
1619 0 241.297 11.9148 2875 108.852 239.117 426.274
1620 0 242.283 10.5414 2554 109.647 239.312 430.8
1621 1 311.426 10.6093 3304 110.774 238.558 410.584
1622 1 69.1884 10.3775 718 84.0474 241.255 517.43
1623 0 71.1738 11.493 818 89.4914 241.626 517.178
1624 0 73.048 11.6636 852 88.4448 241.541 514.077
1625 0 76.1055 12.0359 916 88.2806 242.25 512.587
1626 0 82.1727 13.07 1074 88.6145 242.08 511.04
1627 0 83.1418 10.8489 902 95.1386 240.398 510.895
1628 0 86.1847 11.1389 960 93.4292 238.898 509.482
1629 0 89.1426 11.2516 1003 92.7547 239.578 507.805
1630 0 92.1459 12.1112 1116 92.1694 238.702 503.716
1631 0 91.2017 11.7103 1068 94.3043 241.733 504.079
1632 0 90.231 9.3981 848 88.3844 240.84 508.283
1633 0 95.1015 10.0734 958 86.5595 240.952 505.288
1634 0 99.2003 9.72779 965 86.6062 240.465 504.88
1635 0 102.151 9.39782 960 84.6031 241.277 504.558
1636 0 108.262 10.2806 1113 76.8634 240.534 492.967
1637 0 110.244 10.0685 1110 78.1261 240.037 494.696
1638 0 113.361 9.87112 1119 87.1778 240.039 494.302
1639 0 114.242 10.6791 1220 90.209 239.612 494.909
1640 0 117.565 11.1682 1313 90.2049 239.325 492.704
1641 0 117.421 10.3389 1214 87.4629 239.138 493.702
1642 0 121.457 11.2385 1365 85.5993 239.727 488.649
1643 1 63.1214 8.36484 528 81.0038 240.369 521.267
1644 0 66.1053 10.3925 687 78.099 239.172 518.164
1645 0 66.2216 9.99673 662 79.4184 238.731 519.162
1646 0 68.1404 9.62718 656 81.0991 239.785 518.282
1647 0 71.0787 9.29955 661 83.472 239.448 516.16
1648 0 72.063 9.908 714 84.5448 239.524 518.534
1649 0 74.0898 9.34002 692 84.9292 239.153 519.889
1650 0 78.0918 10.6413 831 84.4296 239.242 515.792
1651 0 81.0961 10.5184 853 86.2239 239.492 515.3
1652 1 160.28 11.5485 1851 93.0546 239.48 472.41
1653 0 166.115 11.3656 1888 95.4688 239.791 471.704
1654 1 86.0551 10.226 880 91.5523 239.476 514.718
1655 0 91.0326 12.1165 1103 100.432 241.531 508.772
1656 0 92.0533 12.3515 1137 101.456 241.069 509.112
1657 0 94.0557 12.5777 1183 101.239 241.618 508.459
1658 0 97.0894 13.0395 1266 101.409 240.286 505.775
1659 0 100.118 12.8847 1290 101.5 240.954 505.618
1660 0 100.18 12.6572 1268 102.505 240.905 502.864
1661 0 102.115 12.8777 1315 101.706 240.756 502.564
1662 0 105.14 12.8686 1353 102.291 240.682 501.401
1663 0 108.104 13.4223 1451 99.6458 240.323 497.447
1664 0 109.131 12.9935 1418 101.187 239.685 497.737
1665 0 112.095 13.4172 1504 100.012 240.987 494.928
1666 1 60.0285 11.1447 669 96.577 242.013 522.834
1667 0 62.0597 12.4074 770 91.6247 239.703 521.987
1668 0 62.0221 12.5762 780 80.8462 239.84 522.994
1669 0 64.0669 12.8303 822 89.1107 239.086 520.498
1670 0 65.052 12.3286 802 92.3017 239.524 520.626
1671 0 66.074 11.5779 765 93.9007 238.758 521.294
1672 0 68.0809 12.0739 822 95.6971 238.704 519.672
1673 0 68.0755 11.9132 811 97.1418 238.369 518.719
1674 0 71.0382 11.9513 849 95.9482 239.088 518.737
1675 0 74.0922 12.0391 892 95.4944 239.344 515.164
1676 0 77.0644 12.1068 933 94.6731 239.19 513.904
1677 0 79.0903 12.3277 975 95.6031 239.523 513.555
1678 0 83.0439 12.078 1003 95.5125 239.83 512.739
1679 0 85.0565 11.9332 1015 97.2098 240.331 511.173
1680 0 86.0756 11.792 1015 97.7379 239.299 509.856
1681 0 91.0807 12.6042 1148 95.8232 239.857 508.639
1682 0 96.1253 12.5461 1206 100.523 239.396 504.422
1683 1 50.1013 11.3969 571 96.1016 239.394 528.01
1684 0 52.0517 11.527 600 93.575 239.375 527.903
1685 0 55.05 12.4069 683 89.5754 240.758 526.119
1686 0 55.0112 12.7065 699 92.2289 238.88 525.612
1687 0 53.0672 10.8542 576 86.3663 240.089 520.701
1688 0 56.0109 11.5513 647 85.4111 240.705 519.77
1689 0 56.0458 11.2586 631 84.8399 240.748 519.835
1690 0 60.0548 10.8401 651 84.3472 241.029 521.447
1691 0 61.0679 11.2825 689 84.2177 241.12 517.631
1692 0 63.0647 10.8936 687 85.572 241.396 517.084
1693 0 62.0669 11.0526 686 85.9767 241.162 511.362
1694 0 62.0716 11.1967 695 87.8676 240.824 510.081
1695 0 65.0504 11.1606 726 87.5028 240.039 511.744
1696 0 67.0324 11.6063 778 88.5514 240.41 510.874
1697 0 68.0967 11.3368 772 90.3653 240.065 509.03
1698 0 72.1955 11.8013 852 88.6843 240.738 507.119
1699 0 71.0344 11.3889 809 92.1199 240.273 507.269
1700 0 76.1009 12.0104 914 89.6926 240.546 505.803
1701 0 77.1473 11.1734 862 92.5336 239.806 505.146
1702 0 80.2547 11.9868 962 90.7526 240.632 503.92
1703 0 81.0705 12.1006 981 91.7085 240.684 501.251
1704 0 88.1037 11.9972 1057 91.8306 240.986 501.614
1705 0 89.112 12.3889 1104 90.4538 240.644 500.414
1706 0 93.0986 12.3632 1151 91.6047 241.157 497.961
1707 0 93.1321 12.187 1135 93.8634 240.867 497.147
1708 0 95.0699 11.9807 1139 95.727 241.251 494.027
1709 0 99.1262 12.1663 1206 94.6592 240.505 491.588
1710 0 108.144 13.5097 1461 98.6701 240.159 494.997
1711 0 112.083 13.7131 1537 97.4301 240.991 493.843
1712 0 117.168 13.1265 1538 99.1652 240.48 491.997
1713 0 120.099 13.5722 1630 100.87 241.137 489.023
1714 1 65.0212 10.8888 708 98.8559 241.569 517.496
1715 0 67.0625 10.945 734 98.2847 241.868 513.534
1716 0 60.0391 10.3766 623 94.069 241.36 507.437
1717 1 74.0595 12.2874 910 97.244 242.507 514.074
1718 0 75.05 12.3784 929 98.1733 242.559 512.881
1719 0 79.0525 13.0167 1029 96.2381 243.073 512.19
1720 0 79.0642 12.1041 957 99.1557 241.887 510.375
1721 0 79.1013 10.9353 865 93.2139 242.97 512.635
1722 0 82.0344 11.4708 941 91.8725 241.808 509.376
1723 0 84.083 10.9891 924 92.2836 241.931 506.044
1724 0 89.1256 12.028 1072 89.1474 241.843 507.244
1725 0 91.1118 12.0182 1095 92.6082 242.127 506.424
1726 0 94.1128 12.315 1159 100.184 242.128 502.802
1727 0 98.0659 13.2156 1296 97.3889 241.269 500.627
1728 0 101.099 12.0674 1220 98.6008 241.208 499.691
1729 0 103.09 12.9498 1335 99.1468 241.843 499.433
1730 0 106.1 12.4694 1323 98.8995 241.338 497.52
1731 0 112.051 12.2533 1373 98.488 240.009 495.133
1732 1 59.0611 10.3452 611 88.9198 241.733 521.709
1733 0 60.0642 11.3046 679 82.056 240.892 520.08
1734 0 62.1096 11.1094 690 82.3478 241.484 521.742
1735 0 61.0623 10.9233 667 85.4798 241.325 520.931
1736 0 64.0561 10.725 687 85.4818 240.773 519.693
1737 0 66.0424 10.9475 723 85.2766 240.557 518.488
1738 0 68.0692 10.9154 743 86.2059 240.511 518.008
1739 0 70.0773 11.8583 831 83.6919 240.351 517.865
1740 0 71.0803 11.4518 814 84.4509 240.834 516.769
1741 0 73.0987 10.9715 802 85.9065 241.54 515.719
1742 0 73.0391 11.2542 822 85.9903 240.7 514.234
1743 0 77.0461 11.5256 888 84.7038 241.432 513.78
1744 0 81.1445 11.4364 928 84.8416 241.589 511.568
1745 0 82.07 11.5755 950 85.6495 240.834 509.743
1746 0 86.1124 11.4618 987 85.308 240.476 509.599
1747 0 86.113 11.0436 951 87.4059 239.671 508.316
1748 0 89.1008 12.0987 1078 85.3442 240.098 506.454
1749 0 92.1194 11.6805 1076 85.5112 240.174 504.627
1750 0 93.1157 10.8789 1013 86.5439 240.351 503.593
1751 0 96.044 11.5989 1114 86.9479 240.092 500.962
1752 0 99.1381 11.1259 1103 89.165 240.419 499.042
1753 0 104.245 12.3938 1292 89.356 240.457 498.124
1754 0 106.241 11.8599 1260 92.127 240.466 496.42
1755 0 111.201 12.5089 1391 91.2811 239.724 494.513
1756 1 60.13 11.2423 676 85.6479 240.339 521.064
1757 0 61.1404 11.3019 691 86.6498 240.032 519.884
1758 0 64.1031 11.9963 769 85.1027 240.419 519.658
1759 0 67.1562 12.4039 833 82.084 239.676 518.208
1760 0 67.1496 11.0946 745 82.553 241.126 519.091
1761 0 69.1695 11.3345 784 83.5906 240.955 517.165
1762 0 70.1684 10.9736 770 85.013 241.331 515.712
1763 0 72.1755 11.2365 811 84.9531 240.963 515.317
1764 0 76.0917 11.7358 893 84.6293 241.003 513.669
1765 0 78.2293 11.2746 882 85.5805 240.484 511.04
1766 0 81.1283 11.7345 952 84.437 241.234 512.317
1767 0 82.1169 11.1061 912 86.7445 241.157 509.957
1768 0 85.0778 11.3543 966 88.6366 240.763 506.873
1769 0 89.1585 11.3394 1011 88.7794 241.452 507.514
1770 0 91.153 12.3309 1124 88.9644 240.869 506.294
1771 0 95.1058 11.85 1127 89.3097 240.453 505.84
1772 0 96.0962 12.1441 1167 90.2751 240.064 504.108
1773 0 100.321 12.4102 1245 90.0305 240.608 501.585
1774 1 55.1417 10.609 585 91.5094 240.863 523.402
1775 0 57.0806 11.037 630 90.2429 241.029 522.297
1776 0 57.0782 11.2302 641 92.5195 240.761 521.777
1777 0 60.0525 12.4058 745 90.0376 241.787 518.534
1778 0 60.1323 11.7574 707 87.2093 242.124 520.81
1779 0 61.0889 11.295 690 86.5812 242.325 520.648
1780 0 64.0898 11.6087 744 84.8118 241.777 518.882
1781 0 67.1264 12.0668 810 83.3679 242.669 518.442
1782 0 68.1396 11.4177 778 84.2442 241.517 517.45
1783 0 70.1305 11.4501 803 85.6662 242.59 517.545
1784 0 72.1549 11.5169 831 85.9362 242.077 515.217
1785 0 75.0746 11.4286 858 86.1911 241.691 514.191
1786 0 75.1022 11.2114 842 88.8682 241.38 513.848
1787 0 79.0917 11.8596 938 87.5171 241.478 512.037
1788 0 81.0921 11.7644 954 89.282 241.499 510.789
1789 0 84.0727 11.2641 947 89.9113 241.545 508.601
1790 0 86.1017 12.0323 1036 89.4952 241.125 507.553
1791 0 90.1169 12.1731 1097 89.8396 241.406 505.428
1792 0 92.1261 12.027 1108 90.4783 241.007 503.918
1793 0 95.1737 11.5158 1096 92.1159 241.745 503.85
1794 0 97.131 11.5411 1121 97.2605 241.114 500.363
1795 1 54.0292 9.75399 527 93.5712 241.953 524.533
1796 0 54.0388 10.2704 555 95.6577 240.968 524.676
1797 0 58.0242 11.1333 646 92.0108 241.141 521.418
1798 0 58.0289 11.7528 682 91.4956 240.713 521.638
1799 0 61.1213 11.9598 731 92.9193 240.005 521.171
1800 0 59.0584 9.63453 569 89.4851 240.62 524.346
1801 0 60.0981 10.2333 615 87.9285 240.826 523.743
1802 0 63.1373 10.0575 635 86.0724 241.17 521.803
1803 0 66.2223 10.057 666 83.8273 240.054 516.399
1804 0 67.12 10.0566 675 84.6948 240.444 517.076
1805 0 69.1115 10.172 703 83.4765 240.007 517.972
1806 0 72.0983 10.1389 731 84.788 239.877 514.04
1807 0 73.0903 10.4528 764 84.4987 240.022 515.501
1808 0 77.142 10.7983 833 82.6242 240.573 516.402
1809 0 78.1072 10.4856 819 84.188 239.989 514.586
1810 0 80.039 10.295 824 85.6517 239.513 514.437
1811 0 83.028 11.5865 962 83.9823 238.868 511.696
1812 0 84.0358 10.3765 872 86.4771 239.986 509.602
1813 0 87.0518 10.4536 910 86.4681 239.619 509.52
1814 0 91.0822 10.8034 984 86.2297 240.338 508.068
1815 0 93.0888 11.2151 1044 86.454 239.788 503.244
1816 0 96.15 10.9516 1053 89.6838 239.282 500.178
1817 0 99.1468 11.4073 1131 88.3086 239.811 499.589
1818 0 103.1 11.7459 1211 87.7828 239.874 499.349
1819 1 56.023 9.8174 550 83.5745 240.071 526.744
1820 0 55.0141 9.88837 544 83.4761 239.954 523.507
1821 0 59.0591 10.8705 642 82.8692 240.231 523.358
1822 0 61.0239 11.7823 719 80.7469 239.91 521.992
1823 0 62.1302 11.3632 706 81.8527 240.795 520.953
1824 0 62.0718 11.7606 730 81.5904 240.473 520.266
1825 0 65.1012 11.5973 755 82.4291 240.731 520.872
1826 0 66.0758 11.85 783 82.2312 241.342 518.045
1827 0 68.1247 10.7597 733 84.457 240.716 518.085
1828 0 69.1134 11.3581 785 83.9529 240.827 516.482
1829 0 73.1518 10.7174 784 83.9898 240.092 515.371
1830 0 76.1068 11.4313 870 82.2575 240.972 512.201
1831 0 77.106 11.3091 872 83.9725 240.295 512.124
1832 0 79.1134 11.9322 944 81.8316 241.016 512.226
1833 0 80.1019 11.1233 891 85.3603 240.837 511.288
1834 0 83.0924 11.8061 981 84.5902 241.095 509.483
1835 0 85.1384 11.4519 975 90.1908 240.777 508.476
1836 0 88.1053 11.9062 1049 89.7388 241.277 507.1
1837 0 89.2309 11.0164 983 94.5504 241.249 505.529
1838 0 93.1967 11.9103 1110 93.8441 241.098 503.2
1839 0 96.1271 11.7553 1130 95.9195 241.01 501.348
1840 0 98.1379 12.2888 1206 94.1899 241.152 497.837
1841 0 99.1693 12.2114 1211 95.4591 239.759 494.063
1842 0 103.118 11.6954 1206 92.33 240.859 496.327
1843 0 104.083 12.8359 1336 95.9446 240.28 496.829
1844 0 108.197 12.3478 1336 95.3728 240.331 494.412
1845 0 111.137 12.4711 1386 100.562 239.944 492.152
1846 0 117.15 12.6761 1485 97.4545 240.603 490.553
1847 0 118.272 12.2599 1450 97.029 240.735 487.732
1848 0 125.224 12.8969 1615 96.3276 240.721 487.659
1849 0 128.194 13.1831 1690 97.3278 240.524 484.589
1850 0 132.295 12.6006 1667 100.398 240.777 482.212
1851 1 72.1403 10.5905 764 97.4084 240.551 512.876
1852 0 77.3014 10.8277 837 98.1147 241.136 510.576
1853 0 78.2683 11.5372 903 98.6301 240.732 505.858
1854 0 76.0326 11.6003 882 103.995 241.785 505.875
1855 0 80.0387 11.6444 932 104.517 241.033 505.333
1856 0 81.0387 12.2287 991 103.641 241.085 503.292
1857 0 83.0293 12.1523 1009 103.418 240.818 503.492
1858 0 87.0745 12.3917 1079 98.2697 240.628 503.299
1859 0 89.0912 12.0551 1074 99.8864 240.953 502.463
1860 0 91.0317 11.7212 1067 100.046 240.993 501.198
1861 0 96.054 12.5867 1209 96.2299 241.529 501.206
1862 0 98.0556 12.3195 1208 98.7781 240.8 498.401
1863 0 100.089 12.0992 1211 99.8926 240.075 497.202
1864 0 106.07 12.2844 1303 97.9018 240.057 497.573
1865 0 109.111 12.8401 1401 96.0321 240.166 494.397
1866 1 59.0444 10.9409 646 98.3607 240.139 520.102
1867 0 62.1087 11.2384 698 96.6791 240.458 520.182
1868 0 63.1844 11.2844 713 95.9257 239.976 517.339
1869 0 65.1185 12.2239 796 92.8555 239.942 516.76
1870 0 65.0311 12.3172 801 92.3271 239.76 514.456
1871 0 67.039 12.2913 824 92.3981 240.155 515.936
1872 0 68.0599 11.6809 795 95.6264 239.774 514.865
1873 0 72.0718 12.3211 888 94.1655 239.376 514.177
1874 0 74.0754 12.5143 927 95.7411 239.04 512.098
1875 0 75.0503 12.0186 902 98.1574 239.651 510.731
1876 0 77.0662 12.379 954 98.4402 239.373 510.581
1877 0 80.0848 12.0622 966 99.6656 239.039 508.851
1878 0 84.127 13.2181 1112 96.5845 239.388 508.113
1879 0 84.1334 12.5872 1059 99.8414 239.33 506.887
1880 0 87.1032 12.3417 1075 99.1563 239.74 505.308
1881 0 88.1203 11.9042 1049 100.738 239.687 503.691
1882 0 91.0541 12.7616 1162 100.432 240.401 502.792
1883 0 94.0326 12.7084 1195 100.647 240.023 500.962
1884 0 95.0817 12.484 1187 100.31 240.758 499.265
1885 0 98.0548 12.799 1255 99.6725 240.985 499.44
1886 0 99.0358 12.3996 1228 101.248 240.993 496.245
1887 0 103.103 12.7445 1314 99.2755 240.7 492.252
1888 0 105.14 12.8686 1353 98.1737 240.687 492.702
1889 0 109.137 12.4155 1355 99.6716 240.122 488.472
1890 0 111.11 12.2042 1356 99.3628 239.923 487.231
1891 1 61.0329 10.1257 618 97.9369 239.668 511.861
1892 0 64.0509 11.0069 705 99.9589 240.284 514.376
1893 0 70.0617 12.332 864 98.7581 239.447 515.405
1894 0 70.0779 11.3731 797 102.08 239.883 513.723
1895 0 74.1394 11.6267 862 101.055 239.669 513.874
1896 0 76.0446 12.0719 918 100.53 240.007 513.505
1897 0 77.1071 12.2427 944 100.69 240.391 513.804
1898 0 79.062 12.7748 1010 99.1723 240.304 511.574
1899 0 80.0417 12.6184 1010 101.52 239.951 511.159
1900 0 83.0775 12.5545 1043 101.927 239.942 509.409
1901 0 86.1262 13.1087 1129 100.38 240.167 508.639
1902 0 88.1351 13.0255 1148 101.461 240.615 507.569
1903 0 90.0752 13.411 1208 101.535 240.564 505.328
1904 0 93.0815 13.3002 1238 102.963 239.15 504.88
1905 0 96.0707 12.7718 1227 104.725 239.652 504.331
1906 0 99.0728 12.3949 1228 106.755 239.153 502.66
1907 0 102.056 12.1894 1244 106.407 239.055 501.13
1908 1 54.0512 10.9896 594 103.002 239.522 523.756
1909 0 56.0555 10.8642 609 99.4253 238.849 524.737
1910 0 56.0885 11.0718 621 91.6634 238.924 524.749
1911 0 57.0389 11.6762 666 90.452 238.71 525.186
1912 0 59.1206 11.096 656 105.416 238.593 521.622
1913 0 62.0746 11.4056 708 103.764 238.493 521.705
1914 0 63.0375 11.3266 714 105.427 238.196 521.99
1915 0 67.0939 11.1933 751 103.43 238.368 520.708
1916 0 67.0582 11.8106 792 102.612 238.657 519.597
1917 0 70.0494 11.5775 811 102.858 238.208 518.287
1918 0 72.049 11.4505 825 103.479 237.97 516.989
1919 0 74.058 11.653 863 102.908 238.357 515.505
1920 0 76.0466 11.6508 886 103.207 237.904 514.556
1921 0 77.0833 11.0659 853 103.713 238.518 515.435
1922 0 80.0509 11.2304 899 104.769 237.808 514.127
1923 0 83.0423 12.1023 1005 103.024 238.281 512.544
1924 0 85.0759 12.0128 1022 102.745 237.932 510.874
1925 0 86.09 11.6274 1001 103.513 238.57 510.885
1926 0 91.0384 11.6984 1065 102.717 238.691 508.967
1927 0 93.1082 12.2223 1138 102.478 238.437 508.725
1928 0 94.0993 11.6473 1096 103.574 238.973 507.723
1929 0 94.0801 11.1926 1053 104.632 238.073 507.717
1930 0 100.121 11.8756 1189 103.382 238.864 505.496
1931 1 54.0565 9.93404 537 100.959 239.749 527.264
1932 0 58.0395 10.4412 606 99.0231 240.2 526.62
1933 0 57.0128 10.9449 624 97.3574 239.71 525.364
1934 0 60.073 11.486 690 97.8188 239.145 524.254
1935 0 61.0283 10.5197 642 102.092 238.073 525.646
1936 0 62.0639 10.7792 669 99.725 238.942 526.115
1937 0 64.0511 9.60171 615 104.023 238.476 524.998
1938 0 65.0903 11.0155 717 102.022 238.452 523.835
1939 0 67.035 10.4274 699 102.88 238.654 524.948
1940 0 68.0327 10.7154 729 105.049 237.968 523.313
1941 0 68.072 10.3273 703 107.3 239.06 523.054
1942 0 71.0601 10.2026 725 108.655 238.884 521.954
1943 1 139.288 12.4993 1741 115.451 238.802 487.464
1944 0 141.324 11.8946 1681 118.77 238.507 485.579
1945 0 144.372 11.8167 1706 120.54 238.524 482.654
1946 0 144.348 10.6894 1543 123.91 238.336 483.781
1947 0 143.231 9.48121 1358 124.438 238.4 487.763
1948 0 145.24 10.252 1489 124.197 237.491 484.9
1949 0 145.212 9.17277 1332 122.325 238.605 490.539
1950 0 144.18 8.37148 1207 121.625 238.563 493.143
1951 0 144.159 7.17262 1034 120.132 239.15 501.258
1952 1 252.608 12.5728 3176 115.48 237.397 432.3
1953 0 261.59 12.7107 3325 114.524 238.634 428.868
1954 1 100.095 11.1794 1119 109.914 238.528 509.517
1955 0 103.113 10.5904 1092 111.405 240.374 508.675
1956 0 105.069 11.5638 1215 122.383 240.314 504.708
1957 0 106.081 11.7364 1245 120.562 240.009 503.847
1958 0 108.185 11.1753 1209 116.324 239.113 500.652
1959 0 112.158 11.4838 1288 114.382 239.946 501.296
1960 0 115.209 11.2925 1301 113.746 239.852 501.387
1961 0 119.093 12.2258 1456 110.806 240.413 499.434
1962 0 121.125 11.7647 1425 112.095 239.563 497.309
1963 0 125.083 11.5923 1450 112.429 239.63 495.313
1964 0 127.184 11.0863 1410 113.382 239.394 494.877
1965 0 133.167 11.647 1551 110.535 238.975 490.075
1966 0 139.165 11.9139 1658 108.261 239.098 490.908
1967 0 142.233 11.5655 1645 107.151 239.302 491.678
1968 0 147.157 10.8863 1602 109.65 238.78 488.581
1969 1 218.423 11.7387 2564 110.347 238.041 450.124
1970 0 227.501 12.2329 2783 108.217 238.474 447.546
1971 0 233.357 11.3431 2647 108.343 238.091 448.755
1972 0 242.348 11.5619 2802 107.986 238.402 442.557
1973 0 250.258 12.3393 3088 105.24 237.34 437.138
1974 1 53.0827 11.0959 589 98.7097 237.496 531.129
1975 0 56.0353 10.9395 613 98.6966 237.367 528.263
1976 0 58.0362 11.5618 671 95.2355 236.981 527.197
1977 0 59.0478 11.4822 678 95.2552 237.454 527.462
1978 0 55.0277 10.0858 555 97.382 238.13 528.622
1979 0 57.0364 9.90595 565 98.5115 237.688 527.423
1980 0 59.061 10.2267 604 97.1258 238.007 527.384
1981 0 60.0539 9.67464 581 99.2892 237.176 525.711
1982 1 104.126 7.51014 782 113.083 238.105 505.806
1983 0 103.189 6.24098 644 113.05 238.068 507.885
1984 1 124.21 11.3759 1413 105.208 238.113 495.311
1985 0 127.121 11.1626 1419 103.142 238.844 494.39
1986 0 128.137 10.5278 1349 105.724 238.477 491.068
1987 0 133.212 10.457 1393 105.876 238.709 489.77
1988 0 135.262 9.30783 1259 109.087 238.485 485.876
1989 0 141.227 10.6849 1509 107.104 238.819 484.651
1990 0 144.167 10.1896 1469 108.096 239.007 485.233
1991 0 149.139 10.2723 1532 108.985 239.211 480.543
1992 0 154.264 10.696 1650 108.198 238.472 481.17
1993 0 158.179 10.5324 1666 109.137 238.762 479.77
1994 0 164.278 10.3666 1703 111.373 238.541 477.514
1995 1 91.0833 10.7923 983 102.165 239.45 513.429
1996 0 92.0981 11.162 1028 103.2 238.564 510.304
1997 0 92.0917 10.4353 961 106.12 238.754 510.767
1998 0 95.1087 10.1042 961 109.522 238.339 510.493
1999 0 99.1054 11.291 1119 108.842 238.898 509.702
2000 0 100.076 10.9218 1093 108.626 238.747 510.132
2001 0 98.0907 10.4291 1023 107.644 238.418 508.76
2002 0 102.149 10.6413 1087 107.308 238.517 505.764
2003 0 103.118 9.78489 1009 109.156 238.944 505.448
2004 0 106.131 10.487 1113 106.825 238.855 504.644
2005 0 106.271 9.73925 1035 109.225 238.435 503.485
2006 0 113.201 11.0511 1251 106.851 238.859 500.143
2007 0 114.129 10.5582 1205 108.487 238.75 499.962
2008 1 131.183 8.23278 1080 108.872 239.477 503.583
2009 0 131.198 8.23185 1080 111.048 239.426 499.691
2010 0 131.176 9.46057 1241 110.866 238.964 494.338
2011 0 131.246 9.91265 1301 109.324 238.82 493.346
2012 0 136.19 10.7276 1461 109.188 238.482 488.722
2013 0 139.193 10.4603 1456 110.801 238.61 486.247
2014 0 148.245 9.50451 1409 110.996 238.834 487.018
2015 0 147.179 10.2732 1512 111.816 238.772 478.589
2016 0 152.155 9.70065 1476 111.497 239.143 480.298
2017 0 159.209 10.1125 1610 111.806 238.655 475.816
2018 0 162.257 9.63904 1564 113.598 238.91 474.758
2019 0 169.304 10.2183 1730 111.714 238.559 472.084
2020 0 172.272 9.72879 1676 113.394 238.557 470.184
2021 1 136.203 9.29494 1266 111.114 238.794 483.917
2022 1 47.0144 9.52899 448 90.4821 239.511 528.969
2023 0 49.0218 9.93435 487 90.3265 239.513 528.694
2024 0 50.007 10.6385 532 95.3252 239.444 527.799
2025 0 51.0092 10.4883 535 101.585 239.507 526.26
2026 0 46.049 8.59953 396 96.0758 238.086 528.05
2027 0 47.0338 8.54705 402 96.6741 237.639 526.786
2028 0 48.0421 8.11788 390 97.8538 237.408 524.972
2029 0 50.0398 8.41331 421 97.1164 237.584 526.24
2030 0 52.0424 8.45464 440 98.0977 237.448 524.716
2031 0 55.0516 8.11965 447 99.6689 237.409 525.289
2032 0 58.0162 8.49762 493 98.9067 237.31 522.759
2033 0 60.0663 8.99006 540 97.4685 237.82 524.759
2034 0 60.0447 8.51033 511 100.806 238.01 521.957
2035 0 64.059 9.05415 580 99.2 237.91 520.89
2036 0 65.0954 8.21871 535 102.107 238.155 518.994
2037 0 63.0667 8.78436 554 102.637 237.736 517.056
2038 0 67.0489 8.8592 594 101.914 237.104 516.591
2039 0 70.077 9.00438 631 102.114 237.872 515.792
2040 0 78.1042 10.8061 844 97.577 237.615 517.024
2041 0 80.1684 10.5029 842 99.9228 237.542 515.563
2042 0 82.2289 10.7262 882 100.689 237.287 512.438
2043 1 43.0544 9.73187 419 103.721 237.489 531.272
2044 0 43.0459 10.8953 469 105.456 237.629 529.665
2045 0 44.0705 11.0732 488 109.133 237.83 528.977
2046 0 45.0445 11.4109 514 108.313 237.391 528.097
2047 0 43.0813 9.49369 409 105.178 237.455 531.071
2048 0 44.0149 10.6328 468 103.613 238.248 530.015
2049 0 48.0205 10.2664 493 101.704 238.089 529.414
2050 0 46.0439 10.5117 484 101.017 238.558 529.198
2051 0 47.0651 9.53998 449 103.933 237.862 527.448
2052 0 47.0847 9.93953 468 103.97 237.795 528.293
2053 0 51.079 10.8264 553 100.958 238.161 528.383
2054 0 55.0742 11.1304 613 99.137 238.145 527
2055 0 55.0144 10.7063 589 103.443 237.981 526.107
2056 0 56.0279 10.8874 610 103.648 238.77 526.088
2057 0 58.0384 11.4235 663 102.7 239.121 524.662
2058 0 62.0226 11.5119 714 102.734 239.071 523.031
2059 0 62.0648 10.8918 676 106.027 238.859 520.544
2060 0 64.0632 11.0047 705 107.345 238.424 519.264
2061 0 66.0382 11.4631 757 107.092 238.629 519.871
2062 0 72.0442 12.1453 875 103.136 238.234 521.455
2063 0 75.0275 12.622 947 102.828 238.712 519.506
2064 0 76.1066 12.4825 950 104.048 237.602 519.512
2065 0 78.1033 12.0482 941 105.102 238.001 518.983
2066 0 80.0988 12.2848 984 106.482 237.679 516.055
2067 0 82.1578 12.3786 1017 106.968 238.152 516.083
2068 0 86.1767 11.9754 1032 105.998 237.882 515.998
2069 0 86.0945 12.254 1055 108.877 238.385 514.81
2070 0 89.0759 12.2817 1094 108.75 238.366 513.914
2071 1 48.0171 11.9124 572 107.766 238.712 532.862
2072 0 49.0528 12.191 598 106.579 238.518 533.147
2073 0 50.028 12.5729 629 107.218 238.723 530.102
2074 0 53.0867 12.9034 685 109.279 238.215 529.015
2075 0 52.1056 12.1484 633 112.028 238.436 529.39
2076 0 55.0318 12.5564 691 112.559 238.462 527.657
2077 0 56.1477 12.574 706 116.123 238.865 526.224
2078 0 60.0517 13.2886 798 115.47 238.098 526.757
2079 0 60.1084 13.6254 819 118.775 238.011 524.093
2080 0 62.0366 13.4114 832 121.823 237.438 523.779
2081 0 64.0955 13.5423 868 122.588 238.129 523.033
2082 0 65.0884 13.5201 880 124.622 237.653 520.899
2083 0 67.1 13.8599 930 122.397 238.188 520.895
2084 0 68.1046 13.2297 901 126.357 237.861 520.251
2085 0 70.067 13.3158 933 125.793 238.854 520.227
2086 0 71.1428 13.8454 985 123.663 238.157 518.93
2087 0 73.0972 13.3384 975 127.185 238.6 517.868
2088 0 75.0764 13.4397 1009 127.186 238.024 516.21
2089 0 75.1099 13.5269 1016 128.391 238.083 514.673
2090 0 80.182 14.0555 1127 124.893 238.269 514.809
2091 0 81.2082 13.6809 1111 127.682 238.924 513.765
2092 0 84.1503 13.6779 1151 127.805 237.858 512.067
2093 0 85.1448 13.295 1132 129.307 238.022 511.839
2094 0 87.1648 13.6179 1187 126.644 238.145 509.884
2095 0 89.1346 13.9676 1245 125.591 238.219 508.805
2096 0 88.0678 13.2171 1164 125.81 237.844 509.393
2097 1 48.0282 12.1179 582 126.899 238.163 528.01
2098 0 50.0791 12.4004 621 125.034 237.696 527.585
2099 0 51.0673 12.4346 635 125.461 238.746 525.186
2100 0 55.0996 12.8132 706 122.225 238.591 524.816
2101 0 56.0216 12.513 701 124.351 239.071 523.812
2102 0 55.1013 12.6313 696 125.142 238.892 522.624
2103 0 60.1713 13.0295 784 120.653 238.857 521.562
2104 0 62.0461 12.8292 796 121.727 239.141 520.216
2105 0 61.1933 12.485 764 124.635 238.733 518.126
2106 0 64.1368 13.1594 844 121.191 238.466 517.351
2107 0 67.0627 13.301 892 119.953 238.249 517.266
2108 0 67.1113 13.4404 902 120.777 238.768 513.878
2109 0 67.1684 12.9079 867 124.05 238.474 512.986
2110 0 70.0916 12.4694 874 125.05 238.431 511.879
2111 0 70.0923 12.8402 900 124.928 238.35 510.44
2112 0 74.1115 12.7106 942 124.399 238.627 509.556
2113 0 76.13 13.3324 1015 121.95 238.213 509.766
2114 0 79.1752 13.4891 1068 123.058 238.936 508.65
2115 0 82.1089 13.2385 1087 123.811 238.422 507.006
2116 0 84.1613 12.7731 1075 127.027 238.669 505.694
2117 0 84.2208 12.4435 1048 129.272 238.602 505.025
2118 0 87.2297 12.4155 1083 128.746 238.983 502.668
2119 0 90.1623 12.9766 1170 125.837 239.363 503.332
2120 0 93.2008 13.0042 1212 126.944 239.383 499.705
2121 0 96.1598 12.3648 1189 129.263 238.758 496.156
2122 0 98.1738 12.6307 1240 128.303 238.623 494.452
2123 0 101.21 12.2912 1244 128.507 239.039 494.8
2124 0 105.172 12.7981 1346 126.979 239.134 491.928
2125 1 43.0069 8.95204 385 108.535 240.353 524.101
2126 0 42.0065 9.04623 380 109.584 239.939 523.874
2127 0 46.0774 10.3521 477 106.488 240.113 525.191
2128 0 44.07 9.73452 429 101.396 239.128 526.023
2129 0 44.0891 8.30137 366 101.779 240.648 528.612
2130 0 44.0576 9.05632 399 101.599 240.103 527.451
2131 0 46.0848 8.61456 397 99.9395 240.587 529.002
2132 0 50.0573 9.84872 493 98.6633 239.903 525.73
2133 0 52.0784 9.60091 500 99.954 240.348 524.35
2134 0 53.0898 9.58753 509 99.6483 240.371 525.582
2135 0 55.1277 9.30566 513 100.419 240.827 525.45
2136 0 58.1273 9.68564 563 101.29 240.513 522.854
2137 0 58.1379 9.75268 567 100.328 240.466 522.887
2138 0 55.0449 8.81098 485 103.674 240.13 519.606
2139 0 54.117 8.18596 443 106.244 240.524 518.944
2140 0 60.0837 7.18997 432 108.59 240.014 518.741
2141 0 61.1094 8.95115 547 106.4 240.57 517.241
2142 0 63.0906 8.68592 548 107.119 240.184 516.951
2143 0 64.116 8.96813 575 107.56 240.523 516.65
2144 0 66.071 9.18709 607 105.797 240.521 517.941
2145 0 73.1271 9.92792 726 105.204 240.269 515.179
2146 0 73.0703 10.4146 761 105.636 239.046 513.66
2147 0 74.1011 10.2023 756 107.458 239.725 512.701
2148 0 78.1167 10.1131 790 107.894 239.251 512.513
2149 0 78.1688 9.8249 768 108.426 240.37 511.544
2150 0 81.1458 10.1053 820 108.891 239.489 510.184
2151 0 82.1584 10.3459 850 109.331 239.827 509.539
2152 0 85.1214 9.65679 822 110.69 239.759 508.667
2153 0 89.1756 10.1037 901 110.433 240.189 508.642
2154 0 91.0977 10.4942 956 110.649 239.532 505.985
2155 0 94.1428 10.3566 975 110.875 240.081 505.758
2156 0 95.1052 10.42 991 111.259 239.597 502.681
2157 0 98.1496 10.2802 1009 111.576 239.468 501.76
2158 0 102.194 11.2336 1148 108.098 239.615 502.288
2159 0 103.154 10.5958 1093 110.027 239.552 498.382
2160 0 107.09 10.6172 1137 109.243 239.41 497.55
2161 0 109.131 11.2067 1223 109.732 240.062 494.994
2162 0 111.097 10.7474 1194 111.401 239.689 493.602
2163 0 116.111 10.4728 1216 110.629 239.698 495.24
2164 0 119.111 11.1661 1330 110.75 240.133 491.323
2165 0 120.089 10.4589 1256 113.903 240.014 489.631
2166 0 125.165 11.0095 1378 112.324 241.051 488.492
2167 0 126.128 10.5607 1332 113.342 240.543 488.21
2168 0 129.094 10.6124 1370 112.195 240.159 486.972
2169 0 133.116 9.74336 1297 114.517 240.409 485.174
2170 0 136.105 10.6389 1448 113.242 240.406 482.421
2171 0 141.118 10.9695 1548 114.279 240.333 478.145
2172 0 147.137 11.5811 1704 112.417 240.587 478.201
2173 0 150.153 10.9954 1651 114.545 239.657 474.534
2174 0 153.135 10.0108 1533 117.404 240.013 468.703
2175 0 157.184 10.5482 1658 116.826 239.796 467.484
2176 0 160.144 10.2471 1641 117.803 240.404 468.474
2177 0 164.11 9.73738 1598 119.331 239.964 463.283
2178 0 170.196 10.5349 1793 115.993 239.956 462.394
2179 0 176.137 10.2931 1813 115.585 239.522 458.537
2180 0 181.195 11.4131 2068 113.583 239.871 457.97
2181 0 187.193 11.1542 2088 112.175 239.323 454.939
2182 0 192.226 11.0599 2126 113.15 239.748 448.766
2183 0 196.241 11.2413 2206 113.299 239.791 449.09
2184 0 202.221 11.5863 2343 112.707 240.295 447.901
2185 0 209.216 12.284 2570 111.903 240.168 447.946
2186 0 214.34 12.886 2762 112.419 239.891 446.353
2187 0 218.369 13.1337 2868 113.215 238.732 443.076
2188 0 225.356 12.5978 2839 115.855 239.45 439.627
2189 0 234.331 11.1594 2615 117.898 239.285 442.451
2190 0 234.48 12.8199 3006 114.664 239.924 434.734
2191 0 240.382 12.0017 2885 116.338 240.06 432.219
2192 0 246.437 12.49 3078 115.163 239.887 428.838
2193 0 252.419 12.4674 3147 115.986 239.725 426.415
2194 0 258.413 12.778 3302 115.583 239.77 425.334
2195 0 266.514 13.9092 3707 114.185 239.7 421.961
2196 1 290.324 9.48595 2754 122.031 240.36 441.51
2197 0 292.409 10.4135 3045 122.855 241.195 437.344
2198 0 292.389 12.3261 3604 125.089 240.532 423.753
2199 0 292.368 14.6152 4273 122.836 240.221 410.329
2200 0 298.518 14.8333 4428 123.347 240.009 407.112
2201 0 304.53 14.9837 4563 125.327 240.013 402.046
2202 0 311.424 15.1337 4713 127.617 240.354 398.083
2203 0 317.444 15.5366 4932 129.831 239.943 392.407
2204 0 320.444 15.9498 5111 132.341 240.018 390.926
2205 0 326.382 16.3582 5339 133.412 239.544 385.755
2206 0 330.432 15.9276 5263 139.363 239.15 380.674
2207 0 336.505 16.4812 5546 139.07 239.637 380.162
2208 0 341.487 16.8469 5753 138.932 238.958 376.633
2209 0 344.453 15.9093 5480 145.074 239.652 375.536
2210 0 348.437 16.2755 5671 145.663 238.978 372.974
2211 0 354.468 16.4303 5824 145.736 239.191 370.646
2212 0 359.484 17.9452 6451 142.653 239.093 367.052
2213 0 368.473 21.6135 7964 129.62 238.31 351.903
2214 0 369.413 19.9641 7375 137.733 238.408 350.24
2215 0 371.605 18.0245 6698 146.487 238.519 355.651
2216 0 374.369 17.5068 6554 149.866 238.217 357.404
2217 0 389.674 19.4085 7563 143.631 237.941 347.429
2218 0 386.43 18.5958 7186 147.972 238.217 345.737
2219 0 387.325 18.6045 7206 146.732 238.186 344.865
2220 0 387.31 18.582 7197 150.558 238.541 343.51
2221 0 386.317 18.723 7233 151.049 238.543 343.09
2222 0 385.405 17.6334 6796 157.404 238.085 341.972
2223 0 388.307 19.8013 7689 151.543 238.664 342.905
2224 0 388.32 19.4865 7567 151.098 238.449 342.155
2225 0 386.56 18.2921 7071 155.552 238.217 340.614
2226 0 385.324 18.561 7152 154.298 238.144 339.69
2227 0 387.239 19.4015 7513 151.362 237.756 340.306
2228 0 388.377 19.4553 7556 150.673 237.636 340.618
2229 0 387.402 19.1893 7434 151.519 237.949 339.827
2230 0 387.418 19.0905 7396 152.443 237.81 339.232
2231 0 386.432 19.3773 7488 151.659 237.729 338.94
2232 0 388.392 20.1961 7844 149.014 238.067 339.186
2233 0 388.348 20.9117 8121 145.3 238.112 338.363
2234 0 388.354 21.5834 8382 144.843 237.693 337.806
2235 0 388.408 19.7061 7654 149.443 238.463 337.645
2236 0 388.351 19.9073 7731 150.127 237.615 337.28
2237 0 387.455 19.6694 7621 148.131 237.745 336.624
2238 0 388.46 20.5117 7968 144.914 236.837 336.972
2239 0 389.303 21.0787 8206 141.833 237.713 336.487
2240 0 389.484 21.0869 8213 140.729 237.682 336.667
2241 0 387.553 20.841 8077 141.927 237.703 335.384
2242 0 387.301 21.6162 8372 139.833 237.258 335.133
2243 0 388.547 20.7388 8058 145.072 237.695 335.159
2244 0 386.268 20.4185 7887 146.419 237.497 334.438
2245 0 387.407 20.694 8017 144.613 238.127 335.612
2246 0 387.333 20.1997 7824 146.313 237.806 334.673
2247 0 386.388 21.0358 8128 142.641 237.252 334.331
2248 0 382.403 20.9596 8015 146.402 237.614 332.234
2249 0 379.341 20.0163 7593 153.995 237.893 331.437
2250 0 377.306 20.119 7591 156.858 237.846 330.47
2251 0 376.302 19.9813 7519 159.411 237.76 330.17
2252 0 378.267 23.5971 8926 151.161 237.64 329.312
2253 0 376.386 19.5677 7365 162.915 236.981 331.134
2254 0 377.412 20.1769 7615 160.734 236.928 332.506
2255 0 376.46 19.9649 7516 160.736 238.118 332.365
2256 0 374.335 19.4211 7270 163.739 238.194 331.71
2257 0 375.378 19.1993 7207 163.397 238.003 333.308
2258 0 375.433 19.2018 7209 163.354 238.015 333.367
2259 0 378.316 18.8916 7147 160.713 238.344 334.571
2260 0 378.481 19.2559 7288 158.124 238.468 335.052
2261 0 372.286 19.0687 7099 159.434 238.5 334.616
2262 0 375.476 20.0306 7521 158.903 238.28 334.691
2263 0 376.507 20.0634 7554 154.147 238.251 336.648
2264 0 375.485 19.1965 7208 157.832 238.738 337.94
2265 0 373.461 19.8468 7412 156.156 237.694 337.735
2266 0 370.443 20.1866 7478 155.611 238.51 336.628
2267 0 370.442 20.2407 7498 155.556 237.806 337.613
