time division length width area intensity CMx CMy
0 0 78.0883 14.3812 1123 118.8 510.74 483.328
1 0 81.1368 14.4447 1172 117.928 509.933 481.576
2 0 85.0903 14.2672 1214 116.63 509.81 481.714
3 0 87.1791 14.5792 1271 115.042 509.653 481.256
4 0 90.0875 13.4647 1213 116.219 509.534 479.392
5 1 46.0177 11.9737 551 114.002 510.084 501.174
6 0 48.0623 11.7764 566 113.007 511.283 500.507
7 0 50.056 12.0265 602 110.047 511.015 499.983
8 0 52.0518 12.891 671 108.641 510.659 498.325
9 0 52.0317 12.8191 667 108.294 510.33 499.349
10 0 55.0275 12.8663 708 106.534 510.445 498.48
11 0 57.0316 12.835 732 106.227 509.325 496.717
12 0 60.0098 13.2312 794 105.258 509.946 496.312
13 0 61.0534 13.0541 797 106.235 509.338 494.827
14 0 64.0413 12.9135 827 106.148 509.371 494.184
15 0 63.043 12.9277 815 157.243 509.401 493.961
16 0 67.0575 13.6003 912 101.123 509.351 494.238
17 0 70.0988 12.7962 897 102.342 509.293 490.43
18 0 71.1065 12.6289 898 102.219 509.055 490.311
19 0 73.0853 12.7522 932 100.458 509.185 489.289
20 0 76.0757 13.2105 1005 99.3502 508.655 487.805
21 0 79.0589 13.2812 1050 101.121 508.581 484.816
22 0 83.067 13.3868 1112 99.4838 507.522 483.143
23 0 84.1088 12.6978 1068 100.073 507.82 481.76
24 1 44.0334 10.8781 479 99.7432 508.706 502.223
25 0 46.0123 11.5839 533 96.0882 508.325 500.947
26 0 49.0148 11.976 587 95.4821 508.697 500.768
27 0 49.0954 12.3229 605 94.0926 508.666 499.488
28 0 51.0315 12.8744 657 94.1552 508.146 502.349
29 0 53.0398 12.896 684 93.4576 508.895 500.734
30 0 54.0759 13.3516 722 93.2729 508.083 500.091
31 0 56.0654 12.3784 694 94.5965 508.346 499.506
32 0 57.0278 12.7832 729 92.8505 507.222 499.793
33 0 59.0445 13.4305 793 89.5813 507.295 495.628
34 0 61.1157 12.8608 786 90.4822 507.268 496.813
35 0 63.0458 12.8478 810 91.6556 507.412 495.437
36 0 67.0706 13.3591 896 90.3862 507.997 494.162
37 0 68.107 13.1558 896 90.8538 507.652 491.28
38 0 72.0691 13.5148 974 90.8347 507.287 490.661
39 0 73.0752 13.1782 963 91.7196 507.85 488.97
40 0 77.1665 12.9979 1003 91.8943 507.871 487.498
41 0 80.0529 13.9533 1117 89.6992 507.708 485.813
42 0 83.0224 13.0567 1084 92.7814 507.829 485.54
43 0 86.073 13.6047 1171 90.3177 506.927 483.727
44 0 87.0627 12.8413 1118 91.7826 507.394 481.37
45 0 90.0821 13.0659 1177 88.7978 507.285 478.073
46 0 93.0533 13.0463 1214 87.7504 507.848 477.884
47 0 97.0603 12.3841 1202 88.0815 507.008 475.021
48 0 99.0551 12.4577 1234 88.2018 507.378 471.92
49 0 103.019 12.7161 1310 86.7084 506.954 471.087
50 0 106.068 12.888 1367 86.3292 507.623 470.66
51 1 51.0335 10.3265 527 83.7002 507.922 501.042
52 0 55.0287 10.9397 602 83.5266 507.186 498.955
53 0 56.0323 10.833 607 83.8649 506.31 498.114
54 0 57.0295 10.7313 612 84.2614 507.015 496.956
55 0 61.0671 11.7739 719 83.0723 507.132 494.83
56 0 63.0165 11.5049 725 82.9338 508.098 492.12
57 0 66.0249 11.7986 779 81.7638 507.398 492.982
58 0 69.0432 12.4849 862 81.0186 507.26 492.464
59 0 69.0562 12.6274 872 81.5745 506.533 490.568
60 0 71.0588 12.5952 895 81.105 507.745 488.59
61 0 75.0877 12.3189 925 81.2454 507.639 488.476
62 0 75.1422 12.4032 932 82.2403 506.824 488.077
63 0 79.1314 13.4207 1062 79.5913 506.455 485.901
64 0 82.0827 13.4864 1107 79.9919 506.622 485.187
65 0 85.0569 13.4498 1144 80.5166 507.093 483.897
66 0 85.0607 12.6968 1080 80.5287 506.773 483.163
67 0 87.0649 13.2085 1150 80.4356 506.082 482.536
68 0 92.0766 12.9783 1195 83.1205 506.475 480.764
69 0 96.1069 13.0584 1255 81.6486 507.017 478.826
70 0 98.1308 13.5228 1327 80.5094 506.455 478.212
71 0 101.08 13.7317 1388 80.2176 507.436 476.225
72 0 104.099 12.8628 1339 81.1374 506.844 472.846
73 0 107.068 12.7582 1366 80.6713 507.046 471.004
74 0 112.13 12.6282 1416 80.6335 506.896 468.126
75 0 117.054 13.0282 1525 78.9357 507.158 468.429
76 1 64.0192 12.0433 771 74.8003 506.833 496.171
77 0 65.1276 11.1781 728 76.5192 507 493.265
78 0 67.1069 12.0852 811 72.5721 506.831 494.196
79 0 69.0754 12.0014 829 71.8806 507.321 493.522
80 0 73.0748 12.7951 935 74.1604 507.539 491.058
81 0 74.0789 12.8107 949 74.4426 507.334 489.292
82 0 78.0817 13.1913 1030 72.6291 507.186 488.053
83 0 81.1374 12.9903 1054 72.4137 507.585 487.374
84 0 83.0913 13.082 1087 72.3202 507.757 485.422
85 0 83.1528 12.6033 1048 73.6994 507.283 484.811
86 0 88.1322 12.9238 1139 72.6453 507.903 483.062
87 0 89.1072 12.9731 1156 72.9957 507.254 481.944
88 0 89.1072 12.9619 1155 129.994 507.249 482
89 0 94.0726 12.5541 1181 72.8832 507.588 478.623
90 0 98.1058 12.405 1217 72.4602 507.435 476.376
91 0 102.107 12.0462 1230 72.6032 507.585 474.64
92 0 104.066 11.6657 1214 72.9209 507.342 471.145
93 0 108.065 12.4277 1343 71.4907 507.351 470.78
94 0 110.099 12.3525 1360 72.7235 507.149 466.446
95 0 114.103 11.9804 1367 73.0249 507.467 467.898
96 1 59.0246 10.9107 644 70.1941 508.019 494.18
97 0 61.0302 11.3714 694 70.5288 507.385 494.487
98 0 64.0657 11.6131 744 72.5524 507.379 494.321
99 0 65.0732 11.464 746 73.1461 507.024 493.008
100 0 66.0616 11.1865 739 73.9716 506.881 493.25
101 0 68.1092 11.5256 785 73.2968 507.122 491.754
102 0 73.0701 11.7285 857 73.0245 507.077 490.431
103 0 74.079 12.4597 923 72.8949 507.632 489.133
104 0 76.0615 11.7931 897 74.5686 507.755 487.387
105 0 81.069 12.7792 1036 72.6718 507.995 487.404
106 0 82.0632 12.8925 1058 74.0718 507.216 485.534
107 0 83.0578 12.8344 1066 74.5619 507.549 485.642
108 0 86.0706 12.8499 1106 76.0642 507.173 484.836
109 0 90.1012 12.8633 1159 75.9172 507.395 483.106
110 0 92.1318 12.1131 1116 77.9713 506.955 480.367
111 0 95.1102 12.6064 1199 78.1159 506.866 478.48
112 0 97.0758 12.8353 1246 79.5297 507.27 478.258
113 0 101.1 12.8883 1303 79.5004 507.502 477.558
114 0 103.171 12.5714 1297 81.2375 507.008 476.193
115 0 106.099 12.2622 1301 82.8048 506.82 473.709
116 0 109.081 12.862 1403 82.0485 507.401 473.367
117 0 113.098 12.9887 1469 81.9891 506.549 471.864
118 0 116.094 12.7053 1475 82.0359 507.101 467.256
119 0 121.121 12.987 1573 81.5728 506.444 466.367
120 0 124.163 12.6527 1571 82.2202 506.774 464.679
121 0 125.131 12.8345 1606 82.7839 506.424 463.21
122 0 132.309 13.5592 1794 80.9359 506.609 462.255
123 0 137.159 13.94 1912 80.5298 506.93 459.592
124 0 141.131 12.7896 1805 83.3989 507.145 456.516
125 1 67.123 10.8458 728 80.8956 507.246 493.915
126 0 68.1648 11.1201 758 82.2889 507.396 493.286
127 0 69.171 11.3921 788 83.1091 506.764 492.11
128 0 72.0791 10.4746 755 84.4728 506.819 490.168
129 0 73.0726 11.5091 841 81.4126 507.187 490.029
130 0 77.0594 11.9907 924 79.7933 506.968 489.015
131 0 79.0603 12.0667 954 79.6803 507.112 487.834
132 0 79.1012 10.6193 840 75.1786 507.227 487.435
133 0 82.0721 11.4046 936 75.2201 507.07 484.787
134 0 86.0995 11.3473 977 76.1126 507.148 484.867
135 0 88.1284 11.8917 1048 78.0706 507.596 482.286
136 0 92.1103 11.3017 1041 83.1931 507.688 479.602
137 0 93.083 11.4736 1068 84.0169 507.474 477.84
138 0 99.117 12.5912 1248 80.1186 508.249 477.08
139 0 101.078 11.8621 1199 81.8849 507.136 475.5
140 0 106.112 12.3549 1311 80.1083 507.537 473.982
141 0 110.082 12.0001 1321 82.7562 506.999 474.347
142 0 112.089 11.9548 1340 84.6 506.919 471.614
143 0 117.175 12.8099 1501 83.2145 506.762 468.116
144 0 120.292 12.6276 1519 82.524 506.718 466.602
145 0 122.231 11.5519 1412 85.978 507.642 463.633
146 0 127.324 12.37 1575 85.2019 507.801 462.422
147 0 132.228 12.9095 1707 86.1623 506.609 458.681
148 0 135.192 13.0555 1765 86.5303 506.667 457.668
149 0 139.203 12.9379 1801 87.0833 506.558 455.84
150 0 144.367 13.7981 1992 90.2174 505.997 451.589
151 0 149.233 12.9931 1939 89.3744 506.092 448.895
152 0 153.178 13.2199 2025 89.0854 506.869 444.884
153 0 158.164 13.486 2133 90.0159 506.57 445.616
154 0 163.173 13.6175 2222 89.977 507.02 439.802
155 1 87.0549 10.1315 882 92.2064 506.41 479.889
156 0 90.1221 11.1071 1001 91.2268 506.331 476.335
157 0 93.0861 11.2154 1044 91.5326 505.698 474.234
158 0 97.1021 11.9874 1164 89.3875 506.438 473.61
159 0 99.0656 11.9719 1186 89.5641 506.944 471.839
160 0 104.1 12.1422 1264 88.0237 507.08 471.437
161 0 106.062 12.1627 1290 87.4853 506.833 468.572
162 0 109.089 11.8252 1290 88.4496 506.815 466.888
163 0 113.042 12.6502 1430 87.5462 506.678 464.311
164 0 117.108 12.5611 1471 88.8844 506.566 461.911
165 0 116.085 11.7069 1359 89.5938 506.395 457.344
166 0 120.073 12.126 1456 87.7424 506.283 455.221
167 0 126.098 12.0699 1522 87.3292 506.315 452.698
168 0 133.123 12.665 1686 84.4917 506.277 450.448
169 0 135.106 13.0491 1763 84.6041 506.457 448.652
170 0 139.115 12.867 1790 85.0196 506.59 446.352
171 0 143.096 12.8026 1832 85.1856 506.607 441.22
172 0 149.166 13.0526 1947 84.5485 506.361 435.687
173 0 153.137 12.9557 1984 84.6971 506.57 434.077
174 0 159.121 13.0153 2071 85.2912 505.709 431.293
175 0 162.155 12.6792 2056 86.3555 505.84 427.82
176 0 170.193 12.7973 2178 85.6942 505.17 426.11
177 0 174.131 13.2659 2310 84.5641 504.733 422.518
178 0 180.226 13.2057 2380 84.3345 504.937 417.554
179 0 184.205 13.1267 2418 84.5256 505.568 417.942
180 0 191.222 13.0633 2498 84.0865 505.253 413.979
181 0 198.317 14.0986 2796 80.4793 505.191 406.42
182 0 204.167 12.7004 2593 83.7331 505.059 407.415
183 1 52.0957 8.63796 450 66.6089 505.764 487.033
184 0 58.074 9.71174 564 74.3227 505.757 492.225
185 0 62.1219 10.3345 642 73.5109 506.908 493.201
186 0 64.1536 9.52401 611 76.0082 507.069 493.301
187 0 65.1651 9.62171 627 76.4514 507.056 492.376
188 0 69.19 10.1604 703 72.4253 507.267 491.624
189 0 69.1719 11.1028 768 72.8203 506.833 490.113
190 0 69.1729 10.1485 702 73.4601 506.828 489.574
191 0 72.2053 9.93002 717 72.9428 506.865 488.305
192 0 73.1908 10.2882 753 71.6401 505.899 488.093
193 0 75.1381 10.6737 802 71.621 506.167 488.141
194 0 78.1832 10.5777 827 71.3108 506.349 486.854
195 0 79.1379 10.8292 857 71.3991 505.882 486.741
196 0 79.0866 9.28097 734 65.7098 506.414 487.082
197 0 80.165 9.87963 792 65.2967 505.922 487.462
198 0 81.1302 9.86069 800 66.7438 505.78 482.196
199 0 86.0616 10.4112 896 65.6094 505.766 482.698
200 0 88.062 10.3109 908 66.3711 506.153 482.806
201 0 91.2253 10.1726 928 68.2726 505.708 478.601
202 0 92.1848 10.4572 964 87.1857 505.937 479.795
203 0 95.1569 10.8873 1036 87.1892 506.16 477.651
204 0 99.1824 10.5966 1051 87.5519 505.653 475.336
205 0 102.171 10.4531 1068 86.6236 505.867 475.948
206 0 106.156 10.8708 1154 85.4359 505.446 474.224
207 1 58.0522 9.69818 563 83.6199 505.897 499.202
208 0 60.1693 9.95525 599 84.3255 506.294 497.913
209 0 61.0715 10.2012 623 84.8652 506.949 496.689
210 0 61.1413 9.33902 571 85.7145 505.933 495.28
211 0 61.0972 9.55854 584 87.4983 506.81 495.795
212 0 65.1005 9.78487 637 86.4427 506.121 495.976
213 0 67.081 9.82395 659 83.0683 506.34 491.742
214 0 70.0914 10.1011 708 80.8517 506.275 492.938
215 0 69.0527 9.45654 653 81.9127 506.697 492.856
216 0 71.0925 9.52281 677 82.8493 506.792 490.86
217 0 75.0966 10.2135 767 80.6506 506.641 491.236
218 0 79.1482 10.5372 834 78.9113 506.258 489.034
219 0 82.0784 11.0139 904 77.1615 505.999 488.434
220 0 84.0924 11.0117 926 76.4006 505.926 486.481
221 0 86.0913 10.1985 878 78.4488 505.893 485.599
222 0 89.1128 10.6943 953 77.5278 506.241 482.897
223 0 91.0976 10.1759 927 76.9482 505.902 482.438
224 0 92.0887 9.65373 889 79.0529 505.874 478.278
225 0 95.0749 10.6653 1014 78.2248 505.63 479.128
226 0 99.0793 10.5572 1046 78.4665 505.693 476.207
227 0 101.097 10.5937 1071 78.4837 505.878 476.212
228 0 105.135 11.3093 1189 79.9647 505.521 473.561
229 0 108.042 11.3104 1222 81.7308 504.927 472.185
230 0 113.143 11.3484 1284 84.2516 505.574 470.673
231 0 118.067 11.6798 1379 86.2255 505.103 467.992
232 0 119.047 11.7768 1402 87.9758 505.656 467.367
233 0 123.121 11.9801 1475 87.8041 505.485 467.157
234 0 127.114 11.116 1413 90.4749 505.357 461.207
235 0 130.184 10.7309 1397 92.8719 505.434 459.25
236 0 135.168 11.9481 1615 91.0464 505.144 457.909
237 1 65.1297 10.1183 659 81.2428 506.657 496.877
238 0 67.0999 10.8346 727 82.5254 506.52 495.651
239 0 67.2068 10.4751 704 84.7827 506.5 495.784
240 0 70.141 10.6927 750 86.8867 506.292 492.879
241 0 74.1852 11.2421 834 96.7134 505.752 491.934
242 0 75.1439 11.1785 840 95.8071 505.239 489.824
243 0 77.1329 11.5904 894 94.321 505.112 488.524
244 0 80.1707 11.6002 930 93.9086 505.604 488.932
245 0 81.1606 11.5204 935 94.3091 505.638 489.025
246 0 83.1865 11.7928 981 94.2049 505.328 487.799
247 0 85.1498 12.0376 1025 93.3317 504.647 488.243
248 0 85.1034 11.7739 1002 93.492 505.477 486.397
249 0 89.1623 12.2585 1093 91.0366 505.301 485.688
250 0 88.0184 11.8725 1045 88.7694 505.59 485.382
251 0 91.1045 11.8435 1079 88.8675 505.138 483.771
252 0 95.0382 11.7111 1113 88.3738 505.8 482.704
253 0 97.0687 11.8679 1152 87.7769 505.585 480.649
254 0 98.063 11.3396 1112 89.3183 505.811 479.25
255 0 101.104 11.2657 1139 90.3003 505.259 476.35
256 0 102.051 11.9156 1216 89.0173 505.974 476.413
257 0 104.093 11.0382 1149 91.1532 506.075 473.354
258 0 108.108 11.4977 1243 90.5052 506.036 472.352
259 0 112.103 12.1852 1366 87.3909 505.945 472.352
260 0 117.102 12.0067 1406 86.7532 506.416 470.786
261 0 120.127 11.7459 1411 89.995 505.867 468.033
262 0 126.155 11.8743 1498 89.7083 505.652 466.203
263 1 72.0506 10.7008 771 87.4514 506.122 493.999
264 0 72.0424 10.6743 769 89.13 506.421 492.772
265 0 74.0375 11.1565 826 88.3136 506.126 490.855
266 0 78.0825 11.7056 914 86.5952 506.048 489.876
267 0 80.0405 11.7191 938 84.6652 505.167 488.177
268 0 81.0638 11.5341 935 85.6898 505.441 488.208
269 0 83.0643 11.5934 963 86.4943 505.724 484.578
270 0 87.086 11.2877 983 87.3072 505.833 485.626
271 0 89.0898 11.2022 998 88.1092 505.809 483.812
272 0 89.0874 11.1127 990 90.005 505.705 483.086
273 0 91.0994 11.2734 1027 90.1188 506.155 481.703
274 0 96.1002 11.9146 1145 87.7677 505.431 480.632
275 0 96.1053 10.8423 1042 92.1132 505.224 479.909
276 0 99.1319 11.2577 1116 90.4561 505.388 480.058
277 0 102.127 11.2702 1151 90.7116 505.475 476.502
278 0 105.164 11.5628 1216 90.7484 504.778 474.942
279 0 109.195 11.9511 1305 89.9356 505.746 473.059
280 0 111.206 11.69 1300 89.4185 505.458 472.748
281 1 61.0796 10.1343 619 93.1082 505.997 497.149
282 0 64.1552 10.9422 702 92.4558 505.674 495.671
283 0 67.0971 11.4312 767 90.6871 506.24 495.283
284 0 67.1063 12.2641 823 89.2102 506.07 493.307
285 0 71.1385 12.1734 866 93.1166 504.822 493.618
286 0 72.0515 11.3252 816 98.2255 504.884 490.619
287 0 76.1727 11.4477 872 97.3956 504.336 488.909
288 0 77.1027 11.569 892 98.8666 504.83 487.872
289 0 78.0403 11.3659 887 99.0271 503.767 486.23
290 0 82.0787 12.0616 990 98.8697 504.57 484.59
291 0 84.0488 12.7664 1073 95.3625 503.49 483.67
292 0 85.0749 12.1187 1031 98.4374 504.024 482.461
293 0 88.0669 12.3088 1084 97.7214 504.148 481.78
294 0 92.0739 12.4031 1142 98.2828 504.236 481.299
295 0 93.0948 12.729 1185 99.3384 503.846 479.509
296 0 96.1185 12.5262 1204 100.708 503.494 478.57
297 0 97.1049 12.7079 1234 99.7626 504.771 477.515
298 0 101.09 11.8607 1199 94.6722 503.852 477.565
299 0 103.131 12.2271 1261 94.7058 504.115 475.163
300 0 108.221 12.8441 1390 99.5173 503.773 472.676
301 0 111.141 12.0837 1343 95.3098 504.039 470.936
302 1 58.0255 10.4265 605 94.286 503.65 497.907
303 0 59.0266 10.9442 646 92.2895 504.037 498.443
304 0 60.0327 10.8108 649 89.7951 503.857 495.866
305 0 63.0606 11.3542 716 87.7849 504.027 494.962
306 0 64.0385 11.7117 750 83.836 505.172 494.565
307 0 66.0258 12.3588 816 94.0392 505.532 494.359
308 0 70.0357 12.408 869 92.3337 506.066 492.353
309 0 72.0639 12.0865 871 93.3869 505.486 492.897
310 0 73.0924 11.6291 850 94.9906 505.245 490.931
311 0 75.1266 12.8849 968 92.8419 504.69 491.876
312 0 76.0564 12.7011 966 92.6522 505.591 490.421
313 0 79.0468 12.6634 1001 93.015 506.058 489.972
314 0 82.0556 12.2478 1005 95.3582 504.939 488.234
315 0 82.0705 12.7573 1047 97.021 505.673 485.799
316 0 86.0499 13.0041 1119 95.4102 505.113 485.635
317 0 88.0544 12.7989 1127 97.11 505.397 484.507
318 0 92.0589 13.5783 1250 94.2656 504.968 483.866
319 0 94.0842 13.4454 1265 96.7154 504.83 483.742
320 0 95.0946 13.1343 1249 98.1689 504.541 480.015
321 0 98.0989 13.0175 1277 97.2224 504.515 480.592
322 0 100.17 12.8482 1287 98.4468 504.911 479.118
323 0 104.136 12.9734 1351 97.8756 504.215 476.815
324 0 109.145 13.0744 1427 96.8395 504.303 475.054
325 0 111.111 13.401 1489 94.1323 504.232 474.332
326 1 57.0959 9.84309 562 96.0765 504.448 496.306
327 0 59.0843 9.61339 568 92.4613 503.296 494.289
328 0 61.0477 10.6474 650 91.1138 503.645 493.228
329 0 63.1023 11.3625 717 96.8954 503.654 495.565
330 0 66.1027 11.4519 757 95.9353 503.609 494.005
331 0 69.115 10.9094 754 98.4602 503.187 494.24
332 0 72.1346 11.9637 863 94.139 503.314 492.181
333 0 73.17 11.4391 837 96.2234 503.197 490.415
334 0 76.1378 11.7287 893 95.262 503.414 490.454
335 0 79.1208 11.7542 930 96.4484 503.07 489.502
336 0 82.1302 11.7009 961 95.9251 502.197 486.426
337 0 85.0866 12.4344 1058 93.8904 502.508 487.114
338 0 89.0825 12.494 1113 91.7143 502.267 485.494
339 0 91.0796 12.1981 1111 92.9964 502.043 484.365
340 0 93.0849 12.3865 1153 92.7572 502.127 483.625
341 0 95.0685 12.2754 1167 92.8192 502.538 481.164
342 0 101.082 12.7026 1284 89.2243 502.079 479.551
343 0 102.118 12.28 1254 90.1818 502.124 478.525
344 1 55.0896 10.0382 553 91.141 502.215 503.307
345 0 54.0772 10.6514 576 88.1233 501.828 503.002
346 0 57.0252 11.188 638 82.0125 501.218 501.802
347 0 58.0696 11.4001 662 83.9456 501.264 501.841
348 0 57.102 11.1029 634 80.9495 500.541 503.317
349 0 57.0354 10.7302 612 82.7353 500.905 504.152
350 0 57.0275 10.9772 626 83.0895 501.184 502.687
351 0 58.0352 10.9761 637 83.4662 501.195 502.072
352 0 59.119 10.8764 643 84.7558 501.821 500.686
353 0 61.0762 10.6424 650 84.0108 501.648 499.902
354 0 65.0525 10.6529 693 83.443 501.579 499.983
355 0 66.0351 10.555 697 84.5481 501.298 498.435
356 0 68.0765 10.9583 746 85.063 501.091 497.294
357 0 70.0751 11.4591 803 84.1644 502.758 496.619
358 0 73.0609 11.7299 857 84.2894 502.336 494.391
359 0 77.036 11.8516 913 83.6353 502.379 494.411
360 0 80.0545 11.9669 958 83.9718 502.077 492.57
361 0 81.0368 11.7231 950 86.2705 502.004 491.507
362 0 84.0443 11.7795 990 84.7434 501.775 491.337
363 0 88.0809 12.1025 1066 84.5957 501.936 487.382
364 0 90.0479 11.6827 1052 85.6369 502.123 488.403
365 0 95.0651 12.5493 1193 84.0428 502.184 485.009
366 0 95.0631 11.9184 1133 87.3045 502.432 483.443
367 0 98.056 11.9524 1172 87.6169 502.873 483.795
368 0 101.056 12.7653 1290 87.2473 502.607 479.288
369 0 105.046 12.623 1326 88.2225 502.675 479.677
370 0 108.075 12.3433 1334 87.422 501.968 476.608
371 0 111.045 12.4184 1379 88.0653 501.742 474.723
372 0 115.045 13.0036 1496 88.3088 501.545 472.42
373 1 60.0542 10.6404 639 90.9327 503.019 501.653
374 0 63.069 11.3685 717 88.6834 502.628 499.082
375 0 65.1267 11.992 781 88.5839 502.812 497.366
376 0 66.0582 11.3234 748 79.4586 502.433 493.636
377 0 67.0379 10.8297 726 80.8375 502.992 493.196
378 0 69.0547 11.3244 782 77.9463 503.142 493.297
379 0 70.0712 11.1601 782 83.9783 503.115 491.519
380 0 73.0331 11.2415 821 83.6224 502.959 488.598
381 0 76.1591 11.0427 841 83.8109 502.897 489.951
382 0 76.0672 11.2927 859 83.4726 502.788 486.302
383 0 80.0391 11.7817 943 82.3319 503.55 486.739
384 0 81.07 11.9526 969 87.4551 503.26 487.364
385 0 86.1198 12.68 1092 84.8636 503.841 484.706
386 0 88.1216 12.687 1118 85.7719 503.591 484.811
387 0 89.1674 12.4373 1109 87.6916 504.248 482.468
388 0 89.1658 12.516 1116 155.463 505.243 482.476
389 0 97.1897 13.5817 1320 87.1432 503.796 479.105
390 0 98.2122 13.6643 1342 86.7712 504.178 478.877
391 0 100.128 13.1431 1316 88.0957 503.409 477.511
392 0 103.167 13.26 1368 88.4613 504.341 475.77
393 0 106.217 13.6231 1447 88.2115 503.285 474.395
394 0 109.162 13.3838 1461 88.835 503.668 473.526
395 0 113.177 12.8383 1453 90.5795 503.799 471.235
396 1 61.1228 10.5689 646 85.6997 504.82 499.099
397 0 63.071 11.1303 702 87.8476 504.833 497.731
398 0 64.0663 11.254 721 82.0333 504.981 495.963
399 0 67.0803 12.403 832 84.9243 504.169 496.432
400 0 66.0438 12.3554 816 91.2647 504.328 494.249
401 0 71.1106 12.8813 916 89.4596 504.212 492.225
402 0 71.0864 12.6466 899 92.1835 504.97 492.009
403 0 74.0668 12.4617 923 92.9469 504.194 490.609
404 0 75.0764 12.8935 968 94.1808 504.357 488.622
405 0 77.0671 12.9887 1001 94.3556 503.957 488.134
406 0 79.079 12.8858 1019 95.7017 504.206 487.826
407 0 82.0753 12.2936 1009 97.219 504.126 486.465
408 0 84.0505 12.3854 1041 97.8204 503.994 486.486
409 0 88.0719 13.3641 1177 94.7893 504.222 485.854
410 0 91.0668 13.1442 1197 94.9791 504.15 483.084
411 0 94.118 13.0474 1228 93.6906 504.55 481.531
412 0 95.0742 13.0214 1238 95.328 503.565 481.045
413 0 97.1071 12.5428 1218 96.3317 503.333 479.337
414 0 100.105 13.1262 1314 95.6119 503.578 477.728
415 1 56.1642 11.2527 632 90.7579 504.316 500.435
416 0 56.0702 11.3786 638 91.2994 503.795 500.514
417 0 60.0447 11.2083 673 91.7132 504.651 499.377
418 0 58.0806 9.88282 574 82.4338 504.054 501.352
419 0 58.0552 10.4728 608 82.2944 504.413 500.765
420 0 62.0325 10.3655 643 81.9533 504.393 498.58
421 0 62.0919 10.7744 669 82.0658 504.244 497.969
422 0 65.0216 10.3197 671 81.8525 503.307 497.295
423 0 67.0865 10.7175 719 82.0988 503.478 496.081
424 0 69.0751 10.7709 744 82.254 503.996 495.82
425 0 71.0598 11.047 785 82.6713 504.061 495.222
426 0 72.1024 10.1384 731 84.2763 503.882 493.673
427 0 75.0189 11.7304 880 82.4455 503.191 490.403
428 0 77.0754 10.9503 844 84.3768 503.655 490.914
429 0 80.0327 11.3953 912 84.5998 502.759 489.249
430 0 81.043 10.7721 873 87.1936 502.939 487.243
431 0 83.0669 11.4847 954 85.8008 503.51 486.283
432 0 86.0719 11.8157 1017 86.7984 502.884 484.354
433 0 89.0565 12.1833 1085 86.4682 502.874 484.409
434 0 90.1246 11.7393 1058 87.4301 502.846 483.838
435 0 93.0642 11.3255 1054 89.8425 503.163 481.977
436 0 95.0388 12.0793 1148 88.1132 503.662 481.402
437 0 99.0772 11.6677 1156 92.391 503.813 479.062
438 0 103.044 12.7324 1312 88.9108 503.331 476.09
439 0 107.1 12.1662 1303 92.5288 502.763 474.114
440 1 62.0541 10.4747 650 89.02 502.835 499.383
441 0 64.0605 10.8335 694 87.1844 502.879 498.574
442 0 65.0482 11.9604 778 87.4807 503.288 496.956
443 0 68.0649 11.9886 816 88.9779 502.909 495.893
444 0 67.0346 10.9496 734 82.1648 503.548 495.632
445 0 69.0636 10.932 755 83.147 503.676 493.763
446 0 70.0404 10.7509 753 84.3599 503.708 493.312
447 0 73.0293 11.3927 832 85.512 503.044 490.432
448 0 76.0577 11.3204 861 85.3287 503.36 491.254
449 0 78.0554 11.7224 915 84.8022 503.278 489.345
450 0 79.0274 12.135 959 93.1053 503.14 487.885
451 0 82.0771 11.1481 915 88.2011 503.18 487.095
452 0 86.0278 11.4963 989 88.5763 503.105 485.901
453 0 88.0601 11.2991 995 89.3829 503.642 485.238
454 0 91.1049 12.0191 1095 88.8676 503.342 482.965
455 0 95.0617 11.4242 1086 90.1639 503.901 481.665
456 0 97.1061 11.8221 1148 95.446 502.928 480.013
457 1 51.0692 9.77105 499 89.0601 504.319 504.409
458 0 52.0592 10.6609 555 85.0486 503.87 502.796
459 0 53.0838 10.5493 560 86.8143 504.014 501.993
460 0 54.0537 11.0816 599 84.4674 503.84 500.09
461 0 54.0549 9.87884 534 87.573 504.294 501.086
462 0 54.1175 10.237 554 86.8357 504.191 501.561
463 0 58.0578 9.78335 568 87.1426 504.593 499.928
464 0 59.0432 10.0604 594 86.7121 504.168 498.369
465 0 59.0432 9.99268 590 124.322 504.18 498.483
466 0 61.0541 10.3679 633 85.5308 504.264 498.826
467 0 63.0293 9.97948 629 85.2114 503.987 498.941
468 0 66.0786 10.6086 701 84.3766 504.056 496.327
469 0 66.0249 10.6021 700 85.0429 503.991 495.024
470 0 70.0681 10.975 769 82.1652 503.69 494.992
471 0 71.0652 10.7507 764 81.5903 503.224 494.305
472 0 73.0369 11.0355 806 81.3437 503.71 493.241
473 0 75.0384 11.0877 832 82.7897 502.938 490.612
474 0 78.1093 10.9718 857 82.1645 503.158 489.855
475 0 78.0757 11.2199 876 84.0445 503.489 488.842
476 0 82.0547 11.6751 958 83.1649 503.116 487.685
477 0 85.0565 11.8157 1005 83.9821 503.075 485.373
478 0 89.1201 12.2643 1093 82.9533 502.813 484.519
479 0 89.0673 11.4296 1018 84.5914 502.998 484.32
480 0 95.0624 12.6443 1202 83.0424 502.885 481.288
481 0 95.0906 11.7467 1117 84.5192 503.274 480.658
482 0 97.0809 11.4956 1116 86.4937 503.07 478.437
483 0 101.094 11.3656 1149 85.5178 502.734 478.68
484 0 104.091 11.2594 1172 86.3814 503.018 476.786
485 0 106.068 10.5404 1118 87.2943 502.275 475.065
486 0 111.106 11.6556 1295 84.4904 502.304 473.849
487 0 114.074 11.1857 1276 84.1991 501.822 472.016
488 0 117.095 11.1705 1308 85.5956 501.54 467.78
489 0 121.116 11.46 1388 85.7183 501.643 468.158
490 0 123.149 11.0436 1360 88.1302 501.472 464.962
491 0 127.116 11.8081 1501 91.7175 502.107 464.564
492 0 128.165 11.8441 1518 94.6331 502.075 463.295
493 0 134.098 12.1404 1628 93.9011 501.845 460.752
494 0 136.162 11.8315 1611 94.0826 502.609 454.358
495 0 140.325 11.8083 1657 93.7302 502.4 452.46
496 0 144.154 11.8276 1705 94.6651 502.227 449.214
497 0 148.118 12.2133 1809 93.8408 501.87 446.738
498 0 154.172 12.4407 1918 93.6674 502.077 444.445
499 0 158.182 12.3908 1960 95.9985 502.137 440.518
500 0 164.265 12.5163 2056 95.4115 501.996 439.403
501 0 169.179 12.0051 2031 96.4673 502.324 436.864
502 0 174.178 12.0222 2094 96.0487 502.321 435.285
503 0 179.312 11.533 2068 98.2031 502.585 432.482
504 0 186.258 12.1015 2254 95.9468 502.691 428.512
505 0 193.169 12.6987 2453 97.6743 502.387 422.146
506 0 199.286 12.5649 2504 100.231 501.994 418.181
507 0 205.29 12.7478 2617 97.603 501.38 415.96
508 0 215.337 12.2831 2645 96.603 501.307 414.627
509 1 158.252 11.5133 1822 97.281 501.246 444.03
510 0 164.258 12.2125 2006 97.5818 501.033 437.552
511 0 168.199 12.2712 2064 97.485 501.256 435.601
512 0 173.262 12.0973 2096 97.2739 501.471 436.903
513 0 180.207 12.1527 2190 97.8352 501.674 432.666
514 0 184.261 11.8256 2179 98.771 501.708 429.73
515 0 191.275 12.2232 2338 97.7318 500.807 427.694
516 0 199.158 12.5227 2494 96.9403 500.909 422.958
517 0 205.251 12.6284 2592 96.934 500.708 425.563
518 0 214.255 12.3638 2649 98.145 501.143 419.994
519 0 223.233 12.9282 2886 96.7488 500.731 417.719
520 0 230.214 12.8141 2950 97.7278 500.697 409.746
521 0 237.259 12.7877 3034 97.8916 501.23 407.09
522 0 244.304 12.6809 3098 99.807 501.114 402.304
523 0 251.246 12.3027 3091 102.649 501.06 398.733
524 1 55.0803 9.84017 542 77.2749 500.552 502.891
525 0 57.1032 10.5073 600 77.3983 500.673 500.373
526 0 58.0482 11.4215 663 84.0377 500.333 502.459
527 0 60.0976 11.265 677 83.322 501.334 501.248
528 0 61.0406 10.8289 661 84.171 501.345 501.57
529 0 64.0247 11.0895 710 82.6732 501.438 502.276
530 0 65.0783 11.5553 752 83.3949 502.254 500.628
531 0 68.1179 11.2746 768 83.7826 501.923 499.471
532 0 72.0571 11.3521 818 94.8056 500.11 496.885
533 0 75.1204 11.5148 865 94.437 499.437 496.936
534 0 75.1136 11.5425 867 95.0438 499.963 494.386
535 0 78.184 11.9973 938 93.8593 500.872 493.679
536 0 80.1678 11.8003 946 95.7326 501.907 491.801
537 0 81.1649 11.9387 969 96.4303 502.244 491.859
538 0 85.1552 11.7902 1004 97.2122 501.677 490.196
539 0 89.1629 11.8435 1056 98.0597 501.227 487.945
540 0 91.1567 12.0891 1102 99.0699 500.838 487.645
541 0 94.1984 12.3781 1166 98.054 500.496 485.749
542 1 47.0554 9.77572 460 96.1544 500.102 507.813
543 0 50.0563 10.5481 528 93.6155 500.545 508.068
544 0 50.0444 10.5506 528 93.6591 500.911 508.78
545 0 53.1 10.5085 558 90.0771 501.676 507.586
546 0 52.0864 9.71463 506 91.6245 501.717 507.472
547 0 53.0512 10.4239 553 88.8481 501.485 505.758
548 0 54.0766 10.7625 582 89.122 501.423 505.034
549 0 56.0853 9.82433 551 89.1289 501.848 505.466
550 0 57.0573 9.91985 566 89.371 502.057 504.018
551 0 62.0756 11.4054 708 85.267 501.373 503.862
552 0 63.0754 11.2564 710 84.6549 501.938 503.918
553 0 66.0411 11.0537 730 83.8425 501.926 501.429
554 0 67.0432 10.7244 719 84.7942 502.178 502.702
555 0 68.0509 10.6685 726 85.5647 502.03 502.179
556 0 72.0606 11.532 831 82.3381 501.86 499.644
557 0 74.0851 11.4868 851 82.4207 501.91 498.284
558 0 74.0522 11.2353 832 82.8125 502.109 498
559 0 79.1208 11.691 925 82.2011 502.288 495.63
560 0 83.0743 11.6643 969 82.0031 502.157 494.105
561 0 85.043 11.5118 979 83.6721 502.749 491.661
562 0 86.0728 11.4438 985 84.5594 502.194 490.496
563 0 89.034 11.1193 990 84.3828 501.299 488.98
564 1 46.0159 9.86615 454 85.2555 502.26 510.143
565 0 48.0347 10.1801 489 83.82 501.716 509.916
566 0 49.0467 10.7856 529 80.4121 502.268 508.423
567 0 51.0866 10.6682 545 81.6991 501.525 506.031
568 0 52.0515 10.7394 559 86.2504 502.098 507.508
569 0 56.1166 11.7256 658 81.9179 502.049 506.675
570 0 55.1401 11.6431 642 82.123 501.935 506.182
571 0 58.033 11.6141 674 81.5519 501.988 505.685
572 0 60.0904 11.5992 697 79.1406 501.152 504.512
573 0 61.061 11.5294 704 79.3054 501.581 503.395
574 0 61.0395 11.3205 691 79.0116 501.146 503.269
575 0 64.0895 11.9989 769 76.8674 501.661 501.575
576 0 64.0817 11.4073 731 77.762 500.643 499.332
577 0 68.1446 11.7984 804 75.449 500.512 498.862
578 0 69.1223 11.7907 815 76.8798 500.432 498.874
579 0 72.1474 11.7398 847 76.9457 500.28 497.294
580 0 72.1413 11.5468 833 77.982 500.376 494.491
581 0 76.1245 11.5469 879 77.9192 500.435 494.059
582 0 79.1711 11.9614 947 76.8712 500.288 492.329
583 0 79.1483 11.8385 937 78.3468 499.95 490.67
584 0 83.2079 12.7151 1058 76.9008 499.94 488.725
585 0 86.099 12.8108 1103 76.7117 500.403 488.64
586 0 88.1214 12.2104 1076 79.7835 500.39 488.483
587 0 88.2014 11.1903 987 81.3283 500.449 484.361
588 0 91.0993 11.3502 1034 80.6402 500.459 484.541
589 0 97.1917 11.6265 1130 79.4743 500.267 483.258
590 0 99.1944 12.7527 1265 79.2917 499.844 481.249
591 0 104.107 12.6504 1317 77.9438 500.374 480.428
592 0 106.153 12.0393 1278 79.9382 500.315 478.296
593 1 56.0894 9.87708 554 71.4296 500.951 507.04
594 0 56.0929 10.8926 611 69.0998 499.964 505.959
595 0 59.0582 10.5997 626 69.6821 500.145 504.046
596 0 61.0254 10.7496 656 69.9131 500.454 502.575
597 0 58.0312 10.6494 618 71.5032 501.018 502.497
598 0 64.0884 10.2983 660 71.0379 500.224 500.785
599 0 64.0814 10.8456 695 71.0273 500.135 500.607
600 0 68.0729 10.2684 699 71.432 499.844 496.805
601 0 71.0568 10.4564 743 71.5222 499.503 496.603
602 0 73.0815 11.4119 834 70.4868 499.68 496.236
603 0 75.1301 10.7281 806 80.5955 500.057 493.731
604 0 79.0507 10.7779 852 81.5763 499.279 492.254
605 0 83.1638 11.7599 978 79.5542 498.955 493.026
606 0 87.0764 11.8402 1031 78.7449 499.291 492.103
607 0 89.1339 11.8922 1060 79.6821 499.073 490.852
608 0 91.1877 11.1418 1016 80.6791 499.325 488.56
609 0 97.2009 11.8312 1150 78.04 500.312 487.003
610 0 97.1539 11.5384 1121 77.3738 500.128 485.525
611 0 101.1 10.5736 1069 77.7306 500.317 483.64
612 1 54.0245 10.4212 563 73.1634 500.062 507.678
613 0 54.0241 10.1251 547 71.159 499.996 508.018
614 0 56.0451 10.5808 593 72.7639 499.919 507.13
615 0 60.118 10.3796 624 72.5577 500.21 505.966
616 0 61.0995 11.2931 690 72.2594 499.684 503.451
617 0 61.0492 10.5161 642 71.366 499.631 502.748
618 0 64.0772 11.611 744 70.1478 499.091 501.648
619 0 65.0335 10.7175 697 71.868 499.296 501.208
620 0 68.03 10.9363 744 72.0901 499.796 499.425
621 0 69.0491 11.2674 778 72.8907 500.18 497.823
622 0 74.1125 11.7929 874 82.5881 500.391 495.368
623 0 77.108 11.6201 896 83.9643 500.914 494.7
624 0 79.1519 11.7622 931 84.5005 500.304 493.617
625 0 80.1549 11.8146 947 86.434 500.181 490.356
626 0 85.1469 12.0615 1027 85.4226 499.583 490.65
627 0 89.1791 11.5386 1029 87.2818 499.638 490.358
628 0 90.2008 11.94 1077 88.7911 499.96 489.37
629 0 93.2047 11.802 1100 89.3373 499.787 486.265
630 0 95.196 11.6076 1105 88.4887 500.267 485.238
631 1 49.0291 10.9119 535 86.0224 499.75 509.286
632 0 52.0142 10.8624 565 84.2301 500.365 507.66
633 0 54.079 11.8161 639 82.4695 500.707 505.318
634 0 55.0376 10.7926 594 79.9697 500.38 506.103
635 0 53.0095 10.451 554 83.3773 500.91 507.047
636 0 54.0204 10.1073 546 85.2949 501.152 505.788
637 0 55.0196 10.0691 554 85.1011 500.173 506.625
638 0 57.0234 9.68024 552 87.5652 501.56 504.281
639 0 59.0155 10.6413 628 84.7038 501.662 504.782
640 0 59.0524 9.97419 589 86.0153 500.878 504.389
641 0 62.0496 10.83 672 84.6131 500.58 504.621
642 0 63.0435 10.58 667 88.3133 500.882 502.607
643 0 66.0381 10.6605 704 87.2514 501.601 500.909
644 0 69.052 11.0786 765 86.1961 501.469 499.864
645 0 69.0384 10.3566 715 88.5357 501.312 500.71
646 0 73.0433 11.0209 805 87.8373 501.133 498.051
647 0 75.0607 11.3908 855 88.2994 501.149 496.468
648 0 77.0426 11.3574 875 88.1817 501.398 496.217
649 0 80.0622 11.5285 923 88.1343 501.399 492.766
650 0 82.0346 10.6175 871 89.3467 500.896 491.456
651 0 85.0784 11.6246 989 88.4459 501.569 491.209
652 0 85.0379 11.2068 953 89.8762 500.972 489.884
653 0 90.0366 11.2954 1017 90.7247 501.942 488.404
654 0 94.0628 11.8538 1115 89.8188 502.091 485.926
655 0 96.0533 12.3473 1186 87.5523 502.105 485.292
656 0 100.085 12.2196 1223 87.0998 502.122 483.566
657 0 103.046 11.5677 1192 89.8414 501.648 481.074
658 0 104.053 11.4749 1194 90.3333 502.053 481.977
659 0 108.066 12.1685 1315 88.803 501.729 478.347
660 0 108.133 11.7171 1267 91.8627 502.401 476.208
661 0 115.182 12.4932 1439 89.3211 502.24 474.075
662 0 116.11 12.1092 1406 92.9836 502.163 470.437
663 0 120.118 12.3379 1482 95.3644 501.792 468.754
664 0 124.181 12.1839 1513 97.4071 502.087 465.353
665 0 127.238 13.18 1677 97.3804 501.696 462.634
666 0 131.098 12.5402 1644 98.9605 502.205 458.751
667 0 136.158 12.7573 1737 97.4606 502.724 457.198
668 0 142.242 12.6896 1805 99.6205 501.704 455.014
669 1 73.1295 11.6779 854 98.2939 501.162 490.316
670 0 73.097 11.5326 843 99.6797 502.125 490.11
671 0 75.0728 12.1882 915 96.9967 502.318 487.149
672 0 78.0877 12.2811 959 95.4901 501.882 488.483
673 0 80.0461 13.1299 1051 91.9876 502.363 488.07
674 0 82.0814 12.646 1038 93.8478 502.121 485.719
675 0 84.0719 12.7748 1074 92.7356 502.087 483.221
676 0 87.0751 13.0347 1135 90.8881 502.222 482.745
677 0 90.0725 13.0784 1178 89.865 501.843 480.082
678 0 92.0993 12.758 1175 90.8911 501.082 477.453
679 0 91.0637 12.354 1125 94.1084 501.83 476.518
680 0 95.0524 13.0139 1237 91.2854 501.464 475.618
681 0 99.1372 13.3653 1325 90.046 501.647 474.273
682 0 101.096 12.6316 1277 93.4792 501.004 471.959
683 0 103.132 13.2451 1366 93.6413 501.351 468.198
684 0 106.097 12.696 1347 95.1767 501.991 467.515
685 0 110.053 13.23 1456 93.8729 502.552 465.921
686 0 113.161 13.1582 1489 94.8146 502.606 465.43
687 0 116.168 12.8779 1496 97.5314 502.961 461.406
688 0 122.181 13.0626 1596 94.8452 501.579 460.199
689 0 123.141 13.0095 1602 97.0899 502.653 456.335
690 0 129.154 13.1007 1692 96.0366 502.278 455.543
691 0 134.138 13.3966 1797 96.0317 502.769 453.27
692 0 141.246 13.48 1904 95.4874 501.947 451.127
693 1 73.1388 11.1842 818 95.4535 502.482 484.867
694 0 77.107 12.5799 970 91.932 502.297 484.31
695 0 83.1209 12.9209 1074 94.324 502.059 487.702
696 0 82.0787 12.6464 1038 97.0482 502.373 486.856
697 0 87.0714 12.9434 1127 95.354 502.176 485.191
698 0 87.0709 12.7712 1112 93.1556 501.614 485.75
699 0 92.0579 13.372 1231 92.2762 501.478 484.434
700 0 94.0616 13.8207 1300 91.5585 501.945 483.453
701 0 95.1316 13.5181 1286 91.9549 501.827 482.043
702 0 98.1821 12.9963 1276 93.2657 502.094 478.907
703 0 102.091 13.2235 1350 93.6215 502.044 476.899
704 0 104.13 12.3692 1288 95.948 501.627 475.998
705 0 106.066 12.4639 1322 95.7958 501.408 478.186
706 0 111.122 12.9587 1440 94.9639 500.533 475.606
707 1 58.0937 10.8618 631 95.2615 501.842 501.65
708 0 60.0334 10.9273 656 95.1723 501.537 500.41
709 0 61.0497 11.5807 707 94.2404 501.516 498.262
710 0 65.0813 12.2462 797 93.3676 501.449 499.146
711 0 67.0431 12.3204 826 92.0617 501.306 499.207
712 0 69.0892 12.52 865 91.3133 501.086 496.237
713 0 71.0428 13.1611 935 89.7337 501.549 496.568
714 0 74.088 12.6201 935 91.7273 501.781 495.15
715 0 76.1267 13.1491 1001 90.5225 501.227 493.96
716 0 77.135 12.5105 965 92.8207 501.896 492.716
717 0 80.1161 13.0685 1047 91.1442 500.918 493.193
718 0 82.1543 12.8782 1058 92.4802 501.641 490.636
719 0 84.1316 12.944 1089 93.5317 501.251 488.939
720 0 85.2103 13.2613 1130 92.608 501.208 488.856
721 0 88.1603 12.7155 1121 94.0455 500.667 486.354
722 0 90.2501 12.8975 1164 94.5146 501.446 485.032
723 0 92.2508 13.008 1200 95.42 500.67 484.82
724 0 96.2389 12.6768 1220 98.1057 500.937 483.407
725 0 99.2733 12.2792 1219 99.233 501.645 481.044
726 1 54.1122 10.238 554 97.796 501.282 505.634
727 0 55.1394 10.8815 600 96.9517 500.882 504.405
728 0 55.0725 10.5134 579 99.2694 500.841 503.694
729 0 57.0768 12.0189 686 93.5131 501.372 501.516
730 0 61.1099 11.6675 713 93.1529 501.042 503.268
731 0 60.1707 11.9493 719 93.9611 501.131 502.976
732 0 64.1659 12.4365 798 91.0777 501.207 502.093
733 0 66.1478 12.5325 829 90.4885 500.906 501.63
734 0 67.0997 11.8928 798 92.292 501.025 499.216
735 0 67.1003 11.7585 789 93.5919 500.361 497.561
736 0 69.069 12.0749 834 93.1595 500.71 494.043
737 0 69.0801 12.044 832 94.4531 501.207 491.97
738 0 70.0959 11.6412 816 96.5748 501.346 490.373
739 0 75.0674 12.1757 914 94.9781 500.72 488.951
740 0 77.1443 12.2887 948 95.5686 501.132 488.583
741 0 76.1169 11.929 908 99.2082 500.857 485.642
742 0 78.1515 11.8744 928 100.677 501.304 482.374
743 0 79.0981 11.2392 889 103.417 500.858 482.868
744 0 83.1414 11.5346 959 104.199 500.846 480.196
745 0 84.0821 10.7395 903 106.368 499.584 479.025
746 0 86.2437 11.5139 993 105.467 500.124 476.564
747 0 89.125 11.3885 1015 105.959 500.322 475.303
748 1 47.1494 9.98952 471 108.93 501.089 495.777
749 0 49.1073 10.8742 534 106.052 500.558 495.882
750 0 53.0461 10.8585 576 105.198 501.186 490.564
751 0 54.0455 11.6753 631 102.883 500.72 499.268
752 0 57.0312 11.8181 674 102.626 501.162 498.142
753 0 59.048 11.9902 708 101.778 501.103 498.071
754 0 59.0384 11.9414 705 133.357 501.104 497.901
755 0 65.0711 11.8178 769 102.235 500.667 495.949
756 0 66.0773 11.8649 784 102.702 500.797 494.152
757 0 68.0931 12.7619 869 100.494 501.76 493.145
758 0 71.0735 11.7343 834 102.366 501.477 492.351
759 0 72.1025 12.2465 883 101.157 501.831 491.689
760 0 75.0617 12.4964 938 100.67 501.933 490.126
761 0 75.1601 12.5865 946 100.449 501.525 488.426
762 0 77.1273 11.9672 923 102.64 502.246 485.209
763 0 79.1925 11.8698 940 104.931 501.805 483.985
764 0 85.1103 12.1724 1036 102.945 501.891 482.65
765 0 88.1744 12.033 1061 105.529 501.551 483.337
766 1 46.0563 10.2266 471 99.656 501.805 504.885
767 0 48.0653 10.2777 494 100.289 501.913 504.818
768 0 51.0106 12.2524 625 105.405 502.077 509.08
769 0 48.0445 10.9898 528 102.481 501.845 509.665
770 0 51.0284 11.8561 605 100.621 501.464 507.777
771 0 53.0071 11.0363 585 102.405 502.407 507.267
772 0 56.0529 11.3821 638 101.495 502.802 506.246
773 0 56.0183 11.3356 635 100.672 502.074 504.315
774 0 58.0246 11.8226 686 98.8076 502.344 504.168
775 0 60.0332 11.427 686 98.4548 502.316 503.694
776 0 63.0311 12.5494 791 95.5449 502.527 501.023
777 0 64.0218 12.4333 796 96.01 502.415 500.132
778 0 64.0291 11.198 717 102.181 502.266 499.862
779 0 67.0283 12.159 815 98.4147 501.718 499.171
780 0 71.0594 11.8633 843 98.7106 501.613 497.817
781 0 72.0146 11.8171 851 98.1199 502.049 496.736
782 0 75.0451 12.2593 920 96.2761 502.522 495.078
783 0 78.1053 12.3295 963 95.2856 501.845 492.92
784 0 78.0312 11.3288 884 97.9038 501.709 493.249
785 0 82.0588 12.1498 997 95.8375 501.477 490.205
786 1 42.0164 10.0437 422 99.0924 502.637 509.597
787 0 45.0159 10.6851 481 97.2432 503.152 509.657
788 0 46.1306 11.0772 511 93.4129 501.787 508.037
789 0 47.0432 10.8623 511 93.2016 503.237 507.464
790 0 49.0239 11.7494 576 91.6667 503.62 506.108
791 0 47.028 11.2486 529 92.3856 504.004 507.087
792 0 50.0179 11.7158 586 95.5478 502.706 505.212
793 0 52.0553 11.1996 583 91.7753 503.208 504.045
794 0 53.0257 11.1644 592 93.5287 503.071 503.939
795 0 55.0544 11.9155 656 91.6067 503.215 502.02
796 0 56.0408 11.7058 656 93.564 502.643 501.297
797 0 54.0471 11.6565 630 96.3524 503.194 502.113
798 0 58.022 11.4784 666 95.4189 503.267 501.797
799 0 62.0693 12.5988 782 92.8389 503.101 500.847
800 0 64.0345 12.8212 821 92.1876 503.348 501.216
801 0 64.0167 12.7623 817 94.2521 503.438 500.359
802 0 66.0961 12.4213 821 95.2972 503.516 500.404
803 0 68.0595 11.5781 788 96.6459 502.763 499.477
804 0 70.0626 12.2034 855 95.9392 502.84 498.988
805 0 73.0851 12.4376 909 95.0748 502.072 499.25
806 0 73.0475 13.06 954 94.7411 502.152 496.531
807 0 77.1302 12.1094 934 96.5824 502.065 496.905
808 0 78.1423 12.0037 938 96.4765 501.851 494.794
809 0 80.0708 11.7771 943 98.1347 502.072 493.303
810 0 84.0509 12.2426 1029 95.0875 502.065 492.577
811 0 86.0762 11.5131 991 98.8507 502.085 491.861
812 1 49.0976 10.7745 529 101.401 502.367 510.529
813 0 50.1068 11.2759 565 99.9965 502.434 509.43
814 0 49.1496 10.4782 515 96.1204 502.885 504.969
815 0 54.1172 12.0664 653 98.5467 502.646 508.802
816 0 51.032 11.581 591 96.8308 501.563 509.616
817 0 52.0233 11.1104 578 99.0173 501.965 509.604
818 0 54.0317 11.6228 628 96.9299 501.514 508.592
819 0 56.0358 12.0994 678 95.205 501.329 508.956
820 0 58.0349 11.7688 683 94.5608 501.195 506.428
821 0 58.0827 11.9829 696 94.0345 501.716 506.22
822 0 61.029 12.0598 736 91.5245 501.103 505.481
823 0 62.0096 11.7724 730 91.7849 501.816 502.753
824 0 63.0235 11.2974 712 91.9888 501.576 501.412
825 0 67.0847 11.8954 798 89.8133 501.43 501.182
826 0 69.027 11.271 778 90.7995 501.323 500.239
827 0 71.0369 11.8952 845 89.3041 500.547 498.196
828 0 72.0777 11.557 833 89.3169 500.861 497.754
829 0 75.0917 11.7456 882 87.0397 500.642 495.963
830 0 75.0324 11.9548 897 88.5217 501.385 494.637
831 0 76.0668 11.5425 878 89.5547 500.514 493.018
832 0 81.0803 12.1731 987 88.5735 501.65 491.142
833 0 80.0795 12.1504 973 128.361 503.629 491.475
834 0 87.1936 12.0766 1053 89.0437 501.571 489.284
835 0 91.1339 12.6078 1149 89.0252 501.892 487.928
836 0 92.1467 12.0026 1106 91.4946 501.722 486.049
837 0 95.1026 12.639 1202 90.4201 501.517 482.29
838 0 97.2222 12.0754 1174 91.2794 501.181 482.381
839 0 100.085 12.2696 1228 89.6246 501.558 479.462
840 1 53.1399 10.0113 532 90.4342 501.021 502.81
841 0 57.0791 11.3176 646 88.7848 501.158 503.082
842 0 59.0581 11.548 682 89.7229 500.779 501.261
843 0 61.103 12.1434 742 88.5539 500.876 499.838
844 0 63.0414 11.5004 725 86.5131 500.975 497.825
845 0 64.0684 11.5189 738 86.8577 501.615 495.912
846 0 68.0607 12.8121 872 83.1273 500.951 496.116
847 0 71.0455 12.5413 891 84.0853 501.649 495.489
848 0 74.0675 12.4346 921 84.2975 501.357 495.091
849 0 76.1553 12.5008 952 85.6786 501.376 492.306
850 0 79.0662 13.3812 1058 83.241 501.448 492.026
851 0 81.1119 12.3656 1003 85.8973 501.355 489.001
852 0 83.0573 12.6057 1047 86.0124 501.504 488.283
853 0 87.0666 12.9556 1128 86.2784 501.22 486.482
854 0 88.0414 12.9371 1139 87.5812 501.007 486.328
855 0 92.0571 12.7747 1176 88.4592 500.372 485.339
856 0 93.0964 12.9865 1209 89.4864 500.189 483.196
857 0 98.0796 12.9079 1266 89.996 500.671 481.551
858 0 101.152 13.3166 1347 90.2732 500.771 479.619
859 0 104.079 13.0477 1358 90.7901 499.97 477.06
860 1 57.0468 11.3065 645 88.5008 500.769 504.116
861 0 58.065 11.6421 676 87.0888 500.17 503.275
862 0 60.1524 12.1525 731 89.2449 500.9 502.022
863 0 62.067 12.696 788 87.7805 500.349 500.844
864 0 61.0968 11.3263 692 86.4321 500.572 499.997
865 0 64.048 11.7568 753 82.2842 500.359 500.903
866 0 65.0577 11.4668 746 84.3834 501.075 499.401
867 0 67.0417 11.202 751 85.0599 500.687 499.947
868 0 69.0643 12.1191 837 84.1661 500.39 497.22
869 0 72.0285 12.2868 885 85.626 500.275 495.376
870 0 73.0188 11.8737 867 87.7059 499.555 494.489
871 0 75.0339 12.0612 905 87.4431 499.396 494.398
872 0 78.0452 12.5312 978 90.0491 499.932 492.032
873 0 81.1073 12.7362 1033 91.3427 500.811 492.124
874 0 84.0558 12.5512 1055 91.7118 501.262 490.128
875 0 86.1355 12.6313 1088 91.3879 501.404 490.797
876 0 89.1091 12.9167 1151 89.6985 500.661 489.474
877 0 89.149 12.2604 1093 92.7036 500.41 488.597
878 0 93.122 12.9508 1206 90.243 501.455 486.054
879 0 96.0539 12.3785 1189 90.4668 500.897 485.254
880 0 98.1363 11.8305 1161 91.2885 501.084 483.479
881 0 101.04 11.7874 1191 89.8791 500.825 479.473
882 1 56.0883 10.0912 566 85.4117 501.299 501.353
883 0 58.0946 10.3108 599 84.9533 500.806 502.706
884 0 58.0578 10.369 602 78.5116 500.756 504.115
885 0 60.118 10.6457 640 78.8062 500.548 502.606
886 0 63.0445 10.4371 658 79.1049 500.976 500.612
887 0 64.0096 10.3266 661 79.5431 501.094 501.348
888 0 66.0545 10.3097 681 79.2893 500.662 499.818
889 0 71.0461 11.401 810 77.6111 500.606 496.595
890 0 72.1074 10.7895 778 78.1221 500.301 495.47
891 0 76.0775 10.7653 819 78.3101 500.227 493.414
892 0 77.1188 11.411 880 79.1511 500.092 491.826
893 0 81.0786 11.791 956 80.3567 499.592 490.589
894 0 85.1726 11.6587 993 80.1803 499.954 491.013
895 0 85.1351 11.4641 976 81.8104 500.841 486.655
896 0 88.0602 11.1401 981 82.3853 501.38 486.275
897 0 92.1394 12.1121 1116 80.276 501.418 485.928
898 0 94.221 12.2266 1152 81.8333 501.153 482.799
899 0 95.1645 10.8864 1036 84.6573 500.856 480.489
900 1 51.0682 10.3391 528 79.6345 501.555 505.919
901 0 51.1404 10.5592 540 79.5296 502.631 503.589
902 0 52.0898 11.0386 575 81.9391 502.605 503.833
903 0 55.1846 11.2713 622 84.1495 501.576 500.381
904 0 57.0162 11.067 631 79.8811 501.867 502.146
905 0 58.0222 11.0475 641 91.6849 502.098 499.02
906 0 62.1565 11.6963 727 88.9175 501.45 499.006
907 0 62.0558 12.0214 746 88.8324 501.775 497.054
908 0 64.0511 12.1622 779 88.199 502.284 496.327
909 0 67.0485 12.0659 809 88.3523 501.853 494.918
910 0 71.0446 12.5977 895 87.6011 501.721 493.903
911 0 71.0648 12.6504 899 89.1257 501.6 493.879
912 0 74.0468 12.33 913 89.8565 501.242 492.417
913 0 76.0975 12.7862 973 90.6547 501.689 491.294
914 0 79.0563 12.6239 998 91.4519 501.665 490.099
915 0 81.049 12.5603 1018 91.5403 501.478 490.434
916 0 81.045 12.6967 1029 90.1341 501.895 489.966
917 0 83.0331 12.5131 1039 92.3571 501.012 487.716
918 0 88.0662 13.2627 1168 91.6892 501.533 486.217
919 0 92.03 13.5825 1250 92.6744 501.094 485.664
920 0 93.0542 13.0032 1210 95.2149 500.669 484.726
921 0 97.0758 12.7426 1237 95.2086 500.891 482.188
922 1 47.0633 11.0702 521 90.1536 501.031 506.637
923 0 48.0547 11.1748 537 89.9851 500.754 507.419
924 0 50.042 10.751 538 90.9256 501.403 507.572
925 0 53.0528 11.4037 605 89.7124 501.195 507.603
926 0 52.043 11.6634 607 87.4728 500.878 509.313
927 0 54.0171 11.3112 611 88.1293 500.655 507.936
928 0 58.0257 12.0981 702 85.0997 500.446 506.564
929 0 58.0438 11.8531 688 85.8532 500.892 506.157
930 0 60.0278 12.1444 729 85.0192 500.016 505.136
931 0 63.0204 12.3135 776 86.9008 499.615 503.857
932 0 65.0376 12.2391 796 86.6897 499.742 504.352
933 0 66.0356 12.8113 846 87.039 500.32 501.848
934 0 69.0376 12.2397 845 87.2284 499.862 502.232
935 0 73.02 13.6401 996 84.6516 499.848 501.189
936 0 74.036 12.9397 958 86.4322 499.357 500.415
937 0 76.0447 13.0581 993 86.9094 499.276 498.378
938 0 77.0333 12.8126 987 89.1682 498.972 498.766
939 0 78.0829 12.5764 982 92.002 498.896 497.603
940 0 82.0262 12.9105 1059 91.2937 499.34 496.249
941 0 84.1109 12.5786 1058 93.1106 498.534 493.88
942 0 88.0601 12.6959 1118 93.3444 499.129 492.52
943 0 92.0514 13.2317 1218 96.546 498.889 490.9
944 0 95.0736 13.2845 1263 96.0633 498.96 488.637
945 1 52.0252 11.283 587 94.8893 499.143 511.095
946 0 53.0237 11.146 591 100.078 498.942 509.905
947 0 56.028 11.7798 660 99.4303 499.067 508.868
948 0 59.0361 12.7549 753 96.9336 499.344 507.38
949 0 61.0609 13.2163 807 95.9851 499.333 505.937
950 0 62.029 13.0907 812 95.9175 499.188 504.669
951 0 62.0618 13.0998 813 104.025 499.574 505.614
952 0 67.1134 13.2313 888 101.652 499.944 504.15
953 0 69.0285 12.9801 896 102.686 500.401 502.712
954 0 72.0327 12.5915 907 101.544 499.744 501.928
955 0 71.0343 13.1767 936 102.265 499.94 500.029
956 0 75.052 12.6979 953 91.8311 500.09 498.031
957 0 77.0464 12.6677 976 91.2182 500.481 497.886
958 0 80.0234 12.7963 1024 91.333 500.494 493.191
959 0 81.0942 13.0835 1061 90.1951 500.661 493.451
960 0 85.0814 13.3872 1139 88.7577 500.534 493.04
961 0 88.0365 13.4717 1186 88.8912 500.254 490.137
962 0 90.0434 12.9271 1164 89.0034 501.018 489.829
963 0 93.0643 13.3671 1244 88.2508 501.196 488.4
964 0 95.0492 12.6461 1202 90.6872 501.116 487.631
965 0 95.1012 12.5866 1197 90.7235 500.971 486.454
966 0 99.0635 12.8201 1270 90.8315 501.042 483.839
967 0 101.086 12.2371 1237 90.4576 500.598 484.141
968 1 55.1204 10.7038 590 81.4407 501.136 507.844
969 0 56.0708 12.1632 682 83.9619 500.667 506.947
970 0 58.0874 12.6361 734 83.7439 500.256 505.591
971 0 62.0518 11.7321 728 88.342 500.503 504.063
972 0 64.0508 12.0373 771 86.677 500.931 502.953
973 0 65.0374 12.1469 790 85.057 501.527 500.93
974 0 67.0855 11.9847 804 84.4702 501.112 499.585
975 0 71.0687 12.5512 892 83.2937 501.614 496.277
976 0 73.0285 11.8173 863 84.8552 501.073 496.397
977 0 75.0508 12.1384 911 84.2612 501.072 493.52
978 0 76.0552 12.0702 918 85.1253 500.805 491.615
979 0 79.0749 12.6209 998 92.2505 501.633 492.939
980 0 82.0623 13.2826 1090 92.5789 501.108 492.262
981 0 83.1419 13.2184 1099 93.9636 501.853 490.092
982 0 86.0568 13.7119 1180 83.878 501.325 490.36
983 0 86.0937 14.6352 1260 86.0048 501.486 489.038
984 0 90.1223 13.06 1177 87.2914 501.64 487.032
985 0 93.1219 12.7897 1191 87.3048 501.16 486.14
986 0 97.0509 13.5393 1314 85.7747 500.82 484.426
987 0 100.137 13.9109 1393 85.3001 501.959 483.245
988 0 101.178 13.4219 1358 87.5677 502.165 480.489
989 0 104.148 13.2408 1379 87.8245 501.323 481.431
990 0 107.077 13.6444 1461 86.3881 502.09 477.475
991 0 109.201 12.1793 1330 81.4158 501.512 477.068
992 0 113.241 12.107 1371 82.5179 501.132 473.422
993 1 62.0397 11.2025 695 76.8691 501.183 502.151
994 0 63.051 10.9911 693 77.4776 501.885 501.749
995 0 62.0981 10.9826 682 77.132 501.513 501.337
996 0 66.0232 10.4963 693 77.0462 501.55 501.045
997 0 66.0968 10.2274 676 78.7589 501.53 498.581
998 0 69.0869 10.8414 749 78.1656 502.179 497.151
999 0 68.0794 10.9872 748 120.393 503.19 497.025
1000 0 74.0489 11.1413 825 77.9164 502.528 495.705
1001 0 75.0454 10.5536 792 78.9975 502.255 495.326
1002 0 80.0575 11.5792 927 76.9051 501.597 493.841
1003 0 83.0564 11.6668 969 77.0609 501.915 492.863
1004 0 86.0546 11.6902 1006 77.9831 501.5 490.001
1005 0 86.0957 11.5685 996 79.1677 502.435 490.306
1006 0 88.0574 11.22 988 79.6478 502.884 489.003
1007 0 91.0483 11.4884 1046 79.6099 502.881 487.531
1008 0 95.0365 11.4272 1086 79.5028 502.929 484.577
1009 0 98.0554 11.7383 1151 78.7984 502.741 484.984
1010 0 102.064 12.3354 1259 78.3058 502.522 483.444
1011 0 103.146 11.1783 1153 77.6409 502.495 475.373
1012 0 106.108 10.8569 1152 78.3168 502.963 475.302
1013 0 110.108 11.8701 1307 78.3382 502.26 474.879
1014 0 114.169 11.7633 1343 81.1802 502.277 477.404
1015 1 62.0814 10.9856 682 80.9179 502.856 502.774
1016 0 62.079 11.0665 687 85.1063 502.961 500.068
1017 0 64.152 11.1766 717 84.3124 502.127 495.849
1018 0 67.0715 11.3759 763 74.81 502.406 499.497
1019 0 69.0522 11.6579 805 77.5565 503.501 500.278
1020 0 70.035 11.8512 830 78.1422 503.405 498.205
1021 0 72.0485 11.6588 840 79.1976 503.713 497.662
1022 0 75.0681 11.6161 872 79.5528 503.858 497.498
1023 0 78.088 12.5371 979 78.6527 503.734 495.476
1024 0 81.0552 12.1275 983 80.3825 504.24 493.967
1025 0 83.056 12.7263 1057 80.0577 503.205 491.715
1026 0 86.0485 13.0275 1121 79.7172 503.194 491.791
1027 0 89.1202 12.7805 1139 81.3363 502.361 488.975
1028 0 92.0632 12.9042 1188 80.1498 502.416 488.358
1029 0 93.0745 12.6458 1177 82.5497 501.744 485.846
1030 0 96.0699 12.6262 1213 87.5713 501.782 484.623
1031 0 99.0305 13.1172 1299 87.6259 501.87 483.127
1032 0 101.07 12.9811 1312 88.3918 501.448 481.381
1033 0 103.098 13.1622 1357 85.7406 501.804 478.304
1034 0 108.094 13.4236 1451 88.0834 502.056 477.774
1035 0 110.071 12.5101 1377 90.1823 501.461 476.007
1036 0 113.187 12.6074 1427 90.8122 501.537 475.358
1037 1 65.0359 11.7012 761 83.3968 501.976 502.359
1038 0 65.0284 11.2874 734 84.9074 501.826 500.326
1039 0 69.0482 12.4406 859 81.3958 501.828 499.154
1040 0 69.0318 12.1104 836 80.8947 501.49 498.934
1041 0 73.0536 11.5805 846 81.9905 502.095 496.113
1042 0 73.0293 11.5981 847 82.5171 502.124 495.595
1043 0 77.0526 11.7712 907 81.7949 502.123 493.533
1044 0 79.0838 12.2655 970 80.8567 502.084 490.688
1045 0 81.0678 11.8173 958 81.3132 501.864 491.383
1046 0 85.0508 12.3456 1050 79.6457 501.9 488.935
1047 0 87.0794 12.7585 1111 80.6319 502.227 488.095
1048 0 89.071 12.1588 1083 82.9372 501.982 487.356
1049 0 92.0461 12.6893 1168 82.2406 502.085 488.624
1050 0 92.0874 11.3045 1041 93.1383 501.37 486.744
1051 0 96.0497 12.1187 1164 91.9665 501.163 486.182
1052 0 100.083 12.1998 1221 91.7436 501.74 483.731
1053 0 102.062 12.4728 1273 92.3975 501.832 482.863
1054 0 106.078 12.1986 1294 97.8377 501.431 481.492
1055 0 108.107 11.6366 1258 99.837 501.464 480.509
1056 0 111.144 11.7325 1304 101.651 501.924 478.554
1057 0 116.174 11.9734 1391 101.75 502.381 474.288
1058 1 63.0493 10.9914 693 93.228 502.502 501.836
1059 0 66.0168 10.8912 719 91.8248 501.494 501.737
1060 0 67.0207 11.7576 788 88.3769 501.853 499.876
1061 0 72.0624 11.6843 842 88.652 501.911 498.494
1062 0 72.0521 11.797 850 86.1894 502.318 498.969
1063 0 72.0525 11.3112 815 87.7963 502.252 497.038
1064 0 77.0719 12.0926 932 84.2607 502.174 494.399
1065 0 79.0767 11.3687 899 85.7408 502.092 493.474
1066 0 80.0376 11.782 943 85.6532 502.529 493.165
1067 0 84.1854 11.4034 960 86.8281 502.586 491.543
1068 0 85.1109 11.5966 987 88.0091 502.689 489.604
1069 0 88.0887 11.4657 1010 88.5693 502.776 488.626
1070 0 90.0788 11.1125 1001 90.0779 502.134 485.842
1071 0 93.0902 11.505 1071 89.8105 502.394 484.61
1072 0 96.0697 11.7415 1128 89.7926 502.585 484.341
1073 0 98.0669 11.6961 1147 91.4289 501.861 480.553
1074 0 101.086 11.9996 1213 89.9052 501.929 478.514
1075 0 104.065 11.1853 1164 92.1606 501.464 478.558
1076 0 106.132 10.0158 1063 93.206 501.611 475.372
1077 0 109.201 10.0915 1102 95.6742 501.859 471.966
1078 1 58.1233 9.30779 541 90.1627 502.449 499.952
1079 0 60.0327 9.32825 560 89.6661 502.034 500.889
1080 0 64.0559 10.6938 685 86.3971 501.324 501.523
1081 0 66.0625 10.8079 714 82.7297 501.437 499.76
1082 0 67.0764 10.3315 693 83.746 501.218 497.6
1083 0 70.1866 10.9138 766 83.252 501.268 497.894
1084 0 73.054 11.0877 810 83.2926 501.048 496.749
1085 0 74.0628 11.2337 832 83.2873 501.256 496.032
1086 0 76.0593 11.3333 862 83.5371 500.621 494.208
1087 0 81.0538 11.6589 945 81.7873 501.464 493.326
1088 0 81.1286 10.9579 889 83.7143 501.997 492.358
1089 0 84.1683 11.1206 936 95.1667 501.33 491.013
1090 0 90.106 11.997 1081 91.4931 501.616 491.437
1091 0 91.0858 12.0107 1094 94.3839 501.099 488.702
1092 0 94.076 11.7352 1104 95.731 500.994 487.666
1093 0 96.0806 11.5632 1111 97.7669 500.956 489.374
1094 0 100.102 11.3285 1134 98.0132 500.875 487.678
1095 0 103.083 11.2046 1155 99.7325 500.892 487.795
1096 0 106.083 10.8783 1154 98.2764 500.855 484.869
1097 0 110.141 11.1857 1232 96.8831 500.865 484.859
1098 1 60.2055 10.8462 653 98.6891 500.865 503.851
1099 0 63.1245 11.8654 749 94.255 502.963 506.904
1100 0 65.025 11.4879 747 90.7711 502.262 505.483
1101 0 68.0928 12.5417 854 87.459 502.293 504.628
1102 0 69.033 12.1536 839 89.0083 502.741 502.688
1103 0 73.0289 12.8168 936 86.4914 501.906 501.005
1104 0 74.04 12.0205 890 87.8551 502.122 501.087
1105 0 77.0239 12.3079 948 86.5823 502.477 499.945
1106 0 79.0303 11.8436 936 88.0951 500.975 497.359
1107 0 80.0371 11.3322 907 86.9526 501.227 494.702
1108 0 84.0758 12.2271 1028 84.4232 501.044 493.867
1109 0 86.0174 11.6256 1000 85.349 501.271 493.737
1110 0 90.0629 10.8258 975 84.6544 501.092 490.473
1111 0 93.0499 11.7894 1097 82.9918 501.161 488.234
1112 0 95.0715 12.1067 1151 83.6638 500.789 487.334
1113 0 94.0903 10.8513 1021 87.1038 500.998 488.932
1114 0 98.1102 10.3047 1011 86.9812 501.719 486.46
1115 0 101.07 10.5372 1065 88.3756 501.65 483.881
1116 0 104.144 10.4471 1088 88.4302 501.202 483.845
1117 0 109.081 10.6893 1166 88.7453 501.445 481.86
1118 0 113.142 11.0481 1250 88.7352 501.728 481.13
1119 0 115.147 10.4215 1200 89.3558 501.307 480.558
1120 0 119.131 10.7361 1279 84.9922 501.585 480.027
1121 0 123.068 10.937 1346 87.3202 501.387 477.514
1122 1 68.0739 10.3564 705 87.1078 501.818 504.01
1123 0 69.11 11.7494 812 87.0012 502.037 502.414
1124 0 72.0664 11.531 831 85.083 501.698 501.863
1125 0 74.1386 11.7483 871 85.5396 501.753 500.122
1126 0 74.1165 11.1446 826 87.5872 502.109 499.546
1127 0 78.1421 11.8502 926 86.7257 501.49 497.797
1128 0 80.1594 11.9013 954 87.8218 502.743 496.746
1129 0 80.1138 11.3214 907 90.9493 502.956 495.602
1130 0 85.1891 12.3842 1055 87.9877 502.895 493.664
1131 0 86.1371 11.4585 987 92.0284 502.432 492.802
1132 0 90.0942 12.2649 1105 90.8805 502.45 491.22
1133 0 91.0997 11.7015 1066 94.2364 502.186 488.947
1134 0 95.129 12.2781 1168 93.7706 502.217 486.355
1135 0 98.2099 12.3409 1212 94.7269 502.299 487.031
1136 0 102.17 11.9311 1219 96.2436 501.758 485.673
1137 0 105.184 12.9867 1366 94.4553 502.176 480.619
1138 0 109.094 12.7139 1387 95.0101 502.06 480.769
1139 0 111.114 12.1227 1347 97.369 501.872 477.22
1140 0 114.169 12.8319 1465 96.9242 502.173 476.408
1141 0 117.206 11.8253 1386 98.2468 502.178 477.818
1142 0 121.264 12.5511 1522 96.749 501.839 476.221
1143 0 126.263 12.1255 1531 98.9752 501.745 473.867
1144 1 67.1182 10.7124 719 89.3102 501.879 505.303
1145 0 67.0361 10.099 677 90.325 501.211 505.771
1146 0 69.0403 10.4432 721 90.7406 501.472 502.14
1147 0 72.084 10.9039 786 90.2366 501.874 501.102
1148 0 76.0935 11.8933 905 88.642 501.838 498.39
1149 0 77.1045 11.7633 907 90.4035 501.125 496.53
1150 0 79.0971 11.7324 928 80.2392 501.838 497.37
1151 0 82.1438 11.6746 959 81.2596 501.736 494.96
1152 0 84.1242 11.8396 996 81.6667 501.791 494.148
1153 0 84.0977 11.4391 962 84.3222 501.191 493.207
1154 0 89.0535 11.6671 1039 84.2656 501.059 491.179
1155 0 92.0996 11.7916 1086 84.0368 500.427 490.215
1156 0 93.1021 12.1372 1130 84.1504 500.923 487.666
1157 0 95.1415 12.0452 1146 84.9634 500.985 486.66
1158 0 98.0624 12.1657 1193 85.4644 500.933 486.314
1159 0 102.233 12.315 1259 84.3272 501.009 484.149
1160 0 105.105 12.2925 1292 85.0681 501.396 483.557
1161 0 106.131 11.5894 1230 87.4268 501.194 483.56
1162 0 107.108 11.185 1198 88.7112 500.384 480.381
1163 0 113.112 12.3153 1393 86.6956 500.999 477.549
1164 0 115.104 11.5461 1329 89.5267 500.605 476.508
1165 0 120.262 11.8075 1420 88.9662 501.062 474.362
1166 0 122.055 11.1589 1362 92.3862 500.357 470.916
1167 0 125.177 11.336 1419 93.2466 500.149 468.984
1168 0 130.161 11.6471 1516 94.3819 499.373 471.484
1169 0 135.147 11.728 1585 94.3502 500.132 468.08
1170 0 137.175 11.0662 1518 96.8149 500.57 463.977
1171 0 141.142 11.6266 1641 95.7416 501.129 463.862
1172 0 144.186 11.1453 1607 98.1089 500.594 459.395
1173 0 149.16 12.1279 1809 96.3195 500.438 457.771
1174 0 154.114 12.1339 1870 97.8449 500.376 455.893
1175 0 159.235 12.6354 2012 95.5651 501.311 453.627
1176 0 167.154 13.1256 2194 93.8769 500.564 450.943
1177 0 171.269 13.3241 2282 94.4088 500.358 446.73
1178 0 174.122 12.3074 2143 98.1139 499.704 442.366
1179 0 181.196 13.0742 2369 96.2714 500.157 440.355
1180 0 188.172 12.8553 2419 97.5519 500.151 438.625
1181 0 192.094 13.0561 2508 95.8262 500.246 436.016
1182 0 197.136 12.8997 2543 96.2245 500.537 435.055
1183 0 205.171 13.7397 2819 97.0748 500.104 432.063
1184 0 212.161 13.7066 2908 96.6541 500.454 430.139
1185 0 218.213 13.3768 2919 98.8568 499.903 426.844
1186 0 223.218 13.5115 3016 100.964 500.094 424.137
1187 0 227.215 13.5466 3078 101.167 500.129 419.338
1188 0 236.202 13.8018 3260 100.766 500.081 417.019
1189 0 242.214 13.3394 3231 102.95 499.784 412.59
1190 0 249.204 13.9966 3488 103.687 500.181 409.493
1191 0 260.248 14.0097 3646 103.023 499.77 405.179
1192 0 266.312 14.2052 3783 105.571 499.889 398.258
1193 1 201.14 11.4845 2310 106.705 500.113 436.063
1194 0 209.173 12.4108 2596 106.674 500.532 428.651
1195 0 216.186 12.5262 2708 106.703 500.297 425.516
1196 0 222.266 12.809 2847 106.603 500.102 418.139
1197 0 231.293 13.0959 3029 104.487 499.716 419.405
1198 0 237.159 13.1473 3118 106.42 499.22 413.965
1199 0 244.218 13.3979 3272 106.546 499.545 407.741
1200 0 252.185 13.5575 3419 104.905 499.283 404.036
1201 0 258.238 13.2204 3414 108.633 499.838 399.631
1202 0 268.204 13.9819 3750 106.657 499.532 396.328
1203 0 277.22 13.4947 3741 108.666 498.887 391.653
1204 1 208.186 11.0286 2296 106.399 499.651 430.945
1205 0 214.319 11.8375 2537 107.05 499.666 427.456
1206 0 217.195 12.1044 2629 106.634 499.696 423.092
1207 0 224.204 12.5065 2804 107.43 500.32 418.523
1208 0 230.296 12.6837 2921 107.038 499.603 414.277
1209 0 238.295 12.7783 3045 109.014 499.917 409.368
1210 0 244.46 13.0287 3185 110.186 499.148 407.173
1211 0 252.234 13.0315 3287 109.549 499.729 403.366
1212 0 261.224 12.9008 3370 109.536 499.304 400.234
1213 0 269.29 13.0788 3522 107.396 499.674 398.732
1214 0 277.248 12.9595 3593 106.615 499.034 396.311
1215 1 218.186 11.0181 2404 108.906 499.917 425.342
1216 0 227.223 11.9442 2714 107.082 499.464 420.71
1217 0 233.246 11.9788 2794 108.657 499.974 419.184
1218 0 240.138 11.8099 2836 108.256 499.271 416.251
1219 0 249.261 12.0195 2996 108.251 499.287 412.924
1220 0 255.196 12.1514 3101 108.173 499.444 408.36
1221 0 265.216 12.9328 3430 106.453 499.112 402.863
1222 0 272.335 12.5397 3415 107.662 498.756 398.041
1223 0 280.201 12.334 3456 108.002 499.274 393.407
1224 0 290.281 12.8909 3742 105.383 500.554 388.506
1225 0 298.223 12.7287 3796 106.018 499.996 386.552
1226 0 307.213 13.3946 4115 104.118 500.264 377.567
1227 0 314.301 15.5774 4896 97.6769 499.747 369.671
1228 0 321.28 14.9776 4812 99.1058 500.269 363.233
1229 0 332.358 15.9196 5291 96.1455 500.286 358.957
1230 0 340.396 15.2088 5177 98.9641 499.341 351.824
1231 0 351.418 15.1785 5334 99.6309 499.546 343.599
1232 0 362.464 15.0525 5456 101.201 499.115 342.869
1233 0 377.429 14.8558 5607 103.075 499.47 337.816
1234 0 390.758 15.104 5902 104.104 498.97 331.271
1235 0 400.647 14.9957 6008 105.951 499.168 318.65
1236 0 413.816 15.0622 6233 108.118 499.418 309.885
