time division length width area intensity CMx CMy
0 0 43.0088 13.0439 561 84.4777 1181.43 500.578
1 0 41.0052 12.1936 500 87.246 1180.63 501.53
2 0 42.0262 13.4202 564 85.4025 1180.4 501.495
3 0 45.0287 13.3693 602 82.6512 1180.3 501.641
4 0 42.081 13.1888 555 81.2739 1180.27 502.409
5 0 44.042 12.647 557 82.4973 1180.67 502.251
6 0 43.0196 13.0173 560 80.575 1181.74 502.439
7 0 44.0156 12.8818 567 77.8906 1181.75 503.64
8 0 44.0307 12.673 558 79.3477 1181.38 502.351
9 0 45.0136 12.9294 582 78.4364 1180.96 501.481
10 0 47.0589 13.0262 613 77.0261 1181.11 501.395
11 0 48.055 12.6522 608 77.9951 1179.79 501.048
12 0 49.0187 13.1786 646 78.3111 1180.61 499.537
13 0 52.0276 13.9734 727 78.9794 1179.89 498.116
14 0 52.0636 14.5783 759 79.3557 1179.88 497.751
15 0 52.0636 14.5399 757 171.406 1179.89 497.696
16 0 55.0359 14.1907 781 76.1191 1180.14 497.853
17 0 54.0789 13.7577 744 76.7056 1179.92 496.724
18 0 57.045 13.8312 789 74.73 1179.76 497.409
19 0 55.0875 14.1593 780 75.2526 1179.97 496.963
20 0 56.0525 13.7906 773 76.1242 1179.46 496.778
21 0 57.137 14.894 851 74.9471 1179.21 495.982
22 0 58.1224 14.5211 844 75.301 1178.15 494.051
23 0 59.1906 14.2421 843 75.5623 1178.39 492.044
24 0 60.1859 14.3887 866 72.9977 1178.86 492.5
25 0 62.19 14.713 915 71.5454 1178.72 491.574
26 0 63.28 14.0803 891 72.6577 1179.06 492.282
27 0 64.1379 14.0167 899 72.5795 1179.21 491.427
28 0 65.1418 14.7371 960 70.6729 1178.57 492.182
29 0 68.0949 15.2728 1040 68.5788 1179.31 490.112
30 0 68.165 14.8023 1009 69.1754 1178.57 491.632
31 0 71.1414 14.8156 1054 68.3738 1178.95 490.064
32 0 71.1929 14.4958 1032 68.2771 1177.79 490.173
33 0 72.1844 14.7954 1068 66.6639 1177.93 490.138
34 0 73.2427 14.9503 1095 65.5233 1177.93 489.762
35 0 73.1295 13.9068 1017 68.8722 1178.19 489.466
36 0 76.1312 14.1072 1074 67.9674 1178.64 488.848
37 0 77.0987 13.8653 1069 67.159 1178.4 485.649
38 0 78.0591 14.0406 1096 67.8841 1178.11 484.521
39 0 82.1042 14.2745 1172 65.9855 1178.6 483.459
40 0 82.1618 14.3862 1182 65.9763 1178.58 482.574
41 0 85.1905 15.0134 1279 63.7459 1178.48 480.805
42 0 87.1342 14.5293 1266 65.0766 1178.58 481.217
43 0 88.1399 13.8076 1217 65.7239 1177.59 480.309
44 0 91.1227 14.1019 1285 64.3837 1178.24 477.651
45 0 93.1184 14.6588 1365 62.2908 1177.93 477.771
46 0 95.1452 14.2099 1352 62.4837 1178.48 477.085
47 0 98.2332 15.0255 1476 60.4926 1177.71 475.272
48 0 99.2064 14.1926 1408 62.228 1178.08 473.182
49 0 101.302 14.1656 1435 62.6425 1177.45 472.555
50 0 105.229 14.3402 1509 61.831 1178.25 471.62
51 0 107.241 14.1084 1513 62.6259 1178.28 471.366
52 0 110.229 14.6604 1616 62.4171 1177.68 467.077
53 0 114.367 14.5059 1659 62.7022 1176.79 466.953
54 0 116.205 13.8893 1614 64.8104 1177.46 464.921
55 0 117.153 13.1196 1537 67.2433 1177.63 463.031
56 0 121.251 14.4246 1749 65.247 1178.6 460.812
57 0 125.238 14.0054 1754 66.8164 1177.76 457.234
58 0 129.158 13.7583 1777 68.224 1177.8 458.519
59 0 132.346 13.8652 1835 68.6779 1177.06 457.289
60 0 137.286 14.2986 1963 68.5833 1178.31 453.973
61 0 142.216 14.6678 2086 68.5551 1178.2 454.219
62 0 147.258 15.259 2247 68.3258 1177.49 449.635
63 0 153.209 15.1101 2315 68.9987 1177.07 447.421
64 0 158.275 14.6391 2317 71.0406 1177.18 443.811
65 0 161.24 14.1032 2274 73.4235 1177.57 444.121
66 0 167.233 14.136 2364 74.6743 1177.29 440.646
67 0 172.399 13.8748 2392 75.9933 1176.64 437.855
68 0 175.369 12.6876 2225 78.2742 1177.17 436.925
69 0 183.309 13.7527 2521 75.7322 1177.65 433.248
70 0 191.267 13.5309 2588 75.8864 1177.09 429.814
71 0 198.243 14.0484 2785 74.4707 1178.01 429.755
72 0 202.262 14.3675 2906 74.0544 1177.4 426.206
73 0 209.284 13.981 2926 74.502 1177.7 423.957
74 0 215.274 14.0472 3024 74.7321 1177.65 418.509
75 0 221.385 13.5104 2991 75.7148 1178.08 414.896
76 0 229.374 14.3652 3295 74.6561 1177.48 412.006
77 0 233.526 12.5425 2929 78.8385 1177.66 405.752
78 0 244.511 14.3306 3504 75.0428 1177.72 402.815
79 1 261.541 11.631 3042 78.5099 1177.85 407.474
80 0 260.445 14.8362 3864 75.1403 1178.13 393.026
81 0 268.519 14.8444 3986 76.7265 1177.98 388.407
82 0 276.648 15.4601 4277 76.2294 1177.79 384.102
83 0 287.537 15.8797 4566 75.129 1178.27 377.364
84 0 294.571 16.1964 4771 74.8252 1178.32 373.148
85 0 301.5 16.5207 4981 74.5405 1177.86 373.362
86 0 311.584 16.5573 5159 74.6941 1178.48 365.992
87 0 322.421 17.8338 5750 73.737 1177.99 363.143
88 0 322.421 17.9144 5776 162.744 1178.01 363.185
89 0 343.681 17.1758 5903 76.3292 1178.35 346.108
90 0 356.726 17.5569 6263 76.3977 1178.1 340.57
91 0 368.793 17.7986 6564 76.0748 1178.3 337.205
92 0 383.821 17.7687 6820 76.9284 1178.13 328.426
93 0 396.029 17.072 6761 77.7789 1177.88 323.009
95 0 72.3933 11.5618 837 71.994 1177.72 483.241
96 0 76.3425 13.1775 1006 67.9612 1178.16 480.239
97 0 76.137 11.5187 877 73.4652 1178.3 484.438
98 0 78.0876 10.6803 834 76.9472 1178.71 484.414
99 0 82.11 11.9717 983 75.6195 1178.33 482.343
100 0 96.269 14.2621 1373 64.4851 1178.1 473.292
101 0 96.2828 15.5999 1502 63.757 1178.21 472.77
102 0 90.3015 14.4737 1307 69.6924 1177.86 473.776
103 0 90.267 11.7873 1064 76.61 1178.22 474.052
104 0 93.162 11.2385 1047 77.3286 1178.64 476.244
105 1 106.285 18.7608 1994 58.2849 1178.96 462.848
106 0 108.387 19.6058 2125 58.0174 1178.22 461.194
107 0 106.291 16.3514 1738 66.0972 1178.56 462.288
108 0 107.27 12.1003 1298 78.3475 1177.67 466.79
109 0 111.358 12.177 1356 77.7426 1177.88 465.576
110 0 115.276 12.6219 1455 77.9093 1177.55 464.066
111 0 119.271 12.9788 1548 78.5743 1177.57 462.758
112 0 121.265 13.0541 1583 81.9248 1177.85 462.808
113 0 126.229 13.1032 1654 83.2213 1178.23 459.744
114 0 126.185 12.4183 1567 82.4978 1177.89 454.594
115 0 128.197 12.2624 1572 83.7595 1177.73 452.233
116 0 132.18 12.3014 1626 84.4274 1178.14 448.304
117 0 134.18 11.7603 1578 86.2883 1177.45 443.768
118 0 141.21 12.1875 1721 84.3306 1177.94 444.695
119 0 151.3 13.0866 1980 86.8636 1177.22 446.895
120 0 154.187 12.647 1950 85.142 1177.55 446.678
121 0 159.189 12.9469 2061 84.5735 1177.1 445.062
122 0 163.292 12.4256 2029 86.3248 1177.35 442.757
123 0 169.271 12.6188 2136 87.1943 1177.48 438.934
124 0 173.377 13.0929 2270 86.6242 1177.78 437.597
125 1 76.1332 10.8625 827 74.9988 1177.7 487.467
126 0 77.3338 11.1077 859 75.5774 1177.83 487.913
127 0 81.3158 11.3262 921 77.0478 1177.3 484.666
128 0 83.218 11.9806 997 75.6399 1177.31 482.639
129 0 86.1877 11.9739 1032 74.9758 1177.39 482.909
130 0 88.1799 11.8167 1042 76.857 1177.25 479.952
131 0 92.1115 11.7901 1086 76.628 1177.29 479.253
132 1 49.0819 10.4723 514 77.7918 1176.86 500.177
133 0 51.1296 11.4219 584 76.0873 1176.71 499.094
134 0 51.079 11.5899 592 75.5625 1176.91 498.917
135 0 53.1028 12.1839 647 74.4189 1177.54 498.287
136 0 52.0433 10.5873 551 75.392 1177.5 498.944
137 0 53.0682 10.4394 554 75.5939 1177.1 498.471
138 0 53.0576 11.6289 617 75.3647 1177.79 495.645
139 0 55.216 10.9932 607 75.5717 1176.64 496.59
140 0 57.126 10.6782 610 75.0492 1177.13 495.838
141 0 55.1611 10.5328 581 78.5542 1176.57 495.699
142 0 59.2391 10.753 637 77.6531 1176.6 495.587
143 0 60.1181 10.8453 652 77.4862 1176.57 494.293
144 0 64.1296 11.851 760 73.621 1176.62 491.67
145 0 64.1218 11.2754 723 75.325 1177.45 490.261
146 0 66.0387 11.0693 731 76.0192 1177.6 490.978
147 0 67.1303 11.3064 759 75.9974 1176.6 489.522
148 0 67.1735 11.1651 750 76.5813 1176.85 489.189
149 0 69.0676 11.3657 785 75.8943 1176.76 486.218
150 0 72.0342 10.5505 760 82.7079 1176.41 486.336
151 0 73.0364 11.2136 819 75.8999 1176.24 487.272
152 0 74.0905 11.4725 850 76.2071 1177.26 482.829
153 0 77.084 10.7156 826 77.4758 1176.74 484.548
154 0 81.0859 11.8886 964 74.6743 1177.31 481.441
155 0 82.0404 11.5065 944 76.5752 1176.96 478.648
156 0 86.0418 11.3666 978 76.5 1177.15 479.269
157 0 89.1247 11.108 990 77.099 1176.49 478.762
158 0 91.0923 10.901 993 78.0453 1176.94 475.104
159 0 95.1465 11.0146 1048 77.5172 1176.95 473.377
160 0 100.157 12.1908 1221 75.1212 1177.21 471.521
161 0 102.13 10.9077 1114 76.4093 1176.9 469.425
162 1 52.0861 10.7322 559 77.8855 1176.28 493.501
163 0 52.1371 10.9902 573 78.0192 1176.21 493.361
164 0 55.0601 10.8245 596 78.5117 1176.31 491.592
165 0 55.0314 11.0301 607 75.6507 1175.95 491.367
166 0 56.0791 11.1628 626 74.2923 1176.32 493.712
167 0 56.1294 10.7787 605 75.2678 1176.5 492.893
168 0 60.0952 11.0824 666 74.473 1176.47 490.532
169 0 60.1333 11.0588 665 75.0391 1176.7 491.224
170 0 63.0638 11.7183 739 74.3857 1176.9 489.671
171 0 66.1301 11.6588 771 75.2594 1176.94 488.559
172 0 68.0829 11.6182 791 76.6839 1176.86 486.231
173 0 71.0788 12.4369 884 75.9174 1177.15 486.003
174 0 73.0858 12.5879 920 76.9946 1176.68 484.86
175 0 77.1017 12.4252 958 76.9958 1176.95 485.239
176 0 79.0742 12.4567 985 77.5198 1176.26 484.423
177 0 81.1081 12.4279 1008 78.1667 1175.9 483.556
178 0 83.1249 12.812 1065 78.1728 1176.27 481.809
179 0 86.1685 12.1274 1045 79.399 1176.95 480.059
180 0 88.1143 13.0285 1148 78.6298 1176.51 477.71
181 0 92.1452 12.4369 1146 78.6326 1176.67 478.34
182 0 102.153 15.0754 1540 72.7831 1176.77 469.192
183 0 103.295 15.0443 1554 74.6242 1176.89 470.107
184 1 50.1092 10.5769 530 82.4604 1176.94 496.8
185 0 51.0462 10.5787 540 78.5648 1176.55 494.73
186 0 51.0399 9.56114 488 73.2316 1176.94 491.25
187 0 58.0872 12.8083 744 78.3589 1176.99 496.168
188 0 57.1323 11.4121 652 71.8267 1177.82 497.425
189 0 58.0733 11.5027 668 73.4746 1177.42 495.368
190 0 59.0409 11.3989 673 73.6048 1177.43 494.872
191 0 62.0822 11.6297 722 73.5734 1177.6 495.112
192 0 64.1053 11.5123 738 73.5312 1176.66 494.438
193 0 66.061 12.5793 831 73.6643 1176.98 492.597
194 0 67.0665 12.0925 811 74.4994 1177.25 491.079
195 0 69.0321 11.7916 814 75.2396 1176.83 491.528
196 0 73.0128 12.1349 886 74.6885 1176.93 490.04
197 0 74.0998 12.2133 905 75.7171 1176.46 487.067
198 0 76.0884 12.5643 956 75.318 1176.76 488.111
199 0 79.105 12.1105 958 75.4791 1176.54 487.443
200 0 82.1154 13.0426 1071 74.4771 1176.92 485.663
201 0 83.0964 12.5637 1044 76.4531 1176.51 482.775
202 0 89.0742 12.6524 1127 96.0435 1176.73 481.794
203 0 90.1078 12.8957 1162 97.4165 1177.03 479.736
204 0 93.1546 13.2468 1234 96.5065 1176.65 477.13
205 0 96.0798 13.0412 1253 95.1708 1176.83 476.555
206 0 96.0639 12.3668 1188 98.3022 1176.36 474.311
207 0 100.103 13.0966 1311 97.6331 1176.22 474.08
208 0 103.078 13.4073 1382 97.4211 1176.66 471.876
209 0 106.069 13.067 1386 97.3564 1177.15 469.519
210 0 112.071 13.4647 1509 94.9649 1176.04 467.763
211 0 115.185 13.4393 1548 94.2662 1176.76 465.774
212 0 118.118 12.4028 1465 97.2689 1176.12 465.587
213 0 121.122 12.7062 1539 97.1358 1176.39 461.411
214 0 127.114 13.185 1676 94.5483 1176.41 460.985
215 1 64.0572 11.3336 726 96.7906 1176.9 490.694
216 0 68.0316 11.9503 813 96.508 1177.17 489.089
217 0 65.1097 11.1965 729 92.6255 1176.64 482.582
218 0 72.074 12.4872 900 93.0778 1176.24 486.032
219 0 74.0669 12.9207 957 86.8224 1175.68 489.355
220 0 75.0672 12.4822 937 88.0352 1175.75 487.792
221 0 77.0609 12.1852 939 89.5144 1175.77 485.585
222 0 80.1453 12.6271 1012 88.5128 1176.38 486.099
223 0 85.1683 14.0428 1196 88.2926 1176.97 479.194
224 0 85.178 12.5854 1072 91.5625 1176.58 480.917
225 0 87.1066 13.1219 1143 90.1864 1176.17 480.721
226 0 90.1312 13.1253 1183 92.3702 1176.36 477.598
227 0 92.1782 13.2895 1225 92.1682 1176.32 477.325
228 0 94.0675 13.299 1251 94.4908 1176.21 469.395
229 0 98.1471 14.1013 1384 92.4964 1175.66 474.31
230 0 96.0577 13.8146 1327 94.9797 1176.56 466.197
231 0 102.051 14.1694 1446 94.8326 1175.93 472.208
232 0 104.069 13.9427 1451 98.9001 1176.42 468.571
233 0 108.155 14.7012 1590 96.6717 1176.65 467.557
234 0 109.083 14.3744 1568 97.6384 1175.8 463.15
235 0 111.08 14.5841 1620 97.9012 1176.31 461.296
236 0 115.142 14.4605 1665 96.9273 1176.18 459.23
237 0 118.179 14.4696 1710 96.9766 1176.86 457.472
238 0 124.187 14.9532 1857 96.8454 1176.9 456.2
239 0 127.161 14.3834 1829 98.2559 1176.98 453.867
240 0 132.181 14.8432 1962 97.1911 1176.91 452.507
241 0 135.162 14.7008 1987 98.0297 1176.38 450.566
242 0 139.12 14.4121 2005 99.8115 1176.3 447.809
243 0 144.214 14.9292 2153 99.0841 1176.07 444.426
244 1 85.0779 12.3769 1053 100.844 1176.44 475.782
245 0 86.1152 12.8665 1108 101.808 1176.34 474.955
246 0 89.1109 13.4776 1201 101.298 1176.03 473.656
247 0 92.1518 13.8359 1275 97.4173 1175.49 477.388
248 0 93.0987 12.8251 1194 100.889 1176.36 478.204
249 0 95.2316 13.5879 1294 99.3207 1176.13 477.599
250 0 98.2078 13.726 1348 100.211 1176.31 470.676
251 0 102.214 13.3641 1366 100.673 1175.81 473.323
252 0 103.054 13.5948 1401 99.3583 1176.42 470.229
253 0 108.204 13.8719 1501 97 1176.17 461.847
254 0 109.133 13.1216 1432 98.3855 1176.39 461.959
255 0 113.12 12.9597 1466 98.9604 1176.07 461.952
256 0 115.259 13.3525 1539 98.0812 1176.62 459.246
257 0 121.207 13.9349 1689 95.7211 1176.52 458.793
258 0 125.111 13.6519 1708 95.13 1176.38 457.703
259 0 130.205 14.001 1823 94.6418 1176.41 453.429
260 1 66.1093 10.528 696 87.7012 1176.66 485.832
261 0 68.1612 11.5755 789 93.4474 1175.78 487.269
262 0 72.1179 12.2716 885 91.791 1175.9 486.322
263 0 76.0509 12.6231 960 83.1521 1176.54 488.501
264 0 77.0562 11.9004 917 86.5344 1176.95 487.213
265 0 81.0524 12.165 986 86.4209 1176.93 485.439
266 0 82.0608 11.7474 964 88.0488 1176.62 484.696
267 0 86.0987 12.1953 1050 88.5029 1176.13 482.583
268 0 90.0621 12.3692 1114 90.4829 1176.16 481.448
269 0 92.0682 12.4364 1145 92.8917 1176.45 478.732
270 0 96.131 13.0967 1259 96.2018 1176.43 475.957
271 0 100.128 12.504 1252 96.496 1176.4 475.33
272 0 103.195 12.9173 1333 96.4576 1176.33 473.01
273 0 107.18 13.0995 1404 96.2001 1176.98 472.442
274 0 108.159 12.7498 1379 98.2204 1176.34 470.676
275 0 113.154 13.3977 1516 97.6478 1176.06 469.265
276 0 116.192 12.9699 1507 97.2528 1176.3 468.147
277 0 121.097 13.0804 1584 98.0505 1176.5 466.092
278 1 65.0834 10.3252 672 82.1518 1175.58 493.406
279 0 68.088 11.1327 758 89.3588 1176.22 492.885
280 0 68.0523 12.123 825 81.7964 1176.23 494.298
281 0 67.0503 10.9619 735 84.5116 1176.46 492.672
282 0 70.0466 10.493 735 86.4653 1176.31 491.55
283 0 73.1012 11.4225 835 86.2599 1176.97 491.234
284 0 75.0417 11.6868 877 84.5188 1176.74 489.446
285 0 78.0472 11.7365 916 85.1365 1175.33 486.536
286 0 82.1376 11.6512 957 85.6301 1176.03 484.635
287 0 84.1037 12.4608 1048 84.645 1175.75 482.879
288 0 88.1108 12.1551 1071 85.5275 1176.38 482.814
289 0 90.0501 12.4819 1124 85.3399 1175.35 479.977
290 0 92.124 12.2444 1128 86.2092 1175.71 479.083
291 0 94.1397 12.3646 1164 85.5421 1175.56 477.681
292 0 101.082 12.1485 1228 94.3494 1175.71 474.972
293 1 51.0663 9.92827 507 84.0651 1176.25 500.586
294 0 52.0235 10.1108 526 82.0589 1176.42 499.215
295 0 54.0884 10.5938 573 81.6946 1176.01 499.457
296 0 55.0856 11.2189 618 81.9013 1175.66 498.392
297 0 59.0909 11.4231 675 89.4652 1175.43 496.281
298 0 62.1008 11.4813 713 91.4194 1175.45 495.05
299 0 62.2003 11.5273 717 91.4951 1175.9 494.149
300 0 64.1123 11.2303 720 90.8264 1175.46 491.499
301 0 65.1065 11.6578 759 90.6245 1175.66 493.343
302 0 66.072 11.6842 772 89.8756 1175.56 492.005
303 0 68.0906 11.2791 768 90.1862 1175.93 490.695
304 0 71.1082 11.8692 844 88.3152 1175.41 489.15
305 0 72.1108 12.0232 867 88.4948 1175.82 487.31
306 0 76.1122 11.4436 871 89.8243 1175.87 486.68
307 0 77.0742 11.729 904 90.4635 1175.43 485.736
308 0 80.0715 11.2524 901 91.99 1176.18 485.574
309 0 82.0942 12.108 994 92.2636 1175.41 483.633
310 0 86.1273 11.4017 982 90.5356 1175.55 484.531
311 1 44.0267 10.0166 441 86.4422 1176.21 506.175
312 0 47.0091 10.8064 508 81.3346 1176.15 505.364
313 0 49.0328 10.6052 520 78.6404 1176.37 504.154
314 0 50.0085 11.738 587 77.0971 1175.31 503.799
315 0 51.0259 10.72 547 80.585 1176.18 502.64
316 0 51.048 11.7928 602 78.9103 1175.85 502.306
317 0 52.0269 11.7247 610 78.718 1176 501.92
318 0 55.0383 11.5919 638 77.9812 1175.64 501.799
319 0 56.0446 11.8656 665 79.8677 1175.61 501.305
320 0 57.0102 11.5944 661 80.1377 1175.37 500.058
321 0 57.0285 12.4499 710 78.707 1175.43 500.687
322 0 60.0608 13.1866 792 77.8283 1175.85 498.845
323 0 61.0242 12.536 765 79.3137 1174.83 499.128
324 0 65.079 12.1852 793 80.1589 1175.56 495.667
325 0 66.0389 12.5229 827 91.3882 1174.41 497.276
326 0 67.0382 11.9783 803 93.7148 1174.34 495.963
327 0 70.0441 12.4208 870 92.2575 1174.06 495.472
328 0 71.0517 13.1313 933 90.6002 1173.74 494.122
329 0 76.0242 13.0616 993 89.426 1173.88 493.112
330 0 78.0589 13.5667 1059 88.3333 1173.77 491.74
331 0 77.1443 13.0405 1006 91.8479 1174.05 491.256
332 0 81.07 13.0011 1054 89.8994 1174.15 489.371
333 0 83.0509 13.5459 1125 89.2311 1174.08 487.967
334 0 85.0434 12.7347 1083 90.2982 1173.81 486.878
335 0 87.0687 12.8864 1122 90.9358 1173.5 487.24
336 0 91.0878 12.7679 1163 91.509 1172.65 483.661
337 0 94.0751 12.4794 1174 92.925 1173.09 484.134
338 0 96.0987 13.1948 1268 91.2808 1172.89 481.669
339 0 99.0796 12.8987 1278 91.27 1172.59 480.441
340 0 104.113 13.0435 1358 87.444 1172.84 479.87
341 1 54.0141 10.9231 590 83.4763 1173.17 504.071
342 0 56.015 12.1039 678 80.1519 1172.96 502.221
343 0 58.0412 12.6117 732 80.2609 1173.14 501.031
344 0 59.0863 12.3379 729 78.8971 1172.49 501.278
345 0 59.0539 12.1584 718 80.9652 1172.31 501.721
346 0 59.0292 11.6214 686 82.7566 1171.8 499.659
347 0 63.1001 11.7591 742 81.9515 1171.85 498.077
348 0 64.0304 12.2286 783 81.5645 1171.54 498.411
349 0 67.0322 11.9196 799 83.6796 1171.85 496.646
350 0 68.0739 11.7373 799 84.1139 1172.14 495.378
351 0 71.0288 12.9243 918 81.5305 1172.16 495.261
352 0 74.0404 12.6553 937 81.9424 1172.2 493.711
353 0 76.0735 11.9621 910 84.6297 1171.86 490.958
354 0 80.0976 12.9842 1040 81.4817 1171.75 491.388
355 0 82.0556 12.8084 1051 83.6946 1171.61 489.893
356 0 86.1618 13.6487 1176 82.6735 1171.72 484.951
357 0 88.0508 13.1288 1156 83.6652 1173.06 487.304
358 0 91.1216 12.9936 1184 85.8851 1172.65 484.937
359 0 93.0298 13.3828 1245 84.3478 1172.71 485.648
360 0 96.0417 13.5046 1297 85.3878 1172.31 482.06
361 0 100.025 13.3467 1335 87.3378 1172.34 481.158
362 1 49.0277 11.2589 552 78.4094 1172.23 503.697
363 0 50.0173 11.396 570 79.821 1172.57 503.456
364 0 52.0668 11.6581 607 85.0725 1172.79 503.422
365 0 55.062 12.2771 676 81.9748 1172.82 503.867
366 0 54.031 12.2152 660 83.297 1173.1 502.724
367 0 55.0454 12.0991 666 83.6276 1173.44 502.527
368 0 58.029 12.1319 704 83.3352 1173.32 500.513
369 0 60.0463 11.7076 703 84.404 1173.35 501.33
370 0 61.0384 12.271 749 84.4166 1172.91 497.522
371 0 62.0544 12.344 766 84.8068 1172.73 498.082
372 0 63.0383 12.1831 768 86.0768 1172.87 496.393
373 0 67.056 12.7655 856 84.0759 1173.31 496.845
374 0 67.0509 12.2743 823 85.9234 1173.01 494.509
375 0 69.0574 12.7865 883 85.7282 1173.29 494.422
376 0 71.1787 12.6864 903 86.2248 1173.39 491.876
377 0 74.1367 12.3556 916 87.1365 1173.85 491.285
378 0 76.1763 12.5892 959 85.8759 1173.89 490.892
379 0 78.1372 12.7084 993 87.2266 1174.03 489.474
380 0 79.0473 12.3344 975 89.76 1173.89 487.564
381 0 83.234 12.9755 1080 86.7787 1173.63 487.257
382 0 85.104 12.9959 1106 87.2559 1173.76 485.505
383 0 89.2902 13.2601 1184 87.0997 1174.32 483.354
384 0 89.128 13.3292 1188 89.6599 1174.17 481.556
385 0 91.1143 12.6215 1150 91.0791 1174.37 480.223
386 0 96.1243 12.9728 1247 88.6544 1174.08 479.987
387 0 98.103 12.8131 1257 90.0963 1174.72 476.694
388 0 99.1279 13.1144 1300 88.6038 1174.61 475.165
389 0 103.291 12.944 1337 89.3613 1174.29 473.163
390 1 54.1975 11.3474 615 90.4943 1174.17 496.967
391 0 54.136 10.7138 580 92.5362 1173.63 494.847
392 0 57.1838 11.4193 653 91.0812 1174.74 493.395
393 0 60.23 12.087 728 90.3448 1173.46 493.304
394 0 57.0505 11.8316 675 88.9304 1174.89 495.634
395 0 58.0095 11.2223 651 91.8218 1174.93 493.828
396 0 61.0826 11.4435 699 91.8827 1175.5 493.195
397 0 62.0477 11.8618 736 92.6128 1175.54 492.489
398 0 63.0654 11.4643 723 94.3001 1175.81 492.213
399 0 68.0455 12.0948 823 93.1628 1174.73 490.203
400 0 70.0621 12.1606 852 92.6948 1174.76 490.541
401 0 73.0649 12.5916 920 92.5054 1174.68 489.039
402 0 75.0535 12.9641 973 93.4532 1175.71 486.901
403 0 75.0932 11.9452 897 97.4326 1174.69 486.388
404 0 78.0748 13.0004 1015 95.3566 1174.74 485.241
405 0 81.1297 12.6587 1027 95.1743 1173.8 485.428
406 0 83.0325 12.2121 1014 95.6864 1174.79 484.033
407 0 85.1099 12.572 1070 95.8299 1174.83 482.392
408 0 88.0448 12.6413 1113 95.8598 1174.77 481.268
409 0 89.0719 12.3159 1097 96.01 1174.88 479.683
410 0 90.0442 12.0385 1084 97.2306 1174.9 477.829
411 0 95.1143 12.8056 1218 94.0829 1175.45 474.388
412 0 98.0944 13.2118 1296 94.7268 1174.45 470.84
413 0 99.0745 12.2837 1217 99.0846 1174.26 470.764
414 0 104.11 12.5732 1309 98.6325 1174.47 470.965
415 0 107.123 12.7517 1366 97.7182 1174.42 469.558
416 0 110.132 12.6575 1394 99.8357 1173.83 465.45
417 0 114.13 12.5734 1435 101.02 1174.63 463.985
418 0 119.332 13.6677 1631 102.09 1174.29 459.194
419 0 124.3 13.564 1686 102.239 1174.53 458.349
420 1 66.1061 9.99908 661 97.3631 1174.62 485.268
421 0 69.0506 10.2823 710 98.8028 1174.8 485.923
422 0 72.0484 12.2001 879 102.523 1173.24 487.593
423 0 77.0471 12.5378 966 101.609 1172.71 488.967
424 0 78.0464 12.2748 958 104.839 1173.31 486.844
425 0 81.049 11.7707 954 106.363 1173.86 486.138
426 0 83.1068 12.3456 1026 106.048 1173.62 483.486
427 0 85.1738 12.5391 1068 106.086 1173.58 483.884
428 0 90.1274 12.7708 1151 106.761 1174.19 481.974
429 0 92.195 12.3651 1140 108.144 1173.88 480.478
430 0 94.1558 12.6386 1190 107.302 1173.96 478.722
431 0 98.107 12.3335 1210 104.118 1174.41 476.343
432 1 53.0898 11.1133 590 99.0051 1173.08 500.815
433 0 54.0146 11.4228 617 96.0535 1173.63 501.015
434 0 55.0323 11.7022 644 88.5901 1172.86 501.301
435 0 56.0431 12.0443 675 87.3644 1173.6 500.892
436 0 56.0475 11.9363 669 87.4096 1174.16 500.212
437 0 58.0504 11.5934 673 90.6003 1174.29 500.091
438 0 61.0321 11.5677 706 87.8357 1173.74 498.163
439 0 63.0267 11.9632 754 88.0133 1173.35 497.235
440 0 64.0387 12.6486 810 86.8827 1173.52 495.879
441 0 66.0119 12.1796 804 90.0199 1173.47 494.874
442 0 68.0344 12.6407 860 88.9849 1173.82 494.366
443 0 70.0789 12.2719 860 88.6105 1172.74 492.176
444 0 70.0662 12.3312 864 89.6748 1173.22 491.455
445 0 74.046 12.3977 918 88.7821 1173.41 488.629
446 0 75.0625 12.2298 918 89.7549 1173.39 489.143
447 0 77.0487 12.5765 969 92.4613 1173.14 486.72
448 0 79.0368 12.1083 957 93.0146 1174.73 486.432
449 0 82.038 12.6892 1041 91.074 1174.9 484.844
450 0 82.0409 12.6157 1035 102.872 1174.88 483.943
451 0 87.0323 12.662 1102 90.9129 1174.47 482.64
452 0 85.0615 10.8627 924 98.6699 1173.93 484.934
453 0 88.0309 10.9053 960 98.4292 1174.35 482.896
454 1 49.0302 10.4221 511 104.84 1173.79 501.17
455 0 49.0588 10.7218 526 101.749 1173.64 501.146
456 0 51.0361 11.0706 565 97.1929 1173.16 499.899
457 0 50.0399 10.6515 533 90.6116 1175.34 499.805
458 0 53.0158 10.7327 569 91.2882 1174.81 498.415
459 0 56.0684 11.1114 623 89.0337 1174.89 497.791
460 0 58.0261 11.2019 650 87.4292 1174.57 496.438
461 0 59.0532 11.2441 664 88.009 1174.8 494.431
462 0 61.0312 11.3876 695 87.8691 1174.93 493.714
463 0 63.06 11.3543 716 88.5084 1175.4 491.96
464 0 65.0271 11.1184 723 88.9433 1175.09 491.51
465 0 65.0284 11.0106 716 113.412 1174.07 491.603
466 0 67.0598 12.1086 812 86.9618 1175.01 491.461
467 0 70.0612 12.2607 859 85.8661 1174.62 489.279
468 0 72.0678 11.6418 839 86.8617 1174.67 488.722
469 0 74.1644 11.6768 866 86.4515 1174.76 486.694
470 0 78.114 12.533 979 83.6078 1174.51 485.148
471 0 81.0997 12.0962 981 84.2895 1174.38 483.625
472 0 85.066 13.6365 1160 79.7647 1174.87 484.709
473 0 88.059 13.014 1146 82.7059 1174.12 483.99
474 0 90.0346 13.4393 1210 82.7066 1174.29 482.051
475 0 92.088 13.0962 1206 84.0431 1174.63 480.089
476 1 49.092 11.0405 542 88.2196 1173.79 501.681
477 0 49.0404 11.2152 550 88.7982 1174.58 500.762
478 0 53.0374 11.1619 592 86.6959 1174.36 502.046
479 0 52.031 11.6661 607 87.7463 1174.51 500.651
480 0 54.101 11.0164 596 84.0604 1174.2 497.267
481 0 55.0578 11.7876 649 87.7396 1174.86 498.897
482 0 57.0413 11.6933 667 89.2594 1174.73 498.214
483 0 57.0483 12.5157 714 85.8403 1174.3 498.524
484 0 61.1455 12.4784 763 86.0839 1174.53 497.206
485 0 61.1079 12.7807 781 85.1024 1173.73 496.241
486 0 63.1006 12.3137 777 85.2626 1173.97 495.032
487 0 65.0806 12.5383 816 84.511 1173.78 494.311
488 0 65.0541 12.4512 810 85.1494 1173.72 493.591
489 0 68.0719 12.7659 869 83.878 1173.64 493.626
490 0 68.0763 13.1617 896 84.231 1173.53 492.82
491 0 71.0827 12.6472 899 84.6674 1173.91 491.836
492 0 72.0846 12.8044 923 85.7226 1173.83 490.466
493 0 75.1197 13.1523 988 84.7166 1173.69 489.921
494 0 78.0818 12.8455 1003 86.7836 1174.57 488.411
495 0 79.1562 12.8227 1015 88.3379 1173.71 487.775
496 0 83.2601 13.1996 1099 87.2393 1173.61 486.52
497 0 85.1558 13.5751 1156 87.782 1173.1 484.99
498 0 87.2792 12.8438 1121 90.7654 1173.48 483.945
499 0 91.1436 13.8902 1266 89.2757 1173.54 482.742
500 0 91.1436 13.8682 1264 170.913 1173.54 482.707
501 0 97.304 13.5144 1315 90.3209 1173.66 480.059
502 1 52.1466 11.506 600 89.98 1173.95 502.292
503 0 53.3767 11.2596 601 90.5141 1173.74 501.409
504 0 54.1386 11.6922 633 89.812 1174.06 498.918
505 0 55.0366 12.3736 681 73.4273 1173.28 501.398
506 0 57.0935 12.4357 710 73.731 1173.9 499.268
507 0 57.0385 12.1146 691 75.2417 1173.12 497.619
508 0 59.0709 12.4088 733 74.1228 1173.31 498.102
509 0 60.0899 11.7657 707 75.9604 1173.03 497.571
510 0 62.0591 12.7781 793 74.1564 1172.77 495.7
511 0 63.039 12.8016 807 74.917 1172.88 496.191
512 0 65.1067 12.1647 792 76.5732 1173.33 496.11
513 0 68.0656 12.3117 838 76.185 1173.41 493.358
514 0 70.0575 12.761 894 75.6667 1173.49 494.578
515 0 70.0793 12.4859 875 77.6629 1172.66 492.288
516 0 74.0715 12.7984 948 76.6656 1172.58 491.213
517 0 77.0477 12.5247 965 77.2642 1172.55 492.672
518 0 79.0831 12.6576 1001 77.6713 1172.97 489.658
519 0 80.0547 12.8037 1025 78.8146 1172.52 488.1
520 0 85.0737 13.2591 1128 77.7287 1172.48 487.66
521 0 86.0806 12.6625 1090 79.5339 1172.86 485.347
522 0 90.1116 12.9173 1164 79.2079 1172.64 485.46
523 0 91.0671 12.7269 1159 81.8499 1172.52 483.898
524 0 94.0815 12.5104 1177 81.7596 1171.36 484.251
525 0 97.1076 12.1309 1178 89.3183 1171.79 482.343
526 0 99.1578 12.3036 1220 89.9262 1171.42 481.761
527 0 101.137 12.5573 1270 88.9795 1172.03 478.936
528 0 104.147 12.1943 1270 88.6244 1171.87 477.824
529 0 107.087 12.4105 1329 86.8262 1171.8 478.392
530 0 111.081 12.7205 1413 85.7183 1172.52 476.418
531 0 111.076 12.55 1394 85.5803 1172.15 474.865
532 0 117.186 12.8087 1501 84.8448 1171.8 472.42
533 0 118.108 12.2346 1445 86.9619 1170.96 472.392
534 0 122.106 12.4154 1516 85.9499 1171.14 471.654
535 0 125.081 12.376 1548 87.0743 1171.84 468.382
536 0 130.089 12.8527 1672 86.2638 1172.87 468.364
537 0 134.239 12.1649 1633 88.2933 1173.3 465.759
538 0 137.167 12.2697 1683 88.656 1172.7 462.908
539 0 141.226 12.4694 1761 89.0017 1172.77 460.719
540 0 145.086 12.4064 1800 89.5544 1172.49 459.263
541 0 148.201 12.0579 1787 90.3889 1172.33 457.004
542 0 154.029 12.3483 1902 89.9248 1172.48 454.387
543 0 159.129 12.4302 1978 89.4333 1172.21 452.762
544 0 162.168 11.9074 1931 90.6914 1171.27 448.554
545 0 168.241 12.7317 2142 90.0089 1171.46 445.97
546 0 172.193 12.4976 2152 91.3225 1171.42 443.63
547 0 178.338 13.1436 2344 88.0294 1171.31 439.191
548 0 183.214 13.0175 2385 89.9166 1171.34 435.91
549 0 188.162 12.9356 2434 89.3722 1171.55 434.272
550 0 193.183 12.7289 2459 90.8072 1171.77 428.905
551 0 199.191 13.7105 2731 89.5599 1171.25 427.531
552 0 205.194 13.7577 2823 89.61 1171.95 423.271
553 1 103.083 11.3016 1165 89.921 1171.64 475.064
554 0 106.039 11.2694 1195 89.8828 1173.11 475.884
555 0 106.071 11.3792 1207 92.2883 1172.99 472.635
556 0 108.131 11.2826 1220 91.982 1172.57 471.625
557 0 113.169 11.284 1277 91.1519 1172.63 470.835
558 0 115.115 12.0402 1386 88.6558 1172.78 470.718
559 0 113.174 10.7445 1216 92.5625 1173.03 469.621
560 0 113.132 10.9164 1235 92.5935 1172.82 469.006
561 0 112.184 10.0371 1126 94.9716 1173.45 471.212
562 0 112.15 10.4414 1171 96.1631 1172.8 467.782
563 0 112.052 10.7807 1208 94.4942 1171.75 470.608
564 0 109.12 10.1356 1106 94.7785 1172.28 469.277
565 1 218.274 12.892 2814 94.2704 1171.57 415.426
566 0 224.225 12.2332 2743 94.5764 1172.05 411.592
567 0 224.225 12.2332 2743 163.688 1173.05 411.698
568 0 223.225 7.78585 1738 99.6087 1171.62 432.103
569 0 223.213 8.01027 1788 169.49 1169.64 429.324
570 1 60.0926 11.8151 710 82.1887 1171.84 491.677
571 0 59.0228 10.3689 612 77.585 1171.64 491.288
572 0 61.0546 10.3678 633 78.2164 1170.94 495.125
573 0 67.0317 11.7258 786 87.1081 1171.22 498.135
574 0 70.1297 11.6784 819 90.8523 1171.63 496.335
575 0 70.0709 11.6311 815 82.8515 1172.27 497.444
576 0 71.1257 11.9366 849 82.5159 1171.05 497
577 0 74.1022 11.4572 849 82.2226 1170.82 494.915
578 0 74.0605 10.6264 787 89.7344 1171.33 496.836
579 0 77.2299 11.3169 874 88.1911 1170.93 494.781
580 0 79.1489 11.4973 910 88.5418 1171.2 494.244
581 0 81.0722 11.6933 948 88.7152 1171.22 492.153
582 0 85.1374 12.0394 1025 87.8595 1170.98 489.851
583 0 85.1557 11.6492 992 89.0353 1170.67 487.899
584 0 89.2118 11.2989 1008 89.5694 1170.75 485.542
585 0 90.0586 10.693 963 90.6106 1171.72 482.265
586 1 49.0773 9.92312 487 88.8049 1170.81 503.489
587 0 50.022 10.2555 513 79.3372 1171.96 499.02
588 0 49.018 10.2819 504 83.1786 1171.74 497.141
589 0 50.0287 9.7744 489 84.7301 1171.52 496.802
590 0 52.0102 10.4979 546 84.185 1171.4 497.313
591 0 52.0603 9.96921 519 85.1657 1171.09 494.882
592 0 55.0351 9.97546 549 80.7505 1170.73 491.528
593 0 61.0515 10.2045 623 82.9165 1170.95 502.99
594 0 62.0874 11.3066 702 81.6766 1169.96 502.001
595 0 64.0378 10.728 687 82.5735 1170.34 501.47
596 0 65.1079 11.0278 718 81.8245 1170.76 499.472
597 0 66.0521 10.9308 722 83.0831 1171.85 499.303
598 0 66.0543 10.2189 675 86.2104 1171.16 498.452
599 0 73.0712 11.6735 853 82.0446 1170.38 498.089
600 0 72.1062 11.067 798 84.1266 1170.3 495.484
601 0 75.1755 11.3734 855 83.6199 1170.07 494.522
602 0 78.2152 11.3916 891 83.8002 1170.43 493.826
603 0 81.2201 11.7212 952 82.4611 1170.58 491.428
604 0 84.16 12.2505 1031 82.1785 1170.23 489.989
605 0 86.3124 12.084 1043 84.1112 1170.04 489.458
606 0 88.3174 12.3418 1090 84.4431 1170.1 488.956
607 0 90.1713 11.9661 1079 88.367 1169.78 485.804
608 0 94.1027 12.0932 1138 87.1503 1170.39 484.585
609 0 96.1503 11.69 1124 88.8318 1171.5 482.039
610 0 99.1047 12.179 1207 87.092 1171.48 482.148
611 0 101.108 12.5609 1270 87.2906 1171.31 480.274
612 0 102.06 11.454 1169 91.8871 1171.67 479.769
613 0 107.052 12.4145 1329 89.8593 1171.5 478.764
614 0 109.151 12.6247 1378 89.9427 1171.51 477.442
615 0 111.078 12.0096 1334 92.5787 1171.71 475.156
616 0 116.058 12.4592 1446 91.9177 1171.12 474.297
617 0 119.109 12.073 1438 92.9659 1170.83 473.336
618 0 121.133 12.4492 1508 93.6499 1170.43 470.226
619 0 124.168 11.6214 1443 95.1913 1170.64 468.827
620 0 128.214 12.6742 1625 93.6714 1171.14 466.276
621 0 132.177 12.0748 1596 95.5946 1171.56 465.207
622 0 136.199 12.2541 1669 93.9449 1171.29 463.847
623 0 140.289 11.74 1647 95.6612 1171.24 460.78
624 0 144.247 12.0904 1744 95.1216 1170.6 460.332
625 1 74.2037 11.0641 821 96.1547 1170.26 490.943
626 0 77.1134 11.9434 921 94.3485 1170.33 488.314
627 0 80.1862 12.2091 979 93.713 1170.56 487.319
628 0 84.1827 12.0334 1013 93.1678 1170.78 485.249
629 0 74.0438 10.6964 792 93.9798 1170.94 474.158
630 0 82.133 10.1421 833 84.7791 1171.36 479.375
631 0 89.0766 11.0242 982 88.2719 1171.11 480.465
632 0 90.0619 11.0258 993 88.9547 1171.85 479.695
633 0 94.0788 10.9483 1030 90.2796 1171.37 477.414
634 0 96.0805 10.8451 1042 94.4434 1171.71 474.189
635 0 100.158 11.8512 1187 91.3783 1170.95 464.265
636 0 92.0756 11.4471 1054 90.7628 1171.38 460
637 0 96.0601 10.2644 986 94.2373 1171.37 461.149
638 0 107.082 11.8787 1272 92.1053 1171.35 467.746
639 0 110.049 10.7952 1188 94.1482 1171.73 467.082
640 0 110.121 10.6792 1176 91.8614 1171.25 457.008
641 0 108.072 10.6966 1156 94.231 1171.14 452.684
642 0 117.127 11.0393 1293 94.0224 1171.91 454.192
643 0 122.164 11.0098 1345 93.919 1172.43 454.807
644 0 127.147 11.2311 1428 95.1015 1172.66 450.625
645 0 129.127 11.0512 1427 97.157 1172.58 449.048
646 0 135.123 11.4785 1551 97.0058 1172.33 446.884
647 1 78.1557 9.4299 737 87.4342 1172.45 487.37
648 0 82.1644 10.0408 825 86.1273 1172.81 485.669
649 0 86.1929 11.9383 1029 81.965 1172.69 484.003
650 0 87.1062 11.0784 965 80.6062 1172.26 482.348
651 0 89.0859 10.4394 930 80.9237 1172.68 482.972
652 0 95.0992 11.3145 1076 79.2268 1171.67 482.864
653 0 96.0869 10.5425 1013 82.8944 1172.51 479.913
654 0 101.067 11.1412 1126 82.4458 1172.75 478.282
655 0 104.093 11.9028 1239 80.5553 1172.72 475.996
656 0 107.142 11.536 1236 80.9563 1172.91 472.759
657 0 109.119 10.823 1181 82.9526 1172.33 471.924
658 0 114.218 11.049 1262 82.9319 1172.88 471.096
659 0 117.111 11.3823 1333 80.898 1172.66 470.197
660 0 122.22 11.1356 1361 81.2939 1173.39 467.221
661 0 128.162 11.7585 1507 92.8872 1172.79 461.029
662 0 129.102 10.635 1373 96.4479 1172.92 459.438
663 0 135.132 10.8634 1468 93.6485 1172.7 457.362
664 0 138.177 10.9208 1509 93.6594 1173.24 456.77
665 0 144.112 11.5327 1662 92.8303 1172.76 454.49
666 0 148.133 10.1598 1505 96.6824 1173.32 450.456
667 0 154.154 10.5998 1634 96.4706 1173.8 448.316
668 0 156.234 9.76098 1525 98.0262 1173.12 446.064
669 0 159.137 9.7966 1559 98.8948 1172.47 443.819
670 0 163.264 11.4967 1877 102.183 1173.01 445.257
671 0 168.238 11.0795 1864 102.675 1172.89 442.036
672 0 173.287 11.2126 1943 102.051 1173.31 442.112
673 0 180.38 11.8638 2140 100.049 1173.72 436.971
674 0 184.382 11.5141 2123 102.082 1173.48 434.666
675 0 188.364 11.6317 2191 102.026 1173.4 430.725
676 0 191.456 11.3133 2166 102.248 1173.46 429.946
677 0 197.357 11.3348 2237 101.732 1173.1 426.541
678 0 203.662 11.4258 2327 100.091 1172.38 424.969
679 0 208.384 10.8166 2254 101.817 1173.15 418.243
680 0 215.507 10.6029 2285 101.484 1172.66 417.253
681 0 222.555 10.5412 2346 102.679 1172.81 412.405
682 0 229.598 11.2066 2573 102.396 1172.13 409.019
683 1 124.36 10.6465 1324 94.1926 1173 464.106
684 0 125.32 11.307 1417 93.1482 1173.69 464.912
685 0 129.41 10.9265 1414 94.5248 1174.16 462.406
686 0 134.325 10.9287 1468 94.9462 1174.31 462.164
687 1 71.3976 11.2189 801 93.0137 1174.75 489.442
688 0 75.2986 11.2353 846 90.2541 1173.17 489.024
689 0 76.5036 11.8949 910 90.4747 1174.34 487.418
690 0 76.3769 11.7051 894 93.4888 1174.1 486.31
691 0 80.3607 11.2617 905 84.4586 1173.95 487.947
692 0 82.1377 11.1764 918 82.9662 1173.42 488.688
693 0 86.0599 11.9219 1026 81.4318 1173.69 488.075
694 0 86.0685 11.305 973 84.8222 1173.43 486.082
695 0 92.0987 12.2369 1127 83.1091 1173.51 486.191
696 0 92.1329 11.9284 1099 86.3776 1173.76 483.114
697 0 95.1672 12.5884 1198 86.3431 1173.52 483.253
698 0 97.1972 12.0785 1174 90.0324 1173.07 481.627
699 0 100.216 11.4652 1149 98.7328 1172.58 479.701
700 0 102.208 10.958 1120 100.461 1173.01 477.789
701 0 109.16 11.8542 1294 98.058 1172.59 477.942
702 0 110.096 11.5627 1273 100.124 1172.47 476.672
703 0 113.088 11.858 1341 100.555 1172.56 474.333
704 0 117.113 11.9372 1398 100.016 1172.27 473.622
705 0 119.192 11.4856 1369 101.462 1172.34 473.226
706 0 122.203 12.2911 1502 99.7876 1171.6 471.366
707 0 125.347 11.5599 1449 101.923 1172.45 468.81
708 0 130.242 12.0468 1569 99.3901 1171.88 466.823
709 0 132.221 12.0934 1599 99.9475 1171.74 463.321
710 0 138.231 12.566 1737 97.0167 1171.73 462.731
711 1 71.2694 10.9163 778 85.3702 1171.49 497.328
712 0 73.1546 11.2228 821 85.2314 1171.09 495.412
713 0 75.0919 10.8534 815 87.1423 1172.09 495.382
714 0 75.0508 11.4722 861 88.3589 1172.32 495.053
715 0 79.0625 10.7636 851 90.6698 1172.05 493.187
716 0 79.0625 10.8395 857 91.6114 1172.8 492.978
717 0 86.128 11.0301 950 93.7368 1171.75 492.454
718 0 86.1323 11.0644 953 146.022 1171.75 492.575
719 0 90.08 10.0577 906 95.543 1172.21 488.196
720 0 92.1112 11.269 1038 93.7428 1172.65 486.768
721 0 95.2057 12.0581 1148 92.73 1172.33 482.642
722 0 96.1157 11.018 1059 95.4636 1173.09 481.338
723 0 100.223 11.664 1169 94.9735 1172.31 478.796
724 0 102.157 11.3746 1162 96.6256 1172.59 477.17
725 0 105.274 11.0949 1168 97.345 1173.42 476.568
726 0 105.297 10.4846 1104 100.438 1172.81 473.918
727 0 110.232 11.1946 1234 99.252 1172.51 473.499
728 0 112.237 11.3154 1270 99.715 1172.48 472.619
729 0 115.187 11.8155 1361 98.7237 1172.71 473.044
730 0 120.18 11.8073 1419 98.0226 1172.72 472.165
731 0 125.185 13.0447 1633 95.0851 1172.91 467.864
732 0 128.119 11.903 1525 99.0039 1173.01 468.906
733 0 130.201 11.4592 1492 99.632 1172.71 468.782
734 0 135.111 11.1242 1503 99.8084 1172.73 465.843
735 0 139.133 11.3273 1576 100.468 1172.03 462.397
736 0 145.091 12.0201 1744 99.1554 1172.28 460.097
737 1 74.0448 10.3721 768 96.0078 1172.52 494.892
738 0 78.0863 11.2312 877 94.1186 1172.47 491.965
739 0 79.0616 11.4974 909 96.1529 1171.98 489.978
740 0 82.1048 11.7655 966 96.5559 1172.11 488.72
741 0 85.0594 12.1327 1032 94.6492 1172.12 484.958
742 0 86.0747 11.5365 993 100.081 1172.35 483.144
743 0 88.0397 11.7106 1031 100.723 1171.76 480.611
744 0 92.1631 11.1216 1025 103.724 1171.77 478.782
745 0 92.1774 11.6297 1072 103.792 1170.35 476.056
746 0 95.1978 11.3658 1082 104.734 1171.12 475.084
747 0 95.1656 11.2331 1069 107.544 1171.25 470.914
748 0 100.234 11.2237 1125 108.321 1172.14 469.147
749 0 104.184 11.9308 1243 106.027 1171.54 471.907
750 0 106.151 11.7851 1251 102.99 1172.11 471.563
751 0 109.11 11.5572 1261 105.336 1172.44 474.279
752 0 112.184 12.4349 1395 103.556 1172.93 473.321
753 0 113.118 11.2537 1273 105.77 1172.67 465.511
754 0 113.118 11.2714 1275 150.521 1172.67 465.48
755 0 120.128 11.0798 1331 105.128 1172.33 462.316
756 0 125.187 11.2232 1405 105.232 1172.32 458.804
757 0 127.149 11.7972 1500 104.297 1173.26 454.572
758 1 65.1079 8.61647 561 95.6684 1173.18 486.731
759 0 71.0839 9.96006 708 93.137 1173.52 489.201
760 0 73.0958 10.2331 748 93.9345 1173.41 487.444
761 0 69.0308 9.63338 665 91.4797 1172.69 481.573
762 0 66.0203 8.8912 587 94.937 1173.34 479.963
763 0 75.0352 7.76969 583 96.3876 1172.78 479.722
764 0 75.0581 9.56592 718 93.8343 1172.75 478.276
765 0 81.0687 9.06638 735 95.9442 1172.42 477.441
766 0 83.0702 9.70264 806 96.1898 1172.17 476.168
767 0 85.0832 9.90795 843 98.9834 1172.53 479.871
768 0 90.0641 10.548 950 102.424 1172.51 484.995
769 0 95.0562 11.3722 1081 99.9954 1172.19 482.716
770 0 96.0656 11.3048 1086 103.25 1171.52 481.983
771 0 98.0576 11.0445 1083 105.288 1172.32 480.251
772 0 101.103 10.8009 1092 106.86 1172.83 478.92
773 0 104.069 11.1369 1159 103.912 1172.35 477.865
774 0 106.098 11.5083 1221 103.087 1172.6 476.612
775 0 110.108 11.7612 1295 103.7 1172.58 474.273
776 0 112.099 11.579 1298 107.067 1172.69 470.968
777 0 115.092 11.582 1333 107.792 1172.56 470.596
778 1 67.09 10.2251 686 112.856 1172.13 496.332
779 0 69.0891 9.88578 683 114.611 1171.39 495.078
780 0 70.0959 10.5712 741 112.68 1171.62 492.804
781 0 73.146 11.4839 840 111.737 1172.42 493.124
782 0 65.064 9.54445 621 107.62 1174.15 481.768
783 0 73.0304 9.98214 729 105.339 1173.82 481.981
784 0 74.0557 10.4111 771 105.495 1173.73 482.375
785 0 77.0642 9.60238 740 107.405 1173.26 480.786
786 0 81.0655 10.1153 820 106.941 1173.6 479.393
787 0 81.078 10.1137 820 108.224 1173.34 479.489
788 0 83.0605 10.0048 831 107.398 1172.74 476.017
789 0 87.1149 11.0658 964 103.546 1174.48 475.475
790 0 90.0686 10.7696 970 106.064 1174.73 474.791
791 0 92.101 11.6285 1071 104.475 1175.24 475.648
792 0 95.0333 11.7327 1115 116.541 1174.23 474.353
793 0 99.0785 13.0099 1289 118.576 1173.96 478.348
794 0 103.151 13.0101 1342 118.762 1174.45 475.943
795 0 106.07 13.0857 1388 117.001 1173.98 473.721
796 0 107.039 12.8084 1371 120.319 1173.39 473.189
797 1 57.0658 10.3214 589 115.367 1173.58 500.525
798 0 57.0399 9.95795 568 114.803 1173.26 499.785
799 0 58.0275 10.5812 614 106.52 1173.62 499.257
800 0 59.0719 11.4606 677 96.6115 1174.05 500.226
801 0 59.0446 10.7038 632 107.87 1175.29 500.422
802 0 60.0584 10.906 655 105.131 1175.06 500.831
803 0 61.0276 10.7984 659 105.687 1174.34 499.171
804 0 64.0509 10.5229 674 104.316 1174.39 499.065
805 0 65.0361 10.5941 689 104.424 1173.61 498.507
806 0 67.0508 10.9469 734 102.834 1173.71 496.866
807 0 67.049 10.1717 682 100.202 1173.53 497.035
808 0 71.0506 10.8373 770 97.8065 1173.27 496.318
809 0 73.0988 10.6568 779 98.1823 1173.43 495.678
810 0 74.1444 10.8302 803 97.1731 1173.21 493.092
811 0 78.069 11.2977 882 96.8605 1173.05 493.981
812 0 78.0622 10.402 812 100.385 1173.16 492.597
813 0 79.0543 10.2082 807 99.9145 1173.04 491.04
814 0 83.0936 11.0358 917 97.325 1173.2 490.723
815 0 85.0774 10.6726 908 98.4548 1172.88 491.113
816 0 87.0826 10.8518 945 99.2286 1172.62 489.407
817 0 88.0816 11.1033 978 100.331 1172.91 487.698
818 0 90.0932 10.7888 972 101.272 1172.47 487.587
819 0 92.0903 10.6092 977 103.892 1172.3 484.314
820 0 94.0793 10.9163 1027 102.845 1172.04 483.387
821 0 97.0732 11.1153 1079 104.176 1173.04 482.321
822 0 101.052 11.9741 1210 100.426 1172.58 480.255
823 0 107.073 12.767 1367 97.8778 1173.31 477.219
824 0 107.122 11.8837 1273 99.3056 1173.03 475.795
825 0 111.157 12.127 1348 98.7782 1172.81 477.564
826 0 113.211 12.0306 1362 98.2269 1172.76 475.868
827 0 116.056 11.5203 1337 95.1982 1171.34 473.847
828 0 121.082 11.8515 1435 92.7652 1171.55 472.857
829 0 122.183 11.1554 1363 94.4021 1171.48 470.185
830 0 126.096 11.1978 1412 93.92 1172.26 470.008
831 0 131.226 11.4002 1496 91.9425 1171.34 465.249
832 0 137.129 11.6606 1599 94.4409 1172.12 464.323
833 0 137.127 11.6315 1595 134.717 1173.12 464.315
834 1 77.1814 10.3134 796 90.7249 1171.72 495.157
835 0 80.0682 10.566 846 86.5591 1172.13 493.967
836 0 82.0371 10.8 886 83.6591 1171.96 491.967
837 0 83.0418 10.6934 888 84.7522 1171.86 490.571
838 0 86.0366 10.7745 927 85.2848 1171.52 488.636
839 0 87.0597 10.2573 893 86.1724 1171.77 489.923
840 0 91.0871 10.5943 965 86.7596 1170.96 486.23
841 0 94.0685 10.0565 946 87.7051 1171.27 484.021
842 0 97.0901 10.8559 1054 87.2581 1171.03 481.578
843 0 99.0848 10.6374 1054 87.7799 1170.93 479.064
844 0 100.118 11.0469 1106 86.123 1171.04 476.684
845 0 105.102 10.78 1133 90.4528 1171.5 475.177
846 1 54.0328 8.99454 486 84.2016 1171.11 501.7
847 0 56.0962 9.76894 548 84.1442 1171.32 499.542
848 0 60.0386 10.2934 618 83.3091 1170.95 498.934
849 0 61.0694 10.7582 657 83.9026 1170.93 496.805
850 0 65.0105 11.7058 761 81.1393 1171.62 498.714
851 0 63.0303 11.2327 708 85.2246 1171.95 498.53
852 0 65.0657 11.1272 724 85.5856 1172.57 497.691
853 0 66.0432 10.4174 688 87.5174 1172.23 496.91
854 0 68.052 10.154 691 88.7612 1172.24 496.243
855 0 70.0704 10.3896 728 88.0082 1172.2 493.663
856 0 73.0923 10.7262 784 87.0969 1172.09 493.855
857 0 73.0941 10.5344 770 89.2325 1172.78 491.983
858 0 77.0299 11.489 885 88.2599 1172.58 490.122
859 0 78.0752 11.6298 908 88.8535 1171.61 488.728
860 0 82.0354 11.5316 946 88.8087 1172.55 489.259
861 0 86.1017 12.0091 1034 86.5899 1171.76 488.289
862 0 85.1004 11.1868 952 90.4779 1172.33 488.356
863 0 86.0656 11.4912 989 91.0748 1172.1 486.231
864 0 90.0796 11.8895 1071 90.0514 1171.9 483.999
865 0 92.0586 11.5579 1064 93.015 1171.83 482.942
866 0 94.0663 12.0979 1138 93.8199 1172.57 482.478
867 0 97.1698 11.732 1140 94.45 1172.2 481.663
868 0 99.0971 12.0286 1192 95.7643 1171.92 478.308
869 0 103.057 12.6532 1304 98.1143 1171.82 477.296
870 0 103.165 12.1166 1250 101.301 1170.87 477.134
871 0 105.141 12.7353 1339 101.775 1170.52 475.588
872 0 109.216 12.8278 1401 103.671 1170.54 472.886
873 0 107.067 11.2453 1204 95.8081 1171.48 466.446
874 0 111.068 11.4164 1268 94.4937 1172.07 466.003
875 0 113.055 11.4635 1296 95.8333 1172.12 464.443
876 0 116.05 11.2193 1302 95.3971 1171.37 461.464
877 0 118.181 11.7109 1384 99.1655 1171.19 459.71
878 0 122.094 11.9662 1461 99.5777 1172.08 458.669
879 0 128.096 12.7483 1633 101.048 1171.61 456.374
880 0 134.14 12.7554 1711 100.643 1171.78 454.618
881 1 70.1096 9.49942 666 94.1096 1171.19 483.042
882 0 72.0279 10.01 721 94.828 1171.23 479.788
883 0 75.0878 10.0549 755 93.2344 1170.97 484.678
884 0 79.0849 10.2801 813 87.8844 1171.86 491.422
885 0 82.0415 10.58 868 89.5138 1171.53 487.47
886 0 84.0864 10.5606 888 89.8052 1172.1 487.66
887 0 86.0965 10.5579 909 91.2156 1172.17 485.416
888 0 88.0564 10.3229 909 92.6051 1171.67 485.444
889 0 91.0813 11.1659 1017 95.2448 1171.76 485.047
890 0 94.087 11.1918 1053 89.4767 1171.23 481.31
891 0 97.0831 10.8876 1057 91.2554 1171.33 479.062
892 0 100.129 10.8959 1091 94.2997 1171.27 478.557
893 0 103.128 11.1512 1150 95.5487 1170.94 478.316
894 0 105.102 11.0179 1158 96.2487 1171.22 475.976
895 0 109.175 11.9991 1310 93.4137 1172.05 473.309
896 0 111.063 10.8317 1203 93.9493 1172.51 472.902
897 0 115.102 11.9894 1380 90.2478 1172.5 469.902
898 0 119.088 12.1591 1448 90.8011 1172.19 469.603
899 0 122.081 11.9183 1455 93.6632 1171.92 468.032
900 0 125.195 12.0053 1503 95.2329 1172.29 467.101
901 0 130.106 12.7742 1662 96.7341 1172.88 464.654
902 0 133.118 12.0945 1610 100.143 1173.41 463.717
903 0 139.198 13.5849 1891 111.501 1172.71 457.255
904 0 141.198 13.3926 1891 110.851 1173.48 455.206
905 0 144.297 13.5762 1959 111.555 1173.73 453.141
906 0 149.173 13.3469 1991 111.28 1173.2 450.006
907 0 154.209 13.2677 2046 108.957 1173.34 448.827
908 0 158.165 13.1887 2086 108.559 1173.22 444.093
909 0 163.184 13.2427 2161 108.241 1172.63 440.899
910 0 166.205 12.6109 2096 110.57 1172.66 437.25
911 0 173.251 12.8253 2222 109.299 1172.49 437.702
912 0 176.19 13.3719 2356 107.643 1172.13 435.162
913 0 182.151 12.8136 2334 110.456 1172.54 431.934
914 0 187.15 12.8988 2414 111.215 1173.02 430.273
915 0 191.138 12.3419 2359 113.507 1172.83 427.749
916 0 197.185 12.9067 2545 113.419 1173.23 425.729
917 0 203.2 13.0463 2651 114.933 1172.31 423.911
918 0 208.178 13.1042 2728 116.139 1172.94 418.47
919 0 214.239 13.9237 2983 114.825 1172.42 415.334
920 0 218.173 12.976 2831 118.063 1172.05 412.638
921 0 218.332 11.5283 2517 119.875 1171.85 418.049
922 1 171.226 11.3534 1944 115.145 1171.63 440.567
923 0 175.255 11.7429 2058 115.36 1171.53 436.456
924 0 181.177 12.623 2287 112.728 1172.15 434.004
925 0 184.176 12.2817 2262 113.312 1171.93 434.514
926 0 190.211 12.1497 2311 114.451 1171.78 428.556
927 0 197.157 12.3151 2428 114.921 1171.69 429.932
928 0 203.252 12.2508 2490 115.5 1171.49 421.777
929 0 207.189 12.3703 2563 113.898 1171.88 416.53
930 0 212.262 12.1501 2579 113.728 1171 417.122
931 0 222.357 12.6373 2810 112.21 1170.28 413.557
932 0 228.286 12.8085 2924 112.04 1170.48 409.236
933 0 236.322 12.9654 3064 110.946 1171.13 404.856
934 0 242.365 12.8855 3123 110.249 1170.69 402.928
935 0 247.32 13.1611 3255 110.681 1170.61 399.259
936 0 255.467 12.6905 3242 111.717 1170.17 395.689
937 0 265.507 12.704 3373 112.237 1170.15 392.955
938 0 273.472 12.8715 3520 112.585 1169.65 386.379
939 0 281.484 12.7929 3601 112.226 1169.56 384.365
940 0 289.46 12.9413 3746 111.569 1169.86 380.268
941 0 294.451 13.9684 4113 108.223 1169.11 371.522
942 0 305.508 14.8834 4547 105.351 1169.8 370.026
943 0 313.41 14.556 4562 107.036 1169.72 367.519
944 0 323.513 14.5991 4723 107.77 1169.64 362.325
945 0 332.424 14.6169 4859 107.322 1170 359.345
946 0 342.457 14.5303 4976 107.895 1169.42 357.343
947 1 292.383 12.0151 3513 111.071 1169.89 395.456
948 0 300.307 12.5471 3768 110.11 1170.12 385.985
949 0 310.456 12.5267 3889 111.967 1170.06 380.482
950 0 317.516 15.7693 5007 102.881 1169.79 368.875
951 0 326.517 15.1784 4956 112.214 1170.12 366.361
952 0 336.509 15.4736 5207 112.639 1170.47 357.62
953 1 61.2018 9.11738 558 98.6936 1171.14 501.07
954 0 64.2225 9.31138 598 100.224 1170.55 497.948
955 0 67.182 9.97291 670 101.349 1170.74 496.937
956 0 67.3214 11.0663 745 93.7248 1170.93 491.337
957 0 69.2146 11.1682 773 95.4101 1171.34 492.027
958 0 72.3302 10.7009 774 95.438 1171.15 489.482
959 0 74.0861 11.5271 854 96.1827 1170.09 479.753
960 0 397.933 11.9995 4775 129.242 1170.76 282.327
961 0 398.149 12.425 4947 130.424 1170.64 282.059
962 0 399.164 13.9717 5577 124.148 1171.47 282.63
963 0 392.294 13.6607 5359 127.445 1171.51 283.449
964 0 388.388 9.92565 3855 122.348 1171.69 271.95
965 0 382.182 9.26521 3541 122.688 1171.63 273.858
966 0 396.709 9.8208 3896 117.883 1171.72 276.602
967 0 396.57 10.2554 4067 114.931 1171.41 280.411
968 0 394.399 9.73633 3840 119.126 1171.75 278.846
969 0 97.1877 13.654 1327 83.3082 1171.6 472.326
970 1 56.1318 9.86964 554 85.3466 1170.95 495.065
971 0 57.2827 10.6489 610 86.9836 1171.44 496.066
972 0 57.2347 10.3608 593 93.6172 1171.7 494.469
973 0 61.1106 10.6855 653 86.5406 1172.08 494.694
974 0 61.0928 10.4759 640 78.9719 1170.84 500.903
975 0 62.0941 10.0332 623 79.6517 1172.06 502.246
976 0 62.0626 10.1994 633 80.2401 1172.12 502.051
977 0 65.0454 10.2698 668 80.6422 1172.34 500.545
978 0 66.0476 10.4167 688 81.109 1171.39 500.517
979 0 68.1118 9.4844 646 90.6827 1172.79 499.313
980 0 70.04 10.8224 758 90.6992 1172.24 498.451
981 0 73.1093 11.5854 847 90.6635 1172.94 497.344
982 0 73.0983 11.5735 846 82.9657 1172.21 495.465
983 0 76.056 12.6223 960 93.8396 1172.75 494.021
984 0 76.1257 11.0738 843 84.9786 1172.76 495.561
985 0 80.0843 11.3006 905 85.295 1172.28 491.891
986 0 81.0735 11.4834 931 85.8636 1172.06 490.125
987 0 85.0577 11.6392 990 85.5828 1172.96 490.834
988 0 86.1385 11.8298 1019 85.9146 1172.88 487.764
989 0 89.0499 12.3189 1097 86.3482 1171.91 487.748
990 0 91.0552 12.3991 1129 87.8468 1172.54 484.788
991 0 94.1836 12.465 1174 87.3015 1171.97 482.796
992 0 96.4239 12.1547 1172 87.8788 1171.54 478.72
993 0 99.2816 12.2278 1214 88.9242 1171.17 474.708
994 0 102.313 11.8753 1215 90.8362 1171.76 473.728
995 0 106.253 11.7549 1249 90.9848 1171.45 470.909
996 0 109.27 11.8879 1299 91.4034 1171.51 470.074
997 0 111.257 12.3228 1371 91.7075 1171.37 468.212
998 0 114.206 12.2936 1404 93.0164 1172.07 467.173
999 1 58.0537 10.3008 598 85.4666 1172.32 501.212
1000 0 57.0427 9.93992 567 86.7707 1172.82 497.079
1001 0 58.0157 9.42849 547 85.4388 1172.64 494.722
1002 0 60.0899 11.1167 668 83.2455 1172.24 498.614
1003 0 63.1014 10.8239 683 83.7482 1172.42 497.006
1004 0 65.1162 10.1664 662 85.9184 1172.27 496.23
1005 0 66.0609 10.6871 706 85.1147 1173.09 496.503
1006 0 69.1069 11.9091 823 82.3524 1173.63 495.068
1007 0 72.0655 11.2953 814 83.4816 1173.57 494.913
1008 0 72.0756 11.6267 838 84.0167 1173.85 493.532
1009 0 75.0681 12.0824 907 82.9493 1173.7 494.222
1010 0 76.1036 11.7603 895 86.1877 1173.55 492.104
1011 0 80.0397 12.2439 980 84.2724 1173.69 491.552
1012 0 81.0704 11.1385 903 87.1462 1174.19 489.814
1013 0 83.0903 12.2397 1017 84.5447 1173.55 488.206
1014 0 86.0444 11.5522 994 86.5754 1173.24 486.099
1015 0 88.0507 11.8568 1044 85.4866 1173.51 484.812
1016 0 91.1079 12.0736 1100 83.9255 1173.66 484.505
1017 0 93.0627 12.2713 1142 85.7653 1172.92 483.37
1018 0 96.0542 11.8162 1135 86.5938 1173.62 481.7
1019 0 98.085 12.3872 1215 87.0263 1173.87 481.97
1020 0 101.029 12.1253 1225 88.4824 1173.81 478.277
1021 0 103.062 12.5556 1294 88.2411 1174.31 477.102
1022 0 106.072 12.3595 1311 92.0206 1174.43 476.894
1023 0 108.11 12.5335 1355 91.4177 1174.49 475.041
1024 0 110.095 11.4265 1258 93.2878 1175.19 471.551
1025 0 117.052 12.8319 1502 89.6538 1174.22 471.06
1026 0 119.056 11.902 1417 95.5759 1174.16 468.163
1027 1 64.0204 10.934 700 85.23 1173.57 497.943
1028 0 67.0422 10.9185 732 82.0929 1173.06 496.65
1029 0 69.1033 12.0544 833 80.012 1171.77 493.112
1030 0 71.1295 11.4439 814 81.9754 1171.89 492.251
1031 0 72.1109 11.9399 861 85.8908 1171.97 493.776
1032 0 77.1212 12.3961 956 91.5387 1171.37 492.836
1033 0 79.1767 12.4026 982 92.0255 1171.93 491.601
1034 0 82.1445 12.4415 1022 93.3004 1172.18 490.192
1035 0 83.0991 12.5753 1045 92.712 1171.49 488.765
1036 0 85.1704 12.7861 1089 92.9495 1171.96 487.629
1037 0 89.153 12.8543 1146 93.9337 1172.04 485.916
1038 0 89.1508 12.2265 1090 97.4881 1171.82 483.769
1039 0 91.1282 12.0709 1100 96.8191 1171.79 483.664
1040 0 93.1726 11.0118 1026 87.5585 1171.65 485.583
1041 0 93.1545 10.6597 993 88.0957 1172.29 482.981
1042 0 99.0726 11.1433 1104 85.7736 1172.61 482.283
1043 0 100.106 11.0483 1106 89.6157 1172.41 480.019
1044 0 104.141 10.9851 1144 88.8864 1171.95 478.645
1045 0 108.165 11.7506 1271 90.3171 1171.47 477.635
1046 0 112.099 11.4809 1287 89.5128 1171.46 476.559
1047 1 57.0324 11.0989 633 82.8626 1173.56 498.215
1048 0 61.0728 11.1834 683 80.9927 1173.16 497.233
1049 0 63.0868 11.3653 717 82.4547 1172.56 499.155
1050 0 65.0873 11.2925 735 80.7469 1172.99 499.348
1051 0 67.0394 12.0824 810 79.3691 1172.86 498.457
1052 0 70.0806 11.2014 785 80.028 1173.32 497.262
1053 0 72.0635 11.8229 852 78.9883 1173.56 496.898
1054 0 73.0706 11.4821 839 84.4017 1173.1 494.872
1055 0 72.0708 11.3361 817 87.3929 1173.17 498.317
1056 0 73.0791 10.9607 801 91.5718 1173.46 494.989
1057 0 76.0508 10.7823 820 91.6317 1173.63 494.999
1058 0 76.044 10.4413 794 94.3174 1173.53 493.412
1059 0 79.0348 11.2988 893 92.748 1173.43 492.698
1060 0 80.0399 10.8946 872 93.8979 1173.7 491.303
1061 0 80.0399 10.8571 869 130.725 1173.71 491.413
1062 0 86.0819 10.7456 925 95.067 1173.4 490.41
1063 0 86.0686 10.5265 906 98.1634 1172.88 489.41
1064 0 90.0684 10.3255 930 97.2774 1172.74 486.387
1065 0 93.0517 11.1981 1042 96.8167 1172.92 484.39
1066 1 48.0436 9.92847 477 98.956 1173.52 506.3
1067 0 53.0749 11.1164 590 98.4203 1173.47 505.763
1068 0 50.1224 9.71622 487 92.3593 1173.02 501.889
1069 0 54.1914 11.6255 630 102.53 1173.06 503.989
1070 0 57.0772 11.7035 668 102.281 1172.03 503.271
1071 0 58.0948 12.0493 700 102.659 1172.26 502.714
1072 0 59.0841 11.5598 683 104.542 1172.68 502.208
1073 0 59.1387 11.1771 661 105.914 1172.3 501.101
1074 0 63.1765 12.4097 784 100.668 1172.59 500.342
1075 0 63.1368 11.483 725 105.47 1172.71 499.963
1076 0 68.1968 11.9507 815 102.09 1172.58 498.926
1077 0 70.2058 11.5945 814 104.022 1172.82 497.022
1078 0 71.158 12.3528 879 103.038 1173.02 496.268
1079 0 74.126 12.1954 904 103.083 1173 495.767
1080 0 75.1252 12.0066 902 105.859 1172.81 494.207
1081 0 76.1085 12.3771 942 105.908 1172.84 491.314
1082 0 81.1134 12.2791 996 106.019 1172.39 491.739
1083 0 81.1397 12.386 1005 108.872 1172.48 489.475
1084 0 84.0962 12.4619 1048 109.249 1172.25 488.116
1085 0 87.0893 12.0681 1051 110.427 1172.51 488.009
1086 0 88.1016 12.3494 1088 111.426 1171.97 485.858
1087 1 45.0585 10.1202 456 108.268 1173.4 509.268
1088 0 47.1913 10.6587 503 108.37 1173.47 507.656
1089 0 48.2608 11.3343 547 122.205 1172.95 508.066
1090 0 50.0583 10.2481 513 113.218 1172.3 504.107
1091 0 50.0322 11.5725 579 102.926 1172.95 506.891
1092 0 53.0261 10.9757 582 104.639 1172.9 507.218
1093 0 51.0466 11.4405 584 105.685 1172.84 506.755
1094 0 55.085 11.6547 642 103.974 1172.67 505.52
1095 0 55.0798 11.4924 633 105.739 1172.51 504.63
1096 0 57.1061 11.3123 646 103.457 1172.46 504.449
1097 0 59.0644 11.479 678 103.164 1172.59 504.749
1098 0 60.0907 11.7156 704 103.26 1172.7 503.371
1099 0 61.0324 11.4202 697 103.877 1174.85 505.594
1100 0 64.0576 11.7551 753 102.039 1174 504.262
1101 0 68.0363 11.9789 815 100.33 1173.19 504.037
1102 0 68.1275 12.6087 859 99.2491 1173.78 501.594
1103 0 70.0524 12.248 858 100.939 1173.01 499.855
1104 0 71.0388 11.3881 809 104.98 1173.09 498.813
1105 0 74.0296 12.1303 898 103.763 1173.54 498.021
1106 0 77.0417 11.7209 903 105.8 1172.58 497.352
1107 0 80.0717 12.6387 1012 101.714 1172.67 494.443
1108 1 40.023 10.0942 404 108.097 1172.58 513.963
1109 0 43.0521 10.6847 460 105.841 1172.93 513.687
1110 0 42.0221 10.7324 451 107.437 1172.49 513.727
1111 0 44.051 11.3278 499 109.313 1172.57 512.511
1112 0 46.032 11.5355 531 105.292 1170.64 511.047
1113 0 44.1524 12.2304 540 106.356 1171.37 510.898
1114 0 47.0822 12.3614 582 103.467 1172.17 511.306
1115 0 50.0925 12.6167 632 101.761 1171.77 510.725
1116 0 50.0918 11.6786 585 106.897 1171.56 508.556
1117 0 51.0912 11.9394 610 105.772 1171.94 508.161
1118 0 52.1536 12.0222 627 106.695 1172.27 508.057
1119 0 51.0299 11.9538 610 107.38 1172.57 508.989
1120 0 52.0731 11.0998 578 106.061 1172.73 509.64
1121 0 55.0555 11.661 642 104.097 1172.5 508.755
1122 0 55.0312 11.3935 627 106.477 1172.56 507.265
1123 0 57.0307 11.5727 660 106.848 1172.69 506.58
1124 0 57.1153 11.6431 665 108.483 1172.29 506.925
1125 0 59.038 11.5349 681 109.119 1172.09 505.946
1126 0 61.0262 11.8638 724 109.278 1172.33 504.892
1127 0 63.028 11.6297 733 109.876 1172.01 504.123
1128 0 65.067 12.1106 788 109.59 1173.16 503.594
1129 0 64.0284 11.7916 755 112.571 1173.39 501.424
1130 0 66.0795 11.8796 785 111.792 1173.42 500.92
1131 0 67.0282 12.0994 811 112.671 1173.01 500.079
1132 0 71.0316 12.0369 855 111.834 1172.95 499.171
1133 0 73.0221 12.0101 877 112.846 1172.62 497.591
1134 0 75.0823 12.413 932 112.556 1172.64 496.042
1135 0 74.0173 12.2809 909 115.905 1172.96 495.205
1136 0 77.052 12.9004 994 114.788 1172.35 495.005
1137 0 81.0614 13.1135 1063 114.783 1172.6 493.412
1138 0 84.047 13.1236 1103 115.519 1172.46 492.364
1139 0 84.0299 13.2691 1115 117.741 1172.32 490.126
1140 0 88.0786 12.8862 1135 122.181 1172.57 489.669
1141 0 90.0632 13.868 1249 125.963 1172.63 489.772
1142 0 94.0959 14.007 1318 126.048 1172.49 489.008
1143 0 94.1363 13.7567 1295 130.082 1172.28 487.372
1144 0 98.0832 13.8658 1360 131.191 1172.08 486.062
1145 0 102.059 14.1781 1447 130.726 1172.08 484.563
1146 0 103.116 14.3916 1484 134.706 1172.33 481.948
1147 0 107.139 14.9898 1606 133.488 1172.25 481.184
1148 0 110.176 14.2952 1575 137.18 1172.27 478.954
1149 0 112.171 14.7007 1649 137.252 1171.56 476.777
1150 0 114.118 14.669 1674 121.717 1172.27 477.103
1151 0 117.092 14.5782 1707 122.682 1171.96 475.802
1152 0 120.196 14.5096 1744 123.483 1172.3 472.509
1153 0 125.178 14.8988 1865 123.872 1171.6 471.779
1154 0 127.199 15.1809 1931 124.61 1171.55 469.705
1155 0 131.172 14.6372 1920 127.047 1170.95 467.104
1156 0 135.099 15.0038 2027 126.706 1171.56 465.775
1157 0 139.122 15.0515 2094 126.643 1171.63 464.569
1158 0 142.1 14.9473 2124 130.015 1171.52 462.747
1159 0 147.182 14.9406 2199 127.504 1171.65 460.019
1160 0 151.098 14.3615 2170 128.814 1172.13 459.171
1161 0 155.082 14.5987 2264 131.547 1171.88 455.402
1162 0 161.084 15.315 2467 128.439 1171.16 454.174
1163 0 165.138 15.3447 2534 129.064 1171.82 451.257
1164 1 72.132 11.7146 845 121.652 1171.26 499.147
1165 0 74.0895 12.2554 908 120.716 1171.58 496.545
1166 0 75.0395 12.8199 962 123.366 1171.44 496.224
1167 0 76.1211 12.4801 950 128.213 1170.91 495.112
1168 0 80.1101 12.3954 993 126.167 1170.47 494.682
1169 0 81.0377 12.3153 998 128.852 1171.24 493.225
1170 0 84.1138 12.6495 1064 128.641 1171.52 493.633
1171 0 87.1342 13.0718 1139 128.351 1171.57 491.522
1172 0 89.0469 12.4204 1106 129.437 1171.4 490.533
1173 0 92.0744 12.5442 1155 128.216 1171.29 489.669
1174 0 96.0651 12.3458 1186 128.856 1171.36 487.984
1175 0 97.1044 12.4608 1210 127.521 1172.25 486.163
1176 0 100.161 12.5597 1258 128.509 1171.45 484.118
1177 0 104.131 12.9357 1347 128.832 1171.37 481.114
1178 0 105.066 12.9727 1363 130.464 1170.74 480.752
1179 0 109.142 12.7449 1391 132.679 1170.99 477.815
1180 0 112.141 13.1353 1473 134.012 1171.12 477.379
1181 0 116.132 13.4243 1559 132.165 1171.31 474.037
1182 0 120.11 12.8465 1543 132.022 1171.7 473.815
1183 0 124.16 13.1201 1629 134.152 1171.38 472.928
1184 0 127.178 12.8639 1636 133.112 1171.83 469.454
1185 0 131.11 12.6077 1653 132.914 1171.09 469.207
1186 0 137.134 13.3592 1832 131.489 1171.22 465.07
1187 0 140.192 12.9322 1813 131.65 1171.49 463.377
1188 1 70.1137 11.1248 780 127.304 1171.59 499.427
1189 0 69.123 11.2698 779 133.317 1171.55 496.302
1190 0 73.0883 12.0402 880 125.823 1171.87 496.441
1191 0 74.1127 11.523 854 125.835 1171.39 494.987
1192 0 78.0502 11.672 911 125.703 1171.53 493.611
1193 0 81.0651 11.7437 952 125.104 1171.39 493.447
1194 0 82.039 11.8968 976 126.89 1171.88 490.799
1195 0 85.0523 11.7222 997 131.01 1171.63 489.94
1196 0 87.1453 12.1292 1057 128.75 1171.52 488.331
1197 0 90.1039 12.3302 1111 127.024 1171.55 484.743
1198 0 93.1762 12.2993 1146 125.365 1171.04 484.802
1199 0 97.2054 12.2936 1195 124.223 1171.2 482.898
1200 0 101.146 12.2299 1237 122.537 1171.05 480.939
1201 0 103.126 12.509 1290 122.809 1171.56 478.342
1202 0 105.158 11.8203 1243 123.58 1171.33 476.619
1203 0 108.222 12.2434 1325 122.183 1170.67 474.978
1204 0 110.21 12.2947 1355 123.089 1171.05 473.186
1205 0 115.295 12.1514 1401 124.443 1171.21 472.286
1206 0 117.322 11.7455 1378 126.062 1171.18 468.675
1207 0 122.31 12.0187 1470 126.21 1171.69 467.623
1208 0 126.318 11.9382 1508 127.123 1170.99 465.479
1209 0 128.267 11.9594 1534 131.057 1171.48 464.175
1210 0 132.219 12.5549 1660 130.917 1170.74 463.167
1211 0 138.241 13.3535 1846 126.375 1171.17 462.764
1212 0 142.313 13.0698 1860 126.396 1170.73 460.578
1213 0 146.273 13.0919 1915 126.209 1171.17 458.19
1214 0 149.25 13.1927 1969 128.284 1170.67 457.062
1215 0 153.184 13.3369 2043 128.723 1171.24 455.035
1216 0 158.226 13.487 2134 128.78 1170.89 452.99
1217 0 163.322 13.3969 2188 129.985 1171.57 451.856
1218 0 168.208 13.5724 2283 128.159 1170.99 449.536
1219 0 173.251 13.6911 2372 128.063 1171.11 446.876
1220 0 177.3 13.4461 2384 129.08 1171.29 443.849
1221 0 183.205 13.1929 2417 128.885 1170.97 442.185
1222 0 188.335 12.807 2412 130.776 1170.44 436.886
1223 0 194.271 13.5224 2627 128.838 1170.95 433.799
1224 0 199.266 13.2336 2637 129.857 1171.75 429.295
1225 0 207.319 13.033 2702 132.505 1171.56 427.701
1226 0 212.258 13.592 2885 133.827 1171.52 421.945
1227 1 44.0444 9.14986 403 111.261 1169.84 510.27
1228 0 45.0319 10.0151 451 108.922 1170.76 510.488
1229 0 41.1201 9.53305 392 98.6122 1170.66 510.893
1230 0 48.1821 11.4358 551 88.6824 1172.61 505.949
1231 0 50.131 11.1907 561 89.5918 1172.88 505.476
1232 0 48.055 9.90533 476 96.1492 1172.42 505.439
1233 0 47.0747 9.0282 425 100.059 1172.61 508.235
1234 0 50.0808 9.285 465 98.8301 1171.91 508.422
1235 0 50.0301 9.89405 495 101.667 1171.83 508.202
1236 0 52.0145 10.2087 531 101.311 1172.22 507.224
1237 0 54.0904 10.464 566 100.989 1172.45 506.855
1238 0 55.0452 10.7003 589 100.577 1172.15 505.314
1239 0 56.0293 10.4231 584 101.945 1172.35 505.687
1240 0 58.0705 10.4184 605 102.889 1172.25 504.688
1241 0 60.059 10.9226 656 98.0732 1172.33 503.386
1242 0 60.0376 11.4595 688 98.3154 1171.84 501.704
1243 0 62.0537 10.5876 657 99.8295 1172.22 502.091
1244 0 59.0164 9.60749 567 105.023 1171.81 502.377
1245 0 62.0306 10.1079 627 104.287 1172.12 501.475
1246 0 66.0471 10.1291 669 103.635 1172.62 501.679
1247 0 67.0342 10.1292 679 105.287 1172.56 499.791
1248 0 69.0303 9.90869 684 105.709 1172.41 499.554
1249 0 70.0362 10.0805 706 105.659 1172.15 496.853
1250 0 74.0488 10.2635 760 103.924 1171.96 496.07
1251 0 76.1164 10.4839 798 100.174 1170.56 493.607
1252 0 77.1244 10.6322 820 97.0732 1172.77 493.92
1253 0 81.0621 10.4734 849 104.68 1173.35 492.481
1254 0 83.1136 10.9489 910 103.756 1174.15 491.209
1255 0 83.0788 10.4238 866 106.874 1174.41 491.357
1256 0 85.0866 10.3071 877 109.53 1173.58 489.607
1257 1 47.0142 9.52904 448 105.19 1173.52 508.705
1258 0 49.0201 9.7511 478 109.406 1170.99 506.37
1259 0 53.0322 11.6533 618 101.421 1170.6 507.6
1260 0 49.0495 9.15401 449 84.4566 1172.69 500.699
1261 0 50.0112 10.2177 511 79.6321 1172.03 501.73
1262 0 48.1291 8.1032 390 84.7718 1171.76 502.162
1263 0 51.0263 8.40743 429 84.0769 1171.5 501.904
1264 0 51.0293 8.17178 417 86.0576 1172.04 500.305
1265 0 53.0138 8.79017 466 85.706 1172.4 499.624
1266 0 52.0199 8.41985 438 88.1964 1172.66 499.998
1267 0 55.0312 8.72233 480 86.4583 1172.54 500.642
1268 0 55.0372 9.46632 521 86.1497 1172.39 499.322
1269 0 56.0236 8.97837 503 88.1352 1172.5 498.453
1270 0 57.0171 8.61145 491 89.947 1171.92 497.542
1271 0 57.0222 9.43493 538 89.8513 1171.55 496.66
1272 0 61.0287 9.65119 589 89.6638 1171.52 495.299
1273 0 63.0769 9.82928 620 90.0258 1172.32 495.198
1274 0 63.0159 9.23576 582 93.5 1171.57 494.861
1275 0 67.0295 10.4581 701 94.8773 1171.89 497.407
1276 0 69.0184 11.6346 803 99.655 1171.78 499.74
1277 0 71.0564 11.2727 801 100.571 1171.82 496.974
1278 0 74.0371 11.5888 858 99.7716 1171.99 496.196
1279 0 74.0394 11.0887 821 100.923 1171.77 496.415
1280 0 78.0481 11.352 886 99.9176 1172.11 493.462
1281 0 79.0481 11.7776 931 100.029 1172.09 492.03
1282 0 81.0496 11.6102 941 100.847 1171.89 492.24
1283 0 83.0647 11.9305 991 99.9738 1172.12 491.539
1284 0 86.0416 11.6107 999 103.498 1172.76 489.643
1285 0 90.0468 11.7828 1061 103.998 1172.39 487.52
1286 0 92.0154 12.4544 1146 101.812 1172.37 485.565
1287 0 94.0561 11.5357 1085 105.217 1172.91 485.092
1288 0 98.0793 12.7958 1255 103.098 1172.64 484.952
1289 0 100.142 12.682 1270 106.238 1172.67 484.028
1290 0 102.122 12.5046 1277 106.489 1172.14 482.962
1291 0 104.082 12.4901 1300 105.965 1172.91 481.39
1292 0 107.099 12.2596 1313 105.008 1172.48 478.315
1293 0 110.13 12.6124 1389 104.289 1172.47 479.751
1294 0 115.128 13.0376 1501 104.876 1171.89 475.061
1295 0 117.07 12.5651 1471 108.313 1171.4 471.985
1296 1 63.0528 10.5626 666 107.218 1171.57 500.471
1297 0 64.0617 11.2548 721 106.234 1171.72 498.542
1298 0 67.0755 12.0014 805 103.231 1171.72 497.075
1299 0 69.096 11.9978 829 103.601 1171.11 497.24
1300 0 72.0604 12.1426 875 103.29 1170.81 495.737
1301 0 73.0518 11.8409 865 103.605 1171.59 493.703
1302 0 76.1098 11.3783 866 106.588 1171.62 492.263
1303 0 77.0456 11.1103 856 106.959 1172.12 490.666
1304 0 80.0942 12.0233 963 104.675 1171.9 488.777
1305 0 82.0618 11.7838 967 104.689 1171.59 486.209
1306 0 85.151 11.8378 1008 103.362 1171.62 485.161
1307 0 85.1659 11.7066 997 105.309 1171.52 483.931
1308 0 89.1549 11.7212 1045 107.477 1171.62 483.712
1309 0 89.1884 11.2346 1002 110.124 1172.28 481.326
1310 0 94.1494 11.0463 1040 109.663 1172.13 480.036
1311 0 97.101 12.3274 1197 100.041 1171.78 481.859
1312 1 50.0816 10.3431 518 107.191 1171.46 506.239
1313 0 45.0376 9.32555 420 111.776 1171.59 500.974
1314 0 53.1343 10.7275 570 105.332 1171.63 501.528
1315 0 55.1628 10.9313 603 104.756 1171.55 502.484
1316 0 53.1242 10.2025 542 93.7472 1172.04 504.035
1317 0 56.0476 10.1164 567 92.2452 1172.45 504.829
1318 0 56.1586 9.97177 560 93.45 1172.04 503.262
1319 0 60.0581 10.2401 615 93.3187 1171.78 503.689
1320 0 61.072 10.5286 643 94.0684 1171.31 501.538
1321 0 62.069 10.1983 633 95.4566 1172.05 503.145
1322 0 63.0491 10.4204 657 95.9285 1171.76 500.382
1323 0 66.032 10.9341 722 95.421 1171.54 499.039
1324 0 69.1478 10.5282 728 97.6635 1172.59 498.657
1325 0 71.0944 11.3792 809 96.7664 1172.22 497.561
1326 0 72.0484 10.2431 738 101.596 1172.7 495.873
1327 0 74.0741 10.8945 807 97.2243 1173.55 495.549
1328 0 75.0439 11.0602 830 101.458 1173.57 494.634
1329 0 79.0444 11.5758 915 99.7628 1172.11 493.529
1330 0 82.0923 11.9987 985 98.135 1171.9 494.396
1331 0 83.0351 10.9833 912 99.5088 1171.4 492.161
1332 0 87.0916 11.2296 978 97.8763 1171.41 490.002
1333 1 46.0504 10.3582 477 95.3522 1171.9 512.618
1334 0 45.0503 9.92225 447 97.8814 1172.11 513.087
1335 0 47.0193 11.3996 536 96.7202 1171.82 510.675
1336 0 50.0932 11.3389 568 96.9261 1172.09 511.428
1337 0 50.0631 12.1247 607 98.6227 1171.46 509.962
1338 0 53.1714 11.1714 594 103.867 1171.91 509.007
1339 0 52.1186 11.3971 594 105.067 1171.6 507.672
1340 0 55.0483 11.5353 635 104.013 1172.4 508.847
1341 0 56.1478 11.8259 664 103.461 1172.12 507.081
1342 0 57.076 12.1767 695 101.481 1171.68 507.065
1343 0 58.0815 12.1898 708 102.465 1171.89 504.846
1344 0 58.089 11.7062 680 105.157 1171.04 504.801
1345 0 60.0934 11.6818 702 104.724 1171.44 505.293
1346 0 60.0641 11.854 712 106.823 1171.18 504.083
1347 0 64.118 12.0403 772 103.949 1170.95 502.676
1348 0 65.0702 12.9552 843 102.26 1171.26 502.815
1349 0 68.1162 12.3612 842 103.638 1171.17 501.795
1350 0 67.1341 12.6463 849 107.214 1170.58 499.675
1351 0 72.1387 12.8502 927 105.304 1170.46 499.194
1352 0 72.2266 12.53 905 108.308 1171.27 498.071
1353 0 75.1963 11.9554 899 113.518 1170.69 496.868
1354 0 77.1829 12.6712 978 110.836 1171.15 497.173
1355 0 79.1779 12.453 986 111.627 1170.84 497.767
1356 1 40.0525 10.4363 418 111.823 1171.43 515.392
1357 0 42.0231 10.7322 451 111.31 1171.1 514.909
1358 0 43.0384 11.0367 475 111.364 1171.34 514.768
1359 0 44.0898 11.7488 518 107.488 1171.17 514.015
1360 0 45.0177 12.2396 551 106.69 1170.61 513.376
1361 0 47.1034 12.462 587 100.807 1171.68 513.44
1362 0 45.0279 12.4367 560 101.495 1171.07 513.725
1363 0 47.0952 12.634 595 99.9681 1171.36 513.387
1364 0 48.0957 12.4543 599 99.9766 1171.5 512.703
1365 0 49.0609 12.4743 612 99.549 1171.71 512.472
1366 0 52.0686 12.618 657 98.7199 1171.61 511.482
1367 0 52.0652 12.9837 676 99.0104 1171.56 510.544
1368 0 52.0351 12.9912 676 100.473 1171.62 510.373
1369 0 55.1111 13.1915 727 99.8212 1171.94 509.726
1370 0 56.0252 12.78 716 102.355 1171.88 507.855
1371 0 58.0272 13.8728 805 100.719 1171.39 507.897
1372 0 59.041 14.0411 829 102.166 1170.52 507.158
1373 0 62.029 13.7194 851 103.608 1171 506.663
1374 0 62.0324 13.2673 823 107.764 1170.65 506.361
1375 0 62.0428 14.1354 877 107.778 1170.27 504.942
1376 0 63.0396 13.8484 873 110.093 1169.86 503.788
1377 0 67.0781 13.9241 934 108.498 1170.59 502.64
1378 0 67.0402 14.0364 941 113.102 1170.41 503.662
1379 0 68.0576 13.709 933 112.304 1170.91 503.268
1380 0 67.062 14.0318 941 118.404 1170.82 503.458
1381 0 67.036 13.6195 913 124.92 1171.08 503.481
1382 0 68.054 13.9301 948 127.679 1170.36 502.809
1383 0 70.0349 14.5071 1016 123.555 1170.18 501.911
1384 0 70.0643 13.9729 979 124.926 1170.21 501.688
1385 0 70.0643 14.0157 982 160.791 1170.21 501.685
1386 0 75.0327 13.4741 1011 123.776 1168.94 500.738
1387 0 77.1227 13.5498 1045 123.041 1169.21 499.748
1388 0 79.043 13.208 1044 121.747 1169.35 497.823
1389 0 81.1055 13.131 1065 117.319 1169.41 496.836
1390 0 85.0949 12.6565 1077 115.509 1169.73 495.016
1391 0 87.0605 13.0714 1138 113.554 1169.37 493.71
1392 0 90.0674 13.2234 1191 112.335 1169.98 492.909
1393 0 90.1196 12.7608 1150 114.279 1169.18 489.731
1394 0 94.0583 12.4178 1168 113.884 1169.59 490.699
1395 1 48.0262 10.9524 526 109.01 1169.7 512.677
1396 0 48.0291 11.7012 562 107.438 1169.85 510.149
1397 0 51.0428 12.1663 621 104.549 1169.63 511.029
1398 0 50.0675 11.2448 563 102.091 1168.88 512.774
1399 0 52.0154 11.3236 589 103.874 1169.32 510.879
1400 0 54.0347 11.7517 635 103.337 1169.1 509.306
1401 0 54.0965 11.6089 628 105.987 1169.47 509.309
1402 0 56.0982 11.2303 630 106.221 1169.46 508.522
1403 0 60.04 11.7422 705 105.087 1169.17 507.125
1404 0 60.0652 11.9037 715 105.365 1169.13 506.345
1405 0 61.0297 11.4534 699 109.445 1169.1 503.465
1406 0 64.0637 11.8632 760 109.159 1169.56 502.238
1407 0 66.0972 12.1336 802 108.145 1169.05 502.439
1408 0 69.0667 12.0753 834 109.788 1169.79 499.956
1409 0 70.0303 11.8663 831 110.961 1169.68 500.56
1410 1 36.0471 10.2366 369 113.71 1169.75 518.444
1411 0 36.0145 9.99597 360 101.75 1170.64 516.978
1412 0 37.0194 9.4275 349 102.997 1170.3 515.817
1413 0 39.0171 9.7137 379 102.422 1170.55 515.739
1414 0 38.0079 10.7083 407 105.219 1170.41 516.103
1415 0 40.0224 10.5441 422 105.453 1170.59 514.685
1416 0 40.0188 11.0448 442 107.299 1169.99 514.095
1417 0 42.0093 11.0452 464 107.198 1170.14 514.188
1418 0 42.0047 11.5225 484 107.531 1170.1 513.783
1419 0 43.021 10.8087 465 108.727 1170.48 512.492
1420 0 44.0049 11.5442 508 108.606 1170.66 512.384
1421 0 45.0376 11.6569 525 109.589 1170.68 512.051
1422 0 47.0197 11.9737 563 108.243 1170.28 511.011
1423 0 50.0359 11.132 557 111.456 1169.99 509.131
1424 0 52.0165 11.6886 608 111.079 1170.88 508.951
1425 0 53.0448 11.9145 632 109.672 1170.81 507.748
1426 0 53.0617 11.5903 615 112.618 1170.82 507.288
1427 0 55.0329 11.9747 659 111.423 1170.9 506.734
1428 0 57.0251 12.7839 729 113.599 1170.89 507.466
1429 0 59.0355 12.6873 749 107.758 1170.27 507.746
1430 0 60.0414 12.9744 779 107.445 1170.84 506.78
1431 0 61.0284 13.0595 797 105.348 1170.44 506.036
1432 0 64.0493 13.3647 856 102.433 1170.95 504.902
1433 0 66.0976 12.4664 824 103.82 1170.76 505.542
1434 0 67.0253 12.3535 828 105.424 1170.68 502.938
1435 0 69.0346 12.8341 886 103.992 1170.67 502.324
1436 0 72.1445 12.7522 920 103.392 1170.6 500.774
1437 0 74.0547 12.3287 913 102.003 1170.02 498.908
1438 0 76.1467 12.7254 969 102.237 1170.67 497.957
1439 0 79.091 12.8839 1019 101.167 1170.12 497.53
1440 0 81.0446 12.5116 1014 102.07 1170.53 497.041
1441 0 84.0611 12.598 1059 101.208 1170 493.711
1442 0 88.089 13.1912 1162 99.3158 1170.09 492.692
1443 0 87.1386 12.0383 1049 103.878 1170.26 492.058
1444 0 90.098 12.2977 1108 101.894 1169.84 490.87
1445 0 92.0732 11.5017 1059 104.887 1169.83 489.558
1446 1 48.0496 11.6546 560 104.593 1169.75 510.025
1447 0 48.0378 11.4701 551 104.029 1169.9 508.33
1448 0 49.0823 11.8169 580 102.931 1170.14 506.291
1449 0 52.044 12.3165 641 100.211 1169.83 505.487
1450 0 52.0889 12.4019 646 103.11 1170.99 506.121
1451 0 54.0768 12.1494 657 101.498 1169.81 505.192
1452 0 56.0605 12.433 697 100.135 1170.68 504.953
1453 0 57.0598 12.1276 692 100.432 1170.75 503.182
1454 0 59.0945 12.37 731 97.643 1170.7 502.334
1455 0 60.0748 12.1182 728 99.408 1171.24 501.14
1456 0 62.0838 12.5153 777 97.8481 1171.1 501.075
1457 0 64.1045 12.0896 775 98.6852 1170.54 499.404
1458 0 67.0593 12.2876 824 95.3495 1170.19 500.43
1459 0 68.0428 12.2423 833 96.1777 1170.04 499.049
1460 0 70.0517 12.5907 882 95.9739 1170.45 497.98
1461 0 73.0759 11.9191 871 96.4156 1170.25 496.796
1462 0 75.0765 11.2552 845 98.0888 1170.45 495.502
1463 0 77.028 12.2683 945 95.9429 1170.8 494.769
1464 0 80.0285 12.0457 964 96.0239 1170.63 492.707
1465 1 38.025 10.1512 386 94.1969 1171.25 513.658
1466 0 40.0552 10.86 435 92.6897 1170.01 512.457
1467 0 42.0838 10.5504 444 93.5248 1170.7 511.633
1468 0 43.0386 11.4781 494 91.9494 1170.55 511.208
1469 0 43.0564 10.7301 462 94.6364 1169.93 509.658
1470 0 46.0375 11.4037 525 91.2933 1170.48 510.432
1471 0 47.0251 11.5045 541 93.5693 1169.98 510.214
1472 0 46.0183 11.0825 510 95.9078 1170.17 509.286
1473 0 48.0316 11.9088 572 94.3636 1168.98 507.759
1474 0 50.1262 12.1094 607 94.4745 1170.05 507.824
1475 0 50.0576 11.5067 576 97.1094 1169.84 507.188
1476 0 53.0702 12.1349 644 94.9224 1169.77 504.193
1477 0 57.0488 11.9547 682 95.261 1170.41 504.381
1478 0 57.1228 11.9392 682 97.9531 1170.35 504.292
1479 0 56.1248 12.1159 680 126.272 1170.34 504.44
1480 0 61.1053 12.7649 780 100.229 1170.81 501.512
1481 0 61.0828 12.8514 785 101.618 1170.83 502.615
1482 0 64.0596 12.9411 829 102.075 1170.82 501.121
1483 0 65.0672 12.8329 835 103.849 1170.78 500.783
1484 0 69.0787 13.434 928 102.599 1170.19 498.672
1485 0 72.1156 13.1733 950 105.217 1170.09 497.691
1486 0 72.1017 13.3145 960 107.457 1170.44 497.984
1487 0 76.0922 13.2208 1006 108.969 1170.32 497.087
1488 0 79.0716 13.6206 1077 109.782 1170.31 496.768
1489 0 78.0707 13.7183 1071 161.388 1170.31 496.869
1490 0 79.0257 13.0717 1033 104.566 1170.11 490.047
1491 0 82.0358 12.9212 1060 106.5 1170.69 488.018
1492 0 83.0689 12.7003 1055 108.967 1170.68 487.841
1493 0 88.0469 12.7546 1123 107.992 1170.99 485.532
1494 0 90.0369 12.9725 1168 106.606 1169.89 483.177
1495 0 93.0556 12.6806 1180 109.416 1170.79 483.292
1496 1 50.0423 11.6102 581 105.394 1170.93 504.172
1497 0 53.0503 11.8567 629 107.102 1171.02 503.491
1498 0 56.1006 13.2084 741 112.966 1170.89 505.676
1499 0 54.0225 11.921 644 106.702 1170.76 506.62
1500 0 56.0376 12.4738 699 106.016 1170.25 505.512
1501 0 59.0241 12.5881 743 106.293 1170.11 502.966
1502 0 60.0751 13.1336 789 104.393 1169.99 501.838
1503 0 62.1422 13.1312 816 103.478 1169.96 501.266
1504 0 64.077 12.7971 820 105.255 1170.19 500.678
1505 0 66.0559 12.5954 832 106.03 1170.35 498.891
1506 0 70.0878 12.9837 910 103.404 1170.45 497.693
1507 0 71.0638 12.9602 921 104.099 1170.22 497.013
1508 0 75.053 12.9642 973 102.973 1170.33 494.783
1509 0 78.068 13.0912 1022 101.818 1170.43 494.086
1510 0 81.0623 12.879 1044 101.04 1170.54 492.979
1511 0 85.0438 13.3461 1135 99.0573 1170.96 492.433
1512 0 85.1 13.161 1120 100.96 1170.95 489.759
1513 0 89.0765 13.9543 1243 98.4714 1170.64 489.43
1514 0 93.1653 13.1701 1227 99.3594 1170.22 487.478
1515 1 47.0812 11.597 546 100.795 1169.3 509.375
1516 0 50.0804 12.0806 605 101.86 1169.85 509.633
1517 0 51.0468 11.8127 603 102.701 1170.09 507.652
1518 0 53.0432 12.4992 663 99.8281 1170.19 506.36
1519 0 54.0447 13.2483 716 103.334 1171.01 506.092
1520 0 56.0361 12.6169 707 105.895 1170.45 505.454
1521 0 56.063 13.2173 741 104.838 1170.37 504.408
1522 0 60.0513 13.3386 801 103.464 1170.88 502.855
1523 0 60.0705 13.5008 811 103.365 1170.98 503.554
1524 0 63.0752 12.5723 793 107.079 1170.65 502.135
1525 0 64.0586 13.2691 850 105.596 1171.13 502.236
1526 0 68.0857 13.4977 919 104.904 1171.06 499.517
1527 0 68.0651 13.3402 908 106.713 1170.26 499.168
1528 0 71.0515 13.5395 962 105.753 1171.06 497.71
1529 0 74.0853 13.5519 1004 105.883 1170.65 497.768
1530 0 76.1014 13.8368 1053 105.387 1171 496.835
1531 0 79.058 14.2427 1126 104.531 1170.91 494.816
1532 0 81.055 13.3119 1079 105.91 1171.18 494.918
1533 0 81.0614 13.2986 1078 152.724 1171.18 494.97
1534 0 86.0994 13.949 1201 103.633 1171.26 492.097
1535 0 88.1484 12.8306 1131 107.282 1171.92 493.853
1536 0 90.2062 12.8594 1160 109.793 1171.84 489.169
1537 0 92.0884 12.9984 1197 110.586 1170.88 487.165
1538 0 93.1381 12.927 1204 111.403 1170.99 485.847
1539 1 52.1145 11.9353 622 115.641 1170.58 505.73
1540 0 55.145 12.4581 687 114.192 1170.73 504.132
1541 0 54.0781 11.8162 639 116.795 1171.96 502.822
1542 0 54.0756 12.2791 664 112.36 1171.62 500.06
1543 0 56.036 13.0452 731 110.399 1170.82 498.226
1544 0 57.0359 12.571 717 117.738 1171.02 501.582
1545 0 58.0626 11.9182 692 114.052 1171.31 504.376
1546 0 60.0627 12.9032 775 110.018 1170.66 503.179
1547 0 61.0961 12.4394 760 111.567 1171.15 502.655
1548 0 64.0837 12.5461 804 113.06 1170.46 500.138
1549 0 65.0911 12.2597 798 113.841 1171.24 500.8
1550 0 67.0677 12.5992 845 112.418 1170.67 499.637
1551 0 69.0579 12.4533 860 114.306 1171.13 497.213
1552 0 72.1414 13.0161 939 111.496 1171.31 497.301
1553 0 73.1351 12.8666 941 114.131 1170.87 495.742
1554 0 76.1438 12.5815 958 114.887 1170.77 493.736
1555 0 78.1573 12.7307 995 116.008 1170.76 492.7
1556 0 80.0893 12.511 1002 116.782 1170.86 491.381
1557 0 79.0994 12.0355 952 119.819 1170.76 489.029
1558 0 82.1347 11.8707 975 119.211 1171.08 489.256
1559 0 87.1705 12.4469 1085 116.787 1170.78 487.278
1560 0 88.0955 12.2708 1081 118.009 1171.32 486.631
1561 1 46.0609 10.7683 496 122.06 1170.06 505.389
1562 0 50.054 11.8672 594 118.332 1170.57 503.773
1563 0 52.0856 12.2683 639 118.041 1171.56 503.574
1564 0 53.1259 12.028 639 120.282 1171.62 504.85
1565 0 56.1003 12.1211 680 119.884 1171.6 503.413
1566 0 57.3326 12.4013 711 120.847 1171.41 502.457
1567 0 58.1205 12.5773 731 120.075 1170.99 501.401
1568 0 59.1529 13.1693 779 118.421 1170.64 500.343
1569 0 61.1343 13.0205 796 119.253 1171.55 499.25
1570 0 59.0958 12.2344 723 118.007 1171.01 501.054
1571 0 61.0967 12.0956 739 119.046 1170.62 500.173
1572 0 63.1263 12.1344 766 118.621 1170.58 499.907
1573 0 66.1022 12.874 851 116.817 1170.51 499.786
1574 0 66.1372 12.2926 813 120.459 1170.73 498.866
1575 0 69.0713 12.9431 894 118.817 1170.7 497.404
1576 0 71.0823 12.3378 877 120.982 1170.88 496.396
1577 0 73.1328 12.5662 919 121.519 1170.54 494.23
1578 0 75.1445 12.8685 967 122.977 1170.69 493.352
1579 0 76.1185 13.2031 1005 122.19 1170.02 491.762
1580 0 77.1171 12.695 979 126.935 1171.12 489.03
1581 0 82.1413 13.0385 1071 125.543 1170.78 488.027
1582 0 83.1832 12.5867 1047 127.929 1170.57 486.293
1583 0 86.1267 12.5977 1085 129.558 1170.84 483.817
1584 0 90.1317 12.9921 1171 127.128 1171.08 481.965
1585 0 94.1635 13.0305 1227 128.572 1171.45 479.198
1586 0 97.1785 13.1202 1275 128.15 1171.36 476.129
1587 1 50.0746 11.1034 556 126.55 1170.24 501.439
1588 0 51.0303 11.9929 612 127.791 1169.97 500.781
1589 0 53.2369 12.7355 678 122.931 1170.99 503.577
1590 0 56.3142 12.6789 714 124.063 1170.97 505.885
1591 0 56.2838 13.0411 734 124.593 1171.38 505.609
1592 0 58.3021 12.7611 744 125.793 1171.8 504.476
1593 0 58.3441 13.3347 778 126.981 1171.13 502.622
1594 0 61.4067 13.0442 801 124.276 1171.32 502.715
1595 0 62.276 13.2154 823 125.492 1171.47 499.355
1596 0 63.5294 13.3639 849 123.943 1171.1 498.294
1597 0 66.4036 13.1017 870 124.695 1170.77 497.04
1598 0 67.4298 14.1184 952 121.53 1171.28 495.952
1599 0 68.3239 13.1286 897 126.147 1170.73 495.659
1600 0 71.4595 13.756 983 123.154 1171.06 492.906
1601 0 74.3692 13.7691 1024 120.77 1170.75 492.163
1602 0 76.331 13.9131 1062 119.472 1170.36 490.443
1603 0 78.3361 13.7612 1078 116.935 1170.07 488.3
1604 0 81.273 13.7807 1120 116.427 1170.74 488.899
1605 0 81.2751 13.0052 1057 117.956 1170.29 487.449
1606 0 85.4333 14.0929 1204 112.578 1170.82 484.07
1607 0 87.3012 13.6539 1192 112.877 1170.07 485.814
1608 0 88.4174 13.4023 1185 112.792 1170.76 486.468
1609 0 91.3187 13.5788 1240 111.919 1169.75 487.242
1610 0 93.4006 13.7365 1283 108.766 1170.46 485.26
1611 0 97.3057 13.9868 1361 105.205 1170 480.963
1612 0 99.2003 13.7701 1366 104.531 1170.48 480.261
1613 0 101.178 12.8783 1303 107.724 1170.77 478.181
1614 0 105.195 13.8409 1456 105.48 1170.81 478.759
1615 1 54.1145 11.3094 612 107.124 1170.85 501.936
1616 0 55.1357 11.6077 640 107.783 1170.01 501.503
1617 0 57.1126 12.1514 694 104.827 1170.07 498.344
1618 0 59.2134 11.923 706 107.499 1170.5 503.014
1619 0 60.2012 12.4416 749 106.903 1170.53 502.234
1620 0 62.2106 13.0685 813 104.708 1170.15 499.279
1621 0 63.1386 13.4149 847 104.149 1170.64 499.668
1622 0 66.1665 12.8766 852 104.791 1170.59 498.919
1623 0 67.2677 13.1118 882 105.251 1170.29 498.15
1624 0 69.1985 13.3818 926 104.443 1170.35 496.986
1625 0 71.3702 13.1988 942 105.245 1170.12 494.402
1626 0 71.3983 13.0115 929 106.73 1170.57 493.319
1627 0 73.3167 13.7349 1007 104.628 1170.44 493.412
1628 0 76.2003 13.3333 1016 107.415 1170.41 492.736
1629 0 79.3296 13.4124 1064 106.971 1170.38 491.772
1630 0 82.4514 13.705 1130 107.879 1170.92 490.842
1631 0 84.3617 13.8452 1168 109.607 1171.16 490.252
1632 0 86.33 13.9697 1206 110.221 1171.05 488.227
1633 0 85.3004 13.5052 1152 114.108 1170.96 487.461
1634 0 90.323 13.8946 1255 112.223 1170.38 486.718
1635 0 93.27 14.056 1311 111.055 1170.49 485.018
1636 0 94.3719 14.3793 1357 110.925 1170.5 483.965
1637 0 97.4318 13.9277 1357 113.678 1170.42 482.304
1638 0 98.3828 14.1386 1391 113.534 1170.16 482.692
1639 0 101.372 14.3728 1457 113.44 1170.32 480.945
1640 0 104.657 13.8644 1451 114.971 1170.47 478.963
1641 0 108.467 13.7369 1490 116.059 1169.99 476.636
1642 0 108.566 13.706 1488 118.315 1170.62 475.579
1643 0 114.417 14.3948 1647 116.591 1170.19 475.358
1644 0 117.38 14.1676 1663 117.659 1170.51 474.692
1645 0 120.381 14.3877 1732 118.253 1170.15 474.001
1646 0 123.392 13.5584 1673 121.301 1169.81 474.765
1647 0 127.266 13.6565 1738 122.814 1170.64 471.795
1648 0 127.267 13.6956 1743 174.574 1171.63 471.857
1649 0 135.23 14.7378 1993 113.27 1170.58 470.229
1650 0 138.364 14.1655 1960 117.468 1171.64 467.982
1651 1 59.1682 13.1152 776 123.36 1171.49 505.53
1652 0 62.1441 13.7423 854 120.981 1171.75 504.126
1653 0 64.141 13.9692 896 121.125 1171.52 503.031
1654 0 65.1455 13.585 885 123.729 1171.2 503.001
1655 0 67.2114 14.2684 959 122.884 1171.11 501.607
1656 0 69.2353 14.2846 989 123.324 1171.03 500.645
1657 0 70.1316 14.2161 997 125.53 1170.88 499.158
1658 0 73.1907 14.1138 1033 126.245 1171.11 497.924
1659 0 75.1217 14.5231 1091 124.177 1171.52 498.36
1660 0 77.1612 14.7483 1138 123.546 1170.67 497.178
1661 0 81.1574 14.9093 1210 123.371 1171.18 496.068
1662 0 82.13 14.9641 1229 124.014 1170.9 494.468
1663 0 84.2047 14.5716 1227 125.431 1171.22 491.795
1664 0 87.3525 14.5273 1269 124.854 1170.48 490.691
1665 0 87.3446 14.5058 1267 126.552 1170.87 489.669
1666 0 91.1299 14.8689 1355 123.051 1170.6 489.018
1667 0 93.1474 15.0085 1398 121.352 1170.47 487.75
1668 0 97.1815 14.5295 1412 121.447 1170.5 485.69
1669 0 100.208 14.939 1497 118.481 1170.74 484.17
1670 0 104.246 14.5426 1516 120.364 1170.67 483.055
1671 1 55.0778 13.4174 739 123.112 1170.48 506.187
1672 0 54.076 13.555 733 126.029 1170.28 505.21
1673 0 58.1165 14.0924 819 122.729 1170.24 504.27
1674 0 60.0905 14.3617 863 121.941 1170.36 503.382
1675 0 61.0906 14.2411 870 121.872 1170.52 503.191
1676 0 63.1072 14.0713 888 122.114 1171.09 501.124
1677 0 65.0518 14.8036 963 120.752 1170.31 500.951
1678 0 66.0396 14.6882 970 123.001 1170.43 499.585
1679 0 69.1211 14.4963 1002 122.154 1170.66 499.533
1680 0 69.0423 14.3535 991 124.265 1170.59 498.596
1681 0 72.0704 14.361 1035 124.362 1170.04 497.022
1682 0 74.0329 14.5746 1079 122.711 1170.48 497.399
1683 0 76.0659 14.7635 1123 122.882 1170.12 495.968
1684 0 78.028 14.6614 1144 125.017 1170.14 494.805
1685 0 82.0624 14.9886 1230 122.511 1170.66 493.055
1686 0 82.0699 15.1578 1244 123.444 1170.07 492.306
1687 0 86.0556 15.2924 1316 120.901 1170.15 490.958
1688 0 87.0444 15.1532 1319 122.304 1169.56 491.522
1689 0 90.0524 14.8358 1336 122.662 1170.45 489.79
1690 0 92.049 14.9703 1378 121.72 1170.06 489.242
1691 0 95.0261 14.4381 1372 123.081 1170.89 486.609
1692 0 96.0778 15.0711 1448 120.316 1170.47 485.05
1693 0 99.1637 14.2492 1413 122.049 1169.8 483.536
1694 1 53.077 13.4145 712 125.458 1169.57 505.369
1695 0 54.0758 13.777 745 125.597 1169.65 504.933
1696 0 56.0713 13.6968 768 126.919 1169.79 502.21
1697 0 60.0546 14.1205 848 123.825 1169.72 501.318
1698 0 59.0745 13.9823 826 125.408 1170.13 500.826
1699 0 62.0591 14.4862 899 124.102 1169.82 500.545
1700 0 64.0298 14.5245 930 123.128 1170.61 499.727
1701 0 65.0971 14.3324 933 123.892 1169.74 498.308
1702 0 69.0402 14.7595 1019 120.96 1170.05 496.476
1703 0 69.0489 15.2935 1056 121.409 1170.19 495.534
1704 0 73.0515 14.5788 1065 122.61 1170.34 494.495
1705 0 75.0465 15.1906 1140 120.58 1170.37 494.343
1706 0 77.0796 15.218 1173 121.038 1170.45 493.255
1707 0 78.0904 15.1363 1182 122.507 1169.93 491.763
1708 0 80.0634 14.9756 1199 123.12 1170.87 490.975
1709 0 85.0702 13.577 1155 127.236 1170.52 490.81
1710 0 86.0647 15.9647 1374 119.801 1170.44 488.292
1711 0 86.0721 15.2547 1313 123.874 1170.57 488.227
1712 0 87.0684 15.8726 1382 123.261 1170.41 487.117
1713 0 91.0336 15.7414 1433 124.581 1170.34 485.641
1714 0 92.0979 15.4401 1422 127.162 1170.26 484.217
1715 0 95.0593 15.2116 1446 127.095 1170.74 482.12
1716 0 97.1066 15.5293 1508 126.831 1171.03 480.883
1717 0 99.1102 15.8712 1573 126.163 1170.75 479.693
1718 0 104.065 16.2399 1690 123.545 1171.1 479.183
1719 0 108.136 15.8874 1718 125.048 1170.16 476.677
1720 0 111.072 15.5665 1729 127.541 1170.81 474.511
1721 0 114.107 15.7659 1799 127.031 1170.96 473.414
1722 0 118.14 15.7101 1856 128.529 1170.35 470.683
1723 0 123.084 15.9322 1961 127.641 1170.26 468.095
1724 0 127.134 15.582 1981 129.339 1170.15 466.522
1725 1 65.0796 12.139 790 129.629 1169.83 497.311
1726 0 67.1344 13.0485 876 127.442 1170.38 496.759
1727 0 70.0583 13.2461 928 123.211 1170.56 495.991
1728 0 73.0187 13.0788 955 122.624 1170.51 495.609
1729 0 74.052 13.0179 964 124.926 1169.89 494.307
1730 0 76.0649 12.9626 986 125.723 1170.12 492.758
1731 0 79.2005 13.0428 1033 125.556 1169.26 491.173
1732 0 82.0237 12.8499 1054 124.621 1170.36 490.534
1733 0 83.0798 12.6023 1047 125.706 1169.79 489.329
1734 0 86.084 12.8944 1110 124.442 1169.56 487.043
1735 0 90.0928 13.031 1174 122.498 1169.44 486.608
1736 0 93.1315 12.8743 1199 122.703 1169.57 484.405
1737 0 94.1368 12.7262 1198 123.289 1169.83 483.228
1738 0 97.0932 12.6785 1231 123.162 1170.4 481.096
1739 0 99.1473 12.5066 1240 122.439 1170.15 478.647
1740 0 104.185 12.7562 1329 120.264 1170.5 478.509
1741 0 109.169 12.7417 1391 120.513 1170.23 476.288
1742 1 59.0965 11.6589 689 116.723 1170.21 502.125
1743 0 60.0905 11.6657 701 118.054 1170.4 501.271
1744 0 61.0699 12.1173 740 118.685 1170.51 499.305
1745 0 63.0514 12.5453 791 120.096 1170.31 497.817
1746 0 65.0843 12.7988 833 119.987 1169.9 496.514
1747 0 68.0796 12.6323 860 121.67 1169.82 495.443
1748 0 69.0651 12.452 860 122.829 1169.59 495.164
1749 0 71.0813 12.1551 864 121.771 1170.38 492.444
1750 0 75.0764 12.6538 950 118.911 1170.19 490.282
1751 0 77.0749 12.4943 963 119.729 1170.44 490.72
1752 0 77.0513 12.8356 989 121.054 1170.06 488.484
1753 0 78.065 12.2846 959 124.803 1169.84 488.43
1754 0 82.0918 12.4617 1023 124.331 1169.54 486.888
1755 0 85.0712 12.7188 1082 124.281 1170.49 485.837
1756 0 86.0506 12.6089 1085 126.087 1170.39 485.324
1757 0 89.0652 13.1252 1169 126.103 1169.98 483.186
1758 0 94.054 13.067 1229 123.967 1170.02 483.028
1759 0 94.0225 12.5076 1176 128.815 1170.43 480.818
1760 0 97.0595 12.6932 1232 128.633 1170.12 481.296
1761 1 45.0282 10.2824 463 126.264 1170.16 506.335
1762 0 48.008 11.144 535 129.271 1169.68 503.361
1763 0 49.0117 12.0175 589 128.769 1170.04 502.479
1764 0 52.0136 11.2471 585 130.768 1169.66 501.726
1765 0 54.0075 11.6836 631 130.872 1170.53 501.176
1766 0 54.0104 12.2384 661 132.947 1170.93 501.693
1767 0 59.0253 11.7407 693 132.574 1170.68 498.596
1768 0 57.0323 12.2562 699 132.226 1170.76 497.631
1769 0 60.0325 12.0768 725 131.625 1170.15 496.756
1770 0 62.0443 12.1526 754 133.56 1170.57 496.878
1771 0 64.0348 11.7749 754 134.572 1170.57 495.627
1772 0 67.0964 12.4746 837 132.896 1170.79 493.798
1773 0 68.1404 12.078 823 136.752 1170.77 492.131
1774 0 70.125 12.877 903 134.932 1171 490.883
1775 0 73.15 12.5222 916 137.8 1171.04 490.439
1776 0 73.2211 12.4691 913 139.982 1171.27 488.872
1777 0 77.2048 13.095 1011 136.028 1170.95 489.403
1778 0 76.1295 12.7677 972 141.62 1171.66 487.488
1779 0 79.2257 13.0892 1037 139.896 1171.68 487.602
1780 0 81.1708 12.8371 1042 140.447 1171.35 487.306
1781 0 83.2119 13.724 1142 138.169 1171.48 485.258
1782 0 84.2106 13.2762 1118 142.708 1171.64 484.189
1783 0 86.2199 13.3728 1153 146.034 1170.74 483.633
1784 0 88.1774 13.8357 1220 143.575 1171.54 483.464
1785 0 91.126 14.1123 1286 144.131 1171.02 481.651
1786 0 93.1736 14.1134 1315 146.083 1171.21 481.046
1787 0 95.1529 14.503 1380 145.833 1170.91 479.28
1788 0 96.1996 13.8982 1337 152.389 1171.89 478.941
1789 0 99.1182 14.3869 1426 151.074 1170.98 478.573
1790 0 100.16 14.3171 1434 153.814 1171.42 475.538
1791 0 106.223 14.7896 1571 151.061 1171.37 474.036
1792 0 108.156 14.4976 1568 153.47 1171.29 471.665
1793 0 110.255 14.4121 1589 156.656 1170.91 472.096
1794 0 114.166 14.5928 1666 154.429 1170.51 469.389
1795 0 117.229 14.4845 1698 156.251 1170.53 467.581
1796 0 122.276 14.868 1818 153.875 1169.98 466.9
1797 0 124.175 14.4554 1795 157.367 1170.78 463.738
1798 0 127.179 14.9868 1906 156.091 1170.49 462.215
1799 0 131.233 14.7371 1934 156.199 1170.34 458.986
1800 0 134.204 14.9698 2009 156.801 1169.92 458.201
1801 0 139.219 14.8327 2065 157.282 1170.7 456.231
1802 0 144.211 15.8171 2281 151.831 1170.51 456.203
1803 0 146.236 15.2425 2229 153.743 1170.25 453.15
1804 0 151.267 15.6015 2360 150.246 1170.32 449.922
1805 0 154.203 15.1424 2335 153.501 1169.82 449.061
1806 0 160.173 15.5082 2484 150.212 1169.74 446.352
1807 0 158.215 15.0808 2386 145.405 1169.5 437.099
1808 1 86.1704 10.5256 907 142.679 1169.83 485.669
1809 0 86.1042 10.5454 908 144.363 1170.37 482.152
1810 0 90.0923 10.689 963 143.785 1170.45 481.271
1811 0 95.0954 11.0205 1048 143.686 1170.47 479.25
1812 0 98.2261 11.1885 1099 142.226 1170.38 478.46
1813 0 99.0928 10.586 1049 144.647 1169.8 477.083
1814 0 103.182 10.9419 1129 140.514 1170.43 475.709
1815 0 106.194 10.6221 1128 138.138 1169.74 473.399
1816 0 107.179 10.0579 1078 138.056 1169.68 471.928
1817 0 112.168 10.0831 1131 139.126 1170.16 469.923
1818 1 65.0979 9.12472 594 124.727 1170.35 494.753
1819 0 67.1625 9.76736 656 124.744 1170.97 493.915
1820 0 66.1272 9.45148 625 130.232 1170.28 493.013
1821 0 69.073 9.59854 663 132.961 1170.62 491.143
1822 0 70.1996 10.057 706 131.831 1170.88 489.231
1823 0 73.0978 9.69934 709 130.611 1170.48 487.662
1824 0 76.1928 10.0666 767 129.455 1171.14 486.412
1825 0 79.1974 10.0382 795 128.922 1170.97 486.205
1826 0 80.1756 9.56651 767 129.45 1170.63 484.924
1827 0 82.1216 9.51029 781 128.524 1171.18 484.316
1828 0 85.1562 9.27706 790 129.618 1170.6 481.14
1829 0 86.2069 9.048 780 129.763 1170.45 480.665
1830 0 89.1609 9.60062 856 127.771 1170.75 478.734
1831 0 92.1384 9.08416 837 128.18 1170.59 479.655
1832 0 92.1558 9.14755 843 128.17 1170.49 476.699
1833 0 92.221 8.55554 789 132.242 1170.59 477.728
1834 0 97.2555 8.41084 818 128.888 1170.84 475.188
1835 0 102.298 8.59254 879 126.876 1171.46 472.431
1836 0 105.201 8.73569 919 126.387 1171.42 472.283
1837 0 108.156 6.92521 749 125.109 1171.13 468.071
1838 0 106.12 6.34187 673 121.51 1171.11 469.905
1839 0 114.167 6.2715 716 125.387 1169.99 464.858
1840 0 119.084 6.70957 799 124.278 1169.97 465.506
1841 0 122.203 6.57104 803 124.323 1169.82 462.918
1842 0 114.16 8.12019 927 126.81 1169.8 460.688
1843 0 119.151 8.25842 984 130.386 1170.17 459.801
1844 0 123.218 8.9273 1100 128.825 1170.3 459.549
1845 0 127.137 8.81724 1121 129.658 1170.46 456.131
1846 0 132.224 9.04526 1196 128.446 1170.6 456.281
1847 0 132.256 8.88431 1175 130.448 1170.57 453.396
1848 0 139.225 8.73406 1216 129.279 1170.58 453.049
1849 0 140.274 9.01095 1264 129.652 1170.61 452.074
1850 0 146.333 9.19818 1346 128.483 1170.74 448.12
1851 0 149.262 9.3795 1400 127.754 1170.52 448.526
1852 0 148.249 8.91066 1321 129.992 1170.32 446.818
1853 0 148.247 4.479 664 125.532 1169.52 470.922
1854 1 80.1819 8.78004 704 111.974 1169.91 483.338
1855 0 83.1073 9.15684 761 110.997 1169.87 485.763
1856 0 87.1551 9.28231 809 110.504 1170.16 483.037
1857 0 85.1445 8.89077 757 111.583 1170.32 482.848
1858 0 86.1601 8.55384 737 111.798 1170.15 484.758
1859 0 94.3055 9.49043 895 112.022 1169.82 478.429
1860 0 96.1637 9.7542 938 111.952 1170.58 477.862
1861 0 94.2712 9.70604 915 113.297 1170.62 478.91
1862 1 107.237 9.37173 1005 112.079 1170.45 474.384
1863 0 106.278 10.2938 1094 109.296 1170.54 472.582
1864 0 108.231 10.4129 1127 110.799 1170.57 469.036
1865 0 111.35 9.9057 1103 111.761 1170.44 468.799
1866 0 113.326 10.0859 1143 111.996 1170.32 468.509
1867 0 117.299 10.1706 1193 110.653 1170.73 466.149
1868 0 118.321 9.89678 1171 111.941 1170.93 464.013
1869 0 117.206 9.39372 1101 111.864 1170.48 458.308
1870 0 120.23 9.83944 1183 108.56 1170.71 453.928
1871 0 120.25 9.605 1155 110.571 1170.66 450.242
1872 0 127.253 9.82295 1250 109.3 1169.95 448.601
1873 0 129.268 10.25 1325 108.147 1171.11 445.123
1874 0 129.22 9.91334 1281 109.956 1170.37 441.344
1875 0 135.239 10.4334 1411 108.37 1170.58 439.923
1876 0 136.224 10.4533 1424 110.245 1170.85 436.745
1877 0 143.17 10.5748 1514 108.396 1170 428.6
1878 0 149.161 10.539 1572 109.139 1170.43 430.335
1879 0 151.109 10.4097 1573 111.483 1170.8 427.955
1880 0 157.109 10.1394 1593 111.922 1170.93 431.134
1881 0 158.106 10.4297 1649 112.854 1170.26 424.743
1882 0 166.126 11.3528 1886 109.974 1170.41 423.089
1883 0 167.145 10.4042 1739 114.711 1170.81 416.627
1884 0 175.129 10.6493 1865 113.409 1170.41 419.051
1885 0 183.113 10.2123 1870 115.147 1169.53 413.913
1886 0 185.143 10.7592 1992 114.46 1169.9 414.935
1887 0 189.109 10.4279 1972 115.807 1171.03 409.727
1888 0 198.191 11.1307 2206 113.524 1170.94 409.298
1889 0 204.093 11.7545 2399 113.295 1171.3 407.205
1890 1 155.11 8.71641 1352 115.767 1171.39 434.537
1891 0 160.085 9.60741 1538 112.48 1171.14 434.212
1892 0 165.078 9.9953 1650 112.942 1171.18 431.417
1893 0 166.159 10.7608 1788 111.341 1170.91 427.908
1894 0 171.102 11.0344 1888 109.126 1170.86 426.911
1895 0 176.141 10.696 1884 110.419 1171.58 424.463
1896 0 181.14 11.0246 1997 110.291 1171.59 423.149
1897 0 187.181 11.9617 2239 107.489 1170.72 422.894
1898 0 194.174 11.7214 2276 108.821 1170.06 419.164
1899 0 200.254 11.785 2360 109.485 1170.6 417.91
1900 0 207.213 11.3217 2346 112.208 1169.76 415.171
1901 1 52.0611 9.41201 490 94.8408 1169.3 500.02
1902 0 54.1123 9.60964 520 97.1827 1169.54 498.992
1903 0 56.126 10.2804 577 96.4506 1170.37 499.023
1904 0 58.0942 10.2592 596 96.5352 1168.66 500.802
1905 0 55.1626 8.97347 495 86.2889 1169.06 501.554
1906 0 53.0636 7.80196 414 90.93 1169.13 504.002
1907 0 58.0761 8.35112 485 91.0289 1169.66 501.975
1908 0 60.1086 8.20182 493 92.2779 1169.25 500.763
1909 0 60.11 8.63417 519 92.4971 1169.7 498.898
1910 0 62.0531 8.70222 540 92.613 1169.49 499.261
1911 0 62.0686 8.45838 525 94.0476 1169.09 498.64
1912 0 65.1145 8.07807 526 94.5818 1169.47 498.867
1913 0 66.0922 7.6711 507 96.3511 1169.37 497.85
1914 0 68.1466 8.96597 611 95.5106 1169.14 495.686
1915 0 70.0876 8.94594 627 95.7273 1168.49 495.947
1916 0 70.1221 8.59928 603 95.602 1168.73 497.74
1917 0 73.1152 8.80802 644 95.5994 1168.89 494.438
1918 0 77.138 9.76173 753 91.3267 1168.96 492.242
1919 0 78.0388 9.37995 732 90.7104 1169.1 494.678
1920 0 80.1132 8.37565 671 93.4039 1170.17 491.797
1921 0 82.032 8.09441 664 94.5226 1170.3 491.628
1922 0 85.1311 9.31505 793 95.406 1170.27 488.725
1923 1 45.0515 9.7222 438 98.6461 1170.49 507.178
1924 0 46.0701 10.4623 482 104.239 1169.17 505.631
1925 0 49.0194 10.4244 511 102.356 1170.23 504.986
1926 0 44.0428 8.3555 368 92.2065 1169.89 506.69
1927 0 46.0644 8.64008 398 93.0854 1170.25 507.261
1928 0 46.0845 8.8316 407 93.2334 1169.59 505.926
1929 0 55.0652 10.0245 552 83.6848 1169.87 506.225
1930 0 54.078 10.2814 556 84.7932 1169.99 505.61
1931 0 57.1475 10.3592 592 84.2483 1169.33 504.909
1932 0 59.0747 10.1397 599 85.0033 1169.99 503.7
1933 0 59.1041 10.4223 616 85.3295 1169.79 502.416
1934 0 61.0732 10.8886 665 84.1398 1169.86 502.872
1935 0 62.0264 10.8019 670 85.5119 1169.44 501.954
1936 0 63.0767 10.9708 692 85.9104 1168.92 501.744
1937 0 63.1575 11.0834 700 85.9571 1168.41 500.85
1938 0 65.062 10.5899 689 88.3541 1169.02 499.872
1939 0 67.1028 11.6985 785 83.8815 1168.98 499.428
1940 0 69.0876 11.0584 764 86.3953 1168.95 498.255
1941 0 73.0926 11.7385 858 83.3613 1169.13 497.98
1942 0 75.1996 11.9017 895 84.9743 1168.86 496.698
1943 0 75.0572 11.5645 868 88.4827 1169.12 495.513
1944 0 78.1164 11.4573 895 91.7687 1169.14 493.366
1945 0 82.1562 11.2225 922 88.9349 1169.24 491.406
1946 0 82.124 11.4218 938 88.7463 1169.43 492.042
1947 0 85.0991 10.8109 920 92.625 1169.13 490.167
1948 0 85.0883 11.0474 940 93.3277 1168.46 487.98
1949 1 47.0502 9.90431 466 91.3026 1167.82 507.536
1950 0 47.0689 10.2191 481 90.3846 1167.86 505.031
1951 0 49.0296 10.9118 535 90.1028 1167.75 503.699
1952 0 51.0561 11.2817 576 91.7257 1167.89 504.424
1953 0 50.0224 11.075 554 93.0108 1168.21 504.684
1954 0 54.066 11.19 605 91.0231 1168.29 503.74
1955 0 53.0488 10.8391 575 92.6122 1167.57 501.402
1956 0 56.0503 11.5075 645 90.0977 1167.83 501.468
1957 0 58.0923 11.344 659 89.6222 1167.6 501.472
1958 0 60.0988 11.8305 711 89.7032 1168.26 500.412
1959 0 60.0488 11.857 712 89.1208 1167.8 500.374
1960 0 60.0319 11.8604 712 90.3034 1168.11 499.917
1961 0 64.0406 11.8519 759 88.4743 1167.85 498.679
1962 0 64.0449 11.8042 756 89.7328 1167.91 498.028
1963 0 65.0591 11.8046 768 89.8854 1167.22 497.353
1964 0 68.0443 12.6976 864 87.2986 1168.32 496.416
1965 0 71.0606 11.652 828 89.0302 1168.06 495.13
1966 0 72.0292 11.8008 850 89.4835 1167.57 493.178
1967 0 73.0323 11.8715 867 89.6194 1168.03 492.024
1968 0 76.0372 12.2703 933 88.8103 1168.27 491.608
1969 0 78.034 11.5847 904 89.8761 1167.62 489.908
1970 0 80.0394 11.2195 898 90.2517 1167.55 488.777
1971 0 82.0661 11.4542 940 90.6766 1169.17 486.55
1972 0 86.0772 11.9195 1026 89.5185 1168.83 487.047
1973 1 43.02 9.90236 426 86.2606 1168.65 508.15
1974 0 43.0314 10.1089 435 86.5678 1168.93 508.945
1975 0 46.008 10.9329 503 89.9682 1169.4 507.344
1976 0 47.064 11.58 545 90.0385 1169.29 506.844
1977 0 47.1633 12.0433 568 94.0317 1168.95 506.882
1978 0 51.08 12.1966 623 91.4109 1168.27 506.438
1979 0 50.1586 12.1814 611 93.3797 1168.94 505.087
1980 0 52.1103 12.6079 657 93.2481 1168.39 504.962
1981 0 54.0994 12.6064 682 92.4897 1167.92 504.164
1982 0 54.0826 12.0926 654 91.708 1168.52 502.746
1983 0 57.0609 11.7418 670 90.8179 1168.28 501.821
1984 0 57.1169 11.7653 672 92.1801 1168.08 502.125
1985 0 59.1137 12.1968 721 89.1012 1168.06 500.879
1986 0 59.0587 12.0897 714 91.7395 1168.63 500.487
1987 0 61.0922 12.0965 739 91.8322 1168.37 500.198
1988 0 61.1017 11.8818 726 92.124 1168.41 498.551
1989 0 66.0637 12.3971 819 90.3077 1167.94 498.667
1990 0 66.0702 12.5624 830 91.5663 1168.79 497.829
1991 0 67.0683 12.1518 815 94.0871 1168.53 497.774
1992 0 70.0488 12.8054 897 94.146 1169.33 494.999
1993 0 71.0584 12.1449 863 97.2155 1168.52 493.905
1994 0 74.0469 12.8432 951 95.4238 1168.51 493.066
1995 0 76.0286 12.5348 953 95.8384 1168.5 492.126
1996 0 80.0414 12.8434 1028 95.68 1167.64 490.582
1997 0 83.0812 12.9753 1078 95.6447 1168.84 490.445
1998 0 83.0551 12.4616 1035 99.7478 1168.26 488.083
1999 0 86.0749 12.1987 1050 100.957 1168.7 486.517
2000 0 87.0695 11.91 1037 101.399 1168.18 484.802
2001 1 42.0287 10.4928 441 93.4467 1168.72 509.073
2002 0 42.1014 11.4011 480 96.9688 1168.6 508.465
2003 0 47.0805 11.491 541 95.6396 1168.47 508.161
2004 0 48.0415 11.9064 572 94.3514 1168.44 507.149
2005 0 49.0226 11.8721 582 91.4003 1168.16 506.148
2006 0 49.0227 11.7701 577 134.395 1167.19 506.066
2007 0 52.0366 11.7994 614 93.3681 1168.46 504.85
2008 0 53.0328 12.332 654 93.0275 1168.62 504.598
2009 0 52.0264 12.2246 636 95.5346 1168.22 503.503
2010 0 56.0126 12.033 674 95.0564 1168.09 502.797
2011 0 56.0183 12.8172 718 94.7799 1167.96 502.475
2012 0 61.0422 12.4504 760 94.5329 1168.46 501.154
2013 0 60.0686 12.6689 761 95.6097 1168.53 500.633
2014 0 65.0129 12.8744 837 93.9462 1168.65 499.231
2015 0 65.0609 12.4806 812 96.08 1168.74 498.773
2016 0 66.0867 12.4079 820 96.5659 1167.7 497.08
2017 0 70.0222 12.6531 886 95.6806 1168.48 496.709
2018 0 71.0526 12.6526 899 96.7019 1168.34 494.731
2019 0 73.0521 12.2242 893 97.6137 1168.51 494.932
2020 0 74.0399 12.9525 959 97.6142 1168.21 494.062
2021 0 77.0821 13.0899 1009 97.4519 1168.02 495.022
2022 0 79.0721 13.2537 1048 98.8588 1168.1 492.274
2023 0 82.0741 13.3051 1092 99.7106 1168.28 490.938
2024 0 85.0637 13.4252 1142 100.405 1168.49 489.016
2025 0 87.1311 13.6231 1187 99.3404 1167.38 488.542
2026 0 89.1022 14.5226 1294 100.439 1168.4 486.765
2027 0 92.1444 13.8912 1280 102.474 1167.6 486.155
2028 0 95.1639 14.1125 1343 101.139 1167.84 482.692
2029 0 97.1474 14.1846 1378 101.386 1166.9 481.306
2030 0 102.16 14.2424 1455 100.846 1167.36 479.472
2031 1 53.1862 11.958 636 101.192 1167.52 504.212
2032 0 52.2675 12.4552 651 102.31 1167.87 503.12
2033 0 55.0126 12.2881 676 95.5207 1168.47 506.642
2034 0 55.0551 12.1696 670 94.7552 1168.18 505.703
2035 0 56.034 11.8143 662 94.3112 1167.95 506.872
2036 0 58.0283 12.1837 707 94.6195 1167.28 504.868
2037 0 61.0189 12.2257 746 93.9035 1168.18 503.339
2038 0 64.0172 12.5123 801 93.9963 1167.96 502.498
2039 0 66.0553 13.3676 883 93.2797 1167.99 499.322
2040 0 69.0794 12.7534 881 93.3496 1167.81 499.064
2041 0 71.0449 12.4851 887 95.5006 1168.35 498.162
2042 0 73.0807 13.1635 962 94.7755 1168.04 497.09
2043 0 75.0396 12.9265 970 96.2515 1168.19 494.891
2044 0 77.0556 12.9257 996 95.6325 1167.71 495.187
2045 0 80.1186 13.455 1078 93.2217 1168.6 492.962
2046 0 83.0855 13.9495 1159 94.3538 1168.29 491.773
2047 0 85.1188 14.5796 1241 94.2216 1168 489.058
2048 0 85.0789 12.8939 1097 99.103 1168.46 489.757
2049 0 88.1851 13.3923 1181 98.2583 1167.7 488.135
2050 0 92.0574 13.7523 1266 98.8033 1168.02 487.43
2051 0 94.1765 13.4428 1266 99.6619 1167.41 483.624
2052 0 96.0787 13.7075 1317 100.732 1168.02 484.421
2053 1 49.2902 10.5498 520 97.9385 1167.04 507.644
2054 0 51.1038 12.0539 616 96.5146 1168.37 507.443
2055 0 51.3302 12.0397 618 98.5146 1167.11 505.547
2056 0 55.1198 12.3549 681 98.5345 1167.53 506.659
2057 0 54.0168 11.9037 643 100.258 1168.4 505.984
2058 0 57.0873 12.5597 717 99.3473 1168.65 504.833
2059 0 58.0407 12.3017 714 101.623 1168.17 504.35
2060 0 60.0412 12.9411 777 101.843 1167.47 503.136
2061 0 61.0454 12.6463 772 104.749 1167.83 503.31
2062 0 65.0963 12.4277 809 105.869 1168.26 502.115
2063 0 66.0701 13.2132 873 104.608 1168.12 500.527
2064 0 66.0307 13.312 879 146.619 1168.1 500.55
2065 0 70.0241 12.8242 898 108.002 1168.62 498.194
2066 0 71.0456 13.3295 947 108.067 1168.85 497.855
2067 0 74.0145 13.2542 981 108.946 1168.72 496.3
2068 0 76.0615 12.9369 984 111.537 1168.83 495.874
2069 0 78.0187 13.4968 1053 112.33 1168.37 494.07
2070 0 81.0661 13.3965 1086 113.442 1168.79 493.3
2071 0 82.0332 13.3117 1092 114.944 1168.35 490.131
2072 0 86.0696 13.5472 1166 113.876 1168.4 488.937
2073 0 87.0369 13.5 1175 115.172 1168.88 487.211
2074 0 89.0852 13.0437 1162 117.354 1167.87 483.285
2075 0 92.0546 12.6447 1164 117.68 1167.21 484.411
2076 0 94.0644 13.2781 1249 117.628 1167.66 482.332
2077 0 97.1034 13.3981 1301 116.804 1167.26 481.624
2078 0 100.107 12.7364 1275 117.838 1167.8 481.205
2079 0 103.087 13.1345 1354 116.97 1167.04 480.075
2080 0 106.134 13.1626 1397 117.616 1167.34 477.447
2081 0 109.146 13.6423 1489 116.873 1166.88 475.847
2082 1 59.0801 11.5606 683 118.018 1167.45 500.893
2083 0 60.1328 11.4912 691 118.599 1167.7 500.353
2084 0 60.1312 12.1568 731 117.609 1168.17 499.592
2085 0 61.0391 11.4189 697 111.166 1167.68 501.207
2086 0 61.0534 12.055 736 109.541 1168.06 500.329
2087 0 65.0553 11.6516 758 109.827 1167.84 499.9
2088 0 66.0282 12.2372 808 109.522 1168.52 498.953
2089 0 67.1573 12.3888 832 110.124 1168.3 497.495
2090 0 71.0936 11.8717 844 110.565 1167.71 497.41
2091 0 72.0458 12.034 867 110.985 1167.36 495.253
2092 0 74.1134 12.1031 897 112.331 1168.08 492.89
2093 0 79.0654 12.3822 979 109.698 1167.86 493.185
2094 0 80.0542 12.8538 1029 109.642 1168.16 492.325
2095 0 81.1154 12.2295 992 112.281 1167.71 491.696
2096 0 84.0578 12.5866 1058 111.189 1167.95 490.341
2097 0 87.185 12.7889 1115 111.475 1167.5 487.726
2098 0 87.1155 12.3744 1078 114.044 1167.92 488.36
2099 0 89.1142 12.6018 1123 115.167 1168.16 485.535
2100 0 94.1552 13.1485 1238 112.347 1167.95 484.609
2101 0 96.0995 12.8617 1236 113.519 1168.76 484.008
2102 0 98.0726 12.817 1257 115.053 1168.45 482.727
2103 0 107.197 15.2896 1639 104.612 1168.56 474.985
2104 0 108.115 14.9563 1617 108.049 1167.7 472.908
2105 0 109.093 13.7864 1504 115.36 1168.18 472.124
2106 0 111.106 13.5367 1504 116.822 1168.06 471.862
2107 0 115.172 13.354 1538 116.828 1168.29 472.12
2108 1 60.0833 11.6671 701 121.486 1168.81 498.367
2109 0 63.0433 11.9918 756 121.958 1169.09 496.754
2110 0 64.0838 12.2496 785 123.329 1169.23 494.832
2111 0 65.0792 13.5835 884 117.304 1168.95 494.154
2112 0 70.0729 12.6868 889 123.282 1168.84 493.397
2113 0 71.048 13.512 960 122.472 1168.92 492.34
2114 0 72.0629 13.3911 965 123.498 1169.05 491.725
2115 0 74.0771 13.4319 995 123.354 1169 488.853
2116 0 76.0428 13.6634 1039 117.526 1168.84 490.139
2117 0 77.0994 12.8665 992 122.763 1168.59 490.923
2118 0 77.0449 12.5511 967 127.431 1168.17 489.176
2119 0 81.0776 12.7409 1033 125.777 1168.49 489.315
2120 0 82.0959 13.0092 1068 124.996 1168.42 486.542
2121 0 85.0966 13.1498 1119 123.348 1167.76 483.783
2122 0 87.0718 12.9204 1125 124.866 1168.09 484.026
2123 0 90.0712 12.5456 1130 125.991 1168.6 481.904
2124 0 92.0962 12.6498 1165 125.772 1168.01 479.554
2125 0 97.127 12.6535 1229 125.95 1169.49 478.978
2126 0 97.1295 12.6017 1224 160.247 1171.48 478.89
2127 1 50.1437 11.6665 585 124.027 1168.37 502.19
2128 0 54.071 11.9473 646 116.738 1168.94 500.865
2129 0 53.0972 12.2229 649 112.022 1168.94 503.188
2130 0 53.104 12.2213 649 114.639 1168.95 501.468
2131 0 56.0329 12.1893 683 113.524 1168.98 501.363
2132 0 57.0793 12.106 691 115.43 1168.97 500.168
2133 0 60.1668 11.867 714 114.475 1169.05 500.188
2134 0 61.0446 12.4499 760 114.183 1169.42 500.128
2135 0 61.0616 12.5447 766 115.496 1169.61 497.782
2136 0 63.0571 12.5283 790 115.266 1168.77 496.784
2137 0 64.077 11.7359 752 117.972 1169.11 495.767
2138 0 67.0797 12.9845 871 114.711 1169.11 495.208
2139 0 67.0886 12.5059 839 118.903 1168.92 493.409
2140 0 69.0501 12.2809 848 119.652 1169.55 493.448
2141 0 74.0524 12.7612 945 118.162 1169.2 493.233
2142 0 74.1235 12.0475 893 122.466 1168.88 491.233
2143 0 77.0601 12.7822 985 120.323 1168.91 491.752
2144 0 78.0759 12.7824 998 121.894 1168.86 489.83
2145 0 82.112 12.9944 1067 120.272 1168.64 488.912
2146 0 82.0335 13.141 1078 121.62 1169 486.855
2147 0 85.0784 13.1408 1118 121.14 1168.66 487.319
2148 0 85.1241 12.7931 1089 121.034 1169.15 486.655
2149 0 89.0629 13.0806 1165 119.153 1169.14 485.557
2150 0 92.0336 13.0822 1204 117.449 1169.12 482.799
2151 0 96.0946 13.4659 1294 115.177 1168.48 481.109
2152 0 98.0776 13.1019 1285 116.943 1169.07 478.878
2153 1 52.0192 11.0536 575 120.099 1169.63 502.664
2154 0 57.0341 11.4493 653 119.773 1169.88 501.989
2155 0 57.0831 11.8599 677 120.263 1169.58 499.743
2156 0 59.0415 12.3134 727 111.832 1169.77 498.638
2157 0 58.0163 11.3589 659 109.564 1169.92 500.489
2158 0 60.019 11.7463 705 105.092 1169.31 500.772
2159 0 62.0243 11.7051 726 104.667 1170.18 499.406
2160 0 63.0352 11.7553 741 104.988 1170.18 498.861
2161 0 67.0407 11.6347 780 105.251 1169.67 497.018
2162 0 68.0264 11.3191 770 106.436 1169.88 497.439
2163 0 70.037 11.3511 795 106.733 1169.96 494.616
2164 0 74.0225 11.8342 876 105.038 1170.11 492.378
2165 0 75.0158 11.1976 840 106.412 1170.31 492.683
2166 0 80.0649 11.066 886 105.868 1169.72 490.514
2167 0 82.064 11.9053 977 104.406 1170.61 488.429
2168 0 86.0648 11.9096 1025 103.364 1169.84 489.223
2169 0 86.0694 11.5372 993 103.189 1170.37 486.435
2170 1 47.0366 10.9489 515 101.517 1170.05 506.208
2171 0 48.0125 11.1638 536 101.683 1170.01 505.285
2172 0 50.0491 12.0082 601 96.0599 1170.1 505.118
2173 0 52.0394 12.4329 647 95.2983 1170.54 503.148
2174 0 51.0148 11.8593 605 98.4926 1169.85 502.702
2175 0 51.0142 11.9378 609 133.271 1169.87 502.731
2176 0 51.0639 11.1625 570 102.626 1170.43 504.147
2177 0 55.0346 11.0476 608 100.732 1169.84 503.775
2178 0 58.0371 11.4582 665 100.071 1170.26 502.2
2179 0 59.0471 11.4146 674 99.5252 1171.14 502.107
2180 0 59.0482 11.533 681 101.759 1170.56 501.241
2181 0 62.0872 11.6932 726 101.054 1170.25 499.704
2182 0 63.1096 11.377 718 103.627 1170.18 499.033
2183 0 67.0868 11.2094 752 104.112 1170.27 497.158
2184 0 69.0567 11.8019 815 102.394 1170.41 496.339
2185 0 71.1734 12.5047 890 102.64 1169.93 494.639
2186 0 73.0628 11.9076 870 105.966 1169.79 493.556
2187 0 75.0564 12.0309 903 106.261 1170.32 492.78
2188 0 79.0472 12.7772 1010 105.202 1170.01 491.106
2189 0 82.0988 13.0574 1072 104.198 1169.82 490.086
2190 0 86.1536 12.7215 1096 105.524 1170.29 489.033
2191 0 87.1282 12.912 1125 106.707 1170.01 487.847
2192 1 46.0265 11.2761 519 108.26 1169.91 507.179
2193 0 45.021 11.3058 509 110.379 1170.12 507.214
2194 0 49.0469 12.906 633 110.512 1170.36 506.262
2195 0 50.0124 12.5569 628 114.707 1170.25 505.793
2196 0 47.0661 11.3032 532 114.534 1170.51 507.59
2197 0 48.0496 11.8836 571 113.8 1170.59 506.524
2198 0 51.0156 12.31 628 112.143 1170.37 506.186
2199 0 53.0655 12.2113 648 113.023 1170.97 505.213
2200 0 54.0544 12.4689 674 113.126 1171.12 505.206
2201 0 55.0403 12.3364 679 114.343 1170.87 504.32
2202 0 58.0458 12.4901 725 112.914 1170.39 503.886
2203 0 61.0701 12.4775 762 112.379 1169.65 503.416
2204 0 61.0957 13.127 802 113.519 1171.01 502.32
2205 0 62.0734 12.3241 765 116.136 1170.86 502.758
2206 0 65.067 12.4948 813 117.069 1171.03 500.32
2207 0 66.0374 12.8261 847 116.881 1170 500.813
2208 0 68.0273 13.3035 905 116.137 1170.33 499.802
2209 0 72.0608 13.0584 941 116.791 1170.12 499.78
2210 0 72.0732 13.6805 986 116.5 1170.29 498.855
2211 0 74.0739 13.743 1018 117.169 1169.68 497.751
2212 0 75.0513 13.3509 1002 121.103 1170.01 496.399
2213 0 79.0641 13.6219 1077 119.513 1169.35 494.15
2214 0 81.0925 14.021 1137 118.731 1169.34 494.052
2215 0 83.0456 13.7756 1144 119.517 1169.68 491.439
2216 0 84.0897 13.5094 1136 120.528 1169.61 490.872
2217 0 87.0904 13.4802 1174 120.603 1169.31 489.587
2218 0 92.0555 13.796 1270 117.756 1168.77 488.802
2219 0 95.0688 13.9162 1323 117.977 1169.23 487.342
2220 0 97.1184 14.7243 1430 116.006 1169.67 484.238
2221 1 51.1185 12.2461 626 123.28 1169.21 508.46
2222 0 51.0864 12.9389 661 123.52 1169.09 507.372
2223 0 55.0852 12.998 716 123.545 1169.49 506.848
2224 0 54.0485 13.7284 742 120.678 1169.11 506.511
2225 0 56.0669 14.2687 800 110.794 1168.43 505.791
2226 0 58.074 13.3967 778 114.364 1169.08 505.509
2227 0 58.0602 13.0726 759 116.681 1169.01 505.079
2228 0 60.0274 13.2773 797 116.325 1169.1 504.262
2229 0 60.0453 13.0901 786 117.936 1168.84 502.878
2230 0 62.0601 12.504 776 117.714 1169.41 502.765
2231 0 66.0736 12.8039 846 115.405 1168.92 501.767
2232 0 67.0977 13.1152 880 114.072 1169.04 501.967
2233 0 67.0508 13.4525 902 113.688 1168.81 500.775
2234 0 71.0698 13.4234 954 110.912 1169.42 500.164
2235 0 74.052 13.2744 983 112.01 1169.04 499.056
2236 0 74.1171 13.2763 984 112.895 1168.1 498.338
2237 0 76.1206 13.1765 1003 114.895 1168.71 496.9
2238 0 80.1126 13.4935 1081 114.392 1168.12 496.359
2239 0 83.0237 13.6587 1134 113.524 1167.9 494.321
2240 0 87.0767 14.4126 1255 118.68 1167.99 491.014
2241 0 89.1282 14.294 1274 117.763 1168.13 490.756
2242 1 48.0246 12.0147 577 121.118 1168.57 510.822
2243 0 50.0495 13.0471 653 114.992 1168.17 510.515
2244 0 51.0334 12.3645 631 115.325 1167.77 509.209
2245 0 52.0635 13.0034 677 110.994 1169.05 508.099
2246 0 51.084 12.0586 616 112.789 1168.53 509.19
2247 0 53.0696 11.9654 635 112.961 1168.53 508.709
2248 0 53.0853 11.9996 637 113.771 1168.6 508.534
2249 0 54.0766 11.7981 638 114.6 1168.76 507.837
2250 0 58.0766 12.5696 730 110.275 1168.59 506.088
2251 0 60.0804 12.5166 752 110.89 1168.78 505.487
2252 0 62.0399 12.8627 798 110.9 1168.44 505.078
2253 0 62.068 12.8085 795 112.497 1168.27 503.662
2254 0 64.1488 12.5957 808 114.338 1168.94 502.431
2255 0 67.1068 12.8452 862 115.804 1169.43 500.415
2256 0 69.138 12.8583 889 118.564 1168.97 498.579
2257 0 71.0491 13.0051 924 119.851 1169.55 498.582
2258 0 74.1478 13.1899 978 119.719 1168.95 496.42
2259 0 76.2008 13.2282 1008 119.29 1168.59 496.746
2260 0 77.1529 12.5724 970 120.885 1169.57 496.988
2261 0 80.1251 12.6053 1010 119.424 1169.38 494.884
2262 0 83.1067 12.5261 1041 119.134 1168.44 493.061
2263 1 43.1159 11.5966 500 123.026 1169.1 511.744
2264 0 42.0767 12.0019 505 123.838 1168.85 511.044
2265 0 45.1691 12.4421 562 120.425 1169.16 509.984
2266 0 47.0269 12.9288 608 117.301 1169.34 509.789
2267 0 48.0951 13.0575 628 118.949 1169.38 509.436
2268 0 50.064 13.0033 651 119.375 1169.43 507.682
2269 0 49.1071 13.1345 645 120.101 1169.46 507.699
2270 0 54.1086 13.2326 716 116.08 1168.93 506.268
2271 0 54.0508 13.8203 747 115.933 1169.65 506.147
2272 0 55.0882 12.8884 710 120.383 1169.49 505.852
2273 0 56.0715 13.6433 765 116.992 1169.2 505.119
2274 0 57.07 13.2118 754 117.944 1169.21 503.983
2275 0 58.1058 13.4066 779 117.072 1169.02 503.887
2276 0 61.1367 13.6743 836 115.61 1168.73 502.482
2277 0 62.1249 14.2133 883 113.853 1168.75 501.562
2278 0 62.1311 13.8095 858 115.852 1169.05 501.202
2279 0 62.1219 13.9564 867 151.709 1169.04 501.014
2280 0 67.1768 13.5315 909 114.848 1168.94 498.932
2281 0 69.1653 14.2991 989 111.357 1169.43 496.823
2282 0 69.104 14.1526 978 113.931 1169.56 496.528
2283 0 73.147 14.1769 1037 112.196 1169.13 495.632
2284 0 76.1776 13.8886 1058 106.903 1168.33 494.57
2285 0 78.1341 13.8352 1081 107.114 1168.4 494.871
2286 0 80.1758 13.4704 1080 108.243 1167.79 492.431
2287 0 84.0537 13.2534 1114 107.708 1168.92 491.821
2288 0 86.1142 13.7724 1186 105.951 1168.93 488.969
2289 1 43.0216 11.5756 498 113.841 1168.73 508.502
2290 0 46.0653 12.2435 564 112.057 1168.77 506.113
2291 0 45.0824 11.8672 535 113.901 1168.45 504.277
2292 0 46.0196 12.712 585 110.747 1168.46 503.272
2293 0 48.0291 12.5549 603 110.167 1169.06 503.254
2294 0 49.0656 12.7584 626 110.395 1168.9 502.613
2295 0 52.0122 12.5547 653 109.136 1169.02 503.539
2296 0 52.0227 12.3792 644 110.32 1168.84 500.297
2297 0 54.0438 12.8784 696 107.879 1168.58 500.231
2298 0 55.0741 11.9475 658 104.567 1168.83 500.655
2299 0 56.0622 11.5586 648 105.224 1169.06 500.92
2300 0 60.0336 12.9261 776 109.844 1169.37 502.485
2301 0 62.0828 12.7733 793 110.198 1169.35 501.17
2302 0 62.0828 12.7572 792 131.734 1168.33 501.259
2303 0 65.0408 12.4999 813 112.314 1168 498.225
2304 0 66.0584 12.6403 835 112.656 1168.68 497.345
2305 0 67.1966 12.7685 858 113.668 1168.34 495.534
2306 0 71.2005 12.7808 910 111.58 1169.31 494.8
2307 0 71.0736 12.7051 903 113.334 1168.95 492.609
2308 0 76.0594 13.3711 1017 109.685 1169.36 493.303
2309 0 76.0602 13.1343 999 109.814 1169.48 490.711
2310 0 78.1318 13.0293 1018 111.387 1169.35 490.934
2311 0 82.1721 13.6786 1124 109.869 1169.5 488.777
2312 0 85.1564 13.7981 1175 112.977 1169.66 490.213
2313 0 87.1317 14.0133 1221 114.285 1169.11 489.526
2314 0 88.0596 13.9224 1226 116.145 1169.49 488.963
2315 0 91.0656 14.0668 1281 117.306 1169.44 486.434
2316 0 94.1205 14.0033 1318 119.188 1169.46 485.326
2317 0 98.1702 14.6175 1435 115.348 1168.16 482.701
2318 0 101.05 14.8837 1504 115.557 1168.95 481.202
2319 0 103.07 14.0002 1443 119.601 1168.87 481.024
2320 0 104.058 13.8768 1444 119.857 1168.82 479.462
2321 0 109.094 14.0521 1533 118.517 1168.52 475.999
2322 0 113.083 14.2639 1613 115.833 1168.46 474.208
2323 1 62.0858 11.1459 692 116.347 1168.58 496.379
2324 0 64.0284 12.1665 779 115.448 1168.69 494.122
2325 0 65.0482 12.2217 795 117.699 1169.09 492.815
2326 0 70.0444 13.6056 953 116.02 1168.83 493.611
2327 0 70.0456 13.4341 941 113.956 1169.3 492.391
2328 0 74.0462 13.5726 1005 112.223 1169.4 490.087
2329 0 77.0629 13.7161 1057 112.081 1169.19 488.035
2330 0 80.0428 13.8301 1107 111.379 1170.04 486.827
2331 0 80.0616 13.6395 1092 112.995 1169.2 485.345
2332 0 80.0616 13.6395 1092 152.201 1168.18 485.387
2333 0 83.0505 13.1727 1094 114.629 1169.57 484.493
2334 0 85.0272 13.384 1138 114.145 1170.01 483.372
2335 0 88.0262 13.4278 1182 114.016 1170.19 481.574
2336 0 90.0263 13.1184 1181 116.437 1170.48 479.803
2337 0 93.0461 13.0795 1217 116.016 1170.46 476.867
2338 0 93.0524 12.7992 1191 117.668 1170.12 475.222
2339 0 100.119 13.2243 1324 117.942 1170.13 473.459
2340 1 51.0195 11.1526 569 124.395 1170.09 497.666
2341 0 55.0117 11.4521 630 123.003 1170.07 496.941
2342 0 56.0249 12.0482 675 123.33 1170.01 496.527
2343 0 59.0501 12.6333 746 119.567 1170.62 496.552
2344 0 59.0464 12.6341 746 120.57 1171.62 496.552
2345 0 61.0704 12.6903 775 121.017 1169.59 495.234
2346 0 68.0562 13.195 898 116.111 1169.51 497.248
2347 0 66.0456 12.9153 853 121.004 1169.07 496.877
2348 0 70.0923 13.1684 923 119.885 1169.59 496.152
2349 0 70.0437 13.1489 921 122.888 1169.31 495.607
2350 0 72.0528 12.9905 936 123.686 1169.01 494.657
2351 0 76.091 13.1159 998 123.683 1168.72 493.965
2352 0 76.0495 13.0047 989 125.653 1168.14 493.004
2353 0 79.0697 12.7356 1007 127.208 1168.19 493.034
2354 0 80.07 12.539 1004 129.847 1168.44 490.635
2355 0 81.0622 13.1011 1062 128.298 1168.4 489.919
2356 0 85.1193 13.111 1116 128.589 1167.76 488.865
2357 0 88.0603 13.0138 1146 129.128 1168.49 487.079
2358 0 88.0706 13.2962 1171 128.857 1168.43 485.474
2359 0 92.0846 12.9881 1196 129.743 1167.57 485.848
2360 0 94.1485 12.9795 1222 129.987 1167.47 482.226
2361 0 99.0812 13.0903 1297 129.384 1167.14 482.121
2362 0 101.112 13.035 1318 129.496 1167.36 481.571
2363 0 104.127 13.3394 1389 128.574 1166.69 478.726
2364 0 107.151 12.9164 1384 130.683 1166.62 477.331
2365 1 56.0619 10.7738 604 129.757 1166.04 499.503
2366 0 57.09 11.4381 653 126.009 1165.53 499.541
2367 0 60.0331 11.7935 708 126.867 1166.45 501.071
2368 0 62.026 13.575 842 122.186 1166.37 503.967
2369 0 66.0538 13.1257 867 122.197 1167.63 504.671
2370 0 67.1288 13.5709 911 121.846 1166.35 503.339
2371 0 70.1516 12.9291 907 122.182 1166.94 502.143
2372 0 73.1648 13.7498 1006 119.849 1167.52 500.995
2373 0 75.169 13.9552 1049 120.486 1167.67 497.478
2374 0 75.1481 13.6664 1027 120.005 1166.94 497.827
2375 0 78.1013 13.4057 1047 120.02 1167.11 497.228
2376 0 79.0684 13.2543 1048 120.239 1166.96 493.948
2377 0 81.1568 13.2583 1076 119.662 1167.64 492.128
2378 0 82.153 13.5114 1110 117.65 1167.23 490.398
2379 0 85.1981 13.228 1127 119.146 1167.49 487.849
2380 0 88.1343 13.434 1184 118.393 1167.69 486
2381 0 88.1765 13.6431 1203 117.366 1167.51 481.762
2382 0 92.1797 13.0831 1206 117.066 1167.11 480.487
2383 0 94.174 13.5281 1274 116.37 1167.1 478.739
2384 0 98.17 13.6905 1344 114.325 1166.98 476.649
2385 0 100.245 13.3872 1342 115.511 1167.85 475.132
2386 0 105.219 13.9804 1471 112.823 1167.38 474.114
2387 0 108.188 13.8093 1494 114.115 1166.72 472.748
2388 0 112.212 13.8577 1555 113.334 1167.22 470.024
2389 0 116.201 14.2684 1658 112.32 1167.18 466.502
2390 0 120.228 13.5659 1631 112.156 1167.3 465.204
2391 1 57.0241 10.2588 585 112.935 1166.69 495.074
2392 0 63.0339 11.1369 702 110.369 1167.02 495.83
2393 0 64.0242 11.5737 741 110.834 1167.09 494.304
2394 0 66.0328 12.1303 801 110.663 1167.32 494.218
2395 0 70.142 13.3016 933 114.385 1167.88 496.863
2396 0 73.0594 13.1263 959 115.345 1168.38 495.504
2397 0 75.1104 13.2738 997 116.151 1167.85 494.868
2398 0 77.0347 13.5004 1040 115.674 1168.11 494.038
2399 0 77.0394 12.6429 974 109.769 1167.86 492.957
2400 0 78.0339 12.328 962 110.405 1167.81 492.967
2401 0 79.0267 12.0339 951 111.59 1168.12 492.624
2402 0 82.0255 12.1791 999 112.564 1168.47 491.654
2403 0 84.0817 12.3095 1035 112.192 1168.53 491.953
2404 0 85.0553 12.145 1033 114.689 1168.83 489.42
2405 0 87.1112 12.4553 1085 104.343 1168.56 489.294
2406 0 90.057 12.4366 1120 114.408 1168.57 488.603
2407 0 94.0499 12.5784 1183 114.901 1169.42 487.098
2408 0 94.0499 12.6529 1190 148.697 1170.4 487.159
2409 0 100.052 13.2631 1327 113.442 1169.68 482.593
2410 0 103.083 12.8052 1320 121.607 1169.05 482.391
2411 0 106.087 12.9516 1374 121.457 1169.58 480.196
2412 0 109.07 12.414 1354 123.243 1169.55 478.713
2413 1 56.022 11.5669 648 121.012 1170.49 504.668
2414 0 58.0768 12.1391 705 121.423 1169.85 503.997
2415 0 58.0801 11.9835 696 123.411 1170.29 504.523
2416 0 62.1514 12.5178 778 127.365 1169.97 503.254
2417 0 61.0535 11.3507 693 118.45 1169.94 505.544
2418 0 62.138 11.1687 694 121.395 1169.44 504.787
2419 0 64.0491 11.8971 762 118.808 1169.19 502.804
2420 0 65.1727 11.4619 747 120.083 1169.01 503.744
2421 0 69.1403 11.5707 800 118.792 1169.26 501.994
2422 0 70.0843 11.6289 815 118.924 1168.79 500.871
2423 0 71.192 11.7991 840 118.355 1168.91 500.621
2424 0 74.0639 12.5027 926 116.278 1168.9 500.456
2425 0 75.0415 11.9267 895 120.38 1168.9 498.104
2426 0 78.1142 11.9569 934 118.842 1168.34 496.419
2427 0 79.1255 12.5244 991 117.131 1168.85 495.154
2428 0 82.0805 11.6715 958 119.643 1170.48 492.507
2429 0 85.022 12.0204 1022 119.769 1170.08 492.614
2430 0 86.1223 11.9249 1027 125.929 1170.12 490.192
2431 0 88.0524 11.6294 1024 125.328 1170.18 490.613
2432 0 90.0565 11.7482 1058 126.188 1170.02 490.065
2433 0 94.0715 11.7464 1105 128.135 1169.4 488.854
2434 1 104.062 16.5094 1718 111.108 1169.88 480.555
2435 0 104.096 16.331 1700 118.026 1170.04 480.669
2436 0 107.169 14.9764 1605 124.223 1170.36 478.645
2437 0 109.093 14.978 1634 126.386 1170.03 478.102
2438 0 109.12 13.7739 1503 130.708 1170.08 479.271
2439 0 110.085 13.5805 1495 134.015 1169.39 477.207
2440 0 113.156 13.371 1513 133.345 1170.1 478.071
2441 0 116.045 13.7188 1592 131.948 1169.72 477.585
2442 0 118.142 13.2975 1571 136.444 1169.87 474.045
2443 0 123.163 14.0708 1733 132.587 1169.75 471.778
2444 0 125.16 13.9502 1746 133.436 1169.13 470.21
2445 0 126.232 13.4911 1703 136.156 1169.21 468.679
2446 0 132.107 13.6632 1805 135.878 1169.16 466.512
2447 0 136.194 14.2811 1945 134.068 1169.57 462.56
2448 0 139.098 14.0692 1957 136.353 1169.32 458.573
2449 0 145.198 14.3459 2083 134.715 1169.63 458.289
2450 0 147.102 14.1399 2080 135.794 1169.66 453.246
2451 0 152.149 14.1046 2146 135.378 1169.44 449.483
2452 0 156.157 14.4085 2250 137.627 1168.82 448.72
2453 0 162.21 14.136 2293 135.647 1168.41 445.145
2454 0 166.207 14.4699 2405 137.168 1168.06 444.189
2455 0 171.196 14.3987 2465 136.303 1168.03 441.308
2456 0 175.167 14.1636 2481 135.779 1168.51 435.967
2457 0 182.208 14.4944 2641 133.256 1168.01 436.359
2458 0 187.231 14.2872 2675 134.889 1168.6 433.408
2459 0 194.314 14.6309 2843 134.057 1169.41 430.802
2460 0 200.24 16.4003 3284 126.069 1168.6 422.087
2461 0 201.352 14.0997 2839 135.206 1167.66 425.797
2462 0 207.22 13.5219 2802 134.459 1168.51 422.023
2463 0 213.253 14.321 3054 129.35 1168.61 420.115
2464 0 219.208 13.3937 2936 131.105 1168.56 420.091
2465 0 224.271 13.234 2968 133.51 1168.6 414.186
2466 0 231.292 13.6581 3159 131.224 1169.11 409.939
2467 0 238.213 13.6433 3250 131.522 1168.91 408.008
2468 0 244.209 13.8283 3377 131.07 1169.2 401.598
2469 0 254.234 14.168 3602 128.309 1169.3 398.469
2470 0 262.151 14.0606 3686 128.48 1168.63 393.162
2471 0 269.212 14.301 3850 126.337 1168.91 388.302
2472 0 278.221 14.0033 3896 127.169 1168.73 385.383
2473 0 288.205 14.7152 4241 125.234 1169.03 380.586
2474 0 296.191 13.704 4059 128.327 1168.12 380.941
2475 1 253.136 12.9969 3290 130.681 1169.29 403.828
2476 0 261.226 13.4864 3523 131.879 1168.91 403.924
2477 0 268.338 13.9674 3748 133.278 1168.79 394.205
2478 1 48.0357 10.1591 488 116.402 1170.54 509.838
2479 0 50.059 11.0869 555 113.962 1170.02 509.636
2480 0 52.0755 11.4065 594 111.684 1168.95 509.207
2481 0 54.0863 10.927 591 112.997 1168.63 507.619
2482 0 56.0939 11.6412 653 109.074 1169.38 507.977
2483 0 53.0193 11.0903 588 105.59 1170.33 509.405
2484 0 56.0993 10.3923 583 104.177 1170.04 508.955
2485 0 56.1315 10.6001 595 104.545 1169.39 509.168
2486 0 58.0275 10.9431 635 105.737 1169.51 506.679
2487 0 62.0375 12.1056 751 102.253 1170.41 503.209
2488 0 61.0778 10.8386 662 108.403 1170.59 503.95
2489 1 20.0092 7.74644 155 124.548 1168.75 455.29
2490 1 87.1307 6.737 587 116.193 1169.98 501.952
2491 0 88.1616 7.00985 618 116.107 1169.97 501.15
2492 0 73.1177 15.14 1107 93.7001 1169.6 493.024
2493 0 84.0926 15.5305 1306 87.1508 1169.99 493.17
2494 0 79.0702 14.1773 1121 98.1276 1170.23 494.401
2495 0 76.1641 12.8144 976 105.69 1170.5 496.452
2496 0 78.1081 12.4571 973 108.627 1170.24 496.484
2497 0 81.1945 14.6438 1189 97.106 1169.84 493.353
2498 0 84.1543 15.2814 1286 96.4324 1169.72 492.474
2499 0 84.1263 14.8943 1253 99.8244 1168.86 491.387
2500 0 87.1515 15.169 1322 99.0514 1169.44 489.776
2501 0 89.136 14.7864 1318 102.4 1168.33 489.53
2502 0 92.089 15.5393 1431 98.0321 1168.72 488.858
2503 0 94.104 15.4722 1456 96.4169 1168.18 486.335
2504 0 97.067 15.1339 1469 100.378 1168.45 485.372
2505 0 98.1327 15.2039 1492 107.413 1168.16 481.068
2506 0 101.094 14.9168 1508 108.662 1168.53 480.794
2507 0 105.179 14.7653 1553 109.206 1168.72 479.401
2508 1 56.2702 11.3026 636 108.412 1168.61 506.406
2509 0 58.2188 11.869 691 106.548 1167.36 504.936
2510 0 59.2771 12.0957 717 106.703 1167.89 503.085
2511 0 61.2435 12.3115 754 105.414 1167.65 500.753
2512 0 60.0427 12.3412 741 104.242 1167.57 503.018
2513 0 63.0605 12.7655 805 99.0509 1167.88 503.682
2514 0 62.0112 12.4977 775 102.472 1167.85 504.175
2515 0 63.0272 12.1376 765 103.374 1167.67 504.156
2516 0 65.0358 12.2548 797 103.099 1167.93 502.26
2517 0 67.0345 12.7248 853 100.883 1168.29 501.125
2518 0 70.0783 12.7144 891 101.311 1168.15 498.697
2519 0 72.0567 12.4763 899 101.902 1167.67 496.971
2520 0 73.0463 13.115 958 100.293 1167.62 497.538
2521 0 74.016 13.0918 969 101.262 1168.03 496.091
2522 0 74.0184 12.713 941 103.262 1167.63 496.251
2523 0 78.0696 13.0268 1017 101.518 1167.33 494.592
2524 0 80.0527 13.1289 1051 99.2046 1166.84 494.478
2525 0 81.0908 13.1334 1065 99.5324 1167.23 493.526
2526 0 84.0943 12.9022 1085 100.776 1166.98 491.308
2527 0 87.0869 14.0779 1226 97.5302 1167.66 488.291
2528 0 88.0963 13.2469 1167 99.2991 1167.56 490.403
2529 0 93.1128 14.1012 1313 97.0449 1167.56 486.414
2530 0 93.1403 13.7857 1284 99.1604 1168.2 487.723
2531 0 97.1186 14.436 1402 97.4922 1168.11 483.551
2532 0 99.078 14.0193 1389 98.4852 1168.08 483.204
2533 0 102.139 13.7754 1407 101.159 1167.96 481.395
2534 0 103.087 13.639 1406 102.214 1167.68 480.341
2535 0 105.081 12.5998 1324 104.005 1167.46 481.433
2536 0 107.099 13.1654 1410 102.692 1168.23 478.063
2537 0 111.143 12.5604 1396 102.185 1168 477.085
2538 0 114.108 14.0393 1602 101.993 1167.98 471.827
2539 0 119.12 14.6659 1747 98.6348 1168.8 468.737
2540 0 121.126 13.7542 1666 100.37 1168.77 468.318
2541 0 123.161 13.4783 1660 98.35 1169.41 467.414
2542 0 128.188 14.4241 1849 95.047 1168.36 465.045
2543 0 130.148 13.792 1795 96.8078 1169.3 464.218
2544 0 135.264 14.2388 1926 99.8281 1168.72 459.328
2545 0 141.193 14.4129 2035 99.0118 1169.01 457.578
2546 0 143.243 14.2555 2042 99.3683 1168.7 453.279
2547 0 148.226 14.5521 2157 98.3542 1167.94 450.001
2548 0 153.153 14.2472 2182 97.5339 1167.58 447.362
2549 0 159.322 15.0387 2396 94.4516 1168.72 443.756
2550 0 160.226 14.2361 2281 97.7676 1168.08 443.134
2551 0 168.243 13.6232 2292 97.938 1168.46 443.034
2552 0 174.198 14.0644 2450 97.3057 1168.44 439.083
2553 0 178.229 13.3312 2376 99.6393 1169.96 438.769
2554 0 185.182 14.1591 2622 97.6636 1170.49 434.77
2555 0 189.1 13.5589 2564 100.184 1170.29 432.295
2556 1 141.142 12.6822 1790 102.405 1170.77 455.089
2557 0 143.151 13.0282 1865 104.391 1171.11 451.276
2558 0 150.159 13.1194 1970 104.59 1169.57 449.622
2559 0 152.136 13.8955 2114 102.969 1169.2 445.096
2560 0 158.164 13.6883 2165 101.083 1168.25 443.094
2561 0 161.211 13.1133 2114 102.326 1169.16 441.707
2562 0 168.184 13.5447 2278 101.496 1169.19 438.929
2563 0 174.138 13.3113 2318 101.786 1169.39 435.796
2564 0 179.194 13.5774 2433 103.18 1169.22 431.968
2565 0 185.163 13.2964 2462 105.113 1168.96 427.3
2566 1 41.0887 9.73503 400 87.255 1168.48 499.7
2567 0 44.0746 10.1419 447 84.4922 1169.07 499.676
2568 0 47.0036 10.7226 504 81.4881 1169.26 500.984
2569 0 50.0366 11.4716 574 95.2648 1169.58 503.821
2570 0 52.0646 11.5049 599 95.3756 1169.68 502.269
2571 0 53.035 11.747 623 95.984 1170.05 501.984
2572 0 53.0808 11.1528 592 87.6453 1169.38 503.959
2573 0 52.0476 10.5288 548 89.9507 1168.91 503.354
2574 0 55.0415 10.2832 566 87.9293 1167.86 503.581
2575 0 58.0793 11.0194 640 86.6719 1168.16 502.288
2576 0 57.0801 10.932 624 88.9872 1168.6 500.346
2577 0 59.1082 11.0644 654 89.6789 1168.57 500.124
2578 0 60.0428 11.1087 667 90.4708 1168.92 499.514
2579 0 62.0868 10.9041 677 92.8331 1169.46 498.306
2580 0 66.0842 11.6518 770 90.739 1168.6 496.725
2581 0 68.1196 11.289 769 91.13 1168.52 495.86
2582 0 70.1594 12.101 849 89.788 1169.2 494.253
2583 0 70.0588 10.4484 732 95.7978 1169.48 495.725
2584 0 74.1124 13.3986 993 88.5901 1169.56 491.252
2585 0 74.1124 13.3311 988 120.718 1169.56 491.4
2586 0 76.1016 10.2232 778 97.8278 1169.34 493.769
2587 0 80.1909 11.3105 907 96.6604 1168.72 490.753
2588 0 80.1519 10.8419 869 99.2819 1169.49 490.707
2589 0 81.0659 10.806 876 102.187 1169 491.417
2590 0 82.115 10.4609 859 104.467 1169.18 490.624
2591 0 85.0962 10.2472 872 107.724 1169.21 489.474
2592 0 89.1472 10.9482 976 108.122 1169.43 487.062
2593 0 92.1836 10.9022 1005 109.973 1169.63 483.51
2594 0 96.1025 12.2161 1174 106.608 1169.44 484.746
2595 0 97.0806 11.5368 1120 109.729 1169.67 483.298
2596 0 101.138 12.6164 1276 107.042 1169.64 482.454
2597 0 103.108 11.6868 1205 111.434 1169.75 480.007
2598 0 105.124 12.3283 1296 110.967 1168.6 477.418
2599 0 110.086 12.7718 1406 108.931 1168.91 476.448
2600 0 114.095 12.5509 1432 109.089 1168.88 476.004
2601 0 115.107 12.4059 1428 111.144 1169.97 474.32
2602 0 117.112 12.774 1496 111.608 1169.36 473.553
2603 0 119.036 12.7524 1518 111.605 1169.4 471.713
2604 0 124.106 12.9567 1608 110.961 1169.22 471.543
2605 0 129.169 13.4165 1733 113.358 1169.81 468.538
2606 0 131.132 13.2386 1736 114.613 1169.42 466.482
2607 0 136.203 13.5313 1843 114.942 1170.08 462.778
2608 1 68.0893 11.1765 761 112.037 1169.92 498.003
2609 0 70.1173 11.9229 836 108.187 1170.36 494.312
2610 0 72.1158 12.0917 872 107.983 1169.65 495.114
2611 0 74.1837 12.9543 961 108.214 1169.3 493.847
2612 0 79.1406 13.1159 1038 108.688 1169.18 491.845
2613 0 80.1207 13.1427 1053 110.349 1169.56 490.446
2614 0 83.0667 13.4591 1118 111.216 1169.28 488.085
2615 0 86.0523 13.2478 1140 120.339 1169.35 487.751
2616 0 90.06 13.2911 1197 118.2 1169.31 486.614
2617 0 93.0722 13.5271 1259 117.143 1169.95 484.113
2618 0 96.0845 12.9365 1243 119.95 1169.85 483.916
2619 0 100.095 12.678 1269 120.728 1170.84 481.552
2620 0 100.097 12.8276 1284 120.165 1169.46 480.907
2621 0 104.037 12.6878 1320 119.925 1169.45 479.7
2622 0 107.07 12.646 1354 119.695 1169.49 477.909
2623 0 110.121 13.2127 1455 119.206 1170.77 476.253
2624 0 113.11 13.5796 1536 118.849 1169.31 474.323
2625 1 59.0255 11.6729 689 119.681 1169.7 499.704
2626 0 63.0213 12.2498 772 116.716 1169.35 498.152
2627 0 61.0378 12.3858 756 108.14 1169.33 495.276
2628 0 65.012 12.5054 813 117.571 1169.2 496.911
2629 0 66.0473 12.5516 829 109.503 1168.93 496.303
2630 0 69.046 12.5134 864 111.037 1169.01 495.542
2631 0 72.0824 13.5262 975 107.036 1169.35 495.362
2632 0 75.0831 13.7315 1031 116.997 1169.39 492.454
2633 0 78.0255 13.2521 1034 116.257 1169.51 492.374
2634 0 80.0384 13.0437 1044 116.993 1169.6 490.986
2635 0 83.0282 13.5135 1122 114.895 1169.82 489.464
2636 0 84.0707 13.5362 1138 115.696 1169.73 487.426
2637 0 87.0237 13.9043 1210 113.68 1169.67 486.932
2638 0 89.0573 13.5306 1205 115.232 1169.89 486.279
2639 0 92.0641 14.0446 1293 113.128 1170.26 484.466
2640 0 95.1042 13.848 1317 112.564 1168.89 483.361
2641 0 97.0411 14.1796 1376 111.699 1169.16 481.461
2642 0 100.104 14.0354 1405 111.056 1169.46 480.596
2643 0 102.074 13.4804 1376 111.814 1169.12 479.154
2644 0 103.09 13.4154 1383 112.514 1168.91 476.791
2645 1 54.044 11.7497 635 111.044 1168.4 502.069
2646 0 54.0688 11.7628 636 112.451 1168.8 502.167
2647 0 57.0776 13.1225 749 108.881 1169.06 501.744
2648 0 60.1299 13.5872 817 107.384 1168.54 500.74
2649 0 59.0436 12.8888 761 107.938 1168.69 501.414
2650 0 61.0531 13.2344 808 107.251 1169.2 499.938
2651 0 61.023 12.7985 781 108.138 1169.13 499.529
2652 0 64.0526 12.6303 809 107.691 1169.05 497.781
2653 0 66.0952 13.299 879 106.816 1169.39 496.609
2654 0 69.1073 13.3126 920 106.221 1169.3 496.533
2655 0 68.0465 13.3879 911 109.67 1169.04 494.63
2656 0 72.0408 13.4368 968 108.031 1169.42 494.869
2657 0 75.0374 13.6998 1028 108.496 1169.41 492.977
2658 0 75.027 13.5818 1019 110.768 1168.84 491.495
2659 0 80.0237 14.4082 1153 107.744 1169.94 490.906
2660 0 81.0248 13.7612 1115 111.03 1169.9 490.301
2661 0 83.1025 13.706 1139 114.618 1170.49 489.192
2662 0 85.0585 13.72 1167 113.198 1169.6 487.148
2663 0 85.0473 13.2514 1127 113.437 1169.39 483.441
2664 0 88.0901 12.9186 1138 113.762 1168.65 479.911
2665 0 89.0412 13.1961 1175 112.992 1169.31 479.041
2666 0 92.1123 13.3207 1227 113.243 1168.41 477.234
2667 0 93.0395 13.4996 1256 112.332 1167.84 474.351
2668 0 97.0611 13.1052 1272 110.952 1168.26 471.311
2669 0 98.0962 13.3033 1305 110.651 1169.46 471.302
2670 0 102.075 12.7554 1302 112.724 1169.35 471.118
2671 0 105.079 13.3518 1403 111.522 1169.59 469.298
2672 0 106.046 13.0604 1385 112.729 1169.68 466.749
2673 0 113.075 12.8322 1451 111.563 1170.31 465.866
2674 1 62.1271 10.72 666 102.159 1170.16 491.147
2675 0 64.0972 11.0769 710 102.203 1170.01 490.19
2676 0 68.04 12.0958 823 101.652 1169.85 494.813
2677 0 69.0516 12.6427 873 101.751 1169.62 493.959
2678 0 71.0566 12.3282 876 102.128 1169.78 492.971
2679 0 71.0576 11.9621 850 105.76 1169.71 490.542
2680 0 76.0522 11.9392 908 103.74 1168.37 491.143
2681 0 79.0648 13.0779 1034 113.026 1168.93 492.234
2682 0 80.1212 12.3064 986 116.256 1169.44 491.099
2683 0 83.0816 12.2289 1016 114.609 1169.48 489.287
2684 0 83.0751 12.3864 1029 115.909 1168.71 489.34
2685 0 86.0987 11.9166 1026 115.539 1168.7 486.712
2686 0 87.0658 12.726 1108 113.574 1168.31 485.739
2687 0 89.1132 11.6032 1034 115.972 1168.73 484.987
2688 0 93.092 12.3104 1146 111.353 1168.7 484.366
2689 0 95.1073 12.2178 1162 111.325 1168.79 483.218
2690 0 97.1336 11.6438 1131 111.569 1168.26 482.751
2691 0 101.13 11.8659 1200 110.208 1168.66 480.852
2692 0 105.093 11.6468 1224 111.068 1168.6 479.139
2693 0 107.144 12.2545 1313 110.247 1168.5 478.358
2694 1 59.0708 10.6313 628 99.4745 1168.09 503.406
2695 0 62.0219 10.5285 653 103.121 1167.67 501.395
2696 0 63.0459 11.3092 713 109.025 1167.82 499.48
2697 0 66.0551 11.5056 760 99.8684 1168.55 499.897
2698 0 68.0582 11.9163 811 99.2935 1168.83 498.877
2699 0 69.0289 11.2127 774 101.594 1168.13 496.724
2700 0 72.034 11.8694 855 100.984 1167.66 496.262
2701 0 71.0443 11.6547 828 102.761 1167.82 494.412
2702 0 76.0506 11.7027 890 103.056 1167.74 493.27
2703 0 78.0948 12.0239 939 115.003 1167.94 492.21
2704 0 80.0513 11.7425 940 117.261 1167.69 489.539
2705 0 82.0622 11.9544 981 117.927 1168.17 488.745
2706 0 85.0727 12.072 1027 116.273 1168.67 487.764
2707 0 87.0624 11.7732 1025 118.612 1168.76 487.183
2708 0 89.0535 11.319 1008 117.491 1168.04 486.616
2709 0 91.0507 11.8945 1083 115.49 1168.74 484.621
2710 0 92.0463 11.4616 1055 116.108 1169.16 482.099
2711 0 97.0594 11.766 1142 115.601 1168.78 482.676
2712 0 97.1078 10.9569 1064 117.586 1168.73 480.924
2713 1 50.0307 10.6135 531 103.879 1167.71 505.055
2714 0 53.0491 10.839 575 101.468 1168.73 503.08
2715 0 56.1305 10.921 613 101.967 1167.56 500.463
2716 0 56.0736 10.8964 611 101.535 1168.52 501.586
2717 0 55.0967 10.7266 591 104.531 1167.99 501.951
2718 0 59.0928 10.2212 604 107.386 1168.08 501.123
2719 0 60.0456 11.3081 679 105.651 1168.04 499.485
2720 0 63.0548 11.3076 713 104.268 1167.81 499.011
2721 0 63.0466 11.7056 738 104.187 1167.68 496.932
2722 0 65.0721 11.9099 775 103.849 1168.11 496.724
2723 0 67.0469 12.0811 810 103.433 1168.01 497.096
2724 0 68.0694 11.5764 788 106.159 1168.37 494.901
2725 0 68.054 11.5937 789 108.312 1168.1 494.295
2726 0 73.1122 12.2278 894 106.667 1168.51 493.257
2727 0 72.079 12.1394 875 109.694 1167.92 491.705
2728 0 75.0808 11.6808 877 111.145 1168.82 491.456
2729 0 78.0831 11.9488 933 111.757 1169.19 490.056
2730 0 80.1072 12.3335 988 112.373 1169.63 488.283
2731 0 81.0572 12.448 1009 115.526 1169.04 486.084
2732 0 84.0489 12.6355 1062 115.451 1169.33 485.895
2733 0 88.0668 12.729 1121 114.996 1168.68 484.039
2734 0 90.0487 12.9486 1166 113.384 1168.57 484.166
2735 0 92.0753 12.6527 1165 114.809 1168.78 482.185
2736 0 92.0659 12.7952 1178 114.843 1168.83 482.245
2737 0 95.0692 12.7591 1213 114.824 1168.86 479.488
2738 0 98.0661 12.3488 1211 116.467 1169.07 478.707
2739 0 100.112 12.5559 1257 116.235 1169.39 475.749
2740 0 104.11 13.4761 1403 112.176 1169.09 474.269
2741 0 108.145 12.5942 1362 113.058 1169.2 472.722
2742 0 111.1 12.9522 1439 111.209 1169.08 472.063
2743 0 112.092 12.6325 1416 110.982 1168.71 469.677
2744 0 117.147 12.4373 1457 111.224 1169.67 466.68
2745 0 122.079 12.4592 1521 109.712 1169.27 464.455
2746 0 123.14 12.1813 1500 112.979 1169.55 464.319
2747 1 65.1213 11.2252 731 108.049 1169.12 494.943
2748 0 65.049 11.8987 774 111.39 1169.84 492.705
2749 0 68.1281 12.3004 838 114.563 1170.04 492.58
2750 0 67.0275 11.0104 738 102.245 1170.42 495.175
2751 0 71.0271 11.2915 802 102.009 1169.49 493.777
2752 0 69.0475 10.051 694 106.424 1170.18 493.392
2753 0 73.0478 10.6779 780 104.71 1169.07 491.819
2754 0 75.0855 11.5468 867 102.783 1169.67 490.175
2755 0 77.0409 11.734 904 103.25 1169.47 491.247
2756 0 81.0946 11.5791 939 105.266 1169.62 489.659
2757 0 83.1217 11.8982 989 105.327 1169.93 488.932
2758 0 84.1132 11.9601 1006 104.656 1169.9 486.31
2759 0 86.0469 11.5402 993 107.516 1169.85 485.472
2760 0 86.0566 11.3181 974 110.358 1170.3 484.754
2761 0 90.0987 12.6528 1140 109.054 1169.96 483
2762 0 93.054 12.6271 1175 107.866 1170.36 482.832
2763 0 95.0743 12.5902 1197 115.157 1170.3 480.465
2764 0 99.0811 14.5235 1439 104.664 1169.86 473.213
2765 0 100.141 12.8119 1283 112.607 1169.85 472.458
2766 0 104.231 12.9616 1351 112.033 1170.02 474.48
2767 0 107.254 12.876 1381 116.679 1170.31 475.153
2768 0 110.106 12.815 1411 117.172 1169.64 473.258
2769 0 112.131 13.3773 1500 115.973 1169.98 473.443
2770 0 116.231 13.5076 1570 115.797 1169.76 472.192
2771 0 119.087 13.3012 1584 118.751 1170.14 470.143
2772 0 123.158 13.2675 1634 119.425 1170.54 468.532
2773 0 124.147 13.5646 1684 121.426 1169.74 466.276
2774 0 130.163 14.1131 1837 120.887 1169.82 466.266
2775 0 133.109 13.8383 1842 122.816 1169.64 462.199
2776 0 137.127 14.0891 1932 122.68 1169.17 461.496
2777 0 140.229 13.9629 1958 124.931 1169.43 458.691
2778 0 144.177 13.747 1982 127.195 1169.11 459.007
2779 0 149.214 14.2413 2125 124.741 1168.75 456.418
2780 0 151.127 13.6573 2064 125.774 1168.49 456.152
2781 0 157.087 14.0622 2209 123.074 1169.02 453.529
2782 0 162.145 14.3637 2329 121.741 1168.48 450.89
2783 1 93.2167 11.1032 1035 119.63 1168.8 484.785
2784 0 95.1137 11.8385 1126 122.33 1168.5 479.958
2785 0 97.1472 12.2392 1189 120.941 1168.83 478.643
2786 0 101.201 12.5394 1269 119.206 1169.02 478.027
2787 0 104.105 12.5066 1302 119.95 1169.73 479.673
2788 0 107.085 12.5601 1345 125.857 1169.12 478.051
2789 0 109.135 12.5075 1365 128.538 1169.34 474.686
2790 0 113.138 12.8427 1453 126.787 1169.35 473.37
2791 0 116.314 12.7414 1482 126.831 1170.64 473.222
2792 0 119.271 12.9705 1547 125.257 1169.77 470.374
2793 0 123.221 12.8956 1589 125.236 1170.1 467.941
2794 0 125.123 12.6595 1584 126.891 1170.11 464.659
2795 0 128.257 12.397 1590 126.056 1169.91 461.843
2796 0 133.242 12.2559 1633 125.055 1169.92 460.105
2797 0 137.218 12.7389 1748 122.188 1169.85 459.887
2798 0 141.161 12.6664 1788 121.641 1170.13 456.777
2799 0 144.079 12.6597 1824 121.895 1169.79 453.57
2800 0 149.18 12.6827 1892 120.694 1169.6 451.264
2801 0 152.108 12.2939 1870 123.232 1169.2 449.362
2802 0 158.123 13.1922 2086 120.392 1168.99 449.334
2803 0 161.192 12.8667 2074 122.335 1168.8 448.012
2804 0 165.116 13.3119 2198 121.231 1168.04 446.18
2805 0 170.136 12.8603 2188 124.416 1169.14 444.487
2806 0 173.184 12.8592 2227 126.873 1168.7 441.104
2807 0 180.165 14.0316 2528 123.587 1168.76 437.145
2808 0 184.163 13.4283 2473 126.627 1168.42 436.516
2809 0 188.125 13.2624 2495 127.241 1169.28 434.484
2810 0 193.136 13.4465 2597 126.672 1168.62 431.57
2811 0 198.241 13.0044 2578 128.634 1169.65 430.314
2812 0 206.2 13.5112 2786 127.459 1168.99 427.49
2813 1 162.098 11.7891 1911 128.52 1168.92 450.868
2814 0 168.146 12.8044 2153 127.283 1168.72 447.183
2815 0 172.205 13.1993 2273 128.436 1168.76 441.154
2816 0 177.191 12.9239 2290 126.807 1168.29 435.766
2817 0 183.2 12.8985 2363 126.813 1168.16 435.873
2818 0 188.265 13.1995 2485 126.12 1167.97 433.033
2819 0 194.27 12.7091 2469 128.502 1168.43 432.161
2820 0 200.192 12.8327 2569 129.803 1168.28 429.064
2821 0 210.48 13.398 2820 126.846 1168.27 423.383
2822 0 214.388 13.0371 2795 129.655 1168.03 416.224
2823 0 220.276 13.2289 2914 131.722 1167.83 412.325
2824 0 230.479 13.524 3117 129.45 1168.32 412.106
2825 0 237.46 13.775 3271 129.2 1168.14 407.565
2826 1 58.2498 11.0902 646 114.389 1168.1 495.896
2827 0 60.2612 11.3506 684 113.617 1168.61 496.117
2828 0 59.0823 11.1878 661 119.331 1169.03 496.831
2829 0 61.1218 11.6325 711 109.857 1167.86 500.547
2830 0 62.0686 11.5356 716 110.31 1167.75 498.622
2831 0 64.0866 10.9695 703 111.801 1167.59 497.861
2832 0 67.1206 11.3527 762 110.793 1168.04 496.198
2833 0 67.0707 11.1971 751 112.983 1167.72 495.602
2834 0 71.1014 12.1798 866 108.967 1167.74 494.236
2835 0 73.0937 12.2856 898 109.183 1168.05 492.801
2836 0 74.0677 12.1646 901 107.715 1169.38 491.769
2837 0 74.0373 11.4672 849 111.506 1168.76 490.293
2838 0 75.0744 10.7893 810 114.253 1169.34 490.646
2839 0 77.0868 11.1303 858 114.219 1169.23 488.092
2840 0 81.0522 11.7332 951 111.728 1168.78 487.163
2841 0 82.1108 11.1191 913 115.375 1168.6 484.066
2842 0 84.0978 10.4164 876 116.131 1169.12 483.505
2843 0 87.0544 10.9012 949 114.955 1168.59 481.08
2844 0 91.0465 11.3239 1031 113.173 1168.8 481.484
2845 1 49.0506 9.27614 455 116.253 1168.86 499.268
2846 0 53.0329 9.9938 530 113.996 1169.24 497.487
2847 0 58.0973 11.257 654 108.222 1168.05 496.858
2848 0 60.078 11.9844 720 111.056 1168.09 499.881
2849 0 59.0867 10.8485 641 109.66 1167.54 500.958
2850 0 62.0487 12.1356 753 105.497 1167.79 501.388
2851 0 64.053 11.9745 767 106.747 1167.95 499.816
2852 0 64.0549 11.8648 760 108.27 1168.57 499.251
2853 0 65.1168 12.2703 799 107.314 1168.86 498.998
2854 0 67.1632 11.8964 799 108.875 1168.26 498.98
2855 0 70.1052 12.5383 879 106.717 1168.4 497.645
2856 0 71.0598 12.3417 877 108.848 1168.31 495.021
2857 0 72.0322 12.1751 877 108.18 1167.93 495.135
2858 0 74.0957 12.0925 896 107.978 1167.83 492.973
2859 0 76.0776 13.1313 999 104.811 1168.72 491.313
2860 0 78.0681 13.1167 1024 104.054 1169.56 490.193
2861 0 81.049 13.387 1085 102.443 1169.61 489.106
2862 0 83.0254 13.5019 1121 101.313 1168.88 489.466
2863 0 84.056 13.2531 1114 102.598 1169.22 487.505
2864 0 88.1466 13.2733 1170 101.062 1168.91 484.642
2865 0 90.1483 13.2559 1195 101.432 1168.64 483.054
2866 0 93.1012 13.1685 1226 101.858 1168.9 480.573
2867 0 93.1454 12.8401 1196 106.305 1168.55 478.683
2868 0 97.0451 13.3958 1300 103.385 1168.39 476.076
2869 0 98.1714 13.1097 1287 104.448 1167.9 472.56
2870 0 100.111 12.8258 1284 106.543 1168.49 471.761
2871 0 104.126 13.4261 1398 108.184 1167.97 472.325
2872 0 107.149 14.0832 1509 102.316 1168.72 469.903
2873 0 109.299 13.1932 1442 104.191 1168.21 468.222
2874 0 114.161 15.776 1801 95.0344 1168.69 463.063
2875 0 114.313 14.9765 1712 100.124 1168.3 461.852
2876 0 116.277 13.571 1578 105.634 1169.12 459.394
2877 0 119.281 13.8413 1651 103.863 1168.21 458.802
2878 0 123.276 13.7009 1689 103.43 1168.57 455.692
2879 0 125.21 13.7289 1719 105.216 1168.37 453.727
2880 0 128.224 13.0865 1678 108.454 1168.1 455.448
2881 0 130.251 13.0594 1701 108.623 1168.64 457.35
2882 0 133.211 12.9269 1722 108.573 1169.05 453.193
2883 0 136.273 12.673 1727 111.636 1169.35 450.612
2884 0 140.278 12.6249 1771 111.209 1168.9 447.325
2885 0 142.292 12.0105 1709 113.63 1168.71 445.569
2886 1 80.0618 9.08048 727 106.122 1169.46 473.952
2887 0 79.1312 9.22519 730 107.621 1169.54 477.195
2888 0 84.027 10.2348 860 104.445 1169.65 477.151
2889 0 88.2085 10.906 962 99.3087 1168.73 477.142
2890 0 90.0669 10.581 953 98.5142 1168.78 476.489
2891 0 93.1091 11.3093 1053 98.8936 1168.68 474.59
2892 0 97.062 10.6118 1030 91.134 1168.6 473.372
2893 0 97.1374 10.83 1052 104.178 1168.83 472.843
2894 0 96.1131 10.5605 1015 109.237 1168.19 471.514
2895 0 95.0959 10.7365 1021 115.851 1168.53 470.337
2896 0 96.1377 11.1715 1074 102.647 1168.56 470.197
2897 0 94.1118 10.7425 1011 106.849 1168.77 470.726
2898 0 95.0647 10.6664 1014 110.658 1168.03 469.015
2899 0 97.1283 11.0164 1070 110.742 1168.79 470.648
2900 0 101.097 10.9894 1111 110.99 1168.6 470.046
2901 0 108.128 12.55 1357 114.396 1168.98 477.024
2902 0 109.171 12.0086 1311 119.468 1168.59 473.511
2903 0 113.086 12.044 1362 115.691 1168.6 473.405
2904 0 117.12 12.6452 1481 112.215 1169.17 473.084
2905 0 119.23 12.5052 1491 111.164 1168.9 472.02
2906 0 122.182 12.3505 1509 107.954 1169.83 468.58
2907 0 127.129 13.1756 1675 101.401 1168.45 463.287
2908 0 128.153 12.3134 1578 103.882 1168.98 463.478
2909 0 131.086 12.1828 1597 98.1572 1169.11 462.767
2910 0 133.203 12.0493 1605 102.307 1168.24 459.431
2911 1 73.0232 9.94204 726 99.5152 1168.39 493.234
2912 0 73.1556 10.7169 784 98.824 1169.01 492.202
2913 0 74.2866 11.321 841 101.181 1168.81 492.064
2914 0 74.2057 11.0369 819 95.1074 1168.65 493.171
2915 0 75.0236 11.7563 882 100.537 1168.35 492.635
2916 0 79.0338 12.1973 964 98.7759 1167.9 492.017
2917 0 79.1097 11.187 885 101.063 1168.43 490.89
2918 0 82.0981 12.3267 1012 97.9822 1168.64 490.301
2919 0 83.0772 12.0731 1003 99.5832 1168.47 489.557
2920 0 86.1084 12.0778 1040 99.4904 1169.03 489.06
2921 0 85.1637 11.0376 940 103.504 1169 489.743
2922 0 85.1402 10.7822 918 106.864 1169.01 488.691
2923 0 88.1739 11.3299 999 106.227 1168.39 487.984
2924 0 90.2276 11.1828 1009 108.274 1169.36 489.057
2925 0 88.2225 10.8929 961 112.997 1168.75 486.609
2926 0 91.1771 10.7483 980 113.669 1168.98 485.336
2927 0 91.188 10.7141 977 114.888 1168.8 484.281
2928 0 95.0646 11.0556 1051 115.368 1169.03 481.67
2929 0 94.1073 10.3393 973 118.048 1168.45 480.982
2930 0 97.1759 10.589 1029 120.995 1169.6 479.803
2931 0 98.1863 11.0912 1089 121.53 1169.05 479.27
2932 0 101.227 11.1038 1124 121.923 1168.86 478.369
2933 0 104.128 10.3622 1079 124.677 1168.47 477.806
2934 0 106.211 11.3359 1204 120.788 1168.93 477.424
2935 0 107.153 10.8817 1166 122.533 1169.05 473.573
2936 0 108.096 10.8977 1178 120.699 1169.78 468.631
2937 0 107.054 10.3966 1113 123.808 1169.63 465.431
2938 0 110.102 10.7627 1185 121.687 1169.68 462.346
2939 0 110.083 10.701 1178 128.458 1169.16 460.689
2940 1 63.0714 8.67271 547 121.34 1169.84 484.974
2941 0 65.0679 9.34409 608 116.475 1169.25 488.673
2942 0 69.072 9.61316 664 113.099 1169.17 489.62
2943 0 69.072 9.46839 654 128.343 1169.18 489.312
2944 0 73.0221 10.9145 797 115.125 1168.05 490.813
2945 0 74.0889 10.2444 759 117.791 1168.95 488.933
2946 0 75.0548 10.6855 802 116.541 1168.78 486.461
2947 0 78.0414 10.9557 855 114.811 1168.56 488.191
2948 0 77.0982 10.4153 803 117.981 1168.12 486.925
2949 0 83.0965 11.3483 943 115.173 1168.65 485.417
2950 0 84.0815 11.1439 937 115.404 1168.65 484.267
2951 0 85.0744 11.8014 1004 113.723 1168.2 484.415
2952 0 89.0722 11.2493 1002 113.907 1168.53 485.11
2953 0 89.1114 11.379 1014 114.516 1168.25 483.005
2954 0 92.095 11.7705 1084 114.875 1168.82 481.576
2955 0 93.1486 12.0131 1119 114.395 1168.52 480.107
2956 0 95.1944 11.5658 1101 114.885 1169.14 479.309
2957 0 99.1447 12.7692 1266 120.582 1169.05 481.731
2958 0 102.143 13.0601 1334 118.006 1168.43 479.933
2959 0 105.067 12.2588 1288 116.257 1168.02 479.67
2960 0 109.152 12.9728 1416 116.852 1168.58 476.292
2961 0 109.127 12.1418 1325 115.297 1168.76 472.943
2962 0 114.215 13.2207 1510 115.681 1168.6 472.975
2963 1 62.0738 9.95589 618 109.846 1168.82 499.693
2964 0 66.0506 10.5677 698 106.797 1168.68 500.007
2965 0 68.0624 10.1671 692 104.152 1169.18 494.882
2966 0 69.038 10.5884 731 102.914 1169.11 493.564
2967 0 73.0243 12.1193 885 104.958 1167.93 497.376
2968 0 74.0278 11.9955 888 105.926 1167.63 495.944
2969 0 76.0502 11.808 898 91.2038 1168.43 495.228
2970 0 78.0308 11.6749 911 91.5982 1168.47 494.892
2971 0 81.086 11.6173 942 90.8089 1168.86 493.128
2972 0 81.1853 11.9357 969 90.3808 1168.58 492.189
2973 0 85.1017 11.7506 1000 91.666 1168.6 490.463
2974 0 87.0679 12.2089 1063 90.0809 1169.16 488.358
2975 0 88.093 11.6014 1022 95.3288 1169.24 487.291
2976 0 91.0543 11.6744 1063 96.2427 1169.14 486.088
2977 0 93.0641 11.0139 1025 97.8546 1169.42 484.722
2978 0 95.125 11.5848 1102 97.8911 1169.16 483.061
2979 0 97.1658 11.1768 1086 101.112 1169.06 483.451
2980 0 100.127 11.6751 1169 100.79 1168.82 480.751
2981 0 102.119 11.8489 1210 101.298 1169.04 480.484
2982 0 104.204 12.0821 1259 100.292 1168.55 478.306
2983 0 106.197 11.9024 1264 101.68 1169.03 477.679
2984 0 108.235 11.8723 1285 103.509 1169.27 474.887
2985 0 111.196 11.8979 1323 101.81 1169.11 473.501
2986 0 114.21 11.6365 1329 103.573 1169.1 470.31
2987 0 119.24 11.7495 1401 103.753 1168.96 468.462
2988 0 123.232 12.2452 1509 101.805 1168.77 466.773
2989 0 126.311 12.1921 1540 103.738 1169.13 464.347
2990 1 67.1772 10.0927 678 92.2094 1168.54 496.748
2991 0 67.1365 10.6351 714 93.4468 1168.53 495.669
2992 0 71.1348 11.2463 800 93.5662 1168.67 494.185
2993 0 73.072 11.4955 840 94.7869 1169.74 496.938
2994 0 75.1371 11.0332 829 98.8227 1168.91 492.731
2995 0 77.2054 10.9578 846 97.9858 1169 490.825
2996 0 80.1603 11.5019 922 97.8015 1168.27 489.003
2997 0 81.1116 11.7862 956 100.06 1168.72 487.68
2998 0 83.1933 12.3207 1025 98.7346 1168.08 487.261
2999 0 85.221 11.5934 988 100.743 1168.65 485.02
3000 0 89.3021 12.2506 1094 98.351 1167.63 484.43
3001 0 91.2079 11.8082 1077 99.7716 1168.17 483.637
3002 0 90.2574 11.1237 1004 103.769 1168.19 480.858
3003 0 92.1787 11.4886 1059 102.923 1168.58 479.613
3004 0 96.2507 11.5843 1115 102.586 1168.76 478.391
3005 0 99.2857 11.8547 1177 101.67 1169.01 477.248
3006 0 103.205 11.453 1182 102.909 1168.86 475.409
3007 0 103.225 11.5088 1188 102.638 1168.73 474.484
3008 0 107.413 11.1439 1197 103.209 1168.71 471.409
3009 0 112.248 12.0893 1357 100.789 1168.55 471.304
3010 0 114.261 12.0689 1379 100.864 1169.29 468.582
3011 0 118.347 12.024 1423 101.701 1169.22 467.151
3012 1 60.1668 10.554 635 95.5386 1169.5 496.479
3013 0 63.1908 11.4099 721 96.018 1169.36 494.928
3014 0 64.087 10.6106 680 99.1618 1169.76 495.415
3015 0 66.062 11.6406 769 98.2315 1169.31 496.843
3016 0 70.0918 12.0271 843 97.7628 1169.67 495.823
3017 0 71.0333 11.6424 827 101.106 1169.25 493.709
3018 0 74.0588 11.6799 865 99.7052 1169.43 491.109
3019 0 75.1232 11.7141 880 101.1 1169.25 488.175
3020 0 78.2462 12.1795 953 100.023 1168.97 487.051
3021 0 79.2994 11.6899 927 101.252 1169.19 484.998
3022 0 82.2805 11.7768 969 100.666 1169.07 484.035
3023 0 84.2189 11.5176 970 101.513 1168.91 483.212
3024 0 85.1571 11.5786 986 101.761 1168.82 481.619
3025 0 88.2777 11.5318 1018 103.067 1169.28 479.68
3026 0 90.2579 11.4117 1030 105.584 1169.04 480.234
3027 0 94.2732 12.4001 1169 103.402 1169.34 478.373
3028 0 97.2696 12.0284 1170 103.312 1169.34 477.73
3029 0 99.3226 11.7496 1167 105.448 1168.85 475.529
3030 0 102.189 12.0072 1227 105.743 1169.47 474.68
3031 0 105.305 11.8038 1243 108.187 1169.2 472.718
3032 1 57.0711 9.74223 556 101.291 1169.29 500.671
3033 0 59.0327 10.2486 605 102.623 1169.02 499.993
3034 0 60.0764 11.5187 692 100.636 1168.84 499.382
3035 0 63.0817 11.1443 703 103.367 1169.15 498.156
3036 0 63.0813 11.6516 735 104.362 1169.29 498.354
3037 0 66.0677 11.9423 789 104.392 1168.37 495.19
3038 0 68.1499 11.2986 770 103.723 1168.92 494.649
3039 0 70.2225 11.8053 829 105.413 1169.2 492.198
3040 0 71.2702 11.5897 826 105.449 1169.15 491.203
3041 0 75.1492 11.9895 901 105.457 1168.92 490.848
3042 0 76.1371 11.1772 851 110.763 1168.82 488.586
3043 0 80.1811 11.8856 953 109.184 1169.04 488.014
3044 0 80.1446 12.2404 981 110.972 1168.91 487.471
3045 0 82.1722 11.9992 986 112.315 1169.4 485.729
3046 0 86.209 12.3305 1063 112.737 1169.17 485.643
3047 0 89.1985 12.4217 1108 115.018 1169.25 484.521
3048 0 89.2887 12.3532 1103 117.914 1168.89 484.257
3049 0 92.2794 12.6139 1164 118.251 1169.72 480.96
3050 0 94.2145 13.0553 1230 117.951 1169.39 479.928
3051 0 97.2165 12.7756 1242 120.448 1169.29 479.072
3052 0 99.2047 12.4893 1239 121.524 1169.75 477.448
3053 0 103.345 12.2986 1271 121.448 1169.53 476.059
3054 0 107.291 13.3003 1427 117.692 1169.23 474.713
3055 1 59.1577 11.6806 691 110.783 1169.13 499.577
3056 0 60.1123 11.911 716 113.545 1169.55 498.095
3057 0 63.0746 12.2395 772 113.306 1169.12 498.095
3058 0 64.0882 12.0147 770 115.165 1169.95 497.422
3059 0 67.1016 12.4587 836 113.544 1169.34 496.299
3060 0 67.1652 11.8812 798 114.763 1169.4 494.685
3061 0 69.1784 12.4316 860 113.517 1169.06 493.315
3062 0 73.2121 12.3204 902 112.912 1169.29 490.554
3063 0 75.2407 11.9085 896 113.739 1168.81 490.055
3064 0 75.2685 11.9439 899 114.222 1168.77 489.161
3065 0 77.2308 12.1584 939 113.845 1169.04 487.486
3066 0 80.2639 12.5087 1004 111.9 1169.09 486.714
3067 0 81.4047 12.4563 1014 114.568 1169.21 485.57
3068 0 86.2255 12.2006 1052 115.173 1169.43 484.921
3069 0 89.2477 12.2468 1093 113.932 1169.44 483.954
3070 0 90.1945 12.2957 1109 115.557 1169.18 481.529
3071 0 91.3165 12.3088 1124 115.459 1169.35 481.315
3072 0 95.2756 11.8393 1128 115.701 1169.11 479.582
3073 0 97.2933 12.3338 1200 114.783 1169.29 478.235
3074 0 99.2934 12.1257 1204 115.99 1169.53 476.155
3075 0 102.295 12.0338 1231 114.636 1169.91 476.658
3076 0 105.238 12.695 1336 113.281 1169.62 473.979
3077 0 107.334 12.3819 1329 112.944 1169.41 473.77
3078 0 110.381 12.6109 1392 113.542 1169.78 472.66
3079 0 112.467 12.377 1392 114.001 1169.63 470.857
3080 0 116.399 12.6032 1467 112.257 1169.12 470.654
3081 0 119.324 12.7217 1518 112.493 1168.94 468.942
3082 1 68.2373 10.9031 744 108.402 1169.64 493.421
3083 0 70.2295 11.3058 794 105.606 1169.01 492.458
3084 0 71.2777 11.3079 806 108.586 1169.59 491.803
3085 0 74.3246 12.0418 895 108.019 1169.17 489.34
3086 0 76.5026 11.8558 907 107.488 1169.65 487.841
3087 0 77.1869 12.2171 943 105.48 1169.85 487.283
3088 0 80.2509 11.95 959 107.124 1170.12 485.265
3089 0 82.2262 12.1251 997 106.578 1169.21 483.435
3090 0 86.356 12.5874 1087 103.6 1169.18 483.995
3091 0 88.3556 12.461 1101 104.407 1169.38 482.457
3092 0 89.4525 12.2076 1092 106.364 1169.03 481.297
3093 0 93.354 12.4258 1160 105.309 1168.79 479.495
3094 0 95.299 13.1376 1252 105.054 1169.72 476.571
3095 0 99.3812 12.7388 1266 105.393 1169.26 475.969
3096 0 100.407 12.6286 1268 107.951 1168.69 475.02
3097 0 105.382 13.9777 1473 103.106 1168.84 471.293
3098 0 106.384 13.5828 1445 104.836 1169.94 471.889
3099 0 111.436 14.8157 1651 99.4531 1169.44 471.231
3100 0 112.508 13.2435 1490 105.121 1169.04 471.797
3101 0 113.355 13.1533 1491 106.818 1169.1 468.528
3102 0 117.332 13.253 1555 104.92 1169.53 469.219
3103 0 119.356 13.0534 1558 107.662 1169.13 466.062
3104 0 122.411 13.6425 1670 106.575 1168.97 465.425
3105 0 126.193 13.931 1758 106.319 1169.12 463.42
3106 0 130.262 14.2252 1853 106.934 1169.63 462.677
3107 0 134.309 13.5732 1823 109.377 1169.61 459.071
3108 0 137.185 13.6531 1873 110.768 1168.89 458.377
3109 0 141.278 13.7672 1945 111.116 1168.6 457.816
3110 0 146.238 13.6216 1992 111.806 1168.91 454.224
3111 0 148.268 13.4352 1992 112.16 1168.89 452.72
3112 0 154.546 13.6594 2111 111.318 1169.23 449.58
3113 0 159.387 13.7778 2196 110.557 1168.74 448.395
3114 0 164.363 13.9873 2299 110.361 1168.37 447.035
3115 0 169.409 13.9426 2362 111.065 1168.57 442.467
3116 0 174.446 13.626 2377 112.63 1168.62 440.884
3117 0 178.331 14.0245 2501 111.997 1168.07 438.632
3118 0 184.256 13.9425 2569 111.835 1168.69 436.039
3119 0 188.378 14.1205 2660 111.123 1169.14 433.02
3120 0 195.356 15.1006 2950 107.753 1168.36 427.744
3121 0 199.388 14.0179 2795 111.412 1168.81 426.705
3122 0 204.286 13.9119 2842 112.722 1168.91 423.32
3123 0 211.32 14.3858 3040 111.037 1168.92 422.207
3124 0 218.242 14.1678 3092 111.838 1168.82 421.049
3125 0 224.276 15.0038 3365 109.643 1168.58 412.646
3126 0 229.251 13.784 3160 114.292 1168.9 412.941
3127 0 237.297 14.2648 3385 112.928 1168.93 411.965
3128 0 244.372 14.5802 3563 114.402 1168.58 405.114
3129 0 251.401 14.5584 3660 117.327 1168.76 403.763
3130 0 259.42 14.0275 3639 123.956 1168.41 395.63
3131 1 379.527 8.91372 3383 130.974 1168.38 387.621
3132 0 380.387 9.84261 3744 132.369 1168.75 380.087
3133 1 299.66 20.7669 6223 101.298 1168.95 363.299
3134 0 303.425 20.1796 6123 104.922 1168.45 360.383
3135 0 307.596 19.1712 5897 108.973 1167.95 362.117
3136 0 309.467 15.5752 4820 123.612 1168.04 367.359
3137 0 316.344 14.3894 4552 127.975 1168.22 368.498
3138 0 324.441 15.6854 5089 124.19 1168.64 356.187
3139 0 335.386 15.7579 5285 124.661 1168.89 351.568
3140 0 343.469 16.1528 5548 123.871 1168.9 349.235
3141 0 352.391 15.8829 5597 125.636 1168.42 344.105
3142 0 361.447 16.0521 5802 127.805 1168.45 339.217
3143 0 372.441 16.2173 6040 127.796 1168.14 333.781
3144 0 383.777 16.1865 6212 127.736 1168.78 325.731
3145 0 396.797 15.7864 6264 129.233 1167.98 319.616
3146 0 411.176 15.7378 6471 129.299 1168.18 309.556
3147 0 411.567 14.4545 5949 133.87 1168.55 315.802
3148 0 413.791 10.9742 4541 143.224 1168.88 342.867
3149 0 411.437 16.491 6785 129.553 1168.97 312.76
3150 0 412.377 15.5392 6408 134.088 1168.87 308.883
3151 0 404.678 15.5457 6291 132.327 1168.39 315.447
3152 0 416.624 16.0696 6695 131.703 1169 305.247
3153 0 416.546 16.7785 6989 129.177 1168.77 304.71
3154 0 415.645 16.8726 7013 129.419 1168.68 303.456
