time division length width area intensity CMx CMy
0 0 47.0095 13.6355 641 93.2543 1330.92 497.209
1 0 47.0347 13.9472 656 92.5869 1330.14 497.046
2 0 48.09 13.8282 665 91.3564 1329.97 496.863
3 0 49.0193 14.6269 717 88.3138 1329.87 497.43
4 0 50.0282 14.5318 727 88.1554 1329.74 497.303
5 0 50.0109 14.1369 707 90.4045 1330.17 496.44
6 0 53.0286 14.1999 753 89.1859 1331.39 494.923
7 0 53.0286 14.2753 757 156.775 1332.38 494.852
8 0 54.0702 13.8339 748 89.6858 1331.12 493.73
9 0 55.0621 14.4019 793 88.111 1330.5 494.509
10 0 56.0238 14.244 798 88.7469 1330.56 493.698
11 0 60.0393 14.6071 877 85.9772 1329.6 491.746
12 0 59.0234 14.13 834 88.2782 1330.13 492.499
13 0 62.0771 14.4498 897 87.388 1329.6 491.152
14 0 64.0618 14.8138 949 86.6333 1329.68 490.844
15 0 64.0618 14.7826 947 153.886 1329.7 490.835
16 0 68.0305 14.8757 1012 84.9219 1329.54 489.858
17 0 70.0741 14.9984 1051 83.4377 1329.61 488.611
18 0 71.0644 14.4095 1024 85.4824 1329.31 489.02
19 0 72.0464 14.4351 1040 86.4981 1329.57 487.63
20 0 77.0633 14.8579 1145 85.6524 1329.03 487.16
21 0 81.0574 14.6563 1188 87.0934 1328.89 485.758
22 1 142.114 14.4321 2051 85.1307 1328.09 457.173
23 0 145.163 13.1852 1914 88.6562 1328.27 453.514
24 0 148.435 14.2285 2112 86.2794 1328.95 453.903
25 0 152.409 14.2249 2168 86.7509 1328.77 450.44
26 0 156.369 14.3634 2246 86.6607 1329.22 450.463
27 0 161.433 14.0864 2274 87.8602 1329.21 448.723
28 0 165.395 13.7973 2282 89.7174 1328.66 443.711
29 0 169.204 13.8472 2343 89.7145 1329.34 442.582
30 0 169.204 13.8768 2348 160.845 1330.35 442.503
31 0 181.488 13.7971 2504 91.5328 1328.97 435.863
32 0 187.342 14.4709 2711 90.087 1327.81 433.48
33 0 193.23 14.6768 2836 89.4006 1327.93 431.072
34 0 197.352 15.1202 2984 89.3468 1327.86 429.055
35 0 204.394 14.3155 2926 94.1302 1327.96 425.059
36 0 209.436 14.5295 3043 94.4545 1328.48 421.745
37 0 216.319 14.6451 3168 93.4224 1328.18 420.565
38 0 216.319 14.6081 3160 151.64 1327.18 420.594
39 1 275.189 9.75691 2685 103.564 1328.04 417.844
40 0 275.174 9.96822 2743 103.968 1328.08 415.849
41 0 273.167 9.70104 2650 105.184 1328.07 416.29
42 0 274.189 9.23449 2532 107.094 1328.15 420.924
43 0 276.423 21.3369 5898 78.0353 1327.6 378.622
44 0 282.636 22.5307 6368 75.8248 1327.98 371.137
45 0 285.487 21.4196 6115 78.4468 1327.85 366.996
46 0 289.496 20.743 6005 81.3097 1328.37 372.437
47 1 81.0822 13.0855 1061 93.6296 1327.26 482.604
48 0 86.0492 13.7712 1185 91.8928 1327.76 479.804
49 0 89.0884 13.4473 1198 92.914 1327.32 478.108
50 0 92.0587 13.4588 1239 92.3438 1328.05 476.642
51 0 93.1709 13.3947 1248 93.343 1327.96 476.586
52 0 97.1129 13.8602 1346 91.7348 1327.37 474.422
53 0 102.042 13.4651 1374 92.2089 1326.49 471.344
54 0 106.061 13.8033 1464 91.8347 1327.27 469.224
55 0 110.08 13.9354 1534 91.633 1327.38 467.038
56 0 111.079 13.6569 1517 92.8069 1328.4 463.796
57 0 117.049 14.0197 1641 92.8074 1327.52 462.078
58 0 121.062 13.9846 1693 94.2912 1327.54 460.601
59 0 124.084 14.1114 1751 94.9886 1326.9 458.919
60 0 129.103 14.2909 1845 94.4997 1328.28 455.601
61 0 133.065 14.5568 1937 94.5622 1328.3 455.042
62 0 139.099 15.1116 2102 93.696 1327.45 451.334
63 0 145.142 15.6123 2266 92.4201 1327 450.778
64 0 149.194 15.014 2240 94.8304 1327.07 446.672
65 0 153.231 14.5271 2226 96.9434 1327.51 443.776
66 0 159.174 14.3742 2288 97.9969 1327.33 443.133
67 1 89.0939 12.268 1093 94.021 1326.83 478.151
68 0 92.1319 12.4712 1149 93.9104 1327.31 477.182
69 0 94.0856 12.6374 1189 94.8251 1327.87 474.313
70 0 100.108 13.4455 1346 92.4681 1327.26 474.214
71 0 103.065 13.9136 1434 91.0425 1328.16 473.28
72 0 108.059 13.4648 1455 91.0247 1327.69 471.293
73 0 110.073 13.9452 1535 90.3088 1327.94 468.352
74 0 112.074 13.723 1538 91.4896 1327.79 466.753
75 0 116.09 13.3689 1552 91.6997 1328.08 465.425
76 0 121.103 13.6082 1648 91.8428 1327.27 462.753
77 0 125.104 13.8365 1731 90.7337 1327.34 459.802
78 0 128.056 13.2285 1694 91.4345 1327.52 457.699
79 0 132.079 13.6055 1797 90.2782 1327.8 456.456
80 0 136.171 13.2994 1811 90.5925 1328.02 454.195
81 0 142.064 13.8881 1973 88.2671 1327.95 451.922
82 0 147.084 13.2034 1942 89.1045 1327.75 448.782
83 0 152.138 13.5601 2063 89.8842 1328.17 443.704
84 0 156.102 13.3567 2085 90.3012 1328.31 442.523
85 0 162.195 13.5331 2195 90.7367 1327.93 438.246
86 0 166.125 13.1347 2182 91.7227 1328.47 436.678
87 0 172.177 13.097 2255 89.5202 1327.83 432.09
88 0 172.177 13.1493 2264 144.435 1327.83 432.087
89 0 180.175 13.387 2412 86.3943 1328.25 422.644
90 0 186.238 12.9189 2406 88.1164 1328.15 416.483
91 0 194.316 13.4317 2610 87.3138 1328.36 415.188
92 0 199.279 13.4134 2673 88.5305 1328.26 410.993
93 0 204.271 12.4002 2533 91.424 1328.22 407.381
94 0 214.271 13.609 2916 89.2733 1327.99 404.144
95 0 219.242 13.1818 2890 91.1308 1328.18 397.116
96 1 255.362 19.1767 4897 74.3894 1327.47 384.127
97 1 48.0847 9.75362 469 74.4947 1328.32 495.667
98 0 51.044 11.0689 565 77.1876 1328.22 496.455
99 0 51.1463 11.0076 563 67.8206 1327.29 498.993
100 0 50.0935 9.78171 490 70.9469 1327.09 499.084
101 0 54.0686 10.2832 556 70.7212 1327.27 498.104
102 0 55.1863 10.2924 568 71.8099 1327.17 498.424
103 0 56.116 9.76548 548 72.7865 1327.79 496.038
104 0 58.1428 9.23587 537 72.9311 1328 495.196
105 0 58.0548 9.37045 544 72.6673 1328.13 494.84
106 0 63.1539 10.039 634 71.8092 1327.52 492.789
107 0 64.1708 9.8643 633 71.3349 1327.84 492.523
108 0 68.1197 10.3641 706 71.3229 1327.5 490.147
109 0 69.1445 10.5721 731 70.3994 1327.72 489.302
110 0 72.1928 10.3196 745 71.1758 1327.35 487.458
111 0 74.2403 11.2069 832 70.4087 1327.46 486.643
112 0 76.1413 10.8614 827 72.994 1327.59 487.339
113 0 79.413 11.2702 895 72.4346 1327.95 484.328
114 0 82.2775 11.4612 943 72.4719 1327.54 484.098
115 0 85.1009 11.0575 941 71.0499 1327.6 482.349
116 1 44.1012 10.1584 448 68.7545 1328.4 501.719
117 0 45.1383 10.4568 472 66.4449 1327.91 502.288
118 0 47.1556 11.0697 522 65.7663 1328.24 500.86
119 0 49.1536 10.9453 538 65.0836 1327.7 499.591
120 0 50.0154 10.3568 518 66.8668 1327.78 499.444
121 0 50.0775 10.5836 530 66.8472 1327.68 498.547
122 0 52.0391 11.9333 621 64.2448 1327.99 497.929
123 0 56.1644 12.3566 694 63.317 1328.05 498.313
124 0 57.0915 11.2451 642 65.9548 1328.43 496.657
125 0 59.1288 12.1261 717 65.4338 1328.48 494.908
126 0 61.0685 11.921 728 76.8874 1328.55 493.157
127 0 61.142 11.7268 717 77.4923 1327.9 493.865
128 0 65.0696 11.4954 748 77.9545 1327.88 492.31
129 0 66.0951 12.6484 836 76.2368 1328.1 491.233
130 0 69.1252 12.7595 882 75.0737 1328.02 491.514
131 0 68.1479 11.6218 792 78.2942 1328.07 489.872
132 0 71.2091 12.0069 855 77.0363 1328.07 487.639
133 0 73.2412 12.4793 914 75.3567 1327.68 486.836
134 0 74.1433 11.9364 885 75.8237 1327.78 487.342
135 0 77.1441 12.7554 984 73.9858 1328.33 485.705
136 0 80.1095 11.9337 956 74.363 1328.53 484.185
137 1 42.1999 10.6635 450 69.5667 1328.06 503.073
138 0 41.0546 10.8149 444 70.2996 1328.73 501.446
139 0 42.0334 11.3719 478 68.8431 1327.63 501.546
140 0 45.0634 11.5615 521 65.1497 1328 501.768
141 0 46.057 11.8332 545 66.2881 1327.57 500.881
142 0 46.0466 11.8141 544 66.9357 1327.68 501.958
143 0 50.0164 11.3963 570 66.3018 1327.88 500.274
144 0 50.0268 11.6338 582 66.0808 1327.77 498.9
145 0 52.0065 12.3831 644 66.7593 1328.65 497.696
146 0 53.0968 12.6185 670 68.1716 1328.53 496.787
147 0 57.0807 13.0167 743 75.0942 1327.75 496.202
148 0 58.123 12.4391 723 76.686 1327.74 496.383
149 0 60.04 12.1919 732 77.7199 1327.63 494.66
150 0 58.0508 12.5235 727 83.9491 1327.25 494.272
151 0 63.1402 12.9553 818 76.5342 1327.04 494.63
152 0 63.0442 13.0543 823 77.2053 1328.02 491.917
153 0 65.0805 13.0915 852 77.831 1327.45 491.739
154 0 67.0508 13.6613 916 76.4858 1328.01 490.643
155 0 70.0816 13.4985 946 77.7442 1327.48 489.936
156 0 71.0267 13.0655 928 79.6562 1327.52 489.496
157 0 72.1154 13.2565 956 80.2971 1327.09 488.578
158 0 74.047 13.3969 992 81.629 1327.4 485.949
159 0 77.132 13.1593 1015 82.0236 1327.34 483.531
160 0 79.2287 13.4421 1065 82.5371 1327.43 481.937
161 0 81.1442 13.285 1078 82.9471 1327.22 481.367
162 0 84.2324 13.5221 1139 82.935 1327.09 480.323
163 0 88.2287 13.431 1185 84.0456 1327.05 478.035
164 0 89.0857 13.8743 1236 85.0971 1327 476.842
165 1 46.0567 11.5293 531 82.6045 1326.87 498.507
166 0 48.0417 11.8647 570 81.6246 1326.76 497.296
167 0 50.0927 12.377 620 80.3581 1326.92 496.729
168 0 48.1164 12.3035 592 80.7483 1326.9 494.53
169 0 48.0406 12.1772 585 74.7829 1327.38 492.708
170 0 48.0508 11.1965 538 79.2937 1327.35 490.978
171 0 51.0417 12.1861 622 77.1961 1327.41 491.119
172 0 53.0285 11.9747 635 79.0457 1327.44 497.334
173 0 55.0119 12.4519 685 78.5328 1327.56 495.564
174 0 57.0307 11.7481 670 80.7522 1327.09 494.949
175 0 60.048 11.8738 713 79.5189 1327.36 494.562
176 0 60.0356 12.2927 738 81.0678 1326.53 493.358
177 0 63.0617 12.7811 806 78.4392 1326.23 492.323
178 0 64.0215 12.5895 806 78.7742 1326.56 491.865
179 0 67.0299 12.9793 870 77.0299 1327.24 488.943
180 0 70.0352 13.1362 920 76.6087 1326.73 488.582
181 0 72.0496 13.0743 942 76.9469 1326.74 487.585
182 0 73.09 12.6146 922 77.9642 1326.61 486.731
183 0 76.135 13.1083 998 77.7876 1326.85 486.801
184 0 80.1092 13.3318 1068 78.2678 1326.62 484.551
185 0 82.0577 13.1249 1077 80.2572 1326.9 482.735
186 0 84.1153 12.8276 1079 80.7581 1327.04 481.317
187 0 86.0696 13.4891 1161 80.5159 1327.24 480.971
188 0 90.0461 13.3265 1200 83.605 1327.41 475.797
189 0 93.0972 13.3624 1244 81.2902 1327.02 477.088
190 0 96.0708 13.6358 1310 81.9198 1327.09 475.756
191 1 50.0108 12.2574 613 79.3654 1327.19 498.078
192 0 51.0976 11.7422 600 78.4067 1325.25 496.927
193 0 53.1391 12.8719 684 77.9328 1325.67 495.548
194 0 53.0448 12.2349 649 76.9353 1327.12 497.302
195 0 54.0614 12.0974 654 77.9755 1326.37 496.972
196 0 57.0148 12.26 699 76.6724 1326.44 496.694
197 0 57.0832 12.2453 699 76.9571 1325.7 495.492
198 0 61.096 12.1121 740 77.1838 1326.05 494.235
199 0 64.0325 12.3843 793 75.5788 1325.55 493.193
200 0 65.1139 11.8408 771 76.1025 1325.89 492.706
201 0 68.0628 12.0036 817 76.1004 1325.38 490.13
202 0 68.0422 11.9779 815 98.2172 1325.62 488.865
203 0 73.052 12.2652 896 95.8337 1325.98 489.074
204 0 75.0531 12.0981 908 95.4747 1325.67 487.626
205 0 77.0461 12.486 962 95.7297 1325.97 487.224
206 0 80.1091 11.7215 939 97.6901 1325.52 485.628
207 0 84.1167 12.9344 1088 96.1489 1325.29 484.307
208 0 86.0618 12.3284 1061 96.4524 1325.79 483.741
209 0 89.1182 12.388 1104 97.8714 1326.54 480.86
210 1 50.0819 10.7224 537 97.9386 1325.64 500.741
211 0 49.0577 11.2928 554 97.9621 1326.5 499.505
212 0 51.1281 12.1851 623 94.6116 1326.18 499.687
213 0 54.0922 12.719 688 98.3227 1325.89 496.278
214 0 54.0474 12.7851 691 97.8538 1325.91 497.531
215 0 52.0551 11.6223 605 95.4926 1325.62 499.557
216 0 55.0551 11.6429 641 95.9938 1325.8 498.997
217 0 57.0896 12.0512 688 95.0029 1325.7 496.856
218 0 59.1156 12.1288 717 93.9024 1325.42 497.307
219 0 61.0531 12.1861 744 94.9691 1325.06 495.485
220 0 61.0868 12.2285 747 95.2289 1325.07 494.6
221 0 64.0461 12.5066 801 94.5044 1325.11 493.578
222 0 66.0627 11.9735 791 95.7611 1325.53 492.585
223 0 69.0339 12.5591 867 95.2364 1325.81 490.4
224 0 71.068 12.284 873 95.8706 1325.74 490.117
225 0 74.0711 12.6365 936 94.859 1325.48 488.44
226 0 77.0435 12.4735 961 94.2154 1325.53 485.635
227 0 79.0796 12.342 976 93.8781 1325.82 485.887
228 0 82.1281 12.6631 1040 93.7375 1325.48 484.42
229 0 85.0568 12.6739 1078 92.8163 1325 483.728
230 0 89.045 13.2517 1180 90.6 1325.75 481.496
231 0 89.0657 12.6536 1127 91.9388 1325.44 479.455
232 1 49.0812 11.2467 552 92.2754 1325.85 498.585
233 0 50.1186 11.9716 600 90.0517 1325.98 497.52
234 0 51.0565 13.1619 672 91.1949 1325.52 497.728
235 0 51.0192 11.5447 589 85.2666 1325.7 492.603
236 0 53.0748 11.8512 629 84.5962 1325.54 492.604
237 0 56.0813 12.2857 689 81.8592 1326.31 493.054
238 0 57.1065 11.6799 667 84.5982 1326.07 491.952
239 0 58.0607 12.263 712 83.3399 1326.19 492.41
240 0 62.1133 11.6239 722 84.5305 1326 489.747
241 0 64.0656 11.8784 761 84.1813 1325.56 490.17
242 0 65.0539 13.5887 884 90.4683 1325.55 491.986
243 0 69.1481 13.2469 916 88.6223 1325.11 490.015
244 0 71.1355 13.5797 966 88.5621 1325.54 488.664
245 0 72.1093 13.5905 980 89.5143 1325.72 488.86
246 0 75.1137 13.0336 979 88.9642 1325.39 487.21
247 0 77.0742 13.4675 1038 86.4538 1324.8 487.965
248 0 80.0925 13.01 1042 86.4962 1325.69 487.338
249 0 81.1059 12.6871 1029 88.0671 1325.43 485.491
250 0 84.0446 12.2435 1029 90.2604 1325.69 483.187
251 0 86.1206 12.436 1071 89.3959 1325.2 482.522
252 0 89.1111 13.0511 1163 86.9243 1325.75 481.336
253 0 93.2724 12.8548 1199 86.5646 1325.67 479.292
254 1 48.0812 11.1686 537 78.3966 1325.58 502.49
255 0 48.0446 12.1346 583 78.3636 1325.46 500.732
256 0 50.0589 11.8261 592 76.3362 1325.78 501.088
257 0 52.0595 12.5049 651 76.8679 1325.74 498.806
258 0 54.0223 12.1061 654 76.367 1325.64 499.225
259 0 54.0134 11.7378 634 77.9117 1325.7 499.117
260 0 54.0315 11.6969 632 78.2532 1326.27 497.718
261 0 56.0185 11.1927 627 81.0861 1325.74 497.592
262 0 56.0433 11.7231 657 80.4079 1325.5 496.728
263 0 59.061 12.885 761 77.7122 1325.49 496.627
264 0 60.0662 11.9535 718 80.9889 1326 494.485
265 0 63.0374 11.8184 745 80.5799 1326.02 494.15
266 0 65.0426 11.8538 771 81.2231 1325.68 493.333
267 0 66.111 11.6017 767 82.5319 1325.17 490.567
268 0 69.0669 11.916 823 82.9356 1325.33 491.578
269 0 72.0402 12.3126 887 82.9673 1325.46 489.43
270 0 74.0334 12.5754 931 83.2019 1325.47 488.435
271 0 75.0561 12.7238 955 84.3717 1325.41 487.978
272 0 77.114 12.4491 960 85.8438 1325.73 486.76
273 0 80.0716 12.7886 1024 85.1738 1325.94 484.797
274 0 82.1077 12.6541 1039 86.2175 1325.23 485.217
275 0 83.0429 12.9451 1075 88.4223 1325.3 482.97
276 0 85.045 12.511 1064 89.5611 1325.38 481.907
277 0 89.0671 12.9902 1157 88.1703 1325.78 480.685
278 0 90.0866 12.4436 1121 89.876 1324.8 479.393
279 0 91.0824 12.5491 1143 90.0709 1325.83 477.314
280 0 93.0951 12.4711 1161 90.1585 1325.42 476.875
281 0 95.0838 12.4627 1185 90.7629 1325.43 475.624
282 0 98.0919 12.6718 1243 90.5028 1325.27 473.785
283 1 52.0946 10.3658 540 89.5074 1327.41 496.47
284 0 56.0439 10.4918 588 85.8163 1326.36 497.952
285 0 56.0863 10.0381 563 86.5009 1325.71 491.357
286 0 56.0614 10.9879 616 88.0081 1326.28 485.536
287 0 60.0938 11.2158 674 86.3561 1325.96 488.438
288 0 62.0816 11.7587 730 86.3658 1325.35 493.67
289 0 63.0779 11.9852 756 86.4537 1324.48 491.911
290 0 67.1473 12.5843 845 86.587 1324.91 492.057
291 0 67.0974 12.4893 838 87.8795 1324.44 491.153
292 0 70.1157 12.7789 896 87.7321 1324.84 490.09
293 0 72.1087 12.5782 907 88.8942 1325 489.306
294 0 74.0571 12.2338 906 91.2064 1325.26 488.54
295 0 77.1661 12.6869 979 91.2738 1325.1 486.853
296 0 78.2004 12.9283 1011 92.3867 1324.82 485.552
297 0 82.251 13.0211 1071 100.92 1325.08 484.037
298 0 84.2669 12.8046 1079 102.358 1325.16 481.076
299 0 86.3488 12.6116 1089 102.339 1325.74 480.112
300 0 86.3328 12.2086 1054 104.746 1325.22 479.02
301 0 91.4198 12.7981 1170 102.215 1325.6 477.082
302 0 94.3683 12.1969 1151 102.368 1325.29 476.348
303 0 96.2265 12.0341 1158 101.519 1325.68 476.604
304 1 49.11 10.9957 540 97.3722 1324.76 498.013
305 0 50.1375 10.7106 537 95.8715 1326.2 495.912
306 0 54.1476 11.7457 636 89.6226 1325.03 497.615
307 0 53.1743 11.8478 630 93.8064 1324.43 497.425
309 0 52.0154 9.84324 512 82.3691 1325.52 500.326
310 0 53.0155 10.9779 582 81.9055 1324.69 499.448
311 0 54.0159 9.86746 533 81.9475 1325.04 500.445
312 0 56.0489 9.97344 559 83.8533 1325.77 498.043
313 0 56.0881 10.2339 574 81.1707 1326.01 500.134
314 0 59.0358 10.807 638 79.058 1326.7 496.762
315 0 63.1194 11.0742 699 80.6552 1326.39 495.614
316 0 66.1013 11.2706 745 79.5624 1326.11 494.936
317 0 66.0766 10.8964 720 80.5278 1326.31 494.231
318 0 69.0694 10.2506 708 80.4025 1325.9 493.523
319 0 71.0639 10.5398 749 82.5354 1325.93 492.044
320 0 73.0759 10.0444 734 82.0627 1325.73 490.662
321 0 77.112 10.167 784 80.1212 1325.83 489.566
322 0 78.0594 10.3511 808 79.8948 1326.1 488.361
323 0 81.1392 10.254 832 79.3786 1325.47 486.008
324 1 43.0969 10.1167 436 77.6491 1325.25 506.369
325 0 44.0439 10.376 457 76.8468 1325.37 506.048
326 0 44.1392 10.0364 443 75.4537 1325.52 506.023
327 0 47.0653 9.90114 466 74.7768 1325.07 505.573
328 0 45.0553 9.81017 442 72.2466 1324.59 502.584
329 0 49.0645 10.5372 517 71.559 1323.03 502.814
330 0 49.124 10.4837 515 74.8757 1323.02 503.278
331 0 46.0709 9.20321 424 77.6604 1322.78 503.55
332 0 50.0585 8.98948 450 75.5933 1322.75 502.876
333 0 51.1288 10.0139 512 75.6191 1322.92 501.166
334 0 52.0668 9.91034 516 74.4089 1322.96 501.859
335 0 54.0349 9.71594 525 76.2362 1322.58 501.714
336 0 54.062 9.97004 539 76.8349 1322.35 500.147
337 0 57.1066 10.4892 599 81.0167 1324.17 498.886
338 0 59.0872 10.493 620 79.8064 1324 497.171
339 0 60.0506 9.99157 600 80.5033 1323.7 498.388
340 0 63.0891 9.90662 625 80.4784 1324 498.629
341 0 66.0158 10.4217 688 82.5262 1324.3 495.792
342 0 66.0557 10.5214 695 81.8921 1323.88 494.498
343 0 69.0614 10.7585 743 83.3594 1323.86 492.273
344 0 70.0384 11.2081 785 83.6191 1323.09 491.288
345 0 71.0786 10.7768 766 85.3042 1323.02 491.236
346 0 74.0208 10.9294 809 84.3325 1322.48 490.97
347 0 78.0326 10.8801 849 83.4016 1321.83 490.888
348 0 79.0438 10.5511 834 87.2266 1322.16 488.517
349 0 81.0557 10.6593 864 86.7442 1321.61 490.201
350 1 45.0608 10.1862 459 87.6318 1322.44 505.688
351 0 46.0513 10.358 477 87.3899 1322.66 505.614
352 0 48.0538 10.6131 510 85.4922 1323.02 504.924
353 0 49.0413 11.2354 551 89.6461 1322.83 502.73
354 0 46.0161 9.75746 449 82.4388 1321.63 506.891
355 0 45.0593 10.009 451 83.7295 1321.66 505.344
356 0 49.0239 10.1583 498 84.0542 1322.22 504.327
357 0 49.045 9.74614 478 84.5941 1323.96 505.142
358 0 51.0356 10.091 515 85.3243 1323.4 503.159
359 0 52.0485 9.85619 513 85.998 1323.38 503.22
360 0 54.0288 10.4759 566 84.8763 1323.13 502.019
361 0 53.0293 10.0322 532 88.5 1323.1 501.194
362 0 54.0197 10.4591 565 89.862 1323.02 499.129
363 0 58.017 11.1174 645 87.5535 1323.12 498.388
364 0 58.0328 10.787 626 89.2045 1323.33 498.649
365 0 61.0422 11.0088 672 87.9762 1323.4 498.981
366 0 63.0857 11.6191 733 88.1323 1323.58 496.995
367 0 63.0559 10.7841 680 91.0912 1324.07 495.532
368 0 67.0746 11.2114 752 89.3936 1323.73 493.331
369 0 68.0247 11.1724 760 89.2171 1323.73 496.032
370 0 71.0768 11.6634 829 89.7431 1323.51 490.615
371 0 73.0756 11.2486 822 91.5146 1323.08 490.898
372 0 73.0728 10.8111 790 94.4139 1323.43 491.097
373 0 77.1302 11.0592 853 93.6659 1323.92 490.98
374 0 78.1253 11.392 890 94.6214 1323.53 487.56
375 0 80.1468 10.7303 860 96.6535 1323.78 488.487
376 0 84.0804 11.3225 952 95.7563 1323.83 487.478
377 0 86.1545 10.899 939 95.3866 1324 485.509
378 1 49.0531 10.5804 519 93.0308 1325.04 503.299
379 0 51.017 10.8199 552 92.9149 1325.1 503.328
380 0 51.0388 10.9329 558 93.0412 1325.04 500.866
381 0 51.0637 11.7109 598 93.2358 1324.35 500.41
382 0 53.0115 11.8653 629 92.8601 1324.87 499.812
383 0 55.0201 11.5776 637 93.5416 1325.35 499.878
384 0 56.0249 11.9233 668 94.6871 1325.2 497.846
385 0 56.0229 11.9416 669 94.3827 1325.37 498.004
386 0 59.0204 12.2669 724 92.5276 1325.28 496.885
387 0 59.0169 11.556 682 96.1774 1325.88 496.169
388 0 60.0248 12.095 726 93.7342 1325.58 495.829
389 0 61.0542 12.1204 740 95.0041 1325.38 494.832
390 0 64.0535 12.2866 787 93.6214 1325.78 492.872
391 0 67.019 12.3547 828 93.7899 1325.17 492.55
392 0 69.0404 12.5434 866 94.7644 1326.19 491.59
393 0 72.0167 12.9692 934 93.6649 1325.01 490.73
394 0 73.0273 13.0088 950 95.1674 1325.39 488.912
395 0 74.0556 12.7067 941 97.4952 1325.43 488.584
396 0 76.0668 13.3435 1015 97.667 1325.82 487.28
397 0 76.0357 11.8628 902 91.0554 1325.61 488.973
398 0 76.0734 11.7781 896 93.5915 1324.46 489.11
399 0 80.1118 12.0706 967 94.6556 1323.56 487.288
400 0 83.0785 12.2414 1017 96.3451 1323.82 484.801
401 0 84.1265 12.1008 1018 99.1464 1323.3 483.776
402 0 88.0941 12.691 1118 99.1825 1324.13 480.529
403 0 91.1004 11.888 1083 101.004 1323.27 481.042
404 0 93.0707 12.3347 1148 103.212 1323.59 477.249
405 1 50.0273 10.8741 544 105.8 1322.58 501.062
406 0 51.0338 11.7177 598 104.485 1323.18 501.808
407 0 52.0449 11.4709 597 107.04 1323.5 500.429
408 0 54.0359 11.5479 624 106.122 1322.86 499.894
409 0 53.0328 12.4451 660 95.3106 1322.97 499.177
410 0 55.0562 12.5508 691 92.3386 1323.18 500.065
411 0 57.0437 12.0259 686 93.9592 1323.72 499.614
412 0 58.059 12.5734 730 93.4822 1322.72 497.434
413 0 60.0438 12.9406 777 94.0914 1322.58 495.524
414 0 62.0552 12.8918 800 94.95 1323.02 496.062
415 0 63.0376 13.2936 838 93.938 1322.98 493.821
416 0 66.057 13.1553 869 94.5903 1322.6 494.192
417 0 68.0754 12.7653 869 95.7848 1323.45 492.307
418 0 70.1066 12.9374 907 96.1345 1323.14 491.883
419 0 69.1281 11.9922 829 102.708 1323.42 492.165
420 0 71.1233 12.1057 861 101.764 1323.43 491.82
421 0 73.1189 11.9531 874 102.681 1323.4 489.515
422 0 75.1326 12.3249 926 101.065 1322.54 488.797
423 0 79.064 12.7239 1006 98.4056 1322.76 488.418
424 0 80.157 12.3757 992 101.588 1323.26 485.923
425 1 44.0441 9.92187 437 106.609 1323.03 504.089
426 0 45.0713 10.5167 474 104.405 1323.37 503.865
427 0 47.0158 10.422 490 103.935 1322.44 500.829
428 0 47.0268 11.2702 530 101.706 1323 499.54
429 0 50.0182 11.9157 596 97.6158 1321.88 501.351
430 0 48.0228 10.3284 496 89.3891 1322.58 503.131
431 0 50.1028 10.4585 524 86.5935 1323.1 502.567
432 0 52.0408 9.9153 516 87.6725 1322.56 501.932
433 0 52.0563 10.4886 546 87.044 1322.82 500.857
434 0 55.0338 10.5935 583 84.976 1322.58 500.571
435 0 55.0409 10.8647 598 84.5769 1323.12 499.875
436 0 57.0487 10.4647 597 82.8593 1323.49 499.9
437 0 59.0328 10.5535 623 84.3403 1323.7 499.282
438 0 59.0565 9.77031 577 83.3813 1323.22 497.52
439 0 60.0737 9.42176 566 83.8428 1322.88 497.284
440 0 64.0525 10.8349 694 80.853 1323.12 494.592
441 0 66.0821 10.6383 703 81.7226 1323.66 493.063
442 0 69.0412 10.5299 727 81.4787 1323.69 491.484
443 0 70.0727 9.93254 696 82.2486 1322.71 492.615
444 1 37.0083 9.51137 352 82.4489 1322.82 507.906
445 0 37.0156 10.0498 372 81.2742 1323 506.852
446 0 39.0464 9.96251 389 80.3599 1323.2 506.039
447 0 40.0188 10.645 426 79.8967 1323.46 504.66
448 0 42.045 10.7028 450 79.3333 1323.89 504.607
449 0 43.0494 10.6854 460 79.813 1323.69 505.309
450 0 42.0698 11.4571 482 88.7178 1323.58 504.863
451 0 45.0371 11.8347 533 77.4484 1323.34 503.983
452 0 45.053 11.4754 517 80.3133 1323.45 503.863
453 0 46.0506 11.2919 520 80.8288 1323.97 503.41
454 0 48.0315 11.8047 567 80.2293 1323.38 502.358
455 0 47.0205 11.4844 540 81.8018 1323.48 501.031
456 0 52.0262 11.8786 618 77.0647 1322.86 500.532
457 0 52.072 11.6377 606 78.8746 1323.67 499.828
458 0 53.0199 12.1087 642 79.1028 1323.39 499.162
459 0 56.0288 11.976 671 78.158 1323.52 497.346
460 0 55.0506 12.1343 668 77.3488 1323.32 496.033
461 0 56.0344 12.1711 682 78.4575 1323.5 496.242
462 0 60.0533 12.6887 762 76.7257 1323.46 494.457
463 0 61.0732 12.6078 770 77.9727 1324.05 493.523
464 0 63.044 11.5158 726 80.4366 1323.54 492.399
465 0 63.05 11.4829 724 118.78 1323.54 492.395
466 0 67.0854 11.6717 783 79.3231 1323.52 492.072
467 0 67.0543 12.0947 811 79.201 1323.42 491.779
468 0 70.0696 13.087 917 77.0153 1323.57 490.636
469 0 72.071 12.7374 918 78.5011 1323.37 488.61
470 0 73.0766 12.7127 929 78.8859 1322.96 487.338
471 0 75.0624 12.9093 969 78.5253 1322.98 487.287
472 0 77.1022 12.4769 962 79.8191 1323.23 488.006
473 0 81.0913 13.4786 1093 77.6789 1322.69 483.82
474 0 83.061 12.9303 1074 79.0382 1322.86 482.557
475 0 85.0669 12.931 1100 80.9891 1323.2 482.672
476 1 44.0454 10.9887 484 83.6219 1322.05 503.446
477 0 44.0308 11.1967 493 83.8377 1322.13 502.75
478 0 46.025 11.0809 510 84.9157 1321.75 502.024
479 0 48.0435 11.552 555 80.2559 1323.56 500.971
480 0 48.0638 12.2337 588 79.3265 1322.12 501.25
481 0 49.0552 11.8234 580 81.0466 1322.8 501.31
482 0 50.0096 11.6578 583 83.8319 1322.43 501.331
483 0 51.0247 11.5826 591 83.7682 1321.96 501.526
484 0 51.0114 12.0169 613 84.5905 1322.41 501.303
485 0 54.0871 12.6463 684 82.1447 1321.69 500.079
486 0 56.0802 12.2146 685 83.1956 1321.9 497.739
487 0 57.0453 12.2359 698 81.9269 1321.83 497.067
488 0 59.1116 12.1296 717 81.7183 1321.73 497.232
489 0 60.0507 11.8233 710 82.1845 1321.81 496.477
490 0 64.1051 12.8227 822 78.455 1321.67 495.064
491 0 65.1309 12.9432 843 78.5611 1322.13 493.922
492 0 67.0542 13.3474 895 78.8581 1322.19 494.292
493 0 69.054 13.2215 913 78.057 1322.07 492.114
494 0 71.0324 12.5999 895 80.5911 1322.92 491.047
495 0 73.0539 12.9767 948 78.769 1322.76 489.811
496 0 77.0622 13.7292 1058 77.4442 1322.72 490.351
497 0 76.0746 13.1056 997 79.7402 1322.31 488.864
498 0 80.048 13.4045 1073 77.37 1322.57 486.511
499 0 81.1105 12.9946 1054 79.6309 1323.2 486.033
500 0 81.1105 13.0193 1056 145.598 1323.2 485.9
501 0 87.0401 12.8332 1117 79.5801 1323.37 483.249
502 0 91.0582 13.3541 1216 88.852 1323.45 482.49
503 0 91.0656 13.5836 1237 88.3209 1324.04 481.991
504 0 95.0931 13.6182 1295 87.7753 1324.2 479.278
505 0 98.033 13.5057 1324 88.7107 1323.99 478.85
506 0 100.048 13.1737 1318 90.3331 1323.76 476.885
507 1 52.0426 11.0486 575 85.0417 1322.81 501.769
508 0 53.0491 11.1218 590 84.4136 1323.05 500.868
509 0 54.15 12.5023 677 81.87 1322.55 500.004
510 0 54.0927 13.1256 710 84.1028 1322.24 497.98
511 0 55.0997 10.9257 602 80.9169 1322.59 494.975
512 0 55.0676 10.4962 578 85.0536 1323.09 494.01
513 0 58.0836 10.6915 621 84.0757 1323.16 494.142
514 0 58.0609 10.799 627 85.3525 1323.14 492.314
515 0 61.0554 11.3012 690 83.1 1322.3 492.854
516 0 61.0819 11.018 673 85.055 1322.53 490.703
517 0 64.0565 10.4439 669 85.7519 1322.36 493.689
518 0 66.0546 11.0817 732 85.3265 1322.62 491.168
519 0 66.0283 11.4193 754 85.9947 1322.12 490.806
520 0 71.0547 11.5545 821 85.2205 1322.15 490.542
521 0 73.0881 11.8624 867 84.1176 1322.51 487.175
522 0 75.086 11.4802 862 85.2657 1322.32 487.558
523 0 77.0632 11.1467 859 87.0733 1322.51 486.861
524 0 79.0696 11.4583 906 86.7958 1321.59 485.467
525 0 83.0788 11.8201 982 84.2974 1321.76 484.172
526 0 85.082 11.3655 967 86.8325 1321.47 483.747
527 1 42.0156 10.5675 444 88.7703 1321.31 506.77
528 0 44.0161 11.4731 505 85.5248 1321.25 505.822
529 0 45.0235 10.9498 493 84.9939 1321.98 507.081
530 0 47.0102 11.5507 543 84.8435 1322.31 505.93
531 0 47.0118 12.1884 573 86.9895 1322.34 505.454
532 0 49.0763 12.3074 604 90.6242 1321.35 504.298
533 0 52.0678 12.5798 655 90.4489 1320.49 503.724
534 0 54.1002 12.4399 673 90.1293 1320.92 502.606
535 0 55.1627 12.8529 709 90.8124 1320.81 501.883
536 0 56.107 12.7257 714 92.5714 1321.86 501.517
537 0 59.1511 13.4064 793 91.9647 1322.38 500.03
538 0 60.1161 12.6588 761 95.502 1321.72 498.368
539 0 60.1865 12.4613 750 97.5453 1321.88 497.343
540 0 64.1144 13.242 849 96.258 1321.7 497.711
541 0 64.2108 13.0819 840 98.9548 1321.72 496.432
542 0 67.071 13.4783 904 97.781 1321.86 496.294
543 0 70.1014 13.1238 920 98.4978 1322.14 495.399
544 0 71.084 13.4067 953 99.5666 1321.3 494.782
545 0 71.1035 13.2483 942 101 1321.82 493.967
546 0 76.0845 13.209 1005 101.024 1321.7 492.739
547 0 78.0648 13.2454 1034 99.2321 1321.57 490.943
548 0 79.0523 12.5866 995 102.643 1321.58 489.628
549 0 81.0789 13.271 1076 101.11 1321.9 487.226
550 0 86.0755 13.1164 1129 101.167 1322.13 487.77
551 0 87.0663 13.2543 1154 102.223 1321.69 485.858
552 0 88.0581 13.2299 1165 101.518 1322.43 485.402
553 0 92.1401 13.0779 1205 102.788 1322.56 481.568
554 0 95.1076 13.2166 1257 104.586 1322.85 480.615
555 0 98.144 13.6942 1344 103.896 1322.66 479.745
556 0 100.16 13.0491 1307 105.957 1322.44 478.066
557 0 104.16 13.8441 1442 103.433 1322.53 477.977
558 0 107.101 13.6413 1461 103.516 1322.44 477.099
559 0 111.11 13.4101 1490 106.032 1322.67 474.157
560 0 116.159 13.3094 1546 107.738 1322.79 470.212
561 1 61.0794 11.3459 693 103.209 1323.79 498.941
562 0 65.048 12.2218 795 101.147 1323.02 498.449
563 0 65.0247 12.1954 793 100.914 1321.06 498.339
564 0 69.046 12.3396 852 98.4554 1321.72 497.122
565 0 72.0372 12.5491 904 97.9259 1321.23 496.887
566 0 73.1079 12.6662 926 97.8877 1321.75 494.009
567 0 73.1079 12.6115 922 139.466 1322.75 494.031
568 0 78.0835 12.128 947 97.7276 1321.55 491.852
569 0 78.0627 12.0544 941 139.121 1319.55 491.922
570 0 84.07 13.4174 1128 94.8041 1321.37 490.789
571 0 87.0751 12.9773 1130 96.5655 1321.49 491.57
572 0 89.0285 12.8723 1146 95.9913 1320.74 489.12
573 0 92.0852 12.7382 1173 96.7212 1321.21 488.24
574 0 93.0831 12.7735 1189 99.2346 1320.67 485.491
575 0 98.0972 12.9158 1267 97.2897 1321.91 485.339
576 0 102.1 13.2517 1353 95.6733 1321 482.752
577 1 52.0392 11.1839 582 95.6632 1320.73 507.887
578 0 55.0337 11.4294 629 97.2607 1320.86 507.285
579 0 54.0213 11.1252 601 101.814 1320.87 505.536
580 0 57.016 12.7859 729 89.5418 1320.7 505.481
581 0 58.0605 12.2286 710 92.2324 1320.65 504.431
582 0 59.0261 12.0116 709 93.0282 1320.62 502.852
583 0 61.0301 12.0269 734 91.3324 1320.21 501.763
584 0 61.0421 12.8436 784 90.5574 1320.22 501.059
585 0 63.0241 12.5031 788 90.7843 1320.58 499.704
586 0 69.0968 11.8674 820 102.927 1320.59 497.476
587 0 68.0683 11.5619 787 102.878 1320.29 496.942
588 0 70.0388 11.8648 831 103.28 1322.27 496.296
589 0 74.0326 12.3459 914 100.219 1322.08 495.275
590 0 75.0738 12.2546 920 102.167 1321.71 494.153
591 0 75.0433 11.8998 893 103.268 1322.13 494.024
592 0 78.0892 12.14 948 102.401 1321.94 492.338
593 0 80.0614 11.8909 952 103.243 1322.61 492.791
594 0 83.0806 12.3013 1022 101.878 1321.55 490.66
595 0 85.1115 11.4556 975 105.717 1321.79 488.801
596 0 88.1228 12.4258 1095 101.758 1321.78 485.846
597 0 91.1103 11.9416 1088 101.722 1322.48 486.551
598 1 48.0542 10.1552 488 98.8463 1321.92 508.588
599 0 48.0591 11.1321 535 94.4037 1321.72 507.116
600 0 49.0765 10.9421 537 90.7598 1321.56 506.57
601 0 50.0908 11.9184 597 87.9564 1320.38 507.213
602 0 50.082 11.621 582 89.4175 1320.7 507.392
603 0 53.0397 11.5574 613 86.186 1321.56 505.383
604 0 55.09 11.7444 647 86.1499 1321.27 503.428
605 0 56.0123 11.8724 665 87.018 1320.53 504.325
606 0 56.0617 11.7728 660 87.2833 1320.63 504.115
607 0 58.049 12.1621 706 87.6997 1320.2 502.17
608 0 60.0508 12.2396 735 87.5755 1320.42 500.245
609 0 61.0682 12.6252 771 88.9209 1321.36 500.532
610 0 64.0343 12.1966 781 88.9116 1321.23 500.494
611 0 64.0477 12.4126 795 89.7975 1321.08 500.148
612 0 67.0552 12.2884 824 91.216 1321.32 498.559
613 0 70.1139 12.822 899 89.0667 1321.03 498.079
614 0 71.0262 12.601 895 90.6626 1320.9 497.374
615 0 73.0673 12.8649 940 90.8021 1321.21 494.772
616 0 74.1099 12.5489 930 91.9957 1320.71 495.223
617 0 75.0636 11.4836 862 95.6612 1320.47 494.342
618 0 76.0462 11.2037 852 96.4859 1319.42 491.971
619 0 81.0365 11.3282 918 95.4455 1319.7 490.316
620 1 44.0214 11.3127 498 98.2048 1319.74 507.624
621 0 43.0565 11.4036 491 100.859 1320.13 506.318
622 0 45.0331 11.6359 524 96.105 1321.24 506.798
623 0 45.0155 11.8848 535 91.8579 1321.29 506.385
624 0 47.01 12.1889 573 91.5218 1321.21 505.627
625 0 48.044 12.5094 601 91.8003 1321.16 505.12
626 0 52.0169 12.8997 671 89.4247 1320.88 503.621
627 0 52.0083 12.1134 630 93.1667 1321.03 503.967
628 0 54.0591 13.0413 705 90.6922 1320.96 503.706
629 0 55.0535 12.8784 709 93.2638 1321.06 500.804
630 0 56.0572 13.4149 752 90.7048 1321.66 501.174
631 0 58.1192 13.2831 772 91.228 1321.61 500.494
632 0 61.0322 13.4028 818 91.4193 1322.34 499.411
633 0 62.0713 13.7584 854 92.2904 1321.49 498.267
634 0 63.0365 13.3573 842 94.7173 1321.78 497.779
635 0 67.0457 13.8413 928 92.7953 1321.35 495.703
636 0 69.0814 13.8822 959 93.6058 1321.42 494.68
637 0 69.0321 13.5734 937 96.7503 1321.38 494.08
638 0 71.1082 14.0209 997 95.7914 1321.58 492.329
639 0 74.0789 14.7545 1093 94.5581 1322.1 492.363
640 0 75.0934 14.2489 1070 97.7243 1321.33 489.947
641 0 79.0399 14.0056 1107 98.8564 1321.3 490.651
642 0 80.0656 14.4007 1153 98.9506 1321.66 488.891
643 0 83.15 14.0228 1166 100.143 1321.92 487.596
644 1 43.0144 11.7403 505 104.78 1321.46 507.652
645 0 44.0111 12.2015 537 105.575 1321.64 506.637
646 0 41.0561 11.4234 469 95.2537 1321.84 502.808
647 0 42.0633 10.8646 457 98.3304 1320.94 500.241
648 0 44.0517 11.4411 504 91.4444 1321.75 501.123
649 0 43.0226 11.0639 476 90.9139 1322.17 502.483
650 0 47.0213 11.7819 554 89.3249 1321.7 500.036
651 0 49.047 10.7244 526 90.8327 1322.21 499.705
652 0 47.0192 10.8466 510 92.549 1321.45 499.335
653 0 53.0105 11.3185 600 90.0767 1322.46 499.173
654 0 54.0304 12.1228 655 89.1252 1322.63 497.032
655 0 56.0724 12.7157 713 86.533 1322.58 496.819
656 0 57.0888 11.8587 677 87.3708 1322.64 494.42
657 0 58.1032 12.0992 703 88.0825 1322.18 493.485
658 0 61.0503 12.5143 764 86.1571 1322.63 492.501
659 0 60.0786 12.0009 721 86.7046 1322.42 490.406
660 0 62.0268 12.4462 772 86.9378 1323.04 489.873
661 0 65.0818 12.3844 806 86.7444 1322.88 488.582
662 0 67.0147 12.7136 852 88.2418 1322.91 488.427
663 0 68.0726 13.0008 885 88.1198 1322.43 487.038
664 0 69.0761 12.2474 846 91.2092 1322.81 485.085
665 0 75.0915 13.4636 1011 88.6884 1322.47 484.096
666 1 37.0473 10.986 407 90.2998 1323.36 502.808
667 0 37.0458 11.8232 438 97.6986 1323.41 504.231
668 0 40.0403 12.1128 485 94.2041 1322.56 501.482
669 0 41.0273 12.4795 512 95.1445 1321.91 502.467
670 0 43.0894 12.6017 543 96.046 1322.47 502.252
671 0 44.1602 12.6132 557 95.3752 1322.37 501.535
672 0 44.0109 12.4287 547 96.7367 1322.92 501.552
673 0 45.0362 13.0561 588 95.2313 1323.5 500.58
674 0 47.031 12.9064 607 96.0725 1323.29 498.662
675 0 48.0674 12.6905 610 95.5918 1323.28 498.279
676 0 51.0905 12.5268 640 93.9484 1323.32 498.095
677 0 50.0596 13.2642 664 92.6416 1322.75 496.788
678 0 51.0876 12.4884 638 94.3511 1322.02 494.909
679 0 55.0863 12.8344 707 92.8685 1322.81 493.242
680 0 56.0858 13.1584 738 92.4892 1322.35 494.031
681 0 58.0358 13.2332 768 96.4062 1322.4 496.785
682 0 62.0286 13.1875 818 97.6516 1321.79 495.469
683 0 63.0117 13.6165 858 98.1375 1322.23 493.894
684 0 66.0299 13.4484 888 97.4403 1322.73 493.726
685 0 66.0363 12.8111 846 97.6135 1323.24 489.219
686 0 68.0604 12.8121 872 98.0264 1323.33 487.922
687 0 73.031 13.4326 981 96.1682 1323.77 486.485
688 1 36.0096 9.99733 360 87.325 1322.14 507.167
689 0 36.0073 10.2757 370 87.8811 1323.8 505.192
690 0 36.0131 10.2463 369 87.1789 1323.5 505.285
691 0 40.0067 11.6981 468 88.3077 1323.94 508.538
692 0 40.0211 12.2435 490 90.8102 1322.77 509.543
693 0 42.0313 12.6096 530 89.1736 1323.15 509.868
694 0 43.0202 12.6452 544 89.5349 1323.02 507.836
695 0 44.0365 12.2398 539 90.5956 1323.03 508.065
696 0 46.026 12.9492 596 88.7399 1323.44 507.763
697 0 48.0236 12.952 622 88.865 1323.18 506.629
698 0 47.0104 12.4228 584 91.262 1322.62 505.695
699 0 51.0284 13.0907 668 88.5778 1322.57 504.874
700 0 53.0508 13.2892 705 87.966 1322.99 504.091
701 0 55.0412 12.6996 699 90.196 1322.82 504.484
702 0 58.06 14.0889 818 86.5562 1322.44 501.696
703 0 60.0809 14.1975 853 87.2755 1322.54 500.455
704 0 57.0509 13.4091 765 92.1895 1321.92 500.988
705 0 60.0411 12.6746 761 92.8344 1321.9 501.18
706 0 62.0874 13.4971 838 91.4189 1321.04 500.291
707 0 65.0549 13.0198 847 93.0661 1322 499.316
708 0 65.0542 13.3581 869 100.2 1321.56 498.365
709 0 70.1242 14.1891 995 96.5397 1321.47 496.802
710 0 70.0456 13.377 937 98.936 1321.56 496.58
711 0 72.0301 13.3278 960 97.601 1321.6 496.014
712 0 76.0545 14.2792 1086 92.8112 1321.19 494.33
713 0 79.0645 13.3941 1059 94.728 1322 492.878
714 0 81.1111 13.9685 1133 93.6681 1322.01 492.796
715 0 83.0265 13.4535 1117 95.4584 1321.53 491.063
716 0 85.06 13.4964 1148 95.7613 1322.31 490.03
717 0 88.1195 13.3228 1174 96.19 1321.29 488.299
718 0 88.1195 13.3796 1179 147.194 1320.31 488.367
719 1 47.0103 10.9338 514 94.0817 1321.27 509.953
720 0 47.036 11.1191 523 95.0038 1321.41 508.88
721 0 49.097 11.3245 556 95.3022 1321.03 507.894
722 0 52.0926 12.7657 665 91.9128 1321.88 507.334
723 0 53.1111 12.4833 663 96.0483 1321.23 506.095
724 0 57.0799 12.246 699 95.4793 1321.83 505.456
725 0 58.0708 12.0715 701 95.9244 1322.74 505.093
726 0 59.1211 12.5336 741 95.6046 1322.06 503.835
727 0 61.0656 12.5603 767 96.1265 1321.88 503.502
728 0 62.0935 11.9175 740 99.0149 1321.66 501.626
729 0 63.1556 11.8596 749 100.491 1321.79 499.744
730 0 66.1331 12.3236 815 97.6932 1321.84 498.864
731 0 69.0941 12.5192 865 96.9723 1321.99 499.284
732 0 70.1305 12.5623 881 97.7957 1322.09 499.116
733 0 74.0892 13.1328 973 95.925 1321.75 497.742
734 0 73.1386 12.5925 921 98.8502 1321.83 494.689
735 0 78.0753 12.5264 978 97.7311 1321.17 494.556
736 0 82.0949 13.1799 1082 94.8817 1321.6 493.158
737 0 82.1048 12.9469 1063 98.2766 1322.05 491.508
738 0 84.0371 12.6968 1067 99.4724 1322.11 490.126
739 0 88.0731 13.625 1200 97.0133 1321.59 489.061
740 0 91.1324 13.1677 1200 97.6933 1321.96 487.731
741 0 93.0899 13.2023 1229 97.5386 1321.8 486.563
742 0 95.057 12.9922 1235 100.327 1322.24 483.258
743 0 98.1047 13.4041 1315 98.3011 1321.69 483.34
744 0 102.131 13.375 1366 98.6918 1321.81 482.113
745 0 103.051 12.4793 1286 101.076 1320.57 479.985
746 0 107.058 13.3105 1425 98.9214 1321.21 478.66
747 0 109.088 12.1369 1324 100.588 1321.39 477.275
748 0 113.072 12.5319 1417 100.131 1321.8 475.284
749 0 115.105 12.0151 1383 100.1 1321.27 474.328
750 0 120.06 12.2689 1473 100.572 1321.4 470.74
751 0 125.081 12.5358 1568 100.235 1321.56 470.056
752 0 127.173 11.6141 1477 104.651 1322 466.88
753 1 68.0934 12.2626 835 92.8659 1322.01 498.087
754 0 68.0934 12.2332 833 144.873 1322.03 498.079
755 0 73.0453 12.6497 924 93.7825 1321.74 494.376
756 0 76.0492 13.1888 1003 106.012 1321.67 494.603
757 0 79.0778 12.4687 986 109.552 1322.65 491.923
758 0 82.0607 12.7954 1050 107.283 1322.42 490.84
759 0 85.0799 13.3287 1134 106.031 1322.42 490.174
760 0 88.1368 13.7173 1209 104.727 1322.73 488.754
761 0 89.1248 12.9033 1150 104.606 1322.03 486.763
762 0 93.1336 13.0887 1219 102.613 1322.83 484.902
763 1 49.026 11.8305 580 103.49 1322.28 507.01
764 0 52.0392 11.376 592 102.287 1322.27 504.427
765 0 53.0497 12.7239 675 97.9718 1321.79 504.791
766 0 53.0744 12.2846 652 100.755 1322.17 503.373
767 0 54.0422 12.9158 698 110.481 1321.64 503.626
768 0 56.0328 12.7961 717 111.273 1321.52 503.294
769 0 58.0091 12.998 754 109.02 1321.49 502.02
770 0 59.0184 13.4026 791 108.24 1321.25 501.822
771 0 62.0228 13.5595 841 105.698 1322.04 500.95
772 0 61.045 12.9413 790 110.409 1322.44 500.018
773 0 64.0607 13.6589 875 106.643 1322.05 498.498
774 0 66.1033 13.5546 896 107.113 1322.7 498.41
775 0 68.0402 13.639 928 106.815 1322.71 496.996
776 0 72.0478 13.491 972 105.762 1322.79 495.659
777 0 73.0545 13.62 995 104.657 1322.67 494.485
778 0 74.0477 13.5993 1007 108.475 1322.74 493.752
779 0 78.074 13.9867 1092 105.097 1322.11 493.401
780 0 80.0812 13.6362 1092 106.986 1322.45 492.76
781 0 81.1092 13.6236 1105 106.54 1322.88 492.247
782 0 84.0632 14.4058 1211 103.827 1323.01 490.143
783 0 86.0444 13.6674 1176 105.775 1322.72 487.892
784 0 89.1135 13.6231 1214 104.643 1322.67 486.998
785 0 91.0644 13.4191 1222 104.956 1322.4 485.294
786 0 93.0917 13.2128 1230 105.903 1322.72 483.958
787 0 94.0761 12.8194 1206 101.146 1322.93 482.255
788 0 97.0875 13.2252 1284 97.7204 1322.6 480.836
789 0 99.1145 13.106 1299 100.352 1323.42 480.095
790 0 103.093 12.7361 1313 101.171 1323.68 479.254
791 0 104.059 13.2137 1375 100.783 1324.25 478.769
792 1 55.0237 11.1588 614 104.917 1323.35 501.961
793 0 57.018 11.3298 646 94.5093 1323.86 501.375
794 0 60.0393 11.6091 697 92.2927 1323.96 499.878
795 0 60.0959 11.0157 662 92.5906 1324.19 498.399
796 0 63.0548 12.3702 780 91.0064 1323.58 496.417
797 0 62.0858 12.6116 783 94.6999 1323.68 493.72
798 0 65.0501 11.7909 767 96.9335 1323.76 494.437
799 0 67.0509 12.498 838 96.6659 1323.53 494.7
800 0 69.0786 12.2469 846 98.6513 1323.75 493.162
801 0 72.1048 12.4957 901 99.2076 1323.71 491.491
802 0 75.0331 12.8477 964 99.0809 1324.06 492.442
803 0 77.0244 12.7103 979 100.043 1323.3 491.182
804 0 78.019 12.6636 988 101.363 1323.64 491.814
805 0 81.0737 12.5071 1014 102.32 1322.61 491.291
806 0 85.0886 13.8679 1180 100.338 1323.03 491.73
807 0 86.0657 13.2457 1140 104.368 1323 490.927
808 0 91.0481 13.6082 1239 105.619 1322.84 488.542
809 0 92.0333 13.4191 1235 105.892 1323.04 487.749
810 1 46.0275 10.8631 500 99.364 1322.91 511.232
811 0 48.0659 11.6299 559 98.9356 1322.8 509.957
812 0 51.0473 11.8713 606 98.3003 1323.41 509.188
813 0 53.0458 12.3667 656 98.4726 1322 506.136
814 0 54.112 13.0101 704 99.7003 1322.88 505.903
815 0 55.0996 12.7406 702 112.42 1323.02 506.718
816 0 56.1894 13.0274 732 112.194 1322.59 506.732
817 0 58.096 13.4777 783 111.625 1323 505.974
818 0 59.0368 13.4831 796 111.097 1322.5 505.128
819 0 62.0973 13.817 858 110.675 1322.15 504.389
820 0 62.0948 13.415 833 113.186 1322.02 502.351
821 0 65.0853 13.3671 870 112.259 1322.55 501.887
822 0 65.1106 13.5155 880 105.918 1321.93 503.012
823 0 66.074 13.8178 913 106.43 1322.74 500.318
824 0 69.0656 13.3931 925 103.918 1322.44 499.591
825 0 71.04 13.612 967 103.844 1322.1 499.559
826 0 73.0552 14.0031 1023 103.343 1322.15 500.022
827 0 73.0325 12.4465 909 103.44 1321.45 499.151
828 0 76.1013 13.2849 1011 101.084 1321.47 497.205
829 0 78.1154 13.0832 1022 99.7691 1321.4 496.465
830 0 79.1523 13.5435 1072 100.426 1322.09 496.382
831 0 82.0458 13.0659 1072 102.155 1321.17 493.745
832 0 83.0476 13.1009 1088 104.066 1321.82 492.675
833 0 83.0484 13.1128 1089 147.897 1321.83 492.656
834 0 89.0652 13.361 1190 102.312 1321.8 491.062
835 0 90.1046 13.2624 1195 103.146 1322.15 489.649
836 0 92.1026 12.7249 1172 104.407 1322.06 488.428
837 0 95.0885 13.5453 1288 102.823 1321.99 486.476
838 0 98.0845 13.4068 1315 103.151 1321.51 483.861
839 0 101.088 13.8493 1400 102.607 1321.82 482.376
840 0 105.062 14.1345 1485 107.007 1321.08 479.63
841 0 108.035 13.8843 1500 105.444 1321.2 476.885
842 0 112.105 13.8977 1558 104.24 1320.99 475.12
843 0 116.102 13.7293 1594 103.522 1320.9 470.656
844 0 120.083 13.8654 1665 99.9201 1320.95 468.515
845 0 122.15 13.1314 1604 101.903 1321.63 466.675
846 0 129.087 13.7969 1781 98.9248 1320.94 466.572
847 1 66.0723 11.4571 757 95.0766 1321.5 498.871
848 0 68.0316 12.2149 831 97.9988 1321.08 497.665
849 0 68.0986 12.526 853 103.515 1321.52 492.606
850 0 71.0282 12.4317 883 99.9943 1321.4 493.616
851 0 74.096 12.9157 957 97.953 1321.52 492.399
852 0 72.0417 11.6322 838 90.2959 1321.65 493.066
853 0 76.0244 11.3779 865 90.0023 1321.49 491.923
854 0 77.0922 12.0505 929 89.2702 1321.46 492.002
855 0 80.1316 10.8821 872 91.0619 1321.48 488.576
856 0 84.0352 12.233 1028 88.8619 1321.23 489.754
857 0 86.0361 12.088 1040 91.2577 1321.95 486.026
858 0 89.183 12.0875 1078 92.0278 1321.91 485.896
859 0 94.0646 12.9592 1219 92.2051 1321.07 483.726
860 0 96.0699 13.1987 1268 96.5568 1322.07 482.806
861 0 101.077 12.8022 1294 95.8818 1321.35 480.034
862 0 104.128 12.5998 1312 95.7957 1321.97 477.577
863 0 106.171 12.3669 1313 96.3374 1321.71 474.724
864 0 111.074 12.7843 1420 93.9556 1321.48 473.648
865 0 115.079 12.6 1450 97.2421 1321.42 470.918
866 0 119.125 12.659 1508 98.1916 1322.14 469.06
867 1 67.0333 11.3675 762 91.8018 1321.75 497.151
868 0 69.0348 11.5159 795 92.4516 1321.18 495.142
869 0 73.0449 12.5265 915 99.4612 1321.2 493.402
870 0 74.0255 12.239 906 95.5784 1320.52 493.263
871 0 77.0409 12.435 958 95.8361 1320.31 491.706
872 0 78.117 12.4813 975 95.959 1320.35 491.177
873 0 81.0762 12.4944 1013 97.1806 1321.35 490.256
874 0 84.034 12.5901 1058 99.3696 1321.9 488.097
875 0 86.036 12.4599 1072 99.3349 1321.97 489.393
876 0 89.0582 13.654 1216 96.5016 1321.25 487.408
877 0 91.175 12.6021 1149 101.158 1321.07 484.931
878 0 94.1074 13.0064 1224 98.6078 1322.08 484.234
879 0 98.0994 12.783 1254 97.9155 1321.51 484.957
880 0 101.169 13.2156 1337 97.3538 1321.47 480.84
881 1 51.1071 12.0531 616 94.0844 1321.02 504.294
882 0 51.1131 12.0713 617 150.802 1320.01 504.301
883 0 57.1796 11.6825 668 97.979 1320.53 500.452
884 0 60.2023 12.8234 772 98.9352 1321.36 499.852
885 0 61.0586 12.9875 793 103.75 1321.09 498.888
886 0 63.247 13.5975 860 105.524 1321.61 495.522
887 0 64.055 13.2074 846 94.5012 1321.82 498.933
888 0 65.0732 12.3092 801 98.3146 1321.39 497.308
889 0 68.0414 12.801 871 98.2721 1321.41 496.682
890 0 70.0447 13.3629 936 95.2126 1320.94 495.693
891 0 73.026 13.7211 1002 94.975 1320.95 494.127
892 0 75.0831 13.4518 1010 95.698 1320.52 491.995
893 0 76.0624 13.226 1006 99.0964 1320.26 492.018
894 0 79.0421 13.8281 1093 98.5965 1320.77 490.515
895 0 82.0625 14.3793 1180 98.9492 1321.54 488.971
896 0 83.0243 14.0802 1169 100.309 1322.09 487.5
897 0 87.0473 14.1188 1229 100.517 1322.18 485.046
898 0 90.1187 13.804 1244 102.555 1322.19 481.755
899 0 91.0464 14.4652 1317 102.119 1321.88 481.544
900 0 96.0558 14.6165 1404 101.967 1322.15 479.546
901 0 99.1704 14.8532 1473 101.967 1322.81 478.515
902 0 101.17 14.3224 1449 104.064 1323.4 478.186
903 0 103.082 14.4254 1487 104.531 1322.44 475.472
904 0 105.111 14.4228 1516 104.712 1323.01 473.336
905 0 108.121 14.1877 1534 105.313 1323.25 471.437
906 0 114.133 15.2104 1736 100.419 1322.6 470.822
907 1 64.0535 12.1149 776 96.1997 1322.95 496.244
908 0 66.0725 13.2128 873 95.5991 1323.59 494.606
909 0 68.0897 12.8948 878 95.5364 1323.01 493.205
910 0 71.0309 13.2759 943 95.4634 1322.77 492.6
911 0 75.0866 13.5044 1014 94.5513 1322.73 490.436
912 0 75.065 12.7623 958 96.9937 1322.39 490.166
913 0 80.1214 13.1675 1055 96.7156 1322.76 488.466
914 0 82.0259 13.069 1072 97.7276 1322.66 487.631
915 0 86.0344 13.5062 1162 95.4785 1322.39 486.746
916 0 88.0715 13.455 1185 94.8135 1322.75 486.479
917 0 90.0642 13.0351 1174 97.1192 1321.83 484.362
918 0 92.0614 13.1868 1214 96.6269 1322.54 483.212
919 0 94.0261 13.2942 1250 95.4624 1322.11 482.704
920 0 97.069 13.3925 1300 95.5362 1321.73 479.865
921 0 99.1218 13.2968 1318 95.1108 1321.87 478.799
922 0 103.114 13.1409 1355 94.448 1321.81 478.117
923 0 107.078 14.27 1528 91.5746 1321.72 476.396
924 0 109.075 13.642 1488 93.0564 1322.23 475.747
925 0 114.096 14.0408 1602 90.9469 1322.15 475.521
926 0 117.055 13.5749 1589 92.2788 1321.88 474.148
927 0 121.063 13.5137 1636 92.5746 1321.7 472.526
928 0 124.16 13.1202 1629 94.2124 1321.53 470.717
929 0 128.133 13.5172 1732 93.1461 1321.86 468.471
930 0 131.169 13.3873 1756 93.5165 1321.15 467.589
931 0 135.129 13.2836 1795 96.2095 1320.55 464.729
932 0 141.081 13.7297 1937 96.7672 1320.74 461.834
933 0 145.154 13.8542 2011 93.4764 1321.1 459.778
934 1 78.0532 12.1456 948 89.6361 1320.91 494.095
935 0 80.1139 12.969 1039 91.1963 1320.51 493.27
936 0 85.2113 13.5311 1153 92.3313 1319.71 489.645
937 0 86.1992 13.1324 1132 94.6599 1319.8 488.33
938 0 89.2489 13.4231 1198 94.9107 1319.39 487.402
939 0 94.1656 13.8586 1305 93.7709 1319.11 485.236
940 0 95.2726 12.8578 1225 97.2637 1319.42 482.879
941 0 99.2224 14.0896 1398 93.5 1318.68 481.732
942 0 102.349 12.9654 1327 96.2524 1319.34 480.592
943 0 106.362 13.0686 1390 95.6863 1319.22 479.5
944 0 109.436 13.6519 1494 94.6265 1319.22 477.268
945 0 112.351 13.2887 1493 95.8989 1319.63 475.567
946 0 118.403 13.6652 1618 94.7478 1319.07 472.116
947 0 121.302 13.454 1632 94.7451 1319.52 470.505
948 0 127.236 14.2648 1815 92.2253 1319.74 469.377
949 0 131.308 13.6549 1793 94.768 1319.46 464.005
950 1 70.1568 12.4436 873 90.7858 1319.47 495.761
951 0 71.1521 13.5063 961 97.7263 1320.02 497.137
952 0 75.311 12.8932 971 97.5015 1320.21 491.444
953 0 78.3167 13.5603 1062 96.3748 1320.76 490.414
954 0 80.468 12.9368 1041 97.1681 1320.1 489.426
955 0 84.3161 13.7577 1160 96.2 1320.32 488.712
956 0 88.4201 13.5603 1199 87.4028 1320.51 487.194
957 0 90.4177 13.3049 1203 89.7914 1320.86 484.058
958 0 93.3791 13.6433 1274 91.0236 1320.77 483.25
959 0 96.3984 13.9836 1348 90.2485 1320.83 482.819
960 0 99.4039 13.7721 1369 91.1505 1320.68 480.266
961 0 103.345 14.263 1474 91.7137 1320.61 477.394
962 0 105.451 14.2815 1506 91.7822 1321.46 474.335
963 0 108.378 14.3571 1556 92.0643 1321.6 472.047
964 0 111.367 13.7384 1530 93.3523 1321.48 471.483
965 0 115.348 14.3999 1661 91.2721 1321.35 468.915
966 0 119.402 13.4168 1602 93.7241 1321.5 467.612
967 0 123.345 14.3581 1771 91.1999 1321.1 467.292
968 0 129.286 13.969 1806 91.4801 1321.45 465.028
969 1 72.135 12.3241 889 89.7919 1320.6 491.166
970 0 73.1365 13.2219 967 89.9514 1320.52 488.304
971 0 73.1075 12.8988 943 93.3171 1321.08 487.026
972 0 74.0857 13.012 964 92.6784 1321.4 486.32
973 0 78.0878 13.2287 1033 89.8335 1321.64 485.483
974 0 79.1108 13.1082 1037 91.0665 1321.6 484.211
975 0 82.1843 12.5571 1032 90.7994 1321.91 484.341
976 0 85.2444 13.08 1115 89.4592 1322.02 480.215
977 0 86.1476 12.2116 1052 91.2091 1321.98 477.38
978 0 89.1158 13.4432 1198 89.0367 1321.75 473.639
979 0 91.1594 12.8785 1174 97.2828 1322.64 474.749
980 0 96.1662 12.6864 1220 98.4508 1322.04 473.445
981 0 96.1662 12.6552 1217 164.655 1321.02 473.263
982 0 100.141 12.6123 1263 90.5709 1322.23 470.093
983 0 107.118 12.8924 1381 99.0739 1322.57 468.508
984 0 107.182 12.3715 1326 90.6991 1322.59 466.333
985 0 108.13 12.7994 1384 90.466 1322.17 464.967
986 0 113.089 12.6095 1426 90.2097 1321.76 464.726
987 0 117.073 12.8979 1510 88.955 1322.69 461.997
988 1 65.0389 11.1472 725 89.9034 1322.48 486.513
989 0 66.0479 11.7642 777 90.0386 1321.57 484.831
990 0 67.0414 11.3363 760 90.475 1322.05 483.882
991 0 69.0516 11.9041 822 89.5401 1322.07 482.568
992 0 72.1046 12.6483 912 87.3662 1322.1 481.992
993 0 74.131 12.9096 957 86.3009 1321.64 482.761
994 0 75.1445 12.5891 946 88.5835 1322.18 481.971
995 0 76.0898 11.9596 910 91.5121 1321.94 479.381
996 0 77.0842 11.935 920 92.1544 1322.01 478.239
997 0 81.0323 12.5259 1015 90.1635 1321.72 478.352
998 0 83.0387 12.0305 999 92.6787 1322.42 475.771
999 0 86.1289 12.2259 1053 90.924 1322.44 475.764
1000 0 86.1048 12.0319 1036 92.8378 1322.83 471.628
1001 0 89.0567 11.5657 1030 92.7932 1322.52 470.688
1002 0 93.0808 12.4408 1158 89.6338 1321.91 469.459
1003 0 97.1653 13.0808 1271 87.5586 1322.27 467.083
1004 0 98.0955 12.4165 1218 89.6453 1322.11 462.556
1005 0 101.125 12.4598 1260 88.5881 1322.94 460.898
1006 0 104.065 12.3769 1288 87.4317 1323.39 459.65
1007 0 104.108 12.8136 1334 87.6777 1323.33 456.974
1008 0 110.203 12.9217 1424 85.9024 1323.6 455.042
1009 0 111.17 12.6383 1405 86.5765 1323.35 453.369
1010 0 113.12 12.0138 1359 88.4996 1323.19 454.609
1011 0 117.158 11.7875 1381 89.2882 1323.23 451.889
1012 0 117.117 11.988 1404 88.7073 1323.68 451.915
1013 0 125.175 12.1989 1527 87.6503 1322.95 445.91
1014 0 129.15 12.2571 1583 87.7941 1322.77 445.497
1015 0 137.196 12.0338 1651 86.9715 1322.94 444.222
1016 0 140.152 11.7088 1641 87.6216 1323.09 442.266
1017 0 148.268 11.5737 1716 89.088 1322.42 440.579
1018 0 157.353 11.9477 1880 87.4484 1323.12 441.349
1019 1 97.1199 10.554 1025 80.9122 1322.98 481.279
1020 0 100.107 11.7175 1173 77.9224 1322.99 478.176
1021 0 102.118 11.0558 1129 78.1196 1323.38 479.657
1022 0 106.158 11.935 1267 81.6046 1323.53 476.355
1023 0 110.143 11.9481 1316 89.2644 1323.39 473.09
1024 0 111.232 10.4826 1166 91.4906 1324.05 469.739
1025 0 117.172 12.0678 1414 87.3465 1323.16 469.373
1026 0 119.214 11.5591 1378 88.516 1323.22 466.922
1027 0 123.219 11.8813 1464 85.0225 1322.34 463.331
1028 0 128.148 10.9873 1408 83.7912 1322.33 462.822
1029 0 132.195 11.2485 1487 82.3746 1321.86 459.918
1030 0 137.23 11.018 1512 81.332 1321.92 458.636
1031 1 74.0954 10.284 762 72.4869 1321.9 491.892
1032 0 75.084 10.3484 777 71.52 1321.57 491.834
1033 0 78.045 10.7246 837 73.6571 1321.75 489.818
1034 0 79.1274 10.7674 852 75.1584 1322.04 488.332
1035 0 78.0646 9.99173 780 73.8513 1321.49 490.194
1036 0 82.031 9.45984 776 75.4407 1322.34 489.26
1037 0 85.0388 9.64265 820 75.4878 1322.47 487.317
1038 0 87.0644 9.48723 826 76.1465 1322.28 487.23
1039 0 90.119 10.1754 917 75.9815 1322.22 483.602
1040 0 93.047 10.2959 958 77.2839 1321.93 483.213
1041 0 96.0697 11.0232 1059 76.8093 1322.44 481.229
1042 0 96.0868 10.5426 1013 78.3662 1322.71 479.644
1043 0 101.053 10.2422 1035 78.1498 1322.7 479.817
1044 0 104.062 10.1863 1060 78.5358 1322.22 477.677
1045 0 105.047 9.85272 1035 78.0956 1321.94 477.825
1046 0 107.122 9.81127 1051 79.02 1322.06 471.902
1047 0 112.135 10.4963 1177 79.7867 1322.43 472.256
1048 0 116.101 10.6632 1238 79.2738 1322.23 471.558
1049 0 118.067 9.935 1173 81.2685 1322.53 471.196
1050 0 123.081 11.009 1355 80.0716 1322.1 470.216
1051 0 127.073 11.0094 1399 81.7698 1322.07 467.204
1052 0 129.104 10.3483 1336 82.7201 1322.42 465.266
1053 0 134.067 10.8453 1454 84.6706 1322.79 463.134
1054 0 138.098 11.1442 1539 88.4652 1322.22 462.005
1055 0 140.142 10.789 1512 92.0324 1322.35 460.019
1056 0 146.233 11.2287 1642 91.6218 1322.91 458.085
1057 0 150.19 10.793 1621 93.2227 1323.14 454.483
1058 1 88.1372 10.2454 903 85.1872 1322.56 486.543
1059 0 88.1658 9.95851 878 84.1629 1322.42 486.749
1060 0 90.1275 10.1412 914 84.837 1322.61 482.849
1061 0 89.1248 10.1543 905 123.749 1323.61 482.885
1062 0 95.0939 10.926 1039 82.6718 1322.13 481.71
1063 0 96.1004 10.5619 1015 85.3616 1321.85 479.383
1064 0 101.168 10.7149 1084 88.8561 1321.49 477.135
1065 0 103.153 10.7995 1114 89.1203 1321.72 476.085
1066 0 106.173 11.34 1204 88.863 1321.98 476.198
1067 0 108.119 11.3486 1227 89.8761 1322.18 476.306
1068 0 112.102 12.0783 1354 89.387 1322.32 475.573
1069 0 113.086 11.7167 1325 92.0234 1322.41 471.939
1070 0 116.24 12.1645 1414 91.5827 1321.49 470.649
1071 0 118.192 11.8536 1401 93.9036 1321.86 468.829
1072 0 121.105 12.0226 1456 93.9966 1322.57 469.195
1073 0 126.091 12.4038 1564 93.4425 1322.07 466.581
1074 0 130.1 12.0369 1566 94.2037 1322.24 465.151
1075 0 134.083 12.6937 1702 96.5094 1322.09 462.66
1076 1 72.0214 10.9134 786 85.1018 1322.1 496.017
1077 0 73.1685 10.879 796 87.0616 1323.29 493.987
1078 0 77.1216 12.1885 940 86.217 1323.29 492.19
1079 0 78.1528 11.4647 896 87.2746 1323.19 491.548
1080 0 81.0605 12.0157 974 87.9815 1322.91 490.984
1081 0 80.0783 11.5887 928 90.2791 1322.98 488.892
1082 0 85.0638 12.6141 1073 87.5937 1322.05 488.484
1083 0 87.0424 11.7184 1020 90.9176 1322.05 487.566
1084 0 89.0617 12.0703 1075 91.4009 1321.69 485.194
1085 0 91.1304 12.2462 1116 100.34 1322.67 484.142
1086 0 94.0788 12.2451 1152 98.2474 1321.39 482.414
1087 0 98.0872 13.1923 1294 95.4444 1322.75 482.294
1088 0 101.083 12.8508 1299 95.1062 1322.98 481.115
1089 0 103.053 12.4985 1288 110.082 1322.62 479.602
1090 0 103.098 13.1332 1354 107.521 1322.81 477.495
1091 0 108.07 13.0749 1413 106.795 1321.95 475.43
1092 0 109.107 12.4189 1355 108.976 1321.23 472.183
1093 0 113.094 12.6444 1430 107.669 1321.22 472.558
1094 0 114.092 12.5688 1434 106.172 1321.3 472.095
1095 0 118.114 12.7927 1511 105.432 1320.99 470.337
1096 0 120.103 12.7058 1526 103.195 1321.48 467.51
1097 0 124.115 12.6656 1572 102.545 1321.61 466.753
1098 0 129.119 13.7315 1773 99.449 1321.69 464.575
1099 0 132.105 13.1032 1731 100.891 1323.43 465.315
1100 0 136.232 13.1393 1790 100.376 1322.66 463.715
1101 0 141.099 13.0901 1847 100.973 1321.79 462.097
1102 1 80.1584 10.9408 877 97.1357 1322.94 491.658
1103 0 81.0825 11.4451 928 97.9084 1321.76 491.017
1104 0 82.0386 11.6287 954 100.385 1323.2 488.795
1105 0 85.1324 12.0753 1028 99.8667 1323.45 487.84
1106 0 88.0582 12.2533 1079 100.143 1322.34 486.783
1107 0 92.115 12.2998 1133 97.0909 1321.28 485.52
1108 0 94.1331 12.3549 1163 97.3009 1321.16 485.087
1109 0 95.1166 11.9432 1136 98.2852 1321.33 483.246
1110 0 99.1454 12.7489 1264 96.2468 1321.09 482.654
1111 0 101.162 12.1982 1234 97.8501 1321.36 480.754
1112 0 103.135 12.5855 1298 97.1402 1320.62 478.198
1113 0 104.097 12.1809 1268 93.7003 1321.56 480.218
1114 0 106.084 11.6135 1232 94.8287 1323.11 479.102
1115 0 107.038 11.3512 1215 96.8634 1322.86 476.393
1116 0 111.064 10.8046 1200 97.5042 1322.55 472.079
1117 0 112.06 10.7888 1209 96.1141 1322.79 468.792
1118 0 115.119 11.2839 1299 94.2794 1322.83 467.25
1119 0 116.151 10.7361 1247 93.6383 1321.79 464.222
1120 0 119.134 10.3329 1231 89.2933 1322.18 460.727
1121 0 120.086 9.49323 1140 86.2868 1321.81 459.402
1122 0 128.096 8.6576 1109 81.587 1321.96 455.614
1123 1 74.0795 10.9342 810 76.5012 1321.41 495.067
1124 0 74.1018 10.0807 747 82.253 1322.09 498.43
1125 0 77.1652 10.8987 841 81.5386 1321.81 495.389
1126 0 79.1922 10.4051 824 82.699 1322.13 495.979
1127 0 80.1573 10.3297 828 83.6848 1321.72 492.791
1128 0 82.2106 10.0474 826 84.4346 1322.87 493.771
1129 0 84.1794 9.56291 805 85.0199 1322.97 494.042
1130 0 88.2322 10.529 929 81.6835 1322.83 490.217
1131 0 89.1132 10.1107 901 84.354 1322.46 486.491
1132 0 92.2009 10.4446 963 83.0903 1322.23 485.469
1133 0 96.158 9.94198 956 84.4686 1321.94 484.139
1134 0 98.1084 10.1826 999 84.3073 1322.14 482.469
1135 1 54.037 10.4188 563 84.0835 1322.01 504.3
1136 0 55.1015 9.56417 527 82.5199 1321.25 503.594
1137 0 57.0233 10.1888 581 79.7298 1321.87 503.699
1138 0 59.0584 11.2939 667 78.4258 1321.32 502.462
1139 0 61.0373 12.1074 739 78.3816 1322.59 501.341
1140 0 62.0521 10.8618 674 81.8101 1322.63 501.212
1141 0 62.0687 11.2295 697 79.7805 1322.37 501.419
1142 0 65.0275 10.6878 695 79.9525 1321.87 500.088
1143 0 68.0833 11.5447 786 78.8651 1322.02 500.739
1144 0 70.0326 11.923 835 79.4311 1321.66 499.644
1145 0 71.0407 11.7257 833 80.8391 1321.59 498.186
1146 0 73.0428 11.993 876 81.8105 1322 497.078
1147 0 73.0381 11.1996 818 83.8264 1321.92 495.66
1148 0 78.0777 11.2324 877 83.2497 1321.37 492.789
1149 0 82.1676 11.7565 966 96.5632 1320.83 490.887
1150 0 84.204 12.0897 1018 84.943 1321.61 490.779
1151 0 87.1653 12.5279 1092 84.0073 1321.29 489.928
1152 0 89.1134 12.6019 1123 83.4292 1321.36 489.438
1153 0 91.0852 11.7363 1069 80.0748 1321.2 486.804
1154 0 93.1278 11.8332 1102 81.372 1321.22 486.163
1155 0 95.0723 12.2012 1160 81.4862 1320.8 483.77
1156 0 99.1288 12.4384 1233 81.4282 1321.38 484.787
1157 1 53.0332 10.6537 565 74.7611 1321.26 508.471
1158 0 53.0704 11.0043 584 74.4486 1321.46 507.779
1159 0 53.0255 10.0141 531 73.9623 1321.5 506.013
1160 0 55.0432 11.2275 618 72.3252 1321.86 503.319
1161 0 58.0467 10.9739 637 73.5934 1321.53 502.664
1162 0 57.0233 10.5571 602 74.9635 1320.97 500.552
1163 0 59.0192 11.3692 671 74.5559 1321.68 498.379
1164 0 64.0214 11.4649 734 73.8038 1321.21 498.758
1165 0 63.1176 10.7735 680 76.8412 1321.65 497.375
1166 0 68.0765 11.6193 791 76.9507 1321.51 498.11
1167 0 67.1152 11.6516 782 82.1675 1320.86 499.499
1168 0 71.0991 12.2083 868 81.9332 1320.25 499.24
1169 0 73.0967 12.545 917 82.675 1320.92 498.131
1170 0 75.0603 12.1236 910 84.3659 1321.19 496.121
1171 0 78.0418 12.173 950 84.7347 1321.64 496.24
1172 0 80.0903 12.6357 1012 84.9466 1321.09 495.389
1173 0 83.1141 12.3324 1025 85.6732 1320.95 494.663
1174 0 87.0593 12.6006 1097 85.9216 1320.95 492.13
1175 1 48.0096 11.4769 551 87.245 1322.22 509.868
1176 0 51.0389 12.3435 630 89.5 1320.78 507.206
1177 0 50.0438 12.1094 606 77.1964 1320.71 504.497
1178 0 51.0197 12.9754 662 85.4532 1320 506.579
1179 0 54.0583 12.4865 675 83.48 1320.13 506.12
1180 0 55.0178 13.8501 762 81.7598 1320.21 505.65
1181 0 55.0764 12.5825 693 83.14 1320.36 506.577
1182 0 57.0401 12.5 713 81.7882 1320.62 508.109
1183 0 58.0503 12.248 711 86.1421 1320.3 507.404
1184 0 58.0347 11.338 658 80.3161 1321 503.932
1185 0 61.0291 11.4372 698 81.2006 1320.43 502.503
1186 0 63.03 11.7404 740 82.2811 1320.86 501.904
1187 0 65.0764 11.3712 740 82.8541 1321.07 500.065
1188 0 67.1097 12.0847 811 83.1739 1320.87 499.778
1189 0 70.0746 12.558 880 82.9807 1320.64 497.96
1190 0 71.0352 12.0363 855 87.2912 1321.09 497.427
1191 0 71.0286 11.9811 851 88.1304 1320.55 497.219
1192 0 76.0483 12.5578 955 87.2618 1320.78 496.461
1193 0 77.0562 12.5882 970 89.0227 1320.67 495.095
1194 0 79.0691 12.1539 961 90.0572 1321.33 492.98
1195 0 81.0603 12.3858 1004 90.9811 1321.18 492.172
1196 0 84.0426 13.0172 1094 89.2834 1321.01 490.502
1197 0 88.0391 13.2328 1165 88.8378 1321.01 487.299
1198 1 47.0118 10.4016 489 88.8773 1320.2 509.511
1199 0 49.0914 11.8962 584 90.4692 1320.58 505.568
1200 0 50.087 11.8793 595 90.1462 1320.35 503.524
1201 0 51.0881 12.5665 642 83.0483 1321.07 508.227
1202 0 53.031 12.4833 662 82.719 1320.9 508.193
1203 0 54.0451 12.6561 684 82.8216 1320.31 506.904
1204 0 57.0302 11.6254 663 84.1176 1320.71 506.599
1205 0 58.0441 12.7317 739 84.6319 1320.93 505.876
1206 0 58.0654 11.9693 695 87.4417 1320.94 504.094
1207 0 62.0739 12.3401 766 93.0274 1321.67 502.29
1208 0 65.087 12.5985 820 91.2378 1320.89 502.043
1209 0 66.2125 12.3239 816 94.8333 1321.44 501.532
1210 0 67.0845 12.611 846 95.4031 1320.37 499.845
1211 0 69.1558 11.9296 825 95.6897 1320.57 499.362
1212 0 73.3027 12.9327 948 92.6361 1320.03 494.22
1213 0 75.2341 12.3083 926 93.8736 1320.48 493.206
1214 0 76.2433 12.106 923 95.4767 1319.9 491.547
1215 0 78.2887 12.2495 959 94.9468 1320.53 492.676
1216 0 81.3165 12.6174 1026 94.2944 1320.18 490.778
1217 0 85.2405 12.0365 1026 97.2602 1320.84 489.081
1218 0 87.2581 12.5948 1099 95.6515 1320.27 487.675
1219 0 90.0993 12.464 1123 96.0721 1320.4 488.286
1220 0 92.214 12.9265 1192 96.5025 1320.87 484.861
1221 0 93.3134 12.7849 1193 98.0469 1320.31 483.06
1222 0 98.3512 12.8417 1263 96.4806 1319.89 482.285
1223 0 101.236 12.703 1286 96.43 1320.51 480.997
1224 1 50.1172 10.4156 522 93.4176 1321.12 505.837
1225 0 54.4381 11.6095 632 91.6788 1320.82 505.777
1226 0 54.1946 11.8277 641 92.0764 1320.86 503.924
1227 0 57.3504 12.8334 736 89.2772 1320.35 501.842
1228 0 58.2188 12.5046 728 89.2335 1321 501.652
1229 0 60.1208 12.741 766 89.5992 1321.12 499.326
1230 0 61.3161 12.7699 783 90.5811 1320.34 497.807
1231 0 64.1077 12.947 830 90.7386 1320.57 498.571
1232 0 66.0883 13.0129 860 91.657 1320.18 497.265
1233 0 68.2009 12.8444 876 93.5982 1320.6 495.7
1234 0 72.1917 13.4642 972 91.0679 1320.14 493.396
1235 0 75.5118 12.8854 973 92.149 1320.37 493.725
1236 0 76.1963 13.2684 1011 93.0356 1320.53 491.662
1237 0 78.1647 13.1901 1031 94.2628 1321.28 490.795
1238 0 80.1346 13.6396 1093 94.0814 1320.7 488.41
1239 0 83.2371 12.7227 1059 96.5382 1321.11 487.703
1240 0 87.2028 13.8069 1204 95.5623 1320.91 486.128
1241 0 89.1618 13.4587 1200 96.4808 1321.49 485.468
1242 0 89.2172 12.9684 1157 100.213 1320.92 482.083
1243 0 94.277 14.0013 1320 96.4833 1321.29 481.819
1244 0 94.2511 13.5595 1278 99.0728 1320.71 479.918
1245 0 98.1776 13.5774 1333 99.1605 1321.18 477.451
1246 0 104.155 13.5759 1414 98.6294 1321.56 477.025
1247 0 107.151 13.579 1455 100.584 1321.54 475.255
1248 0 107.148 13.7007 1468 102.6 1321.37 474.2
1249 0 111.201 13.9927 1556 101.904 1321.06 471.139
1250 0 115.179 13.5529 1561 104.514 1321.12 468.663
1251 0 118.255 13.8768 1641 103.829 1320.93 467.299
1252 0 122.231 14.7017 1797 98.3088 1321.79 465.179
1253 0 126.212 14.1745 1789 104.167 1322.06 465.08
1254 0 131.161 13.8074 1811 105.125 1322.89 461.56
1255 0 135.158 14.3979 1946 103.332 1323.14 460.479
1256 0 141.115 14.3996 2032 103.882 1321.99 458.836
1257 1 75.0584 11.7508 882 102.356 1322.54 493.569
1258 0 78.0507 12.2741 958 102.913 1322.24 491.336
1259 0 82.0815 12.7313 1045 100.479 1321.29 491.356
1260 0 86.1195 13.6206 1173 98.7067 1321.71 489.116
1261 0 88.1199 13.527 1192 99.0151 1321.2 488.869
1262 0 92.1163 13.9932 1289 98.0675 1321.88 486.147
1263 0 93.1355 14.0763 1311 98.8322 1321.67 485.004
1264 0 97.0707 13.7941 1339 99.2166 1322.37 483.585
1265 0 100.057 14.3319 1434 97.8612 1321.98 481.116
1266 0 101.06 13.6751 1382 100.847 1322.35 480.041
1267 0 104.061 13.8284 1439 100.288 1322.15 479.196
1268 0 108.1 14.4959 1567 97.693 1322.07 478.492
1269 0 112.072 14.0981 1580 99.5487 1322.24 476.026
1270 0 116.074 14.6889 1705 98.4264 1321.73 473.92
1271 0 120.05 13.611 1634 101.802 1321.42 470.227
1272 0 124.141 14.3708 1784 101.094 1321.3 468.116
1273 0 129.076 14.6503 1891 101.976 1322.11 465.931
1274 1 69.0358 12.2255 844 102.244 1321.6 494.154
1275 0 73.12 12.5 914 102.56 1321.79 492.582
1276 0 76.0248 13.5614 1031 100.726 1321.62 491.706
1277 0 80.0513 13.7537 1101 101.311 1321.57 490.658
1278 0 79.0599 13.319 1053 104.849 1321.68 488.686
1279 0 85.0826 13.4105 1141 102.875 1321.34 487.927
1280 0 87.0433 13.2233 1151 103.83 1321.34 485.958
1281 0 91.0874 13.2071 1203 104.267 1320.84 484.219
1282 0 93.0782 13.7734 1282 104.917 1320.68 483.02
1283 0 96.1072 14.1717 1362 105.421 1320.86 481.711
1284 0 97.0796 14.1739 1376 107.788 1321.71 480.69
1285 0 102.075 14.0289 1432 109.503 1321.24 479.358
1286 0 104.093 14.0451 1462 108.954 1321.42 477.046
1287 0 108.114 14.087 1523 108.868 1321.88 476.321
1288 0 111.07 14.3602 1595 108.397 1321.81 473.977
1289 0 115.136 13.9661 1608 109.424 1322.35 469.754
1290 0 119.103 13.9627 1663 107.862 1321.81 469.888
1291 0 121.142 13.9093 1685 108.495 1322.39 467.773
1292 0 124.086 13.7163 1702 108.71 1322.02 464.551
1293 0 130.134 13.7089 1784 109.072 1322.14 463.248
1294 0 134.093 13.9455 1870 108.432 1321.56 460.624
1295 0 139.126 13.671 1902 109.266 1321.07 455.948
1296 0 142.173 13.4133 1907 110.547 1321.13 455.162
1297 0 149.132 14.2961 2132 107.485 1321.18 453.169
1298 0 153.1 13.8407 2119 109.237 1321.14 449.214
1299 0 157.104 13.9144 2186 109.348 1321.14 446.219
1300 0 161.09 13.2907 2141 110.428 1320.9 441.982
1301 0 165.127 13.4805 2226 109.417 1321.62 440.368
1302 0 171.146 13.5206 2314 108.763 1321.77 436.187
1303 0 173.079 13.231 2290 109.8 1322.16 431.455
1304 0 176.149 13.2104 2327 109.98 1322.14 426.526
1305 0 173.138 12.955 2243 111.947 1321.91 420.166
1306 0 186.195 13.459 2506 108.993 1321.79 419.997
1307 0 188.258 13.3434 2512 109.587 1321.69 415.501
1308 0 193.12 13.6599 2638 109.114 1321.76 415.411
1309 1 208.125 13.9675 2907 107.246 1322.26 419.166
1310 0 217.188 13.7991 2997 108.019 1322.1 414.508
1311 0 224.265 13.7739 3089 109.316 1322.02 412.084
1312 0 229.22 13.3104 3051 112.217 1321.85 407.702
1313 1 53.1424 9.38986 499 81.2926 1323.05 503.052
1314 0 56.0851 9.48558 532 81.4323 1323.08 503.1
1315 0 59.1585 9.483 561 86.943 1323.05 501.472
1316 0 58.0686 9.14435 531 90.5932 1323.1 499.262
1317 0 62.1402 9.47856 589 88.8879 1323.13 501.024
1318 0 63.2356 10.026 634 91.1356 1321.44 497.244
1319 0 66.2115 10.2852 681 90.6314 1321.42 498.424
1320 0 67.2232 9.89242 665 92.185 1321.02 496.062
1321 0 68.2448 10.7994 737 91.791 1321.78 495.919
1322 0 70.2928 10.0295 705 93.8652 1321.56 494.386
1323 0 71.1998 10.6321 757 93.5469 1321.6 493.868
1324 0 71.2021 10.0418 715 96.1804 1322.66 492.964
1325 0 74.2284 10.5351 782 94.9041 1322.45 492.146
1326 0 75.1499 10.4059 782 95.9591 1322.95 491.217
1327 0 80.2122 10.8712 872 91.2282 1323.67 489.758
1328 0 82.1112 10.839 890 93.8011 1323.59 489.415
1329 0 85.1687 10.8608 925 93.4746 1322.12 487.594
1330 0 86.1728 11.0592 953 93.8101 1321.86 486.268
1331 0 87.1781 11.0922 967 92.7094 1321.54 483.872
1332 0 92.2224 11.1144 1025 90.4741 1321.85 485.349
1333 0 88.2662 10.1511 896 84.4129 1322.27 487.251
1334 0 92.1814 10.0888 930 84.8075 1322.39 487.046
1335 0 95.2036 10.5038 1000 83.535 1322.19 486.283
1336 0 96.1964 9.97958 960 87.3323 1322.46 484.779
1337 0 99.1381 10.9847 1089 86.2599 1321.94 483.762
1338 0 102.189 10.3534 1058 86.5463 1322.05 483.485
1339 1 64.2355 9.60529 617 87.1605 1322.38 500.092
1340 0 66.154 9.87091 653 87.0827 1323.04 502.15
1341 0 66.1632 10.323 683 86.53 1322.75 499.581
1342 0 69.0417 9.45805 653 87.8101 1322.2 497.579
1343 0 71.0967 10.2958 732 86.474 1322.29 496.761
1344 0 72.1813 9.6978 700 88.3729 1321.56 496.651
1345 0 72.113 10.1091 729 87.4307 1321.79 497.872
1346 0 75.1133 11.2763 847 86.0165 1321.45 496.341
1347 0 76.1837 12.3255 939 85.1566 1321.62 496.088
1348 0 77.1134 11.9564 922 86.6171 1321.76 495.74
1349 0 80.2719 12.794 1027 84.63 1321.5 494.497
1350 0 80.1667 12.4241 996 87.3374 1320.98 493.516
1351 0 82.256 12.8866 1060 86.1198 1320.82 493.321
1352 0 85.3213 12.9159 1102 86.3575 1321.4 491.401
1353 0 86.3204 12.8011 1105 87.895 1320.91 489.013
1354 0 88.534 13.1701 1166 88.0883 1321.46 487.686
1355 0 88.0458 10.1311 892 83.0437 1320.83 485.684
1356 0 90.1059 10.3989 937 81.842 1320.73 487.469
1357 0 93.0596 11.3798 1059 81.4721 1320.29 485.807
1358 0 93.153 10.2734 957 85.3804 1320.79 480.796
1359 0 98.1 11.0601 1085 83.2562 1320.61 480.384
1360 0 99.141 11.3777 1128 83.4796 1320.09 482.42
1361 0 103.116 11.5113 1187 84.6276 1321.22 481.478
1362 0 105.091 11.8279 1243 83.2357 1321.19 481.549
1363 0 109.198 12.1431 1326 83.6094 1321.34 472.403
1364 0 111.222 11.7693 1309 84.6112 1321.39 472.084
1365 0 114.199 11.7514 1342 83.7392 1321.67 473.4
1366 0 115.262 11.3394 1307 86.2341 1321.61 471.1
1367 0 120.103 12.6974 1525 83.0957 1321.5 471.221
1368 0 120.131 11.321 1360 86.7934 1321.16 470.693
1369 1 68.0749 9.95962 678 77.6003 1321.34 501.655
1370 0 71.1528 10.5126 748 78.7647 1321.8 497.464
1371 0 71.2195 10.8257 771 83.4189 1321.28 497.987
1372 0 72.0639 10.8237 780 81.0282 1320 492.922
1373 0 74.1051 11.3083 838 80.2876 1320.35 495.542
1374 0 78.1006 11.4724 896 80.8103 1320.04 495.176
1375 0 79.0971 11.7577 930 81.5753 1319.53 493.982
1376 0 80.1327 11.119 891 82.3973 1319.09 494.258
1377 0 85.0935 12.3981 1055 78.2389 1320.35 493.121
1378 0 84.0819 11.584 974 82.2628 1320.01 492.269
1379 0 84.0822 12.357 1039 79.2387 1320.41 493.164
1380 0 84.0631 11.7055 984 85.7063 1320.24 492.52
1381 0 85.0843 12.2114 1039 87.2685 1320.57 493.047
1382 0 86.0411 12.0872 1040 88.1981 1320.09 491.519
1383 0 89.0943 12.9526 1154 85.3293 1319.97 491.793
1384 0 92.0807 11.9352 1099 86.707 1320.08 489.391
1385 0 92.0872 11.8583 1092 148.456 1320.1 489.375
1386 0 96.1041 12.4344 1195 82.3356 1319.1 488.531
1387 0 99.0821 12.2525 1214 81.425 1319.36 486.87
1388 0 103.103 12.7251 1312 78.8552 1319.37 485.46
1389 0 105.173 12.0944 1272 79.5071 1319.32 481.687
1390 0 108.174 12.6555 1369 76.9386 1319.53 481.95
1391 0 111.075 11.9829 1331 78.9452 1319.1 479.202
1392 0 116.108 12.3334 1432 78.0133 1319.62 479.939
1393 0 119.197 12.3913 1477 78.6303 1318.56 474.764
1394 1 64.1519 9.4775 608 71.8734 1318.96 504.839
1395 0 65.0986 9.96949 649 73.3097 1318.57 502.812
1396 0 69.1235 11.4144 789 72.6223 1318.83 499.546
1397 0 69.0289 11.6473 804 74.3072 1319.3 501.634
1398 0 72.0352 11.4527 825 76.0909 1318.96 500.296
1399 0 74.0676 11.4355 847 77.902 1319.36 498.776
1400 0 76.0855 11.7499 894 78.3579 1319.42 497.207
1401 0 77.0878 11.9085 918 80.8192 1319.69 496.289
1402 0 80.0964 11.9107 954 82.5115 1319.7 496.15
1403 0 82.1078 11.4727 942 91.8588 1319.64 495.232
1404 0 83.0484 11.4271 949 91.7766 1319.02 493.804
1405 0 84.039 11.2448 945 94.0011 1319.26 491.782
1406 0 87.0885 11.9763 1043 93.4851 1319.7 491.95
1407 1 46.0728 9.89737 456 88.7675 1318.98 513.086
1408 0 48.0519 10.2389 492 88.9065 1320.13 510.957
1409 0 48.0695 10.6096 510 89.7549 1319.68 512.496
1410 0 51.078 11.1398 569 89.6098 1319.54 510.622
1411 0 52.1723 11.117 580 90.5862 1320.08 509.612
1412 0 54.1663 11.9078 645 89.6744 1319.39 507.558
1413 0 56.1378 12.024 675 88.8533 1319.92 507.049
1414 0 58.1672 11.9827 697 88.2166 1319.94 508.545
1415 0 59.0774 11.7981 697 88.9971 1319.8 507.346
1416 0 59.1006 11.6242 687 90.6754 1319.4 504.888
1417 0 63.1263 12.578 794 87.0504 1319.5 506.232
1418 0 62.1117 12.0106 746 90.5992 1319.46 504.075
1419 0 65.0614 11.8965 774 104.811 1320.07 502.875
1420 0 66.0904 12.1954 806 104.774 1320.23 502.514
1421 0 70.119 12.8781 903 101.075 1320.32 502.486
1422 0 72.0783 12.4587 898 102.077 1320.07 500.469
1423 0 75.1124 12.5945 946 100.526 1319.76 498.996
1424 0 75.0472 12.672 951 101.342 1320.71 497.506
1425 0 77.0332 13.1632 1014 99.2377 1320.55 497.369
1426 0 81.0706 13.112 1063 98.5287 1320.55 495.635
1427 0 82.0992 12.8868 1058 99.6673 1320.72 494.446
1428 0 83.1129 12.7176 1057 100.469 1320.75 492.311
1429 0 87.1399 12.5775 1096 98.9078 1320.14 492.426
1430 0 88.0888 13.0664 1151 98.5534 1320.63 490.157
1431 0 90.1466 12.9456 1167 98.8218 1320.3 489.399
1432 0 94.0905 13.3382 1255 97.2956 1320.75 488.206
1433 0 95.1313 13.0031 1237 98.8019 1320.71 485.957
1434 0 99.1659 13.1699 1306 96.7856 1320.71 483.47
1435 0 101.122 12.4899 1263 98.3405 1320.73 482.566
1436 0 105.096 13.1213 1379 97.3575 1320.61 480.728
1437 0 107.076 13.0842 1401 86.2041 1320.51 480.482
1438 0 111.126 12.8863 1432 88.1264 1321.04 479.236
1439 0 113.135 12.3216 1394 86.538 1320.36 475.131
1440 0 115.153 12.0188 1384 87.7587 1320.61 472.72
1441 1 59.016 9.84479 581 82.7522 1320.2 501.523
1442 0 60.0464 10.6085 637 82.3171 1320.22 499.677
1443 0 64.0483 11.585 742 80.9003 1320.18 499.333
1444 0 66.0414 11.5382 762 81.7966 1319.92 499.131
1445 0 69.038 12.5293 865 84.7549 1319.77 498.413
1446 0 69.1038 12.3437 853 83.5252 1320.14 497.455
1447 0 73.1011 12.4622 911 79.9758 1320.73 496.693
1448 0 73.0489 12.5943 920 79.6533 1320.83 494.643
1449 0 76.0624 12.4109 944 79.7214 1320.72 493.982
1450 0 78.0841 12.7171 993 79.2115 1320.77 492.766
1451 0 80.0331 12.7947 1024 78.8477 1320.21 490.991
1452 0 82.1768 12.972 1066 79.0478 1321.08 488.902
1453 0 83.1393 12.4249 1033 80.2023 1320.74 488.703
1454 0 84.0447 13.2667 1115 79.1067 1320.46 487.179
1455 0 87.0491 13.2913 1157 78.7338 1321.08 488.034
1456 0 89.115 13.477 1201 79.1274 1321 484.373
1457 0 92.0512 13.058 1202 82.2063 1320.62 481.062
1458 0 94.0708 13.2028 1242 84.839 1320.54 481.965
1459 0 96.0331 13.3496 1282 83.9618 1320.35 481.53
1460 0 99.0723 13.0612 1294 83.7187 1320.78 480.66
1461 0 102.074 13.9703 1426 80.7426 1320.49 477.663
1462 0 104.06 13.0309 1356 79.2824 1320.61 474.19
1463 0 108.062 13.1869 1425 80.2021 1320.74 475.355
1464 0 111.085 13.3862 1487 78.7391 1320.59 473.578
1465 0 111.05 13.1022 1455 78.8179 1320.73 470.039
1466 0 116.19 13.1939 1533 78.1416 1319.72 467.322
1467 0 117.134 12.6693 1484 79.4259 1320.27 466.178
1468 0 122.095 13.1373 1604 78.5642 1320.22 462.858
1469 0 125.152 12.5607 1572 78.4466 1319.96 463.102
1470 0 130.161 12.7688 1662 76.944 1320.17 459.539
1471 0 136.157 13.0732 1780 75.9652 1319.78 458.193
1472 0 139.078 13.1437 1828 75.7161 1319.99 456.235
1473 0 144.167 13.3179 1920 74.7896 1319.47 453.021
1474 0 153.303 14.1419 2168 71.9234 1319.8 451.166
1475 0 156.418 13.8539 2167 73.4762 1319.7 446.839
1476 0 159.271 13.2604 2112 74.6274 1319.66 443.632
1477 0 165.218 14.4113 2381 73.3079 1320.32 442.163
1478 0 169.221 14.1767 2399 74.7628 1320.18 438.421
1479 0 169.221 14.2358 2409 129.285 1320.19 438.286
1480 1 180.299 13.7161 2473 77.9292 1320.64 432.898
1481 0 186.247 14.5721 2714 77.5007 1320.76 429.896
1482 0 190.267 14.5848 2775 78.533 1320.7 427.37
1483 0 197.273 15.0603 2971 78.7583 1320.57 425.771
1484 0 203.268 15.3295 3116 80.0446 1319.98 423.522
1485 0 212.312 15.4113 3272 80.5957 1319.82 420.696
1486 0 215.206 14.2282 3062 84.6248 1319.88 418.276
1487 1 46.1606 10.0085 462 74.9264 1319.31 502.911
1488 0 47.1213 10.4836 494 76.915 1319.17 501.978
1489 0 47.1213 10.4836 494 144.719 1319.17 501.978
1490 0 53.0391 11.7838 625 75.5312 1320.06 504.2
1491 0 53.0387 12.4249 659 75.4719 1320.64 503.393
1492 0 55.0495 11.862 653 76.9311 1320.8 503.08
1493 0 56.0646 12.2894 689 77.2714 1320.9 502.485
1494 0 55.0916 10.9817 605 72.9289 1319.03 503.332
1495 0 56.0317 10.7261 601 74.8236 1320.07 502.027
1496 0 57.0767 11.1254 635 75.5953 1320.17 502.005
1497 0 60.059 11.7551 706 74.4334 1320.18 500.705
1498 0 61.06 11.4314 698 75.8152 1320.23 500.754
1499 0 62.0928 11.4667 712 76.5183 1320.01 497.657
1500 0 65.0694 11.4339 744 77.2917 1319.72 496.711
1501 0 66.0412 12.6739 837 76.172 1319.68 495.74
1502 0 67.2466 11.7627 791 78.0556 1319.62 493.68
1503 0 71.0584 11.6946 831 77.7425 1319.55 493.723
1504 0 73.1058 11.9553 874 77.643 1319.67 492.994
1505 0 75.0649 12.5225 940 77.3702 1319.96 492.077
1506 0 77.1057 11.8539 914 78.0919 1320.11 488.255
1507 0 78.1032 12.3555 965 77.742 1319.7 488.522
1508 0 82.0946 12.2541 1006 76.9254 1319.9 486.367
1509 0 84.0501 11.5288 969 76.9319 1320.22 485.696
1510 0 89.1877 12.7596 1138 73.7416 1319.92 484.361
1511 0 88.0555 11.5495 1017 76.2635 1320.37 484.653
1512 0 92.107 11.5844 1067 76.8116 1320.31 482.318
1513 0 96.0963 12.1024 1163 75.3302 1320.11 480.134
1514 0 96.0676 11.6689 1121 77.2391 1319.67 478.193
1515 0 99.1589 11.7791 1168 77.5805 1319.12 476.765
1516 0 103.101 12.609 1300 75.5277 1319.19 477.432
1517 0 107.214 13.2166 1417 75.4319 1319.7 473.34
1518 0 109.065 12.4972 1363 77.5928 1319.68 471.218
1519 0 112.104 12.3992 1390 78.513 1320.48 470.92
1520 0 116.097 12.1622 1412 78.0772 1319.92 469.318
1521 1 65.0681 10.6658 694 77.6297 1319.59 496.059
1522 0 66.0183 10.7546 710 77.5901 1320.09 494.297
1523 0 70.1049 12.7095 891 74.9091 1321.38 494.187
1524 0 70.0685 11.9169 835 77.5234 1321.6 492.874
1525 0 72.0676 11.6835 842 78.6295 1320.42 491.919
1526 0 76.0441 12.2692 933 80.0129 1321.82 490.319
1527 0 80.0326 12.27 982 79.8391 1320.97 489.788
1528 0 81.1029 12.3793 1004 81.988 1321.62 489.043
1529 0 83.0928 12.3597 1027 84.0954 1321.16 487.758
1530 0 86.1517 13.3137 1147 82.2694 1321.53 486.607
1531 0 87.1178 13.0169 1134 84.1878 1321.39 485.26
1532 0 91.1577 13.175 1201 83.5995 1321.59 484.287
1533 0 91.1577 13.0762 1192 145.958 1321.56 484.149
1534 0 95.1457 13.4531 1280 83.5023 1321.7 482.509
1535 0 97.1624 11.9491 1161 79.6563 1322.31 480.581
1536 0 99.1074 12.0374 1193 81.404 1322.25 478.022
1537 0 103.118 12.3063 1269 81.5713 1321.06 476.418
1538 0 105.092 12.4272 1306 84.4012 1321.2 475.02
1539 0 108.124 13.1238 1419 85.3559 1320.9 472.789
1540 0 110.075 13.0366 1435 86.4718 1320.74 470.848
1541 0 115.122 12.8906 1484 85.9272 1321.5 467.584
1542 0 117.147 12.1301 1421 88.0887 1321.09 467.115
1543 0 123.156 12.6994 1564 86.9329 1321.01 463.873
1544 0 127.233 12.654 1610 87.9758 1321.21 462.04
1545 0 128.206 13.2131 1694 88.572 1321.34 460.12
1546 0 132.333 12.1134 1603 91.1784 1320.61 458.989
1547 0 137.357 12.9808 1783 89.9018 1321.09 456.8
1548 0 143.217 13.0153 1864 90.4093 1320.38 453.686
1549 0 146.271 12.7093 1859 91.1103 1321.12 451.212
1550 0 152.209 12.9296 1968 90.0696 1320.56 448.427
1551 0 160.212 13.4759 2159 88.2404 1320.77 448.843
1552 0 166.152 13.4696 2238 88.8892 1320.99 448.492
1553 0 170.205 13.9537 2375 89.4619 1320.64 445.649
1554 0 174.188 13.6232 2373 91.22 1320.47 440.392
1555 1 99.1551 12.5057 1240 89.8718 1320.32 480.436
1556 0 99.1636 11.9197 1182 93.511 1320.35 477.521
1557 0 102.06 11.6108 1185 83.8414 1321.24 479.088
1558 0 106.051 12.4279 1318 82.6404 1321.57 476.451
1559 0 110.103 12.57 1384 82.5166 1321.33 477.134
1560 0 111.055 12.1291 1347 85.5857 1321.83 472.742
1561 0 116.11 12.6346 1467 83.6646 1321.2 471.493
1562 0 119.117 12.3996 1477 85.2525 1321.53 470.984
1563 0 124.062 12.3406 1531 84.7374 1321.32 467.453
1564 1 74.073 11.7182 868 79.7143 1321.92 493.393
1565 0 78.0536 11.6971 913 79.3549 1321.84 491.764
1566 0 78.0777 11.9496 933 78.2594 1321.59 490.495
1567 0 79.0967 11.8463 937 79.2946 1321.12 489.206
1568 0 82.0965 12.7898 1050 78.1971 1321 487.35
1569 0 86.0861 12.7779 1100 77.2245 1321.96 486.098
1570 0 87.0676 12.496 1088 78.2583 1321.63 484.222
1571 0 90.0984 12.564 1132 78.6723 1321.65 483.154
1572 0 92.0991 12.5517 1156 79.1747 1321.45 481.473
1573 0 95.0607 12.9391 1230 79.5439 1321.23 480.027
1574 0 98.0564 13.4616 1320 79.603 1321.47 478.837
1575 0 100.065 12.8017 1281 81.7393 1321.35 476.892
1576 0 104.09 13.2482 1379 80.3582 1321.49 473.909
1577 0 107.083 13.5876 1455 79.0873 1321.07 472.364
1578 0 107.098 13.0815 1401 81.3233 1321.14 467.47
1579 0 110.096 12.6072 1388 81.2277 1320.4 466.524
1580 0 114.048 13.1085 1495 80.1632 1321.57 464.644
1581 0 118.089 12.9055 1524 81.3261 1321.23 462.818
1582 0 119.055 12.742 1517 81.5808 1321.03 460.626
1583 0 119.132 13.4556 1603 80.1073 1321.2 455.603
1584 0 115.129 12.4035 1428 84.9188 1320.81 454.509
1585 0 125.161 11.9366 1494 85.6573 1321.03 454.094
1586 0 125.139 11.9946 1501 85.7861 1321.04 450.64
1587 0 133.253 11.8571 1580 84.8937 1320.72 446.375
1588 0 139.139 11.0968 1544 86.8575 1320.72 447.786
1589 1 76.1168 10.4576 796 80.2651 1320.6 479.935
1590 0 80.069 11.4526 917 79.7884 1320.68 478.358
1591 0 85.0743 10.8846 926 79.4514 1320.81 485.798
1592 0 89.0497 11.6452 1037 79.0771 1321.26 484.888
1593 0 91.1178 11.5455 1052 79.8165 1320.78 480.946
1594 0 94.114 11.3054 1064 81.407 1320.79 480.645
1595 0 98.1545 11.9811 1176 80.3036 1320.95 477.467
1596 0 103.101 12.9 1330 77.8331 1320.65 475.718
1597 0 108.247 13.0443 1412 78.2273 1320.69 472.474
1598 0 109.092 12.8516 1402 79.5592 1321.08 472.414
1599 0 114.217 13.4218 1533 79.2812 1320.62 470.919
1600 0 115.131 12.6986 1462 81.6115 1320.8 467.003
1601 0 120.221 12.868 1547 82.2217 1320.6 463.58
1602 0 120.183 12.2563 1473 83.725 1320.44 456.511
1603 0 124.199 12.7135 1579 81.6181 1320.27 455.755
1604 0 131.157 13.2284 1735 79.1084 1320.94 453.411
1605 0 133.259 12.9447 1725 80.7449 1320.51 452.398
1606 1 77.0683 11.7947 909 79.3674 1321.31 485.48
1607 0 78.06 11.9267 931 78.8077 1320.84 483.922
1608 0 83.0968 13.2857 1104 74.5127 1320.78 486.566
1609 0 83.0399 12.4278 1032 75.5853 1319.39 489.488
1610 0 85.082 11.6828 994 77.0523 1321.07 487.319
1611 0 88.102 12.3947 1092 75.9249 1320.56 485.588
1612 0 90.0587 11.4037 1027 77.7536 1320.99 484.12
1613 0 95.1023 12.5549 1194 75.4958 1321.16 481.901
1614 0 97.107 11.9662 1162 78.562 1321.69 478.587
1615 0 98.1043 11.6203 1140 79.2474 1321.77 474.811
1616 0 102.099 12.4291 1269 77.4949 1320.85 474.075
1617 0 104.057 12.5124 1302 77.9539 1320.56 470.061
1618 0 104.125 11.7359 1222 80.4174 1321.03 471.115
1619 0 109.067 12.3869 1351 78.9008 1320.93 469.185
1620 0 113.14 12.3917 1402 79.5057 1320.26 463.548
1621 0 116.076 12.6124 1464 78.9187 1320.37 462.122
1622 0 117.049 12.3281 1443 79.2689 1319.84 463.428
1623 0 121.163 12.2479 1484 80.2069 1319.58 459.348
1624 0 125.134 12.7464 1595 78.3022 1319.72 457.281
1625 0 129.081 13.5109 1744 76.7448 1319.66 455.563
1626 0 131.086 12.5871 1650 79.0455 1320.06 453.204
1627 0 135.12 12.426 1679 79.4169 1319.82 452.484
1628 0 141.077 13.1985 1862 78.0682 1319.7 447.388
1629 0 146.099 13.1965 1928 78.8138 1319.67 443.587
1630 0 147.173 13.1886 1941 79.7805 1320.21 441.586
1631 0 155.069 13.6004 2109 80.5187 1320.46 438.738
1632 0 159.223 12.6804 2019 83.7325 1320.26 433.962
1633 1 82.0555 10.1395 832 87.2043 1319.89 468.626
1634 0 91.0843 11.0118 1003 83.4307 1319.27 469.603
1635 0 92.0991 11.8459 1091 81.2777 1319.57 468.174
1636 0 93.07 12.0125 1118 81.5331 1319.65 466.878
1637 0 100.123 11.7655 1178 80.6316 1319.86 465.451
1638 0 103.154 12.2923 1268 78.153 1319.18 469.145
1639 0 107.206 12.0703 1294 79.0379 1319.43 465.35
1640 0 109.131 12.9202 1410 77.5823 1319.84 462.061
1641 0 113.167 12.9189 1462 77.3413 1319.17 458.187
1642 0 114.228 12.1599 1389 80.306 1320.12 455.995
1643 0 119.31 12.8824 1537 80.1679 1319.65 453.621
1644 0 124.098 12.9172 1603 79.4959 1319.89 452.133
1645 0 127.281 12.5942 1603 80.3026 1319.31 449.974
1646 0 134.18 12.6994 1704 78.9542 1318.97 452.485
1647 0 140.195 13.4527 1886 78.9374 1319.69 448.655
1648 0 140.195 13.4456 1885 142.91 1320.69 448.62
1649 0 150.229 13.4262 2017 78.1775 1319.52 447.486
1650 0 156.324 13.9646 2183 77.4961 1320.57 443.866
1651 0 160.323 12.6307 2025 80.2035 1320.71 441.442
1652 0 160.222 12.8572 2060 80.4762 1320.87 436.309
1653 0 166.293 13.0312 2167 80.3867 1320.73 433.543
1654 0 169.339 13.2338 2241 81.3338 1320.38 431.1
1655 0 177.4 13.1398 2331 82.7242 1320.26 429.494
1656 0 179.2 12.9353 2318 83.9556 1320.23 424.354
1657 0 188.27 13.3372 2511 85.227 1320.07 418.019
1658 0 193.374 12.7421 2464 87.2232 1320.36 417.655
1659 0 197.328 12.5477 2476 88.1644 1320.63 415.822
1660 0 207.383 13.7716 2856 86.2244 1319.89 415.758
1661 0 212.484 13.0645 2776 89.054 1320.37 414.986
1662 0 220.605 13.3451 2944 88.4718 1320.12 411.775
1663 0 228.333 13.9095 3176 87.357 1320.41 407.836
1664 0 232.331 13.6099 3162 88.9848 1319.63 400.053
1665 1 54.0805 8.65376 468 65.4808 1319.84 496.853
1666 0 56.0814 9.71801 545 65.1358 1319.77 498.901
1667 0 58.0307 10.5461 612 61.6585 1319.13 499.636
1668 0 58.0781 10.1243 588 66.4388 1320.79 499.027
1669 0 61.1183 10.8642 664 64.9413 1320.89 498.136
1670 0 62.0969 10.1776 632 67.2136 1320.85 497.074
1671 0 63.0392 10.0731 635 67.8378 1320.66 497.518
1672 0 64.0598 10.2873 659 68.7906 1320.27 495.56
1673 0 67.044 11.9623 802 70.5736 1320.44 495.171
1674 0 71.066 11.5386 820 70.9098 1320.41 494.93
1675 0 72.1158 11.5093 830 72.2361 1320.46 492.004
1676 0 75.0851 12.2394 919 71.0468 1321.08 492.443
1677 0 74.116 11.2526 834 75.2746 1320.43 490.651
1678 0 79.0582 12.0165 950 73.9674 1320.42 487.832
1679 0 82.1239 12.883 1058 72.0699 1320.87 487.902
1680 0 82.0372 12.1652 998 75.2385 1320.65 487.217
1681 0 84.0614 12.3005 1034 75.529 1320.2 486.356
1682 0 85.0578 11.4981 978 77.5542 1320.67 485.333
1683 0 86.0661 11.6422 1002 79.2445 1320.23 483.794
1684 0 90.0851 11.589 1044 79.545 1320.4 484.549
1685 0 93.0948 11.8052 1099 79.9718 1320.8 483.601
1686 0 95.0291 11.7648 1118 81.492 1320.01 480.68
1687 0 99.0934 12.4933 1238 79.9515 1319.92 478.665
1688 0 99.1035 12.0884 1198 82.6528 1318.91 478.552
1689 0 101.12 11.0068 1113 86.0359 1319.48 476.234
1690 0 105.162 12.1717 1280 84.5031 1319.33 475.292
1691 1 131.247 15.2003 1995 68.6612 1320.63 462.286
1692 0 125.223 16.0434 2009 70.118 1320.56 459.902
1693 0 125.133 16.886 2113 69.4179 1320.14 457.853
1694 0 125.157 15.8841 1988 73.2862 1319.39 460.168
1695 0 121.176 13.1214 1590 78.8799 1319.41 460.656
1696 0 126.174 13.3229 1681 80.5074 1319.38 460.372
1697 1 70.0549 10.4347 731 82.0041 1318.86 491.146
1698 0 71.0682 10.5251 748 80.9719 1319.05 488.88
1699 0 71.0741 9.80667 697 73.8881 1319.47 483.112
1700 0 72.0656 10.7402 774 70.6615 1320.54 482.358
1701 0 78.047 10.7499 839 79.1108 1320.45 484.676
1702 0 80.043 11.5563 925 77.6908 1320.77 484.346
1703 0 80.0274 11.821 946 78.9397 1320.94 483.06
1704 0 83.0775 11.8564 985 78.7259 1320.07 481.965
1705 0 86.0412 12.0988 1041 78.3132 1320.14 481.836
1706 0 87.0334 12.0873 1052 80.0836 1320.13 479.996
1707 0 91.0582 12.1571 1107 79.6396 1319.62 480.97
1708 0 92.0597 12.5571 1156 80.7016 1321.03 477.239
1709 0 95.0682 12.2649 1166 81.2513 1320.26 477.148
1710 0 97.0672 12.342 1198 81.2529 1320.25 475.496
1711 0 99.101 13.0473 1293 73.1818 1320.26 478.575
1712 0 102.119 12.9163 1319 79.6429 1320.16 475.751
1713 0 103.05 13.1683 1357 80.3441 1320.2 475.445
1714 0 106.094 13.2996 1411 77.944 1319.9 475.595
1715 0 107.187 12.9866 1392 81.5503 1320.36 471.726
1716 0 114.127 13.3973 1529 80.8313 1320.69 472.763
1717 0 118.133 13.2817 1569 82.4519 1320.42 470.782
1718 0 121.208 13.2665 1608 81.0746 1320.64 470.416
1719 0 125.106 13.8282 1730 80.6353 1319.82 467.651
1720 0 128.173 13.8952 1781 82.5357 1320.69 466.684
1721 0 129.132 13.7533 1776 84.8874 1320.98 464.51
1722 0 134.124 14.7923 1984 84.4783 1320.38 463.825
1723 0 139.238 14.8738 2071 86.255 1320.36 457.061
1724 1 72.2462 10.8933 787 79.6938 1320.27 492.053
1725 0 73.1224 11.8432 866 80.3776 1320.17 490.304
1726 0 76.1068 13.008 990 80.4182 1320.26 491.995
1727 0 80.0277 13.3204 1066 78.454 1320.07 491.26
1728 0 82.1053 14.0186 1151 78.4804 1320.04 489.12
1729 0 83.0572 13.5328 1124 79.7144 1319.38 489.242
1730 0 86.0386 13.5753 1168 82.1507 1319.67 486.186
1731 0 89.021 13.6035 1211 82.1255 1318.88 485.521
1732 0 89.1074 13.7138 1222 82.698 1320.22 483.269
1733 0 94.1075 14.0796 1325 81.8611 1319.89 482.309
1734 0 95.1089 13.616 1295 82.4788 1319.38 481.992
1735 0 98.1005 13.8837 1362 81.3656 1319.35 478.957
1736 0 102.108 13.9754 1427 79.7134 1319.59 478.79
1737 0 103.072 13.9805 1441 81.0569 1319.87 475.931
1738 0 105.144 13.0487 1372 82.0466 1320.47 475.999
1739 0 108.095 14.2375 1539 79.4919 1320.09 474.07
1740 0 112.144 13.8572 1554 79.3784 1320.35 470.038
1741 0 115.115 14.4377 1662 76.9868 1320.15 471.166
1742 0 116.164 13.0247 1513 79.3721 1320.29 468.321
1743 0 121.142 13.6865 1658 76.4125 1320.28 466.843
1744 0 125.12 12.9395 1619 76.9691 1320.41 464.285
1745 0 131.218 13.2527 1739 77.0161 1320.25 459.997
1746 0 136.16 13.1022 1784 76.7203 1319.83 459.639
1747 1 74.0676 11.8 874 71.8398 1319.85 492.032
1748 0 77.0966 12.2055 941 73.4038 1319.41 489.327
1749 0 79.0984 12.2758 971 71.7466 1319.97 489.094
1750 0 82.0942 12.2908 1009 71.9435 1319.94 486.005
1751 0 83.0558 12.1003 1005 73.5672 1320.18 485.021
1752 0 84.0646 11.3365 953 75.256 1319.83 481.836
1753 0 90.0886 11.5886 1044 75.5881 1319.6 482.222
1754 0 92.0803 12.033 1108 76.3186 1319.32 479.944
1755 0 94.1522 11.7044 1102 77.8684 1320.35 478.995
1756 0 98.1628 12.6423 1241 75.8324 1320.16 479.138
1757 0 98.1347 12.2688 1204 80.0947 1319.92 474.173
1758 0 104.187 12.6215 1315 77.5878 1319.81 474.627
1759 0 106.211 12.4469 1322 79.0779 1320.24 474.371
1760 0 109.206 12.5634 1372 79.8236 1320.06 471.655
1761 0 113.087 12.6452 1430 79.9748 1320.02 470.077
1762 0 118.156 12.4327 1469 81.2927 1319.39 467.368
1763 0 118.156 12.475 1474 146.23 1319.39 467.335
1764 0 127.275 13.1762 1677 81.2886 1319.26 463.038
1765 0 131.206 13.071 1715 81.4315 1320.1 462.974
1766 0 134.178 13.2958 1784 82.9916 1320.45 459.646
1767 0 138.192 13.4234 1855 82.69 1320.13 458.253
1768 0 144.249 13.7193 1979 82.5472 1320.13 454.058
1769 0 148.16 12.9184 1914 85.454 1319.47 451.452
1770 1 82.1416 11.2123 921 79.203 1319.62 488.742
1771 0 84.0568 11.9086 1001 79.018 1319.6 486.385
1772 0 85.0424 12.4761 1061 82.2752 1319.84 484.585
1773 0 90.1043 12.3524 1113 83.168 1319.61 484.812
1774 0 92.1376 12.2968 1133 86.2056 1319.63 481.648
1775 0 94.1051 12.8155 1206 87.8516 1319.69 480.595
1776 0 98.1266 12.2291 1200 91.5308 1319.92 478.792
1777 0 100.112 12.6059 1262 92.5578 1319.4 475.815
1778 0 104.154 12.5967 1312 92.8514 1320.43 475.795
1779 0 106.2 12.2693 1303 93.6892 1320.48 475.314
1780 0 109.165 12.7788 1395 92.2925 1320.03 473.88
1781 0 113.115 12.8453 1453 91.2794 1320.25 471.372
1782 0 116.129 12.7186 1477 92.285 1320.45 469.215
1783 0 121.205 13.3658 1620 91.6012 1319.61 468.092
1784 0 126.094 13.6882 1726 90.062 1320.58 463.867
1785 0 130.18 12.6824 1651 92.4621 1319.87 462.959
1786 1 70.1032 11.3547 796 88.3254 1320.32 493.889
1787 0 72.0669 11.5587 833 89.5942 1319.88 493.333
1788 0 75.1222 11.9006 894 93.7383 1320.87 491.153
1789 0 76.1347 12.7931 974 92.0914 1319.65 490.303
1790 0 81.1709 12.1842 989 92.3498 1320.19 489.475
1791 0 82.1113 12.5805 1033 92.7183 1320.18 487.095
1792 0 84.1812 12.7226 1071 91.9533 1320.11 485.924
1793 0 86.1358 12.8518 1107 92.159 1319.77 485.817
1794 0 87.1226 12.3963 1080 83.8204 1319.47 485.796
1795 0 90.1679 12.754 1150 84.4609 1319.52 484.622
1796 0 91.0313 12.0728 1099 88.232 1319.1 481.973
1797 0 94.121 11.8996 1120 88.9991 1319.95 480.565
1798 0 96.1145 12.1314 1166 90.7727 1319.59 479.282
1799 0 99.049 12.8522 1273 88.8201 1319.47 478.186
1800 0 102.099 12.6838 1295 92.1876 1319.09 476.212
1801 0 105.17 12.6367 1329 93.0768 1319.73 475.285
1802 0 107.085 13.4099 1436 91.4297 1319.67 474.974
1803 0 109.103 12.6669 1382 91.8148 1319.28 471.869
1804 0 114.119 12.5921 1437 90.7356 1319.43 466.545
1805 0 118.15 13.212 1561 89.6983 1318.87 466.905
1806 0 121.254 13.179 1598 90.1702 1318.91 465.045
1807 0 123.094 12.7545 1570 91.6962 1318.8 462.235
1808 0 129.195 13.1352 1697 90.4213 1318.75 460.979
1809 0 131.214 12.8645 1688 91.6309 1319.04 459.096
1810 0 136.154 13.4259 1828 90.1499 1319.18 458.514
1811 0 142.116 13.4186 1907 89.9811 1319.26 456.092
1812 0 144.163 13.2142 1905 90.9543 1319.36 453.449
1813 0 148.119 13.4824 1997 91.315 1318.82 451.937
1814 0 153.164 13.5345 2073 91.2369 1319.62 448.96
1815 0 160.123 13.7706 2205 89.5474 1318.96 446.81
1816 1 88.1024 10.3175 909 83.3036 1318.67 483.49
1817 0 91.1246 11.6763 1064 81.8759 1319.98 481.186
1818 0 95.1209 12.1319 1154 81.9957 1319.59 480.322
1819 0 97.0868 12.1232 1177 84.3976 1319.6 480.618
1820 0 100.1 12.6473 1266 83.9044 1319.47 477.081
1821 0 104.107 12.5256 1304 84.3182 1319.75 475.607
1822 0 107.059 12.1521 1301 84.4051 1320.09 474.669
1823 0 109.172 11.4681 1252 84.7149 1319.85 472.074
1824 0 114.094 12.5511 1432 82.3631 1320.26 471.751
1825 0 116.138 12.3301 1432 83.6383 1320.19 470.145
1826 0 120.14 12.0027 1442 83.9168 1319.75 467.644
1827 0 122.095 12.6213 1541 83.3485 1319.65 464.801
1828 0 126.137 12.5419 1582 84.4001 1319.06 461.323
1829 0 131.153 11.6277 1525 86.7508 1318.96 455.936
1830 0 135.15 12.1494 1642 85.6656 1319.32 456.975
1831 0 141.219 13.518 1909 83.0943 1319.17 453.887
1832 0 143.112 12.319 1763 87.0136 1319.04 451.677
1833 0 147.123 11.8133 1738 94.2025 1319.34 450.22
1834 0 150.154 11.6814 1754 90.0564 1319.67 446.261
1835 1 89.1272 9.88475 881 81.2667 1320.21 486.548
1836 0 90.0587 9.80472 883 86.5142 1320.48 481.524
1837 0 96.328 11.7411 1131 95.6145 1320.57 474.096
1838 0 96.3295 11.7202 1129 144.619 1319.56 474.136
1839 0 100.203 11.3469 1137 84.2955 1320.1 476.949
1840 0 103.142 10.5776 1091 85.6737 1320.06 475.309
1841 0 108.107 12.0621 1304 82.4762 1319.6 472.913
1842 0 111.092 11.297 1255 80.9657 1319.68 470.315
1843 0 114.175 11.7977 1347 80.6741 1320.01 469.196
1844 0 119.135 12.0367 1434 80.834 1320.2 466.319
1845 0 121.199 12.038 1459 83.0343 1320.35 464.616
1846 0 124.186 11.2493 1397 84.4052 1320.51 462.009
1847 0 130.162 11.793 1535 83.5459 1320.52 460.685
1848 0 129.171 11.8834 1535 130.457 1321.52 460.857
1849 0 138.181 12.1435 1678 82.1812 1320.45 455.29
1850 0 142.221 12.2556 1743 81.9042 1320.71 454.722
1851 0 148.214 12.9137 1914 80.3239 1320.51 451.135
1852 0 152.248 12.0987 1842 81.4115 1320.29 449.978
1853 0 157.184 12.4058 1950 81.0441 1319.79 447.462
1854 0 159.202 11.9911 1909 82.5317 1320.14 445.359
1855 0 164.207 12.6913 2084 82.2452 1320.14 443.458
1856 0 171.234 13.1107 2245 81.3274 1320.54 441.085
1857 0 176.138 12.5981 2219 82.7026 1320.61 437.823
1858 1 94.0634 11.2477 1058 78.2259 1320.62 479.876
1859 0 97.1259 12.0668 1172 78.7372 1320.64 479.686
1860 0 101.146 12.3683 1251 77.9968 1320.38 476.72
1861 0 103.106 12.8412 1324 78.639 1320.56 474.536
1862 0 106.202 12.382 1315 80.2852 1320.36 473.614
1863 0 108.107 12.4784 1349 81.2172 1320.56 473.81
1864 0 112.088 12.8828 1444 81.0831 1320.58 472.946
1865 0 114.129 12.4683 1423 83.9642 1320.48 468.061
1866 0 117.156 12.334 1445 85.1356 1320.84 465.915
1867 0 121.147 12.1506 1472 86.337 1321.21 464.729
1868 0 125.208 13.0743 1637 84.9676 1321.3 460.693
1869 0 129.231 12.9226 1670 85.8802 1320.82 460.829
1870 0 130.202 12.4576 1622 88.1282 1320.61 460.268
1871 0 135.186 12.6197 1706 87.731 1320.4 458.153
1872 0 139.177 12.4877 1738 88.1128 1319.83 454.575
1873 0 143.219 13.015 1864 88.1727 1320.91 449.249
1874 0 147.264 12.5081 1842 88.9126 1320.05 449.08
1875 0 150.262 12.6912 1907 89.6424 1320.17 445.471
1876 0 158.328 12.752 2019 89.6399 1320.44 444.048
1877 0 162.384 13.5604 2202 88.5395 1319.94 441.7
1878 0 165.366 13.6425 2256 90.3617 1320.35 438.08
1879 0 169.545 13.1646 2232 92.6398 1320.64 435.173
1880 0 171.314 12.9762 2223 94.2542 1320.79 431.612
1881 0 179.307 13.5243 2425 92.6433 1320.14 428.842
1882 0 185.224 13.1624 2438 93.6083 1320.24 425.012
1883 0 191.33 13.657 2613 93.47 1320.66 422.247
1884 0 196.299 13.0057 2553 96.0505 1320.15 416.857
1885 0 201.236 13.3574 2688 95.5729 1319.24 414.033
1886 0 206.168 13.0524 2691 96.2059 1319.61 411.008
1887 0 212.191 12.8233 2721 96.5535 1320.65 408.175
1888 0 217.156 12.6591 2749 97.7788 1320.58 405.017
1889 0 222.139 13.3835 2973 97.3293 1320.74 404.22
1890 1 158.254 11.2478 1780 99.8051 1320.35 432.17
1891 0 169.16 12.0714 2042 97.4437 1320.2 430.763
1892 0 174.154 12.5578 2187 97.4316 1320.21 426.737
1893 0 181.137 12.5209 2268 97.4713 1319.98 423.209
1894 0 185.162 12.535 2321 96.9194 1319.89 420.996
1895 0 193.098 12.7966 2471 94.9737 1320.54 416.242
1896 0 197.113 12.3634 2437 96.0554 1320.61 413.86
1897 0 203.163 12.4088 2521 95.6168 1320.03 409.781
1898 0 212.114 12.8799 2732 94.0048 1319.55 409.44
1899 0 221.151 13.5835 3004 92.5273 1320.28 403.601
1900 0 227.141 12.9919 2951 96.3853 1319.31 399.804
1901 0 233.11 13.4443 3134 95.1886 1319.65 395.375
1902 0 237.202 12.6179 2993 99.9566 1319.91 391.36
1903 0 241.125 12.8398 3096 102.27 1319.81 385.662
1904 1 170.125 11.133 1894 97.1003 1319.23 421.564
1905 0 182.229 11.5734 2109 95.7146 1319.46 423.174
1906 0 189.189 11.8506 2242 96.1566 1319.15 419.209
1907 0 192.221 11.7417 2257 98.0518 1319.45 418.796
1908 0 199.261 12.1449 2420 97.4711 1319.09 413.039
1909 0 207.238 12.1696 2522 97.4199 1319.29 413.116
1910 0 211.264 12.2548 2589 97.9088 1319.19 408.39
1911 0 218.361 12.1038 2643 97.0405 1318.56 406.718
1912 0 226.313 12.4739 2823 97.0733 1319.14 400.261
1913 0 234.305 12.2831 2878 98.5389 1319.12 396.442
1914 0 242.329 12.4665 3021 98.6356 1319.12 395.292
1915 0 250.444 12.6655 3172 98.4171 1318.44 389.879
1916 0 256.388 12.4889 3202 98.1193 1318.77 387.995
1917 1 294.279 5.34186 1572 100.847 1318.8 422.73
1918 0 296.275 8.36384 2478 101.199 1318.63 397.539
1919 0 296.379 10.0243 2971 100.58 1317.86 383.495
1920 0 298.424 14.456 4314 92.5682 1318.89 367.569
1921 0 301.443 14.2747 4303 92.8329 1318.92 362.233
1922 0 312.495 15.1394 4731 90.8829 1318.58 361.446
1923 0 321.347 15.2794 4910 90.9821 1318.46 357.701
1924 0 330.426 15.0442 4971 91.9117 1318.41 351.665
1925 0 340.48 14.8291 5049 93.7372 1319.31 342.921
1926 0 352.719 14.6094 5153 94.5628 1318.7 335.123
1927 0 364.778 16.2318 5921 90.3118 1319.1 332.397
1928 0 375.732 15.6282 5872 92.4079 1318.31 308.617
1929 0 386.042 15.5372 5998 92.0592 1318.26 305.403
1930 0 397.183 15.6427 6213 92.2265 1318.36 308.238
1931 0 408.27 15.6 6369 93.1176 1317.77 305.83
