time division length width area intensity CMx CMy
0 0 72.0969 15.3543 1107 116.767 1106.73 485.978
1 0 72.0507 14.6841 1058 118.835 1105.96 484.669
2 0 74.0433 14.5726 1079 117.168 1105.86 484.059
3 0 77.1111 14.9654 1154 113.51 1105.62 483.714
4 0 80.0462 15.0163 1202 112.177 1105.56 482.82
5 0 83.2568 15.1339 1260 110.07 1105.91 481.973
6 0 83.0427 14.7394 1224 111.562 1107.11 480.775
7 0 88.0181 15.2582 1343 107.267 1107.11 480.06
8 0 89.0866 14.716 1311 108.933 1106.81 478.779
9 1 46.029 12.3835 570 109.551 1106.12 499.796
10 0 47.0398 13.478 634 107.379 1106.27 499.776
11 0 49.0153 13.9956 686 106.733 1105.29 498.15
12 0 53.032 14.7269 781 103.634 1105.9 497.389
13 0 54.0697 14.6848 794 104.821 1105.32 496.136
14 0 55.0212 14.6307 805 106.524 1105.25 496.431
15 0 55.0212 14.6125 804 153.682 1105.26 496.454
16 0 58.0227 14.9597 868 104.24 1105.31 495.27
17 0 59.0535 14.6477 865 104.017 1105.2 494.562
18 0 62.0188 15.1728 941 102.053 1105.02 493.915
19 0 64.0309 14.899 954 103.569 1105.25 492.913
20 0 66.0202 15.1317 999 104.014 1104.67 492.098
21 0 66.012 14.7852 976 108.575 1104.63 491.438
22 0 70.0409 15.1197 1059 106.366 1103.64 490.117
23 0 72.05 15.2672 1100 106.442 1103.91 488.823
24 0 73.0233 15.2828 1116 106.039 1104.38 489.067
25 0 76.0816 15.0496 1145 105.625 1104.12 487.99
26 0 77.0621 14.9749 1154 106.062 1104.61 487.198
27 0 81.0836 15.6875 1272 103.913 1104.62 484.819
28 0 84.046 14.9799 1259 105.026 1104.07 484.464
29 0 86.0475 14.9336 1285 104.271 1104.82 483.198
30 0 89.067 15.0224 1338 104.345 1104.02 481.956
31 0 90.0386 14.9047 1342 104.736 1104.29 480.915
32 0 94.0878 14.4546 1360 103.968 1103.18 479.952
33 0 96.0978 14.8286 1425 101.479 1103.29 477.408
34 0 99.0771 14.7562 1462 100.834 1103.23 476.428
35 0 103.062 14.2245 1466 103.134 1103.36 475.55
36 1 57.0828 12.1403 693 101.672 1103.63 498.512
37 0 59.047 13.0405 770 98.4403 1103.35 495.721
38 0 61.1058 13.3375 815 99.5767 1102.93 493.342
39 0 63.0356 13.3575 842 102.749 1103.64 491.262
40 0 65.0576 13.4343 874 102.251 1103.66 490.375
41 0 69.0353 13.4424 928 100.918 1103.51 489.293
42 0 70.0253 13.2095 925 102.504 1103.71 489.084
43 0 71.0628 12.9885 923 102.16 1102.67 486.084
44 0 76.0643 12.8444 977 99.9744 1103.22 484.514
45 0 77.0424 13.3433 1028 98.5107 1103.02 483.049
46 0 79.0746 13.5315 1070 97.7561 1103.68 482.541
47 0 82.0361 13.6038 1116 96.1425 1102.79 481.764
48 0 84.0553 13.2532 1114 98.2298 1103.24 479.257
49 0 84.1337 12.8961 1085 99.7991 1102.97 477.5
50 0 88.0793 13.2154 1164 98.1589 1103.66 478.667
51 0 90.0238 12.9632 1167 98.9314 1103.52 476.816
52 0 94.1475 12.8309 1208 98.8253 1102.96 471.999
53 0 99.121 13.2767 1316 97.4286 1102.07 470.862
54 0 101.052 12.8449 1298 99.2096 1102.85 469.953
55 0 104.137 12.6852 1321 100.022 1102.95 466.266
56 0 107.059 12.339 1321 99.9107 1103.98 464.597
57 0 112.046 12.7002 1423 98.6472 1103.08 462.048
58 1 55.0517 9.80897 540 95.1944 1103.26 491.435
59 0 59.1657 11.0199 652 94.4693 1102.47 489.571
60 0 59.1248 10.926 646 96.5 1103.84 488.099
61 0 62.087 10.8235 672 96.0476 1103.8 488.198
62 0 66.0377 10.5849 699 95.7382 1102.95 487.006
63 0 67.0245 9.95159 667 97.2519 1102.64 482.998
64 0 68.0446 9.87588 672 97.9896 1102.76 481.719
65 0 69.0577 9.18073 634 100.368 1103.17 479.123
66 0 70.0993 9.50081 666 100.523 1102.77 478.64
67 0 75.114 10.0248 753 99.2204 1102.28 477.47
68 0 81.108 12.6128 1023 92.697 1102.67 482.461
69 0 86.0722 12.6405 1088 90.0938 1103.17 482.093
70 0 89.1129 13.1855 1175 89.3813 1102.6 480.73
71 0 90.0738 12.0901 1089 91.2571 1103.59 479.555
72 0 94.1672 12.9451 1219 89.1001 1102.94 477.437
73 0 97.116 12.6447 1228 90.2647 1103.29 475.103
74 0 100.059 12.4926 1250 90.568 1103.09 474.085
75 0 102.129 12.5821 1285 90.2327 1103.4 473.78
76 0 107.168 12.8396 1376 90.1475 1102.73 471.525
77 0 111.107 12.6905 1410 92.5234 1103.07 468.526
78 0 115.16 12.7735 1471 91.3222 1103.18 467.732
79 1 65.0571 10.9289 711 88.1519 1103.57 493.91
80 0 66.1351 11.7789 779 87.208 1103.82 492.922
81 0 68.1018 12.0261 819 87.4945 1103.6 491.535
82 0 71.1875 12.4039 883 86.1665 1103.54 489.238
83 0 72.0519 12.1857 878 87.7244 1104.02 486.666
84 0 76.1182 11.9288 908 88.2896 1104.1 487.433
85 0 78.067 12.4508 972 88.6831 1103.66 485.823
86 0 80.0628 12.6526 1013 88.5222 1104.12 484.393
87 0 83.1824 12.671 1054 90.2467 1103.7 482.348
88 0 83.1824 12.6108 1049 144.335 1103.69 482.394
89 0 88.0585 12.5144 1102 90.0554 1104 479.596
90 0 92.1853 12.8328 1183 89.3052 1103.83 478.961
91 0 94.1375 12.9598 1220 89.2287 1104.04 478.807
92 0 97.1667 13.0909 1272 88.4764 1103.95 476.025
93 0 100.082 12.6996 1271 89.5523 1103.89 474.071
94 0 102.171 12.2344 1250 90.5888 1103.66 472.525
95 0 107.164 12.7934 1371 89.7885 1103.78 469.674
96 0 111.125 12.0945 1344 91.2753 1103.97 467.486
97 0 114.191 11.8749 1356 93.3355 1103.68 467.784
98 0 120.18 12.5312 1506 92.7132 1103.81 464.169
99 1 62.0177 10.497 651 85.086 1103.26 495.207
100 0 64.0409 11.6176 744 84.0215 1103.29 494.323
101 0 66.0688 11.7302 775 83.1045 1103.43 493.872
102 0 69.0702 11.0323 762 95.0669 1103.02 491.462
103 0 72.0372 11.8966 857 92.9743 1103.65 491.015
104 0 73.0345 11.296 825 95.1648 1103.81 487.81
105 0 78.0481 11.3904 889 92.7829 1104.06 488.06
106 0 79.0424 12.1201 958 93.1388 1103.48 486.999
107 0 80.0709 11.7396 940 93.8106 1103.82 486.528
108 0 83.0472 11.7403 975 94.7405 1103.49 483.348
109 0 87.0932 12.2627 1068 91.8633 1103.62 483.891
110 0 88.0985 12.1909 1074 91.1229 1103.26 481.423
111 0 92.0387 11.9189 1097 91.1614 1103.19 479.057
112 0 94.0814 11.979 1127 90.9556 1103.54 479.644
113 0 98.0528 11.8915 1166 90.7993 1103.8 476.949
114 0 100.038 11.8455 1185 91.2447 1103.16 476.27
115 1 52.0256 10.9369 569 85.1072 1103.18 501.007
116 0 54.0549 11.4883 621 82.3832 1104.12 501.087
117 0 57.047 12.0427 687 80.8472 1103.32 500.057
118 0 58.027 12.2012 708 79.7585 1103.62 497.716
119 0 57.0298 11.3099 645 82.0744 1102.91 497.462
120 0 60.0464 11.2746 677 81.1256 1103.18 496.43
121 0 60.0451 11.558 694 80.8343 1102.74 495.082
122 0 63.0466 12.1815 768 79.2591 1102.91 494.953
123 0 65.0398 11.9619 778 80.662 1103.09 494.032
124 0 66.073 11.8505 783 81.2388 1103.36 494.045
125 0 69.0342 11.0525 763 83.1546 1103.6 492.283
126 0 71.0482 11.64 827 82.5042 1103.78 492.073
127 0 72.0402 11.7434 846 83.5154 1103.39 490.778
128 0 73.0129 11.7513 858 84.5338 1103.46 489.716
129 0 76.0384 12.1912 927 84.836 1103.68 488.037
130 0 77.0795 11.8709 915 86.4896 1103.6 487.115
131 0 82.1956 13.1759 1083 83.8181 1103.56 485.95
132 0 86.0635 12.5837 1083 85.6353 1103.4 485.19
133 0 89.0936 13.4353 1197 87.5355 1103.02 483.901
134 0 91.0866 13.2401 1206 89.1335 1103.2 480.442
135 1 47.07 11.4723 540 87.3037 1103.99 504.106
136 0 47.0391 11.9688 563 84.9201 1104.2 504.194
137 0 49.03 12.217 599 82.3673 1103.53 502.741
138 0 50.07 12.4426 623 83.0241 1104.01 500.159
139 0 50.0517 13.0665 654 76.792 1102.35 502.243
140 0 51.0374 12.2459 625 77.7552 1102.74 500.16
141 0 52.0717 12.7516 664 78.9955 1102.68 499.949
142 0 54.02 12.8286 693 78.9509 1102.67 500.257
143 0 56.0348 12.8849 722 78.151 1102.47 499.374
144 0 55.0616 12.9673 714 77.2647 1102.41 499.116
145 0 59.0335 12.0948 714 78.1863 1103.35 498.679
146 0 60.0974 12.7127 764 77.6374 1103.47 496.848
147 0 62.1302 12.3772 769 78.3186 1102.41 496.039
148 0 64.0408 12.5701 805 88.6547 1102.34 495.075
149 0 66.0188 12.5267 827 88.7098 1102.26 494.809
150 0 67.0535 12.6466 848 95.1498 1101.93 494.081
151 0 69.0245 12.1406 838 89.4702 1101.86 491.852
152 0 71.0896 12.8992 917 86.9771 1103.12 491.432
153 0 72.0726 12.8759 928 88.0614 1102.78 490.517
154 0 76.0588 12.4509 947 87.1816 1103.26 489.114
155 0 76.044 13.0714 994 86.3974 1102.79 488.333
156 0 81.0766 12.8397 1041 85.5053 1102.84 488.148
157 0 83.0638 12.5927 1046 85.0344 1102.23 487.372
158 0 86.0319 13.1114 1128 84.2757 1102.43 486.39
159 0 87.1068 12.743 1110 85.7234 1102.53 483.135
160 0 90.058 12.3254 1110 85.4649 1102.6 482.031
161 0 93.084 12.7841 1190 82.6849 1102.52 479.329
162 0 96.0581 12.2426 1176 81.7636 1102.55 480.298
163 0 99.1431 12.7392 1263 82.5384 1102.64 477.232
164 1 50.0466 11.789 590 79.7881 1102.55 501.634
165 0 51.1054 11.5839 592 77.2888 1102.44 499.03
166 0 52.048 12.8919 671 76.8793 1102.15 498.648
167 0 55.0231 12.5584 691 82.2576 1102.4 497.436
168 0 58.0325 13.3891 777 80.0721 1102.39 496.297
169 0 59.0454 12.9053 762 81.0223 1102.72 496.403
170 0 60.0402 12.5416 753 83.1766 1102.94 495.178
171 0 62.0259 13.4299 833 81.5522 1102.83 494.701
172 0 65.1347 13.3262 868 81.977 1102.77 493.697
173 0 65.0734 13.2619 863 82.6535 1103.08 491.273
174 0 67.1482 13.4777 905 83.4818 1102.52 491.815
175 0 69.1151 13.0218 900 84.8589 1102.94 489.174
176 0 73.118 13.1021 958 84.3539 1102.19 488.841
177 0 74.1268 12.8294 951 85.45 1101.82 487.428
178 0 78.106 13.2128 1032 83.314 1102.22 487.165
179 0 81.0471 12.795 1037 84.0463 1102.68 485.58
180 0 84.101 14.2448 1198 81.8639 1102.27 484.63
181 0 87.2124 14.0232 1223 81.4358 1102.23 483.538
182 0 90.0578 13.5247 1218 82.6962 1101.96 480.832
183 1 48.0584 11.9854 576 77.4045 1101.86 502.778
184 0 49.0798 13.366 656 76.6296 1101.69 502.527
185 0 52.0524 13.0253 678 80.8466 1102.13 500.947
186 0 53.0808 12.5658 667 82.8501 1102.26 500.916
187 0 54.0575 13.0047 703 83.1451 1102.31 499.255
188 0 57.0395 12.6053 719 81.4924 1102.53 496.832
189 0 60.1292 13.1384 790 78.9899 1102.07 497.629
190 0 60.0723 12.9178 776 79.0696 1102.1 495.816
191 0 60.1084 12.91 776 79.1418 1102.29 494.433
192 0 64.1644 13.0602 838 76.5692 1101.32 493.498
193 0 65.2051 12.5604 819 79.6117 1101.66 491.298
194 0 67.1641 12.9236 868 79.5933 1101.97 488.893
195 0 69.2302 12.6534 876 81.1073 1101.64 489.03
196 0 72.4198 13.3941 970 79.6742 1101.73 487.998
197 0 74.2391 12.9851 964 80.2884 1101.18 485.331
198 0 77.2922 12.8344 992 81.1633 1101.58 483.978
199 0 80.2226 13.849 1111 78.829 1101.32 484.061
200 0 80.2502 12.9719 1041 81.8838 1101.63 482.624
201 0 86.3111 13.6367 1177 79.3475 1101.19 481.442
202 0 87.2788 13.5084 1179 101.586 1101.5 479.954
203 0 90.2659 13.2276 1194 101.94 1101.78 478.06
204 0 92.2521 13.81 1274 99.4592 1101.3 476.176
205 0 95.2693 13.1837 1256 101.324 1101.5 476.204
206 1 52.1765 11.8636 619 93.7722 1100.79 500.362
207 0 54.1004 12.1811 659 97.6085 1100.82 499.238
208 0 55.1704 12.3798 683 97.8521 1101.26 498.113
209 0 55.1026 12.4677 687 99.9563 1101.91 497.943
210 0 58.1424 12.9166 751 99.3529 1101.08 496.903
211 0 59.1959 13.0414 772 99.3614 1101.76 495.782
212 0 61.1108 12.3873 757 102.387 1101.21 495.14
213 0 64.1832 13.1654 845 101.015 1101.46 493.615
214 0 65.1259 12.9135 841 102.709 1101.43 492.551
215 0 68.1938 13.6816 933 100.631 1101.73 492.352
216 0 71.1173 13.766 979 101.543 1101.94 490.823
217 0 73.2176 13.5623 993 102.725 1101.7 488.602
218 0 76.1827 14.0846 1073 102.316 1101.42 486.307
219 0 79.3668 13.6581 1084 104.452 1100.82 483.972
220 0 82.2796 13.6 1119 105.88 1100.84 481.271
221 0 85.1911 14.3794 1225 105.523 1100.88 478.762
222 0 88.2226 13.8853 1225 108.261 1101.27 477.678
223 0 91.2086 14.7355 1344 107.028 1101.45 476.53
224 0 94.269 13.5888 1281 110.679 1101.43 474.244
225 0 98.1863 14.3299 1407 107.906 1101.1 473.694
226 0 99.1558 14.22 1410 106.108 1101.24 474.006
227 1 47.1254 12.1803 574 107.284 1100.91 499.075
228 0 49.1541 12.5931 619 107.173 1100.74 498.031
229 0 54.1233 13.0443 706 105.487 1100.27 498.613
230 0 56.1573 13.0882 735 105.136 1101.07 496.701
231 0 57.0709 13.2642 757 104.169 1100.79 496.188
232 0 59.1301 13.7662 814 103.7 1101.03 495.677
233 0 61.1229 12.7612 780 106.909 1101.12 493.52
234 0 63.0451 13.1652 830 105.607 1100.71 492.717
235 0 64.0513 13.5985 871 106.18 1100.89 491.36
236 0 65.0314 12.9783 844 108.905 1100.61 490.872
237 0 68.0883 13.2034 899 108.236 1101.51 490.73
238 0 70.1174 13.2349 928 109.277 1101.51 489.691
239 0 73.0708 13.5896 993 108.91 1101.53 487.662
240 0 76.0968 13.1937 1004 110.775 1101.52 486.91
241 0 77.0715 13.0269 1004 112.4 1101.09 485.642
242 0 80.0834 13.7107 1098 111.46 1101.03 484.813
243 0 83.0897 13.4192 1115 111.919 1100.77 482.079
244 0 85.0573 13.826 1176 112.355 1101.14 481.407
245 0 88.1205 13.9355 1228 112.638 1101.07 481.261
246 0 89.2161 14.2127 1268 113.321 1100.9 480.173
247 0 93.0616 13.8618 1290 113.736 1100.22 478.744
248 0 96.1083 13.901 1336 113.281 1101.15 477.019
249 0 98.1189 14.2582 1399 112.239 1100.86 475.315
250 0 101.068 14.3963 1455 111.737 1101.08 474.46
251 0 104.145 13.8173 1439 111.957 1100.62 472.861
252 0 109.159 14.0895 1538 108.713 1101.15 471.224
253 0 110.106 13.2962 1464 110.195 1101.02 468.007
254 0 114.105 13.3912 1528 108.952 1101.32 465.601
255 1 61.0694 11.708 715 109.538 1100.91 491.593
256 0 63.0898 11.9671 755 108.404 1101.54 489.746
257 0 67.0948 12.3109 826 107.085 1101.25 489.149
258 0 69.1079 12.5311 866 108.55 1101.22 484.506
259 0 72.0676 12.9739 935 106.396 1101.05 482.902
260 0 74.0583 12.8547 952 107.87 1101.57 481.888
261 0 76.0514 12.2943 935 111.815 1101.36 480.973
262 0 79.0404 12.5505 992 111.067 1101.21 480.131
263 0 83.1344 12.9068 1073 109.633 1101.39 480.212
264 0 86.0551 12.8755 1108 110.069 1101.87 478.8
265 0 85.0626 12.4379 1058 113.894 1101.97 476.782
266 0 88.0655 12.7519 1123 112.639 1101.66 475.072
267 0 94.0535 12.9182 1215 110.431 1101.18 473.373
268 0 95.0339 12.8796 1224 112.872 1101.25 471.496
269 0 97.024 13.172 1278 111.999 1101.57 470.416
270 0 100.061 12.2226 1223 114.236 1101.37 468.23
271 0 105.068 13.0963 1376 110.326 1101.4 464.587
272 0 109.087 12.6871 1384 111.486 1101.2 461.455
273 0 111.046 13.0846 1453 109.829 1101.6 460.355
274 1 61.0473 9.84482 601 98.9767 1100.5 487.285
275 0 61.0574 9.95785 608 101.013 1100.03 485.332
276 0 65.0474 10.0388 653 100.381 1100.3 485.977
277 0 67.0324 10.6068 711 86.4923 1101.11 490.357
278 0 69.0723 9.97506 689 88.328 1100.45 490.875
279 0 72.0486 10.2847 741 86.5938 1101.47 489.351
280 0 75.0804 10.3755 779 86.7356 1100.99 488.175
281 0 77.0403 10.1505 782 87.8325 1101 486.555
282 0 78.0681 10.6317 830 87.7084 1100.74 486.142
283 0 82.0962 10.4512 858 89.2063 1101.34 486.126
284 0 84.056 10.9927 924 88.0768 1101.19 482.444
285 0 86.066 10.2131 879 89.661 1099.78 482.313
286 0 89.0955 11.2015 998 90.2645 1100.39 479.281
287 0 89.0711 11.1259 991 90.9162 1100.15 478.474
288 0 92.0582 10.2652 945 94.0064 1100.73 477.36
289 0 95.0693 10.729 1020 92.8412 1099.96 477.11
290 0 97.0799 11.2485 1092 94.5174 1100.33 472.549
291 0 101.085 10.5555 1067 95.3468 1099.83 472.987
292 0 103.14 10.287 1061 96.1555 1100.2 470.747
293 0 105.061 10.1084 1062 97.4925 1100.26 470.927
294 0 108.107 10.4896 1134 97.9242 1100.6 468.481
295 0 113.096 11.0526 1250 97.9744 1100.29 467.075
296 0 116.105 10.0857 1171 101.026 1099.92 464.947
297 0 119.14 10.7688 1283 99.9197 1100.04 463.732
298 0 122.061 10.0605 1228 102.754 1099.99 461.397
299 0 128.12 10.8101 1385 102.266 1100.54 458.05
300 0 131.134 10.2643 1346 103.993 1100.16 455.556
301 0 136.16 10.0544 1369 104.614 1100.46 454.369
302 0 141.111 10.5945 1495 103.548 1100.35 450.202
303 0 145.154 9.80338 1423 105.434 1100.88 447.169
304 0 149.109 10.1336 1511 105.545 1100.48 444.968
305 0 155.126 10.1337 1572 104.289 1100.79 441.447
306 0 161.23 10.3703 1672 103.672 1100.82 440.934
307 0 164.189 9.81793 1612 105.508 1100.39 435.14
308 0 168.148 10.693 1798 103.662 1101.27 435.644
309 0 175.193 10.0175 1755 106.356 1100.67 433.39
310 0 179.129 10.579 1895 104.247 1100.76 430.218
311 0 184.176 9.947 1832 106.835 1101.06 427.277
312 0 190.155 10.0655 1914 103.989 1101.1 424.703
313 0 196.159 10.7719 2113 103.773 1101.63 420.125
314 0 201.209 10.3077 2074 108.591 1100.52 417.415
315 0 211.199 11.8135 2495 111.412 1101.25 416.656
316 0 216.231 12.2554 2650 113.698 1100.81 415.005
317 1 170.138 10.7501 1829 113.511 1101.55 440.208
318 0 174.181 10.7417 1871 112.253 1101.23 438.877
319 0 181.192 11.8824 2153 117.119 1100.97 435.245
320 0 187.211 13.0067 2435 112.697 1100.3 432.637
321 0 192.231 12.3237 2369 112.684 1100.46 427.64
322 0 198.192 12.5787 2493 112.222 1101.16 426.194
323 0 206.206 12.7688 2633 112.774 1100.2 421.945
324 0 212.159 12.2927 2608 111.486 1100.27 417.252
325 0 218.241 11.1116 2425 107.5 1100.05 413.581
326 0 226.2 11.1229 2516 107.375 1100.08 408.178
327 0 232.249 10.4284 2422 109.324 1099.78 400.258
328 0 239.255 10.7291 2567 108.374 1099.39 398.567
329 1 60.0374 9.99378 600 79.4917 1100.19 499.112
330 0 62.0376 10.2357 635 77.8535 1099.66 498.546
331 0 64.0723 9.98872 640 78.3875 1099.35 496.895
332 0 66.0842 10.305 681 77.5022 1099.54 495.897
333 0 64.1297 9.51197 610 82.3197 1099.47 496.382
334 0 66.0909 8.66987 573 83.438 1099.81 495.92
335 0 66.0773 8.53546 564 84.7216 1099.51 497.663
336 0 67.0827 8.18393 549 85.5683 1098.94 494.574
337 0 71.0936 9.22727 656 83.4832 1099.2 491.537
338 0 75.0799 9.54983 717 79.5411 1098.97 488.484
339 0 75.1949 9.01657 678 81.1976 1098.64 490.317
340 0 77.2093 9.2994 718 79.9861 1098.9 491.092
341 0 78.1701 9.41537 736 79.4103 1099.26 488.486
342 0 79.1103 9.45515 748 77.5562 1098.81 487.132
343 0 83.1327 9.21418 766 76.9608 1098.72 485.213
344 0 86.2001 10.2436 883 75.376 1097.9 483.034
345 0 87.0666 9.90047 862 74.8225 1097.8 481.481
346 0 91.1789 9.16878 836 75.2823 1097.24 482.466
347 0 93.104 9.52698 887 73.6855 1097.2 477.772
348 0 96.1656 9.7748 940 73.6383 1096.97 476.792
349 0 99.1471 9.42035 934 74.9732 1097.25 474.763
350 0 102.119 8.88177 907 74.3484 1097.66 474.871
351 0 105.224 9.37047 986 74.7951 1097.64 473.029
352 0 107.069 9.29304 995 73.1498 1097.93 470.798
353 0 110.142 8.5798 945 73.6212 1097.7 470.993
354 0 102.09 8.70801 889 73.5096 1097.21 453.936
355 0 114.185 8.87158 1013 72.5864 1097.01 454.368
356 0 123.242 10.2076 1258 74.3044 1096.91 464.34
357 0 127.385 10.747 1369 73.6779 1098.08 461.291
358 1 63.1045 7.00425 442 65.2602 1097.09 493.5
359 0 67.1773 9.85452 662 67.7598 1096.88 495.61
360 0 68.2238 10.5095 717 70.2273 1097.81 491.004
361 0 72.1277 11.549 833 70.5306 1097.38 491.122
362 0 68.1308 9.73128 663 74.1629 1096.02 494.95
363 0 70.0667 10.6327 745 73.251 1096.37 492.538
364 0 71.1264 10.4602 744 74.0309 1096.69 492.05
365 0 74.1352 10.5483 782 72.2327 1096.77 492.88
366 0 74.0922 9.98756 740 74.2595 1097.16 492.365
367 0 76.0873 10.1068 769 74.1547 1097.63 490.932
368 0 78.154 10.1978 797 73.256 1097.53 487.029
369 0 83.1233 9.68441 805 72.7404 1097.79 487.64
370 0 84.2127 9.83225 828 72.0459 1097.56 484.059
371 0 87.2577 9.62665 840 71.9643 1097.58 480.343
372 0 91.0427 8.78709 800 70.8188 1097.81 481.536
373 0 92.0706 8.73243 804 71.4129 1098.38 479.118
374 0 95.0937 9.47486 901 70.1421 1097.93 477.851
375 0 99.1782 8.22762 816 72.1838 1098.26 475.877
376 0 105.393 11.7275 1236 69.3301 1098.6 476.591
377 0 109.269 11.6776 1276 68.7947 1099.1 474.028
378 1 52.0698 11.7727 613 65.5938 1098.92 500.78
379 0 55.0501 11.4623 631 68.084 1098.11 501.228
380 0 53.0709 10.4012 552 67.6359 1098.06 502.011
381 0 52.0975 10.4036 542 67.1642 1097.96 500.227
382 0 55.0504 11.0263 607 66.0066 1098.2 499.774
383 0 56.1177 10.9769 616 66.3506 1098.58 499.933
384 0 55.0895 10.3286 569 69.7294 1098.49 497.36
385 0 60.0796 11.7344 705 66.8865 1098.72 497.247
386 0 62.0869 11.5 714 67.4034 1098.38 496.38
387 0 62.1057 11.1745 694 68.9496 1099.12 496.154
388 0 64.1563 12.1422 779 67.6945 1098.94 495.928
389 0 67.0828 12.4324 834 68.1439 1098.93 492.173
390 0 67.1367 12.333 828 69.6836 1099.3 490.035
391 0 71.0737 11.7202 833 70.449 1098.53 490.911
392 0 70.089 11.5282 808 72.7265 1099.52 489.542
393 0 74.056 11.7209 868 71.7938 1098.84 487.782
394 0 74.0766 11.4881 851 71.9036 1099.13 486.847
395 0 77.1442 12.2498 945 71.3503 1099.46 484.728
396 0 79.0752 12.6715 1002 70.6447 1099.58 482.737
397 0 80.0511 11.8549 949 72.5964 1099.85 481.889
398 0 82.0806 11.306 928 73.5851 1100.26 479.86
399 0 84.1308 11.7317 987 72.7285 1099.27 476.752
400 0 84.0522 10.5411 886 74.7291 1099.51 474.913
401 0 86.0892 10.7563 926 74.0097 1099.12 474.098
402 0 90.1667 11.5896 1045 74.2029 1100.09 469.773
403 0 85.0979 10.5996 902 76.8647 1099.5 459.858
404 0 87.0748 10.6231 925 77.5719 1099.71 458.228
405 0 93.1405 10.9834 1023 74.6305 1099.21 462.405
406 1 46.019 7.86632 362 67.4171 1099.08 491.45
407 0 53.0524 9.78279 519 63.7514 1100.32 492.765
408 0 51.0932 9.19887 470 66.4085 1100 489.838
409 0 55.0638 10.5151 579 57.2003 1099.57 489.546
410 0 57.0473 10.2021 582 58.0653 1100.1 489.249
411 0 57.0221 9.31218 531 59.2618 1100.6 487.669
412 0 62.0701 9.95648 618 58.9887 1099.62 490.215
413 0 63.0371 9.32784 588 61.3384 1099.46 485.537
414 0 64.0412 9.74373 624 61.7324 1099.42 486.529
415 0 67.0341 9.3087 624 62.6186 1099.46 483.178
416 0 65.0633 9.16031 596 65.4195 1099.03 481.844
417 0 70.0499 9.3933 658 67.0699 1099.71 481.713
418 0 75.04 10.8609 815 70.281 1099.31 486.45
419 0 78.056 11.6583 910 71.7758 1099.66 485.604
420 0 81.0442 11.5122 933 72.5798 1099.94 485.51
421 0 81.0477 10.8455 879 75.0728 1100.02 483.751
422 0 86.0839 11.5585 995 74.0362 1099.29 481.794
423 0 89.1416 11.2181 1000 75.537 1099.57 480.817
424 0 89.1869 11.7506 1048 75.6422 1099.96 477.39
425 0 94.1869 11.7001 1102 75.5799 1099.98 476.995
426 0 98.1698 11.0319 1083 76.1496 1099.86 474.303
427 1 50.0157 9.59699 480 75.5229 1099.83 500.917
428 0 50.0102 9.69801 485 76.1753 1100.49 500.247
429 0 52.0521 10.1629 529 74.6163 1099.53 499.488
430 0 56.0375 11.2425 630 71.7381 1099.77 497.867
431 0 57.0226 9.89081 564 72.1631 1100.26 498.303
432 0 58.0538 10.9209 634 70.3659 1099.58 495.05
433 0 59.0576 11.0401 652 70.7255 1099.52 495.865
434 0 62.1088 10.9485 680 70.5941 1099.48 495.55
435 0 64.0517 10.9755 703 70.5846 1099.88 494.236
436 0 66.0597 11.5199 761 70.3732 1099.26 494.351
437 0 67.1599 11.212 753 73.4821 1099.36 494.494
438 0 68.0927 11.0438 752 72.5133 1098.94 492.348
439 0 72.0806 11.4871 828 72.2476 1099.38 492.797
440 0 73.1211 11.4331 836 72.6974 1099.52 490.222
441 0 74.1541 10.9637 813 74.3186 1099.42 489.264
442 0 76.0914 10.7108 815 75.2957 1099.85 488.548
443 0 79.0678 10.8009 854 71.0152 1099.08 485.83
444 0 82.0682 11.7463 964 73.1442 1099.68 485.865
445 0 83.0936 11.5893 963 74.0924 1099.84 484.276
446 0 89.0613 12.4746 1111 73.0234 1099.86 483.807
447 0 88.1002 11.8955 1048 77.1298 1099.16 482.148
448 0 92.1278 12.1245 1117 76.1021 1099.43 480.741
449 1 45.0769 10.4044 469 77.177 1099.38 504.597
450 0 45.0244 10.7053 482 84.7925 1099.63 503.058
451 0 48.0419 10.4284 501 78.1258 1099.79 503.022
452 0 47.0551 11.2421 529 73.5614 1099.19 501.981
453 0 49.0221 10.791 529 72.2136 1100.11 502.431
454 0 51.0683 11.0049 562 71.6851 1099.79 501.103
455 0 53.0302 11.2577 597 70.9665 1100.31 501.76
456 0 52.0741 10.6003 552 70.933 1099.4 500.574
457 0 52.0123 10.2668 534 72.4139 1100.44 499.944
458 0 55.028 10.5583 581 72.6988 1099.7 497.768
459 0 57.0477 10.7454 613 71.8091 1100.3 497.225
460 0 60.0195 10.9464 657 69.8874 1100.03 493.9
461 0 60.098 10.8323 651 71.1905 1100.39 494.012
462 0 62.1024 10.5954 658 73.2644 1100.31 492.926
463 0 66.0387 10.9936 726 79.9986 1100.84 491.204
464 0 65.0868 10.0635 655 77.5344 1100.28 488.241
465 0 65.0868 10.0481 654 114.648 1100.32 488.361
466 0 71.0339 10.5583 750 79.3973 1100.42 487.92
467 0 73.0407 11.5278 842 77.7648 1100.13 488.387
468 0 75.1892 10.3738 780 76.95 1100.26 486.087
469 0 78.0862 10.7701 841 77.3056 1100.14 486.004
470 0 78.1547 10.3769 811 79.275 1099.85 482.667
471 0 81.1852 10.3837 843 79.484 1099.79 481.266
472 0 83.1216 10.5147 874 79.4989 1100.26 481.483
473 0 88.1477 11.1404 982 79.7393 1099.48 480.634
474 0 89.1308 11.0624 986 80.6531 1099.62 479.08
475 0 93.1358 11.2094 1044 81.386 1099.97 478.681
476 0 94.0802 10.8418 1020 82.7824 1099.32 476.824
477 0 96.1139 10.4668 1006 83.832 1099.35 475.984
478 0 100.073 11.1419 1115 82.7866 1098.92 474.623
479 0 102.142 11.0043 1124 82.0996 1099.09 472.653
480 0 105.118 10.6737 1122 82.9831 1098.92 472.607
481 0 107.273 10.9534 1175 82.8332 1099.3 470.516
482 0 113.281 11.3346 1284 84.067 1098.67 464.573
483 0 115.325 11.7754 1358 82.4337 1098.35 464.286
484 0 117.295 11.3134 1327 84.4529 1098.83 459.914
485 0 120.262 11.1673 1343 84.1035 1098.07 459.859
486 0 125.276 11.8139 1480 83.3953 1098.14 456.728
487 0 129.252 11.6284 1503 84.0785 1098.04 454.755
488 0 133.308 12.0698 1609 84.3866 1097.97 452.121
489 0 139.361 12.5071 1743 83.3431 1098.04 451.114
490 0 143.283 13.407 1921 82.3061 1097.9 450.158
491 0 147.232 12.7486 1877 84.5125 1098.35 448.832
492 0 152.381 13.23 2016 84.4975 1098.18 445.695
493 0 158.316 13.3025 2106 84.311 1098.12 443.352
494 0 162.233 12.8334 2082 86.7277 1098.63 440.325
495 0 170.418 13.5725 2313 83.5253 1098.44 437.347
496 0 174.302 13.6831 2385 83.8805 1098.31 432.28
497 1 92.2032 11.8543 1093 76.7896 1098.24 476.859
498 0 94.2343 11.1 1046 79.6052 1098.22 476.357
499 0 98.1892 11.9667 1175 80.7957 1098.28 474.492
500 0 98.1892 12.0176 1180 138.868 1098.28 474.551
501 0 105.196 12.7666 1343 82.9792 1098.29 471.333
502 0 110.273 12.6595 1396 83.8274 1098.17 470.183
503 0 113.192 12.1299 1373 85.5688 1098.51 468.109
504 0 118.268 12.3618 1462 84.9364 1098.71 467.911
505 0 119.297 12.0204 1434 87.8215 1098.44 464.965
506 0 124.431 12.9389 1610 88.0447 1098.17 462.463
507 1 65.1772 11.8446 772 84.8782 1097.65 490.518
508 0 69.2135 12.093 837 85.8554 1097.94 490.024
509 0 71.1431 12.6787 902 86.6608 1097.74 489.182
510 0 72.2134 12.56 907 90.3704 1097.61 486.442
511 0 74.1649 13.0925 971 90.1998 1097.55 487.298
512 0 77.1499 12.7025 980 92.6724 1097.87 485.229
513 0 79.2115 13.4324 1064 91.0771 1098.2 485.436
514 0 82.2088 13.2103 1086 92.3232 1098.24 482.937
515 0 86.4565 12.7926 1106 92.934 1097.41 482.42
516 0 88.1924 12.7335 1123 93.4497 1097.68 480.034
517 0 91.2865 12.05 1100 94.8464 1097.52 480.865
518 0 95.3414 12.943 1234 92.5916 1097.84 479.434
519 0 96.2291 12.834 1235 93.9838 1097.51 477.483
520 0 100.37 13.0019 1305 93.7824 1097.49 476.118
521 0 104.325 13.3046 1388 91.8624 1097.86 474.231
522 0 105.33 12.7789 1346 93.9844 1097.77 473.465
523 0 109.22 13.7062 1497 92.5371 1097.85 470.306
524 0 110.283 13.3384 1471 92.8164 1096.98 470.366
525 0 115.391 13.3632 1542 91.0947 1097.16 469.252
526 0 117.228 14.0836 1651 91.4531 1096.88 465.953
527 0 119.212 13.7737 1642 91.5554 1097.3 465.655
528 0 124.263 13.6001 1690 91.0018 1096.97 464.396
529 0 128.207 13.6966 1756 89.5683 1096.94 462.536
530 1 67.1737 11.3884 765 84.7699 1097.17 493.122
531 0 70.2178 11.9628 840 83.3405 1096.93 493.017
532 0 71.1312 12.5683 894 82.5336 1096.54 491.293
533 0 72.228 12.3775 894 85.3512 1095.82 490.691
534 0 75.1711 12.5048 940 84.7862 1096.22 489.262
535 0 77.1622 12.8301 990 85.2131 1096.36 487.874
536 0 79.1604 12.5189 991 86.668 1097.42 487.335
537 0 85.242 12.2827 1047 87.0048 1097.78 486.151
538 0 87.1893 13.3388 1163 86.4609 1097.19 482.886
539 0 91.2022 12.8835 1175 86.6647 1097.2 482.112
540 0 92.2258 13.0007 1199 88.8207 1096.89 481.121
541 0 96.1896 13.2135 1271 88.6192 1096.82 479.507
542 0 100.142 12.8118 1283 90.0857 1097 478.596
543 0 102.266 13.4844 1379 88.8963 1097.22 477.265
544 0 105.187 12.8533 1352 89.98 1096.33 475.685
545 0 109.199 13.3609 1459 89.9171 1096.96 474.419
546 0 112.203 13.333 1496 90.9779 1096.95 472.009
547 0 114.304 13.5953 1554 89.5888 1096.86 471.244
548 1 59.1353 10.5182 622 83.0707 1096.82 500.768
549 0 61.2227 11.2703 690 81.2478 1097.77 500.89
550 0 64.133 11.4294 733 80.2169 1097.98 499.671
551 0 66.2154 12.414 822 81.3431 1096.37 495.957
552 0 69.1384 11.9037 823 83.5358 1097.08 492.87
553 0 71.2206 11.8084 841 84.6421 1096.83 491.08
554 0 73.2547 11.6853 856 85.597 1097.07 491.185
555 0 75.1501 11.7631 884 87.4299 1096.99 490.035
556 0 80.2943 12.2674 985 85.7472 1096.79 487.781
557 0 81.2114 11.8333 961 87.2643 1096.94 487.21
558 0 83.2882 11.8384 986 88.858 1097.14 485.413
559 0 88.3428 12.4968 1104 87.8496 1097.55 485.458
560 0 91.3532 12.9278 1181 87.8975 1097.36 482.616
561 0 93.356 12.6826 1184 89.864 1098.08 481.944
562 0 96.3513 11.9978 1156 91.6652 1097.66 479.835
563 0 99.1643 12.1616 1206 92.3134 1097 477.894
564 0 103.304 12.3325 1274 90.8336 1097.61 476.403
565 0 107.42 12.735 1368 90.5029 1097.01 476.129
566 0 109.43 11.7975 1291 93.1294 1097.57 474.141
567 0 109.43 11.761 1287 154.675 1097.58 474.165
568 0 117.328 12.921 1516 93.9301 1097.33 469.261
569 0 117.328 12.9551 1520 167.917 1097.33 469.186
570 1 62.2537 12.1278 755 81.0411 1096.76 497.609
571 0 65.1347 11.7602 766 82.9112 1096.99 498.09
572 0 67.1252 11.3072 759 84.1647 1096.25 498.311
573 0 70.1353 11.8343 830 83.5253 1096.71 496.482
574 0 71.3312 11.5518 824 85.8689 1096.34 494.027
575 0 73.1691 11.4529 838 86.7303 1097.5 493.125
576 0 76.099 11.8004 898 86.5278 1096.43 491.423
577 0 78.2137 11.4047 892 87.5886 1096.24 490.151
578 0 80.2486 11.8756 953 87.9685 1096.27 489.65
579 0 82.2214 11.4204 939 89.5857 1096.22 488.029
580 0 85.3117 12.4368 1061 88.3073 1096.46 486.595
581 0 86.1995 11.775 1015 90.6325 1096.46 485.853
582 0 89.2307 12.2267 1091 90.077 1096.39 484.888
583 0 93.4103 12.1507 1135 90.3092 1096.08 480.528
584 0 96.2999 12.6376 1217 90.4133 1096.07 478.652
585 0 99.3309 11.6983 1162 93.2126 1096.52 477.761
586 0 102.276 11.9481 1222 95.2267 1096.54 470.383
587 0 105.294 12.5553 1322 93.5287 1096.6 472.287
588 0 107.312 12.3192 1322 95.8268 1096.42 471.5
589 1 57.1301 10.6949 611 80.6841 1096.61 505.07
590 0 58.1409 10.509 611 82.1637 1096.59 502.612
591 0 61.0992 10.933 668 80.6931 1097.14 501.602
592 0 63.1357 11.705 739 81.2558 1096.91 501.417
593 0 65.0846 11.4313 744 84.375 1097.38 501.329
594 0 66.1533 10.9292 723 86.5048 1096.48 497.936
595 0 69.2773 11.2158 777 85.3166 1096.72 497.094
596 0 70.2659 11.0865 779 85.3992 1096.9 495.58
597 0 71.2322 11.0484 787 85.3304 1097.52 494.037
598 0 76.3177 11.0983 847 85.0874 1096.79 492.475
599 0 77.3437 10.7313 830 86.0277 1096.84 491.977
600 0 80.2659 11.2376 902 85.7572 1096.53 489.27
601 0 82.2974 11.264 927 86.5566 1096.42 487.745
602 0 86.3496 11.5461 997 85.321 1096.68 488.853
603 0 89.3454 10.7784 963 85.5358 1096.97 487.235
604 0 90.3563 11.1669 1009 86.2418 1096.46 485.097
605 0 92.2674 11.4125 1053 86.9516 1096.26 483.453
606 0 96.4042 11.7941 1137 85.6974 1096.43 481.856
607 0 99.3073 12.4563 1237 85.2013 1096.19 481.574
608 0 99.4324 11.9176 1185 88.2025 1096.3 478.616
609 0 102.517 12.0077 1231 88.3225 1097.21 479.038
610 0 105.315 12.097 1274 88.5283 1097.11 476.927
611 0 108.357 12.7911 1386 87.6717 1096.98 476.258
612 0 110.323 12.3546 1363 90.8811 1097.23 473.654
613 0 114.402 12.6572 1448 90.5373 1097.14 472.62
614 0 116.24 12.1989 1418 93.493 1097.07 470.355
615 0 122.324 13.0473 1596 92.2832 1097.33 468.838
616 0 124.252 13.038 1620 93.7327 1096.8 466.181
617 0 128.259 13.6442 1750 92.2383 1096.6 464.715
618 0 132.246 14.1479 1871 92.9268 1096.11 461.788
619 0 135.423 13.8529 1876 94.7132 1096.27 459.249
620 0 140.488 14.1364 1986 93.9486 1096.76 458.09
621 0 144.354 14.1666 2045 94.2034 1097.12 455.727
622 0 149.413 14.8314 2216 91.0988 1096.95 453.311
623 0 151.319 14.1291 2138 93.7703 1096.97 451.779
624 0 157.373 13.9922 2202 94.2034 1096.42 446.989
625 0 162.513 14.3558 2333 94.1269 1096.71 445.701
626 1 84.2234 11.0539 931 92.102 1096.87 487.473
627 0 88.1761 10.978 968 93.2138 1097.02 486.239
628 0 90.2406 11.1258 1004 93.1803 1097.37 485.557
629 0 91.2224 10.7868 984 96.0386 1097.16 482.483
630 0 90.1867 10.8774 981 96.3496 1097.69 482.005
631 0 97.3049 10.7908 1050 96.5248 1097.58 481.083
632 0 98.1805 10.8881 1069 97.8419 1098.2 479.811
633 0 101.24 11.0529 1119 97.7248 1097.61 479.861
634 0 105.267 11.4376 1204 97.8654 1097.9 477.793
635 0 109.221 11.1242 1215 97.6584 1097.53 476.686
636 0 110.246 11.4562 1263 99.9287 1097.67 474.568
637 1 230.444 14.5806 3360 99.8027 1097.12 411.715
638 0 238.483 14.6468 3493 99.3962 1097.39 409.496
639 0 246.55 14.1959 3500 101.953 1097.73 404.637
640 0 252.42 13.8499 3496 103.874 1097.03 399.179
641 0 253.475 13.1887 3343 105.803 1096.96 401.442
642 0 255.456 10.8551 2773 110.72 1097.78 409.576
643 1 58.1559 10.661 620 97.0968 1098.66 496.179
644 0 60.0586 10.7062 643 99.4044 1098.82 495.258
645 0 61.0692 11.1349 680 99.4574 1098.75 495.937
646 0 65.0953 11.2604 733 98.8186 1098.64 493.969
647 0 66.158 11.3516 751 100.602 1097.85 491.874
648 0 68.089 11.4115 777 101.667 1098.43 490.943
649 0 69.1713 11.4354 791 102.238 1098.98 490.276
650 0 70.1425 11.9186 836 102.228 1098.36 489.019
651 0 74.1201 11.4679 850 104.371 1098.73 486.306
652 0 76.1151 12.1658 926 103.388 1098.03 487.437
653 0 76.1606 12.0535 918 107.044 1098.91 485.149
654 0 80.0548 11.8794 951 108.38 1099.02 484.206
655 0 82.2986 12.2602 1009 107.652 1099 482.773
656 0 85.2023 13.0043 1108 105.42 1099.15 481.487
657 0 85.301 12.3445 1053 110.594 1098.57 479.774
658 0 91.1696 13.5352 1234 106.9 1099.03 479.271
659 0 92.2143 13.3168 1228 107.763 1098.81 478.315
660 0 92.2858 12.6563 1168 112.089 1099.45 477.836
661 0 98.3793 13.0515 1284 110.094 1099.16 475.593
662 0 100.313 13.2784 1332 112.066 1099.21 473.223
663 0 103.288 13.5253 1397 112.241 1098.79 470.712
664 0 105.362 17.4446 1838 98.6502 1099.4 464.512
665 0 106.299 15.2495 1621 108.593 1098.87 466.14
666 0 108.386 14.4484 1566 113.235 1099.39 465.168
667 0 110.26 14.0667 1551 116.382 1099.93 463.449
668 0 114.374 14.339 1640 117.266 1099.01 461.415
669 0 117.406 13.9942 1643 119.855 1098.33 460.178
670 0 122.346 15.1946 1859 116.802 1098.99 458.78
671 0 125.367 15.0279 1884 119.278 1098.81 456.789
672 0 129.409 14.7671 1911 120.961 1099.32 455.514
673 0 133.368 15.0861 2012 120.528 1099.78 452.826
674 0 137.417 14.5033 1993 124.053 1099.53 450.29
675 0 140.324 14.096 1978 125.618 1099.4 445.868
676 0 145.278 14.1797 2060 124.798 1099.32 443.691
677 0 151.29 14.6275 2213 122.097 1098.93 443.01
678 0 154.281 13.7412 2120 125.312 1098.1 438.385
679 0 159.242 14.1797 2258 118.878 1098.45 436.116
680 0 163.297 13.6316 2226 121.147 1097.91 433.925
681 0 169.33 14.3979 2438 119.359 1098.14 431.742
682 0 174.201 13.8174 2407 123.24 1097.54 427.607
683 0 179.335 14.0853 2526 122.425 1098.02 422.501
684 0 185.228 13.5022 2501 124.156 1098.67 419.97
685 0 191.315 14.1181 2701 121.929 1099.18 417.577
686 0 195.181 13.6233 2659 125.05 1099.29 413.285
687 0 201.146 13.5722 2730 126.744 1099.76 409.741
688 1 61.0314 8.55297 522 86.7586 1098.48 496.716
689 0 63.0829 8.90891 562 86.5409 1099.49 496.651
690 0 63.091 8.93947 564 86.5585 1099.93 496.213
691 0 63.0811 8.60797 543 87.0589 1100.49 494.289
692 0 65.0386 9.57893 623 83.9454 1099.63 494.217
693 0 68.1042 6.10829 416 87.2163 1099.38 502.757
694 0 66.0845 7.9595 526 86.3422 1099.05 495.475
695 0 66.1157 7.83475 518 87.0096 1099.15 496.643
696 0 64.1524 6.90543 443 89.3996 1099.65 496.865
697 0 68.0613 9.25636 630 85.7127 1099.34 494.51
698 0 71.124 7.62049 542 89.1568 1099.07 493.954
699 0 72.1381 8.42827 608 88.954 1098.89 494.192
700 0 71.1481 9.02343 642 89.9673 1099.39 493.087
701 0 73.2495 8.76456 642 90.4252 1099.26 493.942
702 0 80.1158 8.98699 720 90.6319 1099.15 490.953
703 1 157.366 9.75435 1535 94.7277 1099.27 455.274
704 0 158.382 8.58054 1359 97.1582 1098.7 451.397
705 0 163.413 8.60395 1406 97.579 1098.53 449.61
706 0 167.429 8.83361 1479 97.5456 1097.66 446.679
707 0 174.342 9.16588 1598 95.9418 1098.56 449.052
708 0 177.396 9.1265 1619 96.8091 1098.16 445.482
709 0 182.387 9.08508 1657 96.0863 1098.07 443.687
710 0 183.499 9.35701 1717 95.2697 1098.17 441.287
711 0 192.543 8.47605 1632 95.8824 1098.09 438.635
712 0 209.383 4.52759 948 94.6677 1097.84 469.931
713 0 208.399 6.50196 1355 96.3166 1098.49 453.767
714 0 211.469 9.7603 2064 94.8871 1098.43 431.132
715 0 234.475 4.2222 990 99.4121 1097.94 467.002
716 0 234.482 5.39915 1266 100.477 1098.58 451.596
717 1 63.1652 9.10312 575 94.84 1098.21 497.224
718 0 63.2079 9.44503 597 112.578 1097.2 497.002
719 0 67.1407 9.84499 661 70.9607 1097.66 494.12
720 0 70.0383 10.123 709 72.9168 1098.56 494.458
721 0 71.1141 9.7449 693 72.9437 1097.01 492.825
722 0 78.1178 6.64381 519 73.5356 1096.85 508.177
723 0 77.1102 9.40213 725 75.6745 1096.18 498.97
724 0 78.1137 9.62699 752 76.504 1096.52 500.622
725 0 78.1002 9.93595 776 76.4201 1097.59 500.776
726 0 78.1002 9.80791 766 134.167 1098.58 500.911
727 0 82.0966 9.89079 812 81.0456 1097.15 494.906
728 0 86.1388 10.0419 865 81.4798 1097.07 493.934
729 0 87.1118 10.6071 924 82.4848 1097.34 490.974
730 0 90.0929 9.7566 879 83.7406 1097.78 491.573
731 0 91.0661 10.2783 936 84.3098 1097.66 491.398
732 0 94.1209 11.0284 1038 84.3141 1097.87 488.702
733 0 95.0446 10.5214 1000 86.196 1097.95 487.229
734 0 100.134 10.6458 1066 85.8443 1097.96 484.22
735 0 103.221 11.2574 1162 85.6962 1097.63 481.207
736 0 107.082 11.113 1190 86.7101 1097.97 478.743
737 0 107.119 10.8944 1167 88.8835 1098.24 477.886
738 0 112.165 10.5023 1178 90.1986 1098.4 474.986
739 0 116.11 11.3513 1318 90.4021 1097.98 472.309
740 0 119.08 11.7149 1395 90.41 1097.97 471.049
741 0 123.19 11.6568 1436 90.796 1097.89 468.23
742 0 125.223 11.0922 1389 93.7149 1098.22 464.881
743 0 129.209 11.88 1535 91.598 1097.7 461.894
744 0 132.191 11.8011 1560 92.1378 1097.74 463.39
745 1 67.0596 9.93147 666 87.7733 1096.84 497.799
746 0 69.0382 10.7766 744 88.3723 1095.6 496.831
747 0 71.0361 11.8672 843 90.1424 1097.76 495.104
748 0 72.0493 11.506 829 98.0519 1098.69 494.677
749 0 77.0706 11.5738 892 87.9036 1097.83 493.064
750 0 77.1414 12.3021 949 92.2402 1097.93 491.445
751 0 81.068 12.6437 1025 91.7883 1098.15 490.079
752 0 81.123 11.686 948 94.3713 1098.59 488.768
753 0 83.1611 12.8786 1071 91.1783 1098.14 489.841
754 0 83.1633 12.8903 1072 143.742 1097.12 489.774
755 0 88.1049 12.4624 1098 98.0483 1097.29 486.376
756 0 91.156 12.3854 1129 97.8609 1097.25 485.131
757 0 92.2226 12.2746 1132 99.5018 1098.16 482.202
758 0 96.118 12.1621 1169 99.3122 1097.84 480.287
759 0 100.215 13.0319 1306 96.1815 1098.11 481.002
760 0 104.264 12.7944 1334 95.2654 1098.09 480.684
761 0 105.285 12.7368 1341 94.786 1097.68 475.277
762 0 107.271 12.2028 1309 94.906 1098.32 475.824
763 0 110.33 12.7889 1411 95.7704 1097.84 475
764 0 112.285 12.8779 1446 95.87 1097.83 472.546
765 0 116.441 13.6378 1588 95.005 1097.54 472.294
766 0 120.313 13.1573 1583 96.0347 1097.23 469.639
767 0 120.106 11.6897 1404 86.2144 1098.02 471.714
768 0 124.123 11.3516 1409 88.7857 1097.75 468.314
769 1 73.0836 9.60543 702 84.9231 1097.42 493.258
770 0 77.0898 11.0131 849 89.3875 1097.78 490.408
771 0 79.0956 11.1384 881 90.7991 1098.87 485.672
772 0 82.0873 11.2929 927 90.2416 1099.2 485.107
773 0 82.0451 11.1646 916 86.6015 1097.83 489.092
774 0 86.0449 11.587 997 85.7773 1098 489.329
775 0 90.0925 12.8313 1156 82.7509 1097.88 487.643
776 0 92.0389 12.4839 1149 83.6954 1098.11 485.625
777 0 95.1339 12.4456 1184 82.5642 1097.97 485.476
778 0 96.0956 11.9152 1145 87.1196 1097.91 484.542
779 0 99.0626 12.2347 1212 85.2145 1097.36 483.696
780 0 103.12 12.9072 1331 84.3576 1097.72 482.412
781 0 106.064 12.4359 1319 84.702 1098.36 479.761
782 0 110.118 12.759 1405 83.9053 1098.42 478.243
783 0 110.129 12.0767 1330 87.006 1098.13 472.703
784 1 61.0502 11.9082 727 83.9642 1097.73 503.257
785 0 61.0836 12.3928 757 85.4756 1097.46 499.382
786 0 63.0693 12.2881 775 85.6116 1097.7 499.521
787 0 67.0941 12.8774 864 84.2616 1098.2 498.562
788 0 67.0746 13.3434 895 81.4123 1097.8 497.019
789 0 71.059 13.538 962 80.1622 1098.64 494.465
790 0 74.0789 12.8242 950 82.0937 1099.03 494.234
791 0 74.1064 13.1298 973 82.074 1099.51 494.112
792 0 77.0306 13.3453 1028 88.1255 1098.43 491.116
793 0 79.0435 13.423 1061 82.9086 1098.97 489.314
794 0 83.07 13.2659 1102 84.0109 1098.98 489.541
795 0 83.0376 12.5244 1040 87.8212 1099.12 487.409
796 0 88.0873 13.6228 1200 87.5692 1098.61 484.714
797 0 90.1003 13.7735 1241 89.5431 1099.26 484.031
798 0 93.1184 13.5097 1258 98.1749 1099.29 483.587
799 0 97.112 14.5399 1412 96.3591 1099.02 482.752
800 0 96.0824 13.7486 1321 99.184 1099.24 482.77
801 0 101.192 13.6869 1385 99.2722 1099.47 481.67
802 0 104.173 14.5239 1513 96.5578 1099.63 479.983
803 0 107.155 14.549 1559 96.8627 1098.55 478.666
804 0 110.136 13.665 1505 97.3183 1099.01 476.353
805 0 115.171 14.3525 1653 95.36 1098.22 474.937
806 1 62.0954 12.4164 771 94.2231 1098.11 501.405
807 0 63.0528 12.7195 802 93.389 1098.16 500.979
808 0 66.0876 13.4367 888 90.2432 1097.92 499.24
809 0 68.0868 12.9981 885 93.8825 1098.37 500.641
810 0 66.0641 11.9127 787 87.1372 1098.58 500.039
811 0 71.1398 12.5949 896 86.3884 1098.57 499.924
812 0 72.0775 12.764 920 87.8674 1098.53 498.371
813 0 75.0523 12.498 938 88.4616 1098.47 496.875
814 0 78.1136 12.5714 982 89.1853 1098.93 495.994
815 0 80.0537 12.6915 1016 90.2923 1098.5 495.322
816 0 83.0691 12.1826 1012 92.8814 1098.24 494.162
817 0 84.0829 12.9158 1086 93.8867 1098.45 493.52
818 0 87.0681 12.9209 1125 94.0516 1097.83 492.257
819 0 89.06 13.0249 1160 96.6491 1097.66 489.932
820 0 92.1244 12.5917 1160 99.0103 1097.48 487.838
821 0 97.1409 13.3517 1297 104.47 1098.09 485.443
822 0 99.0741 12.9297 1281 106.359 1097.45 483.749
823 1 55.1478 11.6052 640 103.545 1097.45 500.436
824 0 57.1202 12.2899 702 99.8533 1097.06 501.067
825 0 56.145 12.4677 700 101.824 1096.94 501.809
826 0 60.0914 13.0302 783 98.3397 1096.73 501.561
827 0 61.0628 13.2814 811 98.4414 1096.22 501.483
828 0 63.0612 13.59 857 94.8285 1097.46 503.831
829 0 66.1121 13.6737 904 93.0973 1097.45 501.827
830 0 68.1093 13.9041 947 92.9609 1098.14 502.024
831 0 69.043 13.4988 932 94.9624 1097.31 499.854
832 0 71.0933 13.1799 937 96.5827 1097.99 498.858
833 0 71.0933 13.2502 942 141.483 1097.97 498.82
834 0 75.0388 13.5796 1019 94.9961 1097.96 495.222
835 0 77.0959 12.5428 967 102.03 1098.38 491.623
836 0 78.0256 12.4574 972 103.591 1098.16 489.505
837 0 82.0516 12.7481 1046 101.731 1098.16 486.651
838 0 83.0931 12.9253 1074 101.314 1097.85 484.541
839 0 87.0886 12.2978 1071 102.233 1098.13 484.145
840 0 90.0345 12.4175 1118 101.519 1097.2 481.514
841 0 93.0352 13.0596 1215 98.6955 1097.35 480.179
842 0 96.0403 13.0154 1250 98.5912 1096.96 478.532
843 0 98.0624 13.2671 1301 95.6095 1097.01 480.095
844 1 50.0225 11.7347 587 93.833 1097.33 501.884
845 0 53.1402 11.1592 593 91.1265 1096.9 500.04
846 0 55.0524 12.8241 706 83.8697 1097.04 502.649
847 0 56.0337 12.4925 700 85.8886 1097.86 502.059
848 0 59.0711 12.7981 756 84.5317 1097.53 500.722
849 0 60.1388 12.7372 766 85.4517 1097.59 498.594
850 0 64.0664 12.3154 789 84.7123 1097.58 497.63
851 0 66.0573 13.4731 890 81.5663 1097.68 495.969
852 0 67.0701 12.9715 870 83.4207 1097.82 495.98
853 0 69.0628 13.2922 918 82.7407 1097.46 495.099
854 0 70.1376 13.1171 920 84.0652 1097.43 495.797
855 0 73.1487 13.2743 971 83.2966 1097.38 492.349
856 0 76.13 13.3719 1018 83.001 1097.05 492.468
857 0 79.1551 13.1767 1043 84.4871 1097.69 489.407
858 0 80.1599 13.3234 1068 85.1161 1097.56 487.956
859 0 84.192 13.2792 1118 84.7773 1096.63 487.172
860 0 86.1687 13.2763 1144 85.5481 1097.65 485.301
861 0 89.1654 13.1441 1172 85.4053 1096.98 484.452
862 0 92.1004 13.3224 1227 84.6055 1097.57 482.625
863 0 93.0657 13.1305 1222 86.5319 1097.27 481.037
864 0 93.0974 12.6105 1174 89.5136 1097.3 479.88
865 0 96.0461 12.4836 1199 90.804 1097.06 478.544
866 0 99.0716 13.0713 1295 92.5398 1097.87 475.517
867 0 102.069 12.8345 1310 91.6511 1097.25 476.418
868 0 106.079 12.3399 1309 92.7166 1097.21 474.169
869 0 108.053 12.5679 1358 96.2069 1096.92 469.54
870 0 113.082 12.4688 1410 95.5177 1095.28 467.318
871 0 116.06 12.1833 1414 95.9074 1095.59 465.72
872 1 62.0182 11.2225 696 88.5259 1094.8 493.022
873 0 60.025 10.5123 631 90.4532 1095.84 482.089
874 0 68.0274 12.642 860 89.5721 1098.08 492.548
875 0 68.0316 12.1561 827 92.1512 1098.25 492.54
876 0 74.1586 12.8239 951 90.3102 1096.87 494.132
877 0 75.1746 13.1427 988 91.6225 1096.56 492.16
878 0 77.1158 13.3825 1032 90.751 1097.56 490.686
879 0 81.1042 12.786 1037 91.405 1097.1 490.756
880 0 82.128 12.3222 1012 93.0622 1097.29 489.607
881 0 86.0833 12.9061 1111 91.0864 1096.94 487.274
882 0 89.1468 12.5635 1120 91.9982 1096.81 486.632
883 0 91.042 11.7638 1071 92.5966 1095.9 485.408
884 0 93.055 12.2078 1136 92.7139 1096.1 483.011
885 0 95.0628 11.9605 1137 93.7388 1095.84 479.296
886 1 47.0338 10.3755 488 89.9652 1096.48 504.955
887 0 49.0249 11.0964 544 88.9724 1096.46 503.149
888 0 53.042 11.0102 584 87.7192 1096.09 503.348
889 0 54.0879 11.0561 598 84.3177 1097.06 502.06
890 0 56.0627 11.505 645 77.2837 1096.49 500.422
891 0 57.0325 12.5893 718 87.2228 1097.01 498.227
892 0 59.054 11.3286 669 89.6024 1096.91 496.354
893 0 61.0956 12.0467 736 87.8057 1096.47 496.424
894 0 62.0554 12.4405 772 85.9987 1096.88 495.083
895 0 65.0664 11.7111 762 86.2598 1097.95 493.999
896 0 68.0288 12.0978 823 84.0377 1098.47 494.225
897 0 68.0288 12.0537 820 84.439 1098.4 492.6
898 0 72.0405 11.9238 859 84.9686 1098.18 489.505
899 0 72.0359 12.4521 897 84.874 1097.79 489.823
900 0 76.0349 13.2571 1008 82.7976 1098.16 488.354
901 0 77.0542 12.7183 980 84.7245 1098.76 487.467
902 0 81.0479 12.7332 1032 84.2432 1099.36 487.811
903 0 82.0285 12.264 1006 85.0119 1098.47 486.414
904 0 85.0341 12.689 1079 84.7071 1098.97 484.485
905 0 88.0369 12.0631 1062 85.8098 1099.15 482
906 0 92.1129 12.7887 1178 83.3752 1098.47 480.62
907 0 92.0724 12.5771 1158 85.2988 1098.7 477.567
908 0 96.1208 13.2125 1270 84.1488 1098.36 477.782
909 0 97.0759 13.2783 1289 84.931 1097.62 474.604
910 0 98.0652 12.4305 1219 88.1682 1097.62 473.839
911 0 102.057 12.1598 1241 78.2409 1097.72 475.875
912 0 105.123 12.1001 1272 79.1494 1097.51 476.402
913 1 56.0178 10.8001 605 83.6446 1098.01 497.646
914 0 58.0164 11.6346 675 81.9585 1097.62 497.807
915 0 59.0371 11.3827 672 81.503 1097.85 495.948
916 0 61.0251 12.29 750 78.9093 1098.44 495.865
917 0 62.0763 12.388 769 79.922 1096.6 494.554
918 0 64.0786 11.642 746 80.4799 1097.71 494.851
919 0 68.0938 12.6884 864 78.0451 1096.84 493.544
920 0 71.0423 12.2603 871 78.9598 1096.33 492.015
921 0 73.111 12.1596 889 79.658 1096.56 491.126
922 0 76.0664 13.0675 994 76.6449 1096.31 490.779
923 0 77.1006 12.0881 932 78.6491 1096.38 489.778
924 0 81.0873 12.8133 1039 76.5958 1096.91 490.882
925 0 84.0645 12.8354 1079 75.9425 1096.79 489.116
926 0 87.0978 12.7213 1108 76.3565 1096.57 488.388
927 0 89.098 12.1888 1086 77.0608 1096.52 487.062
928 0 93.127 13.24 1233 73.9635 1096.19 486.447
929 0 95.1386 12.8654 1224 74.1618 1096.54 484.569
930 0 99.2281 13.0507 1295 73.5915 1095.75 484.612
931 0 101.162 12.1488 1229 76.5679 1095.17 482.535
932 0 105.249 13.3398 1404 74.0036 1095.38 480.377
933 0 107.117 12.7151 1362 75.3811 1096 479.26
934 0 110.076 11.9645 1317 76.7388 1095.63 479.324
935 1 55.1162 10.1785 561 72.1836 1095.84 501.847
936 0 58.0494 11.8003 685 70.5737 1095.4 500.466
937 0 60.0266 11.7281 704 71.2415 1095.65 499.526
938 0 62.0562 12.2631 761 70.5401 1094.98 498.616
939 0 65.036 12.716 827 69.9492 1094.7 496.347
940 0 66.0408 12.144 802 70.7494 1095.08 498.35
941 0 68.0948 11.8071 804 72.0883 1094.61 496.383
942 0 71.1202 12.6265 898 70.8664 1095.04 495.867
943 0 73.058 12.7433 931 70.9957 1095.01 493.931
944 0 75.0758 12.0944 908 72.5011 1095.13 494.199
945 0 76.0759 11.9486 909 73.7998 1095.49 492.153
946 0 78.1012 11.7924 921 74.3388 1094.91 492.448
947 0 80.0662 11.6404 932 74.8959 1095.13 490.904
948 0 84.0779 12.6787 1066 72.8415 1095.23 488.541
949 0 85.0365 12.1477 1033 75.0048 1095.19 486.069
950 0 88.045 12.823 1129 75.7334 1095.17 484.288
951 0 88.0474 12.3116 1084 87.024 1095.79 487.906
952 0 93.1305 12.4342 1158 93.2651 1096.21 488.757
953 0 98.127 13.136 1289 93.3576 1096.57 484.255
954 0 99.0798 12.4647 1235 95.2794 1095.92 481.762
955 0 103.124 12.6158 1301 95.4204 1095.91 480.956
956 0 105.142 12.2881 1292 85.9365 1096.05 479.063
957 0 109.216 12.2235 1335 85.0884 1096.38 476.854
958 0 111.166 12.216 1358 85.768 1096.28 476.016
959 1 58.0693 12.7606 741 82.7949 1096.7 500.713
960 0 58.131 12.6955 738 82.5325 1096.45 500.084
961 0 60.0832 13.0985 787 82.8208 1096.08 498.939
962 0 62.1749 13.5264 841 80.8966 1096.91 498.092
963 0 64.152 13.0471 837 81.3106 1097.03 496.79
964 0 65.1216 13.1139 854 80.8408 1096.9 495.93
965 0 68.1428 12.782 871 80.4489 1096.92 495.239
966 0 69.1182 12.9922 898 80.9321 1096.97 494.755
967 0 71.0502 13.3004 945 78.545 1096.64 495.158
968 0 73.0613 12.7427 931 79.2492 1097.12 492.37
969 0 73.0484 12.5944 920 79.312 1096.78 491.295
970 0 78.0604 12.5416 979 77.7589 1096.45 490.531
971 0 79.0491 12.5492 992 78.0827 1096.94 486.858
972 0 80.0601 13.0527 1045 76.0794 1097.22 487.444
973 0 84.1343 13.1338 1105 74.0009 1097.57 485.456
974 0 86.1295 13.6074 1172 73.1647 1097.3 482.052
975 0 87.0929 12.8598 1120 73.9545 1097.53 481.144
976 0 88.1007 12.2587 1080 75.463 1097.55 478.187
977 0 91.1307 12.4437 1134 73.3501 1097.54 476.839
978 0 94.2594 12.5611 1184 72.7669 1097.3 473.497
979 0 96.1798 12.8925 1240 80.3524 1098.11 475.802
980 0 100.185 12.5168 1254 81.8732 1097.59 474.88
981 0 101.207 12.6868 1284 82.9307 1098.3 474.08
982 0 104.206 12.4081 1293 74.4254 1097.7 472.081
983 0 109.11 12.0612 1316 80.3192 1097.97 470.952
984 0 112.204 13.4844 1513 74.345 1097.99 470.541
985 0 116.095 13.3081 1545 75.7786 1097.63 466.449
986 0 117.171 13.0066 1524 78.2546 1097.26 463.453
987 0 124.18 12.9086 1603 79.3787 1098.22 462.321
988 0 128.129 12.9479 1659 79.5835 1098.27 457.756
989 0 134.19 13.2648 1780 79.7169 1097.53 455.242
990 0 138.116 13.7927 1905 80.3874 1098.01 450.05
991 0 142.336 13.2995 1893 82.0734 1097.75 450.484
992 0 149.245 14.0842 2102 81.7931 1097.51 445.855
993 0 153.172 13.6383 2089 82.8909 1097.13 443.616
994 0 158.235 13.9539 2208 83.2613 1097.74 439.688
995 0 164.212 13.3973 2200 84.5291 1097.42 436.647
996 0 169.232 13.5021 2285 83.7549 1097.5 432.694
997 0 176.134 13.0525 2299 84.6324 1097.3 429.304
998 0 184.315 13.2762 2447 85.2942 1098.06 427.58
999 0 191.172 13.1661 2517 86.5348 1098.07 425.373
1000 0 197.23 13.0051 2565 87.5945 1098.42 422.092
1001 1 95.099 11.5143 1095 84.4228 1098.03 478.223
1002 0 101.156 12.8614 1301 86.6849 1097.34 479.191
1003 0 104.137 12.4932 1301 86.7294 1097.79 475.982
1004 0 107.15 12.7765 1369 85.9379 1097.52 475.08
1005 0 111.212 12.3907 1378 86.418 1098.44 473.012
1006 0 116.138 12.666 1471 84.0014 1098.77 471.895
1007 0 121.254 12.6181 1530 83.9588 1098.74 469.408
1008 0 125.211 11.8999 1490 86.5711 1098.95 465.252
1009 0 131.279 13.3304 1750 84.0783 1098.69 465.242
1010 0 136.285 12.9067 1759 85.3746 1098.51 465.362
1011 0 138.268 12.606 1743 86.0935 1098.6 463.418
1012 0 142.277 12.4475 1771 86.9272 1099.08 460.394
1013 0 146.335 12.7584 1867 87.1826 1098.43 455.955
1014 0 151.222 13.4372 2032 86.4286 1098.18 454.117
1015 0 154.346 12.3878 1912 87.4247 1098.38 454.022
1016 0 159.172 13.2121 2103 85.825 1098.57 451.42
1017 0 164.213 13.2754 2180 89.122 1097.82 448.296
1018 0 169.194 13.3634 2261 90.8766 1098.57 445.851
1019 0 174.137 13.5698 2363 92.3195 1098.76 445.866
1020 0 177.14 13.176 2334 92.0501 1098.6 444.833
1021 0 182.273 13.2713 2419 92.2985 1099.14 442.682
1022 0 188.192 12.8911 2426 90.669 1099.4 441.185
1023 0 197.248 12.72 2509 91.0765 1099.37 436.319
1024 0 204.193 12.1062 2472 91.6659 1100.02 430.432
1025 1 107.146 11.9276 1278 83.5548 1098.92 479.746
1026 0 110.133 12.7301 1402 84.1355 1098.94 473.258
1027 0 114.09 12.7355 1453 81.4301 1098.11 473.572
1028 0 119.162 13.1502 1567 80.4697 1098.1 470.907
1029 0 124.076 13.0565 1620 81.9512 1097.68 464.651
1030 0 130.041 12.8267 1668 85.0486 1097.99 462.25
1031 0 135.191 12.7375 1722 85.0128 1098.08 457.511
1032 1 54.1529 10.5627 572 79.2535 1097.51 499.545
1033 0 57.0666 10.514 600 73.2217 1097.6 499.425
1034 0 61.1395 11.073 677 75.5273 1097.39 499.991
1035 0 62.1776 11.9818 745 73.8322 1097.62 500.412
1036 0 64.0867 12.0462 772 74.6619 1097.92 499.117
1037 0 65.1756 10.955 714 77.1611 1097.94 500.685
1038 0 66.1762 11.2578 745 77.255 1097.74 498.599
1039 0 69.0887 11.1017 767 77.3612 1097.72 496.683
1040 0 69.1249 10.5895 732 79.0956 1097.4 496.713
1041 0 73.2029 10.8192 792 78.7412 1097.98 495.816
1042 0 75.1139 11.4759 862 78.9362 1097.99 491.758
1043 0 78.0362 12.0329 939 77.4878 1097.61 490.86
1044 0 81.0512 11.5112 933 77.2808 1097.27 491.331
1045 0 84.1892 11.5217 970 76.4907 1097.34 488.707
1046 0 87.083 11.4144 994 75.4698 1096.93 487.014
1047 1 44.0713 10.9822 484 78.4628 1097.78 506.027
1048 0 45.0596 11.8954 536 76.8209 1097.8 505.782
1049 0 48.0808 11.6471 560 77.1036 1098.18 507.109
1050 0 49.0358 12.2971 603 76.7579 1097.69 508.396
1051 0 51.1573 12.5104 640 77.3406 1096.65 507.239
1052 0 52.0772 11.963 623 78.5152 1097.27 507.117
1053 0 51.0574 12.2607 626 79.6502 1097.33 506.054
1054 0 54.0779 12.519 677 82.805 1096.97 505.279
1055 0 55.1046 12.4491 686 84.4432 1097.03 504.586
1056 0 55.1735 12.7779 705 86.9574 1097.58 503.305
1057 0 57.0434 13.2881 758 86.1293 1097.76 503.467
1058 0 60.0223 12.5787 755 87.702 1097.32 502.417
1059 0 60.0382 13.3248 800 87.6588 1097.26 501.659
1060 0 63.0485 13.783 869 85.7606 1098.1 500.339
1061 0 63.0597 13.7806 869 134.493 1099.1 500.339
1062 0 65.0682 13.0786 851 89.2761 1097.47 499.908
1063 0 67.0212 13.6375 914 87.9814 1097.2 499.112
1064 0 67.0591 12.9587 869 91.4684 1097.15 497.73
1065 0 68.0747 12.8829 877 91.561 1097.16 498.076
1066 0 71.0354 13.2328 940 91.0617 1097.44 497.436
1067 0 74.1386 13.3534 990 89.8091 1097.65 495.683
1068 0 76.1254 13.0311 992 92.0534 1097.84 493.777
1069 0 78.0642 12.8484 1003 92.2692 1097.92 493.756
1070 0 79.065 12.8755 1018 93.1876 1097.2 492.858
1071 0 83.0901 12.3841 1029 93.8844 1097.63 490.692
1072 0 85.0439 12.7816 1087 92.7176 1098.73 490.81
1073 0 88.1027 13.3594 1177 92.6338 1098.11 484.721
1074 0 91.074 13.3628 1217 91.2786 1098.31 484.376
1075 0 93.0975 13.4697 1254 91.508 1098.25 482.319
1076 0 94.0379 12.6438 1189 92.0294 1098.12 475.731
1077 0 99.0916 12.9476 1283 90.7186 1098.49 478.764
1078 0 103.087 12.1742 1255 92.4279 1098.33 479.543
1079 1 60.0569 11.2893 678 94.1578 1097.81 502.704
1080 0 61.0371 12.3695 755 90.6676 1097.61 502.172
1081 0 62.0747 12.5333 778 90.1105 1097.58 499.156
1082 0 65.1112 12.3788 806 92.1576 1097.33 499.185
1083 0 66.1357 12.4743 825 92.2376 1097.31 499.012
1084 0 70.1739 12.5118 878 91.9806 1097.15 497.68
1085 0 70.2141 12.5758 883 92.2718 1097.29 496.173
1086 0 74.1246 12.533 929 91.5662 1096.84 494.437
1087 0 78.1808 13.2641 1037 88.3896 1097.66 494.461
1088 0 77.1384 12.4452 960 91.5458 1098.16 492.669
1089 0 80.1235 12.6929 1017 102.957 1097.56 492.523
1090 0 84.1334 13.3122 1120 100.086 1097.67 489.542
1091 0 86.2399 13.1841 1137 101.205 1097.18 486.153
1092 0 91.2825 13.2884 1213 99.3603 1097.09 487.363
1093 0 92.2183 13.121 1210 100.743 1097.07 484.886
1094 0 93.3537 12.5116 1168 101.743 1097.16 482.16
1095 0 98.2921 12.9614 1274 100.969 1097.02 481.245
1096 1 53.1819 10.6427 566 96.7491 1096.67 504.905
1097 0 54.1834 10.3722 562 96.3185 1096.61 504.486
1098 0 53.1259 11.9716 636 92.7626 1096.72 502.079
1099 0 56.0697 11.8246 663 89.81 1098.82 504.807
1100 0 56.1814 11.6231 653 92.0046 1098.05 504.873
1101 0 58.0935 12.5487 729 90.7353 1097.2 504.593
1102 0 62.2246 13.0816 814 88.9337 1097.83 501.789
1103 0 64.1659 13.0599 838 89.6945 1097.24 500.095
1104 0 65.1806 11.9668 780 93.2628 1097.41 499.804
1105 0 65.0529 11.9441 777 94.8147 1097.84 497.93
1106 0 69.1712 12.1727 842 95.3658 1097.05 496.276
1107 0 69.1928 12.0244 832 96.3293 1097.2 493.505
1108 0 72.1966 12.2582 885 96.1435 1097.12 493.559
1109 0 70.2456 12.2 857 98.5064 1097.21 493.201
1110 0 73.1328 11.527 843 101.077 1097.32 491.542
1111 0 75.1855 11.7177 881 102.062 1097.42 487.911
1112 0 79.1822 12.5407 993 99.1722 1096.64 483.72
1113 0 81.274 12.2179 993 101.52 1097.08 481.745
1114 0 84.2489 12.0951 1019 102.095 1097.88 481.541
1115 0 86.2399 12.6276 1089 102.93 1097.51 478.927
1116 0 88.2238 12.3776 1092 104.712 1097.2 477.674
1117 0 91.1212 12.0609 1099 104.36 1097.46 478.008
1118 0 96.2188 12.4716 1200 103.252 1097.74 475.812
1119 0 101.391 11.7861 1195 105.231 1097.28 474.367
1120 1 55.1407 11.3709 627 101.306 1097.25 495.649
1121 0 58.0589 11.695 679 101.486 1096.83 493.719
1122 0 61.108 11.717 716 101.527 1096.83 492.848
1123 0 67.0882 13.1618 883 103.189 1096.94 495.698
1124 0 69.2787 13.3807 927 102.173 1096.6 496.32
1125 0 71.1177 12.8801 916 103.492 1096.43 498.322
1126 0 73.1211 13.5255 989 99.6461 1096.86 497.5
1127 0 75.1411 13.3216 1001 100.517 1096.29 497.477
1128 0 75.217 13.0822 984 103.2 1097.66 494.581
1129 0 78.1775 12.6635 990 104.778 1097.89 493.535
1130 0 80.3141 12.4387 999 106.858 1097.86 491.72
1131 0 84.3426 12.5322 1057 107.374 1097.47 489.837
1132 0 87.1873 12.4445 1085 107.28 1097.62 488.665
1133 0 90.2045 13.0149 1174 105.791 1097.49 486.057
1134 0 91.1236 12.5873 1147 108.021 1097.54 485.762
1135 0 92.1661 12.51 1153 105.388 1097.83 485.665
1136 0 94.1229 12.2924 1157 107.169 1097.16 484.818
1137 0 96.1321 11.8275 1137 107.9 1097.44 482.772
1138 1 52.0726 11.3303 590 107.378 1096.79 504.576
1139 0 53.1248 11.5389 613 107.217 1096.8 502.044
1140 0 57.1492 12.0737 690 106.52 1096.97 503.99
1141 0 56.1354 11.6682 655 100.182 1097.2 504.739
1142 0 58.1856 11.2915 657 100.72 1096.96 504.339
1143 0 62.1247 12.2496 761 98.2589 1096.86 504.296
1144 0 63.1396 11.7992 745 100.752 1096.58 504.773
1145 0 62.1255 11.4768 713 103.083 1096.69 502.039
1146 0 66.156 11.7298 776 101.608 1096.92 501.302
1147 0 69.1528 12.3205 852 108.631 1096.93 498.438
1148 0 72.1999 12.5346 905 109.51 1097.25 497.619
1149 0 74.2876 12.8016 951 109.866 1096.52 496.035
1150 0 77.2914 13.0416 1008 95.0476 1097.31 495.705
1151 0 81.1058 13.0324 1057 94.0445 1097.3 495.152
1152 0 81.2108 13.0032 1056 95.6269 1097.26 494.231
1153 0 82.1306 12.3827 1017 98.7984 1096.55 493.005
1154 0 86.1625 12.5461 1081 99.1619 1096.52 491.893
1155 0 88.2223 12.5819 1110 99.7514 1096.05 490.676
1156 0 91.45 12.5314 1146 100.231 1096.53 490.802
1157 0 96.2498 12.7377 1226 98.5334 1096.83 486.456
1158 1 49.0469 10.9895 539 94.5009 1097.1 509.527
1159 0 52.0157 11.2851 587 93.8194 1097.29 507.79
1160 0 52.042 11.3178 589 91.6078 1097.45 502.234
1161 0 53.0905 11.0566 587 87.6712 1097.62 505.86
1162 0 53.1615 11.8319 629 89.3863 1096.34 510.28
1163 0 56.0636 11.8615 665 89.0571 1097.03 509.406
1164 0 58.0269 11.9083 691 90.1751 1097.08 507.797
1165 0 60.0494 12.2732 737 89.772 1097.17 506.06
1166 0 62.0488 12.3774 768 90.8477 1097.31 506.298
1167 0 65.0781 11.7244 763 93.4626 1096.59 504.182
1168 0 67.0299 12.2035 818 92.4279 1096.01 503.688
1169 0 69.1243 12.3401 853 94.2509 1096.8 501.227
1170 0 68.0634 12.4296 846 95.1962 1097.13 502.332
1171 0 72.0679 11.8499 854 96.5398 1097.49 500.111
1172 0 75.0419 13.0727 981 94.2732 1097.06 498.175
1173 0 77.0582 12.9123 995 94.9779 1096.79 497.264
1174 0 80.1926 12.233 981 97.7604 1096.77 495.78
1175 0 84.1263 12.8735 1083 95.723 1097.6 493.61
1176 0 85.0644 12.6257 1074 97.4209 1096.87 490.169
1177 0 87.0518 13.5666 1181 96.4793 1096.75 488.5
1178 0 89.1168 12.8932 1149 99.409 1096.16 488.712
1179 1 47.0602 11.3684 535 100.103 1096.4 510.477
1180 0 48.0257 11.0774 532 103.551 1096.51 508.748
1181 0 50.0188 11.4757 574 100.24 1096.63 508.46
1182 0 51.0753 11.8257 604 98.7699 1096.26 508.866
1183 0 54.2514 12.2577 665 100.567 1095.91 507.675
1184 0 55.0755 12.383 682 99.956 1096.44 504.837
1185 0 55.1116 13.2096 728 100.973 1095.97 504.812
1186 0 59.0487 13.328 787 100.915 1096.49 505.089
1187 0 62.0838 13.1757 818 99.346 1096.64 504.033
1188 0 62.0444 12.9907 806 102.475 1096.61 502.205
1189 0 63.0754 12.9686 818 102.949 1096.38 501.131
1190 0 66.1917 12.9623 858 104.772 1096.76 501.307
1191 0 66.0814 12.303 813 107.086 1096.2 499.55
1192 0 70.0906 12.7549 894 104.614 1096.42 498.72
1193 0 72.1056 12.7868 922 105.342 1096.23 497.295
1194 0 74.1001 12.5371 929 105.751 1096.67 495.271
1195 0 76.1763 13.1537 1002 111.979 1096.44 492.644
1196 0 81.088 13.4175 1088 110.607 1096.45 490.053
1197 0 82.1888 13.5177 1111 109.708 1096.48 488.091
1198 1 43.1219 11.595 500 112.2 1095.8 506.922
1199 0 42.0652 11.7675 495 113.444 1096.05 506.764
1200 0 44.0753 12.1837 537 112.03 1095.88 505.443
1201 0 45.0856 12.8422 579 109.475 1096.41 506.534
1202 0 47.0602 12.8771 606 108.703 1096.39 505.668
1203 0 48.0327 12.7621 613 108.971 1095.81 506.15
1204 0 49.0376 12.8269 629 110.399 1096.38 504.773
1205 0 49.0162 13.1181 643 109.11 1096.49 505.365
1206 0 51.0374 13.0101 664 107.986 1096.32 503.663
1207 0 52.0151 12.8424 668 110.145 1096.93 503.234
1208 0 53.0205 13.0138 690 109.641 1096.32 502.82
1209 0 53.01 13.1673 698 112.308 1096.73 501.514
1210 0 55.0554 13.0232 717 111.968 1096.03 499.625
1211 0 57.0813 12.8764 735 111.414 1096.63 498.997
1212 0 58.009 12.8428 745 109.832 1096.17 497.205
1213 0 60.0724 13.0676 785 108.039 1096.65 494.242
1214 0 61.0514 13.3822 817 109.501 1095.97 489.668
1215 0 60.0586 12.671 761 112.661 1096.55 486.662
1216 0 61.0632 12.7409 778 112.587 1096.28 486.62
1217 0 66.0378 12.9926 858 110.64 1096.89 485.192
1218 0 66.0264 12.7979 845 109.716 1096.34 483.108
1219 0 66.1028 12.178 805 111.917 1096.51 483.262
1220 0 70.0467 12.9771 909 108.712 1096.56 482.098
1221 0 74.0681 12.3535 915 109.246 1096.25 479.695
1222 0 75.0776 11.8011 886 109.815 1095.9 480.37
1223 0 84.1237 13.8011 1161 101.109 1096.44 482.125
1224 1 43.1124 12.4558 537 103.181 1096.92 501.14
1225 0 45.0422 12.6104 568 102.199 1096.82 500.498
1226 0 46.0662 13.1984 608 100.732 1096.65 499.372
1227 0 47.0969 13.0157 613 101.449 1096.24 498.396
1228 0 48.0753 13.146 632 100.986 1096.96 499.263
1229 0 51.0543 13.515 690 99.6391 1097.04 498.522
1230 0 50.1092 12.9517 649 101.997 1096.26 497.632
1231 0 54.1092 13.713 742 98.4367 1096.58 498.546
1232 0 55.1305 13.1687 726 100.128 1096.06 499.236
1233 0 55.0519 13.0604 719 101.629 1096.34 499.362
1234 0 57.0988 13.2577 757 98.8534 1096.11 500.149
1235 0 58.0973 12.9954 755 99.8503 1096.28 500.098
1236 0 60.093 13.1962 793 99.2093 1096.44 497.487
1237 0 63.0313 13.0253 821 98.5506 1097.05 496.839
1238 0 65.0246 12.9182 840 97.9857 1096.5 495.885
1239 0 66.1095 13.2054 873 96.7491 1096.88 496.266
1240 0 69.0901 13.7646 951 96.3155 1096.6 494.152
1241 0 72.1172 13.5474 977 95.7523 1097.26 492.237
1242 0 75.037 13.1535 987 96.5785 1096.69 489.71
1243 0 78.0587 13.5027 1054 94.3216 1097.12 488.177
1244 0 79.128 13.1306 1039 95.9528 1096.43 486.289
1245 0 83.1311 13.3284 1108 95.1101 1096.89 484.658
1246 0 84.0843 13.1535 1106 96.4051 1097.26 485.058
1247 0 87.0437 13.0739 1138 96.5808 1097.31 481.23
1248 0 90.0831 12.5884 1134 97.5247 1097.1 479.101
1249 0 91.0372 12.6432 1151 97.6655 1096.94 476.13
1250 0 96.0955 12.2795 1180 98.0042 1096.92 474.701
1251 1 50.029 10.0742 504 88.6488 1096.68 500.296
1252 0 58.0524 11.8341 687 86.3202 1097.32 502.937
1253 0 59.1279 12.4138 734 93.47 1097.53 500.621
1254 0 63.0746 12.0334 759 94.4545 1098.22 500.453
1255 0 64.0805 11.9537 766 95.6501 1098.38 499.533
1256 0 65.0833 11.493 748 97.5682 1097.18 497.402
1257 0 70.042 12.8209 898 93.3664 1098.09 497.42
1258 0 71.033 13.1207 932 94.2918 1097.65 494.614
1259 0 77.0873 13.2188 1019 94.9313 1096.78 492.887
1260 0 78.0518 12.9401 1010 96.7089 1097.1 490.538
1261 0 78.0686 13.027 1017 98.9725 1096.52 489.247
1262 0 82.0664 13.4403 1103 98.9139 1096.85 488.396
1263 0 84.0365 13.3513 1122 99.9278 1096.58 487.675
1264 0 85.0925 12.8566 1094 103.362 1097.14 484.839
1265 0 89.1186 13.0949 1167 103.122 1096.78 483.727
1266 0 91.141 13.1774 1201 104.63 1097.13 482.047
1267 0 91.1241 13.542 1234 105.338 1097.63 481.114
1268 0 95.0474 13.6984 1302 105.265 1097.61 479.873
1269 0 100.1 13.6963 1371 105.047 1097.69 477.716
1270 0 103.118 13.7901 1422 105.225 1097.08 477.485
1271 0 104.171 13.8715 1445 106.938 1096.79 473.805
1272 0 109.224 14.3559 1568 105.268 1096.61 474.142
1273 0 114.09 13.84 1579 106.514 1097.57 473.041
1274 0 116.094 13.6355 1583 107.328 1097.09 469.497
1275 0 122.143 13.5088 1650 106.357 1097.27 468.462
1276 1 64.1362 10.7584 690 105.226 1096.92 496.47
1277 0 69.1163 11.5602 799 103.941 1096.73 494.378
1278 0 72.0571 12.7815 921 99.5071 1097.04 493.588
1279 0 74.0509 13.4097 993 96.5378 1096.33 495.189
1280 0 77.0428 12.837 989 97.2295 1096.67 493.585
1281 0 79.1049 13.0207 1030 96.9796 1096.42 491.384
1282 0 81.0931 12.8741 1044 97.682 1096.32 489.203
1283 0 84.1161 12.9583 1090 96.6202 1096.51 489.348
1284 0 85.0611 13.2258 1125 97.4898 1097.35 485.807
1285 0 90.0509 13.1259 1182 97.1794 1096.84 486.337
1286 0 92.054 12.8294 1181 96.768 1096.99 485.4
1287 0 93.1043 13.0177 1212 96.9505 1097.44 483.214
1288 0 98.1022 13.0374 1279 95.9038 1097.37 481.864
1289 0 97.0969 13.0591 1268 97.0347 1097.61 478.275
1290 0 100.119 12.9546 1297 95.1843 1097.04 476.961
1291 0 102.089 12.9886 1326 94.0558 1097.76 473.547
1292 0 105.056 12.403 1303 93.5073 1097.25 471.638
1293 0 111.098 11.8544 1317 100.89 1097.64 468.298
1294 0 114.119 11.6457 1329 100.4 1097.07 467.184
1295 0 118.096 11.8463 1399 99.2781 1096.73 464.227
1296 1 64.0469 11.2886 723 95.527 1096.23 491.38
1297 0 66.015 11.452 756 93.869 1096.32 492.143
1298 0 70.0621 11.447 802 88.6758 1096.6 489.865
1299 0 68.0825 9.87038 672 92.3348 1096.24 494.348
1300 0 70.0733 9.93246 696 91.5503 1096.08 492.047
1301 0 74.0547 10.2897 762 89.6457 1096.88 488.713
1302 0 79.1301 10.1099 800 88.5188 1097.02 487.645
1303 0 79.0964 10.1522 803 88.274 1097.54 487.315
1304 0 83.0748 10.0993 839 87.9976 1097.61 484.515
1305 0 86.1334 10.6463 917 86.3348 1097.4 482.171
1306 0 83.0689 10.2445 851 88.3878 1097.6 477.733
1307 0 86.1595 10.6431 917 86.663 1098.1 477.603
1308 0 87.061 10.441 909 88.3201 1098.09 474.818
1309 0 90.0792 10.7128 965 88.3306 1098.38 472.617
1310 0 91.1052 10.8446 988 88.3239 1098.01 470.451
1311 0 96.0987 11.4466 1100 86.9873 1097.76 471.701
1312 0 103.178 11.9018 1228 85.7207 1097.39 469.711
1313 1 51.0114 10.2526 523 85.1338 1098.12 492.438
1314 0 56.0785 11.6801 655 81.6137 1097.85 494.217
1315 0 56.0587 11.702 656 82.1143 1097.88 492.175
1316 0 66.0766 12.0315 795 79.0076 1097.81 499.434
1317 0 65.0754 11.6634 759 82.2859 1097.92 500.088
1318 0 67.1407 10.8727 730 84.6753 1097.52 499.833
1319 0 70.048 12.1774 853 83.4736 1097.41 500.419
1320 0 72.1729 11.1953 808 85.6139 1096.91 498.114
1321 0 75.1255 12.0598 906 86.457 1097.6 497.095
1322 0 78.1795 12.6504 989 85.9535 1097.28 494.931
1323 0 79.2996 11.8916 943 89.14 1097.24 495.128
1324 0 82.1255 12.6757 1041 89.2325 1098.02 492.948
1325 0 85.403 12.7864 1092 88.7399 1097.77 490.766
1326 0 89.0912 12.5153 1115 89.617 1098.13 485.592
1327 0 91.1196 12.6976 1157 87.2368 1098.88 486.201
1328 0 93.1716 11.5808 1079 91.6626 1098.78 482.801
1329 0 89.1601 11.5747 1032 89.8372 1097.26 475.869
1330 0 94.269 10.8413 1022 92.5421 1096.93 476.391
1331 0 97.2821 11.2559 1095 93.537 1096.59 473.048
1332 0 100.305 11.9037 1194 92.7973 1096.8 473.422
1333 0 104.223 12.2718 1279 93.2791 1096.62 470.753
1334 0 106.373 12.6536 1346 93.0476 1096.79 468.811
1335 0 112.329 13.2736 1491 89.8303 1096.62 464.528
1336 0 116.315 13.5666 1578 89.3916 1096.79 465.33
1337 0 114.327 10.8374 1239 96.7482 1096.25 465.245
1338 1 45.2411 8.09 366 81.6831 1096.6 501.418
1339 0 47.1288 9.23002 435 77.9195 1096.17 501.784
1340 0 51.1457 10.2648 525 73.0552 1097.16 503.945
1341 0 53.0714 9.44012 501 73.0758 1096.87 501.216
1342 0 54.0784 9.83758 532 72.6165 1096.42 501.43
1343 0 57.026 10.5391 601 72.0965 1096.73 499.857
1344 0 62.0197 12.1574 754 78.1963 1095.4 504.804
1345 0 63.1135 12.9132 815 77.7117 1095.87 505.602
1346 0 64.1283 13.0832 839 78.621 1095.7 504.617
1347 0 66.0506 12.6872 838 80.0597 1095.78 502.335
1348 0 69.0437 13.7015 946 78.3541 1095.84 502.567
1349 0 70.0409 12.9068 904 81.9004 1096.38 502.1
1350 0 72.0507 12.8521 926 83.5529 1095.83 499.305
1351 0 75.1027 13.0754 982 82.5458 1095.85 497.895
1352 0 78.1348 12.312 962 84.3971 1096.63 497.589
1353 0 78.0957 12.8304 1002 84.026 1095.98 496.414
1354 0 80.1497 13.0506 1046 83.066 1096.42 495.117
1355 0 82.2307 12.7933 1052 84.0751 1096.04 496.134
1356 0 86.1873 13.5171 1165 81.5631 1096.19 494.189
1357 0 85.3079 12.8124 1093 83.9506 1095.86 492.384
1358 0 90.2033 13.0151 1174 83.4906 1095.99 490.593
1359 0 93.2034 13.0789 1219 82.3421 1095.88 489.702
1360 0 94.0626 12.5555 1181 82.2202 1095.5 486.198
1361 0 100.096 13.1074 1312 80.0549 1096.68 486.349
1362 0 103.057 13.0801 1348 79.8153 1096.62 485.226
1363 0 105.093 13.0931 1376 80.7805 1096.56 482.542
1364 1 61.0341 11.5509 705 83.8936 1096.63 505.508
1365 0 61.0914 12.2931 751 85.9867 1097.3 501.727
1366 0 66.0956 12.845 849 83.8657 1096.86 501.855
1367 0 65.1064 11.5503 752 78.8949 1096.62 500.375
1368 0 69.125 12.1085 837 77.4863 1096.51 499.161
1369 0 70.1731 12.5262 879 78.2116 1096.9 497.804
1370 0 72.0952 12.9273 932 78.5826 1096.98 497.137
1371 0 72.1784 13.1203 947 79.6864 1096.59 496.817
1372 0 73.1204 12.7734 934 83.1777 1095.9 494.88
1373 0 76.1212 12.3356 939 91.1406 1096.31 492.741
1374 0 79.1461 12.4706 987 92.231 1096.01 490.869
1375 0 81.0968 13.8107 1120 93.6741 1095.81 493.973
1376 0 84.2583 14.3131 1206 92.5804 1095.15 492.803
1377 0 86.07 13.4774 1160 90.2353 1096 489.072
1378 0 88.108 14.1985 1251 90.7122 1095.72 490.185
1379 0 87.1565 13.4356 1171 91.1033 1096.13 489.36
1380 0 88.0601 14.1154 1243 94.5615 1096.04 490.625
1381 0 88.0565 13.8434 1219 98.2092 1096.28 489.523
1382 0 90.1235 14.0363 1265 98.9945 1095.81 489.855
1383 0 91.0843 14.8324 1351 95.9408 1095.65 489.239
1384 0 95.1645 14.0704 1339 95.9522 1095.74 487.283
1385 0 95.1619 14.0497 1337 145.699 1095.74 487.294
1386 0 100.095 14.4063 1442 90.8849 1094.67 485.175
1387 0 102.1 14.1724 1447 90.566 1094.95 484.815
1388 0 105.132 14.6103 1536 88.2682 1095.08 483.29
1389 0 107.079 14.3166 1533 87.7834 1095.04 481.315
1390 0 106.174 13.8546 1471 88.6778 1095.33 476.544
1391 0 110.105 14.1956 1563 87.7818 1094.74 475.436
1392 0 114.171 14.0228 1601 88.1324 1095.27 476.01
1393 0 117.241 14.5257 1703 86.8139 1094.5 470.88
1394 0 120.093 14.0058 1682 88.9477 1094.93 470.054
1395 0 118.093 14.0483 1659 144.884 1095.93 470.272
1396 0 128.178 14.5969 1871 91.8846 1094.66 466.988
1397 0 130.147 14.5912 1899 93.198 1094.9 463.303
1398 0 133.23 14.4637 1927 94.5257 1094.61 459.053
1399 1 77.1564 10.4204 804 100.05 1094.66 489.095
1400 0 80.1595 11.7142 939 100.323 1094.31 488.186
1401 0 84.2156 12.8836 1085 102.899 1094.85 488.569
1402 0 84.1649 13.628 1147 102.156 1095.18 489.252
1403 0 87.1353 13.0372 1136 106.401 1095.05 488.717
1404 0 88.1426 13.1038 1155 108.182 1094.92 486.787
1405 0 90.1814 13.0182 1174 111.084 1094.8 486.012
1406 0 93.1622 13.6643 1273 111.012 1095.17 483.687
1407 0 95.0614 13.9173 1323 111.743 1094.65 482.435
1408 0 99.1191 13.9731 1385 112.548 1095.42 482.661
1409 0 102.147 14.0288 1433 114.173 1095.42 480.866
1410 0 103.086 13.9786 1441 115.971 1095.65 480.946
1411 0 108.082 14.4428 1561 113.212 1096.13 480.327
1412 0 109.183 14.7458 1610 114.361 1095.35 478.665
1413 0 112.075 14.4636 1621 115.812 1095.58 475.919
1414 0 117.191 14.7793 1732 114.509 1095.35 475.836
1415 0 121.146 15.3203 1856 113.565 1095.74 471.498
1416 0 122.147 14.5644 1779 117.422 1095.08 470.255
1417 0 128.279 14.6868 1884 115.269 1095.38 469.885
1418 1 71.1099 11.1799 795 112.59 1095.07 498.304
1419 0 73.1511 11.2507 823 112.416 1095.5 496.79
1420 0 76.1057 11.9045 906 110.497 1095.51 495.236
1421 0 77.1413 12.8336 990 110.085 1095.33 492.718
1422 0 79.3131 12.3939 983 116.461 1095.28 481.578
1423 0 82.3249 12.4628 1026 116.189 1095.01 481.212
1424 0 82.2571 12.9958 1069 113.53 1095.98 483.136
1425 0 83.2192 12.425 1034 117.198 1095.9 481.902
1426 0 85.2742 12.3484 1053 117.527 1095.91 479.529
1427 0 90.1516 12.6454 1140 114.823 1096.66 476.646
1428 0 92.1625 12.6407 1165 113.498 1096.61 475.016
1429 0 94.2321 12.9043 1216 112.374 1095.89 474.905
1430 0 98.2237 13.1333 1290 111.611 1096.34 475.674
1431 0 99.0972 12.8762 1276 112.139 1095.98 473.823
1432 0 100.16 13.2687 1329 109.697 1096.4 470.606
1433 0 103.133 12.8669 1327 109.983 1096.39 470.408
1434 0 104.147 13.0297 1357 110.699 1096.21 467.923
1435 0 109.196 12.5737 1373 110.483 1096.14 466.307
1436 0 111.273 12.9232 1438 109.697 1096.12 464.243
1437 0 114.083 13.2886 1516 106.4 1095.42 463.239
1438 0 116.057 12.58 1460 111.718 1096 459.948
1439 0 120.28 13.3854 1610 107.735 1095.3 459.825
1440 0 126.13 12.7012 1602 110.38 1095.8 457.675
1441 0 128.213 13.6804 1754 107.365 1095.29 455.846
1442 0 133.145 12.7606 1699 110.896 1095.38 452.928
1443 0 138.204 13.4729 1862 109.108 1095.46 452.13
1444 0 140.211 12.9947 1822 111.519 1095.13 448.372
1445 0 148.332 12.9305 1918 112.78 1095.22 446.636
1446 0 151.34 12.8452 1944 110.708 1095.52 444.32
1447 0 152.223 12.751 1941 111.641 1095.82 440.987
1448 0 159.314 13.0936 2086 108.775 1096.05 440.944
1449 0 164.376 12.5079 2056 111.033 1096.06 432.536
1450 0 169.471 12.9698 2198 109.758 1096.14 431.232
1451 0 173.305 13.3118 2307 108.958 1095.42 429.621
1452 0 177.127 12.4148 2199 112.498 1096.39 425.723
1453 0 182.194 12.5031 2278 112.366 1096.12 421.23
1454 1 154.181 12.2973 1896 118.53 1095.86 417.384
1455 0 161.112 13.1027 2111 116.602 1096.41 418.604
1456 1 258.265 10.83 2797 121.113 1096.11 394.538
1457 1 180.105 12.4594 2244 117.533 1095.82 409.993
1458 1 35.0272 8.50766 298 73.0604 1095.44 514.715
1459 0 35.0177 8.9669 314 74.0318 1095.05 513.949
1460 0 36.0141 8.63551 311 75.8585 1095.59 515.473
1461 0 37.0267 9.18256 340 74.25 1095.19 514.009
1462 0 36.0254 9.18797 331 75.7885 1095.2 514.813
1463 0 34.0126 9.87868 336 74.4345 1095.1 516.33
1464 0 39.0304 10.3509 404 71.8267 1095.47 514.04
1465 0 38.0198 9.28464 353 74.9943 1095.56 514.405
1466 0 39.011 10.0484 392 73.9158 1094.38 513.036
1467 0 38.0374 10.6211 404 74.745 1094.88 514.827
1468 0 38.0422 9.72605 370 77.6703 1094.63 514.381
1469 0 37.0117 10.24 379 77.38 1094.45 514.496
1470 0 39.0054 10.1012 394 76.8147 1094.48 515.041
1471 0 38.0086 10.9186 415 75.4458 1094.37 514.337
1472 0 39.0068 10.2546 400 77.0225 1094.7 514.12
1473 0 37.0055 9.94448 368 77.5706 1094.03 515
